eventStartTime,eventEndTime,eventCond,imSize,imFile,responseEvent,fixRespStart,fixRespEnd,Events.thisRepN,Events.thisTrialN,Events.thisN,Events.thisIndex,Instructions.started,Instructions.stopped,participantReadyResponse.keys,participantReadyResponse.rt,participantReadyResponse.started,participantReadyResponse.stopped,startWaitforTrigger,triggerResponse.keys,triggerResponse.rt,triggerResponse.started,triggerResponse.stopped,globalTimer,actualStartTime,startTimingDiff,participantResponse.keys,participantResponse.rt,participantResponse.started,participantResponse.stopped,image.started,image.stopped,fixationOutside.started,fixationOutside.stopped,fixationResponse.started,fixationResponse.stopped,fixationInside.started,fixationInside.stopped,session,participant,date,expName,psychopyVersion,frameRate,
,,,,,,,,,,,,11.905776900000092,None,1,12.836069500000121,11.905776900000092,None,,,,,,,,,,,,,,,,,,,,,004,P006,2025_Jan_25_1152,ConditionRich,2021.2.3,59.92477044305009,
,,,,,,,,,,,,,,,,,,24.756077600000026,5,13.604564700000083,24.769220200000746,None,,,,,,,,,,,,,,,,004,P006,2025_Jan_25_1152,ConditionRich,2021.2.3,59.92477044305009,
0.0,4.0,0,0.0,Stimuli/Blank.png,0,0,0.0,0,0,0,0,,,,,,,,,,,,38.38520030000018,0.037228899999718124,0.037228899999718124,5,3.9258868999995684,38.44793550000031,None,38.44793550000031,None,38.44793550000031,None,38.44793550000031,38.44793550000031,38.44793550000031,None,004,P006,2025_Jan_25_1152,ConditionRich,2021.2.3,59.92477044305009,
4.0,7.75,14,0.75,Stimuli/P006/sun_bsirencncgxteejx.jpg,0,0,0.0,0,1,1,1,,,,,,,,,,,,,4.019189199999346,0.019189199999345874,5,1.9557482999998683,42.41834740000013,42.41834740000013,42.41834740000013,42.41834740000013,42.41834740000013,42.41834740000013,42.41834740000013,42.41834740000013,42.41834740000013,42.41834740000013,004,P006,2025_Jan_25_1152,ConditionRich,2021.2.3,59.92477044305009,
7.75,8.0,41,0.0,Stimuli/Blank.png,0,0,0.0,0,2,2,2,,,,,,,,,,,,,7.75568740000017,0.005687400000169873,None,,46.155284600000414,46.155284600000414,46.155284600000414,46.155284600000414,46.155284600000414,46.155284600000414,46.155284600000414,46.155284600000414,46.155284600000414,46.155284600000414,004,P006,2025_Jan_25_1152,ConditionRich,2021.2.3,59.92477044305009,
8.0,11.75,18,0.75,Stimuli/P006/sun_bzqhpcsgzswozfhs.jpg,0,0,0.0,0,3,3,3,,,,,,,,,,,,,8.005499099999724,0.005499099999724422,5,1.9521395000001576,46.42162970000027,46.42162970000027,46.42162970000027,46.42162970000027,46.42162970000027,46.42162970000027,46.42162970000027,46.42162970000027,46.42162970000027,46.42162970000027,004,P006,2025_Jan_25_1152,ConditionRich,2021.2.3,59.92477044305009,
11.75,12.0,41,0.0,Stimuli/Blank.png,0,0,0.0,0,4,4,4,,,,,,,,,,,,,11.778059299999768,0.028059299999767973,5,0.18221360000006825,50.19162040000083,50.19162040000083,50.19162040000083,50.19162040000083,50.19162040000083,50.19162040000083,50.19162040000083,50.19162040000083,50.19162040000083,50.19162040000083,004,P006,2025_Jan_25_1152,ConditionRich,2021.2.3,59.92477044305009,
12.0,15.75,20,0.75,Stimuli/P006/sun_dvxuxzytfdbjyzit.jpg,0,0,0.0,0,5,5,5,,,,,,,,,,,,,12.02582540000003,0.02582540000003064,5,1.9486721000002944,50.42516080000041,50.42516080000041,50.42516080000041,50.42516080000041,50.42516080000041,50.42516080000041,50.42516080000041,50.42516080000041,50.42516080000041,50.42516080000041,004,P006,2025_Jan_25_1152,ConditionRich,2021.2.3,59.92477044305009,
15.75,16.0,41,0.0,Stimuli/Blank.png,0,0,0.0,0,6,6,6,,,,,,,,,,,,,15.762615900000128,0.012615900000128022,5,0.21219730000029813,54.16178520000085,54.16178520000085,54.16178520000085,54.16178520000085,54.16178520000085,54.16178520000085,54.16178520000085,54.16178520000085,54.16178520000085,54.16178520000085,004,P006,2025_Jan_25_1152,ConditionRich,2021.2.3,59.92477044305009,
16.0,19.75,22,0.75,Stimuli/P006/things_baby_03s.jpg,0,0,0.0,0,7,7,7,,,,,,,,,,,,,16.01351539999996,0.01351539999996021,5,1.9460571999998137,54.42869080000037,54.42869080000037,54.42869080000037,54.42869080000037,54.42869080000037,54.42869080000037,54.42869080000037,54.42869080000037,54.42869080000037,54.42869080000037,004,P006,2025_Jan_25_1152,ConditionRich,2021.2.3,59.92477044305009,
19.75,20.0,41,0.0,Stimuli/Blank.png,0,0,0.0,0,8,8,8,,,,,,,,,,,,,19.7657494999994,0.01574949999940145,None,,58.165326400000595,58.165326400000595,58.165326400000595,58.165326400000595,58.165326400000595,58.165326400000595,58.165326400000595,58.165326400000595,58.165326400000595,58.165326400000595,004,P006,2025_Jan_25_1152,ConditionRich,2021.2.3,59.92477044305009,
20.0,23.75,6,0.75,Stimuli/P006/sun_bbzkhzmxdjrfjpjz.jpg,0,0,0.0,0,9,9,9,,,,,,,,,,,,,19.999173399999563,-0.0008266000004368834,5,1.9759439999997994,58.39885560000039,58.39885560000039,58.39885560000039,58.39885560000039,58.39885560000039,58.39885560000039,58.39885560000039,58.39885560000039,58.39885560000039,58.39885560000039,004,P006,2025_Jan_25_1152,ConditionRich,2021.2.3,59.92477044305009,
23.75,24.0,41,0.0,Stimuli/Blank.png,0,0,0.0,0,10,10,10,,,,,,,,,,,,,23.753877199999806,0.00387719999980618,None,,62.152176800000234,62.152176800000234,62.152176800000234,62.152176800000234,62.152176800000234,62.152176800000234,62.152176800000234,62.152176800000234,62.152176800000234,62.152176800000234,004,P006,2025_Jan_25_1152,ConditionRich,2021.2.3,59.92477044305009,
24.0,27.75,38,0.75,Stimuli/P006/things_sledgehammer_03s.jpg,1,0,0.75,0,11,11,11,,,,,,,,,,,,,24.002514699999665,0.0025146999996650266,5,1.9723727000000508,62.402387800000724,62.402387800000724,62.402387800000724,62.402387800000724,62.402387800000724,62.402387800000724,62.402387800000724,63.13640110000051,62.402387800000724,62.402387800000724,004,P006,2025_Jan_25_1152,ConditionRich,2021.2.3,59.92477044305009,
27.75,28.0,41,0.0,Stimuli/Blank.png,0,0,0.0,0,12,12,12,,,,,,,,,,,,,27.75686869999936,0.006868699999358796,None,,66.15570480000042,66.15570480000042,66.15570480000042,66.15570480000042,66.15570480000042,66.15570480000042,66.15570480000042,66.15570480000042,66.15570480000042,66.15570480000042,004,P006,2025_Jan_25_1152,ConditionRich,2021.2.3,59.92477044305009,
28.0,31.75,27,0.75,Stimuli/P006/things_first-aid_kit_03s.jpg,1,1,1.75,0,13,13,13,,,,,,,,,,,,,28.006874799999423,0.006874799999422976,5,1.9689879999996265,66.40592370000013,66.40592370000013,66.40592370000013,66.40592370000013,66.40592370000013,66.40592370000013,67.39014110000062,68.1407979000005,66.40592370000013,66.40592370000013,004,P006,2025_Jan_25_1152,ConditionRich,2021.2.3,59.92477044305009,
31.75,32.0,41,0.0,Stimuli/Blank.png,0,0,0.0,0,14,14,14,,,,,,,,,,,,,31.760389099999884,0.01038909999988391,5,0.2155040999996345,70.15931680000085,70.15931680000085,70.15931680000085,70.15931680000085,70.15931680000085,70.15931680000085,70.15931680000085,70.15931680000085,70.15931680000085,70.15931680000085,004,P006,2025_Jan_25_1152,ConditionRich,2021.2.3,59.92477044305009,
32.0,35.75,40,0.75,Stimuli/P006/things_woman_03s.jpg,0,0,0.0,0,15,15,15,,,,,,,,,,,,,32.01059649999934,0.010596499999337539,5,1.9486054999997577,70.42614120000053,70.42614120000053,70.42614120000053,70.42614120000053,70.42614120000053,70.42614120000053,70.42614120000053,70.42614120000053,70.42614120000053,70.42614120000053,004,P006,2025_Jan_25_1152,ConditionRich,2021.2.3,59.92477044305009,
35.75,36.0,41,0.0,Stimuli/Blank.png,0,0,0.0,0,16,16,16,,,,,,,,,,,,,35.78026090000003,0.030260900000030233,5,0.19522549999965122,74.17952060000061,74.17952060000061,74.17952060000061,74.17952060000061,74.17952060000061,74.17952060000061,74.17952060000061,74.17952060000061,74.17952060000061,74.17952060000061,004,P006,2025_Jan_25_1152,ConditionRich,2021.2.3,59.92477044305009,
36.0,39.75,30,0.75,Stimuli/P006/things_hood_03s.jpg,1,2,2.75,0,17,17,17,,,,,,,,,,,,,36.013488999999936,0.013488999999935913,1,2.3907509999999093,74.41298900000038,74.41298900000038,74.41298900000038,74.41298900000038,74.41298900000038,74.41298900000038,76.39806540000063,77.14872650000052,74.41298900000038,74.41298900000038,004,P006,2025_Jan_25_1152,ConditionRich,2021.2.3,59.92477044305009,
39.75,40.0,41,0.0,Stimuli/Blank.png,0,0,0.0,0,18,18,18,,,,,,,,,,,,,39.75025120000009,0.00025120000009337673,None,,78.14961970000058,78.14961970000058,78.14961970000058,78.14961970000058,78.14961970000058,78.14961970000058,78.14961970000058,78.14961970000058,78.14961970000058,78.14961970000058,004,P006,2025_Jan_25_1152,ConditionRich,2021.2.3,59.92477044305009,
40.0,43.75,5,0.75,Stimuli/P006/sun_axaqdcecfojvpvrl.jpg,0,0,0.0,0,19,19,19,,,,,,,,,,,,,40.0004401999995,0.00044019999950251076,5,1.9585479999996096,78.41651960000036,78.41651960000036,78.41651960000036,78.41651960000036,78.41651960000036,78.41651960000036,78.41651960000036,78.41651960000036,78.41651960000036,78.41651960000036,004,P006,2025_Jan_25_1152,ConditionRich,2021.2.3,59.92477044305009,
43.75,44.0,41,0.0,Stimuli/Blank.png,0,0,0.0,0,20,20,20,,,,,,,,,,,,,43.77311809999992,0.02311809999991965,5,0.1883373999999094,82.18651910000062,82.18651910000062,82.18651910000062,82.18651910000062,82.18651910000062,82.18651910000062,82.18651910000062,82.18651910000062,82.18651910000062,82.18651910000062,004,P006,2025_Jan_25_1152,ConditionRich,2021.2.3,59.92477044305009,
44.0,47.75,15,0.75,Stimuli/P006/sun_btkzuhaxqlacvmsv.jpg,0,0,0.0,0,21,21,21,,,,,,,,,,,,,44.020403699999406,0.020403699999405944,5,1.9381233000003704,82.43674660000033,82.43674660000033,82.43674660000033,82.43674660000033,82.43674660000033,82.43674660000033,82.43674660000033,82.43674660000033,82.43674660000033,82.43674660000033,004,P006,2025_Jan_25_1152,ConditionRich,2021.2.3,59.92477044305009,
47.75,48.0,41,0.0,Stimuli/Blank.png,0,0,0.0,0,22,22,22,,,,,,,,,,,,,47.77385729999969,0.02385729999969044,5,0.2015477999993891,86.17336650000016,86.17336650000016,86.17336650000016,86.17336650000016,86.17336650000016,86.17336650000016,86.17336650000016,86.17336650000016,86.17336650000016,86.17336650000016,004,P006,2025_Jan_25_1152,ConditionRich,2021.2.3,59.92477044305009,
48.0,51.75,7,0.75,Stimuli/P006/sun_bdmdlkpsznknrcqi.jpg,0,0,0.0,0,23,23,23,,,,,,,,,,,,,48.00715020000007,0.007150200000069162,5,1.967999200000122,86.4069098,86.4069098,86.4069098,86.4069098,86.4069098,86.4069098,86.4069098,86.4069098,86.4069098,86.4069098,004,P006,2025_Jan_25_1152,ConditionRich,2021.2.3,59.92477044305009,
51.75,52.0,41,0.0,Stimuli/Blank.png,0,0,0.0,0,24,24,24,,,,,,,,,,,,,51.76329910000004,0.013299100000040198,5,0.19792400000005728,90.17690640000001,90.17690640000001,90.17690640000001,90.17690640000001,90.17690640000001,90.17690640000001,90.17690640000001,90.17690640000001,90.17690640000001,90.17690640000001,004,P006,2025_Jan_25_1152,ConditionRich,2021.2.3,59.92477044305009,
52.0,55.75,39,0.75,Stimuli/P006/things_train_set_03s.jpg,0,0,0.0,0,25,25,25,,,,,,,,,,,,,52.027436899999884,0.02743689999988419,5,1.9476547000003848,90.42712360000041,90.42712360000041,90.42712360000041,90.42712360000041,90.42712360000041,90.42712360000041,90.42712360000041,90.42712360000041,90.42712360000041,90.42712360000041,004,P006,2025_Jan_25_1152,ConditionRich,2021.2.3,59.92477044305009,
55.75,56.0,41,0.0,Stimuli/Blank.png,0,0,0.0,0,26,26,26,,,,,,,,,,,,,55.76455050000004,0.014550500000041211,5,0.21119399999952293,94.16375330000028,94.16375330000028,94.16375330000028,94.16375330000028,94.16375330000028,94.16375330000028,94.16375330000028,94.16375330000028,94.16375330000028,94.16375330000028,004,P006,2025_Jan_25_1152,ConditionRich,2021.2.3,59.92477044305009,
56.0,59.75,17,0.75,Stimuli/P006/sun_bwsictslfxygpqbp.jpg,1,1,1.75,0,27,27,27,,,,,,,,,,,,,56.015381199999865,0.015381199999865203,5,1.944070799999281,94.43065980000029,94.43065980000029,94.43065980000029,94.43065980000029,94.43065980000029,94.43065980000029,95.39822150000055,96.14888620000056,94.43065980000029,94.43065980000029,004,P006,2025_Jan_25_1152,ConditionRich,2021.2.3,59.92477044305009,
59.75,60.0,41,0.0,Stimuli/Blank.png,0,0,0.0,0,28,28,28,,,,,,,,,,,,,59.768019499999355,0.018019499999354593,None,,98.1672836000007,98.1672836000007,98.1672836000007,98.1672836000007,98.1672836000007,98.1672836000007,98.1672836000007,98.1672836000007,98.1672836000007,98.1672836000007,004,P006,2025_Jan_25_1152,ConditionRich,2021.2.3,59.92477044305009,
60.0,63.75,16,0.75,Stimuli/P006/sun_bwentnobehmvaxkp.jpg,0,0,0.0,0,29,29,29,,,,,,,,,,,,,60.00174059999972,0.001740599999720871,5,1.97389209999983,98.40082690000054,98.40082690000054,98.40082690000054,98.40082690000054,98.40082690000054,98.40082690000054,98.40082690000054,98.40082690000054,98.40082690000054,98.40082690000054,004,P006,2025_Jan_25_1152,ConditionRich,2021.2.3,59.92477044305009,
63.75,64.0,41,0.0,Stimuli/Blank.png,0,0,0.0,0,30,30,30,,,,,,,,,,,,,63.75462079999943,0.004620799999429437,None,,102.15413290000015,102.15413290000015,102.15413290000015,102.15413290000015,102.15413290000015,102.15413290000015,102.15413290000015,102.15413290000015,102.15413290000015,102.15413290000015,004,P006,2025_Jan_25_1152,ConditionRich,2021.2.3,59.92477044305009,
64.0,67.75,19,0.75,Stimuli/P006/sun_czspalxthlkjwoat.jpg,0,0,0.0,0,31,31,31,,,,,,,,,,,,,64.00480340000013,0.004803400000128022,5,1.970427600000221,102.4043741000005,102.4043741000005,102.4043741000005,102.4043741000005,102.4043741000005,102.4043741000005,102.4043741000005,102.4043741000005,102.4043741000005,102.4043741000005,004,P006,2025_Jan_25_1152,ConditionRich,2021.2.3,59.92477044305009,
67.75,68.0,41,0.0,Stimuli/Blank.png,0,0,0.0,0,32,32,32,,,,,,,,,,,,,67.7588925,0.008892500000001746,5,0.21734199999991688,106.15767440000036,106.15767440000036,106.15767440000036,106.15767440000036,106.15767440000036,106.15767440000036,106.15767440000036,106.15767440000036,106.15767440000036,106.15767440000036,004,P006,2025_Jan_25_1152,ConditionRich,2021.2.3,59.92477044305009,
68.0,71.75,26,0.75,Stimuli/P006/things_face_03s.jpg,0,0,0.0,0,33,33,33,,,,,,,,,,,,,68.00831329999983,0.008313299999826995,5,1.9669772999995985,106.40788340000017,106.40788340000017,106.40788340000017,106.40788340000017,106.40788340000017,106.40788340000017,106.40788340000017,106.40788340000017,106.40788340000017,106.40788340000017,004,P006,2025_Jan_25_1152,ConditionRich,2021.2.3,59.92477044305009,
71.75,72.0,41,0.0,Stimuli/Blank.png,0,0,0.0,0,34,34,34,,,,,,,,,,,,,71.76418259999991,0.014182599999912782,5,0.1969085000000632,110.17789080000057,110.17789080000057,110.17789080000057,110.17789080000057,110.17789080000057,110.17789080000057,110.17789080000057,110.17789080000057,110.17789080000057,110.17789080000057,004,P006,2025_Jan_25_1152,ConditionRich,2021.2.3,59.92477044305009,
72.0,75.75,25,0.75,Stimuli/P006/things_dog_03s.jpg,0,0,0.0,0,35,35,35,,,,,,,,,,,,,72.02859649999937,0.028596499999366642,5,1.94662580000022,110.42810970000028,110.42810970000028,110.42810970000028,110.42810970000028,110.42810970000028,110.42810970000028,110.42810970000028,110.42810970000028,110.42810970000028,110.42810970000028,004,P006,2025_Jan_25_1152,ConditionRich,2021.2.3,59.92477044305009,
75.75,76.0,41,0.0,Stimuli/Blank.png,0,0,0.0,0,36,36,36,,,,,,,,,,,,,75.76503749999938,0.015037499999380088,5,0.21006380000017089,114.16473460000088,114.16473460000088,114.16473460000088,114.16473460000088,114.16473460000088,114.16473460000088,114.16473460000088,114.16473460000088,114.16473460000088,114.16473460000088,004,P006,2025_Jan_25_1152,ConditionRich,2021.2.3,59.92477044305009,
76.0,79.75,29,0.75,Stimuli/P006/things_guillotine_03s.jpg,0,0,0.0,0,37,37,37,,,,,,,,,,,,,76.01517979999971,0.015179799999714305,5,1.960142399999313,114.4149552000008,114.4149552000008,114.4149552000008,114.4149552000008,114.4149552000008,114.4149552000008,114.4149552000008,114.4149552000008,114.4149552000008,114.4149552000008,004,P006,2025_Jan_25_1152,ConditionRich,2021.2.3,59.92477044305009,
79.75,80.0,41,0.0,Stimuli/Blank.png,0,0,0.0,0,38,38,38,,,,,,,,,,,,,79.75259959999948,0.0025995999994847807,None,,118.1515943000004,118.1515943000004,118.1515943000004,118.1515943000004,118.1515943000004,118.1515943000004,118.1515943000004,118.1515943000004,118.1515943000004,118.1515943000004,004,P006,2025_Jan_25_1152,ConditionRich,2021.2.3,59.92477044305009,
80.0,83.75,24,0.75,Stimuli/P006/things_crab_03s.jpg,1,2,2.75,0,39,39,39,,,,,,,,,,,,,80.00223469999946,0.002234699999462464,1,2.480964800000038,118.40180530000089,118.40180530000089,118.40180530000089,118.40180530000089,118.40180530000089,118.40180530000089,120.38688300000013,121.13755220000075,118.40180530000089,118.40180530000089,004,P006,2025_Jan_25_1152,ConditionRich,2021.2.3,59.92477044305009,
83.75,84.0,41,0.0,Stimuli/Blank.png,0,0,0.0,0,40,40,40,,,,,,,,,,,,,83.75552739999966,0.00552739999966434,None,,122.15519610000047,122.15519610000047,122.15519610000047,122.15519610000047,122.15519610000047,122.15519610000047,122.15519610000047,122.15519610000047,122.15519610000047,122.15519610000047,004,P006,2025_Jan_25_1152,ConditionRich,2021.2.3,59.92477044305009,
84.0,100.0,0,0.0,Stimuli/Blank.png,1,8,8.75,0,41,41,41,,,,,,,,,,,,,84.00779650000004,0.007796500000040396,5,15.95296640000015,122.42203170000084,122.42203170000084,122.42203170000084,122.42203170000084,122.42203170000084,122.42203170000084,130.39572540000063,131.1463764,122.42203170000084,122.42203170000084,004,P006,2025_Jan_25_1152,ConditionRich,2021.2.3,59.92477044305009,
100.0,103.75,11,0.75,Stimuli/P006/sun_bjoocjyyhsmsbprr.jpg,0,0,0.0,0,42,42,42,,,,,,,,,,,,,100.01994359999935,0.019943599999351136,5,1.9386000999993485,138.43618960000003,138.43618960000003,138.43618960000003,138.43618960000003,138.43618960000003,138.43618960000003,138.43618960000003,138.43618960000003,138.43618960000003,138.43618960000003,004,P006,2025_Jan_25_1152,ConditionRich,2021.2.3,59.92477044305009,
103.75,104.0,41,0.0,Stimuli/Blank.png,0,0,0.0,0,43,43,43,,,,,,,,,,,,,103.77451649999966,0.02451649999966321,5,0.18521420000070066,142.1895379000007,142.1895379000007,142.1895379000007,142.1895379000007,142.1895379000007,142.1895379000007,142.1895379000007,142.1895379000007,142.1895379000007,142.1895379000007,004,P006,2025_Jan_25_1152,ConditionRich,2021.2.3,59.92477044305009,
104.0,107.75,1,0.75,Stimuli/P006/sun_adyhbxohydkpecty.jpg,0,0,0.0,0,44,44,44,,,,,,,,,,,,,104.0232390000001,0.02323900000010326,5,1.9517839000000095,142.42300200000045,142.42300200000045,142.42300200000045,142.42300200000045,142.42300200000045,142.42300200000045,142.42300200000045,142.42300200000045,142.42300200000045,142.42300200000045,004,P006,2025_Jan_25_1152,ConditionRich,2021.2.3,59.92477044305009,
107.75,108.0,41,0.0,Stimuli/Blank.png,0,0,0.0,0,45,45,45,,,,,,,,,,,,,107.76063179999983,0.010631799999828218,5,0.21505559999968682,146.15968630000043,146.15968630000043,146.15968630000043,146.15968630000043,146.15968630000043,146.15968630000043,146.15968630000043,146.15968630000043,146.15968630000043,146.15968630000043,004,P006,2025_Jan_25_1152,ConditionRich,2021.2.3,59.92477044305009,
108.0,111.75,9,0.75,Stimuli/P006/sun_bfcmdrojsffdttzu.jpg,0,0,0.0,0,46,46,46,,,,,,,,,,,,,108.0103239,0.01032390000000305,5,1.9483136999997441,146.42655210000066,146.42655210000066,146.42655210000066,146.42655210000066,146.42655210000066,146.42655210000066,146.42655210000066,146.42655210000066,146.42655210000066,146.42655210000066,004,P006,2025_Jan_25_1152,ConditionRich,2021.2.3,59.92477044305009,
111.75,112.0,41,0.0,Stimuli/Blank.png,0,0,0.0,0,47,47,47,,,,,,,,,,,,,111.78018379999958,0.030183799999576877,5,0.1948011000004044,150.17990540000028,150.17990540000028,150.17990540000028,150.17990540000028,150.17990540000028,150.17990540000028,150.17990540000028,150.17990540000028,150.17990540000028,150.17990540000028,004,P006,2025_Jan_25_1152,ConditionRich,2021.2.3,59.92477044305009,
112.0,115.75,37,0.75,Stimuli/P006/things_showerhead_03s.jpg,0,0,0.0,0,48,48,48,,,,,,,,,,,,,112.01358139999957,0.013581399999566202,5,1.961360300000706,150.41339270000026,150.41339270000026,150.41339270000026,150.41339270000026,150.41339270000026,150.41339270000026,150.41339270000026,150.41339270000026,150.41339270000026,150.41339270000026,004,P006,2025_Jan_25_1152,ConditionRich,2021.2.3,59.92477044305009,
115.75,116.0,41,0.0,Stimuli/Blank.png,0,0,0.0,0,49,49,49,,,,,,,,,,,,,115.75018999999975,0.0001899999997476698,None,,154.1500141000006,154.1500141000006,154.1500141000006,154.1500141000006,154.1500141000006,154.1500141000006,154.1500141000006,154.1500141000006,154.1500141000006,154.1500141000006,004,P006,2025_Jan_25_1152,ConditionRich,2021.2.3,59.92477044305009,
116.0,119.75,31,0.75,Stimuli/P006/things_jukebox_03n.jpg,0,0,0.0,0,50,50,50,,,,,,,,,,,,,116.00286489999962,0.002864899999622139,5,1.9578615000000354,154.41691620000074,154.41691620000074,154.41691620000074,154.41691620000074,154.41691620000074,154.41691620000074,154.41691620000074,154.41691620000074,154.41691620000074,154.41691620000074,004,P006,2025_Jan_25_1152,ConditionRich,2021.2.3,59.92477044305009,
119.75,120.0,41,0.0,Stimuli/Blank.png,0,0,0.0,0,51,51,51,,,,,,,,,,,,,119.7707806999997,0.020780699999704666,None,,158.17023670000071,158.17023670000071,158.17023670000071,158.17023670000071,158.17023670000071,158.17023670000071,158.17023670000071,158.17023670000071,158.17023670000071,158.17023670000071,004,P006,2025_Jan_25_1152,ConditionRich,2021.2.3,59.92477044305009,
120.0,123.75,3,0.75,Stimuli/P006/sun_asyidwmnobuawmax.jpg,0,0,0.0,0,52,52,52,,,,,,,,,,,,,120.00401899999997,0.004018999999971129,5,1.9708715999995547,158.40377780000017,158.40377780000017,158.40377780000017,158.40377780000017,158.40377780000017,158.40377780000017,158.40377780000017,158.40377780000017,158.40377780000017,158.40377780000017,004,P006,2025_Jan_25_1152,ConditionRich,2021.2.3,59.92477044305009,
123.75,124.0,41,0.0,Stimuli/Blank.png,0,0,0.0,0,53,53,53,,,,,,,,,,,,,123.75772020000022,0.007720200000221666,5,0.21769820000008622,162.15711460000057,162.15711460000057,162.15711460000057,162.15711460000057,162.15711460000057,162.15711460000057,162.15711460000057,162.15711460000057,162.15711460000057,162.15711460000057,004,P006,2025_Jan_25_1152,ConditionRich,2021.2.3,59.92477044305009,
124.0,127.75,34,0.75,Stimuli/P006/things_patty_03s.jpg,0,0,0.0,0,54,54,54,,,,,,,,,,,,,124.0077811000001,0.007781100000102015,5,1.96733199999926,162.40731050000068,162.40731050000068,162.40731050000068,162.40731050000068,162.40731050000068,162.40731050000068,162.40731050000068,162.40731050000068,162.40731050000068,162.40731050000068,004,P006,2025_Jan_25_1152,ConditionRich,2021.2.3,59.92477044305009,
127.75,128.0,41,0.0,Stimuli/Blank.png,0,0,0.0,0,55,55,55,,,,,,,,,,,,,127.76181219999944,0.011812199999440054,5,0.21411989999978687,166.1606225000005,166.1606225000005,166.1606225000005,166.1606225000005,166.1606225000005,166.1606225000005,166.1606225000005,166.1606225000005,166.1606225000005,166.1606225000005,004,P006,2025_Jan_25_1152,ConditionRich,2021.2.3,59.92477044305009,
128.0,131.75,8,0.75,Stimuli/P006/sun_bekkgqphzbclwpvb.jpg,1,1,1.75,0,56,56,56,,,,,,,,,,,,,128.01101500000004,0.011015000000043074,5,1.964014500000303,166.4108380000007,166.4108380000007,166.4108380000007,166.4108380000007,166.4108380000007,166.4108380000007,167.39507980000053,168.1457115000003,166.4108380000007,166.4108380000007,004,P006,2025_Jan_25_1152,ConditionRich,2021.2.3,59.92477044305009,
131.75,132.0,41,0.0,Stimuli/Blank.png,0,0,0.0,0,57,57,57,,,,,,,,,,,,,131.76478589999988,0.014785899999878893,5,0.21066330000030575,170.16415790000065,170.16415790000065,170.16415790000065,170.16415790000065,170.16415790000065,170.16415790000065,170.16415790000065,170.16415790000065,170.16415790000065,170.16415790000065,004,P006,2025_Jan_25_1152,ConditionRich,2021.2.3,59.92477044305009,
132.0,135.75,2,0.75,Stimuli/P006/sun_ahmycohdkioefoxs.jpg,0,0,0.0,0,58,58,58,,,,,,,,,,,,,132.0151251999996,0.015125199999602046,5,1.9436622000002899,170.43107060000057,170.43107060000057,170.43107060000057,170.43107060000057,170.43107060000057,170.43107060000057,170.43107060000057,170.43107060000057,170.43107060000057,170.43107060000057,004,P006,2025_Jan_25_1152,ConditionRich,2021.2.3,59.92477044305009,
135.75,136.0,41,0.0,Stimuli/Blank.png,0,0,0.0,0,59,59,59,,,,,,,,,,,,,135.76856429999953,0.018564299999525247,None,,174.16768460000003,174.16768460000003,174.16768460000003,174.16768460000003,174.16768460000003,174.16768460000003,174.16768460000003,174.16768460000003,174.16768460000003,174.16768460000003,004,P006,2025_Jan_25_1152,ConditionRich,2021.2.3,59.92477044305009,
136.0,139.75,23,0.75,Stimuli/P006/things_beetle_03s.jpg,1,0,0.75,0,60,60,60,,,,,,,,,,,,,136.0016802,0.0016802000000097905,5,1.9737292999998317,174.40122770000016,174.40122770000016,174.40122770000016,174.40122770000016,174.40122770000016,174.40122770000016,174.40122770000016,175.13521280000077,174.40122770000016,174.40122770000016,004,P006,2025_Jan_25_1152,ConditionRich,2021.2.3,59.92477044305009,
139.75,140.0,41,0.0,Stimuli/Blank.png,0,0,0.0,0,61,61,61,,,,,,,,,,,,,139.75554219999958,0.0055421999995814986,None,,178.1554683000004,178.1554683000004,178.1554683000004,178.1554683000004,178.1554683000004,178.1554683000004,178.1554683000004,178.1554683000004,178.1554683000004,178.1554683000004,004,P006,2025_Jan_25_1152,ConditionRich,2021.2.3,59.92477044305009,
140.0,143.75,21,0.75,Stimuli/P006/things_accordion_03s.jpg,1,0,0.75,0,62,62,62,,,,,,,,,,,,,140.0051499000001,0.005149900000105845,5,1.9698504999996658,178.40490330000011,178.40490330000011,178.40490330000011,178.40490330000011,178.40490330000011,178.40490330000011,178.40490330000011,179.13877690000027,178.40490330000011,178.40490330000011,004,P006,2025_Jan_25_1152,ConditionRich,2021.2.3,59.92477044305009,
143.75,144.0,41,0.0,Stimuli/Blank.png,0,0,0.0,0,63,63,63,,,,,,,,,,,,,143.75917320000008,0.009173200000077486,5,0.21662480000031792,182.15806770000017,182.15806770000017,182.15806770000017,182.15806770000017,182.15806770000017,182.15806770000017,182.15806770000017,182.15806770000017,182.15806770000017,182.15806770000017,004,P006,2025_Jan_25_1152,ConditionRich,2021.2.3,59.92477044305009,
144.0,147.75,4,0.75,Stimuli/P006/sun_auwghripdoxzluuk.jpg,0,0,0.0,0,64,64,64,,,,,,,,,,,,,144.00931189999937,0.009311899999374873,5,1.9663745999996536,182.4082924000004,182.4082924000004,182.4082924000004,182.4082924000004,182.4082924000004,182.4082924000004,182.4082924000004,182.4082924000004,182.4082924000004,182.4082924000004,004,P006,2025_Jan_25_1152,ConditionRich,2021.2.3,59.92477044305009,
147.75,148.0,41,0.0,Stimuli/Blank.png,0,0,0.0,0,65,65,65,,,,,,,,,,,,,147.76269570000022,0.012695700000222132,5,0.21322939999936352,186.16160740000032,186.16160740000032,186.16160740000032,186.16160740000032,186.16160740000032,186.16160740000032,186.16160740000032,186.16160740000032,186.16160740000032,186.16160740000032,004,P006,2025_Jan_25_1152,ConditionRich,2021.2.3,59.92477044305009,
148.0,151.75,33,0.75,Stimuli/P006/things_man_03s.jpg,0,0,0.0,0,66,66,66,,,,,,,,,,,,,148.01233700000012,0.01233700000011595,5,1.9628803999994489,186.41182670000035,186.41182670000035,186.41182670000035,186.41182670000035,186.41182670000035,186.41182670000035,186.41182670000035,186.41182670000035,186.41182670000035,186.41182670000035,004,P006,2025_Jan_25_1152,ConditionRich,2021.2.3,59.92477044305009,
151.75,152.0,41,0.0,Stimuli/Blank.png,0,0,0.0,0,67,67,67,,,,,,,,,,,,,151.76611129999947,0.0161112999994657,None,,190.1651554,190.1651554,190.1651554,190.1651554,190.1651554,190.1651554,190.1651554,190.1651554,190.1651554,190.1651554,004,P006,2025_Jan_25_1152,ConditionRich,2021.2.3,59.92477044305009,
152.0,155.75,13,0.75,Stimuli/P006/sun_bruphbrfsbxowtlq.jpg,0,0,0.0,0,68,68,68,,,,,,,,,,,,,151.99951499999952,-0.0004850000004807953,5,1.975985000000037,190.3986775000003,190.3986775000003,190.3986775000003,190.3986775000003,190.3986775000003,190.3986775000003,190.3986775000003,190.3986775000003,190.3986775000003,190.3986775000003,004,P006,2025_Jan_25_1152,ConditionRich,2021.2.3,59.92477044305009,
155.75,156.0,41,0.0,Stimuli/Blank.png,0,0,0.0,0,69,69,69,,,,,,,,,,,,,155.75294739999936,0.0029473999993570033,None,,194.1519984000006,194.1519984000006,194.1519984000006,194.1519984000006,194.1519984000006,194.1519984000006,194.1519984000006,194.1519984000006,194.1519984000006,194.1519984000006,004,P006,2025_Jan_25_1152,ConditionRich,2021.2.3,59.92477044305009,
156.0,159.75,12,0.75,Stimuli/P006/sun_bodyuiqwqpqzwfoz.jpg,0,0,0.0,0,70,70,70,,,,,,,,,,,,,156.00266159999956,0.0026615999995556194,1,3.721469799999795,194.40221240000028,194.40221240000028,194.40221240000028,194.40221240000028,194.40221240000028,194.40221240000028,194.40221240000028,194.40221240000028,194.40221240000028,194.40221240000028,004,P006,2025_Jan_25_1152,ConditionRich,2021.2.3,59.92477044305009,
159.75,160.0,41,0.0,Stimuli/Blank.png,0,0,0.0,0,71,71,71,,,,,,,,,,,,,159.75640209999983,0.006402099999831989,None,,198.15552500000013,198.15552500000013,198.15552500000013,198.15552500000013,198.15552500000013,198.15552500000013,198.15552500000013,198.15552500000013,198.15552500000013,198.15552500000013,004,P006,2025_Jan_25_1152,ConditionRich,2021.2.3,59.92477044305009,
160.0,163.75,35,0.75,Stimuli/P006/things_pig_03s.jpg,0,0,0.0,0,72,72,72,,,,,,,,,,,,,160.0066655999999,0.00666559999990568,5,1.9690020999996705,198.40574340000057,198.40574340000057,198.40574340000057,198.40574340000057,198.40574340000057,198.40574340000057,198.40574340000057,198.40574340000057,198.40574340000057,198.40574340000057,004,P006,2025_Jan_25_1152,ConditionRich,2021.2.3,59.92477044305009,
163.75,164.0,41,0.0,Stimuli/Blank.png,0,0,0.0,0,73,73,73,,,,,,,,,,,,,163.76018759999988,0.010187599999881058,5,0.21552499999961583,202.1591369000007,202.1591369000007,202.1591369000007,202.1591369000007,202.1591369000007,202.1591369000007,202.1591369000007,202.1591369000007,202.1591369000007,202.1591369000007,004,P006,2025_Jan_25_1152,ConditionRich,2021.2.3,59.92477044305009,
164.0,167.75,32,0.75,Stimuli/P006/things_jumpsuit_03s.jpg,0,0,0.0,0,74,74,74,,,,,,,,,,,,,164.00940720000017,0.009407200000168814,5,1.9653871999998955,202.40927790000023,202.40927790000023,202.40927790000023,202.40927790000023,202.40927790000023,202.40927790000023,202.40927790000023,202.40927790000023,202.40927790000023,202.40927790000023,004,P006,2025_Jan_25_1152,ConditionRich,2021.2.3,59.92477044305009,
167.75,168.0,41,0.0,Stimuli/Blank.png,0,0,0.0,0,75,75,75,,,,,,,,,,,,,167.76368379999985,0.013683799999853363,5,0.19531829999959882,206.17929070000082,206.17929070000082,206.17929070000082,206.17929070000082,206.17929070000082,206.17929070000082,206.17929070000082,206.17929070000082,206.17929070000082,206.17929070000082,004,P006,2025_Jan_25_1152,ConditionRich,2021.2.3,59.92477044305009,
168.0,171.75,28,0.75,Stimuli/P006/things_girl_03s.jpg,0,0,0.0,0,76,76,76,,,,,,,,,,,,,168.0303471999996,0.03034719999959634,5,1.9453368000004048,206.42949710000084,206.42949710000084,206.42949710000084,206.42949710000084,206.42949710000084,206.42949710000084,206.42949710000084,206.42949710000084,206.42949710000084,206.42949710000084,004,P006,2025_Jan_25_1152,ConditionRich,2021.2.3,59.92477044305009,
171.75,172.0,41,0.0,Stimuli/Blank.png,0,0,0.0,0,77,77,77,,,,,,,,,,,,,171.74957429999995,-0.0004257000000507105,None,,210.14944560000004,210.14944560000004,210.14944560000004,210.14944560000004,210.14944560000004,210.14944560000004,210.14944560000004,210.14944560000004,210.14944560000004,210.14944560000004,004,P006,2025_Jan_25_1152,ConditionRich,2021.2.3,59.92477044305009,
172.0,175.75,10,0.75,Stimuli/P006/sun_bgnxbfhmwhliypvg.jpg,1,3,3.75,0,78,78,78,,,,,,,,,,,,,172.0032056,0.003205600000001141,1,3.3862466999999015,210.4163468000006,210.4163468000006,210.4163468000006,210.4163468000006,210.4163468000006,210.4163468000006,213.4023087000005,214.15296770000077,210.4163468000006,210.4163468000006,004,P006,2025_Jan_25_1152,ConditionRich,2021.2.3,59.92477044305009,
175.75,176.0,41,0.0,Stimuli/Blank.png,0,0,0.0,0,79,79,79,,,,,,,,,,,,,175.77050129999952,0.020501299999523326,None,,214.1697204000002,214.1697204000002,214.1697204000002,214.1697204000002,214.1697204000002,214.1697204000002,214.1697204000002,214.1697204000002,214.1697204000002,214.1697204000002,004,P006,2025_Jan_25_1152,ConditionRich,2021.2.3,59.92477044305009,
176.0,179.75,36,0.75,Stimuli/P006/things_pony_03s.jpg,0,0,0.0,0,80,80,80,,,,,,,,,,,,,176.0038281999996,0.0038281999995888327,5,1.971495299999333,214.40320080000038,214.40320080000038,214.40320080000038,214.40320080000038,214.40320080000038,214.40320080000038,214.40320080000038,214.40320080000038,214.40320080000038,214.40320080000038,004,P006,2025_Jan_25_1152,ConditionRich,2021.2.3,59.92477044305009,
179.75,180.0,41,0.0,Stimuli/Blank.png,0,0,0.0,0,81,81,81,,,,,,,,,,,,,179.75755879999997,0.007558799999969779,5,0.21821020000061253,218.1565016000004,218.1565016000004,218.1565016000004,218.1565016000004,218.1565016000004,218.1565016000004,218.1565016000004,218.1565016000004,218.1565016000004,218.1565016000004,004,P006,2025_Jan_25_1152,ConditionRich,2021.2.3,59.92477044305009,
180.0,196.0,0,0.0,Stimuli/Blank.png,1,12,12.75,0,82,82,82,,,,,,,,,,,,,180.0070356999995,0.007035699999505596,5,13.968168800000058,218.40673180000067,218.40673180000067,218.40673180000067,218.40673180000067,218.40673180000067,218.40673180000067,230.3840125000006,231.13466550000066,218.40673180000067,218.40673180000067,004,P006,2025_Jan_25_1152,ConditionRich,2021.2.3,59.92477044305009,
196.0,199.75,2,0.75,Stimuli/P006/sun_ahmycohdkioefoxs.jpg,0,0,0.0,0,83,83,83,,,,,,,,,,,,,196.0046272999998,0.00462729999981093,5,1.9705095999997866,234.40419760000077,234.40419760000077,234.40419760000077,234.40419760000077,234.40419760000077,234.40419760000077,234.40419760000077,234.40419760000077,234.40419760000077,234.40419760000077,004,P006,2025_Jan_25_1152,ConditionRich,2021.2.3,59.92477044305009,
199.75,200.0,41,0.0,Stimuli/Blank.png,0,0,0.0,0,84,84,84,,,,,,,,,,,,,199.7586309999997,0.008630999999695632,5,0.217280099999698,238.15749090000008,238.15749090000008,238.15749090000008,238.15749090000008,238.15749090000008,238.15749090000008,238.15749090000008,238.15749090000008,238.15749090000008,238.15749090000008,004,P006,2025_Jan_25_1152,ConditionRich,2021.2.3,59.92477044305009,
200.0,203.75,11,0.75,Stimuli/P006/sun_bjoocjyyhsmsbprr.jpg,1,1,1.75,0,85,85,85,,,,,,,,,,,,,200.00893149999956,0.00893149999956222,5,1.9669133000006696,238.40771350000068,238.40771350000068,238.40771350000068,238.40771350000068,238.40771350000068,238.40771350000068,239.3919164000008,240.14257460000044,238.40771350000068,238.40771350000068,004,P006,2025_Jan_25_1152,ConditionRich,2021.2.3,59.92477044305009,
203.75,204.0,41,0.0,Stimuli/Blank.png,0,0,0.0,0,86,86,86,,,,,,,,,,,,,203.76396449999993,0.013964499999929103,5,0.19692119999945135,242.17771400000038,242.17771400000038,242.17771400000038,242.17771400000038,242.17771400000038,242.17771400000038,242.17771400000038,242.17771400000038,242.17771400000038,242.17771400000038,004,P006,2025_Jan_25_1152,ConditionRich,2021.2.3,59.92477044305009,
204.0,207.75,27,0.75,Stimuli/P006/things_first-aid_kit_03s.jpg,0,0,0.0,0,87,87,87,,,,,,,,,,,,,204.0282718999997,0.028271899999708694,5,1.9468518000003314,242.42793090000032,242.42793090000032,242.42793090000032,242.42793090000032,242.42793090000032,242.42793090000032,242.42793090000032,242.42793090000032,242.42793090000032,242.42793090000032,004,P006,2025_Jan_25_1152,ConditionRich,2021.2.3,59.92477044305009,
207.75,208.0,41,0.0,Stimuli/Blank.png,0,0,0.0,0,88,88,88,,,,,,,,,,,,,207.7653191999998,0.015319199999794364,5,0.20996740000009595,246.16461760000038,246.16461760000038,246.16461760000038,246.16461760000038,246.16461760000038,246.16461760000038,246.16461760000038,246.16461760000038,246.16461760000038,246.16461760000038,004,P006,2025_Jan_25_1152,ConditionRich,2021.2.3,59.92477044305009,
208.0,211.75,20,0.75,Stimuli/P006/sun_dvxuxzytfdbjyzit.jpg,1,0,0.75,0,89,89,89,,,,,,,,,,,,,208.0154738000001,0.015473800000108895,5,1.9597835000004125,246.41478110000025,246.41478110000025,246.41478110000025,246.41478110000025,246.41478110000025,246.41478110000025,246.41478110000025,247.14880210000047,246.41478110000025,246.41478110000025,004,P006,2025_Jan_25_1152,ConditionRich,2021.2.3,59.92477044305009,
211.75,212.0,41,0.0,Stimuli/Blank.png,0,0,0.0,0,90,90,90,,,,,,,,,,,,,211.75156100000004,0.0015610000000378932,None,,250.1514113000003,250.1514113000003,250.1514113000003,250.1514113000003,250.1514113000003,250.1514113000003,250.1514113000003,250.1514113000003,250.1514113000003,250.1514113000003,004,P006,2025_Jan_25_1152,ConditionRich,2021.2.3,59.92477044305009,
212.0,215.75,19,0.75,Stimuli/P006/sun_czspalxthlkjwoat.jpg,1,0,0.75,0,91,91,91,,,,,,,,,,,,,212.00346209999952,0.003462099999524071,5,1.9563339000005726,250.41833020000013,250.41833020000013,250.41833020000013,250.41833020000013,250.41833020000013,250.41833020000013,250.41833020000013,251.13563500000055,250.41833020000013,250.41833020000013,004,P006,2025_Jan_25_1152,ConditionRich,2021.2.3,59.92477044305009,
215.75,216.0,41,0.0,Stimuli/Blank.png,0,0,0.0,0,92,92,92,,,,,,,,,,,,,215.77264149999974,0.02264149999973597,None,,254.1716363000005,254.1716363000005,254.1716363000005,254.1716363000005,254.1716363000005,254.1716363000005,254.1716363000005,254.1716363000005,254.1716363000005,254.1716363000005,004,P006,2025_Jan_25_1152,ConditionRich,2021.2.3,59.92477044305009,
216.0,219.75,40,0.75,Stimuli/P006/things_woman_03s.jpg,0,0,0.0,0,93,93,93,,,,,,,,,,,,,216.00698659999944,0.006986599999436294,5,1.9528675000001385,254.42185660000087,254.42185660000087,254.42185660000087,254.42185660000087,254.42185660000087,254.42185660000087,254.42185660000087,254.42185660000087,254.42185660000087,254.42185660000087,004,P006,2025_Jan_25_1152,ConditionRich,2021.2.3,59.92477044305009,
219.75,220.0,41,0.0,Stimuli/Blank.png,0,0,0.0,0,94,94,94,,,,,,,,,,,,,219.77565460000005,0.025654600000052596,5,0.1993370000000141,258.17522740000004,258.17522740000004,258.17522740000004,258.17522740000004,258.17522740000004,258.17522740000004,258.17522740000004,258.17522740000004,258.17522740000004,258.17522740000004,004,P006,2025_Jan_25_1152,ConditionRich,2021.2.3,59.92477044305009,
220.0,223.75,23,0.75,Stimuli/P006/things_beetle_03s.jpg,0,0,0.0,0,95,95,95,,,,,,,,,,,,,220.00934039999993,0.009340399999928195,5,1.9659103999993022,258.4086976000008,258.4086976000008,258.4086976000008,258.4086976000008,258.4086976000008,258.4086976000008,258.4086976000008,258.4086976000008,258.4086976000008,258.4086976000008,004,P006,2025_Jan_25_1152,ConditionRich,2021.2.3,59.92477044305009,
223.75,224.0,41,0.0,Stimuli/Blank.png,0,0,0.0,0,96,96,96,,,,,,,,,,,,,223.7636993999995,0.013699399999495654,5,0.21274690000063856,262.1620146000005,262.1620146000005,262.1620146000005,262.1620146000005,262.1620146000005,262.1620146000005,262.1620146000005,262.1620146000005,262.1620146000005,262.1620146000005,004,P006,2025_Jan_25_1152,ConditionRich,2021.2.3,59.92477044305009,
224.0,227.75,24,0.75,Stimuli/P006/things_crab_03s.jpg,0,0,0.0,0,97,97,97,,,,,,,,,,,,,224.01258299999972,0.012582999999722233,5,1.9625232999997024,262.41223530000025,262.41223530000025,262.41223530000025,262.41223530000025,262.41223530000025,262.41223530000025,262.41223530000025,262.41223530000025,262.41223530000025,262.41223530000025,004,P006,2025_Jan_25_1152,ConditionRich,2021.2.3,59.92477044305009,
227.75,228.0,41,0.0,Stimuli/Blank.png,0,0,0.0,0,98,98,98,,,,,,,,,,,,,227.7491503000001,-0.0008496999998897081,None,,266.14885700000013,266.14885700000013,266.14885700000013,266.14885700000013,266.14885700000013,266.14885700000013,266.14885700000013,266.14885700000013,266.14885700000013,266.14885700000013,004,P006,2025_Jan_25_1152,ConditionRich,2021.2.3,59.92477044305009,
228.0,231.75,3,0.75,Stimuli/P006/sun_asyidwmnobuawmax.jpg,0,0,0.0,0,99,99,99,,,,,,,,,,,,,227.9993543999999,-0.0006456000000980566,5,1.9755212000000029,266.39908880000075,266.39908880000075,266.39908880000075,266.39908880000075,266.39908880000075,266.39908880000075,266.39908880000075,266.39908880000075,266.39908880000075,266.39908880000075,004,P006,2025_Jan_25_1152,ConditionRich,2021.2.3,59.92477044305009,
231.75,232.0,41,0.0,Stimuli/Blank.png,0,0,0.0,0,100,100,100,,,,,,,,,,,,,231.7534240999994,0.003424099999392638,None,,270.15240090000043,270.15240090000043,270.15240090000043,270.15240090000043,270.15240090000043,270.15240090000043,270.15240090000043,270.15240090000043,270.15240090000043,270.15240090000043,004,P006,2025_Jan_25_1152,ConditionRich,2021.2.3,59.92477044305009,
232.0,235.75,35,0.75,Stimuli/P006/things_pig_03s.jpg,0,0,0.0,0,101,101,101,,,,,,,,,,,,,232.0034513999999,0.003451399999903515,5,1.9720618999999715,270.4026223000001,270.4026223000001,270.4026223000001,270.4026223000001,270.4026223000001,270.4026223000001,270.4026223000001,270.4026223000001,270.4026223000001,270.4026223000001,004,P006,2025_Jan_25_1152,ConditionRich,2021.2.3,59.92477044305009,
235.75,236.0,41,0.0,Stimuli/Blank.png,0,0,0.0,0,102,102,102,,,,,,,,,,,,,235.75657919999958,0.0065791999995781225,None,,274.15592300000026,274.15592300000026,274.15592300000026,274.15592300000026,274.15592300000026,274.15592300000026,274.15592300000026,274.15592300000026,274.15592300000026,274.15592300000026,004,P006,2025_Jan_25_1152,ConditionRich,2021.2.3,59.92477044305009,
236.0,239.75,32,0.75,Stimuli/P006/things_jumpsuit_03s.jpg,0,0,0.0,0,103,103,103,,,,,,,,,,,,,236.00674179999987,0.006741799999872455,5,1.9688067999995837,274.4061519000006,274.4061519000006,274.4061519000006,274.4061519000006,274.4061519000006,274.4061519000006,274.4061519000006,274.4061519000006,274.4061519000006,274.4061519000006,004,P006,2025_Jan_25_1152,ConditionRich,2021.2.3,59.92477044305009,
239.75,240.0,41,0.0,Stimuli/Blank.png,0,0,0.0,0,104,104,104,,,,,,,,,,,,,239.76032169999962,0.01032169999962207,5,0.21608130000004167,278.15945700000066,278.15945700000066,278.15945700000066,278.15945700000066,278.15945700000066,278.15945700000066,278.15945700000066,278.15945700000066,278.15945700000066,278.15945700000066,004,P006,2025_Jan_25_1152,ConditionRich,2021.2.3,59.92477044305009,
240.0,243.75,39,0.75,Stimuli/P006/things_train_set_03s.jpg,0,0,0.0,0,105,105,105,,,,,,,,,,,,,240.01066009999977,0.010660099999768136,5,1.965981099999226,278.40967940000064,278.40967940000064,278.40967940000064,278.40967940000064,278.40967940000064,278.40967940000064,278.40967940000064,278.40967940000064,278.40967940000064,278.40967940000064,004,P006,2025_Jan_25_1152,ConditionRich,2021.2.3,59.92477044305009,
243.75,244.0,41,0.0,Stimuli/Blank.png,0,0,0.0,0,106,106,106,,,,,,,,,,,,,243.7639975000002,0.013997500000186847,5,0.21268330000020796,282.1630031000004,282.1630031000004,282.1630031000004,282.1630031000004,282.1630031000004,282.1630031000004,282.1630031000004,282.1630031000004,282.1630031000004,282.1630031000004,004,P006,2025_Jan_25_1152,ConditionRich,2021.2.3,59.92477044305009,
244.0,247.75,1,0.75,Stimuli/P006/sun_adyhbxohydkpecty.jpg,0,0,0.0,0,107,107,107,,,,,,,,,,,,,244.01389889999973,0.01389889999973093,5,1.945599000000584,282.42992200000026,282.42992200000026,282.42992200000026,282.42992200000026,282.42992200000026,282.42992200000026,282.42992200000026,282.42992200000026,282.42992200000026,282.42992200000026,004,P006,2025_Jan_25_1152,ConditionRich,2021.2.3,59.92477044305009,
247.75,248.0,41,0.0,Stimuli/Blank.png,0,0,0.0,0,108,108,108,,,,,,,,,,,,,247.76778419999937,0.017784199999368866,None,,286.16656280000007,286.16656280000007,286.16656280000007,286.16656280000007,286.16656280000007,286.16656280000007,286.16656280000007,286.16656280000007,286.16656280000007,286.16656280000007,004,P006,2025_Jan_25_1152,ConditionRich,2021.2.3,59.92477044305009,
248.0,251.75,26,0.75,Stimuli/P006/things_face_03s.jpg,0,0,0.0,0,109,109,109,,,,,,,,,,,,,248.0030213,0.0030213000000003376,5,1.9588526000006823,286.41674740000053,286.41674740000053,286.41674740000053,286.41674740000053,286.41674740000053,286.41674740000053,286.41674740000053,286.41674740000053,286.41674740000053,286.41674740000053,004,P006,2025_Jan_25_1152,ConditionRich,2021.2.3,59.92477044305009,
251.75,252.0,41,0.0,Stimuli/Blank.png,0,0,0.0,0,110,110,110,,,,,,,,,,,,,251.77290369999992,0.02290369999991526,5,0.18887050000012096,290.1867467000002,290.1867467000002,290.1867467000002,290.1867467000002,290.1867467000002,290.1867467000002,290.1867467000002,290.1867467000002,290.1867467000002,290.1867467000002,004,P006,2025_Jan_25_1152,ConditionRich,2021.2.3,59.92477044305009,
252.0,255.75,38,0.75,Stimuli/P006/things_sledgehammer_03s.jpg,0,0,0.0,0,111,111,111,,,,,,,,,,,,,252.02326019999964,0.023260199999640463,5,1.938886600000842,290.43696510000063,290.43696510000063,290.43696510000063,290.43696510000063,290.43696510000063,290.43696510000063,290.43696510000063,290.43696510000063,290.43696510000063,290.43696510000063,004,P006,2025_Jan_25_1152,ConditionRich,2021.2.3,59.92477044305009,
255.75,256.0,41,0.0,Stimuli/Blank.png,0,0,0.0,0,112,112,112,,,,,,,,,,,,,255.77452809999977,0.024528099999770347,None,,294.17359300000044,294.17359300000044,294.17359300000044,294.17359300000044,294.17359300000044,294.17359300000044,294.17359300000044,294.17359300000044,294.17359300000044,294.17359300000044,004,P006,2025_Jan_25_1152,ConditionRich,2021.2.3,59.92477044305009,
256.0,259.75,6,0.75,Stimuli/P006/sun_bbzkhzmxdjrfjpjz.jpg,0,0,0.0,0,113,113,113,,,,,,,,,,,,,256.00844079999933,0.008440799999334558,5,1.9517094000002544,294.4238354000008,294.4238354000008,294.4238354000008,294.4238354000008,294.4238354000008,294.4238354000008,294.4238354000008,294.4238354000008,294.4238354000008,294.4238354000008,004,P006,2025_Jan_25_1152,ConditionRich,2021.2.3,59.92477044305009,
259.75,260.0,41,0.0,Stimuli/Blank.png,0,0,0.0,0,114,114,114,,,,,,,,,,,,,259.7788118999997,0.028811899999709567,5,0.19842980000066746,298.17712870000014,298.17712870000014,298.17712870000014,298.17712870000014,298.17712870000014,298.17712870000014,298.17712870000014,298.17712870000014,298.17712870000014,298.17712870000014,004,P006,2025_Jan_25_1152,ConditionRich,2021.2.3,59.92477044305009,
260.0,263.75,37,0.75,Stimuli/P006/things_showerhead_03s.jpg,0,0,0.0,0,115,115,115,,,,,,,,,,,,,260.0139967999994,0.013996799999404175,5,1.9481621999993877,298.42734930000006,298.42734930000006,298.42734930000006,298.42734930000006,298.42734930000006,298.42734930000006,298.42734930000006,298.42734930000006,298.42734930000006,298.42734930000006,004,P006,2025_Jan_25_1152,ConditionRich,2021.2.3,59.92477044305009,
263.75,264.0,41,0.0,Stimuli/Blank.png,0,0,0.0,0,116,116,116,,,,,,,,,,,,,263.76510039999994,0.015100399999937508,5,0.21159389999957057,302.1640487000004,302.1640487000004,302.1640487000004,302.1640487000004,302.1640487000004,302.1640487000004,302.1640487000004,302.1640487000004,302.1640487000004,302.1640487000004,004,P006,2025_Jan_25_1152,ConditionRich,2021.2.3,59.92477044305009,
264.0,267.75,33,0.75,Stimuli/P006/things_man_03s.jpg,0,0,0.0,0,117,117,117,,,,,,,,,,,,,264.0154189999994,0.015418999999383232,5,1.9446608999996897,302.4309030000004,302.4309030000004,302.4309030000004,302.4309030000004,302.4309030000004,302.4309030000004,302.4309030000004,302.4309030000004,302.4309030000004,302.4309030000004,004,P006,2025_Jan_25_1152,ConditionRich,2021.2.3,59.92477044305009,
267.75,268.0,41,0.0,Stimuli/Blank.png,0,0,0.0,0,118,118,118,,,,,,,,,,,,,267.76870449999933,0.018704499999330437,None,,306.1675167000003,306.1675167000003,306.1675167000003,306.1675167000003,306.1675167000003,306.1675167000003,306.1675167000003,306.1675167000003,306.1675167000003,306.1675167000003,004,P006,2025_Jan_25_1152,ConditionRich,2021.2.3,59.92477044305009,
268.0,271.75,15,0.75,Stimuli/P006/sun_btkzuhaxqlacvmsv.jpg,1,3,3.75,0,119,119,119,,,,,,,,,,,,,268.00150329999997,0.0015032999999675667,1,3.4404921000004833,306.4010508000001,306.4010508000001,306.4010508000001,306.4010508000001,306.4010508000001,306.4010508000001,309.3870269000008,310.1377211000008,306.4010508000001,306.4010508000001,004,P006,2025_Jan_25_1152,ConditionRich,2021.2.3,59.92477044305009,
271.75,272.0,41,0.0,Stimuli/Blank.png,0,0,0.0,0,120,120,120,,,,,,,,,,,,,271.7555487999998,0.005548799999814946,None,,310.15437660000043,310.15437660000043,310.15437660000043,310.15437660000043,310.15437660000043,310.15437660000043,310.15437660000043,310.15437660000043,310.15437660000043,310.15437660000043,004,P006,2025_Jan_25_1152,ConditionRich,2021.2.3,59.92477044305009,
272.0,275.75,9,0.75,Stimuli/P006/sun_bfcmdrojsffdttzu.jpg,0,0,0.0,0,121,121,121,,,,,,,,,,,,,272.0049755,0.004975500000000466,5,1.9543016999996325,310.4212789000003,310.4212789000003,310.4212789000003,310.4212789000003,310.4212789000003,310.4212789000003,310.4212789000003,310.4212789000003,310.4212789000003,310.4212789000003,004,P006,2025_Jan_25_1152,ConditionRich,2021.2.3,59.92477044305009,
275.75,276.0,41,0.0,Stimuli/Blank.png,0,0,0.0,0,122,122,122,,,,,,,,,,,,,275.77561759999935,0.025617599999350205,5,0.20109129999946163,314.1745744000009,314.1745744000009,314.1745744000009,314.1745744000009,314.1745744000009,314.1745744000009,314.1745744000009,314.1745744000009,314.1745744000009,314.1745744000009,004,P006,2025_Jan_25_1152,ConditionRich,2021.2.3,59.92477044305009,
276.0,292.0,0,0.0,Stimuli/Blank.png,1,9,9.75,0,123,123,123,,,,,,,,,,,,,276.00912739999967,0.00912739999967016,5,13.967446199999358,314.40812110000024,314.40812110000024,314.40812110000024,314.40812110000024,314.40812110000024,314.40812110000024,323.3994308000001,324.15003760000036,314.40812110000024,314.40812110000024,004,P006,2025_Jan_25_1152,ConditionRich,2021.2.3,59.92477044305009,
292.0,295.75,16,0.75,Stimuli/P006/sun_bwentnobehmvaxkp.jpg,0,0,0.0,0,124,124,124,,,,,,,,,,,,,292.0060937999997,0.006093799999689509,5,1.9702523000005385,330.4055668000001,330.4055668000001,330.4055668000001,330.4055668000001,330.4055668000001,330.4055668000001,330.4055668000001,330.4055668000001,330.4055668000001,330.4055668000001,004,P006,2025_Jan_25_1152,ConditionRich,2021.2.3,59.92477044305009,
295.75,296.0,41,0.0,Stimuli/Blank.png,0,0,0.0,0,125,125,125,,,,,,,,,,,,,295.7592906,0.009290599999985716,5,0.21669490000022051,334.15887810000004,334.15887810000004,334.15887810000004,334.15887810000004,334.15887810000004,334.15887810000004,334.15887810000004,334.15887810000004,334.15887810000004,334.15887810000004,004,P006,2025_Jan_25_1152,ConditionRich,2021.2.3,59.92477044305009,
296.0,299.75,7,0.75,Stimuli/P006/sun_bdmdlkpsznknrcqi.jpg,0,0,0.0,0,126,126,126,,,,,,,,,,,,,296.0095276000002,0.009527600000183156,5,1.949717999999848,334.42579600000045,334.42579600000045,334.42579600000045,334.42579600000045,334.42579600000045,334.42579600000045,334.42579600000045,334.42579600000045,334.42579600000045,334.42579600000045,004,P006,2025_Jan_25_1152,ConditionRich,2021.2.3,59.92477044305009,
299.75,300.0,41,0.0,Stimuli/Blank.png,0,0,0.0,0,127,127,127,,,,,,,,,,,,,299.7799423999995,0.02994239999952697,5,0.19645239999954356,338.1791716000007,338.1791716000007,338.1791716000007,338.1791716000007,338.1791716000007,338.1791716000007,338.1791716000007,338.1791716000007,338.1791716000007,338.1791716000007,004,P006,2025_Jan_25_1152,ConditionRich,2021.2.3,59.92477044305009,
300.0,303.75,13,0.75,Stimuli/P006/sun_bruphbrfsbxowtlq.jpg,1,2,2.75,0,128,128,128,,,,,,,,,,,,,300.01379559999987,0.013795599999866681,1,2.401210400000309,338.4293346000004,338.4293346000004,338.4293346000004,338.4293346000004,338.4293346000004,338.4293346000004,340.39771590000055,341.1484255000005,338.4293346000004,338.4293346000004,004,P006,2025_Jan_25_1152,ConditionRich,2021.2.3,59.92477044305009,
303.75,304.0,41,0.0,Stimuli/Blank.png,0,0,0.0,0,129,129,129,,,,,,,,,,,,,303.7665576999998,0.01655769999979384,None,,342.1659438000006,342.1659438000006,342.1659438000006,342.1659438000006,342.1659438000006,342.1659438000006,342.1659438000006,342.1659438000006,342.1659438000006,342.1659438000006,004,P006,2025_Jan_25_1152,ConditionRich,2021.2.3,59.92477044305009,
304.0,307.75,29,0.75,Stimuli/P006/things_guillotine_03s.jpg,1,1,1.75,0,130,130,130,,,,,,,,,,,,,303.9999164000001,-8.35999999253545e-05,5,1.9593102999997427,342.41616890000023,342.41616890000023,342.41616890000023,342.41616890000023,342.41616890000023,342.41616890000023,343.38373630000024,344.1343873000005,342.41616890000023,342.41616890000023,004,P006,2025_Jan_25_1152,ConditionRich,2021.2.3,59.92477044305009,
307.75,308.0,41,0.0,Stimuli/Blank.png,0,0,0.0,0,131,131,131,,,,,,,,,,,,,307.77271980000023,0.02271980000023177,5,0.18937840000035067,346.18616590000056,346.18616590000056,346.18616590000056,346.18616590000056,346.18616590000056,346.18616590000056,346.18616590000056,346.18616590000056,346.18616590000056,346.18616590000056,004,P006,2025_Jan_25_1152,ConditionRich,2021.2.3,59.92477044305009,
308.0,311.75,30,0.75,Stimuli/P006/things_hood_03s.jpg,0,0,0.0,0,132,132,132,,,,,,,,,,,,,308.0207228999998,0.020722899999782385,5,1.9393621000008352,346.43639750000057,346.43639750000057,346.43639750000057,346.43639750000057,346.43639750000057,346.43639750000057,346.43639750000057,346.43639750000057,346.43639750000057,346.43639750000057,004,P006,2025_Jan_25_1152,ConditionRich,2021.2.3,59.92477044305009,
311.75,312.0,41,0.0,Stimuli/Blank.png,0,0,0.0,0,133,133,133,,,,,,,,,,,,,311.77341629999955,0.023416299999553303,None,,350.17301710000083,350.17301710000083,350.17301710000083,350.17301710000083,350.17301710000083,350.17301710000083,350.17301710000083,350.17301710000083,350.17301710000083,350.17301710000083,004,P006,2025_Jan_25_1152,ConditionRich,2021.2.3,59.92477044305009,
312.0,315.75,22,0.75,Stimuli/P006/things_baby_03s.jpg,0,0,0.0,0,134,134,134,,,,,,,,,,,,,312.0084324999998,0.008432499999798893,5,1.9521690999999919,350.4232520000005,350.4232520000005,350.4232520000005,350.4232520000005,350.4232520000005,350.4232520000005,350.4232520000005,350.4232520000005,350.4232520000005,350.4232520000005,004,P006,2025_Jan_25_1152,ConditionRich,2021.2.3,59.92477044305009,
315.75,316.0,41,0.0,Stimuli/Blank.png,0,0,0.0,0,135,135,135,,,,,,,,,,,,,315.77724409999973,0.027244099999734317,5,0.1989408999997977,354.1765494000001,354.1765494000001,354.1765494000001,354.1765494000001,354.1765494000001,354.1765494000001,354.1765494000001,354.1765494000001,354.1765494000001,354.1765494000001,004,P006,2025_Jan_25_1152,ConditionRich,2021.2.3,59.92477044305009,
316.0,319.75,34,0.75,Stimuli/P006/things_patty_03s.jpg,1,1,1.75,0,136,136,136,,,,,,,,,,,,,316.0127032999999,0.01270329999988462,5,1.9488030000002254,354.42677490000005,354.42677490000005,354.42677490000005,354.42677490000005,354.42677490000005,354.42677490000005,355.41099120000035,356.16163900000083,354.42677490000005,354.42677490000005,004,P006,2025_Jan_25_1152,ConditionRich,2021.2.3,59.92477044305009,
319.75,320.0,41,0.0,Stimuli/Blank.png,0,0,0.0,0,137,137,137,,,,,,,,,,,,,319.7635845999994,0.013584599999376223,5,0.21218390000012732,358.1634025000003,358.1634025000003,358.1634025000003,358.1634025000003,358.1634025000003,358.1634025000003,358.1634025000003,358.1634025000003,358.1634025000003,358.1634025000003,004,P006,2025_Jan_25_1152,ConditionRich,2021.2.3,59.92477044305009,
320.0,323.75,28,0.75,Stimuli/P006/things_girl_03s.jpg,0,0,0.0,0,138,138,138,,,,,,,,,,,,,320.0140701999999,0.014070199999878241,5,1.9618197999998301,358.41362430000027,358.41362430000027,358.41362430000027,358.41362430000027,358.41362430000027,358.41362430000027,358.41362430000027,358.41362430000027,358.41362430000027,358.41362430000027,004,P006,2025_Jan_25_1152,ConditionRich,2021.2.3,59.92477044305009,
323.75,324.0,41,0.0,Stimuli/Blank.png,0,0,0.0,0,139,139,139,,,,,,,,,,,,,323.7511720000002,0.001172000000224216,None,,362.1502648000005,362.1502648000005,362.1502648000005,362.1502648000005,362.1502648000005,362.1502648000005,362.1502648000005,362.1502648000005,362.1502648000005,362.1502648000005,004,P006,2025_Jan_25_1152,ConditionRich,2021.2.3,59.92477044305009,
324.0,327.75,4,0.75,Stimuli/P006/sun_auwghripdoxzluuk.jpg,0,0,0.0,0,140,140,140,,,,,,,,,,,,,324.0032440999994,0.003244099999392347,5,1.9584536000002117,362.4171758000002,362.4171758000002,362.4171758000002,362.4171758000002,362.4171758000002,362.4171758000002,362.4171758000002,362.4171758000002,362.4171758000002,362.4171758000002,004,P006,2025_Jan_25_1152,ConditionRich,2021.2.3,59.92477044305009,
327.75,328.0,41,0.0,Stimuli/Blank.png,0,0,0.0,0,141,141,141,,,,,,,,,,,,,327.77097479999975,0.02097479999974894,None,,366.17046870000013,366.17046870000013,366.17046870000013,366.17046870000013,366.17046870000013,366.17046870000013,366.17046870000013,366.17046870000013,366.17046870000013,366.17046870000013,004,P006,2025_Jan_25_1152,ConditionRich,2021.2.3,59.92477044305009,
328.0,331.75,18,0.75,Stimuli/P006/sun_bzqhpcsgzswozfhs.jpg,0,0,0.0,0,142,142,142,,,,,,,,,,,,,328.00444509999943,0.004445099999429658,5,1.971808900000724,366.40400470000077,366.40400470000077,366.40400470000077,366.40400470000077,366.40400470000077,366.40400470000077,366.40400470000077,366.40400470000077,366.40400470000077,366.40400470000077,004,P006,2025_Jan_25_1152,ConditionRich,2021.2.3,59.92477044305009,
331.75,332.0,41,0.0,Stimuli/Blank.png,0,0,0.0,0,143,143,143,,,,,,,,,,,,,331.7574599999998,0.007459999999809952,None,,370.1573429,370.1573429,370.1573429,370.1573429,370.1573429,370.1573429,370.1573429,370.1573429,370.1573429,370.1573429,004,P006,2025_Jan_25_1152,ConditionRich,2021.2.3,59.92477044305009,
332.0,335.75,17,0.75,Stimuli/P006/sun_bwsictslfxygpqbp.jpg,1,3,3.75,0,144,144,144,,,,,,,,,,,,,332.0086110000002,0.008611000000200875,1,3.343274100000599,370.4242451,370.4242451,370.4242451,370.4242451,370.4242451,370.4242451,373.3935411000002,374.1442072000009,370.4242451,370.4242451,004,P006,2025_Jan_25_1152,ConditionRich,2021.2.3,59.92477044305009,
335.75,336.0,41,0.0,Stimuli/Blank.png,0,0,0.0,0,145,145,145,,,,,,,,,,,,,335.7793094999997,0.02930949999972654,5,0.18127590000040072,374.19422010000017,374.19422010000017,374.19422010000017,374.19422010000017,374.19422010000017,374.19422010000017,374.19422010000017,374.19422010000017,374.19422010000017,374.19422010000017,004,P006,2025_Jan_25_1152,ConditionRich,2021.2.3,59.92477044305009,
336.0,339.75,12,0.75,Stimuli/P006/sun_bodyuiqwqpqzwfoz.jpg,0,0,0.0,0,146,146,146,,,,,,,,,,,,,336.02855,0.028549999999995634,5,1.9312300000001414,374.44444940000085,374.44444940000085,374.44444940000085,374.44444940000085,374.44444940000085,374.44444940000085,374.44444940000085,374.44444940000085,374.44444940000085,374.44444940000085,004,P006,2025_Jan_25_1152,ConditionRich,2021.2.3,59.92477044305009,
339.75,340.0,41,0.0,Stimuli/Blank.png,0,0,0.0,0,147,147,147,,,,,,,,,,,,,339.78215980000004,0.032159800000044925,5,0.19436570000016218,378.1810858000008,378.1810858000008,378.1810858000008,378.1810858000008,378.1810858000008,378.1810858000008,378.1810858000008,378.1810858000008,378.1810858000008,378.1810858000008,004,P006,2025_Jan_25_1152,ConditionRich,2021.2.3,59.92477044305009,
340.0,343.75,10,0.75,Stimuli/P006/sun_bgnxbfhmwhliypvg.jpg,0,0,0.0,0,148,148,148,,,,,,,,,,,,,340.01799260000007,0.017992600000070524,5,1.9442926000001535,378.4313251000003,378.4313251000003,378.4313251000003,378.4313251000003,378.4313251000003,378.4313251000003,378.4313251000003,378.4313251000003,378.4313251000003,378.4313251000003,004,P006,2025_Jan_25_1152,ConditionRich,2021.2.3,59.92477044305009,
343.75,344.0,41,0.0,Stimuli/Blank.png,0,0,0.0,0,149,149,149,,,,,,,,,,,,,343.7682817999994,0.01828179999938584,None,,382.1679212000008,382.1679212000008,382.1679212000008,382.1679212000008,382.1679212000008,382.1679212000008,382.1679212000008,382.1679212000008,382.1679212000008,382.1679212000008,004,P006,2025_Jan_25_1152,ConditionRich,2021.2.3,59.92477044305009,
344.0,347.75,31,0.75,Stimuli/P006/things_jukebox_03n.jpg,0,0,0.0,0,150,150,150,,,,,,,,,,,,,344.0021941999994,0.0021941999993941863,5,1.9740439000006518,382.4014580000003,382.4014580000003,382.4014580000003,382.4014580000003,382.4014580000003,382.4014580000003,382.4014580000003,382.4014580000003,382.4014580000003,382.4014580000003,004,P006,2025_Jan_25_1152,ConditionRich,2021.2.3,59.92477044305009,
347.75,348.0,41,0.0,Stimuli/Blank.png,0,0,0.0,0,151,151,151,,,,,,,,,,,,,347.75499070000023,0.004990700000234938,None,,386.15476430000035,386.15476430000035,386.15476430000035,386.15476430000035,386.15476430000035,386.15476430000035,386.15476430000035,386.15476430000035,386.15476430000035,386.15476430000035,004,P006,2025_Jan_25_1152,ConditionRich,2021.2.3,59.92477044305009,
348.0,351.75,36,0.75,Stimuli/P006/things_pony_03s.jpg,0,0,0.0,0,152,152,152,,,,,,,,,,,,,348.0052816999996,0.00528169999961392,5,1.9539863999998488,386.4217116000009,386.4217116000009,386.4217116000009,386.4217116000009,386.4217116000009,386.4217116000009,386.4217116000009,386.4217116000009,386.4217116000009,386.4217116000009,004,P006,2025_Jan_25_1152,ConditionRich,2021.2.3,59.92477044305009,
351.75,352.0,41,0.0,Stimuli/Blank.png,0,0,0.0,0,153,153,153,,,,,,,,,,,,,351.77621029999955,0.026210299999547715,5,0.20053620000089722,390.1749968000004,390.1749968000004,390.1749968000004,390.1749968000004,390.1749968000004,390.1749968000004,390.1749968000004,390.1749968000004,390.1749968000004,390.1749968000004,004,P006,2025_Jan_25_1152,ConditionRich,2021.2.3,59.92477044305009,
352.0,355.75,8,0.75,Stimuli/P006/sun_bekkgqphzbclwpvb.jpg,0,0,0.0,0,154,154,154,,,,,,,,,,,,,352.0090666999995,0.009066699999493721,5,1.9501915000000736,390.42521660000057,390.42521660000057,390.42521660000057,390.42521660000057,390.42521660000057,390.42521660000057,390.42521660000057,390.42521660000057,390.42521660000057,390.42521660000057,004,P006,2025_Jan_25_1152,ConditionRich,2021.2.3,59.92477044305009,
355.75,356.0,41,0.0,Stimuli/Blank.png,0,0,0.0,0,155,155,155,,,,,,,,,,,,,355.7794339000002,0.02943390000018553,5,0.19704039999942324,394.17851710000014,394.17851710000014,394.17851710000014,394.17851710000014,394.17851710000014,394.17851710000014,394.17851710000014,394.17851710000014,394.17851710000014,394.17851710000014,004,P006,2025_Jan_25_1152,ConditionRich,2021.2.3,59.92477044305009,
356.0,359.75,21,0.75,Stimuli/P006/things_accordion_03s.jpg,0,0,0.0,0,156,156,156,,,,,,,,,,,,,356.01343779999934,0.013437799999337585,5,1.946834200000012,394.4287344000004,394.4287344000004,394.4287344000004,394.4287344000004,394.4287344000004,394.4287344000004,394.4287344000004,394.4287344000004,394.4287344000004,394.4287344000004,004,P006,2025_Jan_25_1152,ConditionRich,2021.2.3,59.92477044305009,
359.75,360.0,41,0.0,Stimuli/Blank.png,0,0,0.0,0,157,157,157,,,,,,,,,,,,,359.76856679999946,0.01856679999946209,5,0.1933987000002162,398.1820522000007,398.1820522000007,398.1820522000007,398.1820522000007,398.1820522000007,398.1820522000007,398.1820522000007,398.1820522000007,398.1820522000007,398.1820522000007,004,P006,2025_Jan_25_1152,ConditionRich,2021.2.3,59.92477044305009,
360.0,363.75,25,0.75,Stimuli/P006/things_dog_03s.jpg,0,0,0.0,0,158,158,158,,,,,,,,,,,,,360.0164530000002,0.016453000000183238,5,1.9600229999996372,398.41559360000065,398.41559360000065,398.41559360000065,398.41559360000065,398.41559360000065,398.41559360000065,398.41559360000065,398.41559360000065,398.41559360000065,398.41559360000065,004,P006,2025_Jan_25_1152,ConditionRich,2021.2.3,59.92477044305009,
363.75,364.0,41,0.0,Stimuli/Blank.png,0,0,0.0,0,159,159,159,,,,,,,,,,,,,363.7523844999996,0.0023844999996072147,None,,402.1522235000002,402.1522235000002,402.1522235000002,402.1522235000002,402.1522235000002,402.1522235000002,402.1522235000002,402.1522235000002,402.1522235000002,402.1522235000002,004,P006,2025_Jan_25_1152,ConditionRich,2021.2.3,59.92477044305009,
364.0,367.75,14,0.75,Stimuli/P006/sun_bsirencncgxteejx.jpg,0,0,0.0,0,160,160,160,,,,,,,,,,,,,364.00330399999984,0.0033039999998436542,5,1.9563347999992402,402.41914950000046,402.41914950000046,402.41914950000046,402.41914950000046,402.41914950000046,402.41914950000046,402.41914950000046,402.41914950000046,402.41914950000046,402.41914950000046,004,P006,2025_Jan_25_1152,ConditionRich,2021.2.3,59.92477044305009,
367.75,368.0,41,0.0,Stimuli/Blank.png,0,0,0.0,0,161,161,161,,,,,,,,,,,,,367.7733122999998,0.023312299999815878,None,,406.1724408,406.1724408,406.1724408,406.1724408,406.1724408,406.1724408,406.1724408,406.1724408,406.1724408,406.1724408,004,P006,2025_Jan_25_1152,ConditionRich,2021.2.3,59.92477044305009,
368.0,371.75,5,0.75,Stimuli/P006/sun_axaqdcecfojvpvrl.jpg,1,2,2.75,0,162,162,162,,,,,,,,,,,,,368.00864249999995,0.008642499999950815,1,2.356728199999452,406.4226608000008,406.4226608000008,406.4226608000008,406.4226608000008,406.4226608000008,406.4226608000008,408.4077324000009,409.1584455000002,406.4226608000008,406.4226608000008,004,P006,2025_Jan_25_1152,ConditionRich,2021.2.3,59.92477044305009,
371.75,372.0,41,0.0,Stimuli/Blank.png,0,0,0.0,0,163,163,163,,,,,,,,,,,,,371.7765623999994,0.02656239999942045,5,0.19954109999980574,410.1759705000004,410.1759705000004,410.1759705000004,410.1759705000004,410.1759705000004,410.1759705000004,410.1759705000004,410.1759705000004,410.1759705000004,410.1759705000004,004,P006,2025_Jan_25_1152,ConditionRich,2021.2.3,59.92477044305009,
372.0,388.0,0,0.0,Stimuli/Blank.png,1,10,10.75,0,164,164,164,,,,,,,,,,,,,372.0100947000001,0.010094700000081502,5,13.966185600000244,410.40951160000077,410.40951160000077,410.40951160000077,410.40951160000077,410.40951160000077,410.40951160000077,420.4016569000005,421.1523390000002,410.40951160000077,410.40951160000077,004,P006,2025_Jan_25_1152,ConditionRich,2021.2.3,59.92477044305009,
