eventStartTime,eventEndTime,eventCond,imSize,imFile,responseEvent,fixRespStart,fixRespEnd,Events.thisRepN,Events.thisTrialN,Events.thisN,Events.thisIndex,Instructions.started,Instructions.stopped,participantReadyResponse.keys,participantReadyResponse.rt,participantReadyResponse.started,participantReadyResponse.stopped,startWaitforTrigger,triggerResponse.keys,triggerResponse.rt,triggerResponse.started,triggerResponse.stopped,globalTimer,actualStartTime,startTimingDiff,participantResponse.keys,participantResponse.rt,participantResponse.started,participantResponse.stopped,image.started,image.stopped,fixationOutside.started,fixationOutside.stopped,fixationResponse.started,fixationResponse.stopped,fixationInside.started,fixationInside.stopped,session,participant,date,expName,psychopyVersion,frameRate,
,,,,,,,,,,,,20.466398100000333,None,1,1.4220611999999164,20.466398100000333,None,,,,,,,,,,,,,,,,,,,,,007,P006,2025_Jan_25_1220,ConditionRich,2021.2.3,59.942515128048754,
,,,,,,,,,,,,,,,,,,21.89993779999986,5,13.140829899999517,21.91265199999998,None,,,,,,,,,,,,,,,,007,P006,2025_Jan_25_1220,ConditionRich,2021.2.3,59.942515128048754,
0.0,4.0,0,0.0,Stimuli/Blank.png,0,0,0.0,0,0,0,0,,,,,,,,,,,,35.06157480000002,0.03032179999991058,0.03032179999991058,5,1.9458032999991701,35.10764370000015,None,35.10764370000015,None,35.10764370000015,None,35.10764370000015,35.10764370000015,35.10764370000015,None,007,P006,2025_Jan_25_1220,ConditionRich,2021.2.3,59.942515128048754,
4.0,7.75,22,0.75,Stimuli/P006/things_baby_03s.jpg,0,0,0.0,0,1,1,1,,,,,,,,,,,,,4.002503200000319,0.002503200000319339,5,1.9755464999998367,39.07806160000018,39.07806160000018,39.07806160000018,39.07806160000018,39.07806160000018,39.07806160000018,39.07806160000018,39.07806160000018,39.07806160000018,39.07806160000018,007,P006,2025_Jan_25_1220,ConditionRich,2021.2.3,59.942515128048754,
7.75,8.0,41,0.0,Stimuli/Blank.png,0,0,0.0,0,2,2,2,,,,,,,,,,,,,7.755549200000132,0.0055492000001322594,None,,42.83137369999986,42.83137369999986,42.83137369999986,42.83137369999986,42.83137369999986,42.83137369999986,42.83137369999986,42.83137369999986,42.83137369999986,42.83137369999986,007,P006,2025_Jan_25_1220,ConditionRich,2021.2.3,59.942515128048754,
8.0,11.75,36,0.75,Stimuli/P006/things_pony_03s.jpg,0,0,0.0,0,3,3,3,,,,,,,,,,,,,8.006034,0.006033999999999651,None,,43.08133950000047,43.08133950000047,43.08133950000047,43.08133950000047,43.08133950000047,43.08133950000047,43.08133950000047,43.08133950000047,43.08133950000047,43.08133950000047,007,P006,2025_Jan_25_1220,ConditionRich,2021.2.3,59.942515128048754,
11.75,12.0,41,0.0,Stimuli/Blank.png,0,0,0.0,0,4,4,4,,,,,,,,,,,,,11.759128100000453,0.009128100000452832,None,,46.83465660000002,46.83465660000002,46.83465660000002,46.83465660000002,46.83465660000002,46.83465660000002,46.83465660000002,46.83465660000002,46.83465660000002,46.83465660000002,007,P006,2025_Jan_25_1220,ConditionRich,2021.2.3,59.942515128048754,
12.0,15.75,5,0.75,Stimuli/P006/sun_axaqdcecfojvpvrl.jpg,0,0,0.0,0,5,5,5,,,,,,,,,,,,,12.008961399999862,0.008961399999861897,5,1.9687011999994866,47.08487190000051,47.08487190000051,47.08487190000051,47.08487190000051,47.08487190000051,47.08487190000051,47.08487190000051,47.08487190000051,47.08487190000051,47.08487190000051,007,P006,2025_Jan_25_1220,ConditionRich,2021.2.3,59.942515128048754,
15.75,16.0,41,0.0,Stimuli/Blank.png,0,0,0.0,0,6,6,6,,,,,,,,,,,,,15.764738500000021,0.014738500000021304,5,0.19854969999960304,50.85488600000008,50.85488600000008,50.85488600000008,50.85488600000008,50.85488600000008,50.85488600000008,50.85488600000008,50.85488600000008,50.85488600000008,50.85488600000008,007,P006,2025_Jan_25_1220,ConditionRich,2021.2.3,59.942515128048754,
16.0,19.75,21,0.75,Stimuli/P006/things_accordion_03s.jpg,0,0,0.0,0,7,7,7,,,,,,,,,,,,,16.028925900000104,0.028925900000103866,5,1.948378999999477,51.10508750000008,51.10508750000008,51.10508750000008,51.10508750000008,51.10508750000008,51.10508750000008,51.10508750000008,51.10508750000008,51.10508750000008,51.10508750000008,007,P006,2025_Jan_25_1220,ConditionRich,2021.2.3,59.942515128048754,
19.75,20.0,41,0.0,Stimuli/Blank.png,0,0,0.0,0,8,8,8,,,,,,,,,,,,,19.765938200000164,0.015938200000164215,None,,54.84172940000008,54.84172940000008,54.84172940000008,54.84172940000008,54.84172940000008,54.84172940000008,54.84172940000008,54.84172940000008,54.84172940000008,54.84172940000008,007,P006,2025_Jan_25_1220,ConditionRich,2021.2.3,59.942515128048754,
20.0,23.75,40,0.75,Stimuli/P006/things_woman_03s.jpg,0,0,0.0,0,9,9,9,,,,,,,,,,,,,19.99988900000062,-0.00011099999937869143,5,1.9614844999996421,55.091943399999764,55.091943399999764,55.091943399999764,55.091943399999764,55.091943399999764,55.091943399999764,55.091943399999764,55.091943399999764,55.091943399999764,55.091943399999764,007,P006,2025_Jan_25_1220,ConditionRich,2021.2.3,59.942515128048754,
23.75,24.0,41,0.0,Stimuli/Blank.png,0,0,0.0,0,10,10,10,,,,,,,,,,,,,23.770323000000644,0.020323000000644242,5,0.19164449999971112,58.86195300000054,58.86195300000054,58.86195300000054,58.86195300000054,58.86195300000054,58.86195300000054,58.86195300000054,58.86195300000054,58.86195300000054,58.86195300000054,007,P006,2025_Jan_25_1220,ConditionRich,2021.2.3,59.942515128048754,
24.0,27.75,2,0.75,Stimuli/P006/sun_ahmycohdkioefoxs.jpg,0,0,0.0,0,11,11,11,,,,,,,,,,,,,24.01972670000032,0.019726700000319397,5,1.958118800000193,59.095462500000394,59.095462500000394,59.095462500000394,59.095462500000394,59.095462500000394,59.095462500000394,59.095462500000394,59.095462500000394,59.095462500000394,59.095462500000394,007,P006,2025_Jan_25_1220,ConditionRich,2021.2.3,59.942515128048754,
27.75,28.0,41,0.0,Stimuli/Blank.png,0,0,0.0,0,12,12,12,,,,,,,,,,,,,27.756060499999876,0.006060499999875901,None,,62.83210490000056,62.83210490000056,62.83210490000056,62.83210490000056,62.83210490000056,62.83210490000056,62.83210490000056,62.83210490000056,62.83210490000056,62.83210490000056,007,P006,2025_Jan_25_1220,ConditionRich,2021.2.3,59.942515128048754,
28.0,31.75,20,0.75,Stimuli/P006/sun_dvxuxzytfdbjyzit.jpg,0,0,0.0,0,13,13,13,,,,,,,,,,,,,28.00612799999999,0.006127999999989697,5,1.9713894999995318,63.08232120000048,63.08232120000048,63.08232120000048,63.08232120000048,63.08232120000048,63.08232120000048,63.08232120000048,63.08232120000048,63.08232120000048,63.08232120000048,007,P006,2025_Jan_25_1220,ConditionRich,2021.2.3,59.942515128048754,
31.75,32.0,41,0.0,Stimuli/Blank.png,0,0,0.0,0,14,14,14,,,,,,,,,,,,,31.760306300000593,0.010306300000593183,5,0.21787659999972675,66.83564350000051,66.83564350000051,66.83564350000051,66.83564350000051,66.83564350000051,66.83564350000051,66.83564350000051,66.83564350000051,66.83564350000051,66.83564350000051,007,P006,2025_Jan_25_1220,ConditionRich,2021.2.3,59.942515128048754,
32.0,35.75,27,0.75,Stimuli/P006/things_first-aid_kit_03s.jpg,0,0,0.0,0,15,15,15,,,,,,,,,,,,,32.00963159999992,0.009631599999920581,5,1.967529900000045,67.08585589999984,67.08585589999984,67.08585589999984,67.08585589999984,67.08585589999984,67.08585589999984,67.08585589999984,67.08585589999984,67.08585589999984,67.08585589999984,007,P006,2025_Jan_25_1220,ConditionRich,2021.2.3,59.942515128048754,
35.75,36.0,41,0.0,Stimuli/Blank.png,0,0,0.0,0,16,16,16,,,,,,,,,,,,,35.7642235000003,0.014223500000298372,5,0.2141988000003039,70.8391717000004,70.8391717000004,70.8391717000004,70.8391717000004,70.8391717000004,70.8391717000004,70.8391717000004,70.8391717000004,70.8391717000004,70.8391717000004,007,P006,2025_Jan_25_1220,ConditionRich,2021.2.3,59.942515128048754,
36.0,39.75,28,0.75,Stimuli/P006/things_girl_03s.jpg,0,0,0.0,0,17,17,17,,,,,,,,,,,,,36.013987799999995,0.013987799999995332,5,1.9641359999995984,71.08938839999973,71.08938839999973,71.08938839999973,71.08938839999973,71.08938839999973,71.08938839999973,71.08938839999973,71.08938839999973,71.08938839999973,71.08938839999973,007,P006,2025_Jan_25_1220,ConditionRich,2021.2.3,59.942515128048754,
39.75,40.0,41,0.0,Stimuli/Blank.png,0,0,0.0,0,18,18,18,,,,,,,,,,,,,39.75072220000038,0.0007222000003821449,None,,74.8260151000004,74.8260151000004,74.8260151000004,74.8260151000004,74.8260151000004,74.8260151000004,74.8260151000004,74.8260151000004,74.8260151000004,74.8260151000004,007,P006,2025_Jan_25_1220,ConditionRich,2021.2.3,59.942515128048754,
40.0,43.75,32,0.75,Stimuli/P006/things_jumpsuit_03s.jpg,1,0,0.75,0,19,19,19,,,,,,,,,,,,,40.001001700000415,0.0010017000004154397,5,1.9773027999999613,75.07624420000047,75.07624420000047,75.07624420000047,75.07624420000047,75.07624420000047,75.07624420000047,75.07624420000047,75.81021430000055,75.07624420000047,75.07624420000047,007,P006,2025_Jan_25_1220,ConditionRich,2021.2.3,59.942515128048754,
43.75,44.0,41,0.0,Stimuli/Blank.png,0,0,0.0,0,20,20,20,,,,,,,,,,,,,43.75476489999983,0.004764899999827321,None,,78.82955570000013,78.82955570000013,78.82955570000013,78.82955570000013,78.82955570000013,78.82955570000013,78.82955570000013,78.82955570000013,78.82955570000013,78.82955570000013,007,P006,2025_Jan_25_1220,ConditionRich,2021.2.3,59.942515128048754,
44.0,47.75,13,0.75,Stimuli/P006/sun_bruphbrfsbxowtlq.jpg,1,3,3.75,0,21,21,21,,,,,,,,,,,,,44.00440359999993,0.004403599999932339,5,1.9736512999998013,79.07977449999998,79.07977449999998,79.07977449999998,79.07977449999998,79.07977449999998,79.07977449999998,82.06573260000005,82.81639820000055,79.07977449999998,79.07977449999998,007,P006,2025_Jan_25_1220,ConditionRich,2021.2.3,59.942515128048754,
47.75,48.0,41,0.0,Stimuli/Blank.png,0,0,0.0,0,22,22,22,,,,,,,,,,,,,47.75691040000038,0.006910400000379013,1,0.0013629000004584668,82.83315599999969,82.83315599999969,82.83315599999969,82.83315599999969,82.83315599999969,82.83315599999969,82.83315599999969,82.83315599999969,82.83315599999969,82.83315599999969,007,P006,2025_Jan_25_1220,ConditionRich,2021.2.3,59.942515128048754,
48.0,51.75,26,0.75,Stimuli/P006/things_face_03s.jpg,0,0,0.0,0,23,23,23,,,,,,,,,,,,,48.00861630000054,0.008616300000539923,None,,83.09998509999969,83.09998509999969,83.09998509999969,83.09998509999969,83.09998509999969,83.09998509999969,83.09998509999969,83.09998509999969,83.09998509999969,83.09998509999969,007,P006,2025_Jan_25_1220,ConditionRich,2021.2.3,59.942515128048754,
51.75,52.0,41,0.0,Stimuli/Blank.png,0,0,0.0,0,24,24,24,,,,,,,,,,,,,51.780104200000096,0.03010420000009617,5,0.18450279999979102,86.86998310000035,86.86998310000035,86.86998310000035,86.86998310000035,86.86998310000035,86.86998310000035,86.86998310000035,86.86998310000035,86.86998310000035,86.86998310000035,007,P006,2025_Jan_25_1220,ConditionRich,2021.2.3,59.942515128048754,
52.0,55.75,34,0.75,Stimuli/P006/things_patty_03s.jpg,0,0,0.0,0,25,25,25,,,,,,,,,,,,,52.029653399999916,0.029653399999915564,5,1.9331938000004811,87.12020310000025,87.12020310000025,87.12020310000025,87.12020310000025,87.12020310000025,87.12020310000025,87.12020310000025,87.12020310000025,87.12020310000025,87.12020310000025,007,P006,2025_Jan_25_1220,ConditionRich,2021.2.3,59.942515128048754,
55.75,56.0,41,0.0,Stimuli/Blank.png,0,0,0.0,0,26,26,26,,,,,,,,,,,,,55.765213499999845,0.015213499999845226,5,0.21322860000054789,90.84015480000016,90.84015480000016,90.84015480000016,90.84015480000016,90.84015480000016,90.84015480000016,90.84015480000016,90.84015480000016,90.84015480000016,90.84015480000016,007,P006,2025_Jan_25_1220,ConditionRich,2021.2.3,59.942515128048754,
56.0,59.75,4,0.75,Stimuli/P006/sun_auwghripdoxzluuk.jpg,0,0,0.0,0,27,27,27,,,,,,,,,,,,,56.014954500000385,0.014954500000385451,5,1.9642139000006864,91.09036949999972,91.09036949999972,91.09036949999972,91.09036949999972,91.09036949999972,91.09036949999972,91.09036949999972,91.09036949999972,91.09036949999972,91.09036949999972,007,P006,2025_Jan_25_1220,ConditionRich,2021.2.3,59.942515128048754,
59.75,60.0,41,0.0,Stimuli/Blank.png,0,0,0.0,0,28,28,28,,,,,,,,,,,,,59.75162570000066,0.0016257000006589806,None,,94.8270865000004,94.8270865000004,94.8270865000004,94.8270865000004,94.8270865000004,94.8270865000004,94.8270865000004,94.8270865000004,94.8270865000004,94.8270865000004,007,P006,2025_Jan_25_1220,ConditionRich,2021.2.3,59.942515128048754,
60.0,63.75,12,0.75,Stimuli/P006/sun_bodyuiqwqpqzwfoz.jpg,0,0,0.0,0,29,29,29,,,,,,,,,,,,,60.0017912000003,0.0017912000002979767,5,1.9773566000003484,95.07722699999977,95.07722699999977,95.07722699999977,95.07722699999977,95.07722699999977,95.07722699999977,95.07722699999977,95.07722699999977,95.07722699999977,95.07722699999977,007,P006,2025_Jan_25_1220,ConditionRich,2021.2.3,59.942515128048754,
63.75,64.0,41,0.0,Stimuli/Blank.png,0,0,0.0,0,30,30,30,,,,,,,,,,,,,63.75538899999992,0.005388999999922817,None,,98.83053810000001,98.83053810000001,98.83053810000001,98.83053810000001,98.83053810000001,98.83053810000001,98.83053810000001,98.83053810000001,98.83053810000001,98.83053810000001,007,P006,2025_Jan_25_1220,ConditionRich,2021.2.3,59.942515128048754,
64.0,67.75,19,0.75,Stimuli/P006/sun_czspalxthlkjwoat.jpg,0,0,0.0,0,31,31,31,,,,,,,,,,,,,64.00476320000053,0.004763200000525103,5,1.973619299999882,99.08075749999989,99.08075749999989,99.08075749999989,99.08075749999989,99.08075749999989,99.08075749999989,99.08075749999989,99.08075749999989,99.08075749999989,99.08075749999989,007,P006,2025_Jan_25_1220,ConditionRich,2021.2.3,59.942515128048754,
67.75,68.0,41,0.0,Stimuli/Blank.png,0,0,0.0,0,32,32,32,,,,,,,,,,,,,67.75922600000013,0.009226000000126078,None,,102.83407859999988,102.83407859999988,102.83407859999988,102.83407859999988,102.83407859999988,102.83407859999988,102.83407859999988,102.83407859999988,102.83407859999988,102.83407859999988,007,P006,2025_Jan_25_1220,ConditionRich,2021.2.3,59.942515128048754,
68.0,71.75,1,0.75,Stimuli/P006/sun_adyhbxohydkpecty.jpg,0,0,0.0,0,33,33,33,,,,,,,,,,,,,68.00887109999985,0.00887109999985114,5,1.970109599999887,103.08429290000004,103.08429290000004,103.08429290000004,103.08429290000004,103.08429290000004,103.08429290000004,103.08429290000004,103.08429290000004,103.08429290000004,103.08429290000004,007,P006,2025_Jan_25_1220,ConditionRich,2021.2.3,59.942515128048754,
71.75,72.0,41,0.0,Stimuli/Blank.png,0,0,0.0,0,34,34,34,,,,,,,,,,,,,71.76452550000067,0.014525500000672764,5,0.20010009999987233,106.85430850000012,106.85430850000012,106.85430850000012,106.85430850000012,106.85430850000012,106.85430850000012,106.85430850000012,106.85430850000012,106.85430850000012,106.85430850000012,007,P006,2025_Jan_25_1220,ConditionRich,2021.2.3,59.942515128048754,
72.0,75.75,33,0.75,Stimuli/P006/things_man_03s.jpg,1,0,0.75,0,35,35,35,,,,,,,,,,,,,72.02825980000034,0.028259800000341784,5,1.9498538000007102,107.10450570000012,107.10450570000012,107.10450570000012,107.10450570000012,107.10450570000012,107.10450570000012,107.10450570000012,107.83850810000058,107.10450570000012,107.10450570000012,007,P006,2025_Jan_25_1220,ConditionRich,2021.2.3,59.942515128048754,
75.75,76.0,41,0.0,Stimuli/Blank.png,0,0,0.0,0,36,36,36,,,,,,,,,,,,,75.76565980000032,0.01565980000032141,None,,110.8411328000002,110.8411328000002,110.8411328000002,110.8411328000002,110.8411328000002,110.8411328000002,110.8411328000002,110.8411328000002,110.8411328000002,110.8411328000002,007,P006,2025_Jan_25_1220,ConditionRich,2021.2.3,59.942515128048754,
76.0,79.75,23,0.75,Stimuli/P006/things_beetle_03s.jpg,0,0,0.0,0,37,37,37,,,,,,,,,,,,,75.99888030000056,-0.0011196999994353973,5,1.9796212999999625,111.07476330000009,111.07476330000009,111.07476330000009,111.07476330000009,111.07476330000009,111.07476330000009,111.07476330000009,111.07476330000009,111.07476330000009,111.07476330000009,007,P006,2025_Jan_25_1220,ConditionRich,2021.2.3,59.942515128048754,
79.75,80.0,41,0.0,Stimuli/Blank.png,0,0,0.0,0,38,38,38,,,,,,,,,,,,,79.75445360000049,0.004453600000488223,5,0.2098414000001867,114.84468180000022,114.84468180000022,114.84468180000022,114.84468180000022,114.84468180000022,114.84468180000022,114.84468180000022,114.84468180000022,114.84468180000022,114.84468180000022,007,P006,2025_Jan_25_1220,ConditionRich,2021.2.3,59.942515128048754,
80.0,83.75,6,0.75,Stimuli/P006/sun_bbzkhzmxdjrfjpjz.jpg,1,0,0.75,0,39,39,39,,,,,,,,,,,,,80.01982270000008,0.01982270000007702,5,1.9428290999994715,115.11156840000058,115.11156840000058,115.11156840000058,115.11156840000058,115.11156840000058,115.11156840000058,115.11156840000058,115.82889590000013,115.11156840000058,115.11156840000058,007,P006,2025_Jan_25_1220,ConditionRich,2021.2.3,59.942515128048754,
83.75,84.0,41,0.0,Stimuli/Blank.png,0,0,0.0,0,40,40,40,,,,,,,,,,,,,83.77424239999982,0.02424239999982092,5,0.18952809999973397,118.86488310000004,118.86488310000004,118.86488310000004,118.86488310000004,118.86488310000004,118.86488310000004,118.86488310000004,118.86488310000004,118.86488310000004,118.86488310000004,007,P006,2025_Jan_25_1220,ConditionRich,2021.2.3,59.942515128048754,
84.0,100.0,0,0.0,Stimuli/Blank.png,1,1,1.75,0,41,41,41,,,,,,,,,,,,,84.0224718999998,0.02247189999980037,5,13.956234499999482,119.09842329999992,119.09842329999992,119.09842329999992,119.09842329999992,119.09842329999992,119.09842329999992,120.08261949999996,120.83328260000053,119.09842329999992,119.09842329999992,007,P006,2025_Jan_25_1220,ConditionRich,2021.2.3,59.942515128048754,
100.0,103.75,15,0.75,Stimuli/P006/sun_btkzuhaxqlacvmsv.jpg,0,0,0.0,0,42,42,42,,,,,,,,,,,,,100.00380480000058,0.003804800000580144,5,1.975199800000155,135.07919390000006,135.07919390000006,135.07919390000006,135.07919390000006,135.07919390000006,135.07919390000006,135.07919390000006,135.07919390000006,135.07919390000006,135.07919390000006,007,P006,2025_Jan_25_1220,ConditionRich,2021.2.3,59.942515128048754,
103.75,104.0,41,0.0,Stimuli/Blank.png,0,0,0.0,0,43,43,43,,,,,,,,,,,,,103.75673730000017,0.006737300000168034,None,,138.8325319000005,138.8325319000005,138.8325319000005,138.8325319000005,138.8325319000005,138.8325319000005,138.8325319000005,138.8325319000005,138.8325319000005,138.8325319000005,007,P006,2025_Jan_25_1220,ConditionRich,2021.2.3,59.942515128048754,
104.0,107.75,30,0.75,Stimuli/P006/things_hood_03s.jpg,0,0,0.0,0,44,44,44,,,,,,,,,,,,,104.00688450000052,0.006884500000523985,5,1.9551869999995688,139.09940430000006,139.09940430000006,139.09940430000006,139.09940430000006,139.09940430000006,139.09940430000006,139.09940430000006,139.09940430000006,139.09940430000006,139.09940430000006,007,P006,2025_Jan_25_1220,ConditionRich,2021.2.3,59.942515128048754,
107.75,108.0,41,0.0,Stimuli/Blank.png,0,0,0.0,0,45,45,45,,,,,,,,,,,,,107.77683470000011,0.02683470000010857,5,0.2016051000000516,142.85272320000058,142.85272320000058,142.85272320000058,142.85272320000058,142.85272320000058,142.85272320000058,142.85272320000058,142.85272320000058,142.85272320000058,142.85272320000058,007,P006,2025_Jan_25_1220,ConditionRich,2021.2.3,59.942515128048754,
108.0,111.75,25,0.75,Stimuli/P006/things_dog_03s.jpg,0,0,0.0,0,46,46,46,,,,,,,,,,,,,108.01017680000041,0.010176800000408548,5,1.9680768999996872,143.0862576999998,143.0862576999998,143.0862576999998,143.0862576999998,143.0862576999998,143.0862576999998,143.0862576999998,143.0862576999998,143.0862576999998,143.0862576999998,007,P006,2025_Jan_25_1220,ConditionRich,2021.2.3,59.942515128048754,
111.75,112.0,41,0.0,Stimuli/Blank.png,0,0,0.0,0,47,47,47,,,,,,,,,,,,,111.76500990000022,0.015009900000222842,5,0.21486100000038277,146.83957920000012,146.83957920000012,146.83957920000012,146.83957920000012,146.83957920000012,146.83957920000012,146.83957920000012,146.83957920000012,146.83957920000012,146.83957920000012,007,P006,2025_Jan_25_1220,ConditionRich,2021.2.3,59.942515128048754,
112.0,115.75,10,0.75,Stimuli/P006/sun_bgnxbfhmwhliypvg.jpg,0,0,0.0,0,48,48,48,,,,,,,,,,,,,112.0143392,0.01433919999999489,5,1.9646424000002298,147.08979360000012,147.08979360000012,147.08979360000012,147.08979360000012,147.08979360000012,147.08979360000012,147.08979360000012,147.08979360000012,147.08979360000012,147.08979360000012,007,P006,2025_Jan_25_1220,ConditionRich,2021.2.3,59.942515128048754,
115.75,116.0,41,0.0,Stimuli/Blank.png,0,0,0.0,0,49,49,49,,,,,,,,,,,,,115.75091860000066,0.0009186000006593531,None,,150.82642320000014,150.82642320000014,150.82642320000014,150.82642320000014,150.82642320000014,150.82642320000014,150.82642320000014,150.82642320000014,150.82642320000014,150.82642320000014,007,P006,2025_Jan_25_1220,ConditionRich,2021.2.3,59.942515128048754,
116.0,119.75,17,0.75,Stimuli/P006/sun_bwsictslfxygpqbp.jpg,1,1,1.75,0,50,50,50,,,,,,,,,,,,,116.00137610000002,0.0013761000000158674,5,1.9610569999995278,151.0933315000002,151.0933315000002,151.0933315000002,151.0933315000002,151.0933315000002,151.0933315000002,152.06085210000037,152.81154590000006,151.0933315000002,151.0933315000002,007,P006,2025_Jan_25_1220,ConditionRich,2021.2.3,59.942515128048754,
119.75,120.0,41,0.0,Stimuli/Blank.png,0,0,0.0,0,51,51,51,,,,,,,,,,,,,119.77119310000035,0.02119310000034602,None,,154.84663460000047,154.84663460000047,154.84663460000047,154.84663460000047,154.84663460000047,154.84663460000047,154.84663460000047,154.84663460000047,154.84663460000047,154.84663460000047,007,P006,2025_Jan_25_1220,ConditionRich,2021.2.3,59.942515128048754,
120.0,123.75,31,0.75,Stimuli/P006/things_jukebox_03n.jpg,0,0,0.0,0,52,52,52,,,,,,,,,,,,,120.00500660000034,0.005006600000342587,5,1.9575048999995488,155.09685530000024,155.09685530000024,155.09685530000024,155.09685530000024,155.09685530000024,155.09685530000024,155.09685530000024,155.09685530000024,155.09685530000024,155.09685530000024,007,P006,2025_Jan_25_1220,ConditionRich,2021.2.3,59.942515128048754,
123.75,124.0,41,0.0,Stimuli/Blank.png,0,0,0.0,0,53,53,53,,,,,,,,,,,,,123.77523310000015,0.025233100000150444,5,0.18749660000048607,158.86688570000024,158.86688570000024,158.86688570000024,158.86688570000024,158.86688570000024,158.86688570000024,158.86688570000024,158.86688570000024,158.86688570000024,158.86688570000024,007,P006,2025_Jan_25_1220,ConditionRich,2021.2.3,59.942515128048754,
124.0,127.75,3,0.75,Stimuli/P006/sun_asyidwmnobuawmax.jpg,1,3,3.75,0,54,54,54,,,,,,,,,,,,,124.02498840000044,0.02498840000043856,1,3.5688838999994914,159.10039680000045,159.10039680000045,159.10039680000045,159.10039680000045,159.10039680000045,159.10039680000045,162.08634650000022,None,159.10039680000045,159.10039680000045,007,P006,2025_Jan_25_1220,ConditionRich,2021.2.3,59.942515128048754,
127.75,128.0,41,0.0,Stimuli/Blank.png,0,0,0.0,0,55,55,55,,,,,,,,,,,,,127.76100540000061,0.011005400000613008,5,0.2173835000003237,162.83701819999987,162.83701819999987,162.83701819999987,162.83701819999987,162.83701819999987,162.83701819999987,162.83701819999987,162.83701819999987,162.83701819999987,162.83701819999987,007,P006,2025_Jan_25_1220,ConditionRich,2021.2.3,59.942515128048754,
128.0,131.75,7,0.75,Stimuli/P006/sun_bdmdlkpsznknrcqi.jpg,0,0,0.0,0,56,56,56,,,,,,,,,,,,,128.01110289999997,0.01110289999996894,5,1.967170600000827,163.08724359999997,163.08724359999997,163.08724359999997,163.08724359999997,163.08724359999997,163.08724359999997,163.08724359999997,163.08724359999997,163.08724359999997,163.08724359999997,007,P006,2025_Jan_25_1220,ConditionRich,2021.2.3,59.942515128048754,
131.75,132.0,41,0.0,Stimuli/Blank.png,0,0,0.0,0,57,57,57,,,,,,,,,,,,,131.76511480000045,0.015114800000446849,5,0.2137061999992511,166.8405541000002,166.8405541000002,166.8405541000002,166.8405541000002,166.8405541000002,166.8405541000002,166.8405541000002,166.8405541000002,166.8405541000002,166.8405541000002,007,P006,2025_Jan_25_1220,ConditionRich,2021.2.3,59.942515128048754,
132.0,135.75,37,0.75,Stimuli/P006/things_showerhead_03s.jpg,0,0,0.0,0,58,58,58,,,,,,,,,,,,,132.01487420000012,0.014874200000122073,5,1.963533200000711,167.09077909999996,167.09077909999996,167.09077909999996,167.09077909999996,167.09077909999996,167.09077909999996,167.09077909999996,167.09077909999996,167.09077909999996,167.09077909999996,007,P006,2025_Jan_25_1220,ConditionRich,2021.2.3,59.942515128048754,
135.75,136.0,41,0.0,Stimuli/Blank.png,0,0,0.0,0,59,59,59,,,,,,,,,,,,,135.75141350000013,0.0014135000001260778,None,,170.82739860000038,170.82739860000038,170.82739860000038,170.82739860000038,170.82739860000038,170.82739860000038,170.82739860000038,170.82739860000038,170.82739860000038,170.82739860000038,007,P006,2025_Jan_25_1220,ConditionRich,2021.2.3,59.942515128048754,
136.0,139.75,14,0.75,Stimuli/P006/sun_bsirencncgxteejx.jpg,0,0,0.0,0,60,60,60,,,,,,,,,,,,,136.00171170000067,0.0017117000006692251,5,1.977062300000398,171.0776649999998,171.0776649999998,171.0776649999998,171.0776649999998,171.0776649999998,171.0776649999998,171.0776649999998,171.0776649999998,171.0776649999998,171.0776649999998,007,P006,2025_Jan_25_1220,ConditionRich,2021.2.3,59.942515128048754,
139.75,140.0,41,0.0,Stimuli/Blank.png,0,0,0.0,0,61,61,61,,,,,,,,,,,,,139.75488290000067,0.004882900000666268,None,,174.8309337999999,174.8309337999999,174.8309337999999,174.8309337999999,174.8309337999999,174.8309337999999,174.8309337999999,174.8309337999999,174.8309337999999,174.8309337999999,007,P006,2025_Jan_25_1220,ConditionRich,2021.2.3,59.942515128048754,
140.0,143.75,16,0.75,Stimuli/P006/sun_bwentnobehmvaxkp.jpg,0,0,0.0,0,62,62,62,,,,,,,,,,,,,140.00535089999994,0.005350899999939429,5,1.9731117000001177,175.08116530000007,175.08116530000007,175.08116530000007,175.08116530000007,175.08116530000007,175.08116530000007,175.08116530000007,175.08116530000007,175.08116530000007,175.08116530000007,007,P006,2025_Jan_25_1220,ConditionRich,2021.2.3,59.942515128048754,
143.75,144.0,41,0.0,Stimuli/Blank.png,0,0,0.0,0,63,63,63,,,,,,,,,,,,,143.75841440000022,0.008414400000219757,None,,178.83450689999972,178.83450689999972,178.83450689999972,178.83450689999972,178.83450689999972,178.83450689999972,178.83450689999972,178.83450689999972,178.83450689999972,178.83450689999972,007,P006,2025_Jan_25_1220,ConditionRich,2021.2.3,59.942515128048754,
144.0,147.75,38,0.75,Stimuli/P006/things_sledgehammer_03s.jpg,0,0,0.0,0,64,64,64,,,,,,,,,,,,,144.0090598000006,0.009059800000613905,5,1.9696383999998943,179.08468850000008,179.08468850000008,179.08468850000008,179.08468850000008,179.08468850000008,179.08468850000008,179.08468850000008,179.08468850000008,179.08468850000008,179.08468850000008,007,P006,2025_Jan_25_1220,ConditionRich,2021.2.3,59.942515128048754,
147.75,148.0,41,0.0,Stimuli/Blank.png,0,0,0.0,0,65,65,65,,,,,,,,,,,,,147.76472000000012,0.014720000000124855,5,0.1995600000000195,182.85470330000044,182.85470330000044,182.85470330000044,182.85470330000044,182.85470330000044,182.85470330000044,182.85470330000044,182.85470330000044,182.85470330000044,182.85470330000044,007,P006,2025_Jan_25_1220,ConditionRich,2021.2.3,59.942515128048754,
148.0,151.75,18,0.75,Stimuli/P006/sun_bzqhpcsgzswozfhs.jpg,0,0,0.0,0,66,66,66,,,,,,,,,,,,,148.02918610000052,0.02918610000051558,5,1.9494862000001376,183.10490709999976,183.10490709999976,183.10490709999976,183.10490709999976,183.10490709999976,183.10490709999976,183.10490709999976,183.10490709999976,183.10490709999976,183.10490709999976,007,P006,2025_Jan_25_1220,ConditionRich,2021.2.3,59.942515128048754,
151.75,152.0,41,0.0,Stimuli/Blank.png,0,0,0.0,0,67,67,67,,,,,,,,,,,,,151.74968750000062,-0.0003124999993815436,None,,186.82486919999974,186.82486919999974,186.82486919999974,186.82486919999974,186.82486919999974,186.82486919999974,186.82486919999974,186.82486919999974,186.82486919999974,186.82486919999974,007,P006,2025_Jan_25_1220,ConditionRich,2021.2.3,59.942515128048754,
152.0,155.75,8,0.75,Stimuli/P006/sun_bekkgqphzbclwpvb.jpg,0,0,0.0,0,68,68,68,,,,,,,,,,,,,152.0001413,0.000141299999995681,5,1.962455100000625,187.09177629999976,187.09177629999976,187.09177629999976,187.09177629999976,187.09177629999976,187.09177629999976,187.09177629999976,187.09177629999976,187.09177629999976,187.09177629999976,007,P006,2025_Jan_25_1220,ConditionRich,2021.2.3,59.942515128048754,
155.75,156.0,41,0.0,Stimuli/Blank.png,0,0,0.0,0,69,69,69,,,,,,,,,,,,,155.76992320000045,0.01992320000044856,None,,190.84508110000024,190.84508110000024,190.84508110000024,190.84508110000024,190.84508110000024,190.84508110000024,190.84508110000024,190.84508110000024,190.84508110000024,190.84508110000024,007,P006,2025_Jan_25_1220,ConditionRich,2021.2.3,59.942515128048754,
156.0,159.75,24,0.75,Stimuli/P006/things_crab_03s.jpg,0,0,0.0,0,70,70,70,,,,,,,,,,,,,156.00497840000025,0.004978400000254624,5,1.959099900000183,191.0953357999997,191.0953357999997,191.0953357999997,191.0953357999997,191.0953357999997,191.0953357999997,191.0953357999997,191.0953357999997,191.0953357999997,191.0953357999997,007,P006,2025_Jan_25_1220,ConditionRich,2021.2.3,59.942515128048754,
159.75,160.0,41,0.0,Stimuli/Blank.png,0,0,0.0,0,71,71,71,,,,,,,,,,,,,159.77367420000064,0.023674200000641576,None,,194.84935589999986,194.84935589999986,194.84935589999986,194.84935589999986,194.84935589999986,194.84935589999986,194.84935589999986,194.84935589999986,194.84935589999986,194.84935589999986,007,P006,2025_Jan_25_1220,ConditionRich,2021.2.3,59.942515128048754,
160.0,163.75,29,0.75,Stimuli/P006/things_guillotine_03s.jpg,0,0,0.0,0,72,72,72,,,,,,,,,,,,,160.00596880000012,0.00596880000011879,5,1.9720580000002883,195.08223550000002,195.08223550000002,195.08223550000002,195.08223550000002,195.08223550000002,195.08223550000002,195.08223550000002,195.08223550000002,195.08223550000002,195.08223550000002,007,P006,2025_Jan_25_1220,ConditionRich,2021.2.3,59.942515128048754,
163.75,164.0,41,0.0,Stimuli/Blank.png,0,0,0.0,0,73,73,73,,,,,,,,,,,,,163.7602510000006,0.010251000000607746,None,,198.83547720000024,198.83547720000024,198.83547720000024,198.83547720000024,198.83547720000024,198.83547720000024,198.83547720000024,198.83547720000024,198.83547720000024,198.83547720000024,007,P006,2025_Jan_25_1220,ConditionRich,2021.2.3,59.942515128048754,
164.0,167.75,35,0.75,Stimuli/P006/things_pig_03s.jpg,0,0,0.0,0,74,74,74,,,,,,,,,,,,,164.00980160000017,0.009801600000173494,5,1.9686707999999271,199.0856807,199.0856807,199.0856807,199.0856807,199.0856807,199.0856807,199.0856807,199.0856807,199.0856807,199.0856807,007,P006,2025_Jan_25_1220,ConditionRich,2021.2.3,59.942515128048754,
167.75,168.0,41,0.0,Stimuli/Blank.png,0,0,0.0,0,75,75,75,,,,,,,,,,,,,167.76422340000045,0.014223400000446418,5,0.2153888000002553,202.8389932,202.8389932,202.8389932,202.8389932,202.8389932,202.8389932,202.8389932,202.8389932,202.8389932,202.8389932,007,P006,2025_Jan_25_1220,ConditionRich,2021.2.3,59.942515128048754,
168.0,171.75,9,0.75,Stimuli/P006/sun_bfcmdrojsffdttzu.jpg,0,0,0.0,0,76,76,76,,,,,,,,,,,,,168.01395000000048,0.013950000000477303,5,1.965174000000843,203.08920730000045,203.08920730000045,203.08920730000045,203.08920730000045,203.08920730000045,203.08920730000045,203.08920730000045,203.08920730000045,203.08920730000045,203.08920730000045,007,P006,2025_Jan_25_1220,ConditionRich,2021.2.3,59.942515128048754,
171.75,172.0,41,0.0,Stimuli/Blank.png,0,0,0.0,0,77,77,77,,,,,,,,,,,,,171.75055969999994,0.0005596999999397667,None,,206.82583580000028,206.82583580000028,206.82583580000028,206.82583580000028,206.82583580000028,206.82583580000028,206.82583580000028,206.82583580000028,206.82583580000028,206.82583580000028,007,P006,2025_Jan_25_1220,ConditionRich,2021.2.3,59.942515128048754,
172.0,175.75,39,0.75,Stimuli/P006/things_train_set_03s.jpg,1,3,3.75,0,78,78,78,,,,,,,,,,,,,171.99987080000028,-0.0001291999997192761,1,3.410566400000789,207.07606209999994,207.07606209999994,207.07606209999994,207.07606209999994,207.07606209999994,207.07606209999994,210.06206590000056,210.81272369999988,207.07606209999994,207.07606209999994,007,P006,2025_Jan_25_1220,ConditionRich,2021.2.3,59.942515128048754,
175.75,176.0,41,0.0,Stimuli/Blank.png,0,0,0.0,0,79,79,79,,,,,,,,,,,,,175.7541038999998,0.004103899999790883,None,,210.82938509999985,210.82938509999985,210.82938509999985,210.82938509999985,210.82938509999985,210.82938509999985,210.82938509999985,210.82938509999985,210.82938509999985,210.82938509999985,007,P006,2025_Jan_25_1220,ConditionRich,2021.2.3,59.942515128048754,
176.0,179.75,11,0.75,Stimuli/P006/sun_bjoocjyyhsmsbprr.jpg,1,0,0.75,0,80,80,80,,,,,,,,,,,,,176.00383839999995,0.0038383999999496154,5,1.9747142000005624,211.07959649999975,211.07959649999975,211.07959649999975,211.07959649999975,211.07959649999975,211.07959649999975,211.07959649999975,211.81359840000005,211.07959649999975,211.07959649999975,007,P006,2025_Jan_25_1220,ConditionRich,2021.2.3,59.942515128048754,
179.75,180.0,41,0.0,Stimuli/Blank.png,0,0,0.0,0,81,81,81,,,,,,,,,,,,,179.75916010000037,0.00916010000037204,5,0.20492920000015147,214.84958879999976,214.84958879999976,214.84958879999976,214.84958879999976,214.84958879999976,214.84958879999976,214.84958879999976,214.84958879999976,214.84958879999976,214.84958879999976,007,P006,2025_Jan_25_1220,ConditionRich,2021.2.3,59.942515128048754,
180.0,196.0,0,0.0,Stimuli/Blank.png,1,2,2.75,0,82,82,82,,,,,,,,,,,,,180.0249703999998,0.024970399999801884,5,13.954585299999962,215.09981160000007,215.09981160000007,215.09981160000007,215.09981160000007,215.09981160000007,215.09981160000007,217.08489259999988,217.8356001000002,215.09981160000007,215.09981160000007,007,P006,2025_Jan_25_1220,ConditionRich,2021.2.3,59.942515128048754,
196.0,199.75,27,0.75,Stimuli/P006/things_first-aid_kit_03s.jpg,0,0,0.0,0,83,83,83,,,,,,,,,,,,,196.0061764000002,0.006176400000185822,5,1.9572508000001108,231.09726750000027,231.09726750000027,231.09726750000027,231.09726750000027,231.09726750000027,231.09726750000027,231.09726750000027,231.09726750000027,231.09726750000027,231.09726750000027,007,P006,2025_Jan_25_1220,ConditionRich,2021.2.3,59.942515128048754,
199.75,200.0,41,0.0,Stimuli/Blank.png,0,0,0.0,0,84,84,84,,,,,,,,,,,,,199.77505980000024,0.025059800000235555,5,0.18696520000048622,234.86727620000056,234.86727620000056,234.86727620000056,234.86727620000056,234.86727620000056,234.86727620000056,234.86727620000056,234.86727620000056,234.86727620000056,234.86727620000056,007,P006,2025_Jan_25_1220,ConditionRich,2021.2.3,59.942515128048754,
200.0,203.75,35,0.75,Stimuli/P006/things_pig_03s.jpg,0,0,0.0,0,85,85,85,,,,,,,,,,,,,200.0248031000001,0.02480310000009922,5,1.9534622999999556,235.10078760000033,235.10078760000033,235.10078760000033,235.10078760000033,235.10078760000033,235.10078760000033,235.10078760000033,235.10078760000033,235.10078760000033,235.10078760000033,007,P006,2025_Jan_25_1220,ConditionRich,2021.2.3,59.942515128048754,
203.75,204.0,41,0.0,Stimuli/Blank.png,0,0,0.0,0,86,86,86,,,,,,,,,,,,,203.76178260000052,0.011782600000515231,5,0.216850699999668,238.83742830000028,238.83742830000028,238.83742830000028,238.83742830000028,238.83742830000028,238.83742830000028,238.83742830000028,238.83742830000028,238.83742830000028,238.83742830000028,007,P006,2025_Jan_25_1220,ConditionRich,2021.2.3,59.942515128048754,
204.0,207.75,33,0.75,Stimuli/P006/things_man_03s.jpg,0,0,0.0,0,87,87,87,,,,,,,,,,,,,204.01419130000068,0.014191300000675255,5,1.9498431000001801,239.10433449999982,239.10433449999982,239.10433449999982,239.10433449999982,239.10433449999982,239.10433449999982,239.10433449999982,239.10433449999982,239.10433449999982,239.10433449999982,007,P006,2025_Jan_25_1220,ConditionRich,2021.2.3,59.942515128048754,
207.75,208.0,41,0.0,Stimuli/Blank.png,0,0,0.0,0,88,88,88,,,,,,,,,,,,,207.76489020000008,0.014890200000081677,5,0.21343920000072103,242.84095590000015,242.84095590000015,242.84095590000015,242.84095590000015,242.84095590000015,242.84095590000015,242.84095590000015,242.84095590000015,242.84095590000015,242.84095590000015,007,P006,2025_Jan_25_1220,ConditionRich,2021.2.3,59.942515128048754,
208.0,211.75,6,0.75,Stimuli/P006/sun_bbzkhzmxdjrfjpjz.jpg,0,0,0.0,0,89,89,89,,,,,,,,,,,,,208.0156262999999,0.0156262999998944,5,1.9463529999993625,243.10787710000022,243.10787710000022,243.10787710000022,243.10787710000022,243.10787710000022,243.10787710000022,243.10787710000022,243.10787710000022,243.10787710000022,243.10787710000022,007,P006,2025_Jan_25_1220,ConditionRich,2021.2.3,59.942515128048754,
211.75,212.0,41,0.0,Stimuli/Blank.png,0,0,0.0,0,90,90,90,,,,,,,,,,,,,211.7697463000004,0.019746300000406336,None,,246.84449370000038,246.84449370000038,246.84449370000038,246.84449370000038,246.84449370000038,246.84449370000038,246.84449370000038,246.84449370000038,246.84449370000038,246.84449370000038,007,P006,2025_Jan_25_1220,ConditionRich,2021.2.3,59.942515128048754,
212.0,215.75,31,0.75,Stimuli/P006/things_jukebox_03n.jpg,1,1,1.75,0,91,91,91,,,,,,,,,,,,,212.00416570000016,0.004165700000157813,5,1.9594368999996732,247.0947229000003,247.0947229000003,247.0947229000003,247.0947229000003,247.0947229000003,247.0947229000003,248.07891449999988,248.82957429999988,247.0947229000003,247.0947229000003,007,P006,2025_Jan_25_1220,ConditionRich,2021.2.3,59.942515128048754,
215.75,216.0,41,0.0,Stimuli/Blank.png,0,0,0.0,0,92,92,92,,,,,,,,,,,,,215.77448189999996,0.024481899999955203,5,0.18947779999962222,250.86473079999996,250.86473079999996,250.86473079999996,250.86473079999996,250.86473079999996,250.86473079999996,250.86473079999996,250.86473079999996,250.86473079999996,250.86473079999996,007,P006,2025_Jan_25_1220,ConditionRich,2021.2.3,59.942515128048754,
216.0,219.75,24,0.75,Stimuli/P006/things_crab_03s.jpg,0,0,0.0,0,93,93,93,,,,,,,,,,,,,216.02277279999998,0.022772799999984272,5,1.956230499999947,251.09824670000035,251.09824670000035,251.09824670000035,251.09824670000035,251.09824670000035,251.09824670000035,251.09824670000035,251.09824670000035,251.09824670000035,251.09824670000035,007,P006,2025_Jan_25_1220,ConditionRich,2021.2.3,59.942515128048754,
219.75,220.0,41,0.0,Stimuli/Blank.png,0,0,0.0,0,94,94,94,,,,,,,,,,,,,219.75876580000022,0.008765800000219315,None,,254.83487700000023,254.83487700000023,254.83487700000023,254.83487700000023,254.83487700000023,254.83487700000023,254.83487700000023,254.83487700000023,254.83487700000023,254.83487700000023,007,P006,2025_Jan_25_1220,ConditionRich,2021.2.3,59.942515128048754,
220.0,223.75,10,0.75,Stimuli/P006/sun_bgnxbfhmwhliypvg.jpg,0,0,0.0,0,95,95,95,,,,,,,,,,,,,220.0096193999998,0.009619399999792222,5,1.9525120999996943,255.1017780000002,255.1017780000002,255.1017780000002,255.1017780000002,255.1017780000002,255.1017780000002,255.1017780000002,255.1017780000002,255.1017780000002,255.1017780000002,007,P006,2025_Jan_25_1220,ConditionRich,2021.2.3,59.942515128048754,
223.75,224.0,41,0.0,Stimuli/Blank.png,0,0,0.0,0,96,96,96,,,,,,,,,,,,,223.77972769999997,0.029727699999966717,5,0.19908089999989897,258.8550928000004,258.8550928000004,258.8550928000004,258.8550928000004,258.8550928000004,258.8550928000004,258.8550928000004,258.8550928000004,258.8550928000004,258.8550928000004,007,P006,2025_Jan_25_1220,ConditionRich,2021.2.3,59.942515128048754,
224.0,227.75,21,0.75,Stimuli/P006/things_accordion_03s.jpg,1,0,0.75,0,97,97,97,,,,,,,,,,,,,224.0152235000005,0.0152235000005021,5,1.9489934000002904,259.1053141000002,259.1053141000002,259.1053141000002,259.1053141000002,259.1053141000002,259.1053141000002,259.1053141000002,259.8393022999999,259.1053141000002,259.1053141000002,007,P006,2025_Jan_25_1220,ConditionRich,2021.2.3,59.942515128048754,
227.75,228.0,41,0.0,Stimuli/Blank.png,0,0,0.0,0,98,98,98,,,,,,,,,,,,,227.76629690000027,0.016296900000270398,None,,262.8419452999997,262.8419452999997,262.8419452999997,262.8419452999997,262.8419452999997,262.8419452999997,262.8419452999997,262.8419452999997,262.8419452999997,262.8419452999997,007,P006,2025_Jan_25_1220,ConditionRich,2021.2.3,59.942515128048754,
228.0,231.75,18,0.75,Stimuli/P006/sun_bzqhpcsgzswozfhs.jpg,0,0,0.0,0,99,99,99,,,,,,,,,,,,,228.00055800000064,0.0005580000006375485,5,1.9619679000006727,263.0921784000002,263.0921784000002,263.0921784000002,263.0921784000002,263.0921784000002,263.0921784000002,263.0921784000002,263.0921784000002,263.0921784000002,263.0921784000002,007,P006,2025_Jan_25_1220,ConditionRich,2021.2.3,59.942515128048754,
231.75,232.0,41,0.0,Stimuli/Blank.png,0,0,0.0,0,100,100,100,,,,,,,,,,,,,231.77011579999999,0.02011579999998503,5,0.19197110000004614,266.8621869999997,266.8621869999997,266.8621869999997,266.8621869999997,266.8621869999997,266.8621869999997,266.8621869999997,266.8621869999997,266.8621869999997,266.8621869999997,007,P006,2025_Jan_25_1220,ConditionRich,2021.2.3,59.942515128048754,
232.0,235.75,15,0.75,Stimuli/P006/sun_btkzuhaxqlacvmsv.jpg,0,0,0.0,0,101,101,101,,,,,,,,,,,,,232.0196734000001,0.019673400000101537,5,1.9585181000002194,267.0957261000003,267.0957261000003,267.0957261000003,267.0957261000003,267.0957261000003,267.0957261000003,267.0957261000003,267.0957261000003,267.0957261000003,267.0957261000003,007,P006,2025_Jan_25_1220,ConditionRich,2021.2.3,59.942515128048754,
235.75,236.0,41,0.0,Stimuli/Blank.png,0,0,0.0,0,102,102,102,,,,,,,,,,,,,235.75694680000015,0.006946800000150688,None,,270.8323386000002,270.8323386000002,270.8323386000002,270.8323386000002,270.8323386000002,270.8323386000002,270.8323386000002,270.8323386000002,270.8323386000002,270.8323386000002,007,P006,2025_Jan_25_1220,ConditionRich,2021.2.3,59.942515128048754,
236.0,239.75,28,0.75,Stimuli/P006/things_girl_03s.jpg,1,2,2.75,0,103,103,103,,,,,,,,,,,,,236.00680360000024,0.006803600000239385,1,2.4599701999995887,271.08254730000044,271.08254730000044,271.08254730000044,271.08254730000044,271.08254730000044,271.08254730000044,273.06762549999985,273.81829300000027,271.08254730000044,271.08254730000044,007,P006,2025_Jan_25_1220,ConditionRich,2021.2.3,59.942515128048754,
239.75,240.0,41,0.0,Stimuli/Blank.png,0,0,0.0,0,104,104,104,,,,,,,,,,,,,239.7598205000004,0.009820500000387256,None,,274.8358629000004,274.8358629000004,274.8358629000004,274.8358629000004,274.8358629000004,274.8358629000004,274.8358629000004,274.8358629000004,274.8358629000004,274.8358629000004,007,P006,2025_Jan_25_1220,ConditionRich,2021.2.3,59.942515128048754,
240.0,243.75,17,0.75,Stimuli/P006/sun_bwsictslfxygpqbp.jpg,1,2,2.75,0,105,105,105,,,,,,,,,,,,,240.0102383000003,0.010238300000310119,1,2.7492283000001407,275.0860825,275.0860825,275.0860825,275.0860825,275.0860825,275.0860825,277.07117389999985,277.8218689000005,275.0860825,275.0860825,007,P006,2025_Jan_25_1220,ConditionRich,2021.2.3,59.942515128048754,
243.75,244.0,41,0.0,Stimuli/Blank.png,0,0,0.0,0,106,106,106,,,,,,,,,,,,,243.76369179999983,0.013691799999833165,5,0.21489329999985785,278.8393952000006,278.8393952000006,278.8393952000006,278.8393952000006,278.8393952000006,278.8393952000006,278.8393952000006,278.8393952000006,278.8393952000006,278.8393952000006,007,P006,2025_Jan_25_1220,ConditionRich,2021.2.3,59.942515128048754,
244.0,247.75,13,0.75,Stimuli/P006/sun_bruphbrfsbxowtlq.jpg,0,0,0.0,0,107,107,107,,,,,,,,,,,,,244.0140207000004,0.01402070000040112,5,1.9647744999992938,279.0896165000004,279.0896165000004,279.0896165000004,279.0896165000004,279.0896165000004,279.0896165000004,279.0896165000004,279.0896165000004,279.0896165000004,279.0896165000004,007,P006,2025_Jan_25_1220,ConditionRich,2021.2.3,59.942515128048754,
247.75,248.0,41,0.0,Stimuli/Blank.png,0,0,0.0,0,108,108,108,,,,,,,,,,,,,247.75075090000064,0.0007509000006393762,None,,282.82624980000037,282.82624980000037,282.82624980000037,282.82624980000037,282.82624980000037,282.82624980000037,282.82624980000037,282.82624980000037,282.82624980000037,282.82624980000037,007,P006,2025_Jan_25_1220,ConditionRich,2021.2.3,59.942515128048754,
248.0,251.75,4,0.75,Stimuli/P006/sun_auwghripdoxzluuk.jpg,0,0,0.0,0,109,109,109,,,,,,,,,,,,,248.00020380000024,0.0002038000002357876,5,1.9777260000000751,283.0764638999999,283.0764638999999,283.0764638999999,283.0764638999999,283.0764638999999,283.0764638999999,283.0764638999999,283.0764638999999,283.0764638999999,283.0764638999999,007,P006,2025_Jan_25_1220,ConditionRich,2021.2.3,59.942515128048754,
251.75,252.0,41,0.0,Stimuli/Blank.png,0,0,0.0,0,110,110,110,,,,,,,,,,,,,251.7550351,0.005035099999986414,5,0.207683999999972,286.84648840000045,286.84648840000045,286.84648840000045,286.84648840000045,286.84648840000045,286.84648840000045,286.84648840000045,286.84648840000045,286.84648840000045,286.84648840000045,007,P006,2025_Jan_25_1220,ConditionRich,2021.2.3,59.942515128048754,
252.0,255.75,26,0.75,Stimuli/P006/things_face_03s.jpg,0,0,0.0,0,111,111,111,,,,,,,,,,,,,252.0205519000001,0.02055190000010043,5,1.9575543000000835,287.0966778000002,287.0966778000002,287.0966778000002,287.0966778000002,287.0966778000002,287.0966778000002,287.0966778000002,287.0966778000002,287.0966778000002,287.0966778000002,007,P006,2025_Jan_25_1220,ConditionRich,2021.2.3,59.942515128048754,
255.75,256.0,41,0.0,Stimuli/Blank.png,0,0,0.0,0,112,112,112,,,,,,,,,,,,,255.7595640999998,0.009564099999806785,5,0.20413129999997182,290.84999870000047,290.84999870000047,290.84999870000047,290.84999870000047,290.84999870000047,290.84999870000047,290.84999870000047,290.84999870000047,290.84999870000047,290.84999870000047,007,P006,2025_Jan_25_1220,ConditionRich,2021.2.3,59.942515128048754,
256.0,259.75,19,0.75,Stimuli/P006/sun_czspalxthlkjwoat.jpg,0,0,0.0,0,113,113,113,,,,,,,,,,,,,256.0247868000006,0.024786800000583753,5,1.9542275000003428,291.10021700000016,291.10021700000016,291.10021700000016,291.10021700000016,291.10021700000016,291.10021700000016,291.10021700000016,291.10021700000016,291.10021700000016,291.10021700000016,007,P006,2025_Jan_25_1220,ConditionRich,2021.2.3,59.942515128048754,
259.75,260.0,41,0.0,Stimuli/Blank.png,0,0,0.0,0,114,114,114,,,,,,,,,,,,,259.76060490000054,0.010604900000544148,5,0.21737539999958244,294.8368453000003,294.8368453000003,294.8368453000003,294.8368453000003,294.8368453000003,294.8368453000003,294.8368453000003,294.8368453000003,294.8368453000003,294.8368453000003,007,P006,2025_Jan_25_1220,ConditionRich,2021.2.3,59.942515128048754,
260.0,263.75,3,0.75,Stimuli/P006/sun_asyidwmnobuawmax.jpg,0,0,0.0,0,115,115,115,,,,,,,,,,,,,260.01256139999987,0.012561399999867717,5,1.950399500000458,295.1037488000002,295.1037488000002,295.1037488000002,295.1037488000002,295.1037488000002,295.1037488000002,295.1037488000002,295.1037488000002,295.1037488000002,295.1037488000002,007,P006,2025_Jan_25_1220,ConditionRich,2021.2.3,59.942515128048754,
263.75,264.0,41,0.0,Stimuli/Blank.png,0,0,0.0,0,116,116,116,,,,,,,,,,,,,263.7650844,0.015084399999977904,5,0.19704550000005838,298.8570802000004,298.8570802000004,298.8570802000004,298.8570802000004,298.8570802000004,298.8570802000004,298.8570802000004,298.8570802000004,298.8570802000004,298.8570802000004,007,P006,2025_Jan_25_1220,ConditionRich,2021.2.3,59.942515128048754,
264.0,267.75,38,0.75,Stimuli/P006/things_sledgehammer_03s.jpg,0,0,0.0,0,117,117,117,,,,,,,,,,,,,264.0317623000001,0.03176230000008218,5,1.9468918000002304,299.1072789,299.1072789,299.1072789,299.1072789,299.1072789,299.1072789,299.1072789,299.1072789,299.1072789,299.1072789,007,P006,2025_Jan_25_1220,ConditionRich,2021.2.3,59.942515128048754,
267.75,268.0,41,0.0,Stimuli/Blank.png,0,0,0.0,0,118,118,118,,,,,,,,,,,,,267.7540789000004,0.004078900000422436,5,0.21039190000010421,302.8439328000004,302.8439328000004,302.8439328000004,302.8439328000004,302.8439328000004,302.8439328000004,302.8439328000004,302.8439328000004,302.8439328000004,302.8439328000004,007,P006,2025_Jan_25_1220,ConditionRich,2021.2.3,59.942515128048754,
268.0,271.75,22,0.75,Stimuli/P006/things_baby_03s.jpg,0,0,0.0,0,119,119,119,,,,,,,,,,,,,268.0188781000006,0.01887810000062018,5,1.9437464000002365,303.11081100000047,303.11081100000047,303.11081100000047,303.11081100000047,303.11081100000047,303.11081100000047,303.11081100000047,303.11081100000047,303.11081100000047,303.11081100000047,007,P006,2025_Jan_25_1220,ConditionRich,2021.2.3,59.942515128048754,
271.75,272.0,41,0.0,Stimuli/Blank.png,0,0,0.0,0,120,120,120,,,,,,,,,,,,,271.7717158000005,0.02171580000049289,None,,306.847444,306.847444,306.847444,306.847444,306.847444,306.847444,306.847444,306.847444,306.847444,306.847444,007,P006,2025_Jan_25_1220,ConditionRich,2021.2.3,59.942515128048754,
272.0,275.75,14,0.75,Stimuli/P006/sun_bsirencncgxteejx.jpg,0,0,0.0,0,121,121,121,,,,,,,,,,,,,272.0052263000007,0.005226300000686024,5,1.9744683999997505,307.08098229999996,307.08098229999996,307.08098229999996,307.08098229999996,307.08098229999996,307.08098229999996,307.08098229999996,307.08098229999996,307.08098229999996,307.08098229999996,007,P006,2025_Jan_25_1220,ConditionRich,2021.2.3,59.942515128048754,
275.75,276.0,41,0.0,Stimuli/Blank.png,0,0,0.0,0,122,122,122,,,,,,,,,,,,,275.7594957000001,0.009495700000115903,None,,310.8343014000002,310.8343014000002,310.8343014000002,310.8343014000002,310.8343014000002,310.8343014000002,310.8343014000002,310.8343014000002,310.8343014000002,310.8343014000002,007,P006,2025_Jan_25_1220,ConditionRich,2021.2.3,59.942515128048754,
276.0,292.0,0,0.0,Stimuli/Blank.png,1,6,6.75,0,123,123,123,,,,,,,,,,,,,276.00987239999995,0.009872399999949266,5,13.970638799999506,311.0845325,311.0845325,311.0845325,311.0845325,311.0845325,311.0845325,317.0731808999999,317.8237952999998,311.0845325,311.0845325,007,P006,2025_Jan_25_1220,ConditionRich,2021.2.3,59.942515128048754,
292.0,295.75,39,0.75,Stimuli/P006/things_train_set_03s.jpg,1,3,3.75,0,124,124,124,,,,,,,,,,,,,292.0063402000005,0.0063402000005226,1,3.5174030000007406,327.0986567,327.0986567,327.0986567,327.0986567,327.0986567,327.0986567,330.0679282000001,330.8185893,327.0986567,327.0986567,007,P006,2025_Jan_25_1220,ConditionRich,2021.2.3,59.942515128048754,
295.75,296.0,41,0.0,Stimuli/Blank.png,0,0,0.0,0,125,125,125,,,,,,,,,,,,,295.77659330000006,0.02659330000005866,None,,330.8519629000002,330.8519629000002,330.8519629000002,330.8519629000002,330.8519629000002,330.8519629000002,330.8519629000002,330.8519629000002,330.8519629000002,330.8519629000002,007,P006,2025_Jan_25_1220,ConditionRich,2021.2.3,59.942515128048754,
296.0,299.75,32,0.75,Stimuli/P006/things_jumpsuit_03s.jpg,0,0,0.0,0,126,126,126,,,,,,,,,,,,,296.0099151000004,0.009915100000398525,5,1.9696406000002753,331.0855067000002,331.0855067000002,331.0855067000002,331.0855067000002,331.0855067000002,331.0855067000002,331.0855067000002,331.0855067000002,331.0855067000002,331.0855067000002,007,P006,2025_Jan_25_1220,ConditionRich,2021.2.3,59.942515128048754,
299.75,300.0,41,0.0,Stimuli/Blank.png,0,0,0.0,0,127,127,127,,,,,,,,,,,,,299.7647471999999,0.014747199999874283,5,0.1995654000002105,334.8555094000003,334.8555094000003,334.8555094000003,334.8555094000003,334.8555094000003,334.8555094000003,334.8555094000003,334.8555094000003,334.8555094000003,334.8555094000003,007,P006,2025_Jan_25_1220,ConditionRich,2021.2.3,59.942515128048754,
300.0,303.75,37,0.75,Stimuli/P006/things_showerhead_03s.jpg,0,0,0.0,0,128,128,128,,,,,,,,,,,,,300.02957510000033,0.029575100000329257,5,1.9495183999997607,335.10571640000035,335.10571640000035,335.10571640000035,335.10571640000035,335.10571640000035,335.10571640000035,335.10571640000035,335.10571640000035,335.10571640000035,335.10571640000035,007,P006,2025_Jan_25_1220,ConditionRich,2021.2.3,59.942515128048754,
303.75,304.0,41,0.0,Stimuli/Blank.png,0,0,0.0,0,129,129,129,,,,,,,,,,,,,303.7496368000002,-0.0003631999998106039,None,,338.8256814000006,338.8256814000006,338.8256814000006,338.8256814000006,338.8256814000006,338.8256814000006,338.8256814000006,338.8256814000006,338.8256814000006,338.8256814000006,007,P006,2025_Jan_25_1220,ConditionRich,2021.2.3,59.942515128048754,
304.0,307.75,1,0.75,Stimuli/P006/sun_adyhbxohydkpecty.jpg,1,0,0.75,0,130,130,130,,,,,,,,,,,,,304.0000469000006,4.690000059781596e-05,5,1.9794008999997459,339.0758880000003,339.0758880000003,339.0758880000003,339.0758880000003,339.0758880000003,339.0758880000003,339.0758880000003,339.8098670999998,339.0758880000003,339.0758880000003,007,P006,2025_Jan_25_1220,ConditionRich,2021.2.3,59.942515128048754,
307.75,308.0,41,0.0,Stimuli/Blank.png,0,0,0.0,0,131,131,131,,,,,,,,,,,,,307.75400160000027,0.004001600000265171,None,,342.8292038999998,342.8292038999998,342.8292038999998,342.8292038999998,342.8292038999998,342.8292038999998,342.8292038999998,342.8292038999998,342.8292038999998,342.8292038999998,007,P006,2025_Jan_25_1220,ConditionRich,2021.2.3,59.942515128048754,
308.0,311.75,25,0.75,Stimuli/P006/things_dog_03s.jpg,0,0,0.0,0,132,132,132,,,,,,,,,,,,,308.0037269000004,0.003726900000401656,5,1.975741499999458,343.07941630000005,343.07941630000005,343.07941630000005,343.07941630000005,343.07941630000005,343.07941630000005,343.07941630000005,343.07941630000005,343.07941630000005,343.07941630000005,007,P006,2025_Jan_25_1220,ConditionRich,2021.2.3,59.942515128048754,
311.75,312.0,41,0.0,Stimuli/Blank.png,0,0,0.0,0,133,133,133,,,,,,,,,,,,,311.75907050000023,0.00907050000023446,5,0.20595270000012533,346.84944090000045,346.84944090000045,346.84944090000045,346.84944090000045,346.84944090000045,346.84944090000045,346.84944090000045,346.84944090000045,346.84944090000045,346.84944090000045,007,P006,2025_Jan_25_1220,ConditionRich,2021.2.3,59.942515128048754,
312.0,315.75,36,0.75,Stimuli/P006/things_pony_03s.jpg,1,0,0.75,0,134,134,134,,,,,,,,,,,,,312.02490639999996,0.02490639999996347,5,1.9390784999995958,347.11633770000026,347.11633770000026,347.11633770000026,347.11633770000026,347.11633770000026,347.11633770000026,347.11633770000026,347.83363869999994,347.11633770000026,347.11633770000026,007,P006,2025_Jan_25_1220,ConditionRich,2021.2.3,59.942515128048754,
315.75,316.0,41,0.0,Stimuli/Blank.png,0,0,0.0,0,135,135,135,,,,,,,,,,,,,315.7782040000002,0.02820400000018708,None,,350.8529682999997,350.8529682999997,350.8529682999997,350.8529682999997,350.8529682999997,350.8529682999997,350.8529682999997,350.8529682999997,350.8529682999997,350.8529682999997,007,P006,2025_Jan_25_1220,ConditionRich,2021.2.3,59.942515128048754,
316.0,319.75,23,0.75,Stimuli/P006/things_beetle_03s.jpg,1,1,1.75,0,136,136,136,,,,,,,,,,,,,316.0106007000004,0.010600700000395591,5,1.9686711000003925,351.0864799000001,351.0864799000001,351.0864799000001,351.0864799000001,351.0864799000001,351.0864799000001,352.0706809000003,352.82138510000004,351.0864799000001,351.0864799000001,007,P006,2025_Jan_25_1220,ConditionRich,2021.2.3,59.942515128048754,
319.75,320.0,41,0.0,Stimuli/Blank.png,0,0,0.0,0,137,137,137,,,,,,,,,,,,,319.7647568000002,0.014756800000213843,5,0.21540120000008756,354.8398007000005,354.8398007000005,354.8398007000005,354.8398007000005,354.8398007000005,354.8398007000005,354.8398007000005,354.8398007000005,354.8398007000005,354.8398007000005,007,P006,2025_Jan_25_1220,ConditionRich,2021.2.3,59.942515128048754,
320.0,323.75,5,0.75,Stimuli/P006/sun_axaqdcecfojvpvrl.jpg,0,0,0.0,0,138,138,138,,,,,,,,,,,,,320.01456599999983,0.014565999999831547,5,1.9651044000002003,355.0900166000001,355.0900166000001,355.0900166000001,355.0900166000001,355.0900166000001,355.0900166000001,355.0900166000001,355.0900166000001,355.0900166000001,355.0900166000001,007,P006,2025_Jan_25_1220,ConditionRich,2021.2.3,59.942515128048754,
323.75,324.0,41,0.0,Stimuli/Blank.png,0,0,0.0,0,139,139,139,,,,,,,,,,,,,323.75059020000026,0.0005902000002606655,None,,358.82664730000033,358.82664730000033,358.82664730000033,358.82664730000033,358.82664730000033,358.82664730000033,358.82664730000033,358.82664730000033,358.82664730000033,358.82664730000033,007,P006,2025_Jan_25_1220,ConditionRich,2021.2.3,59.942515128048754,
324.0,327.75,11,0.75,Stimuli/P006/sun_bjoocjyyhsmsbprr.jpg,0,0,0.0,0,140,140,140,,,,,,,,,,,,,324.00075019999986,0.0007501999998567044,5,1.9783911999993506,359.0768734000003,359.0768734000003,359.0768734000003,359.0768734000003,359.0768734000003,359.0768734000003,359.0768734000003,359.0768734000003,359.0768734000003,359.0768734000003,007,P006,2025_Jan_25_1220,ConditionRich,2021.2.3,59.942515128048754,
327.75,328.0,41,0.0,Stimuli/Blank.png,0,0,0.0,0,141,141,141,,,,,,,,,,,,,327.7547149000002,0.004714900000180933,5,0.2083850999997594,362.84688259999984,362.84688259999984,362.84688259999984,362.84688259999984,362.84688259999984,362.84688259999984,362.84688259999984,362.84688259999984,362.84688259999984,362.84688259999984,007,P006,2025_Jan_25_1220,ConditionRich,2021.2.3,59.942515128048754,
328.0,331.75,34,0.75,Stimuli/P006/things_patty_03s.jpg,0,0,0.0,0,142,142,142,,,,,,,,,,,,,328.02143650000016,0.021436500000163505,5,1.9412842000001547,363.1137722000003,363.1137722000003,363.1137722000003,363.1137722000003,363.1137722000003,363.1137722000003,363.1137722000003,363.1137722000003,363.1137722000003,363.1137722000003,007,P006,2025_Jan_25_1220,ConditionRich,2021.2.3,59.942515128048754,
331.75,332.0,41,0.0,Stimuli/Blank.png,0,0,0.0,0,143,143,143,,,,,,,,,,,,,331.77504940000017,0.025049400000170863,5,0.18825829999968846,366.8671024000005,366.8671024000005,366.8671024000005,366.8671024000005,366.8671024000005,366.8671024000005,366.8671024000005,366.8671024000005,366.8671024000005,366.8671024000005,007,P006,2025_Jan_25_1220,ConditionRich,2021.2.3,59.942515128048754,
332.0,335.75,16,0.75,Stimuli/P006/sun_bwentnobehmvaxkp.jpg,0,0,0.0,0,144,144,144,,,,,,,,,,,,,332.02480860000014,0.024808600000142178,5,1.9544973000001846,367.10061589999987,367.10061589999987,367.10061589999987,367.10061589999987,367.10061589999987,367.10061589999987,367.10061589999987,367.10061589999987,367.10061589999987,367.10061589999987,007,P006,2025_Jan_25_1220,ConditionRich,2021.2.3,59.942515128048754,
335.75,336.0,41,0.0,Stimuli/Blank.png,0,0,0.0,0,145,145,145,,,,,,,,,,,,,335.76146659999995,0.011466599999948812,5,0.2178659000001062,370.8372481000006,370.8372481000006,370.8372481000006,370.8372481000006,370.8372481000006,370.8372481000006,370.8372481000006,370.8372481000006,370.8372481000006,370.8372481000006,007,P006,2025_Jan_25_1220,ConditionRich,2021.2.3,59.942515128048754,
336.0,339.75,7,0.75,Stimuli/P006/sun_bdmdlkpsznknrcqi.jpg,0,0,0.0,0,146,146,146,,,,,,,,,,,,,336.01178919999984,0.011789199999839184,5,1.9509361999998873,371.10415379999995,371.10415379999995,371.10415379999995,371.10415379999995,371.10415379999995,371.10415379999995,371.10415379999995,371.10415379999995,371.10415379999995,371.10415379999995,007,P006,2025_Jan_25_1220,ConditionRich,2021.2.3,59.942515128048754,
339.75,340.0,41,0.0,Stimuli/Blank.png,0,0,0.0,0,147,147,147,,,,,,,,,,,,,339.7816512999998,0.03165129999979399,5,0.19772670000020298,374.8574642000003,374.8574642000003,374.8574642000003,374.8574642000003,374.8574642000003,374.8574642000003,374.8574642000003,374.8574642000003,374.8574642000003,374.8574642000003,007,P006,2025_Jan_25_1220,ConditionRich,2021.2.3,59.942515128048754,
340.0,343.75,9,0.75,Stimuli/P006/sun_bfcmdrojsffdttzu.jpg,0,0,0.0,0,148,148,148,,,,,,,,,,,,,340.0151880000003,0.015188000000307511,5,1.964102200000525,375.0910034999997,375.0910034999997,375.0910034999997,375.0910034999997,375.0910034999997,375.0910034999997,375.0910034999997,375.0910034999997,375.0910034999997,375.0910034999997,007,P006,2025_Jan_25_1220,ConditionRich,2021.2.3,59.942515128048754,
343.75,344.0,41,0.0,Stimuli/Blank.png,0,0,0.0,0,149,149,149,,,,,,,,,,,,,343.7542731000003,0.004273100000318664,5,0.21091720000003988,378.84433140000056,378.84433140000056,378.84433140000056,378.84433140000056,378.84433140000056,378.84433140000056,378.84433140000056,378.84433140000056,378.84433140000056,378.84433140000056,007,P006,2025_Jan_25_1220,ConditionRich,2021.2.3,59.942515128048754,
344.0,347.75,2,0.75,Stimuli/P006/sun_ahmycohdkioefoxs.jpg,0,0,0.0,0,150,150,150,,,,,,,,,,,,,344.01973309999994,0.01973309999993944,5,1.9438666999994894,379.11123640000005,379.11123640000005,379.11123640000005,379.11123640000005,379.11123640000005,379.11123640000005,379.11123640000005,379.11123640000005,379.11123640000005,379.11123640000005,007,P006,2025_Jan_25_1220,ConditionRich,2021.2.3,59.942515128048754,
347.75,348.0,41,0.0,Stimuli/Blank.png,0,0,0.0,0,151,151,151,,,,,,,,,,,,,347.7739915000002,0.0239915000001929,5,0.19066209999982675,382.8645342,382.8645342,382.8645342,382.8645342,382.8645342,382.8645342,382.8645342,382.8645342,382.8645342,382.8645342,007,P006,2025_Jan_25_1220,ConditionRich,2021.2.3,59.942515128048754,
348.0,351.75,20,0.75,Stimuli/P006/sun_dvxuxzytfdbjyzit.jpg,0,0,0.0,0,152,152,152,,,,,,,,,,,,,348.02441610000005,0.02441610000005312,5,1.9404728999998042,383.1147511999998,383.1147511999998,383.1147511999998,383.1147511999998,383.1147511999998,383.1147511999998,383.1147511999998,383.1147511999998,383.1147511999998,383.1147511999998,007,P006,2025_Jan_25_1220,ConditionRich,2021.2.3,59.942515128048754,
351.75,352.0,41,0.0,Stimuli/Blank.png,0,0,0.0,0,153,153,153,,,,,,,,,,,,,351.77556300000015,0.02556300000014744,None,,386.85140240000055,386.85140240000055,386.85140240000055,386.85140240000055,386.85140240000055,386.85140240000055,386.85140240000055,386.85140240000055,386.85140240000055,386.85140240000055,007,P006,2025_Jan_25_1220,ConditionRich,2021.2.3,59.942515128048754,
352.0,355.75,12,0.75,Stimuli/P006/sun_bodyuiqwqpqzwfoz.jpg,0,0,0.0,0,154,154,154,,,,,,,,,,,,,352.00885540000036,0.008855400000356894,5,1.9702128999997512,387.0849339000006,387.0849339000006,387.0849339000006,387.0849339000006,387.0849339000006,387.0849339000006,387.0849339000006,387.0849339000006,387.0849339000006,387.0849339000006,007,P006,2025_Jan_25_1220,ConditionRich,2021.2.3,59.942515128048754,
355.75,356.0,41,0.0,Stimuli/Blank.png,0,0,0.0,0,155,155,155,,,,,,,,,,,,,355.76454660000036,0.014546600000358012,5,0.20030019999921933,390.85491850000017,390.85491850000017,390.85491850000017,390.85491850000017,390.85491850000017,390.85491850000017,390.85491850000017,390.85491850000017,390.85491850000017,390.85491850000017,007,P006,2025_Jan_25_1220,ConditionRich,2021.2.3,59.942515128048754,
356.0,359.75,29,0.75,Stimuli/P006/things_guillotine_03s.jpg,0,0,0.0,0,156,156,156,,,,,,,,,,,,,356.02972409999984,0.029724099999839382,5,1.9498819000000367,391.10513880000053,391.10513880000053,391.10513880000053,391.10513880000053,391.10513880000053,391.10513880000053,391.10513880000053,391.10513880000053,391.10513880000053,391.10513880000053,007,P006,2025_Jan_25_1220,ConditionRich,2021.2.3,59.942515128048754,
359.75,360.0,41,0.0,Stimuli/Blank.png,0,0,0.0,0,157,157,157,,,,,,,,,,,,,359.7495622000006,-0.0004377999994176207,None,,394.82507799999985,394.82507799999985,394.82507799999985,394.82507799999985,394.82507799999985,394.82507799999985,394.82507799999985,394.82507799999985,394.82507799999985,394.82507799999985,007,P006,2025_Jan_25_1220,ConditionRich,2021.2.3,59.942515128048754,
360.0,363.75,8,0.75,Stimuli/P006/sun_bekkgqphzbclwpvb.jpg,0,0,0.0,0,158,158,158,,,,,,,,,,,,,360.00045320000027,0.0004532000002654968,5,1.963096499999665,395.0919936999999,395.0919936999999,395.0919936999999,395.0919936999999,395.0919936999999,395.0919936999999,395.0919936999999,395.0919936999999,395.0919936999999,395.0919936999999,007,P006,2025_Jan_25_1220,ConditionRich,2021.2.3,59.942515128048754,
363.75,364.0,41,0.0,Stimuli/Blank.png,0,0,0.0,0,159,159,159,,,,,,,,,,,,,363.77032510000026,0.020325100000263774,5,0.1933380999998917,398.86199450000004,398.86199450000004,398.86199450000004,398.86199450000004,398.86199450000004,398.86199450000004,398.86199450000004,398.86199450000004,398.86199450000004,398.86199450000004,007,P006,2025_Jan_25_1220,ConditionRich,2021.2.3,59.942515128048754,
364.0,367.75,40,0.75,Stimuli/P006/things_woman_03s.jpg,0,0,0.0,0,160,160,160,,,,,,,,,,,,,364.02035109999997,0.020351099999970756,5,1.959507599999597,399.0955396999998,399.0955396999998,399.0955396999998,399.0955396999998,399.0955396999998,399.0955396999998,399.0955396999998,399.0955396999998,399.0955396999998,399.0955396999998,007,P006,2025_Jan_25_1220,ConditionRich,2021.2.3,59.942515128048754,
367.75,368.0,41,0.0,Stimuli/Blank.png,0,0,0.0,0,161,161,161,,,,,,,,,,,,,367.7568897000001,0.006889700000101584,None,,402.8321570999997,402.8321570999997,402.8321570999997,402.8321570999997,402.8321570999997,402.8321570999997,402.8321570999997,402.8321570999997,402.8321570999997,402.8321570999997,007,P006,2025_Jan_25_1220,ConditionRich,2021.2.3,59.942515128048754,
368.0,371.75,30,0.75,Stimuli/P006/things_hood_03s.jpg,1,3,3.75,0,162,162,162,,,,,,,,,,,,,368.0064149,0.0064148999999815715,1,3.504024599999866,403.09906300000057,403.09906300000057,403.09906300000057,403.09906300000057,403.09906300000057,403.09906300000057,406.0683587000003,406.8190009,403.09906300000057,403.09906300000057,007,P006,2025_Jan_25_1220,ConditionRich,2021.2.3,59.942515128048754,
371.75,372.0,41,0.0,Stimuli/Blank.png,0,0,0.0,0,163,163,163,,,,,,,,,,,,,371.7762481,0.02624809999997524,None,,406.8523659000002,406.8523659000002,406.8523659000002,406.8523659000002,406.8523659000002,406.8523659000002,406.8523659000002,406.8523659000002,406.8523659000002,406.8523659000002,007,P006,2025_Jan_25_1220,ConditionRich,2021.2.3,59.942515128048754,
372.0,388.0,0,0.0,Stimuli/Blank.png,1,3,3.75,0,164,164,164,,,,,,,,,,,,,372.0100243000006,0.010024300000623043,5,13.969066099999509,407.0859124999997,407.0859124999997,407.0859124999997,407.0859124999997,407.0859124999997,407.0859124999997,410.07191109999985,410.8225828000004,407.0859124999997,407.0859124999997,007,P006,2025_Jan_25_1220,ConditionRich,2021.2.3,59.942515128048754,
