eventStartTime,eventEndTime,eventCond,imSize,imFile,responseEvent,fixRespStart,fixRespEnd,Events.thisRepN,Events.thisTrialN,Events.thisN,Events.thisIndex,Instructions.started,Instructions.stopped,participantReadyResponse.keys,participantReadyResponse.rt,participantReadyResponse.started,participantReadyResponse.stopped,startWaitforTrigger,triggerResponse.keys,triggerResponse.rt,triggerResponse.started,triggerResponse.stopped,globalTimer,actualStartTime,startTimingDiff,participantResponse.keys,participantResponse.rt,participantResponse.started,participantResponse.stopped,image.started,image.stopped,fixationOutside.started,fixationOutside.stopped,fixationResponse.started,fixationResponse.stopped,fixationInside.started,fixationInside.stopped,session,participant,date,expName,psychopyVersion,frameRate,
,,,,,,,,,,,,10.479331300000013,None,1,7.273373500000162,10.479331300000013,None,,,,,,,,,,,,,,,,,,,,,002,P006,2025_Jan_25_1132,ConditionRich,2021.2.3,59.942766646416935,
,,,,,,,,,,,,,,,,,,17.75751749999972,5,13.5667598,17.77073939999991,None,,,,,,,,,,,,,,,,002,P006,2025_Jan_25_1132,ConditionRich,2021.2.3,59.942766646416935,
0.0,4.0,0,0.0,Stimuli/Blank.png,0,0,0.0,0,0,0,0,,,,,,,,,,,,31.35286929999984,0.048448800000187475,0.048448800000187475,5,3.9215297000000646,31.416071799999827,None,31.416071799999827,None,31.416071799999827,None,31.416071799999827,31.416071799999827,31.416071799999827,None,002,P006,2025_Jan_25_1132,ConditionRich,2021.2.3,59.942766646416935,
4.0,4.75,37,0.75,Stimuli/P006/things_showerhead_03s.jpg,0,0,0.0,0,1,1,1,,,,,,,,,,,,,4.004034500000216,0.004034500000216212,None,,35.37006759999986,35.37006759999986,35.37006759999986,35.37006759999986,35.37006759999986,35.37006759999986,35.37006759999986,35.37006759999986,35.37006759999986,35.37006759999986,002,P006,2025_Jan_25_1132,ConditionRich,2021.2.3,59.942766646416935,
4.75,5.0,41,0.0,Stimuli/Blank.png,0,0,0.0,0,2,2,2,,,,,,,,,,,,,4.752746200000274,0.002746200000274257,None,,36.120463299999756,36.120463299999756,36.120463299999756,36.120463299999756,36.120463299999756,36.120463299999756,36.120463299999756,36.120463299999756,36.120463299999756,36.120463299999756,002,P006,2025_Jan_25_1132,ConditionRich,2021.2.3,59.942766646416935,
5.0,5.75,37,0.75,Stimuli/P006/things_showerhead_03s.jpg,0,0,0.0,0,3,3,3,,,,,,,,,,,,,5.004558600000109,0.004558600000109436,None,,36.37046659999987,36.37046659999987,36.37046659999987,36.37046659999987,36.37046659999987,36.37046659999987,36.37046659999987,36.37046659999987,36.37046659999987,36.37046659999987,002,P006,2025_Jan_25_1132,ConditionRich,2021.2.3,59.942766646416935,
5.75,6.0,41,0.0,Stimuli/Blank.png,0,0,0.0,0,4,4,4,,,,,,,,,,,,,5.7565810000000965,0.006581000000096537,5,0.1997551000004023,37.137814199999866,37.137814199999866,37.137814199999866,37.137814199999866,37.137814199999866,37.137814199999866,37.137814199999866,37.137814199999866,37.137814199999866,37.137814199999866,002,P006,2025_Jan_25_1132,ConditionRich,2021.2.3,59.942766646416935,
6.0,6.75,37,0.75,Stimuli/P006/things_showerhead_03s.jpg,0,0,0.0,0,5,5,5,,,,,,,,,,,,,6.020868699999937,0.020868699999937235,None,,37.38801459999968,37.38801459999968,37.38801459999968,37.38801459999968,37.38801459999968,37.38801459999968,37.38801459999968,37.38801459999968,37.38801459999968,37.38801459999968,002,P006,2025_Jan_25_1132,ConditionRich,2021.2.3,59.942766646416935,
6.75,7.0,41,0.0,Stimuli/Blank.png,0,0,0.0,0,6,6,6,,,,,,,,,,,,,6.754848699999911,0.004848699999911332,None,,38.12213729999985,38.12213729999985,38.12213729999985,38.12213729999985,38.12213729999985,38.12213729999985,38.12213729999985,38.12213729999985,38.12213729999985,38.12213729999985,002,P006,2025_Jan_25_1132,ConditionRich,2021.2.3,59.942766646416935,
7.0,7.75,37,0.75,Stimuli/P006/things_showerhead_03s.jpg,0,0,0.0,0,7,7,7,,,,,,,,,,,,,7.005762700000105,0.0057627000001048145,None,,38.372365700000046,38.372365700000046,38.372365700000046,38.372365700000046,38.372365700000046,38.372365700000046,38.372365700000046,38.372365700000046,38.372365700000046,38.372365700000046,002,P006,2025_Jan_25_1132,ConditionRich,2021.2.3,59.942766646416935,
7.75,8.0,41,0.0,Stimuli/Blank.png,0,0,0.0,0,8,8,8,,,,,,,,,,,,,7.756733600000189,0.006733600000188744,5,0.2146241000000373,39.12303499999962,39.12303499999962,39.12303499999962,39.12303499999962,39.12303499999962,39.12303499999962,39.12303499999962,39.12303499999962,39.12303499999962,39.12303499999962,002,P006,2025_Jan_25_1132,ConditionRich,2021.2.3,59.942766646416935,
8.0,8.75,27,0.75,Stimuli/P006/things_first-aid_kit_03s.jpg,0,0,0.0,0,9,9,9,,,,,,,,,,,,,8.007098300000052,0.007098300000052404,None,,39.37323319999996,39.37323319999996,39.37323319999996,39.37323319999996,39.37323319999996,39.37323319999996,39.37323319999996,39.37323319999996,39.37323319999996,39.37323319999996,002,P006,2025_Jan_25_1132,ConditionRich,2021.2.3,59.942766646416935,
8.75,9.0,41,0.0,Stimuli/Blank.png,0,0,0.0,0,10,10,10,,,,,,,,,,,,,8.757061700000122,0.007061700000122073,None,,40.12389600000006,40.12389600000006,40.12389600000006,40.12389600000006,40.12389600000006,40.12389600000006,40.12389600000006,40.12389600000006,40.12389600000006,40.12389600000006,002,P006,2025_Jan_25_1132,ConditionRich,2021.2.3,59.942766646416935,
9.0,9.75,27,0.75,Stimuli/P006/things_first-aid_kit_03s.jpg,0,0,0.0,0,11,11,11,,,,,,,,,,,,,9.006752600000254,0.006752600000254461,None,,40.37410959999988,40.37410959999988,40.37410959999988,40.37410959999988,40.37410959999988,40.37410959999988,40.37410959999988,40.37410959999988,40.37410959999988,40.37410959999988,002,P006,2025_Jan_25_1132,ConditionRich,2021.2.3,59.942766646416935,
9.75,10.0,41,0.0,Stimuli/Blank.png,0,0,0.0,0,12,12,12,,,,,,,,,,,,,9.75775160000012,0.007751600000119652,5,0.21281920000001264,41.12481409999964,41.12481409999964,41.12481409999964,41.12481409999964,41.12481409999964,41.12481409999964,41.12481409999964,41.12481409999964,41.12481409999964,41.12481409999964,002,P006,2025_Jan_25_1132,ConditionRich,2021.2.3,59.942766646416935,
10.0,10.75,27,0.75,Stimuli/P006/things_first-aid_kit_03s.jpg,0,0,0.0,0,13,13,13,,,,,,,,,,,,,10.008036600000196,0.008036600000195904,None,,41.37503289999995,41.37503289999995,41.37503289999995,41.37503289999995,41.37503289999995,41.37503289999995,41.37503289999995,41.37503289999995,41.37503289999995,41.37503289999995,002,P006,2025_Jan_25_1132,ConditionRich,2021.2.3,59.942766646416935,
10.75,11.0,41,0.0,Stimuli/Blank.png,0,0,0.0,0,14,14,14,,,,,,,,,,,,,10.758882300000096,0.00888230000009571,None,,42.12569719999965,42.12569719999965,42.12569719999965,42.12569719999965,42.12569719999965,42.12569719999965,42.12569719999965,42.12569719999965,42.12569719999965,42.12569719999965,002,P006,2025_Jan_25_1132,ConditionRich,2021.2.3,59.942766646416935,
11.0,11.75,27,0.75,Stimuli/P006/things_first-aid_kit_03s.jpg,1,0,0.75,0,15,15,15,,,,,,,,,,,,,11.011242200000197,0.011242200000197045,1,0.5691796000000977,42.3926234999999,42.3926234999999,42.3926234999999,42.3926234999999,42.3926234999999,42.3926234999999,42.3926234999999,43.12660249999999,42.3926234999999,42.3926234999999,002,P006,2025_Jan_25_1132,ConditionRich,2021.2.3,59.942766646416935,
11.75,12.0,41,0.0,Stimuli/Blank.png,0,0,0.0,0,16,16,16,,,,,,,,,,,,,11.776850400000058,0.02685040000005756,5,0.19428999999990992,43.14326579999988,43.14326579999988,43.14326579999988,43.14326579999988,43.14326579999988,43.14326579999988,43.14326579999988,43.14326579999988,43.14326579999988,43.14326579999988,002,P006,2025_Jan_25_1132,ConditionRich,2021.2.3,59.942766646416935,
12.0,12.75,24,0.75,Stimuli/P006/things_crab_03s.jpg,0,0,0.0,0,17,17,17,,,,,,,,,,,,,12.009671700000126,0.009671700000126293,None,,43.39356389999966,43.39356389999966,43.39356389999966,43.39356389999966,43.39356389999966,43.39356389999966,43.39356389999966,43.39356389999966,43.39356389999966,43.39356389999966,002,P006,2025_Jan_25_1132,ConditionRich,2021.2.3,59.942766646416935,
12.75,13.0,41,0.0,Stimuli/Blank.png,0,0,0.0,0,18,18,18,,,,,,,,,,,,,12.777515300000232,0.027515300000231946,None,,44.14423289999968,44.14423289999968,44.14423289999968,44.14423289999968,44.14423289999968,44.14423289999968,44.14423289999968,44.14423289999968,44.14423289999968,44.14423289999968,002,P006,2025_Jan_25_1132,ConditionRich,2021.2.3,59.942766646416935,
13.0,13.75,24,0.75,Stimuli/P006/things_crab_03s.jpg,0,0,0.0,0,19,19,19,,,,,,,,,,,,,13.010924100000011,0.010924100000011094,None,,44.377764899999875,44.377764899999875,44.377764899999875,44.377764899999875,44.377764899999875,44.377764899999875,44.377764899999875,44.377764899999875,44.377764899999875,44.377764899999875,002,P006,2025_Jan_25_1132,ConditionRich,2021.2.3,59.942766646416935,
13.75,14.0,41,0.0,Stimuli/Blank.png,0,0,0.0,0,20,20,20,,,,,,,,,,,,,13.761093699999947,0.011093699999946693,5,0.20946020000019416,45.12842929999988,45.12842929999988,45.12842929999988,45.12842929999988,45.12842929999988,45.12842929999988,45.12842929999988,45.12842929999988,45.12842929999988,45.12842929999988,002,P006,2025_Jan_25_1132,ConditionRich,2021.2.3,59.942766646416935,
14.0,14.75,24,0.75,Stimuli/P006/things_crab_03s.jpg,0,0,0.0,0,21,21,21,,,,,,,,,,,,,14.011832900000172,0.01183290000017223,None,,45.37864959999979,45.37864959999979,45.37864959999979,45.37864959999979,45.37864959999979,45.37864959999979,45.37864959999979,45.37864959999979,45.37864959999979,45.37864959999979,002,P006,2025_Jan_25_1132,ConditionRich,2021.2.3,59.942766646416935,
14.75,15.0,41,0.0,Stimuli/Blank.png,0,0,0.0,0,22,22,22,,,,,,,,,,,,,14.76231880000023,0.012318800000230112,None,,46.12931209999988,46.12931209999988,46.12931209999988,46.12931209999988,46.12931209999988,46.12931209999988,46.12931209999988,46.12931209999988,46.12931209999988,46.12931209999988,002,P006,2025_Jan_25_1132,ConditionRich,2021.2.3,59.942766646416935,
15.0,15.75,24,0.75,Stimuli/P006/things_crab_03s.jpg,0,0,0.0,0,23,23,23,,,,,,,,,,,,,15.01265790000025,0.012657900000249356,None,,46.379531600000064,46.379531600000064,46.379531600000064,46.379531600000064,46.379531600000064,46.379531600000064,46.379531600000064,46.379531600000064,46.379531600000064,46.379531600000064,002,P006,2025_Jan_25_1132,ConditionRich,2021.2.3,59.942766646416935,
15.75,16.0,41,0.0,Stimuli/Blank.png,0,0,0.0,0,24,24,24,,,,,,,,,,,,,15.763249000000087,0.013249000000087108,5,0.20774269999992612,47.130193399999825,47.130193399999825,47.130193399999825,47.130193399999825,47.130193399999825,47.130193399999825,47.130193399999825,47.130193399999825,47.130193399999825,47.130193399999825,002,P006,2025_Jan_25_1132,ConditionRich,2021.2.3,59.942766646416935,
16.0,16.75,1,0.75,Stimuli/P006/sun_adyhbxohydkpecty.jpg,0,0,0.0,0,25,25,25,,,,,,,,,,,,,16.013451700000132,0.013451700000132405,None,,47.38041529999964,47.38041529999964,47.38041529999964,47.38041529999964,47.38041529999964,47.38041529999964,47.38041529999964,47.38041529999964,47.38041529999964,47.38041529999964,002,P006,2025_Jan_25_1132,ConditionRich,2021.2.3,59.942766646416935,
16.75,17.0,41,0.0,Stimuli/Blank.png,0,0,0.0,0,26,26,26,,,,,,,,,,,,,16.76428480000004,0.014284800000041287,None,,48.13108439999996,48.13108439999996,48.13108439999996,48.13108439999996,48.13108439999996,48.13108439999996,48.13108439999996,48.13108439999996,48.13108439999996,48.13108439999996,002,P006,2025_Jan_25_1132,ConditionRich,2021.2.3,59.942766646416935,
17.0,17.75,1,0.75,Stimuli/P006/sun_adyhbxohydkpecty.jpg,0,0,0.0,0,27,27,27,,,,,,,,,,,,,17.014572300000054,0.014572300000054383,None,,48.39797929999986,48.39797929999986,48.39797929999986,48.39797929999986,48.39797929999986,48.39797929999986,48.39797929999986,48.39797929999986,48.39797929999986,48.39797929999986,002,P006,2025_Jan_25_1132,ConditionRich,2021.2.3,59.942766646416935,
17.75,18.0,41,0.0,Stimuli/Blank.png,0,0,0.0,0,28,28,28,,,,,,,,,,,,,17.782058199999938,0.03205819999993764,5,0.189086700000189,49.14864129999978,49.14864129999978,49.14864129999978,49.14864129999978,49.14864129999978,49.14864129999978,49.14864129999978,49.14864129999978,49.14864129999978,49.14864129999978,002,P006,2025_Jan_25_1132,ConditionRich,2021.2.3,59.942766646416935,
18.0,18.75,1,0.75,Stimuli/P006/sun_adyhbxohydkpecty.jpg,0,0,0.0,0,29,29,29,,,,,,,,,,,,,18.015286800000013,0.01528680000001259,None,,49.38218710000001,49.38218710000001,49.38218710000001,49.38218710000001,49.38218710000001,49.38218710000001,49.38218710000001,49.38218710000001,49.38218710000001,49.38218710000001,002,P006,2025_Jan_25_1132,ConditionRich,2021.2.3,59.942766646416935,
18.75,19.0,41,0.0,Stimuli/Blank.png,0,0,0.0,0,30,30,30,,,,,,,,,,,,,18.751464899999974,0.001464899999973568,None,,50.132855500000005,50.132855500000005,50.132855500000005,50.132855500000005,50.132855500000005,50.132855500000005,50.132855500000005,50.132855500000005,50.132855500000005,50.132855500000005,002,P006,2025_Jan_25_1132,ConditionRich,2021.2.3,59.942766646416935,
19.0,19.75,1,0.75,Stimuli/P006/sun_adyhbxohydkpecty.jpg,0,0,0.0,0,31,31,31,,,,,,,,,,,,,19.01705149999998,0.01705149999997957,None,,50.399782799999684,50.399782799999684,50.399782799999684,50.399782799999684,50.399782799999684,50.399782799999684,50.399782799999684,50.399782799999684,50.399782799999684,50.399782799999684,002,P006,2025_Jan_25_1132,ConditionRich,2021.2.3,59.942766646416935,
19.75,20.0,41,0.0,Stimuli/Blank.png,0,0,0.0,0,32,32,32,,,,,,,,,,,,,19.767059100000097,0.017059100000096805,None,,51.13373839999986,51.13373839999986,51.13373839999986,51.13373839999986,51.13373839999986,51.13373839999986,51.13373839999986,51.13373839999986,51.13373839999986,51.13373839999986,002,P006,2025_Jan_25_1132,ConditionRich,2021.2.3,59.942766646416935,
20.0,20.75,18,0.75,Stimuli/P006/sun_bzqhpcsgzswozfhs.jpg,0,0,0.0,0,33,33,33,,,,,,,,,,,,,20.00019390000034,0.00019390000034036348,None,,51.36730299999999,51.36730299999999,51.36730299999999,51.36730299999999,51.36730299999999,51.36730299999999,51.36730299999999,51.36730299999999,51.36730299999999,51.36730299999999,002,P006,2025_Jan_25_1132,ConditionRich,2021.2.3,59.942766646416935,
20.75,21.0,41,0.0,Stimuli/Blank.png,0,0,0.0,0,34,34,34,,,,,,,,,,,,,20.751564800000324,0.0015648000003238849,None,,52.117946200000006,52.117946200000006,52.117946200000006,52.117946200000006,52.117946200000006,52.117946200000006,52.117946200000006,52.117946200000006,52.117946200000006,52.117946200000006,002,P006,2025_Jan_25_1132,ConditionRich,2021.2.3,59.942766646416935,
21.0,21.75,18,0.75,Stimuli/P006/sun_bzqhpcsgzswozfhs.jpg,0,0,0.0,0,35,35,35,,,,,,,,,,,,,21.001858099999936,0.0018580999999358028,None,,52.384856599999694,52.384856599999694,52.384856599999694,52.384856599999694,52.384856599999694,52.384856599999694,52.384856599999694,52.384856599999694,52.384856599999694,52.384856599999694,002,P006,2025_Jan_25_1132,ConditionRich,2021.2.3,59.942766646416935,
21.75,22.0,41,0.0,Stimuli/Blank.png,0,0,0.0,0,36,36,36,,,,,,,,,,,,,21.768613500000356,0.018613500000355998,None,,53.13549739999962,53.13549739999962,53.13549739999962,53.13549739999962,53.13549739999962,53.13549739999962,53.13549739999962,53.13549739999962,53.13549739999962,53.13549739999962,002,P006,2025_Jan_25_1132,ConditionRich,2021.2.3,59.942766646416935,
22.0,22.75,18,0.75,Stimuli/P006/sun_bzqhpcsgzswozfhs.jpg,0,0,0.0,0,37,37,37,,,,,,,,,,,,,22.00231759999997,0.0023175999999693886,None,,53.36903919999986,53.36903919999986,53.36903919999986,53.36903919999986,53.36903919999986,53.36903919999986,53.36903919999986,53.36903919999986,53.36903919999986,53.36903919999986,002,P006,2025_Jan_25_1132,ConditionRich,2021.2.3,59.942766646416935,
22.75,23.0,41,0.0,Stimuli/Blank.png,0,0,0.0,0,38,38,38,,,,,,,,,,,,,22.752446200000122,0.0024462000001221895,None,,54.11970399999973,54.11970399999973,54.11970399999973,54.11970399999973,54.11970399999973,54.11970399999973,54.11970399999973,54.11970399999973,54.11970399999973,54.11970399999973,002,P006,2025_Jan_25_1132,ConditionRich,2021.2.3,59.942766646416935,
23.0,23.75,18,0.75,Stimuli/P006/sun_bzqhpcsgzswozfhs.jpg,0,0,0.0,0,39,39,39,,,,,,,,,,,,,23.002629399999933,0.0026293999999325024,None,,54.369936099999904,54.369936099999904,54.369936099999904,54.369936099999904,54.369936099999904,54.369936099999904,54.369936099999904,54.369936099999904,54.369936099999904,54.369936099999904,002,P006,2025_Jan_25_1132,ConditionRich,2021.2.3,59.942766646416935,
23.75,24.0,41,0.0,Stimuli/Blank.png,0,0,0.0,0,40,40,40,,,,,,,,,,,,,23.753649000000223,0.003649000000223168,5,0.21713139999974373,55.120585299999675,55.120585299999675,55.120585299999675,55.120585299999675,55.120585299999675,55.120585299999675,55.120585299999675,55.120585299999675,55.120585299999675,55.120585299999675,002,P006,2025_Jan_25_1132,ConditionRich,2021.2.3,59.942766646416935,
24.0,24.75,34,0.75,Stimuli/P006/things_patty_03s.jpg,0,0,0.0,0,41,41,41,,,,,,,,,,,,,24.004581700000017,0.004581700000017008,None,,55.387485999999626,55.387485999999626,55.387485999999626,55.387485999999626,55.387485999999626,55.387485999999626,55.387485999999626,55.387485999999626,55.387485999999626,55.387485999999626,002,P006,2025_Jan_25_1132,ConditionRich,2021.2.3,59.942766646416935,
24.75,25.0,41,0.0,Stimuli/Blank.png,0,0,0.0,0,42,42,42,,,,,,,,,,,,,24.771129900000233,0.021129900000232738,None,,56.1381523,56.1381523,56.1381523,56.1381523,56.1381523,56.1381523,56.1381523,56.1381523,56.1381523,56.1381523,002,P006,2025_Jan_25_1132,ConditionRich,2021.2.3,59.942766646416935,
25.0,25.75,34,0.75,Stimuli/P006/things_patty_03s.jpg,0,0,0.0,0,43,43,43,,,,,,,,,,,,,25.005826999999954,0.005826999999953841,None,,56.38848949999965,56.38848949999965,56.38848949999965,56.38848949999965,56.38848949999965,56.38848949999965,56.38848949999965,56.38848949999965,56.38848949999965,56.38848949999965,002,P006,2025_Jan_25_1132,ConditionRich,2021.2.3,59.942766646416935,
25.75,26.0,41,0.0,Stimuli/Blank.png,0,0,0.0,0,44,44,44,,,,,,,,,,,,,25.772313700000268,0.022313700000268,5,0.1985778000002938,57.139036600000054,57.139036600000054,57.139036600000054,57.139036600000054,57.139036600000054,57.139036600000054,57.139036600000054,57.139036600000054,57.139036600000054,57.139036600000054,002,P006,2025_Jan_25_1132,ConditionRich,2021.2.3,59.942766646416935,
26.0,26.75,34,0.75,Stimuli/P006/things_patty_03s.jpg,0,0,0.0,0,45,45,45,,,,,,,,,,,,,26.005534500000067,0.005534500000067055,None,,57.37257049999971,57.37257049999971,57.37257049999971,57.37257049999971,57.37257049999971,57.37257049999971,57.37257049999971,57.37257049999971,57.37257049999971,57.37257049999971,002,P006,2025_Jan_25_1132,ConditionRich,2021.2.3,59.942766646416935,
26.75,27.0,41,0.0,Stimuli/Blank.png,0,0,0.0,0,46,46,46,,,,,,,,,,,,,26.75602690000005,0.006026900000051683,None,,58.12324189999981,58.12324189999981,58.12324189999981,58.12324189999981,58.12324189999981,58.12324189999981,58.12324189999981,58.12324189999981,58.12324189999981,58.12324189999981,002,P006,2025_Jan_25_1132,ConditionRich,2021.2.3,59.942766646416935,
27.0,27.75,34,0.75,Stimuli/P006/things_patty_03s.jpg,0,0,0.0,0,47,47,47,,,,,,,,,,,,,27.00622730000032,0.006227300000318792,None,,58.37345979999964,58.37345979999964,58.37345979999964,58.37345979999964,58.37345979999964,58.37345979999964,58.37345979999964,58.37345979999964,58.37345979999964,58.37345979999964,002,P006,2025_Jan_25_1132,ConditionRich,2021.2.3,59.942766646416935,
27.75,28.0,41,0.0,Stimuli/Blank.png,0,0,0.0,0,48,48,48,,,,,,,,,,,,,27.757345800000166,0.007345800000166491,5,0.21340090000012424,59.124127000000044,59.124127000000044,59.124127000000044,59.124127000000044,59.124127000000044,59.124127000000044,59.124127000000044,59.124127000000044,59.124127000000044,59.124127000000044,002,P006,2025_Jan_25_1132,ConditionRich,2021.2.3,59.942766646416935,
28.0,28.75,12,0.75,Stimuli/P006/sun_bodyuiqwqpqzwfoz.jpg,0,0,0.0,0,49,49,49,,,,,,,,,,,,,28.007628000000295,0.0076280000002952875,None,,59.37434269999994,59.37434269999994,59.37434269999994,59.37434269999994,59.37434269999994,59.37434269999994,59.37434269999994,59.37434269999994,59.37434269999994,59.37434269999994,002,P006,2025_Jan_25_1132,ConditionRich,2021.2.3,59.942766646416935,
28.75,29.0,41,0.0,Stimuli/Blank.png,0,0,0.0,0,50,50,50,,,,,,,,,,,,,28.75753900000018,0.00753900000017893,None,,60.125004999999874,60.125004999999874,60.125004999999874,60.125004999999874,60.125004999999874,60.125004999999874,60.125004999999874,60.125004999999874,60.125004999999874,60.125004999999874,002,P006,2025_Jan_25_1132,ConditionRich,2021.2.3,59.942766646416935,
29.0,29.75,12,0.75,Stimuli/P006/sun_bodyuiqwqpqzwfoz.jpg,0,0,0.0,0,51,51,51,,,,,,,,,,,,,29.007881800000177,0.007881800000177464,None,,60.37522379999973,60.37522379999973,60.37522379999973,60.37522379999973,60.37522379999973,60.37522379999973,60.37522379999973,60.37522379999973,60.37522379999973,60.37522379999973,002,P006,2025_Jan_25_1132,ConditionRich,2021.2.3,59.942766646416935,
29.75,30.0,41,0.0,Stimuli/Blank.png,0,0,0.0,0,52,52,52,,,,,,,,,,,,,29.758862300000146,0.008862300000146206,5,0.2116996000004292,61.12588779999987,61.12588779999987,61.12588779999987,61.12588779999987,61.12588779999987,61.12588779999987,61.12588779999987,61.12588779999987,61.12588779999987,61.12588779999987,002,P006,2025_Jan_25_1132,ConditionRich,2021.2.3,59.942766646416935,
30.0,30.75,12,0.75,Stimuli/P006/sun_bodyuiqwqpqzwfoz.jpg,0,0,0.0,0,53,53,53,,,,,,,,,,,,,30.00979260000031,0.009792600000309903,None,,61.39278599999989,61.39278599999989,61.39278599999989,61.39278599999989,61.39278599999989,61.39278599999989,61.39278599999989,61.39278599999989,61.39278599999989,61.39278599999989,002,P006,2025_Jan_25_1132,ConditionRich,2021.2.3,59.942766646416935,
30.75,31.0,41,0.0,Stimuli/Blank.png,0,0,0.0,0,54,54,54,,,,,,,,,,,,,30.77614840000024,0.026148400000238325,None,,62.14345659999981,62.14345659999981,62.14345659999981,62.14345659999981,62.14345659999981,62.14345659999981,62.14345659999981,62.14345659999981,62.14345659999981,62.14345659999981,002,P006,2025_Jan_25_1132,ConditionRich,2021.2.3,59.942766646416935,
31.0,31.75,12,0.75,Stimuli/P006/sun_bodyuiqwqpqzwfoz.jpg,1,0,0.75,0,55,55,55,,,,,,,,,,,,,31.012545000000046,0.012545000000045547,1,0.44409159999986514,62.39368349999995,62.39368349999995,62.39368349999995,62.39368349999995,62.39368349999995,62.39368349999995,62.39368349999995,63.127659199999925,62.39368349999995,62.39368349999995,002,P006,2025_Jan_25_1132,ConditionRich,2021.2.3,59.942766646416935,
31.75,32.0,41,0.0,Stimuli/Blank.png,0,0,0.0,0,56,56,56,,,,,,,,,,,,,31.777619400000276,0.027619400000276073,5,0.19348019999961252,63.14433979999967,63.14433979999967,63.14433979999967,63.14433979999967,63.14433979999967,63.14433979999967,63.14433979999967,63.14433979999967,63.14433979999967,63.14433979999967,002,P006,2025_Jan_25_1132,ConditionRich,2021.2.3,59.942766646416935,
32.0,32.75,5,0.75,Stimuli/P006/sun_axaqdcecfojvpvrl.jpg,0,0,0.0,0,57,57,57,,,,,,,,,,,,,32.01093230000015,0.010932300000149553,None,,63.37788169999976,63.37788169999976,63.37788169999976,63.37788169999976,63.37788169999976,63.37788169999976,63.37788169999976,63.37788169999976,63.37788169999976,63.37788169999976,002,P006,2025_Jan_25_1132,ConditionRich,2021.2.3,59.942766646416935,
32.75,33.0,41,0.0,Stimuli/Blank.png,0,0,0.0,0,58,58,58,,,,,,,,,,,,,32.76251360000015,0.012513600000147562,None,,64.12854149999976,64.12854149999976,64.12854149999976,64.12854149999976,64.12854149999976,64.12854149999976,64.12854149999976,64.12854149999976,64.12854149999976,64.12854149999976,002,P006,2025_Jan_25_1132,ConditionRich,2021.2.3,59.942766646416935,
33.0,33.75,5,0.75,Stimuli/P006/sun_axaqdcecfojvpvrl.jpg,0,0,0.0,0,59,59,59,,,,,,,,,,,,,33.01184719999992,0.011847199999920122,None,,64.39546389999987,64.39546389999987,64.39546389999987,64.39546389999987,64.39546389999987,64.39546389999987,64.39546389999987,64.39546389999987,64.39546389999987,64.39546389999987,002,P006,2025_Jan_25_1132,ConditionRich,2021.2.3,59.942766646416935,
33.75,34.0,41,0.0,Stimuli/Blank.png,0,0,0.0,0,60,60,60,,,,,,,,,,,,,33.781186400000024,0.03118640000002415,5,0.1747193999999581,65.16278949999969,65.16278949999969,65.16278949999969,65.16278949999969,65.16278949999969,65.16278949999969,65.16278949999969,65.16278949999969,65.16278949999969,65.16278949999969,002,P006,2025_Jan_25_1132,ConditionRich,2021.2.3,59.942766646416935,
34.0,34.75,5,0.75,Stimuli/P006/sun_axaqdcecfojvpvrl.jpg,0,0,0.0,0,61,61,61,,,,,,,,,,,,,34.03168800000003,0.031688000000031025,None,,65.41301229999999,65.41301229999999,65.41301229999999,65.41301229999999,65.41301229999999,65.41301229999999,65.41301229999999,65.41301229999999,65.41301229999999,65.41301229999999,002,P006,2025_Jan_25_1132,ConditionRich,2021.2.3,59.942766646416935,
34.75,35.0,41,0.0,Stimuli/Blank.png,0,0,0.0,0,62,62,62,,,,,,,,,,,,,34.763386999999966,0.013386999999966065,None,,66.130314,66.130314,66.130314,66.130314,66.130314,66.130314,66.130314,66.130314,66.130314,66.130314,002,P006,2025_Jan_25_1132,ConditionRich,2021.2.3,59.942766646416935,
35.0,35.75,5,0.75,Stimuli/P006/sun_axaqdcecfojvpvrl.jpg,0,0,0.0,0,63,63,63,,,,,,,,,,,,,35.01371620000009,0.013716200000089884,None,,66.39722289999963,66.39722289999963,66.39722289999963,66.39722289999963,66.39722289999963,66.39722289999963,66.39722289999963,66.39722289999963,66.39722289999963,66.39722289999963,002,P006,2025_Jan_25_1132,ConditionRich,2021.2.3,59.942766646416935,
35.75,36.0,41,0.0,Stimuli/Blank.png,0,0,0.0,0,64,64,64,,,,,,,,,,,,,35.780573300000015,0.03057330000001457,5,0.1896983999999975,67.14787139999999,67.14787139999999,67.14787139999999,67.14787139999999,67.14787139999999,67.14787139999999,67.14787139999999,67.14787139999999,67.14787139999999,67.14787139999999,002,P006,2025_Jan_25_1132,ConditionRich,2021.2.3,59.942766646416935,
36.0,36.75,19,0.75,Stimuli/P006/sun_czspalxthlkjwoat.jpg,0,0,0.0,0,65,65,65,,,,,,,,,,,,,36.01421600000003,0.014216000000033091,None,,67.38141580000001,67.38141580000001,67.38141580000001,67.38141580000001,67.38141580000001,67.38141580000001,67.38141580000001,67.38141580000001,67.38141580000001,67.38141580000001,002,P006,2025_Jan_25_1132,ConditionRich,2021.2.3,59.942766646416935,
36.75,37.0,41,0.0,Stimuli/Blank.png,0,0,0.0,0,66,66,66,,,,,,,,,,,,,36.7672034000002,0.0172034000001986,None,,68.14875809999967,68.14875809999967,68.14875809999967,68.14875809999967,68.14875809999967,68.14875809999967,68.14875809999967,68.14875809999967,68.14875809999967,68.14875809999967,002,P006,2025_Jan_25_1132,ConditionRich,2021.2.3,59.942766646416935,
37.0,37.75,19,0.75,Stimuli/P006/sun_czspalxthlkjwoat.jpg,0,0,0.0,0,67,67,67,,,,,,,,,,,,,37.015585699999974,0.015585699999974167,None,,68.3823027999997,68.3823027999997,68.3823027999997,68.3823027999997,68.3823027999997,68.3823027999997,68.3823027999997,68.3823027999997,68.3823027999997,68.3823027999997,002,P006,2025_Jan_25_1132,ConditionRich,2021.2.3,59.942766646416935,
37.75,38.0,41,0.0,Stimuli/Blank.png,0,0,0.0,0,68,68,68,,,,,,,,,,,,,37.75157960000024,0.0015796000002410437,5,0.20482179999999062,69.13296709999986,69.13296709999986,69.13296709999986,69.13296709999986,69.13296709999986,69.13296709999986,69.13296709999986,69.13296709999986,69.13296709999986,69.13296709999986,002,P006,2025_Jan_25_1132,ConditionRich,2021.2.3,59.942766646416935,
38.0,38.75,19,0.75,Stimuli/P006/sun_czspalxthlkjwoat.jpg,0,0,0.0,0,69,69,69,,,,,,,,,,,,,38.01600750000034,0.01600750000034168,None,,69.38318600000002,69.38318600000002,69.38318600000002,69.38318600000002,69.38318600000002,69.38318600000002,69.38318600000002,69.38318600000002,69.38318600000002,69.38318600000002,002,P006,2025_Jan_25_1132,ConditionRich,2021.2.3,59.942766646416935,
38.75,39.0,41,0.0,Stimuli/Blank.png,0,0,0.0,0,70,70,70,,,,,,,,,,,,,38.75064109999994,0.0006410999999388878,None,,70.11717150000004,70.11717150000004,70.11717150000004,70.11717150000004,70.11717150000004,70.11717150000004,70.11717150000004,70.11717150000004,70.11717150000004,70.11717150000004,002,P006,2025_Jan_25_1132,ConditionRich,2021.2.3,59.942766646416935,
39.0,39.75,19,0.75,Stimuli/P006/sun_czspalxthlkjwoat.jpg,0,0,0.0,0,71,71,71,,,,,,,,,,,,,39.00095330000022,0.0009533000002193148,None,,70.38407009999992,70.38407009999992,70.38407009999992,70.38407009999992,70.38407009999992,70.38407009999992,70.38407009999992,70.38407009999992,70.38407009999992,70.38407009999992,002,P006,2025_Jan_25_1132,ConditionRich,2021.2.3,59.942766646416935,
39.75,40.0,41,0.0,Stimuli/Blank.png,0,0,0.0,0,72,72,72,,,,,,,,,,,,,39.7674506000003,0.017450600000302074,None,,71.13473320000003,71.13473320000003,71.13473320000003,71.13473320000003,71.13473320000003,71.13473320000003,71.13473320000003,71.13473320000003,71.13473320000003,71.13473320000003,002,P006,2025_Jan_25_1132,ConditionRich,2021.2.3,59.942766646416935,
40.0,40.75,26,0.75,Stimuli/P006/things_face_03s.jpg,0,0,0.0,0,73,73,73,,,,,,,,,,,,,40.00070480000022,0.0007048000002214394,None,,71.36825779999981,71.36825779999981,71.36825779999981,71.36825779999981,71.36825779999981,71.36825779999981,71.36825779999981,71.36825779999981,71.36825779999981,71.36825779999981,002,P006,2025_Jan_25_1132,ConditionRich,2021.2.3,59.942766646416935,
40.75,41.0,41,0.0,Stimuli/Blank.png,0,0,0.0,0,74,74,74,,,,,,,,,,,,,40.75170650000018,0.0017065000001821318,None,,72.11893429999964,72.11893429999964,72.11893429999964,72.11893429999964,72.11893429999964,72.11893429999964,72.11893429999964,72.11893429999964,72.11893429999964,72.11893429999964,002,P006,2025_Jan_25_1132,ConditionRich,2021.2.3,59.942766646416935,
41.0,41.75,26,0.75,Stimuli/P006/things_face_03s.jpg,0,0,0.0,0,75,75,75,,,,,,,,,,,,,41.00214390000019,0.002143900000191934,None,,72.36915529999987,72.36915529999987,72.36915529999987,72.36915529999987,72.36915529999987,72.36915529999987,72.36915529999987,72.36915529999987,72.36915529999987,72.36915529999987,002,P006,2025_Jan_25_1132,ConditionRich,2021.2.3,59.942766646416935,
41.75,42.0,41,0.0,Stimuli/Blank.png,0,0,0.0,0,76,76,76,,,,,,,,,,,,,41.75314530000014,0.003145300000142015,5,0.21783419999974285,73.11981849999984,73.11981849999984,73.11981849999984,73.11981849999984,73.11981849999984,73.11981849999984,73.11981849999984,73.11981849999984,73.11981849999984,73.11981849999984,002,P006,2025_Jan_25_1132,ConditionRich,2021.2.3,59.942766646416935,
42.0,42.75,26,0.75,Stimuli/P006/things_face_03s.jpg,0,0,0.0,0,77,77,77,,,,,,,,,,,,,42.00363770000013,0.0036377000001266424,None,,73.37004099999967,73.37004099999967,73.37004099999967,73.37004099999967,73.37004099999967,73.37004099999967,73.37004099999967,73.37004099999967,73.37004099999967,73.37004099999967,002,P006,2025_Jan_25_1132,ConditionRich,2021.2.3,59.942766646416935,
42.75,43.0,41,0.0,Stimuli/Blank.png,0,0,0.0,0,78,78,78,,,,,,,,,,,,,42.754004299999906,0.004004299999905925,None,,74.12071319999995,74.12071319999995,74.12071319999995,74.12071319999995,74.12071319999995,74.12071319999995,74.12071319999995,74.12071319999995,74.12071319999995,74.12071319999995,002,P006,2025_Jan_25_1132,ConditionRich,2021.2.3,59.942766646416935,
43.0,43.75,26,0.75,Stimuli/P006/things_face_03s.jpg,0,0,0.0,0,79,79,79,,,,,,,,,,,,,43.00368019999996,0.003680199999962497,None,,74.38762829999996,74.38762829999996,74.38762829999996,74.38762829999996,74.38762829999996,74.38762829999996,74.38762829999996,74.38762829999996,74.38762829999996,74.38762829999996,002,P006,2025_Jan_25_1132,ConditionRich,2021.2.3,59.942766646416935,
43.75,44.0,41,0.0,Stimuli/Blank.png,0,0,0.0,0,80,80,80,,,,,,,,,,,,,43.77225200000021,0.022252000000207772,5,0.19923930000004475,75.13826679999966,75.13826679999966,75.13826679999966,75.13826679999966,75.13826679999966,75.13826679999966,75.13826679999966,75.13826679999966,75.13826679999966,75.13826679999966,002,P006,2025_Jan_25_1132,ConditionRich,2021.2.3,59.942766646416935,
44.0,44.75,13,0.75,Stimuli/P006/sun_bruphbrfsbxowtlq.jpg,0,0,0.0,0,81,81,81,,,,,,,,,,,,,44.00501430000031,0.005014300000311778,None,,75.37180529999978,75.37180529999978,75.37180529999978,75.37180529999978,75.37180529999978,75.37180529999978,75.37180529999978,75.37180529999978,75.37180529999978,75.37180529999978,002,P006,2025_Jan_25_1132,ConditionRich,2021.2.3,59.942766646416935,
44.75,45.0,41,0.0,Stimuli/Blank.png,0,0,0.0,0,82,82,82,,,,,,,,,,,,,44.756523300000026,0.006523300000026211,None,,76.12247119999984,76.12247119999984,76.12247119999984,76.12247119999984,76.12247119999984,76.12247119999984,76.12247119999984,76.12247119999984,76.12247119999984,76.12247119999984,002,P006,2025_Jan_25_1132,ConditionRich,2021.2.3,59.942766646416935,
45.0,45.75,13,0.75,Stimuli/P006/sun_bruphbrfsbxowtlq.jpg,0,0,0.0,0,83,83,83,,,,,,,,,,,,,45.00541000000021,0.005410000000210857,None,,76.37269689999994,76.37269689999994,76.37269689999994,76.37269689999994,76.37269689999994,76.37269689999994,76.37269689999994,76.37269689999994,76.37269689999994,76.37269689999994,002,P006,2025_Jan_25_1132,ConditionRich,2021.2.3,59.942766646416935,
45.75,46.0,41,0.0,Stimuli/Blank.png,0,0,0.0,0,84,84,84,,,,,,,,,,,,,45.75683180000033,0.006831800000327348,5,0.21410979999973279,77.12335899999971,77.12335899999971,77.12335899999971,77.12335899999971,77.12335899999971,77.12335899999971,77.12335899999971,77.12335899999971,77.12335899999971,77.12335899999971,002,P006,2025_Jan_25_1132,ConditionRich,2021.2.3,59.942766646416935,
46.0,46.75,13,0.75,Stimuli/P006/sun_bruphbrfsbxowtlq.jpg,0,0,0.0,0,85,85,85,,,,,,,,,,,,,46.0066769,0.006676900000002206,None,,77.37357609999981,77.37357609999981,77.37357609999981,77.37357609999981,77.37357609999981,77.37357609999981,77.37357609999981,77.37357609999981,77.37357609999981,77.37357609999981,002,P006,2025_Jan_25_1132,ConditionRich,2021.2.3,59.942766646416935,
46.75,47.0,41,0.0,Stimuli/Blank.png,0,0,0.0,0,86,86,86,,,,,,,,,,,,,46.757590300000174,0.007590300000174466,None,,78.12423489999992,78.12423489999992,78.12423489999992,78.12423489999992,78.12423489999992,78.12423489999992,78.12423489999992,78.12423489999992,78.12423489999992,78.12423489999992,002,P006,2025_Jan_25_1132,ConditionRich,2021.2.3,59.942766646416935,
47.0,47.75,13,0.75,Stimuli/P006/sun_bruphbrfsbxowtlq.jpg,0,0,0.0,0,87,87,87,,,,,,,,,,,,,47.007059200000185,0.007059200000185228,None,,78.3744585999998,78.3744585999998,78.3744585999998,78.3744585999998,78.3744585999998,78.3744585999998,78.3744585999998,78.3744585999998,78.3744585999998,78.3744585999998,002,P006,2025_Jan_25_1132,ConditionRich,2021.2.3,59.942766646416935,
47.75,48.0,41,0.0,Stimuli/Blank.png,0,0,0.0,0,88,88,88,,,,,,,,,,,,,47.757959100000335,0.007959100000334729,5,0.21248849999983577,79.1251186999998,79.1251186999998,79.1251186999998,79.1251186999998,79.1251186999998,79.1251186999998,79.1251186999998,79.1251186999998,79.1251186999998,79.1251186999998,002,P006,2025_Jan_25_1132,ConditionRich,2021.2.3,59.942766646416935,
48.0,48.75,36,0.75,Stimuli/P006/things_pony_03s.jpg,0,0,0.0,0,89,89,89,,,,,,,,,,,,,48.00820640000029,0.00820640000029016,None,,79.39201699999967,79.39201699999967,79.39201699999967,79.39201699999967,79.39201699999967,79.39201699999967,79.39201699999967,79.39201699999967,79.39201699999967,79.39201699999967,002,P006,2025_Jan_25_1132,ConditionRich,2021.2.3,59.942766646416935,
48.75,49.0,41,0.0,Stimuli/Blank.png,0,0,0.0,0,90,90,90,,,,,,,,,,,,,48.775115899999946,0.025115899999946123,None,,80.14272759999994,80.14272759999994,80.14272759999994,80.14272759999994,80.14272759999994,80.14272759999994,80.14272759999994,80.14272759999994,80.14272759999994,80.14272759999994,002,P006,2025_Jan_25_1132,ConditionRich,2021.2.3,59.942766646416935,
49.0,49.75,36,0.75,Stimuli/P006/things_pony_03s.jpg,0,0,0.0,0,91,91,91,,,,,,,,,,,,,49.01160350000009,0.011603500000092026,None,,80.39290739999979,80.39290739999979,80.39290739999979,80.39290739999979,80.39290739999979,80.39290739999979,80.39290739999979,80.39290739999979,80.39290739999979,80.39290739999979,002,P006,2025_Jan_25_1132,ConditionRich,2021.2.3,59.942766646416935,
49.75,50.0,41,0.0,Stimuli/Blank.png,0,0,0.0,0,92,92,92,,,,,,,,,,,,,49.77698680000003,0.026986800000031508,5,0.19393219999983557,81.14357859999973,81.14357859999973,81.14357859999973,81.14357859999973,81.14357859999973,81.14357859999973,81.14357859999973,81.14357859999973,81.14357859999973,81.14357859999973,002,P006,2025_Jan_25_1132,ConditionRich,2021.2.3,59.942766646416935,
50.0,50.75,36,0.75,Stimuli/P006/things_pony_03s.jpg,0,0,0.0,0,93,93,93,,,,,,,,,,,,,50.010455099999945,0.01045509999994465,None,,81.37711159999981,81.37711159999981,81.37711159999981,81.37711159999981,81.37711159999981,81.37711159999981,81.37711159999981,81.37711159999981,81.37711159999981,81.37711159999981,002,P006,2025_Jan_25_1132,ConditionRich,2021.2.3,59.942766646416935,
50.75,51.0,41,0.0,Stimuli/Blank.png,0,0,0.0,0,94,94,94,,,,,,,,,,,,,50.761021300000266,0.01102130000026591,None,,82.12778649999973,82.12778649999973,82.12778649999973,82.12778649999973,82.12778649999973,82.12778649999973,82.12778649999973,82.12778649999973,82.12778649999973,82.12778649999973,002,P006,2025_Jan_25_1132,ConditionRich,2021.2.3,59.942766646416935,
51.0,51.75,36,0.75,Stimuli/P006/things_pony_03s.jpg,0,0,0.0,0,95,95,95,,,,,,,,,,,,,51.010819099999935,0.010819099999935133,None,,82.37799300000006,82.37799300000006,82.37799300000006,82.37799300000006,82.37799300000006,82.37799300000006,82.37799300000006,82.37799300000006,82.37799300000006,82.37799300000006,002,P006,2025_Jan_25_1132,ConditionRich,2021.2.3,59.942766646416935,
51.75,52.0,41,0.0,Stimuli/Blank.png,0,0,0.0,0,96,96,96,,,,,,,,,,,,,51.761813000000075,0.01181300000007468,5,0.20902390000037485,83.12864820000004,83.12864820000004,83.12864820000004,83.12864820000004,83.12864820000004,83.12864820000004,83.12864820000004,83.12864820000004,83.12864820000004,83.12864820000004,002,P006,2025_Jan_25_1132,ConditionRich,2021.2.3,59.942766646416935,
52.0,52.75,35,0.75,Stimuli/P006/things_pig_03s.jpg,0,0,0.0,0,97,97,97,,,,,,,,,,,,,52.01211330000024,0.01211330000023736,None,,83.37887749999982,83.37887749999982,83.37887749999982,83.37887749999982,83.37887749999982,83.37887749999982,83.37887749999982,83.37887749999982,83.37887749999982,83.37887749999982,002,P006,2025_Jan_25_1132,ConditionRich,2021.2.3,59.942766646416935,
52.75,53.0,41,0.0,Stimuli/Blank.png,0,0,0.0,0,98,98,98,,,,,,,,,,,,,52.76224090000005,0.012240900000051624,None,,84.12954229999968,84.12954229999968,84.12954229999968,84.12954229999968,84.12954229999968,84.12954229999968,84.12954229999968,84.12954229999968,84.12954229999968,84.12954229999968,002,P006,2025_Jan_25_1132,ConditionRich,2021.2.3,59.942766646416935,
53.0,53.75,35,0.75,Stimuli/P006/things_pig_03s.jpg,0,0,0.0,0,99,99,99,,,,,,,,,,,,,53.012588699999924,0.012588699999923847,None,,84.37975689999985,84.37975689999985,84.37975689999985,84.37975689999985,84.37975689999985,84.37975689999985,84.37975689999985,84.37975689999985,84.37975689999985,84.37975689999985,002,P006,2025_Jan_25_1132,ConditionRich,2021.2.3,59.942766646416935,
53.75,54.0,41,0.0,Stimuli/Blank.png,0,0,0.0,0,100,100,100,,,,,,,,,,,,,53.76350400000001,0.013504000000011729,5,0.20706549999977142,85.13044179999997,85.13044179999997,85.13044179999997,85.13044179999997,85.13044179999997,85.13044179999997,85.13044179999997,85.13044179999997,85.13044179999997,85.13044179999997,002,P006,2025_Jan_25_1132,ConditionRich,2021.2.3,59.942766646416935,
54.0,54.75,35,0.75,Stimuli/P006/things_pig_03s.jpg,0,0,0.0,0,101,101,101,,,,,,,,,,,,,54.01380500000005,0.013805000000047585,None,,85.39732979999962,85.39732979999962,85.39732979999962,85.39732979999962,85.39732979999962,85.39732979999962,85.39732979999962,85.39732979999962,85.39732979999962,85.39732979999962,002,P006,2025_Jan_25_1132,ConditionRich,2021.2.3,59.942766646416935,
54.75,55.0,41,0.0,Stimuli/Blank.png,0,0,0.0,0,102,102,102,,,,,,,,,,,,,54.78059230000008,0.030592300000080286,None,,86.14798579999979,86.14798579999979,86.14798579999979,86.14798579999979,86.14798579999979,86.14798579999979,86.14798579999979,86.14798579999979,86.14798579999979,86.14798579999979,002,P006,2025_Jan_25_1132,ConditionRich,2021.2.3,59.942766646416935,
55.0,55.75,35,0.75,Stimuli/P006/things_pig_03s.jpg,0,0,0.0,0,103,103,103,,,,,,,,,,,,,55.01467559999992,0.014675599999918632,None,,86.38152619999983,86.38152619999983,86.38152619999983,86.38152619999983,86.38152619999983,86.38152619999983,86.38152619999983,86.38152619999983,86.38152619999983,86.38152619999983,002,P006,2025_Jan_25_1132,ConditionRich,2021.2.3,59.942766646416935,
55.75,56.0,41,0.0,Stimuli/Blank.png,0,0,0.0,0,104,104,104,,,,,,,,,,,,,55.766015700000025,0.01601570000002539,None,,87.13219279999976,87.13219279999976,87.13219279999976,87.13219279999976,87.13219279999976,87.13219279999976,87.13219279999976,87.13219279999976,87.13219279999976,87.13219279999976,002,P006,2025_Jan_25_1132,ConditionRich,2021.2.3,59.942766646416935,
56.0,56.75,14,0.75,Stimuli/P006/sun_bsirencncgxteejx.jpg,1,0,0.75,0,105,105,105,,,,,,,,,,,,,55.99885549999999,-0.0011445000000094296,1,0.504850499999975,87.3657318999999,87.3657318999999,87.3657318999999,87.3657318999999,87.3657318999999,87.3657318999999,87.3657318999999,88.09969749999982,87.3657318999999,87.3657318999999,002,P006,2025_Jan_25_1132,ConditionRich,2021.2.3,59.942766646416935,
56.75,57.0,41,0.0,Stimuli/Blank.png,0,0,0.0,0,106,106,106,,,,,,,,,,,,,56.74887250000029,-0.00112749999971129,None,,88.11639049999985,88.11639049999985,88.11639049999985,88.11639049999985,88.11639049999985,88.11639049999985,88.11639049999985,88.11639049999985,88.11639049999985,88.11639049999985,002,P006,2025_Jan_25_1132,ConditionRich,2021.2.3,59.942766646416935,
57.0,57.75,14,0.75,Stimuli/P006/sun_bsirencncgxteejx.jpg,0,0,0.0,0,107,107,107,,,,,,,,,,,,,57.00111319999996,0.001113199999963399,None,,88.38330799999994,88.38330799999994,88.38330799999994,88.38330799999994,88.38330799999994,88.38330799999994,88.38330799999994,88.38330799999994,88.38330799999994,88.38330799999994,002,P006,2025_Jan_25_1132,ConditionRich,2021.2.3,59.942766646416935,
57.75,58.0,41,0.0,Stimuli/Blank.png,0,0,0.0,0,108,108,108,,,,,,,,,,,,,57.76722840000002,0.017228400000021793,None,,89.13396009999997,89.13396009999997,89.13396009999997,89.13396009999997,89.13396009999997,89.13396009999997,89.13396009999997,89.13396009999997,89.13396009999997,89.13396009999997,002,P006,2025_Jan_25_1132,ConditionRich,2021.2.3,59.942766646416935,
58.0,58.75,14,0.75,Stimuli/P006/sun_bsirencncgxteejx.jpg,0,0,0.0,0,109,109,109,,,,,,,,,,,,,58.00037830000019,0.0003783000001931214,None,,89.36750159999974,89.36750159999974,89.36750159999974,89.36750159999974,89.36750159999974,89.36750159999974,89.36750159999974,89.36750159999974,89.36750159999974,89.36750159999974,002,P006,2025_Jan_25_1132,ConditionRich,2021.2.3,59.942766646416935,
58.75,59.0,41,0.0,Stimuli/Blank.png,0,0,0.0,0,110,110,110,,,,,,,,,,,,,58.751555199999984,0.0015551999999843247,None,,90.11816920000001,90.11816920000001,90.11816920000001,90.11816920000001,90.11816920000001,90.11816920000001,90.11816920000001,90.11816920000001,90.11816920000001,90.11816920000001,002,P006,2025_Jan_25_1132,ConditionRich,2021.2.3,59.942766646416935,
59.0,59.75,14,0.75,Stimuli/P006/sun_bsirencncgxteejx.jpg,0,0,0.0,0,111,111,111,,,,,,,,,,,,,59.00133750000032,0.0013375000003179593,None,,90.36838249999983,90.36838249999983,90.36838249999983,90.36838249999983,90.36838249999983,90.36838249999983,90.36838249999983,90.36838249999983,90.36838249999983,90.36838249999983,002,P006,2025_Jan_25_1132,ConditionRich,2021.2.3,59.942766646416935,
59.75,60.0,41,0.0,Stimuli/Blank.png,0,0,0.0,0,112,112,112,,,,,,,,,,,,,59.75221869999996,0.0022186999999576074,5,0.21845669999993333,91.11903910000001,91.11903910000001,91.11903910000001,91.11903910000001,91.11903910000001,91.11903910000001,91.11903910000001,91.11903910000001,91.11903910000001,91.11903910000001,002,P006,2025_Jan_25_1132,ConditionRich,2021.2.3,59.942766646416935,
60.0,60.75,17,0.75,Stimuli/P006/sun_bwsictslfxygpqbp.jpg,0,0,0.0,0,113,113,113,,,,,,,,,,,,,60.00176850000025,0.0017685000002529705,None,,91.36927190000006,91.36927190000006,91.36927190000006,91.36927190000006,91.36927190000006,91.36927190000006,91.36927190000006,91.36927190000006,91.36927190000006,91.36927190000006,002,P006,2025_Jan_25_1132,ConditionRich,2021.2.3,59.942766646416935,
60.75,61.0,41,0.0,Stimuli/Blank.png,0,0,0.0,0,114,114,114,,,,,,,,,,,,,60.75280180000027,0.0028018000002703047,None,,92.11993439999969,92.11993439999969,92.11993439999969,92.11993439999969,92.11993439999969,92.11993439999969,92.11993439999969,92.11993439999969,92.11993439999969,92.11993439999969,002,P006,2025_Jan_25_1132,ConditionRich,2021.2.3,59.942766646416935,
61.0,61.75,17,0.75,Stimuli/P006/sun_bwsictslfxygpqbp.jpg,0,0,0.0,0,115,115,115,,,,,,,,,,,,,61.00328260000015,0.003282600000147795,None,,92.38680759999988,92.38680759999988,92.38680759999988,92.38680759999988,92.38680759999988,92.38680759999988,92.38680759999988,92.38680759999988,92.38680759999988,92.38680759999988,002,P006,2025_Jan_25_1132,ConditionRich,2021.2.3,59.942766646416935,
61.75,62.0,41,0.0,Stimuli/Blank.png,0,0,0.0,0,116,116,116,,,,,,,,,,,,,61.77065100000027,0.02065100000027087,5,0.20009200000004057,93.13750069999969,93.13750069999969,93.13750069999969,93.13750069999969,93.13750069999969,93.13750069999969,93.13750069999969,93.13750069999969,93.13750069999969,93.13750069999969,002,P006,2025_Jan_25_1132,ConditionRich,2021.2.3,59.942766646416935,
62.0,62.75,17,0.75,Stimuli/P006/sun_bwsictslfxygpqbp.jpg,0,0,0.0,0,117,117,117,,,,,,,,,,,,,62.00395630000003,0.003956300000027113,None,,93.37103039999965,93.37103039999965,93.37103039999965,93.37103039999965,93.37103039999965,93.37103039999965,93.37103039999965,93.37103039999965,93.37103039999965,93.37103039999965,002,P006,2025_Jan_25_1132,ConditionRich,2021.2.3,59.942766646416935,
62.75,63.0,41,0.0,Stimuli/Blank.png,0,0,0.0,0,118,118,118,,,,,,,,,,,,,62.75654200000008,0.006542000000081316,None,,94.13838339999984,94.13838339999984,94.13838339999984,94.13838339999984,94.13838339999984,94.13838339999984,94.13838339999984,94.13838339999984,94.13838339999984,94.13838339999984,002,P006,2025_Jan_25_1132,ConditionRich,2021.2.3,59.942766646416935,
63.0,63.75,17,0.75,Stimuli/P006/sun_bwsictslfxygpqbp.jpg,0,0,0.0,0,119,119,119,,,,,,,,,,,,,63.02182690000018,0.021826900000178284,None,,94.38859579999962,94.38859579999962,94.38859579999962,94.38859579999962,94.38859579999962,94.38859579999962,94.38859579999962,94.38859579999962,94.38859579999962,94.38859579999962,002,P006,2025_Jan_25_1132,ConditionRich,2021.2.3,59.942766646416935,
63.75,64.0,41,0.0,Stimuli/Blank.png,0,0,0.0,0,120,120,120,,,,,,,,,,,,,63.75641829999995,0.00641829999995025,5,0.2150194000000738,95.12258689999999,95.12258689999999,95.12258689999999,95.12258689999999,95.12258689999999,95.12258689999999,95.12258689999999,95.12258689999999,95.12258689999999,95.12258689999999,002,P006,2025_Jan_25_1132,ConditionRich,2021.2.3,59.942766646416935,
64.0,64.75,2,0.75,Stimuli/P006/sun_ahmycohdkioefoxs.jpg,0,0,0.0,0,121,121,121,,,,,,,,,,,,,64.00668900000028,0.006689000000278611,None,,95.38947589999998,95.38947589999998,95.38947589999998,95.38947589999998,95.38947589999998,95.38947589999998,95.38947589999998,95.38947589999998,95.38947589999998,95.38947589999998,002,P006,2025_Jan_25_1132,ConditionRich,2021.2.3,59.942766646416935,
64.75,65.0,41,0.0,Stimuli/Blank.png,0,0,0.0,0,122,122,122,,,,,,,,,,,,,64.77360690000023,0.02360690000023169,None,,96.14014479999969,96.14014479999969,96.14014479999969,96.14014479999969,96.14014479999969,96.14014479999969,96.14014479999969,96.14014479999969,96.14014479999969,96.14014479999969,002,P006,2025_Jan_25_1132,ConditionRich,2021.2.3,59.942766646416935,
65.0,65.75,2,0.75,Stimuli/P006/sun_ahmycohdkioefoxs.jpg,0,0,0.0,0,123,123,123,,,,,,,,,,,,,65.00701600000002,0.0070160000000214495,None,,96.37368409999999,96.37368409999999,96.37368409999999,96.37368409999999,96.37368409999999,96.37368409999999,96.37368409999999,96.37368409999999,96.37368409999999,96.37368409999999,002,P006,2025_Jan_25_1132,ConditionRich,2021.2.3,59.942766646416935,
65.75,66.0,41,0.0,Stimuli/Blank.png,0,0,0.0,0,124,124,124,,,,,,,,,,,,,65.75698370000009,0.0069837000000916305,5,0.21309430000019347,97.12434759999996,97.12434759999996,97.12434759999996,97.12434759999996,97.12434759999996,97.12434759999996,97.12434759999996,97.12434759999996,97.12434759999996,97.12434759999996,002,P006,2025_Jan_25_1132,ConditionRich,2021.2.3,59.942766646416935,
66.0,66.75,2,0.75,Stimuli/P006/sun_ahmycohdkioefoxs.jpg,0,0,0.0,0,125,125,125,,,,,,,,,,,,,66.00726030000033,0.007260300000325515,None,,97.37457240000003,97.37457240000003,97.37457240000003,97.37457240000003,97.37457240000003,97.37457240000003,97.37457240000003,97.37457240000003,97.37457240000003,97.37457240000003,002,P006,2025_Jan_25_1132,ConditionRich,2021.2.3,59.942766646416935,
66.75,67.0,41,0.0,Stimuli/Blank.png,0,0,0.0,0,126,126,126,,,,,,,,,,,,,66.75830990000031,0.008309900000313064,None,,98.12523109999984,98.12523109999984,98.12523109999984,98.12523109999984,98.12523109999984,98.12523109999984,98.12523109999984,98.12523109999984,98.12523109999984,98.12523109999984,002,P006,2025_Jan_25_1132,ConditionRich,2021.2.3,59.942766646416935,
67.0,67.75,2,0.75,Stimuli/P006/sun_ahmycohdkioefoxs.jpg,0,0,0.0,0,127,127,127,,,,,,,,,,,,,67.00860170000033,0.008601700000326673,None,,98.39213960000006,98.39213960000006,98.39213960000006,98.39213960000006,98.39213960000006,98.39213960000006,98.39213960000006,98.39213960000006,98.39213960000006,98.39213960000006,002,P006,2025_Jan_25_1132,ConditionRich,2021.2.3,59.942766646416935,
67.75,68.0,41,0.0,Stimuli/Blank.png,0,0,0.0,0,128,128,128,,,,,,,,,,,,,67.77602030000025,0.026020300000254792,5,0.19470589999991716,99.14280089999966,99.14280089999966,99.14280089999966,99.14280089999966,99.14280089999966,99.14280089999966,99.14280089999966,99.14280089999966,99.14280089999966,99.14280089999966,002,P006,2025_Jan_25_1132,ConditionRich,2021.2.3,59.942766646416935,
68.0,68.75,21,0.75,Stimuli/P006/things_accordion_03s.jpg,0,0,0.0,0,129,129,129,,,,,,,,,,,,,68.00892380000005,0.008923800000047777,None,,99.37633679999999,99.37633679999999,99.37633679999999,99.37633679999999,99.37633679999999,99.37633679999999,99.37633679999999,99.37633679999999,99.37633679999999,99.37633679999999,002,P006,2025_Jan_25_1132,ConditionRich,2021.2.3,59.942766646416935,
68.75,69.0,41,0.0,Stimuli/Blank.png,0,0,0.0,0,130,130,130,,,,,,,,,,,,,68.76086729999997,0.010867299999972602,None,,100.12700379999978,100.12700379999978,100.12700379999978,100.12700379999978,100.12700379999978,100.12700379999978,100.12700379999978,100.12700379999978,100.12700379999978,100.12700379999978,002,P006,2025_Jan_25_1132,ConditionRich,2021.2.3,59.942766646416935,
69.0,69.75,21,0.75,Stimuli/P006/things_accordion_03s.jpg,0,0,0.0,0,131,131,131,,,,,,,,,,,,,69.01159920000009,0.011599200000091514,None,,100.39390819999971,100.39390819999971,100.39390819999971,100.39390819999971,100.39390819999971,100.39390819999971,100.39390819999971,100.39390819999971,100.39390819999971,100.39390819999971,002,P006,2025_Jan_25_1132,ConditionRich,2021.2.3,59.942766646416935,
69.75,70.0,41,0.0,Stimuli/Blank.png,0,0,0.0,0,132,132,132,,,,,,,,,,,,,69.77711790000012,0.027117900000121153,5,0.19309690000000046,101.14456419999988,101.14456419999988,101.14456419999988,101.14456419999988,101.14456419999988,101.14456419999988,101.14456419999988,101.14456419999988,101.14456419999988,101.14456419999988,002,P006,2025_Jan_25_1132,ConditionRich,2021.2.3,59.942766646416935,
70.0,70.75,21,0.75,Stimuli/P006/things_accordion_03s.jpg,0,0,0.0,0,133,133,133,,,,,,,,,,,,,70.01147579999997,0.01147579999997106,None,,101.3781039999999,101.3781039999999,101.3781039999999,101.3781039999999,101.3781039999999,101.3781039999999,101.3781039999999,101.3781039999999,101.3781039999999,101.3781039999999,002,P006,2025_Jan_25_1132,ConditionRich,2021.2.3,59.942766646416935,
70.75,71.0,41,0.0,Stimuli/Blank.png,0,0,0.0,0,134,134,134,,,,,,,,,,,,,70.76207610000029,0.012076100000285805,None,,102.12879969999995,102.12879969999995,102.12879969999995,102.12879969999995,102.12879969999995,102.12879969999995,102.12879969999995,102.12879969999995,102.12879969999995,102.12879969999995,002,P006,2025_Jan_25_1132,ConditionRich,2021.2.3,59.942766646416935,
71.0,71.75,21,0.75,Stimuli/P006/things_accordion_03s.jpg,1,0,0.75,0,135,135,135,,,,,,,,,,,,,71.01183590000028,0.011835900000278343,1,0.5785320999998476,102.3789727999997,102.3789727999997,102.3789727999997,102.3789727999997,102.3789727999997,102.3789727999997,102.3789727999997,103.11296909999965,102.3789727999997,102.3789727999997,002,P006,2025_Jan_25_1132,ConditionRich,2021.2.3,59.942766646416935,
71.75,72.0,41,0.0,Stimuli/Blank.png,0,0,0.0,0,136,136,136,,,,,,,,,,,,,71.76303510000025,0.013035100000251987,5,0.20800559999997859,103.12965089999989,103.12965089999989,103.12965089999989,103.12965089999989,103.12965089999989,103.12965089999989,103.12965089999989,103.12965089999989,103.12965089999989,103.12965089999989,002,P006,2025_Jan_25_1132,ConditionRich,2021.2.3,59.942766646416935,
72.0,72.75,23,0.75,Stimuli/P006/things_beetle_03s.jpg,0,0,0.0,0,137,137,137,,,,,,,,,,,,,72.01253829999996,0.012538299999960145,None,,103.37987679999969,103.37987679999969,103.37987679999969,103.37987679999969,103.37987679999969,103.37987679999969,103.37987679999969,103.37987679999969,103.37987679999969,103.37987679999969,002,P006,2025_Jan_25_1132,ConditionRich,2021.2.3,59.942766646416935,
72.75,73.0,41,0.0,Stimuli/Blank.png,0,0,0.0,0,138,138,138,,,,,,,,,,,,,72.76597320000019,0.015973200000189536,None,,104.14723929999991,104.14723929999991,104.14723929999991,104.14723929999991,104.14723929999991,104.14723929999991,104.14723929999991,104.14723929999991,104.14723929999991,104.14723929999991,002,P006,2025_Jan_25_1132,ConditionRich,2021.2.3,59.942766646416935,
73.0,73.75,23,0.75,Stimuli/P006/things_beetle_03s.jpg,0,0,0.0,0,139,139,139,,,,,,,,,,,,,73.01398070000005,0.013980700000047364,None,,104.38077669999984,104.38077669999984,104.38077669999984,104.38077669999984,104.38077669999984,104.38077669999984,104.38077669999984,104.38077669999984,104.38077669999984,104.38077669999984,002,P006,2025_Jan_25_1132,ConditionRich,2021.2.3,59.942766646416935,
73.75,74.0,41,0.0,Stimuli/Blank.png,0,0,0.0,0,140,140,140,,,,,,,,,,,,,73.76485589999993,0.014855899999929534,5,0.20628709999982675,105.13143009999976,105.13143009999976,105.13143009999976,105.13143009999976,105.13143009999976,105.13143009999976,105.13143009999976,105.13143009999976,105.13143009999976,105.13143009999976,002,P006,2025_Jan_25_1132,ConditionRich,2021.2.3,59.942766646416935,
74.0,74.75,23,0.75,Stimuli/P006/things_beetle_03s.jpg,0,0,0.0,0,141,141,141,,,,,,,,,,,,,74.01439800000026,0.014398000000255706,None,,105.38167209999983,105.38167209999983,105.38167209999983,105.38167209999983,105.38167209999983,105.38167209999983,105.38167209999983,105.38167209999983,105.38167209999983,105.38167209999983,002,P006,2025_Jan_25_1132,ConditionRich,2021.2.3,59.942766646416935,
74.75,75.0,41,0.0,Stimuli/Blank.png,0,0,0.0,0,142,142,142,,,,,,,,,,,,,74.76615270000002,0.01615270000002056,None,,106.13234109999985,106.13234109999985,106.13234109999985,106.13234109999985,106.13234109999985,106.13234109999985,106.13234109999985,106.13234109999985,106.13234109999985,106.13234109999985,002,P006,2025_Jan_25_1132,ConditionRich,2021.2.3,59.942766646416935,
75.0,75.75,23,0.75,Stimuli/P006/things_beetle_03s.jpg,0,0,0.0,0,143,143,143,,,,,,,,,,,,,74.99874390000014,-0.001256099999864091,None,,106.36583870000004,106.36583870000004,106.36583870000004,106.36583870000004,106.36583870000004,106.36583870000004,106.36583870000004,106.36583870000004,106.36583870000004,106.36583870000004,002,P006,2025_Jan_25_1132,ConditionRich,2021.2.3,59.942766646416935,
75.75,76.0,41,0.0,Stimuli/Blank.png,0,0,0.0,0,144,144,144,,,,,,,,,,,,,75.74972200000002,-0.0002779999999802385,None,,107.11650119999968,107.11650119999968,107.11650119999968,107.11650119999968,107.11650119999968,107.11650119999968,107.11650119999968,107.11650119999968,107.11650119999968,107.11650119999968,002,P006,2025_Jan_25_1132,ConditionRich,2021.2.3,59.942766646416935,
76.0,76.75,38,0.75,Stimuli/P006/things_sledgehammer_03s.jpg,0,0,0.0,0,145,145,145,,,,,,,,,,,,,76.0005785000003,0.0005785000003015739,None,,107.38339919999999,107.38339919999999,107.38339919999999,107.38339919999999,107.38339919999999,107.38339919999999,107.38339919999999,107.38339919999999,107.38339919999999,107.38339919999999,002,P006,2025_Jan_25_1132,ConditionRich,2021.2.3,59.942766646416935,
76.75,77.0,41,0.0,Stimuli/Blank.png,0,0,0.0,0,146,146,146,,,,,,,,,,,,,76.76674219999995,0.0167421999999533,None,,108.1341140999998,108.1341140999998,108.1341140999998,108.1341140999998,108.1341140999998,108.1341140999998,108.1341140999998,108.1341140999998,108.1341140999998,108.1341140999998,002,P006,2025_Jan_25_1132,ConditionRich,2021.2.3,59.942766646416935,
77.0,77.75,38,0.75,Stimuli/P006/things_sledgehammer_03s.jpg,0,0,0.0,0,147,147,147,,,,,,,,,,,,,77.00071400000024,0.0007140000002436864,None,,108.36761879999995,108.36761879999995,108.36761879999995,108.36761879999995,108.36761879999995,108.36761879999995,108.36761879999995,108.36761879999995,108.36761879999995,108.36761879999995,002,P006,2025_Jan_25_1132,ConditionRich,2021.2.3,59.942766646416935,
77.75,78.0,41,0.0,Stimuli/Blank.png,0,0,0.0,0,148,148,148,,,,,,,,,,,,,77.75096359999998,0.0009635999999773048,None,,109.11826780000001,109.11826780000001,109.11826780000001,109.11826780000001,109.11826780000001,109.11826780000001,109.11826780000001,109.11826780000001,109.11826780000001,109.11826780000001,002,P006,2025_Jan_25_1132,ConditionRich,2021.2.3,59.942766646416935,
78.0,78.75,38,0.75,Stimuli/P006/things_sledgehammer_03s.jpg,0,0,0.0,0,149,149,149,,,,,,,,,,,,,78.00152500000013,0.0015250000001287844,None,,109.36849540000003,109.36849540000003,109.36849540000003,109.36849540000003,109.36849540000003,109.36849540000003,109.36849540000003,109.36849540000003,109.36849540000003,109.36849540000003,002,P006,2025_Jan_25_1132,ConditionRich,2021.2.3,59.942766646416935,
78.75,79.0,41,0.0,Stimuli/Blank.png,0,0,0.0,0,150,150,150,,,,,,,,,,,,,78.75244100000009,0.0024410000000898435,None,,110.11916049999991,110.11916049999991,110.11916049999991,110.11916049999991,110.11916049999991,110.11916049999991,110.11916049999991,110.11916049999991,110.11916049999991,110.11916049999991,002,P006,2025_Jan_25_1132,ConditionRich,2021.2.3,59.942766646416935,
79.0,79.75,38,0.75,Stimuli/P006/things_sledgehammer_03s.jpg,0,0,0.0,0,151,151,151,,,,,,,,,,,,,79.00223090000009,0.002230900000085967,None,,110.36931199999981,110.36931199999981,110.36931199999981,110.36931199999981,110.36931199999981,110.36931199999981,110.36931199999981,110.36931199999981,110.36931199999981,110.36931199999981,002,P006,2025_Jan_25_1132,ConditionRich,2021.2.3,59.942766646416935,
79.75,80.0,41,0.0,Stimuli/Blank.png,0,0,0.0,0,152,152,152,,,,,,,,,,,,,79.75341819999994,0.003418199999941862,5,0.21744290000015098,111.12003860000004,111.12003860000004,111.12003860000004,111.12003860000004,111.12003860000004,111.12003860000004,111.12003860000004,111.12003860000004,111.12003860000004,111.12003860000004,002,P006,2025_Jan_25_1132,ConditionRich,2021.2.3,59.942766646416935,
80.0,80.75,3,0.75,Stimuli/P006/sun_asyidwmnobuawmax.jpg,0,0,0.0,0,153,153,153,,,,,,,,,,,,,80.00365630000033,0.003656300000329793,None,,111.38695209999969,111.38695209999969,111.38695209999969,111.38695209999969,111.38695209999969,111.38695209999969,111.38695209999969,111.38695209999969,111.38695209999969,111.38695209999969,002,P006,2025_Jan_25_1132,ConditionRich,2021.2.3,59.942766646416935,
80.75,81.0,41,0.0,Stimuli/Blank.png,0,0,0.0,0,154,154,154,,,,,,,,,,,,,80.77140970000028,0.021409700000276644,None,,112.13761320000003,112.13761320000003,112.13761320000003,112.13761320000003,112.13761320000003,112.13761320000003,112.13761320000003,112.13761320000003,112.13761320000003,112.13761320000003,002,P006,2025_Jan_25_1132,ConditionRich,2021.2.3,59.942766646416935,
81.0,81.75,3,0.75,Stimuli/P006/sun_asyidwmnobuawmax.jpg,0,0,0.0,0,155,155,155,,,,,,,,,,,,,81.0062269,0.0062269000000014785,None,,112.38783349999994,112.38783349999994,112.38783349999994,112.38783349999994,112.38783349999994,112.38783349999994,112.38783349999994,112.38783349999994,112.38783349999994,112.38783349999994,002,P006,2025_Jan_25_1132,ConditionRich,2021.2.3,59.942766646416935,
81.75,82.0,41,0.0,Stimuli/Blank.png,0,0,0.0,0,156,156,156,,,,,,,,,,,,,81.77220070000021,0.022200700000212237,5,0.19898419999981343,113.13848009999992,113.13848009999992,113.13848009999992,113.13848009999992,113.13848009999992,113.13848009999992,113.13848009999992,113.13848009999992,113.13848009999992,113.13848009999992,002,P006,2025_Jan_25_1132,ConditionRich,2021.2.3,59.942766646416935,
82.0,82.75,3,0.75,Stimuli/P006/sun_asyidwmnobuawmax.jpg,0,0,0.0,0,157,157,157,,,,,,,,,,,,,82.00529570000026,0.005295700000260695,None,,113.37202469999966,113.37202469999966,113.37202469999966,113.37202469999966,113.37202469999966,113.37202469999966,113.37202469999966,113.37202469999966,113.37202469999966,113.37202469999966,002,P006,2025_Jan_25_1132,ConditionRich,2021.2.3,59.942766646416935,
82.75,83.0,41,0.0,Stimuli/Blank.png,0,0,0.0,0,158,158,158,,,,,,,,,,,,,82.75541920000023,0.005419200000233104,None,,114.12275980000004,114.12275980000004,114.12275980000004,114.12275980000004,114.12275980000004,114.12275980000004,114.12275980000004,114.12275980000004,114.12275980000004,114.12275980000004,002,P006,2025_Jan_25_1132,ConditionRich,2021.2.3,59.942766646416935,
83.0,83.75,3,0.75,Stimuli/P006/sun_asyidwmnobuawmax.jpg,0,0,0.0,0,159,159,159,,,,,,,,,,,,,83.00624880000032,0.006248800000321353,None,,114.37290719999964,114.37290719999964,114.37290719999964,114.37290719999964,114.37290719999964,114.37290719999964,114.37290719999964,114.37290719999964,114.37290719999964,114.37290719999964,002,P006,2025_Jan_25_1132,ConditionRich,2021.2.3,59.942766646416935,
83.75,84.0,41,0.0,Stimuli/Blank.png,0,0,0.0,0,160,160,160,,,,,,,,,,,,,83.75621120000005,0.006211200000052486,5,0.21385360000022047,115.12358529999983,115.12358529999983,115.12358529999983,115.12358529999983,115.12358529999983,115.12358529999983,115.12358529999983,115.12358529999983,115.12358529999983,115.12358529999983,002,P006,2025_Jan_25_1132,ConditionRich,2021.2.3,59.942766646416935,
84.0,100.0,0,0.0,Stimuli/Blank.png,1,4,4.75,0,161,161,161,,,,,,,,,,,,,84.00658290000001,0.00658290000001216,5,15.96368829999983,115.37378219999982,115.37378219999982,115.37378219999982,115.37378219999982,115.37378219999982,115.37378219999982,119.36069240000006,120.11134429999993,115.37378219999982,115.37378219999982,002,P006,2025_Jan_25_1132,ConditionRich,2021.2.3,59.942766646416935,
100.0,100.75,6,0.75,Stimuli/P006/sun_bbzkhzmxdjrfjpjz.jpg,1,0,0.75,0,162,162,162,,,,,,,,,,,,,100.0039482000002,0.0039482000001953566,1,0.572488599999815,131.3712541,131.3712541,131.3712541,131.3712541,131.3712541,131.3712541,131.3712541,132.10527449999972,131.3712541,131.3712541,002,P006,2025_Jan_25_1132,ConditionRich,2021.2.3,59.942766646416935,
100.75,101.0,41,0.0,Stimuli/Blank.png,0,0,0.0,0,163,163,163,,,,,,,,,,,,,100.75736649999999,0.007366499999989173,None,,132.13861389999965,132.13861389999965,132.13861389999965,132.13861389999965,132.13861389999965,132.13861389999965,132.13861389999965,132.13861389999965,132.13861389999965,132.13861389999965,002,P006,2025_Jan_25_1132,ConditionRich,2021.2.3,59.942766646416935,
101.0,101.75,6,0.75,Stimuli/P006/sun_bbzkhzmxdjrfjpjz.jpg,0,0,0.0,0,164,164,164,,,,,,,,,,,,,101.02213359999996,0.022133599999961007,None,,132.40551359999972,132.40551359999972,132.40551359999972,132.40551359999972,132.40551359999972,132.40551359999972,132.40551359999972,132.40551359999972,132.40551359999972,132.40551359999972,002,P006,2025_Jan_25_1132,ConditionRich,2021.2.3,59.942766646416935,
101.75,102.0,41,0.0,Stimuli/Blank.png,0,0,0.0,0,165,165,165,,,,,,,,,,,,,101.77263519999997,0.02263519999996788,5,0.1980706999997892,133.1394768,133.1394768,133.1394768,133.1394768,133.1394768,133.1394768,133.1394768,133.1394768,133.1394768,133.1394768,002,P006,2025_Jan_25_1132,ConditionRich,2021.2.3,59.942766646416935,
102.0,102.75,6,0.75,Stimuli/P006/sun_bbzkhzmxdjrfjpjz.jpg,0,0,0.0,0,166,166,166,,,,,,,,,,,,,102.00659590000032,0.006595900000320398,None,,133.38970579999977,133.38970579999977,133.38970579999977,133.38970579999977,133.38970579999977,133.38970579999977,133.38970579999977,133.38970579999977,133.38970579999977,133.38970579999977,002,P006,2025_Jan_25_1132,ConditionRich,2021.2.3,59.942766646416935,
102.75,103.0,41,0.0,Stimuli/Blank.png,0,0,0.0,0,167,167,167,,,,,,,,,,,,,102.77294440000014,0.022944400000142195,None,,134.14036259999966,134.14036259999966,134.14036259999966,134.14036259999966,134.14036259999966,134.14036259999966,134.14036259999966,134.14036259999966,134.14036259999966,134.14036259999966,002,P006,2025_Jan_25_1132,ConditionRich,2021.2.3,59.942766646416935,
103.0,103.75,6,0.75,Stimuli/P006/sun_bbzkhzmxdjrfjpjz.jpg,0,0,0.0,0,168,168,168,,,,,,,,,,,,,103.00730750000002,0.007307500000024447,None,,134.37390379999988,134.37390379999988,134.37390379999988,134.37390379999988,134.37390379999988,134.37390379999988,134.37390379999988,134.37390379999988,134.37390379999988,134.37390379999988,002,P006,2025_Jan_25_1132,ConditionRich,2021.2.3,59.942766646416935,
103.75,104.0,41,0.0,Stimuli/Blank.png,0,0,0.0,0,169,169,169,,,,,,,,,,,,,103.75767020000012,0.007670200000120531,5,0.2129994000001716,135.12456810000003,135.12456810000003,135.12456810000003,135.12456810000003,135.12456810000003,135.12456810000003,135.12456810000003,135.12456810000003,135.12456810000003,135.12456810000003,002,P006,2025_Jan_25_1132,ConditionRich,2021.2.3,59.942766646416935,
104.0,104.75,28,0.75,Stimuli/P006/things_girl_03s.jpg,0,0,0.0,0,170,170,170,,,,,,,,,,,,,104.00813210000024,0.008132100000239006,None,,135.3914789999999,135.3914789999999,135.3914789999999,135.3914789999999,135.3914789999999,135.3914789999999,135.3914789999999,135.3914789999999,135.3914789999999,135.3914789999999,002,P006,2025_Jan_25_1132,ConditionRich,2021.2.3,59.942766646416935,
104.75,105.0,41,0.0,Stimuli/Blank.png,0,0,0.0,0,171,171,171,,,,,,,,,,,,,104.77553450000005,0.025534500000048865,None,,136.1421723999997,136.1421723999997,136.1421723999997,136.1421723999997,136.1421723999997,136.1421723999997,136.1421723999997,136.1421723999997,136.1421723999997,136.1421723999997,002,P006,2025_Jan_25_1132,ConditionRich,2021.2.3,59.942766646416935,
105.0,105.75,28,0.75,Stimuli/P006/things_girl_03s.jpg,0,0,0.0,0,172,172,172,,,,,,,,,,,,,105.00906340000029,0.009063400000286492,None,,136.3923467999998,136.3923467999998,136.3923467999998,136.3923467999998,136.3923467999998,136.3923467999998,136.3923467999998,136.3923467999998,136.3923467999998,136.3923467999998,002,P006,2025_Jan_25_1132,ConditionRich,2021.2.3,59.942766646416935,
105.75,106.0,41,0.0,Stimuli/Blank.png,0,0,0.0,0,173,173,173,,,,,,,,,,,,,105.77691240000013,0.0269124000001284,5,0.19439169999986916,137.1430175999999,137.1430175999999,137.1430175999999,137.1430175999999,137.1430175999999,137.1430175999999,137.1430175999999,137.1430175999999,137.1430175999999,137.1430175999999,002,P006,2025_Jan_25_1132,ConditionRich,2021.2.3,59.942766646416935,
106.0,106.75,28,0.75,Stimuli/P006/things_girl_03s.jpg,0,0,0.0,0,174,174,174,,,,,,,,,,,,,106.00980909999998,0.009809099999984028,None,,137.3765512,137.3765512,137.3765512,137.3765512,137.3765512,137.3765512,137.3765512,137.3765512,137.3765512,137.3765512,002,P006,2025_Jan_25_1132,ConditionRich,2021.2.3,59.942766646416935,
106.75,107.0,41,0.0,Stimuli/Blank.png,0,0,0.0,0,175,175,175,,,,,,,,,,,,,106.75971160000017,0.009711600000173348,None,,138.12726320000002,138.12726320000002,138.12726320000002,138.12726320000002,138.12726320000002,138.12726320000002,138.12726320000002,138.12726320000002,138.12726320000002,138.12726320000002,002,P006,2025_Jan_25_1132,ConditionRich,2021.2.3,59.942766646416935,
107.0,107.75,28,0.75,Stimuli/P006/things_girl_03s.jpg,0,0,0.0,0,176,176,176,,,,,,,,,,,,,107.01089790000015,0.010897900000145455,None,,138.37743969999974,138.37743969999974,138.37743969999974,138.37743969999974,138.37743969999974,138.37743969999974,138.37743969999974,138.37743969999974,138.37743969999974,138.37743969999974,002,P006,2025_Jan_25_1132,ConditionRich,2021.2.3,59.942766646416935,
107.75,108.0,41,0.0,Stimuli/Blank.png,0,0,0.0,0,177,177,177,,,,,,,,,,,,,107.76169680000021,0.011696800000208896,5,0.20946989999993093,139.1281199,139.1281199,139.1281199,139.1281199,139.1281199,139.1281199,139.1281199,139.1281199,139.1281199,139.1281199,002,P006,2025_Jan_25_1132,ConditionRich,2021.2.3,59.942766646416935,
108.0,108.75,20,0.75,Stimuli/P006/sun_dvxuxzytfdbjyzit.jpg,0,0,0.0,0,178,178,178,,,,,,,,,,,,,108.01140890000033,0.011408900000333233,None,,139.37832329999992,139.37832329999992,139.37832329999992,139.37832329999992,139.37832329999992,139.37832329999992,139.37832329999992,139.37832329999992,139.37832329999992,139.37832329999992,002,P006,2025_Jan_25_1132,ConditionRich,2021.2.3,59.942766646416935,
108.75,109.0,41,0.0,Stimuli/Blank.png,0,0,0.0,0,179,179,179,,,,,,,,,,,,,108.76150030000008,0.011500300000079733,None,,140.12898649999988,140.12898649999988,140.12898649999988,140.12898649999988,140.12898649999988,140.12898649999988,140.12898649999988,140.12898649999988,140.12898649999988,140.12898649999988,002,P006,2025_Jan_25_1132,ConditionRich,2021.2.3,59.942766646416935,
109.0,109.75,20,0.75,Stimuli/P006/sun_dvxuxzytfdbjyzit.jpg,0,0,0.0,0,180,180,180,,,,,,,,,,,,,109.01179460000003,0.011794600000030186,None,,140.3791981999998,140.3791981999998,140.3791981999998,140.3791981999998,140.3791981999998,140.3791981999998,140.3791981999998,140.3791981999998,140.3791981999998,140.3791981999998,002,P006,2025_Jan_25_1132,ConditionRich,2021.2.3,59.942766646416935,
109.75,110.0,41,0.0,Stimuli/Blank.png,0,0,0.0,0,181,181,181,,,,,,,,,,,,,109.76278110000021,0.012781100000211154,5,0.20774840000012773,141.12986219999993,141.12986219999993,141.12986219999993,141.12986219999993,141.12986219999993,141.12986219999993,141.12986219999993,141.12986219999993,141.12986219999993,141.12986219999993,002,P006,2025_Jan_25_1132,ConditionRich,2021.2.3,59.942766646416935,
110.0,110.75,20,0.75,Stimuli/P006/sun_dvxuxzytfdbjyzit.jpg,0,0,0.0,0,182,182,182,,,,,,,,,,,,,110.01316160000033,0.013161600000330509,None,,141.3967760999999,141.3967760999999,141.3967760999999,141.3967760999999,141.3967760999999,141.3967760999999,141.3967760999999,141.3967760999999,141.3967760999999,141.3967760999999,002,P006,2025_Jan_25_1132,ConditionRich,2021.2.3,59.942766646416935,
110.75,111.0,41,0.0,Stimuli/Blank.png,0,0,0.0,0,183,183,183,,,,,,,,,,,,,110.78064320000021,0.030643200000213255,None,,142.14744359999986,142.14744359999986,142.14744359999986,142.14744359999986,142.14744359999986,142.14744359999986,142.14744359999986,142.14744359999986,142.14744359999986,142.14744359999986,002,P006,2025_Jan_25_1132,ConditionRich,2021.2.3,59.942766646416935,
111.0,111.75,20,0.75,Stimuli/P006/sun_dvxuxzytfdbjyzit.jpg,0,0,0.0,0,184,184,184,,,,,,,,,,,,,111.01637460000029,0.01637460000029023,None,,142.39765739999984,142.39765739999984,142.39765739999984,142.39765739999984,142.39765739999984,142.39765739999984,142.39765739999984,142.39765739999984,142.39765739999984,142.39765739999984,002,P006,2025_Jan_25_1132,ConditionRich,2021.2.3,59.942766646416935,
111.75,112.0,41,0.0,Stimuli/Blank.png,0,0,0.0,0,185,185,185,,,,,,,,,,,,,111.76666470000009,0.016664700000092125,5,0.18909850000000006,143.14832069999966,143.14832069999966,143.14832069999966,143.14832069999966,143.14832069999966,143.14832069999966,143.14832069999966,143.14832069999966,143.14832069999966,143.14832069999966,002,P006,2025_Jan_25_1132,ConditionRich,2021.2.3,59.942766646416935,
112.0,112.75,30,0.75,Stimuli/P006/things_hood_03s.jpg,0,0,0.0,0,186,186,186,,,,,,,,,,,,,112.01477879999993,0.014778799999930925,None,,143.3818541999999,143.3818541999999,143.3818541999999,143.3818541999999,143.3818541999999,143.3818541999999,143.3818541999999,143.3818541999999,143.3818541999999,143.3818541999999,002,P006,2025_Jan_25_1132,ConditionRich,2021.2.3,59.942766646416935,
112.75,113.0,41,0.0,Stimuli/Blank.png,0,0,0.0,0,187,187,187,,,,,,,,,,,,,112.76570579999998,0.0157057999999779,None,,144.13252629999988,144.13252629999988,144.13252629999988,144.13252629999988,144.13252629999988,144.13252629999988,144.13252629999988,144.13252629999988,144.13252629999988,144.13252629999988,002,P006,2025_Jan_25_1132,ConditionRich,2021.2.3,59.942766646416935,
113.0,113.75,30,0.75,Stimuli/P006/things_hood_03s.jpg,0,0,0.0,0,188,188,188,,,,,,,,,,,,,113.00110970000014,0.001109700000142766,None,,144.38273630000003,144.38273630000003,144.38273630000003,144.38273630000003,144.38273630000003,144.38273630000003,144.38273630000003,144.38273630000003,144.38273630000003,144.38273630000003,002,P006,2025_Jan_25_1132,ConditionRich,2021.2.3,59.942766646416935,
113.75,114.0,41,0.0,Stimuli/Blank.png,0,0,0.0,0,189,189,189,,,,,,,,,,,,,113.7667521000003,0.01675210000030347,None,,145.13340749999998,145.13340749999998,145.13340749999998,145.13340749999998,145.13340749999998,145.13340749999998,145.13340749999998,145.13340749999998,145.13340749999998,145.13340749999998,002,P006,2025_Jan_25_1132,ConditionRich,2021.2.3,59.942766646416935,
114.0,114.75,30,0.75,Stimuli/P006/things_hood_03s.jpg,0,0,0.0,0,190,190,190,,,,,,,,,,,,,113.99934520000033,-0.0006547999996655562,None,,145.36694769999986,145.36694769999986,145.36694769999986,145.36694769999986,145.36694769999986,145.36694769999986,145.36694769999986,145.36694769999986,145.36694769999986,145.36694769999986,002,P006,2025_Jan_25_1132,ConditionRich,2021.2.3,59.942766646416935,
114.75,115.0,41,0.0,Stimuli/Blank.png,0,0,0.0,0,191,191,191,,,,,,,,,,,,,114.75159310000026,0.001593100000263803,None,,146.11761660000002,146.11761660000002,146.11761660000002,146.11761660000002,146.11761660000002,146.11761660000002,146.11761660000002,146.11761660000002,146.11761660000002,146.11761660000002,002,P006,2025_Jan_25_1132,ConditionRich,2021.2.3,59.942766646416935,
115.0,115.75,30,0.75,Stimuli/P006/things_hood_03s.jpg,0,0,0.0,0,192,192,192,,,,,,,,,,,,,115.00186329999997,0.0018632999999681488,None,,146.38452479999978,146.38452479999978,146.38452479999978,146.38452479999978,146.38452479999978,146.38452479999978,146.38452479999978,146.38452479999978,146.38452479999978,146.38452479999978,002,P006,2025_Jan_25_1132,ConditionRich,2021.2.3,59.942766646416935,
115.75,116.0,41,0.0,Stimuli/Blank.png,0,0,0.0,0,193,193,193,,,,,,,,,,,,,115.7710333,0.021033299999999144,5,0.18573379999997996,147.1519902,147.1519902,147.1519902,147.1519902,147.1519902,147.1519902,147.1519902,147.1519902,147.1519902,147.1519902,002,P006,2025_Jan_25_1132,ConditionRich,2021.2.3,59.942766646416935,
116.0,116.75,22,0.75,Stimuli/P006/things_baby_03s.jpg,0,0,0.0,0,194,194,194,,,,,,,,,,,,,116.01839090000021,0.01839090000021315,None,,147.38539339999988,147.38539339999988,147.38539339999988,147.38539339999988,147.38539339999988,147.38539339999988,147.38539339999988,147.38539339999988,147.38539339999988,147.38539339999988,002,P006,2025_Jan_25_1132,ConditionRich,2021.2.3,59.942766646416935,
116.75,117.0,41,0.0,Stimuli/Blank.png,0,0,0.0,0,195,195,195,,,,,,,,,,,,,116.75274040000022,0.0027404000002206885,None,,148.1193728999997,148.1193728999997,148.1193728999997,148.1193728999997,148.1193728999997,148.1193728999997,148.1193728999997,148.1193728999997,148.1193728999997,148.1193728999997,002,P006,2025_Jan_25_1132,ConditionRich,2021.2.3,59.942766646416935,
117.0,117.75,22,0.75,Stimuli/P006/things_baby_03s.jpg,0,0,0.0,0,196,196,196,,,,,,,,,,,,,117.00219719999996,0.0021971999999550462,None,,148.36958679999998,148.36958679999998,148.36958679999998,148.36958679999998,148.36958679999998,148.36958679999998,148.36958679999998,148.36958679999998,148.36958679999998,148.36958679999998,002,P006,2025_Jan_25_1132,ConditionRich,2021.2.3,59.942766646416935,
117.75,118.0,41,0.0,Stimuli/Blank.png,0,0,0.0,0,197,197,197,,,,,,,,,,,,,117.7531242,0.00312420000000202,5,0.2171742999998969,149.12025449999965,149.12025449999965,149.12025449999965,149.12025449999965,149.12025449999965,149.12025449999965,149.12025449999965,149.12025449999965,149.12025449999965,149.12025449999965,002,P006,2025_Jan_25_1132,ConditionRich,2021.2.3,59.942766646416935,
118.0,118.75,22,0.75,Stimuli/P006/things_baby_03s.jpg,0,0,0.0,0,198,198,198,,,,,,,,,,,,,118.0033668000001,0.003366800000094372,None,,149.387162,149.387162,149.387162,149.387162,149.387162,149.387162,149.387162,149.387162,149.387162,149.387162,002,P006,2025_Jan_25_1132,ConditionRich,2021.2.3,59.942766646416935,
118.75,119.0,41,0.0,Stimuli/Blank.png,0,0,0.0,0,199,199,199,,,,,,,,,,,,,118.77182140000014,0.021821400000135327,None,,150.13792049999984,150.13792049999984,150.13792049999984,150.13792049999984,150.13792049999984,150.13792049999984,150.13792049999984,150.13792049999984,150.13792049999984,150.13792049999984,002,P006,2025_Jan_25_1132,ConditionRich,2021.2.3,59.942766646416935,
119.0,119.75,22,0.75,Stimuli/P006/things_baby_03s.jpg,0,0,0.0,0,200,200,200,,,,,,,,,,,,,119.0046467000002,0.00464670000019396,None,,150.3713585999999,150.3713585999999,150.3713585999999,150.3713585999999,150.3713585999999,150.3713585999999,150.3713585999999,150.3713585999999,150.3713585999999,150.3713585999999,002,P006,2025_Jan_25_1132,ConditionRich,2021.2.3,59.942766646416935,
119.75,120.0,41,0.0,Stimuli/Blank.png,0,0,0.0,0,201,201,201,,,,,,,,,,,,,119.75673510000024,0.0067351000002418004,5,0.19884140000021944,151.1387083999998,151.1387083999998,151.1387083999998,151.1387083999998,151.1387083999998,151.1387083999998,151.1387083999998,151.1387083999998,151.1387083999998,151.1387083999998,002,P006,2025_Jan_25_1132,ConditionRich,2021.2.3,59.942766646416935,
120.0,120.75,8,0.75,Stimuli/P006/sun_bekkgqphzbclwpvb.jpg,0,0,0.0,0,202,202,202,,,,,,,,,,,,,120.02222720000009,0.022227200000088487,None,,151.4056332,151.4056332,151.4056332,151.4056332,151.4056332,151.4056332,151.4056332,151.4056332,151.4056332,151.4056332,002,P006,2025_Jan_25_1132,ConditionRich,2021.2.3,59.942766646416935,
120.75,121.0,41,0.0,Stimuli/Blank.png,0,0,0.0,0,203,203,203,,,,,,,,,,,,,120.7733376000001,0.02333760000010443,None,,152.13966459999983,152.13966459999983,152.13966459999983,152.13966459999983,152.13966459999983,152.13966459999983,152.13966459999983,152.13966459999983,152.13966459999983,152.13966459999983,002,P006,2025_Jan_25_1132,ConditionRich,2021.2.3,59.942766646416935,
121.0,121.75,8,0.75,Stimuli/P006/sun_bekkgqphzbclwpvb.jpg,1,0,0.75,0,204,204,204,,,,,,,,,,,,,121.00753200000008,0.007532000000082917,1,0.4549084000000221,152.38980420000007,152.38980420000007,152.38980420000007,152.38980420000007,152.38980420000007,152.38980420000007,152.38980420000007,153.1238285999998,152.38980420000007,152.38980420000007,002,P006,2025_Jan_25_1132,ConditionRich,2021.2.3,59.942766646416935,
121.75,122.0,41,0.0,Stimuli/Blank.png,0,0,0.0,0,205,205,205,,,,,,,,,,,,,121.77450750000025,0.024507500000254367,5,0.19706689999975424,153.14048639999965,153.14048639999965,153.14048639999965,153.14048639999965,153.14048639999965,153.14048639999965,153.14048639999965,153.14048639999965,153.14048639999965,153.14048639999965,002,P006,2025_Jan_25_1132,ConditionRich,2021.2.3,59.942766646416935,
122.0,122.75,8,0.75,Stimuli/P006/sun_bekkgqphzbclwpvb.jpg,0,0,0.0,0,206,206,206,,,,,,,,,,,,,122.00741830000015,0.007418300000153977,None,,153.3907132999998,153.3907132999998,153.3907132999998,153.3907132999998,153.3907132999998,153.3907132999998,153.3907132999998,153.3907132999998,153.3907132999998,153.3907132999998,002,P006,2025_Jan_25_1132,ConditionRich,2021.2.3,59.942766646416935,
122.75,123.0,41,0.0,Stimuli/Blank.png,0,0,0.0,0,207,207,207,,,,,,,,,,,,,122.77612619999991,0.02612619999990784,None,,154.15805269999964,154.15805269999964,154.15805269999964,154.15805269999964,154.15805269999964,154.15805269999964,154.15805269999964,154.15805269999964,154.15805269999964,154.15805269999964,002,P006,2025_Jan_25_1132,ConditionRich,2021.2.3,59.942766646416935,
123.0,123.75,8,0.75,Stimuli/P006/sun_bekkgqphzbclwpvb.jpg,0,0,0.0,0,208,208,208,,,,,,,,,,,,,123.02646410000034,0.026464100000339386,None,,154.40826349999998,154.40826349999998,154.40826349999998,154.40826349999998,154.40826349999998,154.40826349999998,154.40826349999998,154.40826349999998,154.40826349999998,154.40826349999998,002,P006,2025_Jan_25_1132,ConditionRich,2021.2.3,59.942766646416935,
123.75,124.0,41,0.0,Stimuli/Blank.png,0,0,0.0,0,209,209,209,,,,,,,,,,,,,123.77565790000017,0.02565790000016932,5,0.19523079999999027,155.14223839999977,155.14223839999977,155.14223839999977,155.14223839999977,155.14223839999977,155.14223839999977,155.14223839999977,155.14223839999977,155.14223839999977,155.14223839999977,002,P006,2025_Jan_25_1132,ConditionRich,2021.2.3,59.942766646416935,
124.0,124.75,9,0.75,Stimuli/P006/sun_bfcmdrojsffdttzu.jpg,0,0,0.0,0,210,210,210,,,,,,,,,,,,,124.00908359999994,0.009083599999939906,None,,155.3757714999997,155.3757714999997,155.3757714999997,155.3757714999997,155.3757714999997,155.3757714999997,155.3757714999997,155.3757714999997,155.3757714999997,155.3757714999997,002,P006,2025_Jan_25_1132,ConditionRich,2021.2.3,59.942766646416935,
124.75,125.0,41,0.0,Stimuli/Blank.png,0,0,0.0,0,211,211,211,,,,,,,,,,,,,124.76133630000004,0.011336300000039046,None,,156.14314269999977,156.14314269999977,156.14314269999977,156.14314269999977,156.14314269999977,156.14314269999977,156.14314269999977,156.14314269999977,156.14314269999977,156.14314269999977,002,P006,2025_Jan_25_1132,ConditionRich,2021.2.3,59.942766646416935,
125.0,125.75,9,0.75,Stimuli/P006/sun_bfcmdrojsffdttzu.jpg,0,0,0.0,0,212,212,212,,,,,,,,,,,,,125.02655950000008,0.026559500000075786,None,,156.39335399999982,156.39335399999982,156.39335399999982,156.39335399999982,156.39335399999982,156.39335399999982,156.39335399999982,156.39335399999982,156.39335399999982,156.39335399999982,002,P006,2025_Jan_25_1132,ConditionRich,2021.2.3,59.942766646416935,
125.75,126.0,41,0.0,Stimuli/Blank.png,0,0,0.0,0,213,213,213,,,,,,,,,,,,,125.75984340000014,0.009843400000136171,5,0.21009539999977278,157.12733099999969,157.12733099999969,157.12733099999969,157.12733099999969,157.12733099999969,157.12733099999969,157.12733099999969,157.12733099999969,157.12733099999969,157.12733099999969,002,P006,2025_Jan_25_1132,ConditionRich,2021.2.3,59.942766646416935,
126.0,126.75,9,0.75,Stimuli/P006/sun_bfcmdrojsffdttzu.jpg,0,0,0.0,0,214,214,214,,,,,,,,,,,,,126.01207730000033,0.01207730000032825,None,,157.39422259999992,157.39422259999992,157.39422259999992,157.39422259999992,157.39422259999992,157.39422259999992,157.39422259999992,157.39422259999992,157.39422259999992,157.39422259999992,002,P006,2025_Jan_25_1132,ConditionRich,2021.2.3,59.942766646416935,
126.75,127.0,41,0.0,Stimuli/Blank.png,0,0,0.0,0,215,215,215,,,,,,,,,,,,,126.77829079999992,0.028290799999922456,None,,158.14491309999994,158.14491309999994,158.14491309999994,158.14491309999994,158.14491309999994,158.14491309999994,158.14491309999994,158.14491309999994,158.14491309999994,158.14491309999994,002,P006,2025_Jan_25_1132,ConditionRich,2021.2.3,59.942766646416935,
127.0,127.75,9,0.75,Stimuli/P006/sun_bfcmdrojsffdttzu.jpg,0,0,0.0,0,216,216,216,,,,,,,,,,,,,127.0115466000002,0.011546600000201579,None,,158.3951318999998,158.3951318999998,158.3951318999998,158.3951318999998,158.3951318999998,158.3951318999998,158.3951318999998,158.3951318999998,158.3951318999998,158.3951318999998,002,P006,2025_Jan_25_1132,ConditionRich,2021.2.3,59.942766646416935,
127.75,128.0,41,0.0,Stimuli/Blank.png,0,0,0.0,0,217,217,217,,,,,,,,,,,,,127.78090410000004,0.0309041000000434,5,0.17523879999998826,159.16246060000003,159.16246060000003,159.16246060000003,159.16246060000003,159.16246060000003,159.16246060000003,159.16246060000003,159.16246060000003,159.16246060000003,159.16246060000003,002,P006,2025_Jan_25_1132,ConditionRich,2021.2.3,59.942766646416935,
128.0,128.75,16,0.75,Stimuli/P006/sun_bwentnobehmvaxkp.jpg,0,0,0.0,0,218,218,218,,,,,,,,,,,,,128.03128620000007,0.031286200000067765,None,,159.41267549999975,159.41267549999975,159.41267549999975,159.41267549999975,159.41267549999975,159.41267549999975,159.41267549999975,159.41267549999975,159.41267549999975,159.41267549999975,002,P006,2025_Jan_25_1132,ConditionRich,2021.2.3,59.942766646416935,
128.75,129.0,41,0.0,Stimuli/Blank.png,0,0,0.0,0,219,219,219,,,,,,,,,,,,,128.7815412,0.031541199999992386,None,,160.1633379,160.1633379,160.1633379,160.1633379,160.1633379,160.1633379,160.1633379,160.1633379,160.1633379,160.1633379,002,P006,2025_Jan_25_1132,ConditionRich,2021.2.3,59.942766646416935,
129.0,129.75,16,0.75,Stimuli/P006/sun_bwentnobehmvaxkp.jpg,0,0,0.0,0,220,220,220,,,,,,,,,,,,,129.03098290000025,0.03098290000025372,None,,160.41355199999998,160.41355199999998,160.41355199999998,160.41355199999998,160.41355199999998,160.41355199999998,160.41355199999998,160.41355199999998,160.41355199999998,160.41355199999998,002,P006,2025_Jan_25_1132,ConditionRich,2021.2.3,59.942766646416935,
129.75,130.0,41,0.0,Stimuli/Blank.png,0,0,0.0,0,221,221,221,,,,,,,,,,,,,129.7814010000002,0.031401000000187196,5,0.18993389999968713,161.14754409999978,161.14754409999978,161.14754409999978,161.14754409999978,161.14754409999978,161.14754409999978,161.14754409999978,161.14754409999978,161.14754409999978,161.14754409999978,002,P006,2025_Jan_25_1132,ConditionRich,2021.2.3,59.942766646416935,
130.0,130.75,16,0.75,Stimuli/P006/sun_bwentnobehmvaxkp.jpg,0,0,0.0,0,222,222,222,,,,,,,,,,,,,130.0148148000003,0.014814800000294781,None,,161.3977534999999,161.3977534999999,161.3977534999999,161.3977534999999,161.3977534999999,161.3977534999999,161.3977534999999,161.3977534999999,161.3977534999999,161.3977534999999,002,P006,2025_Jan_25_1132,ConditionRich,2021.2.3,59.942766646416935,
130.75,131.0,41,0.0,Stimuli/Blank.png,0,0,0.0,0,223,223,223,,,,,,,,,,,,,130.78165070000023,0.031650700000227516,None,,162.14842339999996,162.14842339999996,162.14842339999996,162.14842339999996,162.14842339999996,162.14842339999996,162.14842339999996,162.14842339999996,162.14842339999996,162.14842339999996,002,P006,2025_Jan_25_1132,ConditionRich,2021.2.3,59.942766646416935,
131.0,131.75,16,0.75,Stimuli/P006/sun_bwentnobehmvaxkp.jpg,0,0,0.0,0,224,224,224,,,,,,,,,,,,,131.01556930000015,0.015569300000151998,None,,162.39864129999978,162.39864129999978,162.39864129999978,162.39864129999978,162.39864129999978,162.39864129999978,162.39864129999978,162.39864129999978,162.39864129999978,162.39864129999978,002,P006,2025_Jan_25_1132,ConditionRich,2021.2.3,59.942766646416935,
131.75,132.0,41,0.0,Stimuli/Blank.png,0,0,0.0,0,225,225,225,,,,,,,,,,,,,131.7665092000002,0.016509200000200508,None,,163.13263009999991,163.13263009999991,163.13263009999991,163.13263009999991,163.13263009999991,163.13263009999991,163.13263009999991,163.13263009999991,163.13263009999991,163.13263009999991,002,P006,2025_Jan_25_1132,ConditionRich,2021.2.3,59.942766646416935,
132.0,132.75,11,0.75,Stimuli/P006/sun_bjoocjyyhsmsbprr.jpg,0,0,0.0,0,226,226,226,,,,,,,,,,,,,131.99927990000015,-0.0007200999998531188,None,,163.3661649999999,163.3661649999999,163.3661649999999,163.3661649999999,163.3661649999999,163.3661649999999,163.3661649999999,163.3661649999999,163.3661649999999,163.3661649999999,002,P006,2025_Jan_25_1132,ConditionRich,2021.2.3,59.942766646416935,
132.75,133.0,41,0.0,Stimuli/Blank.png,0,0,0.0,0,227,227,227,,,,,,,,,,,,,132.75203520000014,0.0020352000001366832,None,,164.13351369999964,164.13351369999964,164.13351369999964,164.13351369999964,164.13351369999964,164.13351369999964,164.13351369999964,164.13351369999964,164.13351369999964,164.13351369999964,002,P006,2025_Jan_25_1132,ConditionRich,2021.2.3,59.942766646416935,
133.0,133.75,11,0.75,Stimuli/P006/sun_bjoocjyyhsmsbprr.jpg,0,0,0.0,0,228,228,228,,,,,,,,,,,,,133.0168982,0.016898200000014185,None,,164.40042670000003,164.40042670000003,164.40042670000003,164.40042670000003,164.40042670000003,164.40042670000003,164.40042670000003,164.40042670000003,164.40042670000003,164.40042670000003,002,P006,2025_Jan_25_1132,ConditionRich,2021.2.3,59.942766646416935,
133.75,134.0,41,0.0,Stimuli/Blank.png,0,0,0.0,0,229,229,229,,,,,,,,,,,,,133.7670734000003,0.017073400000299443,None,,165.13439059999973,165.13439059999973,165.13439059999973,165.13439059999973,165.13439059999973,165.13439059999973,165.13439059999973,165.13439059999973,165.13439059999973,165.13439059999973,002,P006,2025_Jan_25_1132,ConditionRich,2021.2.3,59.942766646416935,
134.0,134.75,11,0.75,Stimuli/P006/sun_bjoocjyyhsmsbprr.jpg,0,0,0.0,0,230,230,230,,,,,,,,,,,,,134.00127509999993,0.0012750999999298074,None,,165.36806959999967,165.36806959999967,165.36806959999967,165.36806959999967,165.36806959999967,165.36806959999967,165.36806959999967,165.36806959999967,165.36806959999967,165.36806959999967,002,P006,2025_Jan_25_1132,ConditionRich,2021.2.3,59.942766646416935,
134.75,135.0,41,0.0,Stimuli/Blank.png,0,0,0.0,0,231,231,231,,,,,,,,,,,,,134.75264060000018,0.0026406000001770735,None,,166.13529739999967,166.13529739999967,166.13529739999967,166.13529739999967,166.13529739999967,166.13529739999967,166.13529739999967,166.13529739999967,166.13529739999967,166.13529739999967,002,P006,2025_Jan_25_1132,ConditionRich,2021.2.3,59.942766646416935,
135.0,135.75,11,0.75,Stimuli/P006/sun_bjoocjyyhsmsbprr.jpg,0,0,0.0,0,232,232,232,,,,,,,,,,,,,135.0183452000001,0.018345200000112527,None,,166.40218860000004,166.40218860000004,166.40218860000004,166.40218860000004,166.40218860000004,166.40218860000004,166.40218860000004,166.40218860000004,166.40218860000004,166.40218860000004,002,P006,2025_Jan_25_1132,ConditionRich,2021.2.3,59.942766646416935,
135.75,136.0,41,0.0,Stimuli/Blank.png,0,0,0.0,0,233,233,233,,,,,,,,,,,,,135.77136689999998,0.02136689999997543,5,0.18456479999986186,167.15284079999992,167.15284079999992,167.15284079999992,167.15284079999992,167.15284079999992,167.15284079999992,167.15284079999992,167.15284079999992,167.15284079999992,167.15284079999992,002,P006,2025_Jan_25_1132,ConditionRich,2021.2.3,59.942766646416935,
136.0,136.75,29,0.75,Stimuli/P006/things_guillotine_03s.jpg,0,0,0.0,0,234,234,234,,,,,,,,,,,,,136.01974530000007,0.0197453000000678,None,,167.38637889999973,167.38637889999973,167.38637889999973,167.38637889999973,167.38637889999973,167.38637889999973,167.38637889999973,167.38637889999973,167.38637889999973,167.38637889999973,002,P006,2025_Jan_25_1132,ConditionRich,2021.2.3,59.942766646416935,
136.75,137.0,41,0.0,Stimuli/Blank.png,0,0,0.0,0,235,235,235,,,,,,,,,,,,,136.7536398000002,0.003639800000200921,None,,168.1203762,168.1203762,168.1203762,168.1203762,168.1203762,168.1203762,168.1203762,168.1203762,168.1203762,168.1203762,002,P006,2025_Jan_25_1132,ConditionRich,2021.2.3,59.942766646416935,
137.0,137.75,29,0.75,Stimuli/P006/things_guillotine_03s.jpg,0,0,0.0,0,236,236,236,,,,,,,,,,,,,137.00323640000033,0.003236400000332651,None,,168.3872736999997,168.3872736999997,168.3872736999997,168.3872736999997,168.3872736999997,168.3872736999997,168.3872736999997,168.3872736999997,168.3872736999997,168.3872736999997,002,P006,2025_Jan_25_1132,ConditionRich,2021.2.3,59.942766646416935,
137.75,138.0,41,0.0,Stimuli/Blank.png,0,0,0.0,0,237,237,237,,,,,,,,,,,,,137.77177419999998,0.021774199999981647,5,0.19950040000003355,169.1379336,169.1379336,169.1379336,169.1379336,169.1379336,169.1379336,169.1379336,169.1379336,169.1379336,169.1379336,002,P006,2025_Jan_25_1132,ConditionRich,2021.2.3,59.942766646416935,
138.0,138.75,29,0.75,Stimuli/P006/things_guillotine_03s.jpg,0,0,0.0,0,238,238,238,,,,,,,,,,,,,138.00459210000008,0.0045921000000817,None,,169.3714630999998,169.3714630999998,169.3714630999998,169.3714630999998,169.3714630999998,169.3714630999998,169.3714630999998,169.3714630999998,169.3714630999998,169.3714630999998,002,P006,2025_Jan_25_1132,ConditionRich,2021.2.3,59.942766646416935,
138.75,139.0,41,0.0,Stimuli/Blank.png,0,0,0.0,0,239,239,239,,,,,,,,,,,,,138.75455490000013,0.0045549000001301465,None,,170.12218200000007,170.12218200000007,170.12218200000007,170.12218200000007,170.12218200000007,170.12218200000007,170.12218200000007,170.12218200000007,170.12218200000007,170.12218200000007,002,P006,2025_Jan_25_1132,ConditionRich,2021.2.3,59.942766646416935,
139.0,139.75,29,0.75,Stimuli/P006/things_guillotine_03s.jpg,0,0,0.0,0,240,240,240,,,,,,,,,,,,,139.00545749999992,0.005457499999920401,None,,170.37235259999989,170.37235259999989,170.37235259999989,170.37235259999989,170.37235259999989,170.37235259999989,170.37235259999989,170.37235259999989,170.37235259999989,170.37235259999989,002,P006,2025_Jan_25_1132,ConditionRich,2021.2.3,59.942766646416935,
139.75,140.0,41,0.0,Stimuli/Blank.png,0,0,0.0,0,241,241,241,,,,,,,,,,,,,139.7569642000003,0.0069642000003113935,5,0.21451260000003458,171.1230155999997,171.1230155999997,171.1230155999997,171.1230155999997,171.1230155999997,171.1230155999997,171.1230155999997,171.1230155999997,171.1230155999997,171.1230155999997,002,P006,2025_Jan_25_1132,ConditionRich,2021.2.3,59.942766646416935,
140.0,140.75,33,0.75,Stimuli/P006/things_man_03s.jpg,0,0,0.0,0,242,242,242,,,,,,,,,,,,,140.00572580000016,0.005725800000163872,None,,171.3732332999998,171.3732332999998,171.3732332999998,171.3732332999998,171.3732332999998,171.3732332999998,171.3732332999998,171.3732332999998,171.3732332999998,171.3732332999998,002,P006,2025_Jan_25_1132,ConditionRich,2021.2.3,59.942766646416935,
140.75,141.0,41,0.0,Stimuli/Blank.png,0,0,0.0,0,243,243,243,,,,,,,,,,,,,140.75649070000009,0.006490700000085781,None,,172.12389499999972,172.12389499999972,172.12389499999972,172.12389499999972,172.12389499999972,172.12389499999972,172.12389499999972,172.12389499999972,172.12389499999972,172.12389499999972,002,P006,2025_Jan_25_1132,ConditionRich,2021.2.3,59.942766646416935,
141.0,141.75,33,0.75,Stimuli/P006/things_man_03s.jpg,0,0,0.0,0,244,244,244,,,,,,,,,,,,,141.00688760000003,0.006887600000027305,None,,172.37412019999965,172.37412019999965,172.37412019999965,172.37412019999965,172.37412019999965,172.37412019999965,172.37412019999965,172.37412019999965,172.37412019999965,172.37412019999965,002,P006,2025_Jan_25_1132,ConditionRich,2021.2.3,59.942766646416935,
141.75,142.0,41,0.0,Stimuli/Blank.png,0,0,0.0,0,245,245,245,,,,,,,,,,,,,141.75771320000013,0.007713200000125653,5,0.2127043999998932,173.1247773,173.1247773,173.1247773,173.1247773,173.1247773,173.1247773,173.1247773,173.1247773,173.1247773,173.1247773,002,P006,2025_Jan_25_1132,ConditionRich,2021.2.3,59.942766646416935,
142.0,142.75,33,0.75,Stimuli/P006/things_man_03s.jpg,0,0,0.0,0,246,246,246,,,,,,,,,,,,,142.00836560000016,0.008365600000161066,None,,173.39168699999982,173.39168699999982,173.39168699999982,173.39168699999982,173.39168699999982,173.39168699999982,173.39168699999982,173.39168699999982,173.39168699999982,173.39168699999982,002,P006,2025_Jan_25_1132,ConditionRich,2021.2.3,59.942766646416935,
142.75,143.0,41,0.0,Stimuli/Blank.png,0,0,0.0,0,247,247,247,,,,,,,,,,,,,142.77583840000034,0.02583840000033888,None,,174.14235400000007,174.14235400000007,174.14235400000007,174.14235400000007,174.14235400000007,174.14235400000007,174.14235400000007,174.14235400000007,174.14235400000007,174.14235400000007,002,P006,2025_Jan_25_1132,ConditionRich,2021.2.3,59.942766646416935,
143.0,143.75,33,0.75,Stimuli/P006/things_man_03s.jpg,0,0,0.0,0,248,248,248,,,,,,,,,,,,,143.00855530000035,0.008555300000352872,None,,174.3758954,174.3758954,174.3758954,174.3758954,174.3758954,174.3758954,174.3758954,174.3758954,174.3758954,174.3758954,002,P006,2025_Jan_25_1132,ConditionRich,2021.2.3,59.942766646416935,
143.75,144.0,41,0.0,Stimuli/Blank.png,0,0,0.0,0,249,249,249,,,,,,,,,,,,,143.76152750000028,0.011527500000283908,5,0.1941673000001174,175.14323379999996,175.14323379999996,175.14323379999996,175.14323379999996,175.14323379999996,175.14323379999996,175.14323379999996,175.14323379999996,175.14323379999996,175.14323379999996,002,P006,2025_Jan_25_1132,ConditionRich,2021.2.3,59.942766646416935,
144.0,144.75,15,0.75,Stimuli/P006/sun_btkzuhaxqlacvmsv.jpg,0,0,0.0,0,250,250,250,,,,,,,,,,,,,144.02688510000007,0.02688510000007227,None,,175.3934618999997,175.3934618999997,175.3934618999997,175.3934618999997,175.3934618999997,175.3934618999997,175.3934618999997,175.3934618999997,175.3934618999997,175.3934618999997,002,P006,2025_Jan_25_1132,ConditionRich,2021.2.3,59.942766646416935,
144.75,145.0,41,0.0,Stimuli/Blank.png,0,0,0.0,0,251,251,251,,,,,,,,,,,,,144.76145940000015,0.01145940000014889,None,,176.12740379999968,176.12740379999968,176.12740379999968,176.12740379999968,176.12740379999968,176.12740379999968,176.12740379999968,176.12740379999968,176.12740379999968,176.12740379999968,002,P006,2025_Jan_25_1132,ConditionRich,2021.2.3,59.942766646416935,
145.0,145.75,15,0.75,Stimuli/P006/sun_btkzuhaxqlacvmsv.jpg,1,0,0.75,0,252,252,252,,,,,,,,,,,,,145.01085790000025,0.010857900000246445,1,0.505237599999873,176.39432639999995,176.39432639999995,176.39432639999995,176.39432639999995,176.39432639999995,176.39432639999995,176.39432639999995,177.11165819999997,176.39432639999995,176.39432639999995,002,P006,2025_Jan_25_1132,ConditionRich,2021.2.3,59.942766646416935,
145.75,146.0,41,0.0,Stimuli/Blank.png,0,0,0.0,0,253,253,253,,,,,,,,,,,,,145.7786083000001,0.028608300000087183,5,0.1756814000000304,177.16168889999972,177.16168889999972,177.16168889999972,177.16168889999972,177.16168889999972,177.16168889999972,177.16168889999972,177.16168889999972,177.16168889999972,177.16168889999972,002,P006,2025_Jan_25_1132,ConditionRich,2021.2.3,59.942766646416935,
146.0,146.75,15,0.75,Stimuli/P006/sun_btkzuhaxqlacvmsv.jpg,0,0,0.0,0,254,254,254,,,,,,,,,,,,,146.02858890000016,0.0285889000001589,None,,177.39521190000005,177.39521190000005,177.39521190000005,177.39521190000005,177.39521190000005,177.39521190000005,177.39521190000005,177.39521190000005,177.39521190000005,177.39521190000005,002,P006,2025_Jan_25_1132,ConditionRich,2021.2.3,59.942766646416935,
146.75,147.0,41,0.0,Stimuli/Blank.png,0,0,0.0,0,255,255,255,,,,,,,,,,,,,146.7625862,0.012586199999987002,None,,178.1291971999999,178.1291971999999,178.1291971999999,178.1291971999999,178.1291971999999,178.1291971999999,178.1291971999999,178.1291971999999,178.1291971999999,178.1291971999999,002,P006,2025_Jan_25_1132,ConditionRich,2021.2.3,59.942766646416935,
147.0,147.75,15,0.75,Stimuli/P006/sun_btkzuhaxqlacvmsv.jpg,0,0,0.0,0,256,256,256,,,,,,,,,,,,,147.01204959999995,0.012049599999954808,None,,178.37941639999963,178.37941639999963,178.37941639999963,178.37941639999963,178.37941639999963,178.37941639999963,178.37941639999963,178.37941639999963,178.37941639999963,178.37941639999963,002,P006,2025_Jan_25_1132,ConditionRich,2021.2.3,59.942766646416935,
147.75,148.0,41,0.0,Stimuli/Blank.png,0,0,0.0,0,257,257,257,,,,,,,,,,,,,147.76291820000006,0.012918200000058278,5,0.20750360000010915,179.13007889999972,179.13007889999972,179.13007889999972,179.13007889999972,179.13007889999972,179.13007889999972,179.13007889999972,179.13007889999972,179.13007889999972,179.13007889999972,002,P006,2025_Jan_25_1132,ConditionRich,2021.2.3,59.942766646416935,
148.0,148.75,39,0.75,Stimuli/P006/things_train_set_03s.jpg,0,0,0.0,0,258,258,258,,,,,,,,,,,,,148.01343240000006,0.013432400000056077,None,,179.39699159999964,179.39699159999964,179.39699159999964,179.39699159999964,179.39699159999964,179.39699159999964,179.39699159999964,179.39699159999964,179.39699159999964,179.39699159999964,002,P006,2025_Jan_25_1132,ConditionRich,2021.2.3,59.942766646416935,
148.75,149.0,41,0.0,Stimuli/Blank.png,0,0,0.0,0,259,259,259,,,,,,,,,,,,,148.7807361,0.03073610000001281,None,,180.14764809999997,180.14764809999997,180.14764809999997,180.14764809999997,180.14764809999997,180.14764809999997,180.14764809999997,180.14764809999997,180.14764809999997,180.14764809999997,002,P006,2025_Jan_25_1132,ConditionRich,2021.2.3,59.942766646416935,
149.0,149.75,39,0.75,Stimuli/P006/things_train_set_03s.jpg,0,0,0.0,0,260,260,260,,,,,,,,,,,,,149.01514080000015,0.015140800000153831,None,,180.39785649999976,180.39785649999976,180.39785649999976,180.39785649999976,180.39785649999976,180.39785649999976,180.39785649999976,180.39785649999976,180.39785649999976,180.39785649999976,002,P006,2025_Jan_25_1132,ConditionRich,2021.2.3,59.942766646416935,
