eventStartTime,eventEndTime,eventCond,imSize,imFile,responseEvent,fixRespStart,fixRespEnd,Events.thisRepN,Events.thisTrialN,Events.thisN,Events.thisIndex,Instructions.started,Instructions.stopped,participantReadyResponse.keys,participantReadyResponse.rt,participantReadyResponse.started,participantReadyResponse.stopped,startWaitforTrigger,triggerResponse.keys,triggerResponse.rt,triggerResponse.started,triggerResponse.stopped,globalTimer,actualStartTime,startTimingDiff,participantResponse.keys,participantResponse.rt,participantResponse.started,participantResponse.stopped,image.started,image.stopped,fixationOutside.started,fixationOutside.stopped,fixationResponse.started,fixationResponse.stopped,fixationInside.started,fixationInside.stopped,session,participant,date,expName,psychopyVersion,frameRate,
,,,,,,,,,,,,12.323087400000077,None,1,5.273084499999641,12.323087400000077,None,,,,,,,,,,,,,,,,,,,,,003,P006,2025_Jan_25_1139,ConditionRich,2021.2.3,59.92423180131913,
,,,,,,,,,,,,,,,,,,17.615078000000267,5,17.136867100000018,17.628215799999907,None,,,,,,,,,,,,,,,,003,P006,2025_Jan_25_1139,ConditionRich,2021.2.3,59.92423180131913,
0.0,4.0,0,0.0,Stimuli/Blank.png,0,0.0,0.0,0,0,0,0,,,,,,,,,,,,34.779817600000115,0.018014099999618338,0.018014099999618338,5,3.955076100000042,34.810000800000125,None,34.810000800000125,None,34.810000800000125,None,34.810000800000125,34.810000800000125,34.810000800000125,None,003,P006,2025_Jan_25_1139,ConditionRich,2021.2.3,59.92423180131913,
4.0,4.75,20,0.75,Stimuli/P006/sun_dvxuxzytfdbjyzit.jpg,0,0.0,0.0,0,1,1,1,,,,,,,,,,,,,4.003078999999616,0.0030789999996159167,None,,38.7972391000003,38.7972391000003,38.7972391000003,38.7972391000003,38.7972391000003,38.7972391000003,38.7972391000003,38.7972391000003,38.7972391000003,38.7972391000003,003,P006,2025_Jan_25_1139,ConditionRich,2021.2.3,59.92423180131913,
4.75,8.0,41,0.0,Stimuli/Blank.png,1,2.25,3.0,0,2,2,2,,,,,,,,,,,,,4.753410999999687,0.003410999999687192,5,3.217230499999914,39.5478207000001,39.5478207000001,39.5478207000001,39.5478207000001,39.5478207000001,39.5478207000001,41.78285249999999,42.53348640000013,39.5478207000001,39.5478207000001,003,P006,2025_Jan_25_1139,ConditionRich,2021.2.3,59.92423180131913,
8.0,8.75,27,0.75,Stimuli/P006/things_first-aid_kit_03s.jpg,0,0.0,0.0,0,3,3,3,,,,,,,,,,,,,8.00653659999989,0.0065365999998903135,None,,42.8003561999999,42.8003561999999,42.8003561999999,42.8003561999999,42.8003561999999,42.8003561999999,42.8003561999999,42.8003561999999,42.8003561999999,42.8003561999999,003,P006,2025_Jan_25_1139,ConditionRich,2021.2.3,59.92423180131913,
8.75,12.0,41,0.0,Stimuli/Blank.png,0,0.0,0.0,0,4,4,4,,,,,,,,,,,,,8.757485199999792,0.007485199999791803,5,3.213985800000046,43.55109360000006,43.55109360000006,43.55109360000006,43.55109360000006,43.55109360000006,43.55109360000006,43.55109360000006,43.55109360000006,43.55109360000006,43.55109360000006,003,P006,2025_Jan_25_1139,ConditionRich,2021.2.3,59.92423180131913,
12.0,12.75,35,0.75,Stimuli/P006/things_pig_03s.jpg,0,0.0,0.0,0,5,5,5,,,,,,,,,,,,,12.010501699999622,0.01050169999962236,None,,46.803921300000184,46.803921300000184,46.803921300000184,46.803921300000184,46.803921300000184,46.803921300000184,46.803921300000184,46.803921300000184,46.803921300000184,46.803921300000184,003,P006,2025_Jan_25_1139,ConditionRich,2021.2.3,59.92423180131913,
12.75,16.0,41,0.0,Stimuli/Blank.png,0,0.0,0.0,0,6,6,6,,,,,,,,,,,,,12.760265899999922,0.010265899999922112,5,3.210465099999965,47.55459440000004,47.55459440000004,47.55459440000004,47.55459440000004,47.55459440000004,47.55459440000004,47.55459440000004,47.55459440000004,47.55459440000004,47.55459440000004,003,P006,2025_Jan_25_1139,ConditionRich,2021.2.3,59.92423180131913,
16.0,16.75,19,0.75,Stimuli/P006/sun_czspalxthlkjwoat.jpg,0,0.0,0.0,0,7,7,7,,,,,,,,,,,,,16.013354100000015,0.013354100000015023,None,,50.80746189999991,50.80746189999991,50.80746189999991,50.80746189999991,50.80746189999991,50.80746189999991,50.80746189999991,50.80746189999991,50.80746189999991,50.80746189999991,003,P006,2025_Jan_25_1139,ConditionRich,2021.2.3,59.92423180131913,
16.75,20.0,41,0.0,Stimuli/Blank.png,0,0.0,0.0,0,8,8,8,,,,,,,,,,,,,16.764076199999636,0.014076199999635719,5,1.206940499999746,51.558116900000186,51.558116900000186,51.558116900000186,51.558116900000186,51.558116900000186,51.558116900000186,51.558116900000186,51.558116900000186,51.558116900000186,51.558116900000186,003,P006,2025_Jan_25_1139,ConditionRich,2021.2.3,59.92423180131913,
20.0,20.75,40,0.75,Stimuli/P006/things_woman_03s.jpg,0,0.0,0.0,0,9,9,9,,,,,,,,,,,,,20.00030939999988,0.00030939999987822375,None,,54.79431449999993,54.79431449999993,54.79431449999993,54.79431449999993,54.79431449999993,54.79431449999993,54.79431449999993,54.79431449999993,54.79431449999993,54.79431449999993,003,P006,2025_Jan_25_1139,ConditionRich,2021.2.3,59.92423180131913,
20.75,24.0,41,0.0,Stimuli/Blank.png,0,0.0,0.0,0,10,10,10,,,,,,,,,,,,,20.75050609999971,0.0005060999997112958,5,1.220980199999758,55.5449665000001,55.5449665000001,55.5449665000001,55.5449665000001,55.5449665000001,55.5449665000001,55.5449665000001,55.5449665000001,55.5449665000001,55.5449665000001,003,P006,2025_Jan_25_1139,ConditionRich,2021.2.3,59.92423180131913,
24.0,24.75,29,0.75,Stimuli/P006/things_guillotine_03s.jpg,0,0.0,0.0,0,11,11,11,,,,,,,,,,,,,24.00398449999966,0.003984499999660329,None,,58.79786439999998,58.79786439999998,58.79786439999998,58.79786439999998,58.79786439999998,58.79786439999998,58.79786439999998,58.79786439999998,58.79786439999998,58.79786439999998,003,P006,2025_Jan_25_1139,ConditionRich,2021.2.3,59.92423180131913,
24.75,28.0,41,0.0,Stimuli/Blank.png,0,0.0,0.0,0,12,12,12,,,,,,,,,,,,,24.7549240999997,0.004924099999698228,5,3.217471099999784,59.548545600000125,59.548545600000125,59.548545600000125,59.548545600000125,59.548545600000125,59.548545600000125,59.548545600000125,59.548545600000125,59.548545600000125,59.548545600000125,003,P006,2025_Jan_25_1139,ConditionRich,2021.2.3,59.92423180131913,
28.0,28.75,22,0.75,Stimuli/P006/things_baby_03s.jpg,0,0.0,0.0,0,13,13,13,,,,,,,,,,,,,28.00784049999993,0.007840499999929307,None,,62.80136590000029,62.80136590000029,62.80136590000029,62.80136590000029,62.80136590000029,62.80136590000029,62.80136590000029,62.80136590000029,62.80136590000029,62.80136590000029,003,P006,2025_Jan_25_1139,ConditionRich,2021.2.3,59.92423180131913,
28.75,32.0,41,0.0,Stimuli/Blank.png,0,0.0,0.0,0,14,14,14,,,,,,,,,,,,,28.759745500000008,0.009745500000008178,5,3.1974232000002303,63.56873070000029,63.56873070000029,63.56873070000029,63.56873070000029,63.56873070000029,63.56873070000029,63.56873070000029,63.56873070000029,63.56873070000029,63.56873070000029,003,P006,2025_Jan_25_1139,ConditionRich,2021.2.3,59.92423180131913,
32.0,32.75,39,0.75,Stimuli/P006/things_train_set_03s.jpg,0,0.0,0.0,0,15,15,15,,,,,,,,,,,,,32.0298415999996,0.029841599999599566,None,,66.83826630000021,66.83826630000021,66.83826630000021,66.83826630000021,66.83826630000021,66.83826630000021,66.83826630000021,66.83826630000021,66.83826630000021,66.83826630000021,003,P006,2025_Jan_25_1139,ConditionRich,2021.2.3,59.92423180131913,
32.75,36.0,41,0.0,Stimuli/Blank.png,0,0.0,0.0,0,16,16,16,,,,,,,,,,,,,32.77834929999972,0.028349299999717914,5,3.19402429999991,67.57229910000024,67.57229910000024,67.57229910000024,67.57229910000024,67.57229910000024,67.57229910000024,67.57229910000024,67.57229910000024,67.57229910000024,67.57229910000024,003,P006,2025_Jan_25_1139,ConditionRich,2021.2.3,59.92423180131913,
36.0,36.75,36,0.75,Stimuli/P006/things_pony_03s.jpg,0,0.0,0.0,0,17,17,17,,,,,,,,,,,,,36.01427889999968,0.014278899999681016,None,,70.80845330000011,70.80845330000011,70.80845330000011,70.80845330000011,70.80845330000011,70.80845330000011,70.80845330000011,70.80845330000011,70.80845330000011,70.80845330000011,003,P006,2025_Jan_25_1139,ConditionRich,2021.2.3,59.92423180131913,
36.75,40.0,41,0.0,Stimuli/Blank.png,0,0.0,0.0,0,18,18,18,,,,,,,,,,,,,36.764861999999994,0.014861999999993714,5,1.2071831999996903,71.55908670000008,71.55908670000008,71.55908670000008,71.55908670000008,71.55908670000008,71.55908670000008,71.55908670000008,71.55908670000008,71.55908670000008,71.55908670000008,003,P006,2025_Jan_25_1139,ConditionRich,2021.2.3,59.92423180131913,
40.0,40.75,32,0.75,Stimuli/P006/things_jumpsuit_03s.jpg,0,0.0,0.0,0,19,19,19,,,,,,,,,,,,,40.00148509999963,0.001485099999626982,None,,74.79529000000002,74.79529000000002,74.79529000000002,74.79529000000002,74.79529000000002,74.79529000000002,74.79529000000002,74.79529000000002,74.79529000000002,74.79529000000002,003,P006,2025_Jan_25_1139,ConditionRich,2021.2.3,59.92423180131913,
40.75,44.0,41,0.0,Stimuli/Blank.png,1,0.25,1.0,0,20,20,20,,,,,,,,,,,,,40.75183259999994,0.0018325999999433407,5,3.2201375999998163,75.54595180000024,75.54595180000024,75.54595180000024,75.54595180000024,75.54595180000024,75.54595180000024,75.7794815000002,76.53019010000025,75.54595180000024,75.54595180000024,003,P006,2025_Jan_25_1139,ConditionRich,2021.2.3,59.92423180131913,
44.0,44.75,38,0.75,Stimuli/P006/things_sledgehammer_03s.jpg,0,0.0,0.0,0,21,21,21,,,,,,,,,,,,,44.00470239999959,0.0047023999995872146,None,,78.79882589999988,78.79882589999988,78.79882589999988,78.79882589999988,78.79882589999988,78.79882589999988,78.79882589999988,78.79882589999988,78.79882589999988,78.79882589999988,003,P006,2025_Jan_25_1139,ConditionRich,2021.2.3,59.92423180131913,
44.75,48.0,41,0.0,Stimuli/Blank.png,0,0.0,0.0,0,22,22,22,,,,,,,,,,,,,44.75592059999963,0.005920599999626575,5,3.2164091999998163,79.54953090000026,79.54953090000026,79.54953090000026,79.54953090000026,79.54953090000026,79.54953090000026,79.54953090000026,79.54953090000026,79.54953090000026,79.54953090000026,003,P006,2025_Jan_25_1139,ConditionRich,2021.2.3,59.92423180131913,
48.0,48.75,18,0.75,Stimuli/P006/sun_bzqhpcsgzswozfhs.jpg,0,0.0,0.0,0,23,23,23,,,,,,,,,,,,,48.010459399999945,0.010459399999945163,None,,82.81903910000028,82.81903910000028,82.81903910000028,82.81903910000028,82.81903910000028,82.81903910000028,82.81903910000028,82.81903910000028,82.81903910000028,82.81903910000028,003,P006,2025_Jan_25_1139,ConditionRich,2021.2.3,59.92423180131913,
48.75,52.0,41,0.0,Stimuli/Blank.png,0,0.0,0.0,0,24,24,24,,,,,,,,,,,,,48.775896199999806,0.025896199999806413,5,3.1962389000000258,83.56970120000005,83.56970120000005,83.56970120000005,83.56970120000005,83.56970120000005,83.56970120000005,83.56970120000005,83.56970120000005,83.56970120000005,83.56970120000005,003,P006,2025_Jan_25_1139,ConditionRich,2021.2.3,59.92423180131913,
52.0,52.75,26,0.75,Stimuli/P006/things_face_03s.jpg,0,0.0,0.0,0,25,25,25,,,,,,,,,,,,,52.012331899999936,0.012331899999935558,None,,86.80588209999996,86.80588209999996,86.80588209999996,86.80588209999996,86.80588209999996,86.80588209999996,86.80588209999996,86.80588209999996,86.80588209999996,86.80588209999996,003,P006,2025_Jan_25_1139,ConditionRich,2021.2.3,59.92423180131913,
52.75,56.0,41,0.0,Stimuli/Blank.png,0,0.0,0.0,0,26,26,26,,,,,,,,,,,,,52.76224689999981,0.012246899999809102,5,3.2094076999997014,87.55654559999994,87.55654559999994,87.55654559999994,87.55654559999994,87.55654559999994,87.55654559999994,87.55654559999994,87.55654559999994,87.55654559999994,87.55654559999994,003,P006,2025_Jan_25_1139,ConditionRich,2021.2.3,59.92423180131913,
56.0,56.75,34,0.75,Stimuli/P006/things_patty_03s.jpg,0,0.0,0.0,0,27,27,27,,,,,,,,,,,,,56.01527259999966,0.015272599999661907,None,,90.80941849999999,90.80941849999999,90.80941849999999,90.80941849999999,90.80941849999999,90.80941849999999,90.80941849999999,90.80941849999999,90.80941849999999,90.80941849999999,003,P006,2025_Jan_25_1139,ConditionRich,2021.2.3,59.92423180131913,
56.75,60.0,41,0.0,Stimuli/Blank.png,0,0.0,0.0,0,28,28,28,,,,,,,,,,,,,56.749687099999846,-0.0003129000001536042,5,1.2226418000000194,91.54340760000014,91.54340760000014,91.54340760000014,91.54340760000014,91.54340760000014,91.54340760000014,91.54340760000014,91.54340760000014,91.54340760000014,91.54340760000014,003,P006,2025_Jan_25_1139,ConditionRich,2021.2.3,59.92423180131913,
60.0,60.75,10,0.75,Stimuli/P006/sun_bgnxbfhmwhliypvg.jpg,0,0.0,0.0,0,29,29,29,,,,,,,,,,,,,60.00248039999997,0.0024803999999676307,None,,94.79627100000016,94.79627100000016,94.79627100000016,94.79627100000016,94.79627100000016,94.79627100000016,94.79627100000016,94.79627100000016,94.79627100000016,94.79627100000016,003,P006,2025_Jan_25_1139,ConditionRich,2021.2.3,59.92423180131913,
60.75,64.0,41,0.0,Stimuli/Blank.png,0,0.0,0.0,0,30,30,30,,,,,,,,,,,,,60.75240529999974,0.0024052999997365987,5,3.219034499999907,95.5469521,95.5469521,95.5469521,95.5469521,95.5469521,95.5469521,95.5469521,95.5469521,95.5469521,95.5469521,003,P006,2025_Jan_25_1139,ConditionRich,2021.2.3,59.92423180131913,
64.0,64.75,9,0.75,Stimuli/P006/sun_bfcmdrojsffdttzu.jpg,1,0.0,0.75,0,31,31,31,,,,,,,,,,,,,64.0063253999997,0.0063253999996959465,1,0.644259300000158,98.7998032999999,98.7998032999999,98.7998032999999,98.7998032999999,98.7998032999999,98.7998032999999,98.7998032999999,99.53377959999989,98.7998032999999,98.7998032999999,003,P006,2025_Jan_25_1139,ConditionRich,2021.2.3,59.92423180131913,
64.75,68.0,41,0.0,Stimuli/Blank.png,0,0.0,0.0,0,32,32,32,,,,,,,,,,,,,64.7561426999996,0.006142699999600154,5,3.215665500000341,99.55046649999986,99.55046649999986,99.55046649999986,99.55046649999986,99.55046649999986,99.55046649999986,99.55046649999986,99.55046649999986,99.55046649999986,99.55046649999986,003,P006,2025_Jan_25_1139,ConditionRich,2021.2.3,59.92423180131913,
68.0,68.75,37,0.75,Stimuli/P006/things_showerhead_03s.jpg,0,0.0,0.0,0,33,33,33,,,,,,,,,,,,,68.00940629999968,0.009406299999682233,None,,102.80334119999998,102.80334119999998,102.80334119999998,102.80334119999998,102.80334119999998,102.80334119999998,102.80334119999998,102.80334119999998,102.80334119999998,102.80334119999998,003,P006,2025_Jan_25_1139,ConditionRich,2021.2.3,59.92423180131913,
68.75,72.0,41,0.0,Stimuli/Blank.png,1,1.25,2.0,0,34,34,34,,,,,,,,,,,,,68.76051659999985,0.010516599999846221,5,3.2119995999996718,103.55400390000023,103.55400390000023,103.55400390000023,103.55400390000023,103.55400390000023,103.55400390000023,104.78842910000003,105.53908619999993,103.55400390000023,103.55400390000023,003,P006,2025_Jan_25_1139,ConditionRich,2021.2.3,59.92423180131913,
72.0,72.75,15,0.75,Stimuli/P006/sun_btkzuhaxqlacvmsv.jpg,0,0.0,0.0,0,35,35,35,,,,,,,,,,,,,72.01232979999986,0.01232979999986128,None,,106.80686950000018,106.80686950000018,106.80686950000018,106.80686950000018,106.80686950000018,106.80686950000018,106.80686950000018,106.80686950000018,106.80686950000018,106.80686950000018,003,P006,2025_Jan_25_1139,ConditionRich,2021.2.3,59.92423180131913,
72.75,76.0,41,0.0,Stimuli/Blank.png,0,0.0,0.0,0,36,36,36,,,,,,,,,,,,,72.76396179999983,0.013961799999833602,5,1.2083729000000858,107.55753950000008,107.55753950000008,107.55753950000008,107.55753950000008,107.55753950000008,107.55753950000008,107.55753950000008,107.55753950000008,107.55753950000008,107.55753950000008,003,P006,2025_Jan_25_1139,ConditionRich,2021.2.3,59.92423180131913,
76.0,76.75,31,0.75,Stimuli/P006/things_jukebox_03n.jpg,1,0.0,0.75,0,37,37,37,,,,,,,,,,,,,75.99983049999992,-0.0001695000000836444,None,,110.7937224000002,110.7937224000002,110.7937224000002,110.7937224000002,110.7937224000002,110.7937224000002,110.7937224000002,111.52769970000008,110.7937224000002,110.7937224000002,003,P006,2025_Jan_25_1139,ConditionRich,2021.2.3,59.92423180131913,
76.75,80.0,41,0.0,Stimuli/Blank.png,0,0.0,0.0,0,38,38,38,,,,,,,,,,,,,76.75001239999983,1.2399999832268804e-05,5,1.2216331999998147,111.54438819999996,111.54438819999996,111.54438819999996,111.54438819999996,111.54438819999996,111.54438819999996,111.54438819999996,111.54438819999996,111.54438819999996,111.54438819999996,003,P006,2025_Jan_25_1139,ConditionRich,2021.2.3,59.92423180131913,
80.0,80.75,21,0.75,Stimuli/P006/things_accordion_03s.jpg,0,0.0,0.0,0,39,39,39,,,,,,,,,,,,,80.00363059999972,0.003630599999723927,None,,114.81394159999991,114.81394159999991,114.81394159999991,114.81394159999991,114.81394159999991,114.81394159999991,114.81394159999991,114.81394159999991,114.81394159999991,114.81394159999991,003,P006,2025_Jan_25_1139,ConditionRich,2021.2.3,59.92423180131913,
80.75,84.0,41,0.0,Stimuli/Blank.png,0,0.0,0.0,0,40,40,40,,,,,,,,,,,,,80.7711304999998,0.021130499999799213,5,3.201398600000175,115.56460060000018,115.56460060000018,115.56460060000018,115.56460060000018,115.56460060000018,115.56460060000018,115.56460060000018,115.56460060000018,115.56460060000018,115.56460060000018,003,P006,2025_Jan_25_1139,ConditionRich,2021.2.3,59.92423180131913,
84.0,100.0,0,0.0,Stimuli/Blank.png,1,1.0,1.75,0,41,41,41,,,,,,,,,,,,,84.00656379999964,0.006563799999639741,5,15.965260800000124,118.80079650000016,118.80079650000016,118.80079650000016,118.80079650000016,118.80079650000016,118.80079650000016,119.78498350000018,120.53570070000023,118.80079650000016,118.80079650000016,003,P006,2025_Jan_25_1139,ConditionRich,2021.2.3,59.92423180131913,
100.0,100.75,3,0.75,Stimuli/P006/sun_asyidwmnobuawmax.jpg,1,0.0,0.75,0,42,42,42,,,,,,,,,,,,,100.00375199999962,0.0037519999996220577,1,0.5229662000001554,134.79824250000001,134.79824250000001,134.79824250000001,134.79824250000001,134.79824250000001,134.79824250000001,134.79824250000001,135.53224290000026,134.79824250000001,134.79824250000001,003,P006,2025_Jan_25_1139,ConditionRich,2021.2.3,59.92423180131913,
100.75,104.0,41,0.0,Stimuli/Blank.png,0,0.0,0.0,0,43,43,43,,,,,,,,,,,,,100.75551349999978,0.005513499999779015,5,3.2170271999998477,135.54891180000004,135.54891180000004,135.54891180000004,135.54891180000004,135.54891180000004,135.54891180000004,135.54891180000004,135.54891180000004,135.54891180000004,135.54891180000004,003,P006,2025_Jan_25_1139,ConditionRich,2021.2.3,59.92423180131913,
104.0,104.75,12,0.75,Stimuli/P006/sun_bodyuiqwqpqzwfoz.jpg,0,0.0,0.0,0,44,44,44,,,,,,,,,,,,,104.00960439999972,0.009604399999716406,None,,138.81846399999995,138.81846399999995,138.81846399999995,138.81846399999995,138.81846399999995,138.81846399999995,138.81846399999995,138.81846399999995,138.81846399999995,138.81846399999995,003,P006,2025_Jan_25_1139,ConditionRich,2021.2.3,59.92423180131913,
104.75,108.0,41,0.0,Stimuli/Blank.png,1,0.25,1.0,0,45,45,45,,,,,,,,,,,,,104.77557109999998,0.025571099999979197,5,3.196745999999621,139.56913020000002,139.56913020000002,139.56913020000002,139.56913020000002,139.56913020000002,139.56913020000002,139.80265129999998,140.55332260000023,139.56913020000002,139.56913020000002,003,P006,2025_Jan_25_1139,ConditionRich,2021.2.3,59.92423180131913,
108.0,108.75,5,0.75,Stimuli/P006/sun_axaqdcecfojvpvrl.jpg,0,0.0,0.0,0,46,46,46,,,,,,,,,,,,,108.01133249999975,0.011332499999753054,None,,142.8053076000001,142.8053076000001,142.8053076000001,142.8053076000001,142.8053076000001,142.8053076000001,142.8053076000001,142.8053076000001,142.8053076000001,142.8053076000001,003,P006,2025_Jan_25_1139,ConditionRich,2021.2.3,59.92423180131913,
108.75,112.0,41,0.0,Stimuli/Blank.png,0,0.0,0.0,0,47,47,47,,,,,,,,,,,,,108.76197869999987,0.011978699999872333,5,3.2102171999999882,143.55596960000003,143.55596960000003,143.55596960000003,143.55596960000003,143.55596960000003,143.55596960000003,143.55596960000003,143.55596960000003,143.55596960000003,143.55596960000003,003,P006,2025_Jan_25_1139,ConditionRich,2021.2.3,59.92423180131913,
112.0,112.75,1,0.75,Stimuli/P006/sun_adyhbxohydkpecty.jpg,0,0.0,0.0,0,48,48,48,,,,,,,,,,,,,112.01439649999975,0.014396499999747903,None,,146.80883940000012,146.80883940000012,146.80883940000012,146.80883940000012,146.80883940000012,146.80883940000012,146.80883940000012,146.80883940000012,146.80883940000012,146.80883940000012,003,P006,2025_Jan_25_1139,ConditionRich,2021.2.3,59.92423180131913,
112.75,116.0,41,0.0,Stimuli/Blank.png,0,0.0,0.0,0,49,49,49,,,,,,,,,,,,,112.7655249999998,0.015524999999797728,5,1.206665200000316,147.55951540000024,147.55951540000024,147.55951540000024,147.55951540000024,147.55951540000024,147.55951540000024,147.55951540000024,147.55951540000024,147.55951540000024,147.55951540000024,003,P006,2025_Jan_25_1139,ConditionRich,2021.2.3,59.92423180131913,
116.0,116.75,23,0.75,Stimuli/P006/things_beetle_03s.jpg,0,0.0,0.0,0,50,50,50,,,,,,,,,,,,,116.0016056999998,0.001605699999799981,None,,150.79569519999995,150.79569519999995,150.79569519999995,150.79569519999995,150.79569519999995,150.79569519999995,150.79569519999995,150.79569519999995,150.79569519999995,150.79569519999995,003,P006,2025_Jan_25_1139,ConditionRich,2021.2.3,59.92423180131913,
116.75,120.0,41,0.0,Stimuli/Blank.png,0,0.0,0.0,0,51,51,51,,,,,,,,,,,,,116.75204779999967,0.0020477999996728613,5,3.219850399999814,151.54642319999994,151.54642319999994,151.54642319999994,151.54642319999994,151.54642319999994,151.54642319999994,151.54642319999994,151.54642319999994,151.54642319999994,151.54642319999994,003,P006,2025_Jan_25_1139,ConditionRich,2021.2.3,59.92423180131913,
120.0,120.75,13,0.75,Stimuli/P006/sun_bruphbrfsbxowtlq.jpg,0,0.0,0.0,0,52,52,52,,,,,,,,,,,,,120.00478379999959,0.004783799999586336,None,,154.79921710000008,154.79921710000008,154.79921710000008,154.79921710000008,154.79921710000008,154.79921710000008,154.79921710000008,154.79921710000008,154.79921710000008,154.79921710000008,003,P006,2025_Jan_25_1139,ConditionRich,2021.2.3,59.92423180131913,
120.75,124.0,41,0.0,Stimuli/Blank.png,0,0.0,0.0,0,53,53,53,,,,,,,,,,,,,120.75576559999945,0.005765599999449478,5,3.216235599999891,155.54989190000015,155.54989190000015,155.54989190000015,155.54989190000015,155.54989190000015,155.54989190000015,155.54989190000015,155.54989190000015,155.54989190000015,155.54989190000015,003,P006,2025_Jan_25_1139,ConditionRich,2021.2.3,59.92423180131913,
124.0,124.75,11,0.75,Stimuli/P006/sun_bjoocjyyhsmsbprr.jpg,0,0.0,0.0,0,54,54,54,,,,,,,,,,,,,124.00869560000001,0.008695600000010018,None,,158.80276460000005,158.80276460000005,158.80276460000005,158.80276460000005,158.80276460000005,158.80276460000005,158.80276460000005,158.80276460000005,158.80276460000005,158.80276460000005,003,P006,2025_Jan_25_1139,ConditionRich,2021.2.3,59.92423180131913,
124.75,128.0,41,0.0,Stimuli/Blank.png,0,0.0,0.0,0,55,55,55,,,,,,,,,,,,,124.76011439999957,0.010114399999565649,5,3.212508699999489,159.5534305000001,159.5534305000001,159.5534305000001,159.5534305000001,159.5534305000001,159.5534305000001,159.5534305000001,159.5534305000001,159.5534305000001,159.5534305000001,003,P006,2025_Jan_25_1139,ConditionRich,2021.2.3,59.92423180131913,
128.0,128.75,16,0.75,Stimuli/P006/sun_bwentnobehmvaxkp.jpg,0,0.0,0.0,0,56,56,56,,,,,,,,,,,,,128.0118207999999,0.011820799999895826,None,,162.80629339999996,162.80629339999996,162.80629339999996,162.80629339999996,162.80629339999996,162.80629339999996,162.80629339999996,162.80629339999996,162.80629339999996,162.80629339999996,003,P006,2025_Jan_25_1139,ConditionRich,2021.2.3,59.92423180131913,
128.75,132.0,41,0.0,Stimuli/Blank.png,0,0.0,0.0,0,57,57,57,,,,,,,,,,,,,128.76482219999934,0.014822199999343866,5,3.192206400000032,163.5736423999997,163.5736423999997,163.5736423999997,163.5736423999997,163.5736423999997,163.5736423999997,163.5736423999997,163.5736423999997,163.5736423999997,163.5736423999997,003,P006,2025_Jan_25_1139,ConditionRich,2021.2.3,59.92423180131913,
132.0,132.75,2,0.75,Stimuli/P006/sun_ahmycohdkioefoxs.jpg,0,0.0,0.0,0,58,58,58,,,,,,,,,,,,,132.0162378,0.01623779999999897,None,,166.80982810000023,166.80982810000023,166.80982810000023,166.80982810000023,166.80982810000023,166.80982810000023,166.80982810000023,166.80982810000023,166.80982810000023,166.80982810000023,003,P006,2025_Jan_25_1139,ConditionRich,2021.2.3,59.92423180131913,
132.75,136.0,41,0.0,Stimuli/Blank.png,1,2.25,3.0,0,59,59,59,,,,,,,,,,,,,132.7502897999998,0.0002897999997912848,1,2.6802709999992658,167.54380909999963,167.54380909999963,167.54380909999963,167.54380909999963,167.54380909999963,167.54380909999963,169.7790998999999,170.5298125999998,167.54380909999963,167.54380909999963,003,P006,2025_Jan_25_1139,ConditionRich,2021.2.3,59.92423180131913,
136.0,136.75,17,0.75,Stimuli/P006/sun_bwsictslfxygpqbp.jpg,0,0.0,0.0,0,60,60,60,,,,,,,,,,,,,136.00517100000025,0.00517100000024584,None,,170.81336809999993,170.81336809999993,170.81336809999993,170.81336809999993,170.81336809999993,170.81336809999993,170.81336809999993,170.81336809999993,170.81336809999993,170.81336809999993,003,P006,2025_Jan_25_1139,ConditionRich,2021.2.3,59.92423180131913,
136.75,140.0,41,0.0,Stimuli/Blank.png,0,0.0,0.0,0,61,61,61,,,,,,,,,,,,,136.77054829999952,0.02054829999951835,5,3.201957599999332,171.5640297,171.5640297,171.5640297,171.5640297,171.5640297,171.5640297,171.5640297,171.5640297,171.5640297,171.5640297,003,P006,2025_Jan_25_1139,ConditionRich,2021.2.3,59.92423180131913,
140.0,140.75,6,0.75,Stimuli/P006/sun_bbzkhzmxdjrfjpjz.jpg,1,0.0,0.75,0,62,62,62,,,,,,,,,,,,,140.00603050000018,0.006030500000179018,1,0.57070720000047,174.8002120000001,174.8002120000001,174.8002120000001,174.8002120000001,174.8002120000001,174.8002120000001,174.8002120000001,175.53418330000022,174.8002120000001,174.8002120000001,003,P006,2025_Jan_25_1139,ConditionRich,2021.2.3,59.92423180131913,
140.75,144.0,41,0.0,Stimuli/Blank.png,0,0.0,0.0,0,63,63,63,,,,,,,,,,,,,140.75682109999934,0.00682109999934255,5,3.2151858999995966,175.55086839999967,175.55086839999967,175.55086839999967,175.55086839999967,175.55086839999967,175.55086839999967,175.55086839999967,175.55086839999967,175.55086839999967,175.55086839999967,003,P006,2025_Jan_25_1139,ConditionRich,2021.2.3,59.92423180131913,
144.0,144.75,8,0.75,Stimuli/P006/sun_bekkgqphzbclwpvb.jpg,0,0.0,0.0,0,64,64,64,,,,,,,,,,,,,144.01070149999987,0.010701499999868247,None,,178.82043880000037,178.82043880000037,178.82043880000037,178.82043880000037,178.82043880000037,178.82043880000037,178.82043880000037,178.82043880000037,178.82043880000037,178.82043880000037,003,P006,2025_Jan_25_1139,ConditionRich,2021.2.3,59.92423180131913,
144.75,148.0,41,0.0,Stimuli/Blank.png,0,0.0,0.0,0,65,65,65,,,,,,,,,,,,,144.7768420999996,0.0268420999996124,5,3.1948591000000306,179.57107460000043,179.57107460000043,179.57107460000043,179.57107460000043,179.57107460000043,179.57107460000043,179.57107460000043,179.57107460000043,179.57107460000043,179.57107460000043,003,P006,2025_Jan_25_1139,ConditionRich,2021.2.3,59.92423180131913,
148.0,148.75,25,0.75,Stimuli/P006/things_dog_03s.jpg,0,0.0,0.0,0,66,66,66,,,,,,,,,,,,,148.0135838000001,0.013583800000105839,None,,182.82395069999984,182.82395069999984,182.82395069999984,182.82395069999984,182.82395069999984,182.82395069999984,182.82395069999984,182.82395069999984,182.82395069999984,182.82395069999984,003,P006,2025_Jan_25_1139,ConditionRich,2021.2.3,59.92423180131913,
148.75,152.0,41,0.0,Stimuli/Blank.png,0,0.0,0.0,0,67,67,67,,,,,,,,,,,,,148.78100959999983,0.03100959999983388,5,1.1916276000001744,183.57462469999973,183.57462469999973,183.57462469999973,183.57462469999973,183.57462469999973,183.57462469999973,183.57462469999973,183.57462469999973,183.57462469999973,183.57462469999973,003,P006,2025_Jan_25_1139,ConditionRich,2021.2.3,59.92423180131913,
152.0,152.75,4,0.75,Stimuli/P006/sun_auwghripdoxzluuk.jpg,0,0.0,0.0,0,68,68,68,,,,,,,,,,,,,152.00005269999974,5.269999974188977e-05,None,,186.7941281000003,186.7941281000003,186.7941281000003,186.7941281000003,186.7941281000003,186.7941281000003,186.7941281000003,186.7941281000003,186.7941281000003,186.7941281000003,003,P006,2025_Jan_25_1139,ConditionRich,2021.2.3,59.92423180131913,
152.75,156.0,41,0.0,Stimuli/Blank.png,0,0.0,0.0,0,69,69,69,,,,,,,,,,,,,152.75105719999965,0.001057199999650038,5,1.2210722999998325,187.5447881,187.5447881,187.5447881,187.5447881,187.5447881,187.5447881,187.5447881,187.5447881,187.5447881,187.5447881,003,P006,2025_Jan_25_1139,ConditionRich,2021.2.3,59.92423180131913,
156.0,156.75,7,0.75,Stimuli/P006/sun_bdmdlkpsznknrcqi.jpg,0,0.0,0.0,0,70,70,70,,,,,,,,,,,,,156.00354079999988,0.003540799999882438,None,,190.79766070000005,190.79766070000005,190.79766070000005,190.79766070000005,190.79766070000005,190.79766070000005,190.79766070000005,190.79766070000005,190.79766070000005,190.79766070000005,003,P006,2025_Jan_25_1139,ConditionRich,2021.2.3,59.92423180131913,
156.75,160.0,41,0.0,Stimuli/Blank.png,0,0.0,0.0,0,71,71,71,,,,,,,,,,,,,156.7551269999999,0.005126999999902182,5,3.2175461999995605,191.54832119999992,191.54832119999992,191.54832119999992,191.54832119999992,191.54832119999992,191.54832119999992,191.54832119999992,191.54832119999992,191.54832119999992,191.54832119999992,003,P006,2025_Jan_25_1139,ConditionRich,2021.2.3,59.92423180131913,
160.0,160.75,24,0.75,Stimuli/P006/things_crab_03s.jpg,0,0.0,0.0,0,72,72,72,,,,,,,,,,,,,160.0068699999997,0.006869999999707943,None,,194.80119240000022,194.80119240000022,194.80119240000022,194.80119240000022,194.80119240000022,194.80119240000022,194.80119240000022,194.80119240000022,194.80119240000022,194.80119240000022,003,P006,2025_Jan_25_1139,ConditionRich,2021.2.3,59.92423180131913,
160.75,164.0,41,0.0,Stimuli/Blank.png,0,0.0,0.0,0,73,73,73,,,,,,,,,,,,,160.75982160000012,0.009821600000122999,5,3.197484500000428,195.56853760000013,195.56853760000013,195.56853760000013,195.56853760000013,195.56853760000013,195.56853760000013,195.56853760000013,195.56853760000013,195.56853760000013,195.56853760000013,003,P006,2025_Jan_25_1139,ConditionRich,2021.2.3,59.92423180131913,
164.0,164.75,14,0.75,Stimuli/P006/sun_bsirencncgxteejx.jpg,0,0.0,0.0,0,74,74,74,,,,,,,,,,,,,164.02798269999994,0.02798269999993863,None,,198.83808450000015,198.83808450000015,198.83808450000015,198.83808450000015,198.83808450000015,198.83808450000015,198.83808450000015,198.83808450000015,198.83808450000015,198.83808450000015,003,P006,2025_Jan_25_1139,ConditionRich,2021.2.3,59.92423180131913,
164.75,168.0,41,0.0,Stimuli/Blank.png,0,0.0,0.0,0,75,75,75,,,,,,,,,,,,,164.7800926999994,0.03009269999938624,5,3.177101300000686,199.5887548999999,199.5887548999999,199.5887548999999,199.5887548999999,199.5887548999999,199.5887548999999,199.5887548999999,199.5887548999999,199.5887548999999,199.5887548999999,003,P006,2025_Jan_25_1139,ConditionRich,2021.2.3,59.92423180131913,
168.0,168.75,28,0.75,Stimuli/P006/things_girl_03s.jpg,0,0.0,0.0,0,76,76,76,,,,,,,,,,,,,168.01417429999992,0.014174299999922368,None,,202.8082628000002,202.8082628000002,202.8082628000002,202.8082628000002,202.8082628000002,202.8082628000002,202.8082628000002,202.8082628000002,202.8082628000002,202.8082628000002,003,P006,2025_Jan_25_1139,ConditionRich,2021.2.3,59.92423180131913,
168.75,172.0,41,0.0,Stimuli/Blank.png,0,0.0,0.0,0,77,77,77,,,,,,,,,,,,,168.76480179999953,0.014801799999531795,5,1.2069274000004953,203.55892180000046,203.55892180000046,203.55892180000046,203.55892180000046,203.55892180000046,203.55892180000046,203.55892180000046,203.55892180000046,203.55892180000046,203.55892180000046,003,P006,2025_Jan_25_1139,ConditionRich,2021.2.3,59.92423180131913,
172.0,172.75,30,0.75,Stimuli/P006/things_hood_03s.jpg,0,0.0,0.0,0,78,78,78,,,,,,,,,,,,,172.00110780000023,0.0011078000002271438,None,,206.79513550000047,206.79513550000047,206.79513550000047,206.79513550000047,206.79513550000047,206.79513550000047,206.79513550000047,206.79513550000047,206.79513550000047,206.79513550000047,003,P006,2025_Jan_25_1139,ConditionRich,2021.2.3,59.92423180131913,
172.75,176.0,41,0.0,Stimuli/Blank.png,0,0.0,0.0,0,79,79,79,,,,,,,,,,,,,172.75198950000004,0.0019895000000360596,5,3.220042399999329,207.54577410000002,207.54577410000002,207.54577410000002,207.54577410000002,207.54577410000002,207.54577410000002,207.54577410000002,207.54577410000002,207.54577410000002,207.54577410000002,003,P006,2025_Jan_25_1139,ConditionRich,2021.2.3,59.92423180131913,
176.0,176.75,33,0.75,Stimuli/P006/things_man_03s.jpg,0,0.0,0.0,0,80,80,80,,,,,,,,,,,,,176.00502970000025,0.005029700000250159,None,,210.79863920000025,210.79863920000025,210.79863920000025,210.79863920000025,210.79863920000025,210.79863920000025,210.79863920000025,210.79863920000025,210.79863920000025,210.79863920000025,003,P006,2025_Jan_25_1139,ConditionRich,2021.2.3,59.92423180131913,
176.75,180.0,41,0.0,Stimuli/Blank.png,0,0.0,0.0,0,81,81,81,,,,,,,,,,,,,176.75500030000012,0.005000300000119751,5,3.2165555000001405,211.54930820000027,211.54930820000027,211.54930820000027,211.54930820000027,211.54930820000027,211.54930820000027,211.54930820000027,211.54930820000027,211.54930820000027,211.54930820000027,003,P006,2025_Jan_25_1139,ConditionRich,2021.2.3,59.92423180131913,
180.0,196.0,0,0.0,Stimuli/Blank.png,1,6.0,6.75,0,82,82,82,,,,,,,,,,,,,180.0089551999995,0.008955199999491015,5,15.963870699999461,214.80218179999974,214.80218179999974,214.80218179999974,214.80218179999974,214.80218179999974,214.80218179999974,220.79083549999996,221.5414939000002,214.80218179999974,214.80218179999974,003,P006,2025_Jan_25_1139,ConditionRich,2021.2.3,59.92423180131913,
196.0,196.75,35,0.75,Stimuli/P006/things_pig_03s.jpg,0,0.0,0.0,0,83,83,83,,,,,,,,,,,,,196.00548469999967,0.005484699999669829,None,,230.79963899999984,230.79963899999984,230.79963899999984,230.79963899999984,230.79963899999984,230.79963899999984,230.79963899999984,230.79963899999984,230.79963899999984,230.79963899999984,003,P006,2025_Jan_25_1139,ConditionRich,2021.2.3,59.92423180131913,
196.75,200.0,41,0.0,Stimuli/Blank.png,1,2.25,3.0,0,84,84,84,,,,,,,,,,,,,196.75644989999955,0.0064498999995521444,5,3.2155230999997,231.5502932999998,231.5502932999998,231.5502932999998,231.5502932999998,231.5502932999998,231.5502932999998,233.78559250000035,234.53626460000032,231.5502932999998,231.5502932999998,003,P006,2025_Jan_25_1139,ConditionRich,2021.2.3,59.92423180131913,
200.0,200.75,39,0.75,Stimuli/P006/things_train_set_03s.jpg,0,0.0,0.0,0,85,85,85,,,,,,,,,,,,,200.0091179999995,0.009117999999489257,None,,234.8031600000004,234.8031600000004,234.8031600000004,234.8031600000004,234.8031600000004,234.8031600000004,234.8031600000004,234.8031600000004,234.8031600000004,234.8031600000004,003,P006,2025_Jan_25_1139,ConditionRich,2021.2.3,59.92423180131913,
200.75,204.0,41,0.0,Stimuli/Blank.png,0,0.0,0.0,0,86,86,86,,,,,,,,,,,,,200.76000840000006,0.010008400000060647,5,3.2120366999997714,235.55382929999996,235.55382929999996,235.55382929999996,235.55382929999996,235.55382929999996,235.55382929999996,235.55382929999996,235.55382929999996,235.55382929999996,235.55382929999996,003,P006,2025_Jan_25_1139,ConditionRich,2021.2.3,59.92423180131913,
204.0,204.75,25,0.75,Stimuli/P006/things_dog_03s.jpg,0,0.0,0.0,0,87,87,87,,,,,,,,,,,,,204.0149354,0.014935400000013033,None,,238.8233783000005,238.8233783000005,238.8233783000005,238.8233783000005,238.8233783000005,238.8233783000005,238.8233783000005,238.8233783000005,238.8233783000005,238.8233783000005,003,P006,2025_Jan_25_1139,ConditionRich,2021.2.3,59.92423180131913,
204.75,208.0,41,0.0,Stimuli/Blank.png,0,0.0,0.0,0,88,88,88,,,,,,,,,,,,,204.7802590999995,0.030259099999511818,5,1.1920489999993151,239.57404709999992,239.57404709999992,239.57404709999992,239.57404709999992,239.57404709999992,239.57404709999992,239.57404709999992,239.57404709999992,239.57404709999992,239.57404709999992,003,P006,2025_Jan_25_1139,ConditionRich,2021.2.3,59.92423180131913,
208.0,208.75,7,0.75,Stimuli/P006/sun_bdmdlkpsznknrcqi.jpg,0,0.0,0.0,0,89,89,89,,,,,,,,,,,,,208.00010410000004,0.00010410000004412723,None,,242.7940294,242.7940294,242.7940294,242.7940294,242.7940294,242.7940294,242.7940294,242.7940294,242.7940294,242.7940294,003,P006,2025_Jan_25_1139,ConditionRich,2021.2.3,59.92423180131913,
208.75,212.0,41,0.0,Stimuli/Blank.png,0,0.0,0.0,0,90,90,90,,,,,,,,,,,,,208.7505372999999,0.0005372999999053718,5,1.2216047000001709,243.54420709999977,243.54420709999977,243.54420709999977,243.54420709999977,243.54420709999977,243.54420709999977,243.54420709999977,243.54420709999977,243.54420709999977,243.54420709999977,003,P006,2025_Jan_25_1139,ConditionRich,2021.2.3,59.92423180131913,
212.0,212.75,31,0.75,Stimuli/P006/things_jukebox_03n.jpg,0,0.0,0.0,0,91,91,91,,,,,,,,,,,,,212.00517480000008,0.005174800000077084,None,,246.81376590000036,246.81376590000036,246.81376590000036,246.81376590000036,246.81376590000036,246.81376590000036,246.81376590000036,246.81376590000036,246.81376590000036,246.81376590000036,003,P006,2025_Jan_25_1139,ConditionRich,2021.2.3,59.92423180131913,
212.75,216.0,41,0.0,Stimuli/Blank.png,0,0.0,0.0,0,92,92,92,,,,,,,,,,,,,212.77082130000008,0.020821300000079646,5,3.201495199999954,247.5644302999999,247.5644302999999,247.5644302999999,247.5644302999999,247.5644302999999,247.5644302999999,247.5644302999999,247.5644302999999,247.5644302999999,247.5644302999999,003,P006,2025_Jan_25_1139,ConditionRich,2021.2.3,59.92423180131913,
216.0,216.75,36,0.75,Stimuli/P006/things_pony_03s.jpg,0,0.0,0.0,0,93,93,93,,,,,,,,,,,,,216.00680609999972,0.006806099999721482,None,,250.81730719999996,250.81730719999996,250.81730719999996,250.81730719999996,250.81730719999996,250.81730719999996,250.81730719999996,250.81730719999996,250.81730719999996,250.81730719999996,003,P006,2025_Jan_25_1139,ConditionRich,2021.2.3,59.92423180131913,
216.75,220.0,41,0.0,Stimuli/Blank.png,0,0.0,0.0,0,94,94,94,,,,,,,,,,,,,216.77422799999977,0.024227999999766325,5,3.197808900000382,251.56795539999985,251.56795539999985,251.56795539999985,251.56795539999985,251.56795539999985,251.56795539999985,251.56795539999985,251.56795539999985,251.56795539999985,251.56795539999985,003,P006,2025_Jan_25_1139,ConditionRich,2021.2.3,59.92423180131913,
220.0,220.75,26,0.75,Stimuli/P006/things_face_03s.jpg,0,0.0,0.0,0,95,95,95,,,,,,,,,,,,,220.01021959999935,0.010219599999345519,None,,254.8041447000005,254.8041447000005,254.8041447000005,254.8041447000005,254.8041447000005,254.8041447000005,254.8041447000005,254.8041447000005,254.8041447000005,254.8041447000005,003,P006,2025_Jan_25_1139,ConditionRich,2021.2.3,59.92423180131913,
220.75,224.0,41,0.0,Stimuli/Blank.png,1,1.25,2.0,0,96,96,96,,,,,,,,,,,,,220.7611299999994,0.011129999999411666,5,3.210980400000153,255.55481130000044,255.55481130000044,255.55481130000044,255.55481130000044,255.55481130000044,255.55481130000044,256.7892271999999,257.5399325999997,255.55481130000044,255.55481130000044,003,P006,2025_Jan_25_1139,ConditionRich,2021.2.3,59.92423180131913,
224.0,224.75,9,0.75,Stimuli/P006/sun_bfcmdrojsffdttzu.jpg,0,0.0,0.0,0,97,97,97,,,,,,,,,,,,,224.01322729999947,0.013227299999471143,None,,258.80767970000034,258.80767970000034,258.80767970000034,258.80767970000034,258.80767970000034,258.80767970000034,258.80767970000034,258.80767970000034,258.80767970000034,258.80767970000034,003,P006,2025_Jan_25_1139,ConditionRich,2021.2.3,59.92423180131913,
224.75,228.0,41,0.0,Stimuli/Blank.png,0,0.0,0.0,0,98,98,98,,,,,,,,,,,,,224.7641469999994,0.014146999999411491,5,1.2077074999997421,259.5583652000005,259.5583652000005,259.5583652000005,259.5583652000005,259.5583652000005,259.5583652000005,259.5583652000005,259.5583652000005,259.5583652000005,259.5583652000005,003,P006,2025_Jan_25_1139,ConditionRich,2021.2.3,59.92423180131913,
228.0,228.75,29,0.75,Stimuli/P006/things_guillotine_03s.jpg,0,0.0,0.0,0,99,99,99,,,,,,,,,,,,,228.000536,0.0005360000000109721,None,,262.79453230000036,262.79453230000036,262.79453230000036,262.79453230000036,262.79453230000036,262.79453230000036,262.79453230000036,262.79453230000036,262.79453230000036,262.79453230000036,003,P006,2025_Jan_25_1139,ConditionRich,2021.2.3,59.92423180131913,
228.75,232.0,41,0.0,Stimuli/Blank.png,1,1.25,2.0,0,100,100,100,,,,,,,,,,,,,228.7513299999996,0.0013299999995979306,5,3.2207444000005125,263.5451936999998,263.5451936999998,263.5451936999998,263.5451936999998,263.5451936999998,263.5451936999998,264.7796123999997,265.53031980000014,263.5451936999998,263.5451936999998,003,P006,2025_Jan_25_1139,ConditionRich,2021.2.3,59.92423180131913,
232.0,232.75,5,0.75,Stimuli/P006/sun_axaqdcecfojvpvrl.jpg,0,0.0,0.0,0,101,101,101,,,,,,,,,,,,,232.00475599999982,0.0047559999998156854,None,,266.7980650999998,266.7980650999998,266.7980650999998,266.7980650999998,266.7980650999998,266.7980650999998,266.7980650999998,266.7980650999998,266.7980650999998,266.7980650999998,003,P006,2025_Jan_25_1139,ConditionRich,2021.2.3,59.92423180131913,
232.75,236.0,41,0.0,Stimuli/Blank.png,0,0.0,0.0,0,102,102,102,,,,,,,,,,,,,232.7550672000002,0.005067200000212324,5,3.217000000000553,267.54873599999974,267.54873599999974,267.54873599999974,267.54873599999974,267.54873599999974,267.54873599999974,267.54873599999974,267.54873599999974,267.54873599999974,267.54873599999974,003,P006,2025_Jan_25_1139,ConditionRich,2021.2.3,59.92423180131913,
236.0,236.75,23,0.75,Stimuli/P006/things_beetle_03s.jpg,0,0.0,0.0,0,103,103,103,,,,,,,,,,,,,236.00855779999938,0.008557799999380222,None,,270.8182727000003,270.8182727000003,270.8182727000003,270.8182727000003,270.8182727000003,270.8182727000003,270.8182727000003,270.8182727000003,270.8182727000003,270.8182727000003,003,P006,2025_Jan_25_1139,ConditionRich,2021.2.3,59.92423180131913,
236.75,240.0,41,0.0,Stimuli/Blank.png,0,0.0,0.0,0,104,104,104,,,,,,,,,,,,,236.77581710000004,0.025817100000040227,5,3.1967792999994344,271.5689465000005,271.5689465000005,271.5689465000005,271.5689465000005,271.5689465000005,271.5689465000005,271.5689465000005,271.5689465000005,271.5689465000005,271.5689465000005,003,P006,2025_Jan_25_1139,ConditionRich,2021.2.3,59.92423180131913,
240.0,240.75,33,0.75,Stimuli/P006/things_man_03s.jpg,0,0.0,0.0,0,105,105,105,,,,,,,,,,,,,240.01110199999994,0.011101999999937107,None,,274.8051324999997,274.8051324999997,274.8051324999997,274.8051324999997,274.8051324999997,274.8051324999997,274.8051324999997,274.8051324999997,274.8051324999997,274.8051324999997,003,P006,2025_Jan_25_1139,ConditionRich,2021.2.3,59.92423180131913,
240.75,244.0,41,0.0,Stimuli/Blank.png,0,0.0,0.0,0,106,106,106,,,,,,,,,,,,,240.76215180000008,0.012151800000083313,5,3.210252699999728,275.5557939,275.5557939,275.5557939,275.5557939,275.5557939,275.5557939,275.5557939,275.5557939,275.5557939,275.5557939,003,P006,2025_Jan_25_1139,ConditionRich,2021.2.3,59.92423180131913,
244.0,244.75,8,0.75,Stimuli/P006/sun_bekkgqphzbclwpvb.jpg,0,0.0,0.0,0,107,107,107,,,,,,,,,,,,,244.0149422999998,0.014942299999802344,None,,278.80867599999965,278.80867599999965,278.80867599999965,278.80867599999965,278.80867599999965,278.80867599999965,278.80867599999965,278.80867599999965,278.80867599999965,278.80867599999965,003,P006,2025_Jan_25_1139,ConditionRich,2021.2.3,59.92423180131913,
244.75,248.0,41,0.0,Stimuli/Blank.png,0,0.0,0.0,0,108,108,108,,,,,,,,,,,,,244.7649680999998,0.014968099999805418,5,1.2067230000002382,279.5593280000003,279.5593280000003,279.5593280000003,279.5593280000003,279.5593280000003,279.5593280000003,279.5593280000003,279.5593280000003,279.5593280000003,279.5593280000003,003,P006,2025_Jan_25_1139,ConditionRich,2021.2.3,59.92423180131913,
248.0,248.75,24,0.75,Stimuli/P006/things_crab_03s.jpg,0,0.0,0.0,0,109,109,109,,,,,,,,,,,,,248.00101529999984,0.0010152999998354062,None,,282.79551230000015,282.79551230000015,282.79551230000015,282.79551230000015,282.79551230000015,282.79551230000015,282.79551230000015,282.79551230000015,282.79551230000015,282.79551230000015,003,P006,2025_Jan_25_1139,ConditionRich,2021.2.3,59.92423180131913,
248.75,252.0,41,0.0,Stimuli/Blank.png,0,0.0,0.0,0,110,110,110,,,,,,,,,,,,,248.75197119999984,0.0019711999998435203,5,3.2208566999997856,283.5461819000002,283.5461819000002,283.5461819000002,283.5461819000002,283.5461819000002,283.5461819000002,283.5461819000002,283.5461819000002,283.5461819000002,283.5461819000002,003,P006,2025_Jan_25_1139,ConditionRich,2021.2.3,59.92423180131913,
252.0,252.75,14,0.75,Stimuli/P006/sun_bsirencncgxteejx.jpg,0,0.0,0.0,0,111,111,111,,,,,,,,,,,,,252.00527589999956,0.005275899999560352,None,,286.8157471000004,286.8157471000004,286.8157471000004,286.8157471000004,286.8157471000004,286.8157471000004,286.8157471000004,286.8157471000004,286.8157471000004,286.8157471000004,003,P006,2025_Jan_25_1139,ConditionRich,2021.2.3,59.92423180131913,
252.75,256.0,41,0.0,Stimuli/Blank.png,0,0.0,0.0,0,112,112,112,,,,,,,,,,,,,252.77458100000013,0.02458100000012564,5,3.183809099999962,287.5830759999999,287.5830759999999,287.5830759999999,287.5830759999999,287.5830759999999,287.5830759999999,287.5830759999999,287.5830759999999,287.5830759999999,287.5830759999999,003,P006,2025_Jan_25_1139,ConditionRich,2021.2.3,59.92423180131913,
256.0,256.75,16,0.75,Stimuli/P006/sun_bwentnobehmvaxkp.jpg,0,0.0,0.0,0,113,113,113,,,,,,,,,,,,,256.0252524000002,0.02525240000022677,None,,290.8192594000002,290.8192594000002,290.8192594000002,290.8192594000002,290.8192594000002,290.8192594000002,290.8192594000002,290.8192594000002,290.8192594000002,290.8192594000002,003,P006,2025_Jan_25_1139,ConditionRich,2021.2.3,59.92423180131913,
256.75,260.0,41,0.0,Stimuli/Blank.png,0,0.0,0.0,0,114,114,114,,,,,,,,,,,,,256.75910239999985,0.009102399999846966,5,3.2135297000004357,291.55324199999995,291.55324199999995,291.55324199999995,291.55324199999995,291.55324199999995,291.55324199999995,291.55324199999995,291.55324199999995,291.55324199999995,291.55324199999995,003,P006,2025_Jan_25_1139,ConditionRich,2021.2.3,59.92423180131913,
260.0,260.75,40,0.75,Stimuli/P006/things_woman_03s.jpg,0,0.0,0.0,0,115,115,115,,,,,,,,,,,,,260.0146439999994,0.014643999999407242,None,,294.8228041000002,294.8228041000002,294.8228041000002,294.8228041000002,294.8228041000002,294.8228041000002,294.8228041000002,294.8228041000002,294.8228041000002,294.8228041000002,003,P006,2025_Jan_25_1139,ConditionRich,2021.2.3,59.92423180131913,
260.75,264.0,41,0.0,Stimuli/Blank.png,1,0.25,1.0,0,116,116,116,,,,,,,,,,,,,260.77933209999946,0.029332099999464845,5,3.1932859999997163,295.5734577000003,295.5734577000003,295.5734577000003,295.5734577000003,295.5734577000003,295.5734577000003,295.8069843000003,296.5576563000004,295.5734577000003,295.5734577000003,003,P006,2025_Jan_25_1139,ConditionRich,2021.2.3,59.92423180131913,
264.0,264.75,2,0.75,Stimuli/P006/sun_ahmycohdkioefoxs.jpg,0,0.0,0.0,0,117,117,117,,,,,,,,,,,,,264.01607469999954,0.01607469999953537,None,,298.8096482000001,298.8096482000001,298.8096482000001,298.8096482000001,298.8096482000001,298.8096482000001,298.8096482000001,298.8096482000001,298.8096482000001,298.8096482000001,003,P006,2025_Jan_25_1139,ConditionRich,2021.2.3,59.92423180131913,
264.75,268.0,41,0.0,Stimuli/Blank.png,0,0.0,0.0,0,118,118,118,,,,,,,,,,,,,264.7501453,0.00014529999998558196,5,1.223132699999951,299.54363569999987,299.54363569999987,299.54363569999987,299.54363569999987,299.54363569999987,299.54363569999987,299.54363569999987,299.54363569999987,299.54363569999987,299.54363569999987,003,P006,2025_Jan_25_1139,ConditionRich,2021.2.3,59.92423180131913,
268.0,268.75,37,0.75,Stimuli/P006/things_showerhead_03s.jpg,0,0.0,0.0,0,119,119,119,,,,,,,,,,,,,268.0049749999994,0.00497499999937645,None,,302.81317620000027,302.81317620000027,302.81317620000027,302.81317620000027,302.81317620000027,302.81317620000027,302.81317620000027,302.81317620000027,302.81317620000027,302.81317620000027,003,P006,2025_Jan_25_1139,ConditionRich,2021.2.3,59.92423180131913,
268.75,272.0,41,0.0,Stimuli/Blank.png,0,0.0,0.0,0,120,120,120,,,,,,,,,,,,,268.77028870000004,0.020288700000037352,5,3.2029394999999568,303.56384869999965,303.56384869999965,303.56384869999965,303.56384869999965,303.56384869999965,303.56384869999965,303.56384869999965,303.56384869999965,303.56384869999965,303.56384869999965,003,P006,2025_Jan_25_1139,ConditionRich,2021.2.3,59.92423180131913,
272.0,272.75,13,0.75,Stimuli/P006/sun_bruphbrfsbxowtlq.jpg,0,0.0,0.0,0,121,121,121,,,,,,,,,,,,,272.0061578,0.006157799999982672,None,,306.80003360000046,306.80003360000046,306.80003360000046,306.80003360000046,306.80003360000046,306.80003360000046,306.80003360000046,306.80003360000046,306.80003360000046,306.80003360000046,003,P006,2025_Jan_25_1139,ConditionRich,2021.2.3,59.92423180131913,
272.75,276.0,41,0.0,Stimuli/Blank.png,0,0.0,0.0,0,122,122,122,,,,,,,,,,,,,272.75717380000015,0.007173800000146002,5,3.216179799999736,307.55068610000035,307.55068610000035,307.55068610000035,307.55068610000035,307.55068610000035,307.55068610000035,307.55068610000035,307.55068610000035,307.55068610000035,307.55068610000035,003,P006,2025_Jan_25_1139,ConditionRich,2021.2.3,59.92423180131913,
276.0,292.0,0,0.0,Stimuli/Blank.png,1,2.0,2.75,0,123,123,123,,,,,,,,,,,,,276.0093536999998,0.009353699999792298,5,15.963190399999803,310.8035614999999,310.8035614999999,310.8035614999999,310.8035614999999,310.8035614999999,310.8035614999999,312.7886532000002,313.5393160000003,310.8035614999999,310.8035614999999,003,P006,2025_Jan_25_1139,ConditionRich,2021.2.3,59.92423180131913,
292.0,292.75,6,0.75,Stimuli/P006/sun_bbzkhzmxdjrfjpjz.jpg,0,0.0,0.0,0,124,124,124,,,,,,,,,,,,,292.009646,0.009645999999975174,None,,326.8176996000002,326.8176996000002,326.8176996000002,326.8176996000002,326.8176996000002,326.8176996000002,326.8176996000002,326.8176996000002,326.8176996000002,326.8176996000002,003,P006,2025_Jan_25_1139,ConditionRich,2021.2.3,59.92423180131913,
292.75,296.0,41,0.0,Stimuli/Blank.png,0,0.0,0.0,0,125,125,125,,,,,,,,,,,,,292.77520369999957,0.025203699999565288,5,3.1983741000003647,327.5683681999999,327.5683681999999,327.5683681999999,327.5683681999999,327.5683681999999,327.5683681999999,327.5683681999999,327.5683681999999,327.5683681999999,327.5683681999999,003,P006,2025_Jan_25_1139,ConditionRich,2021.2.3,59.92423180131913,
296.0,296.75,20,0.75,Stimuli/P006/sun_dvxuxzytfdbjyzit.jpg,0,0.0,0.0,0,126,126,126,,,,,,,,,,,,,296.011027,0.011027000000012777,None,,330.80454439999994,330.80454439999994,330.80454439999994,330.80454439999994,330.80454439999994,330.80454439999994,330.80454439999994,330.80454439999994,330.80454439999994,330.80454439999994,003,P006,2025_Jan_25_1139,ConditionRich,2021.2.3,59.92423180131913,
296.75,300.0,41,0.0,Stimuli/Blank.png,0,0.0,0.0,0,127,127,127,,,,,,,,,,,,,296.7610146000002,0.011014600000180508,5,3.2115013000002364,331.5552144000003,331.5552144000003,331.5552144000003,331.5552144000003,331.5552144000003,331.5552144000003,331.5552144000003,331.5552144000003,331.5552144000003,331.5552144000003,003,P006,2025_Jan_25_1139,ConditionRich,2021.2.3,59.92423180131913,
300.0,300.75,21,0.75,Stimuli/P006/things_accordion_03s.jpg,0,0.0,0.0,0,128,128,128,,,,,,,,,,,,,300.0140302999994,0.014030299999376439,None,,334.8080786999999,334.8080786999999,334.8080786999999,334.8080786999999,334.8080786999999,334.8080786999999,334.8080786999999,334.8080786999999,334.8080786999999,334.8080786999999,003,P006,2025_Jan_25_1139,ConditionRich,2021.2.3,59.92423180131913,
300.75,304.0,41,0.0,Stimuli/Blank.png,1,1.25,2.0,0,129,129,129,,,,,,,,,,,,,300.76496259999976,0.01496259999976246,1,1.6542091000001165,335.5587443000004,335.5587443000004,335.5587443000004,335.5587443000004,335.5587443000004,335.5587443000004,336.79317170000013,337.54382369999985,335.5587443000004,335.5587443000004,003,P006,2025_Jan_25_1139,ConditionRich,2021.2.3,59.92423180131913,
304.0,304.75,11,0.75,Stimuli/P006/sun_bjoocjyyhsmsbprr.jpg,0,0.0,0.0,0,130,130,130,,,,,,,,,,,,,304.0015678999994,0.0015678999993724574,None,,338.7949328000004,338.7949328000004,338.7949328000004,338.7949328000004,338.7949328000004,338.7949328000004,338.7949328000004,338.7949328000004,338.7949328000004,338.7949328000004,003,P006,2025_Jan_25_1139,ConditionRich,2021.2.3,59.92423180131913,
304.75,308.0,41,0.0,Stimuli/Blank.png,0,0.0,0.0,0,131,131,131,,,,,,,,,,,,,304.75234469999987,0.0023446999998668616,5,1.221064800000022,339.54559320000044,339.54559320000044,339.54559320000044,339.54559320000044,339.54559320000044,339.54559320000044,339.54559320000044,339.54559320000044,339.54559320000044,339.54559320000044,003,P006,2025_Jan_25_1139,ConditionRich,2021.2.3,59.92423180131913,
308.0,308.75,18,0.75,Stimuli/P006/sun_bzqhpcsgzswozfhs.jpg,0,0.0,0.0,0,132,132,132,,,,,,,,,,,,,308.0049815999996,0.004981599999609898,None,,342.81516120000015,342.81516120000015,342.81516120000015,342.81516120000015,342.81516120000015,342.81516120000015,342.81516120000015,342.81516120000015,342.81516120000015,342.81516120000015,003,P006,2025_Jan_25_1139,ConditionRich,2021.2.3,59.92423180131913,
308.75,312.0,41,0.0,Stimuli/Blank.png,1,0.25,1.0,0,133,133,133,,,,,,,,,,,,,308.77426239999977,0.024262399999770423,5,3.184189200000219,343.58249270000033,343.58249270000033,343.58249270000033,343.58249270000033,343.58249270000033,343.58249270000033,343.81606590000047,344.56671259999985,343.58249270000033,343.58249270000033,003,P006,2025_Jan_25_1139,ConditionRich,2021.2.3,59.92423180131913,
312.0,312.75,38,0.75,Stimuli/P006/things_sledgehammer_03s.jpg,0,0.0,0.0,0,134,134,134,,,,,,,,,,,,,312.0254474999997,0.025447499999700085,None,,346.83538430000044,346.83538430000044,346.83538430000044,346.83538430000044,346.83538430000044,346.83538430000044,346.83538430000044,346.83538430000044,346.83538430000044,346.83538430000044,003,P006,2025_Jan_25_1139,ConditionRich,2021.2.3,59.92423180131913,
312.75,316.0,41,0.0,Stimuli/Blank.png,0,0.0,0.0,0,135,135,135,,,,,,,,,,,,,312.77577989999963,0.025779899999633926,5,3.1973573999994187,347.56934420000016,347.56934420000016,347.56934420000016,347.56934420000016,347.56934420000016,347.56934420000016,347.56934420000016,347.56934420000016,347.56934420000016,347.56934420000016,003,P006,2025_Jan_25_1139,ConditionRich,2021.2.3,59.92423180131913,
316.0,316.75,28,0.75,Stimuli/P006/things_girl_03s.jpg,0,0.0,0.0,0,136,136,136,,,,,,,,,,,,,316.0120044,0.012004400000023452,None,,350.8222188,350.8222188,350.8222188,350.8222188,350.8222188,350.8222188,350.8222188,350.8222188,350.8222188,350.8222188,003,P006,2025_Jan_25_1139,ConditionRich,2021.2.3,59.92423180131913,
316.75,320.0,41,0.0,Stimuli/Blank.png,0,0.0,0.0,0,137,137,137,,,,,,,,,,,,,316.7803951000001,0.030395100000077946,5,1.193720299999768,351.5730021999998,351.5730021999998,351.5730021999998,351.5730021999998,351.5730021999998,351.5730021999998,351.5730021999998,351.5730021999998,351.5730021999998,351.5730021999998,003,P006,2025_Jan_25_1139,ConditionRich,2021.2.3,59.92423180131913,
320.0,320.75,32,0.75,Stimuli/P006/things_jumpsuit_03s.jpg,0,0.0,0.0,0,138,138,138,,,,,,,,,,,,,320.0006561999994,0.0006561999994119105,None,,354.80906049999976,354.80906049999976,354.80906049999976,354.80906049999976,354.80906049999976,354.80906049999976,354.80906049999976,354.80906049999976,354.80906049999976,354.80906049999976,003,P006,2025_Jan_25_1139,ConditionRich,2021.2.3,59.92423180131913,
320.75,324.0,41,0.0,Stimuli/Blank.png,0,0.0,0.0,0,139,139,139,,,,,,,,,,,,,320.7655668000002,0.015566800000215153,5,1.206993899999361,355.55974719999995,355.55974719999995,355.55974719999995,355.55974719999995,355.55974719999995,355.55974719999995,355.55974719999995,355.55974719999995,355.55974719999995,355.55974719999995,003,P006,2025_Jan_25_1139,ConditionRich,2021.2.3,59.92423180131913,
324.0,324.75,1,0.75,Stimuli/P006/sun_adyhbxohydkpecty.jpg,0,0.0,0.0,0,140,140,140,,,,,,,,,,,,,324.0019784000001,0.0019784000000981905,None,,358.81259430000046,358.81259430000046,358.81259430000046,358.81259430000046,358.81259430000046,358.81259430000046,358.81259430000046,358.81259430000046,358.81259430000046,358.81259430000046,003,P006,2025_Jan_25_1139,ConditionRich,2021.2.3,59.92423180131913,
324.75,328.0,41,0.0,Stimuli/Blank.png,1,1.25,2.0,0,141,141,141,,,,,,,,,,,,,324.7703212000001,0.020321200000125828,5,3.2033541999999215,359.56325860000015,359.56325860000015,359.56325860000015,359.56325860000015,359.56325860000015,359.56325860000015,360.79767919999995,361.5483475000001,359.56325860000015,359.56325860000015,003,P006,2025_Jan_25_1139,ConditionRich,2021.2.3,59.92423180131913,
328.0,328.75,4,0.75,Stimuli/P006/sun_auwghripdoxzluuk.jpg,0,0.0,0.0,0,142,142,142,,,,,,,,,,,,,328.0059710999999,0.005971099999896978,None,,362.79944799999976,362.79944799999976,362.79944799999976,362.79944799999976,362.79944799999976,362.79944799999976,362.79944799999976,362.79944799999976,362.79944799999976,362.79944799999976,003,P006,2025_Jan_25_1139,ConditionRich,2021.2.3,59.92423180131913,
328.75,332.0,41,0.0,Stimuli/Blank.png,0,0.0,0.0,0,143,143,143,,,,,,,,,,,,,328.75585509999974,0.005855099999735103,5,3.2166779999997743,363.55011300000024,363.55011300000024,363.55011300000024,363.55011300000024,363.55011300000024,363.55011300000024,363.55011300000024,363.55011300000024,363.55011300000024,363.55011300000024,003,P006,2025_Jan_25_1139,ConditionRich,2021.2.3,59.92423180131913,
332.0,332.75,19,0.75,Stimuli/P006/sun_czspalxthlkjwoat.jpg,0,0.0,0.0,0,144,144,144,,,,,,,,,,,,,332.0099083,0.00990830000000642,None,,366.8196582999999,366.8196582999999,366.8196582999999,366.8196582999999,366.8196582999999,366.8196582999999,366.8196582999999,366.8196582999999,366.8196582999999,366.8196582999999,003,P006,2025_Jan_25_1139,ConditionRich,2021.2.3,59.92423180131913,
332.75,336.0,41,0.0,Stimuli/Blank.png,0,0.0,0.0,0,145,145,145,,,,,,,,,,,,,332.7762667000002,0.02626670000017839,5,3.1963778999997885,367.5703226000005,367.5703226000005,367.5703226000005,367.5703226000005,367.5703226000005,367.5703226000005,367.5703226000005,367.5703226000005,367.5703226000005,367.5703226000005,003,P006,2025_Jan_25_1139,ConditionRich,2021.2.3,59.92423180131913,
336.0,336.75,3,0.75,Stimuli/P006/sun_asyidwmnobuawmax.jpg,0,0.0,0.0,0,146,146,146,,,,,,,,,,,,,336.01446519999945,0.014465199999449396,None,,370.8231966000003,370.8231966000003,370.8231966000003,370.8231966000003,370.8231966000003,370.8231966000003,370.8231966000003,370.8231966000003,370.8231966000003,370.8231966000003,003,P006,2025_Jan_25_1139,ConditionRich,2021.2.3,59.92423180131913,
336.75,340.0,41,0.0,Stimuli/Blank.png,0,0.0,0.0,0,147,147,147,,,,,,,,,,,,,336.78015689999984,0.03015689999983806,5,1.1928072000000611,371.57385669999985,371.57385669999985,371.57385669999985,371.57385669999985,371.57385669999985,371.57385669999985,371.57385669999985,371.57385669999985,371.57385669999985,371.57385669999985,003,P006,2025_Jan_25_1139,ConditionRich,2021.2.3,59.92423180131913,
340.0,340.75,17,0.75,Stimuli/P006/sun_bwsictslfxygpqbp.jpg,0,0.0,0.0,0,148,148,148,,,,,,,,,,,,,340.00023099999953,0.0002309999995304679,None,,374.81006400000024,374.81006400000024,374.81006400000024,374.81006400000024,374.81006400000024,374.81006400000024,374.81006400000024,374.81006400000024,374.81006400000024,374.81006400000024,003,P006,2025_Jan_25_1139,ConditionRich,2021.2.3,59.92423180131913,
340.75,344.0,41,0.0,Stimuli/Blank.png,0,0.0,0.0,0,149,149,149,,,,,,,,,,,,,340.7666107,0.01661070000000109,5,1.2060835000002044,375.5606829999997,375.5606829999997,375.5606829999997,375.5606829999997,375.5606829999997,375.5606829999997,375.5606829999997,375.5606829999997,375.5606829999997,375.5606829999997,003,P006,2025_Jan_25_1139,ConditionRich,2021.2.3,59.92423180131913,
344.0,344.75,10,0.75,Stimuli/P006/sun_bgnxbfhmwhliypvg.jpg,0,0.0,0.0,0,150,150,150,,,,,,,,,,,,,344.0055311000001,0.005531100000098377,None,,378.8135812999999,378.8135812999999,378.8135812999999,378.8135812999999,378.8135812999999,378.8135812999999,378.8135812999999,378.8135812999999,378.8135812999999,378.8135812999999,003,P006,2025_Jan_25_1139,ConditionRich,2021.2.3,59.92423180131913,
344.75,348.0,41,0.0,Stimuli/Blank.png,1,0.25,1.0,0,151,151,151,,,,,,,,,,,,,344.7699671999994,0.019967199999427976,5,3.202498700000433,379.5642232,379.5642232,379.5642232,379.5642232,379.5642232,379.5642232,379.79777379999996,380.54843960000017,379.5642232,379.5642232,003,P006,2025_Jan_25_1139,ConditionRich,2021.2.3,59.92423180131913,
348.0,348.75,34,0.75,Stimuli/P006/things_patty_03s.jpg,0,0.0,0.0,0,152,152,152,,,,,,,,,,,,,348.0062604999998,0.006260499999825697,None,,382.80044069999985,382.80044069999985,382.80044069999985,382.80044069999985,382.80044069999985,382.80044069999985,382.80044069999985,382.80044069999985,382.80044069999985,382.80044069999985,003,P006,2025_Jan_25_1139,ConditionRich,2021.2.3,59.92423180131913,
348.75,352.0,41,0.0,Stimuli/Blank.png,0,0.0,0.0,0,153,153,153,,,,,,,,,,,,,348.7570744999998,0.007074499999816908,5,3.2156042999995407,383.5510912,383.5510912,383.5510912,383.5510912,383.5510912,383.5510912,383.5510912,383.5510912,383.5510912,383.5510912,003,P006,2025_Jan_25_1139,ConditionRich,2021.2.3,59.92423180131913,
352.0,352.75,27,0.75,Stimuli/P006/things_first-aid_kit_03s.jpg,0,0.0,0.0,0,154,154,154,,,,,,,,,,,,,352.0100145000001,0.010014500000124826,None,,386.8039630000003,386.8039630000003,386.8039630000003,386.8039630000003,386.8039630000003,386.8039630000003,386.8039630000003,386.8039630000003,386.8039630000003,386.8039630000003,003,P006,2025_Jan_25_1139,ConditionRich,2021.2.3,59.92423180131913,
352.75,356.0,41,0.0,Stimuli/Blank.png,0,0.0,0.0,0,155,155,155,,,,,,,,,,,,,352.7608095999999,0.010809599999902275,5,3.211999399999513,387.5546242999999,387.5546242999999,387.5546242999999,387.5546242999999,387.5546242999999,387.5546242999999,387.5546242999999,387.5546242999999,387.5546242999999,387.5546242999999,003,P006,2025_Jan_25_1139,ConditionRich,2021.2.3,59.92423180131913,
356.0,356.75,12,0.75,Stimuli/P006/sun_bodyuiqwqpqzwfoz.jpg,0,0.0,0.0,0,156,156,156,,,,,,,,,,,,,356.01388759999963,0.013887599999634404,None,,390.80749410000044,390.80749410000044,390.80749410000044,390.80749410000044,390.80749410000044,390.80749410000044,390.80749410000044,390.80749410000044,390.80749410000044,390.80749410000044,003,P006,2025_Jan_25_1139,ConditionRich,2021.2.3,59.92423180131913,
356.75,360.0,41,0.0,Stimuli/Blank.png,0,0.0,0.0,0,157,157,157,,,,,,,,,,,,,356.76438519999965,0.014385199999651377,5,1.2086773000000903,391.5581516000002,391.5581516000002,391.5581516000002,391.5581516000002,391.5581516000002,391.5581516000002,391.5581516000002,391.5581516000002,391.5581516000002,391.5581516000002,003,P006,2025_Jan_25_1139,ConditionRich,2021.2.3,59.92423180131913,
360.0,360.75,30,0.75,Stimuli/P006/things_hood_03s.jpg,0,0.0,0.0,0,158,158,158,,,,,,,,,,,,,360.0006073999998,0.0006073999998079671,None,,394.7943537000001,394.7943537000001,394.7943537000001,394.7943537000001,394.7943537000001,394.7943537000001,394.7943537000001,394.7943537000001,394.7943537000001,394.7943537000001,003,P006,2025_Jan_25_1139,ConditionRich,2021.2.3,59.92423180131913,
360.75,364.0,41,0.0,Stimuli/Blank.png,0,0.0,0.0,0,159,159,159,,,,,,,,,,,,,360.7513051000001,0.0013051000000814383,5,1.221921299999849,395.54500970000026,395.54500970000026,395.54500970000026,395.54500970000026,395.54500970000026,395.54500970000026,395.54500970000026,395.54500970000026,395.54500970000026,395.54500970000026,003,P006,2025_Jan_25_1139,ConditionRich,2021.2.3,59.92423180131913,
364.0,364.75,15,0.75,Stimuli/P006/sun_btkzuhaxqlacvmsv.jpg,0,0.0,0.0,0,160,160,160,,,,,,,,,,,,,364.0038456999996,0.003845699999601493,None,,398.79788220000046,398.79788220000046,398.79788220000046,398.79788220000046,398.79788220000046,398.79788220000046,398.79788220000046,398.79788220000046,398.79788220000046,398.79788220000046,003,P006,2025_Jan_25_1139,ConditionRich,2021.2.3,59.92423180131913,
364.75,368.0,41,0.0,Stimuli/Blank.png,0,0.0,0.0,0,161,161,161,,,,,,,,,,,,,364.7553775000001,0.005377500000122382,5,3.2180975999999646,399.54854820000037,399.54854820000037,399.54854820000037,399.54854820000037,399.54854820000037,399.54854820000037,399.54854820000037,399.54854820000037,399.54854820000037,399.54854820000037,003,P006,2025_Jan_25_1139,ConditionRich,2021.2.3,59.92423180131913,
368.0,368.75,22,0.75,Stimuli/P006/things_baby_03s.jpg,0,0.0,0.0,0,162,162,162,,,,,,,,,,,,,368.0069526000002,0.0069526000002042565,None,,402.81809780000003,402.81809780000003,402.81809780000003,402.81809780000003,402.81809780000003,402.81809780000003,402.81809780000003,402.81809780000003,402.81809780000003,402.81809780000003,003,P006,2025_Jan_25_1139,ConditionRich,2021.2.3,59.92423180131913,
368.75,372.0,41,0.0,Stimuli/Blank.png,0,0.0,0.0,0,163,163,163,,,,,,,,,,,,,368.77497509999966,0.024975099999664963,5,3.197984799999176,403.5687312,403.5687312,403.5687312,403.5687312,403.5687312,403.5687312,403.5687312,403.5687312,403.5687312,403.5687312,003,P006,2025_Jan_25_1139,ConditionRich,2021.2.3,59.92423180131913,
372.0,388.0,0,0.0,Stimuli/Blank.png,1,9.0,9.75,0,164,164,164,,,,,,,,,,,,,372.01086629999963,0.010866299999634066,5,13.961716800000431,406.8049461999999,406.8049461999999,406.8049461999999,406.8049461999999,406.8049461999999,406.8049461999999,415.7962432000004,416.5469137,406.8049461999999,406.8049461999999,003,P006,2025_Jan_25_1139,ConditionRich,2021.2.3,59.92423180131913,
