eventStartTime,eventEndTime,eventCond,imSize,imFile,responseEvent,fixRespStart,fixRespEnd,Events.thisRepN,Events.thisTrialN,Events.thisN,Events.thisIndex,Instructions.started,Instructions.stopped,participantReadyResponse.keys,participantReadyResponse.rt,participantReadyResponse.started,participantReadyResponse.stopped,startWaitforTrigger,triggerResponse.keys,triggerResponse.rt,triggerResponse.started,triggerResponse.stopped,globalTimer,actualStartTime,startTimingDiff,participantResponse.keys,participantResponse.started,participantResponse.stopped,image.started,image.stopped,fixationOutside.started,fixationOutside.stopped,fixationResponse.started,fixationResponse.stopped,fixationInside.started,fixationInside.stopped,participantResponse.rt,session,participant,date,expName,psychopyVersion,frameRate,
,,,,,,,,,,,,11.491559500000221,None,2,10.064008299999841,11.491559500000221,None,,,,,,,,,,,,,,,,,,,,,006,P007,2025_Feb_01_1011,ConditionRich,2021.2.3,59.92635051502827,
,,,,,,,,,,,,,,,,,,21.570328700000573,5,16.155374199999642,21.583481599999686,None,,,,,,,,,,,,,,,,006,P007,2025_Feb_01_1011,ConditionRich,2021.2.3,59.92635051502827,
0.0,4.0,0,0.0,Stimuli/Blank.png,0,0,0.0,0,0,0,0,,,,,,,,,,,,37.75116249999974,0.05256980000012845,0.05256980000012845,None,37.83110260000012,None,37.83110260000012,None,37.83110260000012,None,37.83110260000012,37.83110260000012,37.83110260000012,None,,006,P007,2025_Feb_01_1011,ConditionRich,2021.2.3,59.92635051502827,
4.0,7.75,28,0.75,Stimuli/P007/things_girl_04s.jpg,0,0,0.0,0,1,1,1,,,,,,,,,,,,,4.023129500000323,0.023129500000322878,None,41.80168070000036,41.80168070000036,41.80168070000036,41.80168070000036,41.80168070000036,41.80168070000036,41.80168070000036,41.80168070000036,41.80168070000036,41.80168070000036,,006,P007,2025_Feb_01_1011,ConditionRich,2021.2.3,59.92635051502827,
7.75,8.0,41,0.0,Stimuli/Blank.png,0,0,0.0,0,2,2,2,,,,,,,,,,,,,7.772104000000581,0.022104000000581436,None,45.53817580000032,45.53817580000032,45.53817580000032,45.53817580000032,45.53817580000032,45.53817580000032,45.53817580000032,45.53817580000032,45.53817580000032,45.53817580000032,,006,P007,2025_Feb_01_1011,ConditionRich,2021.2.3,59.92635051502827,
8.0,11.75,9,0.75,Stimuli/P007/sun_bcsqogieozpyvuft.jpg,0,0,0.0,0,3,3,3,,,,,,,,,,,,,8.00632029999997,0.0063202999999703025,None,45.788186900000255,45.788186900000255,45.788186900000255,45.788186900000255,45.788186900000255,45.788186900000255,45.788186900000255,45.788186900000255,45.788186900000255,45.788186900000255,,006,P007,2025_Feb_01_1011,ConditionRich,2021.2.3,59.92635051502827,
11.75,12.0,41,0.0,Stimuli/Blank.png,0,0,0.0,0,4,4,4,,,,,,,,,,,,,11.776684400000704,0.026684400000704045,None,49.54146519999995,49.54146519999995,49.54146519999995,49.54146519999995,49.54146519999995,49.54146519999995,49.54146519999995,49.54146519999995,49.54146519999995,49.54146519999995,,006,P007,2025_Feb_01_1011,ConditionRich,2021.2.3,59.92635051502827,
12.0,15.75,21,0.75,Stimuli/P007/things_baby_04s.jpg,0,0,0.0,0,5,5,5,,,,,,,,,,,,,12.011946900000112,0.011946900000111782,None,49.791689399999996,49.791689399999996,49.791689399999996,49.791689399999996,49.791689399999996,49.791689399999996,49.791689399999996,49.791689399999996,49.791689399999996,49.791689399999996,,006,P007,2025_Feb_01_1011,ConditionRich,2021.2.3,59.92635051502827,
15.75,16.0,41,0.0,Stimuli/Blank.png,0,0,0.0,0,6,6,6,,,,,,,,,,,,,15.781193800000437,0.031193800000437477,None,53.56168499999967,53.56168499999967,53.56168499999967,53.56168499999967,53.56168499999967,53.56168499999967,53.56168499999967,53.56168499999967,53.56168499999967,53.56168499999967,,006,P007,2025_Feb_01_1011,ConditionRich,2021.2.3,59.92635051502827,
16.0,19.75,40,0.75,Stimuli/P007/things_woman_04s.jpg,0,0,0.0,0,7,7,7,,,,,,,,,,,,,16.03079120000075,0.030791200000749086,None,53.81190919999972,53.81190919999972,53.81190919999972,53.81190919999972,53.81190919999972,53.81190919999972,53.81190919999972,53.81190919999972,53.81190919999972,53.81190919999972,,006,P007,2025_Feb_01_1011,ConditionRich,2021.2.3,59.92635051502827,
19.75,20.0,41,0.0,Stimuli/Blank.png,0,0,0.0,0,8,8,8,,,,,,,,,,,,,19.76692600000024,0.016926000000239583,None,57.5320713000001,57.5320713000001,57.5320713000001,57.5320713000001,57.5320713000001,57.5320713000001,57.5320713000001,57.5320713000001,57.5320713000001,57.5320713000001,,006,P007,2025_Feb_01_1011,ConditionRich,2021.2.3,59.92635051502827,
20.0,23.75,12,0.75,Stimuli/P007/sun_bitpmyvulluuasab.jpg,1,3,3.75,0,9,9,9,,,,,,,,,,,,,19.999576700000034,-0.00042329999996582046,2,57.76540389999991,57.76540389999991,57.76540389999991,57.76540389999991,57.76540389999991,57.76540389999991,60.75137410000025,61.502034600000115,57.76540389999991,57.76540389999991,3.5651765000002342,006,P007,2025_Feb_01_1011,ConditionRich,2021.2.3,59.92635051502827,
23.75,24.0,41,0.0,Stimuli/Blank.png,0,0,0.0,0,10,10,10,,,,,,,,,,,,,23.753767000000153,0.0037670000001526205,None,61.51879520000057,61.51879520000057,61.51879520000057,61.51879520000057,61.51879520000057,61.51879520000057,61.51879520000057,61.51879520000057,61.51879520000057,61.51879520000057,,006,P007,2025_Feb_01_1011,ConditionRich,2021.2.3,59.92635051502827,
24.0,27.75,26,0.75,Stimuli/P007/things_face_04s.jpg,0,0,0.0,0,11,11,11,,,,,,,,,,,,,24.0032584999999,0.0032584999999016873,None,61.76895220000006,61.76895220000006,61.76895220000006,61.76895220000006,61.76895220000006,61.76895220000006,61.76895220000006,61.76895220000006,61.76895220000006,61.76895220000006,,006,P007,2025_Feb_01_1011,ConditionRich,2021.2.3,59.92635051502827,
27.75,28.0,41,0.0,Stimuli/Blank.png,0,0,0.0,0,12,12,12,,,,,,,,,,,,,27.756477599999926,0.006477599999925587,None,65.52225590000035,65.52225590000035,65.52225590000035,65.52225590000035,65.52225590000035,65.52225590000035,65.52225590000035,65.52225590000035,65.52225590000035,65.52225590000035,,006,P007,2025_Feb_01_1011,ConditionRich,2021.2.3,59.92635051502827,
28.0,31.75,11,0.75,Stimuli/P007/sun_bdsriuscubkvzrmt.jpg,0,0,0.0,0,13,13,13,,,,,,,,,,,,,28.00672250000025,0.006722500000250875,None,65.77250019999974,65.77250019999974,65.77250019999974,65.77250019999974,65.77250019999974,65.77250019999974,65.77250019999974,65.77250019999974,65.77250019999974,65.77250019999974,,006,P007,2025_Feb_01_1011,ConditionRich,2021.2.3,59.92635051502827,
31.75,32.0,41,0.0,Stimuli/Blank.png,0,0,0.0,0,14,14,14,,,,,,,,,,,,,31.760723100000178,0.01072310000017751,None,69.52581350000037,69.52581350000037,69.52581350000037,69.52581350000037,69.52581350000037,69.52581350000037,69.52581350000037,69.52581350000037,69.52581350000037,69.52581350000037,,006,P007,2025_Feb_01_1011,ConditionRich,2021.2.3,59.92635051502827,
32.0,35.75,17,0.75,Stimuli/P007/sun_bnsxdhbsafbdyncy.jpg,1,0,0.75,0,15,15,15,,,,,,,,,,,,,32.01022920000014,0.010229200000139826,2,69.77603629999976,69.77603629999976,69.77603629999976,69.77603629999976,69.77603629999976,69.77603629999976,69.77603629999976,70.51002030000018,69.77603629999976,69.77603629999976,0.45685300000059215,006,P007,2025_Feb_01_1011,ConditionRich,2021.2.3,59.92635051502827,
35.75,36.0,41,0.0,Stimuli/Blank.png,0,0,0.0,0,16,16,16,,,,,,,,,,,,,35.76352029999998,0.013520299999981944,None,73.5293413999998,73.5293413999998,73.5293413999998,73.5293413999998,73.5293413999998,73.5293413999998,73.5293413999998,73.5293413999998,73.5293413999998,73.5293413999998,,006,P007,2025_Feb_01_1011,ConditionRich,2021.2.3,59.92635051502827,
36.0,39.75,18,0.75,Stimuli/P007/sun_borgfidyubrwsuuw.jpg,0,0,0.0,0,17,17,17,,,,,,,,,,,,,36.0141306000005,0.014130600000498816,None,73.77957220000008,73.77957220000008,73.77957220000008,73.77957220000008,73.77957220000008,73.77957220000008,73.77957220000008,73.77957220000008,73.77957220000008,73.77957220000008,,006,P007,2025_Feb_01_1011,ConditionRich,2021.2.3,59.92635051502827,
39.75,40.0,41,0.0,Stimuli/Blank.png,0,0,0.0,0,18,18,18,,,,,,,,,,,,,39.75099510000018,0.000995100000181992,None,77.51621549999982,77.51621549999982,77.51621549999982,77.51621549999982,77.51621549999982,77.51621549999982,77.51621549999982,77.51621549999982,77.51621549999982,77.51621549999982,,006,P007,2025_Feb_01_1011,ConditionRich,2021.2.3,59.92635051502827,
40.0,43.75,31,0.75,Stimuli/P007/things_jug_04s.jpg,1,0,0.75,0,19,19,19,,,,,,,,,,,,,40.00140210000063,0.0014021000006323447,2,77.76642720000018,77.76642720000018,77.76642720000018,77.76642720000018,77.76642720000018,77.76642720000018,77.76642720000018,78.50040590000026,77.76642720000018,77.76642720000018,0.3872049000001425,006,P007,2025_Feb_01_1011,ConditionRich,2021.2.3,59.92635051502827,
43.75,44.0,41,0.0,Stimuli/Blank.png,0,0,0.0,0,20,20,20,,,,,,,,,,,,,43.75533320000068,0.005333200000677607,None,81.51979120000033,81.51979120000033,81.51979120000033,81.51979120000033,81.51979120000033,81.51979120000033,81.51979120000033,81.51979120000033,81.51979120000033,81.51979120000033,,006,P007,2025_Feb_01_1011,ConditionRich,2021.2.3,59.92635051502827,
44.0,47.75,20,0.75,Stimuli/P007/sun_btrxtfbwtggtrpfv.jpg,0,0,0.0,0,21,21,21,,,,,,,,,,,,,44.00560519999999,0.005605199999990873,None,81.7866812000002,81.7866812000002,81.7866812000002,81.7866812000002,81.7866812000002,81.7866812000002,81.7866812000002,81.7866812000002,81.7866812000002,81.7866812000002,,006,P007,2025_Feb_01_1011,ConditionRich,2021.2.3,59.92635051502827,
47.75,48.0,41,0.0,Stimuli/Blank.png,0,0,0.0,0,22,22,22,,,,,,,,,,,,,47.777273000000605,0.027273000000604952,None,85.55664510000042,85.55664510000042,85.55664510000042,85.55664510000042,85.55664510000042,85.55664510000042,85.55664510000042,85.55664510000042,85.55664510000042,85.55664510000042,,006,P007,2025_Feb_01_1011,ConditionRich,2021.2.3,59.92635051502827,
48.0,51.75,30,0.75,Stimuli/P007/things_jalapeno_04s.jpg,1,0,0.75,0,23,23,23,,,,,,,,,,,,,48.02646730000015,0.026467300000149407,2,85.80689299999995,85.80689299999995,85.80689299999995,85.80689299999995,85.80689299999995,85.80689299999995,85.80689299999995,86.54084849999981,85.80689299999995,85.80689299999995,0.46012419999988197,006,P007,2025_Feb_01_1011,ConditionRich,2021.2.3,59.92635051502827,
51.75,52.0,41,0.0,Stimuli/Blank.png,0,0,0.0,0,24,24,24,,,,,,,,,,,,,51.77807170000051,0.028071700000509736,None,89.5435078999999,89.5435078999999,89.5435078999999,89.5435078999999,89.5435078999999,89.5435078999999,89.5435078999999,89.5435078999999,89.5435078999999,89.5435078999999,,006,P007,2025_Feb_01_1011,ConditionRich,2021.2.3,59.92635051502827,
52.0,55.75,34,0.75,Stimuli/P007/things_moose_04s.jpg,1,0,0.75,0,25,25,25,,,,,,,,,,,,,52.01143140000022,0.011431400000219583,2,89.77705140000035,89.77705140000035,89.77705140000035,89.77705140000035,89.77705140000035,89.77705140000035,89.77705140000035,90.5110224,89.77705140000035,89.77705140000035,0.37262290000035136,006,P007,2025_Feb_01_1011,ConditionRich,2021.2.3,59.92635051502827,
55.75,56.0,41,0.0,Stimuli/Blank.png,0,0,0.0,0,26,26,26,,,,,,,,,,,,,55.765900800000054,0.015900800000054005,None,93.53036410000004,93.53036410000004,93.53036410000004,93.53036410000004,93.53036410000004,93.53036410000004,93.53036410000004,93.53036410000004,93.53036410000004,93.53036410000004,,006,P007,2025_Feb_01_1011,ConditionRich,2021.2.3,59.92635051502827,
56.0,59.75,8,0.75,Stimuli/P007/sun_bbnepvzvycqjjczs.jpg,0,0,0.0,0,27,27,27,,,,,,,,,,,,,56.00042389999999,0.000423899999987043,None,93.78064300000005,93.78064300000005,93.78064300000005,93.78064300000005,93.78064300000005,93.78064300000005,93.78064300000005,93.78064300000005,93.78064300000005,93.78064300000005,,006,P007,2025_Feb_01_1011,ConditionRich,2021.2.3,59.92635051502827,
59.75,60.0,41,0.0,Stimuli/Blank.png,0,0,0.0,0,28,28,28,,,,,,,,,,,,,59.771098000000165,0.021098000000165484,None,97.55059669999991,97.55059669999991,97.55059669999991,97.55059669999991,97.55059669999991,97.55059669999991,97.55059669999991,97.55059669999991,97.55059669999991,97.55059669999991,,006,P007,2025_Feb_01_1011,ConditionRich,2021.2.3,59.92635051502827,
60.0,63.75,39,0.75,Stimuli/P007/things_showerhead_04s.jpg,0,0,0.0,0,29,29,29,,,,,,,,,,,,,60.019506999999976,0.01950699999997596,None,97.80081570000038,97.80081570000038,97.80081570000038,97.80081570000038,97.80081570000038,97.80081570000038,97.80081570000038,97.80081570000038,97.80081570000038,97.80081570000038,,006,P007,2025_Feb_01_1011,ConditionRich,2021.2.3,59.92635051502827,
63.75,64.0,41,0.0,Stimuli/Blank.png,0,0,0.0,0,30,30,30,,,,,,,,,,,,,63.77251230000002,0.022512300000016694,None,101.53744610000012,101.53744610000012,101.53744610000012,101.53744610000012,101.53744610000012,101.53744610000012,101.53744610000012,101.53744610000012,101.53744610000012,101.53744610000012,,006,P007,2025_Feb_01_1011,ConditionRich,2021.2.3,59.92635051502827,
64.0,67.75,23,0.75,Stimuli/P007/things_bumper_04s.jpg,0,0,0.0,0,31,31,31,,,,,,,,,,,,,64.00584000000072,0.005840000000716827,None,101.77099090000047,101.77099090000047,101.77099090000047,101.77099090000047,101.77099090000047,101.77099090000047,101.77099090000047,101.77099090000047,101.77099090000047,101.77099090000047,,006,P007,2025_Feb_01_1011,ConditionRich,2021.2.3,59.92635051502827,
67.75,68.0,41,0.0,Stimuli/Blank.png,0,0,0.0,0,32,32,32,,,,,,,,,,,,,67.75931190000028,0.009311900000284368,None,105.5243204999997,105.5243204999997,105.5243204999997,105.5243204999997,105.5243204999997,105.5243204999997,105.5243204999997,105.5243204999997,105.5243204999997,105.5243204999997,,006,P007,2025_Feb_01_1011,ConditionRich,2021.2.3,59.92635051502827,
68.0,71.75,5,0.75,Stimuli/P007/sun_ayzkwnqsoiycbncn.jpg,0,0,0.0,0,33,33,33,,,,,,,,,,,,,68.00966150000022,0.009661500000220258,None,105.77452989999983,105.77452989999983,105.77452989999983,105.77452989999983,105.77452989999983,105.77452989999983,105.77452989999983,105.77452989999983,105.77452989999983,105.77452989999983,,006,P007,2025_Feb_01_1011,ConditionRich,2021.2.3,59.92635051502827,
71.75,72.0,41,0.0,Stimuli/Blank.png,0,0,0.0,0,34,34,34,,,,,,,,,,,,,71.76274569999987,0.01274569999986852,None,109.52785680000034,109.52785680000034,109.52785680000034,109.52785680000034,109.52785680000034,109.52785680000034,109.52785680000034,109.52785680000034,109.52785680000034,109.52785680000034,,006,P007,2025_Feb_01_1011,ConditionRich,2021.2.3,59.92635051502827,
72.0,75.75,4,0.75,Stimuli/P007/sun_awqukazlzsxaokai.jpg,0,0,0.0,0,35,35,35,,,,,,,,,,,,,72.01276320000034,0.012763200000335928,None,109.77807500000017,109.77807500000017,109.77807500000017,109.77807500000017,109.77807500000017,109.77807500000017,109.77807500000017,109.77807500000017,109.77807500000017,109.77807500000017,,006,P007,2025_Feb_01_1011,ConditionRich,2021.2.3,59.92635051502827,
75.75,76.0,41,0.0,Stimuli/Blank.png,0,0,0.0,0,36,36,36,,,,,,,,,,,,,75.7510615000001,0.0010615000001052977,None,113.53139360000023,113.53139360000023,113.53139360000023,113.53139360000023,113.53139360000023,113.53139360000023,113.53139360000023,113.53139360000023,113.53139360000023,113.53139360000023,,006,P007,2025_Feb_01_1011,ConditionRich,2021.2.3,59.92635051502827,
76.0,79.75,27,0.75,Stimuli/P007/things_fur_coat_04s.jpg,0,0,0.0,0,37,37,37,,,,,,,,,,,,,76.0161048,0.016104799999993702,None,113.78161950000049,113.78161950000049,113.78161950000049,113.78161950000049,113.78161950000049,113.78161950000049,113.78161950000049,113.78161950000049,113.78161950000049,113.78161950000049,,006,P007,2025_Feb_01_1011,ConditionRich,2021.2.3,59.92635051502827,
79.75,80.0,41,0.0,Stimuli/Blank.png,0,0,0.0,0,38,38,38,,,,,,,,,,,,,79.75257480000073,0.002574800000729738,None,117.51826009999968,117.51826009999968,117.51826009999968,117.51826009999968,117.51826009999968,117.51826009999968,117.51826009999968,117.51826009999968,117.51826009999968,117.51826009999968,,006,P007,2025_Feb_01_1011,ConditionRich,2021.2.3,59.92635051502827,
80.0,83.75,2,0.75,Stimuli/P007/sun_ajyzloqaptmicnfr.jpg,0,0,0.0,0,39,39,39,,,,,,,,,,,,,80.0031654000004,0.003165400000398222,None,117.76847300000009,117.76847300000009,117.76847300000009,117.76847300000009,117.76847300000009,117.76847300000009,117.76847300000009,117.76847300000009,117.76847300000009,117.76847300000009,,006,P007,2025_Feb_01_1011,ConditionRich,2021.2.3,59.92635051502827,
83.75,84.0,41,0.0,Stimuli/Blank.png,0,0,0.0,0,40,40,40,,,,,,,,,,,,,83.75668840000071,0.006688400000712136,None,121.52179870000055,121.52179870000055,121.52179870000055,121.52179870000055,121.52179870000055,121.52179870000055,121.52179870000055,121.52179870000055,121.52179870000055,121.52179870000055,,006,P007,2025_Feb_01_1011,ConditionRich,2021.2.3,59.92635051502827,
84.0,100.0,0,0.0,Stimuli/Blank.png,1,7,7.75,0,41,41,41,,,,,,,,,,,,,84.00672209999993,0.006722099999933562,2,121.77201839999998,121.77201839999998,121.77201839999998,121.77201839999998,121.77201839999998,121.77201839999998,128.76154990000032,129.51218659999995,121.77201839999998,121.77201839999998,7.407873099999961,006,P007,2025_Feb_01_1011,ConditionRich,2021.2.3,59.92635051502827,
100.0,103.75,36,0.75,Stimuli/P007/things_platypus_04s.jpg,1,3,3.75,0,42,42,42,,,,,,,,,,,,,100.00378360000013,0.003783600000133447,2,137.7861855000001,137.7861855000001,137.7861855000001,137.7861855000001,137.7861855000001,137.7861855000001,140.75547470000038,141.50612530000035,137.7861855000001,137.7861855000001,3.449593900000764,006,P007,2025_Feb_01_1011,ConditionRich,2021.2.3,59.92635051502827,
103.75,104.0,41,0.0,Stimuli/Blank.png,0,0,0.0,0,43,43,43,,,,,,,,,,,,,103.77373330000046,0.023733300000458257,None,141.53951229999984,141.53951229999984,141.53951229999984,141.53951229999984,141.53951229999984,141.53951229999984,141.53951229999984,141.53951229999984,141.53951229999984,141.53951229999984,,006,P007,2025_Feb_01_1011,ConditionRich,2021.2.3,59.92635051502827,
104.0,107.75,10,0.75,Stimuli/P007/sun_bdekcgnlcicvgpvq.jpg,0,0,0.0,0,44,44,44,,,,,,,,,,,,,104.00828730000012,0.008287300000120013,None,141.77301439999974,141.77301439999974,141.77301439999974,141.77301439999974,141.77301439999974,141.77301439999974,141.77301439999974,141.77301439999974,141.77301439999974,141.77301439999974,,006,P007,2025_Feb_01_1011,ConditionRich,2021.2.3,59.92635051502827,
107.75,108.0,41,0.0,Stimuli/Blank.png,0,0,0.0,0,45,45,45,,,,,,,,,,,,,107.7614450000001,0.011445000000094296,None,145.5263474000003,145.5263474000003,145.5263474000003,145.5263474000003,145.5263474000003,145.5263474000003,145.5263474000003,145.5263474000003,145.5263474000003,145.5263474000003,,006,P007,2025_Feb_01_1011,ConditionRich,2021.2.3,59.92635051502827,
108.0,111.75,13,0.75,Stimuli/P007/sun_bkhuvtsqontzwtbo.jpg,0,0,0.0,0,46,46,46,,,,,,,,,,,,,108.01145090000045,0.011450900000454567,None,145.79328600000008,145.79328600000008,145.79328600000008,145.79328600000008,145.79328600000008,145.79328600000008,145.79328600000008,145.79328600000008,145.79328600000008,145.79328600000008,,006,P007,2025_Feb_01_1011,ConditionRich,2021.2.3,59.92635051502827,
111.75,112.0,41,0.0,Stimuli/Blank.png,0,0,0.0,0,47,47,47,,,,,,,,,,,,,111.78174680000029,0.03174680000029184,None,149.5465860000004,149.5465860000004,149.5465860000004,149.5465860000004,149.5465860000004,149.5465860000004,149.5465860000004,149.5465860000004,149.5465860000004,149.5465860000004,,006,P007,2025_Feb_01_1011,ConditionRich,2021.2.3,59.92635051502827,
112.0,115.75,35,0.75,Stimuli/P007/things_pecan_04s.jpg,0,0,0.0,0,48,48,48,,,,,,,,,,,,,112.01648240000031,0.016482400000313646,None,149.79680780000035,149.79680780000035,149.79680780000035,149.79680780000035,149.79680780000035,149.79680780000035,149.79680780000035,149.79680780000035,149.79680780000035,149.79680780000035,,006,P007,2025_Feb_01_1011,ConditionRich,2021.2.3,59.92635051502827,
115.75,116.0,41,0.0,Stimuli/Blank.png,0,0,0.0,0,49,49,49,,,,,,,,,,,,,115.76756879999994,0.017568799999935436,None,153.5334313000003,153.5334313000003,153.5334313000003,153.5334313000003,153.5334313000003,153.5334313000003,153.5334313000003,153.5334313000003,153.5334313000003,153.5334313000003,,006,P007,2025_Feb_01_1011,ConditionRich,2021.2.3,59.92635051502827,
116.0,119.75,15,0.75,Stimuli/P007/sun_bmeductqpfkygtww.jpg,0,0,0.0,0,50,50,50,,,,,,,,,,,,,116.00265110000055,0.0026511000005484675,None,153.78370079999968,153.78370079999968,153.78370079999968,153.78370079999968,153.78370079999968,153.78370079999968,153.78370079999968,153.78370079999968,153.78370079999968,153.78370079999968,,006,P007,2025_Feb_01_1011,ConditionRich,2021.2.3,59.92635051502827,
119.75,120.0,41,0.0,Stimuli/Blank.png,0,0,0.0,0,51,51,51,,,,,,,,,,,,,119.77192150000064,0.0219215000006443,None,157.53698950000035,157.53698950000035,157.53698950000035,157.53698950000035,157.53698950000035,157.53698950000035,157.53698950000035,157.53698950000035,157.53698950000035,157.53698950000035,,006,P007,2025_Feb_01_1011,ConditionRich,2021.2.3,59.92635051502827,
120.0,123.75,14,0.75,Stimuli/P007/sun_bkvjqgmploznrhxt.jpg,1,2,2.75,0,52,52,52,,,,,,,,,,,,,120.00497369999994,0.004973699999936798,2,157.77052379999986,157.77052379999986,157.77052379999986,157.77052379999986,157.77052379999986,157.77052379999986,159.75561519999974,160.50628490000054,157.77052379999986,157.77052379999986,2.4272004000004017,006,P007,2025_Feb_01_1011,ConditionRich,2021.2.3,59.92635051502827,
123.75,124.0,41,0.0,Stimuli/Blank.png,0,0,0.0,0,53,53,53,,,,,,,,,,,,,123.75940750000063,0.009407500000634172,None,161.52385630000026,161.52385630000026,161.52385630000026,161.52385630000026,161.52385630000026,161.52385630000026,161.52385630000026,161.52385630000026,161.52385630000026,161.52385630000026,,006,P007,2025_Feb_01_1011,ConditionRich,2021.2.3,59.92635051502827,
124.0,127.75,1,0.75,Stimuli/P007/sun_abrlrupzcrwpxqfc.jpg,0,0,0.0,0,54,54,54,,,,,,,,,,,,,124.00865270000031,0.008652700000311597,None,161.7907599,161.7907599,161.7907599,161.7907599,161.7907599,161.7907599,161.7907599,161.7907599,161.7907599,161.7907599,,006,P007,2025_Feb_01_1011,ConditionRich,2021.2.3,59.92635051502827,
127.75,128.0,41,0.0,Stimuli/Blank.png,0,0,0.0,0,55,55,55,,,,,,,,,,,,,127.77880370000003,0.028803700000025856,None,165.54406720000043,165.54406720000043,165.54406720000043,165.54406720000043,165.54406720000043,165.54406720000043,165.54406720000043,165.54406720000043,165.54406720000043,165.54406720000043,,006,P007,2025_Feb_01_1011,ConditionRich,2021.2.3,59.92635051502827,
128.0,131.75,33,0.75,Stimuli/P007/things_man_04s.jpg,0,0,0.0,0,56,56,56,,,,,,,,,,,,,128.01184340000054,0.011843400000543625,None,165.7776147000004,165.7776147000004,165.7776147000004,165.7776147000004,165.7776147000004,165.7776147000004,165.7776147000004,165.7776147000004,165.7776147000004,165.7776147000004,,006,P007,2025_Feb_01_1011,ConditionRich,2021.2.3,59.92635051502827,
131.75,132.0,41,0.0,Stimuli/Blank.png,0,0,0.0,0,57,57,57,,,,,,,,,,,,,131.7659747000007,0.01597470000069734,None,169.53093590000026,169.53093590000026,169.53093590000026,169.53093590000026,169.53093590000026,169.53093590000026,169.53093590000026,169.53093590000026,169.53093590000026,169.53093590000026,,006,P007,2025_Feb_01_1011,ConditionRich,2021.2.3,59.92635051502827,
132.0,135.75,37,0.75,Stimuli/P007/things_praying_mantis_04s.jpg,0,0,0.0,0,58,58,58,,,,,,,,,,,,,132.00099940000018,0.0009994000001825043,None,169.78114840000035,169.78114840000035,169.78114840000035,169.78114840000035,169.78114840000035,169.78114840000035,169.78114840000035,169.78114840000035,169.78114840000035,169.78114840000035,,006,P007,2025_Feb_01_1011,ConditionRich,2021.2.3,59.92635051502827,
135.75,136.0,41,0.0,Stimuli/Blank.png,0,0,0.0,0,59,59,59,,,,,,,,,,,,,135.770939,0.020938999999998487,None,173.55114839999987,173.55114839999987,173.55114839999987,173.55114839999987,173.55114839999987,173.55114839999987,173.55114839999987,173.55114839999987,173.55114839999987,173.55114839999987,,006,P007,2025_Feb_01_1011,ConditionRich,2021.2.3,59.92635051502827,
136.0,139.75,16,0.75,Stimuli/P007/sun_bnpggenxuowzsywq.jpg,0,0,0.0,0,60,60,60,,,,,,,,,,,,,136.01982370000042,0.019823700000415556,None,173.78469510000014,173.78469510000014,173.78469510000014,173.78469510000014,173.78469510000014,173.78469510000014,173.78469510000014,173.78469510000014,173.78469510000014,173.78469510000014,,006,P007,2025_Feb_01_1011,ConditionRich,2021.2.3,59.92635051502827,
139.75,140.0,41,0.0,Stimuli/Blank.png,0,0,0.0,0,61,61,61,,,,,,,,,,,,,139.75657880000017,0.006578800000170304,None,177.5213291,177.5213291,177.5213291,177.5213291,177.5213291,177.5213291,177.5213291,177.5213291,177.5213291,177.5213291,,006,P007,2025_Feb_01_1011,ConditionRich,2021.2.3,59.92635051502827,
140.0,143.75,19,0.75,Stimuli/P007/sun_brpfgrmubnnjvfkw.jpg,0,0,0.0,0,62,62,62,,,,,,,,,,,,,140.0062243000002,0.006224300000212679,None,177.77154859999973,177.77154859999973,177.77154859999973,177.77154859999973,177.77154859999973,177.77154859999973,177.77154859999973,177.77154859999973,177.77154859999973,177.77154859999973,,006,P007,2025_Feb_01_1011,ConditionRich,2021.2.3,59.92635051502827,
143.75,144.0,41,0.0,Stimuli/Blank.png,0,0,0.0,0,63,63,63,,,,,,,,,,,,,143.76117880000038,0.011178800000379852,None,181.54156070000045,181.54156070000045,181.54156070000045,181.54156070000045,181.54156070000045,181.54156070000045,181.54156070000045,181.54156070000045,181.54156070000045,181.54156070000045,,006,P007,2025_Feb_01_1011,ConditionRich,2021.2.3,59.92635051502827,
144.0,147.75,29,0.75,Stimuli/P007/things_hawk_04s.jpg,0,0,0.0,0,64,64,64,,,,,,,,,,,,,144.0266700000002,0.026670000000194705,None,181.79177040000013,181.79177040000013,181.79177040000013,181.79177040000013,181.79177040000013,181.79177040000013,181.79177040000013,181.79177040000013,181.79177040000013,181.79177040000013,,006,P007,2025_Feb_01_1011,ConditionRich,2021.2.3,59.92635051502827,
147.75,148.0,41,0.0,Stimuli/Blank.png,0,0,0.0,0,65,65,65,,,,,,,,,,,,,147.7631590000001,0.013159000000086962,None,185.5284115000004,185.5284115000004,185.5284115000004,185.5284115000004,185.5284115000004,185.5284115000004,185.5284115000004,185.5284115000004,185.5284115000004,185.5284115000004,,006,P007,2025_Feb_01_1011,ConditionRich,2021.2.3,59.92635051502827,
148.0,151.75,24,0.75,Stimuli/P007/things_collar_04s.jpg,0,0,0.0,0,66,66,66,,,,,,,,,,,,,148.01390600000013,0.013906000000133645,None,185.77862770000047,185.77862770000047,185.77862770000047,185.77862770000047,185.77862770000047,185.77862770000047,185.77862770000047,185.77862770000047,185.77862770000047,185.77862770000047,,006,P007,2025_Feb_01_1011,ConditionRich,2021.2.3,59.92635051502827,
151.75,152.0,41,0.0,Stimuli/Blank.png,0,0,0.0,0,67,67,67,,,,,,,,,,,,,151.75249750000057,0.0024975000005724723,None,189.53195310000046,189.53195310000046,189.53195310000046,189.53195310000046,189.53195310000046,189.53195310000046,189.53195310000046,189.53195310000046,189.53195310000046,189.53195310000046,,006,P007,2025_Feb_01_1011,ConditionRich,2021.2.3,59.92635051502827,
152.0,155.75,32,0.75,Stimuli/P007/things_maggot_04s.jpg,0,0,0.0,0,68,68,68,,,,,,,,,,,,,152.0165033000003,0.016503300000294985,None,189.78216650000013,189.78216650000013,189.78216650000013,189.78216650000013,189.78216650000013,189.78216650000013,189.78216650000013,189.78216650000013,189.78216650000013,189.78216650000013,,006,P007,2025_Feb_01_1011,ConditionRich,2021.2.3,59.92635051502827,
155.75,156.0,41,0.0,Stimuli/Blank.png,0,0,0.0,0,69,69,69,,,,,,,,,,,,,155.75379049999992,0.0037904999999227584,None,193.51881140000023,193.51881140000023,193.51881140000023,193.51881140000023,193.51881140000023,193.51881140000023,193.51881140000023,193.51881140000023,193.51881140000023,193.51881140000023,,006,P007,2025_Feb_01_1011,ConditionRich,2021.2.3,59.92635051502827,
156.0,159.75,3,0.75,Stimuli/P007/sun_aueftjhdwnvkbzlt.jpg,1,1,1.75,0,70,70,70,,,,,,,,,,,,,156.0050323000005,0.005032300000493706,2,193.78574389999994,193.78574389999994,193.78574389999994,193.78574389999994,193.78574389999994,193.78574389999994,194.75327180000022,195.50393210000038,193.78574389999994,193.78574389999994,1.454273899999862,006,P007,2025_Feb_01_1011,ConditionRich,2021.2.3,59.92635051502827,
159.75,160.0,41,0.0,Stimuli/Blank.png,0,0,0.0,0,71,71,71,,,,,,,,,,,,,159.77607940000053,0.02607940000052622,None,197.55573879999974,197.55573879999974,197.55573879999974,197.55573879999974,197.55573879999974,197.55573879999974,197.55573879999974,197.55573879999974,197.55573879999974,197.55573879999974,,006,P007,2025_Feb_01_1011,ConditionRich,2021.2.3,59.92635051502827,
160.0,163.75,7,0.75,Stimuli/P007/sun_babhwrqvnhanonuy.jpg,0,0,0.0,0,72,72,72,,,,,,,,,,,,,160.0236091000006,0.02360910000061267,None,197.80600109999978,197.80600109999978,197.80600109999978,197.80600109999978,197.80600109999978,197.80600109999978,197.80600109999978,197.80600109999978,197.80600109999978,197.80600109999978,,006,P007,2025_Feb_01_1011,ConditionRich,2021.2.3,59.92635051502827,
163.75,164.0,41,0.0,Stimuli/Blank.png,0,0,0.0,0,73,73,73,,,,,,,,,,,,,163.77744900000016,0.027449000000160595,None,201.5425739000002,201.5425739000002,201.5425739000002,201.5425739000002,201.5425739000002,201.5425739000002,201.5425739000002,201.5425739000002,201.5425739000002,201.5425739000002,,006,P007,2025_Feb_01_1011,ConditionRich,2021.2.3,59.92635051502827,
164.0,167.75,25,0.75,Stimuli/P007/things_credit_card_04s.jpg,0,0,0.0,0,74,74,74,,,,,,,,,,,,,164.0103426000005,0.010342600000512903,None,201.77611700000034,201.77611700000034,201.77611700000034,201.77611700000034,201.77611700000034,201.77611700000034,201.77611700000034,201.77611700000034,201.77611700000034,201.77611700000034,,006,P007,2025_Feb_01_1011,ConditionRich,2021.2.3,59.92635051502827,
167.75,168.0,41,0.0,Stimuli/Blank.png,0,0,0.0,0,75,75,75,,,,,,,,,,,,,167.76590510000005,0.015905100000054517,None,205.5461389000002,205.5461389000002,205.5461389000002,205.5461389000002,205.5461389000002,205.5461389000002,205.5461389000002,205.5461389000002,205.5461389000002,205.5461389000002,,006,P007,2025_Feb_01_1011,ConditionRich,2021.2.3,59.92635051502827,
168.0,171.75,6,0.75,Stimuli/P007/sun_azpjjfwsbjdjcopb.jpg,0,0,0.0,0,76,76,76,,,,,,,,,,,,,168.0144577000001,0.01445770000009361,None,205.79633459999968,205.79633459999968,205.79633459999968,205.79633459999968,205.79633459999968,205.79633459999968,205.79633459999968,205.79633459999968,205.79633459999968,205.79633459999968,,006,P007,2025_Feb_01_1011,ConditionRich,2021.2.3,59.92635051502827,
171.75,172.0,41,0.0,Stimuli/Blank.png,0,0,0.0,0,77,77,77,,,,,,,,,,,,,171.76789300000019,0.017893000000185566,None,209.53297350000048,209.53297350000048,209.53297350000048,209.53297350000048,209.53297350000048,209.53297350000048,209.53297350000048,209.53297350000048,209.53297350000048,209.53297350000048,,006,P007,2025_Feb_01_1011,ConditionRich,2021.2.3,59.92635051502827,
172.0,175.75,38,0.75,Stimuli/P007/things_rollerblade_04s.jpg,0,0,0.0,0,78,78,78,,,,,,,,,,,,,172.0016998000001,0.0016998000000967295,None,209.76651000000038,209.76651000000038,209.76651000000038,209.76651000000038,209.76651000000038,209.76651000000038,209.76651000000038,209.76651000000038,209.76651000000038,209.76651000000038,,006,P007,2025_Feb_01_1011,ConditionRich,2021.2.3,59.92635051502827,
175.75,176.0,41,0.0,Stimuli/Blank.png,0,0,0.0,0,79,79,79,,,,,,,,,,,,,175.75665430000026,0.006654300000263902,None,213.53656670000055,213.53656670000055,213.53656670000055,213.53656670000055,213.53656670000055,213.53656670000055,213.53656670000055,213.53656670000055,213.53656670000055,213.53656670000055,,006,P007,2025_Feb_01_1011,ConditionRich,2021.2.3,59.92635051502827,
176.0,179.75,22,0.75,Stimuli/P007/things_boar_04s.jpg,1,0,0.75,0,80,80,80,,,,,,,,,,,,,176.0208837,0.02088370000001305,2,213.78672970000025,213.78672970000025,213.78672970000025,213.78672970000025,213.78672970000025,213.78672970000025,213.78672970000025,214.5374453000004,213.78672970000025,213.78672970000025,0.4179832999998325,006,P007,2025_Feb_01_1011,ConditionRich,2021.2.3,59.92635051502827,
179.75,180.0,41,0.0,Stimuli/Blank.png,0,0,0.0,0,81,81,81,,,,,,,,,,,,,179.75845600000048,0.008456000000478525,None,217.5233771000003,217.5233771000003,217.5233771000003,217.5233771000003,217.5233771000003,217.5233771000003,217.5233771000003,217.5233771000003,217.5233771000003,217.5233771000003,,006,P007,2025_Feb_01_1011,ConditionRich,2021.2.3,59.92635051502827,
180.0,196.0,0,0.0,Stimuli/Blank.png,1,10,10.75,0,82,82,82,,,,,,,,,,,,,180.00793190000059,0.007931900000585301,2,217.7735902000004,217.7735902000004,217.7735902000004,217.7735902000004,217.7735902000004,217.7735902000004,227.74908330000017,228.49978190000002,217.7735902000004,217.7735902000004,10.306257000000187,006,P007,2025_Feb_01_1011,ConditionRich,2021.2.3,59.92635051502827,
196.0,199.75,30,0.75,Stimuli/P007/things_jalapeno_04s.jpg,0,0,0.0,0,83,83,83,,,,,,,,,,,,,196.00650100000075,0.006501000000753265,None,233.7877623000004,233.7877623000004,233.7877623000004,233.7877623000004,233.7877623000004,233.7877623000004,233.7877623000004,233.7877623000004,233.7877623000004,233.7877623000004,,006,P007,2025_Feb_01_1011,ConditionRich,2021.2.3,59.92635051502827,
199.75,200.0,41,0.0,Stimuli/Blank.png,0,0,0.0,0,84,84,84,,,,,,,,,,,,,199.77541509999992,0.02541509999991831,None,237.5410810000003,237.5410810000003,237.5410810000003,237.5410810000003,237.5410810000003,237.5410810000003,237.5410810000003,237.5410810000003,237.5410810000003,237.5410810000003,,006,P007,2025_Feb_01_1011,ConditionRich,2021.2.3,59.92635051502827,
200.0,203.75,27,0.75,Stimuli/P007/things_fur_coat_04s.jpg,0,0,0.0,0,85,85,85,,,,,,,,,,,,,200.01113460000033,0.011134600000332284,None,237.7913122,237.7913122,237.7913122,237.7913122,237.7913122,237.7913122,237.7913122,237.7913122,237.7913122,237.7913122,,006,P007,2025_Feb_01_1011,ConditionRich,2021.2.3,59.92635051502827,
203.75,204.0,41,0.0,Stimuli/Blank.png,0,0,0.0,0,86,86,86,,,,,,,,,,,,,203.7810513000004,0.03105130000039935,None,241.56130630000007,241.56130630000007,241.56130630000007,241.56130630000007,241.56130630000007,241.56130630000007,241.56130630000007,241.56130630000007,241.56130630000007,241.56130630000007,,006,P007,2025_Feb_01_1011,ConditionRich,2021.2.3,59.92635051502827,
204.0,207.75,31,0.75,Stimuli/P007/things_jug_04s.jpg,0,0,0.0,0,87,87,87,,,,,,,,,,,,,204.03163270000005,0.03163270000004559,None,241.81152399999974,241.81152399999974,241.81152399999974,241.81152399999974,241.81152399999974,241.81152399999974,241.81152399999974,241.81152399999974,241.81152399999974,241.81152399999974,,006,P007,2025_Feb_01_1011,ConditionRich,2021.2.3,59.92635051502827,
207.75,208.0,41,0.0,Stimuli/Blank.png,0,0,0.0,0,88,88,88,,,,,,,,,,,,,207.76673120000032,0.016731200000322133,None,245.53148349999992,245.53148349999992,245.53148349999992,245.53148349999992,245.53148349999992,245.53148349999992,245.53148349999992,245.53148349999992,245.53148349999992,245.53148349999992,,006,P007,2025_Feb_01_1011,ConditionRich,2021.2.3,59.92635051502827,
208.0,211.75,28,0.75,Stimuli/P007/things_girl_04s.jpg,0,0,0.0,0,89,89,89,,,,,,,,,,,,,208.00138120000065,0.0013812000006510061,None,245.78169919999982,245.78169919999982,245.78169919999982,245.78169919999982,245.78169919999982,245.78169919999982,245.78169919999982,245.78169919999982,245.78169919999982,245.78169919999982,,006,P007,2025_Feb_01_1011,ConditionRich,2021.2.3,59.92635051502827,
211.75,212.0,41,0.0,Stimuli/Blank.png,0,0,0.0,0,90,90,90,,,,,,,,,,,,,211.77135950000047,0.0213595000004716,None,249.55172680000032,249.55172680000032,249.55172680000032,249.55172680000032,249.55172680000032,249.55172680000032,249.55172680000032,249.55172680000032,249.55172680000032,249.55172680000032,,006,P007,2025_Feb_01_1011,ConditionRich,2021.2.3,59.92635051502827,
212.0,215.75,37,0.75,Stimuli/P007/things_praying_mantis_04s.jpg,0,0,0.0,0,91,91,91,,,,,,,,,,,,,212.02222729999994,0.022227299999940442,None,249.80193320000035,249.80193320000035,249.80193320000035,249.80193320000035,249.80193320000035,249.80193320000035,249.80193320000035,249.80193320000035,249.80193320000035,249.80193320000035,,006,P007,2025_Feb_01_1011,ConditionRich,2021.2.3,59.92635051502827,
215.75,216.0,41,0.0,Stimuli/Blank.png,0,0,0.0,0,92,92,92,,,,,,,,,,,,,215.7733747000002,0.02337470000020403,None,253.53856040000028,253.53856040000028,253.53856040000028,253.53856040000028,253.53856040000028,253.53856040000028,253.53856040000028,253.53856040000028,253.53856040000028,253.53856040000028,,006,P007,2025_Feb_01_1011,ConditionRich,2021.2.3,59.92635051502827,
216.0,219.75,4,0.75,Stimuli/P007/sun_awqukazlzsxaokai.jpg,0,0,0.0,0,93,93,93,,,,,,,,,,,,,216.00764340000023,0.007643400000233669,None,253.78876050000054,253.78876050000054,253.78876050000054,253.78876050000054,253.78876050000054,253.78876050000054,253.78876050000054,253.78876050000054,253.78876050000054,253.78876050000054,,006,P007,2025_Feb_01_1011,ConditionRich,2021.2.3,59.92635051502827,
219.75,220.0,41,0.0,Stimuli/Blank.png,0,0,0.0,0,94,94,94,,,,,,,,,,,,,219.7772147000005,0.027214700000513403,None,257.5421041999998,257.5421041999998,257.5421041999998,257.5421041999998,257.5421041999998,257.5421041999998,257.5421041999998,257.5421041999998,257.5421041999998,257.5421041999998,,006,P007,2025_Feb_01_1011,ConditionRich,2021.2.3,59.92635051502827,
220.0,223.75,14,0.75,Stimuli/P007/sun_bkvjqgmploznrhxt.jpg,0,0,0.0,0,95,95,95,,,,,,,,,,,,,220.01009140000042,0.010091400000419526,None,257.7756508000002,257.7756508000002,257.7756508000002,257.7756508000002,257.7756508000002,257.7756508000002,257.7756508000002,257.7756508000002,257.7756508000002,257.7756508000002,,006,P007,2025_Feb_01_1011,ConditionRich,2021.2.3,59.92635051502827,
223.75,224.0,41,0.0,Stimuli/Blank.png,0,0,0.0,0,96,96,96,,,,,,,,,,,,,223.76340010000058,0.013400100000581006,None,261.52896130000045,261.52896130000045,261.52896130000045,261.52896130000045,261.52896130000045,261.52896130000045,261.52896130000045,261.52896130000045,261.52896130000045,261.52896130000045,,006,P007,2025_Feb_01_1011,ConditionRich,2021.2.3,59.92635051502827,
224.0,227.75,10,0.75,Stimuli/P007/sun_bdekcgnlcicvgpvq.jpg,0,0,0.0,0,97,97,97,,,,,,,,,,,,,224.01608269999997,0.01608269999996992,None,261.79586819999986,261.79586819999986,261.79586819999986,261.79586819999986,261.79586819999986,261.79586819999986,261.79586819999986,261.79586819999986,261.79586819999986,261.79586819999986,,006,P007,2025_Feb_01_1011,ConditionRich,2021.2.3,59.92635051502827,
227.75,228.0,41,0.0,Stimuli/Blank.png,0,0,0.0,0,98,98,98,,,,,,,,,,,,,227.76707119999992,0.017071199999918463,None,265.5325045999998,265.5325045999998,265.5325045999998,265.5325045999998,265.5325045999998,265.5325045999998,265.5325045999998,265.5325045999998,265.5325045999998,265.5325045999998,,006,P007,2025_Feb_01_1011,ConditionRich,2021.2.3,59.92635051502827,
228.0,231.75,3,0.75,Stimuli/P007/sun_aueftjhdwnvkbzlt.jpg,1,3,3.75,0,99,99,99,,,,,,,,,,,,,228.00026660000003,0.0002666000000317581,2,265.76604250000037,265.76604250000037,265.76604250000037,265.76604250000037,265.76604250000037,265.76604250000037,268.76871720000054,269.5027349000002,265.76604250000037,265.76604250000037,3.407825600000251,006,P007,2025_Feb_01_1011,ConditionRich,2021.2.3,59.92635051502827,
231.75,232.0,41,0.0,Stimuli/Blank.png,0,0,0.0,0,100,100,100,,,,,,,,,,,,,231.7547508000007,0.004750800000692834,None,269.51938859999973,269.51938859999973,269.51938859999973,269.51938859999973,269.51938859999973,269.51938859999973,269.51938859999973,269.51938859999973,269.51938859999973,269.51938859999973,,006,P007,2025_Feb_01_1011,ConditionRich,2021.2.3,59.92635051502827,
232.0,235.75,18,0.75,Stimuli/P007/sun_borgfidyubrwsuuw.jpg,1,1,1.75,0,101,101,101,,,,,,,,,,,,,232.00628080000024,0.006280800000240561,2,269.78628019999996,269.78628019999996,269.78628019999996,269.78628019999996,269.78628019999996,269.78628019999996,270.77046530000007,271.52112450000004,269.78628019999996,269.78628019999996,1.3894839999993565,006,P007,2025_Feb_01_1011,ConditionRich,2021.2.3,59.92635051502827,
235.75,236.0,41,0.0,Stimuli/Blank.png,0,0,0.0,0,102,102,102,,,,,,,,,,,,,235.7757362000002,0.025736200000210374,None,273.5396026999997,273.5396026999997,273.5396026999997,273.5396026999997,273.5396026999997,273.5396026999997,273.5396026999997,273.5396026999997,273.5396026999997,273.5396026999997,,006,P007,2025_Feb_01_1011,ConditionRich,2021.2.3,59.92635051502827,
236.0,239.75,22,0.75,Stimuli/P007/things_boar_04s.jpg,0,0,0.0,0,103,103,103,,,,,,,,,,,,,236.00746400000025,0.0074640000002546,None,273.7898207999997,273.7898207999997,273.7898207999997,273.7898207999997,273.7898207999997,273.7898207999997,273.7898207999997,273.7898207999997,273.7898207999997,273.7898207999997,,006,P007,2025_Feb_01_1011,ConditionRich,2021.2.3,59.92635051502827,
239.75,240.0,41,0.0,Stimuli/Blank.png,0,0,0.0,0,104,104,104,,,,,,,,,,,,,239.77731360000053,0.027313600000525184,None,277.5431245,277.5431245,277.5431245,277.5431245,277.5431245,277.5431245,277.5431245,277.5431245,277.5431245,277.5431245,,006,P007,2025_Feb_01_1011,ConditionRich,2021.2.3,59.92635051502827,
240.0,243.75,8,0.75,Stimuli/P007/sun_bbnepvzvycqjjczs.jpg,0,0,0.0,0,105,105,105,,,,,,,,,,,,,240.012248,0.012247999999999593,None,277.7933670000002,277.7933670000002,277.7933670000002,277.7933670000002,277.7933670000002,277.7933670000002,277.7933670000002,277.7933670000002,277.7933670000002,277.7933670000002,,006,P007,2025_Feb_01_1011,ConditionRich,2021.2.3,59.92635051502827,
243.75,244.0,41,0.0,Stimuli/Blank.png,0,0,0.0,0,106,106,106,,,,,,,,,,,,,243.78156320000016,0.031563200000164215,None,281.54667770000015,281.54667770000015,281.54667770000015,281.54667770000015,281.54667770000015,281.54667770000015,281.54667770000015,281.54667770000015,281.54667770000015,281.54667770000015,,006,P007,2025_Feb_01_1011,ConditionRich,2021.2.3,59.92635051502827,
244.0,247.75,5,0.75,Stimuli/P007/sun_ayzkwnqsoiycbncn.jpg,0,0,0.0,0,107,107,107,,,,,,,,,,,,,244.01718130000063,0.017181300000629562,None,281.7969002,281.7969002,281.7969002,281.7969002,281.7969002,281.7969002,281.7969002,281.7969002,281.7969002,281.7969002,,006,P007,2025_Feb_01_1011,ConditionRich,2021.2.3,59.92635051502827,
247.75,248.0,41,0.0,Stimuli/Blank.png,0,0,0.0,0,108,108,108,,,,,,,,,,,,,247.7676951000003,0.01769510000031005,None,285.5335412000004,285.5335412000004,285.5335412000004,285.5335412000004,285.5335412000004,285.5335412000004,285.5335412000004,285.5335412000004,285.5335412000004,285.5335412000004,,006,P007,2025_Feb_01_1011,ConditionRich,2021.2.3,59.92635051502827,
248.0,251.75,39,0.75,Stimuli/P007/things_showerhead_04s.jpg,1,3,3.75,0,109,109,109,,,,,,,,,,,,,248.00196930000038,0.0019693000003826455,2,285.78377379999984,285.78377379999984,285.78377379999984,285.78377379999984,285.78377379999984,285.78377379999984,288.7530434999999,289.5036944000003,285.78377379999984,285.78377379999984,3.3661315999997896,006,P007,2025_Feb_01_1011,ConditionRich,2021.2.3,59.92635051502827,
251.75,252.0,41,0.0,Stimuli/Blank.png,0,0,0.0,0,110,110,110,,,,,,,,,,,,,251.77210060000016,0.02210060000015801,None,289.5370737000003,289.5370737000003,289.5370737000003,289.5370737000003,289.5370737000003,289.5370737000003,289.5370737000003,289.5370737000003,289.5370737000003,289.5370737000003,,006,P007,2025_Feb_01_1011,ConditionRich,2021.2.3,59.92635051502827,
252.0,255.75,15,0.75,Stimuli/P007/sun_bmeductqpfkygtww.jpg,0,0,0.0,0,111,111,111,,,,,,,,,,,,,252.00542610000048,0.005426100000477163,None,289.78729509999994,289.78729509999994,289.78729509999994,289.78729509999994,289.78729509999994,289.78729509999994,289.78729509999994,289.78729509999994,289.78729509999994,289.78729509999994,,006,P007,2025_Feb_01_1011,ConditionRich,2021.2.3,59.92635051502827,
255.75,256.0,41,0.0,Stimuli/Blank.png,0,0,0.0,0,112,112,112,,,,,,,,,,,,,255.77553330000046,0.025533300000461168,None,293.5406203000002,293.5406203000002,293.5406203000002,293.5406203000002,293.5406203000002,293.5406203000002,293.5406203000002,293.5406203000002,293.5406203000002,293.5406203000002,,006,P007,2025_Feb_01_1011,ConditionRich,2021.2.3,59.92635051502827,
256.0,259.75,23,0.75,Stimuli/P007/things_bumper_04s.jpg,0,0,0.0,0,113,113,113,,,,,,,,,,,,,256.00841089999994,0.008410899999944377,None,293.77415199999996,293.77415199999996,293.77415199999996,293.77415199999996,293.77415199999996,293.77415199999996,293.77415199999996,293.77415199999996,293.77415199999996,293.77415199999996,,006,P007,2025_Feb_01_1011,ConditionRich,2021.2.3,59.92635051502827,
259.75,260.0,41,0.0,Stimuli/Blank.png,0,0,0.0,0,114,114,114,,,,,,,,,,,,,259.7627253999999,0.012725399999908404,None,297.5274698000003,297.5274698000003,297.5274698000003,297.5274698000003,297.5274698000003,297.5274698000003,297.5274698000003,297.5274698000003,297.5274698000003,297.5274698000003,,006,P007,2025_Feb_01_1011,ConditionRich,2021.2.3,59.92635051502827,
260.0,263.75,21,0.75,Stimuli/P007/things_baby_04s.jpg,0,0,0.0,0,115,115,115,,,,,,,,,,,,,260.01246080000055,0.012460800000553718,None,297.7777027000002,297.7777027000002,297.7777027000002,297.7777027000002,297.7777027000002,297.7777027000002,297.7777027000002,297.7777027000002,297.7777027000002,297.7777027000002,,006,P007,2025_Feb_01_1011,ConditionRich,2021.2.3,59.92635051502827,
263.75,264.0,41,0.0,Stimuli/Blank.png,0,0,0.0,0,116,116,116,,,,,,,,,,,,,263.74853320000057,-0.0014667999994344427,None,301.51432920000025,301.51432920000025,301.51432920000025,301.51432920000025,301.51432920000025,301.51432920000025,301.51432920000025,301.51432920000025,301.51432920000025,301.51432920000025,,006,P007,2025_Feb_01_1011,ConditionRich,2021.2.3,59.92635051502827,
264.0,267.75,29,0.75,Stimuli/P007/things_hawk_04s.jpg,1,1,1.75,0,117,117,117,,,,,,,,,,,,,264.0161283000007,0.016128300000673335,2,301.7812334,301.7812334,301.7812334,301.7812334,301.7812334,301.7812334,302.7654591999999,303.5161005,301.7812334,301.7812334,1.5587523000003785,006,P007,2025_Feb_01_1011,ConditionRich,2021.2.3,59.92635051502827,
267.75,268.0,41,0.0,Stimuli/Blank.png,0,0,0.0,0,118,118,118,,,,,,,,,,,,,267.7521720000004,0.0021720000004279427,None,305.5178727000002,305.5178727000002,305.5178727000002,305.5178727000002,305.5178727000002,305.5178727000002,305.5178727000002,305.5178727000002,305.5178727000002,305.5178727000002,,006,P007,2025_Feb_01_1011,ConditionRich,2021.2.3,59.92635051502827,
268.0,271.75,19,0.75,Stimuli/P007/sun_brpfgrmubnnjvfkw.jpg,1,0,0.75,0,119,119,119,,,,,,,,,,,,,268.0023175000006,0.0023175000005721813,2,305.76809349999985,305.76809349999985,305.76809349999985,305.76809349999985,305.76809349999985,305.76809349999985,305.76809349999985,306.50206890000027,305.76809349999985,305.76809349999985,0.4207182999998622,006,P007,2025_Feb_01_1011,ConditionRich,2021.2.3,59.92635051502827,
271.75,272.0,41,0.0,Stimuli/Blank.png,0,0,0.0,0,120,120,120,,,,,,,,,,,,,271.7556564000006,0.005656400000589201,None,309.5214047999998,309.5214047999998,309.5214047999998,309.5214047999998,309.5214047999998,309.5214047999998,309.5214047999998,309.5214047999998,309.5214047999998,309.5214047999998,,006,P007,2025_Feb_01_1011,ConditionRich,2021.2.3,59.92635051502827,
272.0,275.75,6,0.75,Stimuli/P007/sun_azpjjfwsbjdjcopb.jpg,0,0,0.0,0,121,121,121,,,,,,,,,,,,,272.00665449999997,0.006654499999967811,None,309.78831400000036,309.78831400000036,309.78831400000036,309.78831400000036,309.78831400000036,309.78831400000036,309.78831400000036,309.78831400000036,309.78831400000036,309.78831400000036,,006,P007,2025_Feb_01_1011,ConditionRich,2021.2.3,59.92635051502827,
275.75,276.0,41,0.0,Stimuli/Blank.png,0,0,0.0,0,122,122,122,,,,,,,,,,,,,275.77680000000055,0.026800000000548607,None,313.5416446999998,313.5416446999998,313.5416446999998,313.5416446999998,313.5416446999998,313.5416446999998,313.5416446999998,313.5416446999998,313.5416446999998,313.5416446999998,,006,P007,2025_Feb_01_1011,ConditionRich,2021.2.3,59.92635051502827,
276.0,292.0,0,0.0,Stimuli/Blank.png,1,4,4.75,0,123,123,123,,,,,,,,,,,,,276.0114676000003,0.011467600000287348,2,313.79186560000016,313.79186560000016,313.79186560000016,313.79186560000016,313.79186560000016,313.79186560000016,317.7620413000004,318.5127534000003,313.79186560000016,313.79186560000016,4.313941400000658,006,P007,2025_Feb_01_1011,ConditionRich,2021.2.3,59.92635051502827,
292.0,295.75,38,0.75,Stimuli/P007/things_rollerblade_04s.jpg,1,2,2.75,0,124,124,124,,,,,,,,,,,,,292.02628770000047,0.02628770000046643,2,329.8060258000005,329.8060258000005,329.8060258000005,329.8060258000005,329.8060258000005,329.8060258000005,331.7910993000005,332.54176989999996,329.8060258000005,329.8060258000005,2.3988198000006378,006,P007,2025_Feb_01_1011,ConditionRich,2021.2.3,59.92635051502827,
295.75,296.0,41,0.0,Stimuli/Blank.png,0,0,0.0,0,125,125,125,,,,,,,,,,,,,295.7779764000006,0.02797640000062529,None,333.5426663999997,333.5426663999997,333.5426663999997,333.5426663999997,333.5426663999997,333.5426663999997,333.5426663999997,333.5426663999997,333.5426663999997,333.5426663999997,,006,P007,2025_Feb_01_1011,ConditionRich,2021.2.3,59.92635051502827,
296.0,299.75,36,0.75,Stimuli/P007/things_platypus_04s.jpg,0,0,0.0,0,126,126,126,,,,,,,,,,,,,296.0117344,0.011734400000023015,None,333.79287569999997,333.79287569999997,333.79287569999997,333.79287569999997,333.79287569999997,333.79287569999997,333.79287569999997,333.79287569999997,333.79287569999997,333.79287569999997,,006,P007,2025_Feb_01_1011,ConditionRich,2021.2.3,59.92635051502827,
299.75,300.0,41,0.0,Stimuli/Blank.png,0,0,0.0,0,127,127,127,,,,,,,,,,,,,299.7820216,0.03202160000000731,None,337.54621099999986,337.54621099999986,337.54621099999986,337.54621099999986,337.54621099999986,337.54621099999986,337.54621099999986,337.54621099999986,337.54621099999986,337.54621099999986,,006,P007,2025_Feb_01_1011,ConditionRich,2021.2.3,59.92635051502827,
300.0,303.75,20,0.75,Stimuli/P007/sun_btrxtfbwtggtrpfv.jpg,0,0,0.0,0,128,128,128,,,,,,,,,,,,,300.01619670000036,0.016196700000364217,None,337.79642779999995,337.79642779999995,337.79642779999995,337.79642779999995,337.79642779999995,337.79642779999995,337.79642779999995,337.79642779999995,337.79642779999995,337.79642779999995,,006,P007,2025_Feb_01_1011,ConditionRich,2021.2.3,59.92635051502827,
303.75,304.0,41,0.0,Stimuli/Blank.png,0,0,0.0,0,129,129,129,,,,,,,,,,,,,303.76728770000045,0.017287700000451878,None,341.5330664000003,341.5330664000003,341.5330664000003,341.5330664000003,341.5330664000003,341.5330664000003,341.5330664000003,341.5330664000003,341.5330664000003,341.5330664000003,,006,P007,2025_Feb_01_1011,ConditionRich,2021.2.3,59.92635051502827,
304.0,307.75,33,0.75,Stimuli/P007/things_man_04s.jpg,1,1,1.75,0,130,130,130,,,,,,,,,,,,,304.0020596000004,0.0020596000003934023,2,341.7833112999997,341.7833112999997,341.7833112999997,341.7833112999997,341.7833112999997,341.7833112999997,342.7508052000003,343.50146029999996,341.7833112999997,341.7833112999997,1.447644400000172,006,P007,2025_Feb_01_1011,ConditionRich,2021.2.3,59.92635051502827,
307.75,308.0,41,0.0,Stimuli/Blank.png,0,0,0.0,0,131,131,131,,,,,,,,,,,,,307.7718961999999,0.021896199999901,None,345.53660149999996,345.53660149999996,345.53660149999996,345.53660149999996,345.53660149999996,345.53660149999996,345.53660149999996,345.53660149999996,345.53660149999996,345.53660149999996,,006,P007,2025_Feb_01_1011,ConditionRich,2021.2.3,59.92635051502827,
308.0,311.75,1,0.75,Stimuli/P007/sun_abrlrupzcrwpxqfc.jpg,0,0,0.0,0,132,132,132,,,,,,,,,,,,,308.0063190000001,0.006319000000075903,None,345.7868080999997,345.7868080999997,345.7868080999997,345.7868080999997,345.7868080999997,345.7868080999997,345.7868080999997,345.7868080999997,345.7868080999997,345.7868080999997,,006,P007,2025_Feb_01_1011,ConditionRich,2021.2.3,59.92635051502827,
311.75,312.0,41,0.0,Stimuli/Blank.png,0,0,0.0,0,133,133,133,,,,,,,,,,,,,311.77496000000065,0.024960000000646687,None,349.5402044000002,349.5402044000002,349.5402044000002,349.5402044000002,349.5402044000002,349.5402044000002,349.5402044000002,349.5402044000002,349.5402044000002,349.5402044000002,,006,P007,2025_Feb_01_1011,ConditionRich,2021.2.3,59.92635051502827,
312.0,315.75,32,0.75,Stimuli/P007/things_maggot_04s.jpg,1,2,2.75,0,134,134,134,,,,,,,,,,,,,312.0078876000007,0.00788760000068578,2,349.77367950000007,349.77367950000007,349.77367950000007,349.77367950000007,349.77367950000007,349.77367950000007,351.75881500000014,352.5094300999999,349.77367950000007,349.77367950000007,2.52841829999943,006,P007,2025_Feb_01_1011,ConditionRich,2021.2.3,59.92635051502827,
315.75,316.0,41,0.0,Stimuli/Blank.png,0,0,0.0,0,135,135,135,,,,,,,,,,,,,315.76191330000074,0.01191330000074231,None,353.5270215999999,353.5270215999999,353.5270215999999,353.5270215999999,353.5270215999999,353.5270215999999,353.5270215999999,353.5270215999999,353.5270215999999,353.5270215999999,,006,P007,2025_Feb_01_1011,ConditionRich,2021.2.3,59.92635051502827,
316.0,319.75,17,0.75,Stimuli/P007/sun_bnsxdhbsafbdyncy.jpg,0,0,0.0,0,136,136,136,,,,,,,,,,,,,316.01268380000056,0.012683800000559131,None,353.7772205000001,353.7772205000001,353.7772205000001,353.7772205000001,353.7772205000001,353.7772205000001,353.7772205000001,353.7772205000001,353.7772205000001,353.7772205000001,,006,P007,2025_Feb_01_1011,ConditionRich,2021.2.3,59.92635051502827,
319.75,320.0,41,0.0,Stimuli/Blank.png,0,0,0.0,0,137,137,137,,,,,,,,,,,,,319.74907280000025,-0.0009271999997508829,None,357.5138852,357.5138852,357.5138852,357.5138852,357.5138852,357.5138852,357.5138852,357.5138852,357.5138852,357.5138852,,006,P007,2025_Feb_01_1011,ConditionRich,2021.2.3,59.92635051502827,
320.0,323.75,11,0.75,Stimuli/P007/sun_bdsriuscubkvzrmt.jpg,0,0,0.0,0,138,138,138,,,,,,,,,,,,,319.9991151000004,-0.0008848999996189377,None,357.78080339999997,357.78080339999997,357.78080339999997,357.78080339999997,357.78080339999997,357.78080339999997,357.78080339999997,357.78080339999997,357.78080339999997,357.78080339999997,,006,P007,2025_Feb_01_1011,ConditionRich,2021.2.3,59.92635051502827,
323.75,324.0,41,0.0,Stimuli/Blank.png,0,0,0.0,0,139,139,139,,,,,,,,,,,,,323.76830860000064,0.018308600000636943,None,361.5340790999999,361.5340790999999,361.5340790999999,361.5340790999999,361.5340790999999,361.5340790999999,361.5340790999999,361.5340790999999,361.5340790999999,361.5340790999999,,006,P007,2025_Feb_01_1011,ConditionRich,2021.2.3,59.92635051502827,
324.0,327.75,12,0.75,Stimuli/P007/sun_bitpmyvulluuasab.jpg,0,0,0.0,0,140,140,140,,,,,,,,,,,,,324.0024202000004,0.002420200000415207,None,361.7676179,361.7676179,361.7676179,361.7676179,361.7676179,361.7676179,361.7676179,361.7676179,361.7676179,361.7676179,,006,P007,2025_Feb_01_1011,ConditionRich,2021.2.3,59.92635051502827,
327.75,328.0,41,0.0,Stimuli/Blank.png,0,0,0.0,0,141,141,141,,,,,,,,,,,,,327.75583860000006,0.005838600000060978,None,365.5209528000005,365.5209528000005,365.5209528000005,365.5209528000005,365.5209528000005,365.5209528000005,365.5209528000005,365.5209528000005,365.5209528000005,365.5209528000005,,006,P007,2025_Feb_01_1011,ConditionRich,2021.2.3,59.92635051502827,
328.0,331.75,35,0.75,Stimuli/P007/things_pecan_04s.jpg,1,0,0.75,0,142,142,142,,,,,,,,,,,,,328.0070089999999,0.007008999999925436,2,365.78820559999986,365.78820559999986,365.78820559999986,365.78820559999986,365.78820559999986,365.78820559999986,365.78820559999986,366.5051598,365.78820559999986,365.78820559999986,0.751950100000613,006,P007,2025_Feb_01_1011,ConditionRich,2021.2.3,59.92635051502827,
331.75,332.0,41,0.0,Stimuli/Blank.png,0,0,0.0,0,143,143,143,,,,,,,,,,,,,331.77610280000044,0.026102800000444404,None,369.54117099999985,369.54117099999985,369.54117099999985,369.54117099999985,369.54117099999985,369.54117099999985,369.54117099999985,369.54117099999985,369.54117099999985,369.54117099999985,,006,P007,2025_Feb_01_1011,ConditionRich,2021.2.3,59.92635051502827,
332.0,335.75,25,0.75,Stimuli/P007/things_credit_card_04s.jpg,0,0,0.0,0,144,144,144,,,,,,,,,,,,,332.01161610000054,0.011616100000537699,None,369.79139209999994,369.79139209999994,369.79139209999994,369.79139209999994,369.79139209999994,369.79139209999994,369.79139209999994,369.79139209999994,369.79139209999994,369.79139209999994,,006,P007,2025_Feb_01_1011,ConditionRich,2021.2.3,59.92635051502827,
335.75,336.0,41,0.0,Stimuli/Blank.png,0,0,0.0,0,145,145,145,,,,,,,,,,,,,335.7811707999999,0.031170799999927112,None,373.5613937999997,373.5613937999997,373.5613937999997,373.5613937999997,373.5613937999997,373.5613937999997,373.5613937999997,373.5613937999997,373.5613937999997,373.5613937999997,,006,P007,2025_Feb_01_1011,ConditionRich,2021.2.3,59.92635051502827,
336.0,339.75,2,0.75,Stimuli/P007/sun_ajyzloqaptmicnfr.jpg,0,0,0.0,0,146,146,146,,,,,,,,,,,,,336.03214600000047,0.0321460000004663,None,373.81162570000015,373.81162570000015,373.81162570000015,373.81162570000015,373.81162570000015,373.81162570000015,373.81162570000015,373.81162570000015,373.81162570000015,373.81162570000015,,006,P007,2025_Feb_01_1011,ConditionRich,2021.2.3,59.92635051502827,
339.75,340.0,41,0.0,Stimuli/Blank.png,0,0,0.0,0,147,147,147,,,,,,,,,,,,,339.7666560000007,0.016656000000693894,None,377.5315734000005,377.5315734000005,377.5315734000005,377.5315734000005,377.5315734000005,377.5315734000005,377.5315734000005,377.5315734000005,377.5315734000005,377.5315734000005,,006,P007,2025_Feb_01_1011,ConditionRich,2021.2.3,59.92635051502827,
340.0,343.75,9,0.75,Stimuli/P007/sun_bcsqogieozpyvuft.jpg,0,0,0.0,0,148,148,148,,,,,,,,,,,,,340.00155429999995,0.001554299999952491,None,377.7817947000003,377.7817947000003,377.7817947000003,377.7817947000003,377.7817947000003,377.7817947000003,377.7817947000003,377.7817947000003,377.7817947000003,377.7817947000003,,006,P007,2025_Feb_01_1011,ConditionRich,2021.2.3,59.92635051502827,
343.75,344.0,41,0.0,Stimuli/Blank.png,0,0,0.0,0,149,149,149,,,,,,,,,,,,,343.7716268000004,0.021626800000376534,None,381.55180629999995,381.55180629999995,381.55180629999995,381.55180629999995,381.55180629999995,381.55180629999995,381.55180629999995,381.55180629999995,381.55180629999995,381.55180629999995,,006,P007,2025_Feb_01_1011,ConditionRich,2021.2.3,59.92635051502827,
344.0,347.75,26,0.75,Stimuli/P007/things_face_04s.jpg,1,3,3.75,0,150,150,150,,,,,,,,,,,,,344.0222639000003,0.02226390000032552,None,381.80201560000023,381.80201560000023,381.80201560000023,381.80201560000023,381.80201560000023,381.80201560000023,384.7880516000005,None,381.80201560000023,381.80201560000023,,006,P007,2025_Feb_01_1011,ConditionRich,2021.2.3,59.92635051502827,
347.75,348.0,41,0.0,Stimuli/Blank.png,0,0,0.0,0,151,151,151,,,,,,,,,,,,,347.7734225000004,0.023422500000378932,None,385.5386534999998,385.5386534999998,385.5386534999998,385.5386534999998,385.5386534999998,385.5386534999998,385.5386534999998,385.5386534999998,385.5386534999998,385.5386534999998,,006,P007,2025_Feb_01_1011,ConditionRich,2021.2.3,59.92635051502827,
348.0,351.75,13,0.75,Stimuli/P007/sun_bkhuvtsqontzwtbo.jpg,0,0,0.0,0,152,152,152,,,,,,,,,,,,,348.0065542000002,0.006554200000209676,2,385.77219140000034,385.77219140000034,385.77219140000034,385.77219140000034,385.77219140000034,385.77219140000034,385.77219140000034,385.77219140000034,385.77219140000034,385.77219140000034,0.30067349999990256,006,P007,2025_Feb_01_1011,ConditionRich,2021.2.3,59.92635051502827,
351.75,352.0,41,0.0,Stimuli/Blank.png,0,0,0.0,0,153,153,153,,,,,,,,,,,,,351.76254980000067,0.012549800000670075,None,389.5421922000005,389.5421922000005,389.5421922000005,389.5421922000005,389.5421922000005,389.5421922000005,389.5421922000005,389.5421922000005,389.5421922000005,389.5421922000005,,006,P007,2025_Feb_01_1011,ConditionRich,2021.2.3,59.92635051502827,
352.0,355.75,34,0.75,Stimuli/P007/things_moose_04s.jpg,0,0,0.0,0,154,154,154,,,,,,,,,,,,,352.0266786000002,0.02667860000019573,None,389.7924086000003,389.7924086000003,389.7924086000003,389.7924086000003,389.7924086000003,389.7924086000003,389.7924086000003,389.7924086000003,389.7924086000003,389.7924086000003,,006,P007,2025_Feb_01_1011,ConditionRich,2021.2.3,59.92635051502827,
355.75,356.0,41,0.0,Stimuli/Blank.png,0,0,0.0,0,155,155,155,,,,,,,,,,,,,355.76422940000066,0.014229400000658643,None,393.5290594999997,393.5290594999997,393.5290594999997,393.5290594999997,393.5290594999997,393.5290594999997,393.5290594999997,393.5290594999997,393.5290594999997,393.5290594999997,,006,P007,2025_Feb_01_1011,ConditionRich,2021.2.3,59.92635051502827,
356.0,359.75,40,0.75,Stimuli/P007/things_woman_04s.jpg,0,0,0.0,0,156,156,156,,,,,,,,,,,,,356.0134177,0.013417699999990873,None,393.7792658999997,393.7792658999997,393.7792658999997,393.7792658999997,393.7792658999997,393.7792658999997,393.7792658999997,393.7792658999997,393.7792658999997,393.7792658999997,,006,P007,2025_Feb_01_1011,ConditionRich,2021.2.3,59.92635051502827,
359.75,360.0,41,0.0,Stimuli/Blank.png,0,0,0.0,0,157,157,157,,,,,,,,,,,,,359.7507660000001,0.000766000000112399,None,397.51593349999985,397.51593349999985,397.51593349999985,397.51593349999985,397.51593349999985,397.51593349999985,397.51593349999985,397.51593349999985,397.51593349999985,397.51593349999985,,006,P007,2025_Feb_01_1011,ConditionRich,2021.2.3,59.92635051502827,
360.0,363.75,7,0.75,Stimuli/P007/sun_babhwrqvnhanonuy.jpg,0,0,0.0,0,158,158,158,,,,,,,,,,,,,360.00102980000065,0.0010298000006514485,None,397.78278990000035,397.78278990000035,397.78278990000035,397.78278990000035,397.78278990000035,397.78278990000035,397.78278990000035,397.78278990000035,397.78278990000035,397.78278990000035,,006,P007,2025_Feb_01_1011,ConditionRich,2021.2.3,59.92635051502827,
363.75,364.0,41,0.0,Stimuli/Blank.png,0,0,0.0,0,159,159,159,,,,,,,,,,,,,363.7705040999999,0.02050409999992553,None,401.5361326000002,401.5361326000002,401.5361326000002,401.5361326000002,401.5361326000002,401.5361326000002,401.5361326000002,401.5361326000002,401.5361326000002,401.5361326000002,,006,P007,2025_Feb_01_1011,ConditionRich,2021.2.3,59.92635051502827,
364.0,367.75,24,0.75,Stimuli/P007/things_collar_04s.jpg,0,0,0.0,0,160,160,160,,,,,,,,,,,,,364.0062605000003,0.0062605000002804445,None,401.78636069999993,401.78636069999993,401.78636069999993,401.78636069999993,401.78636069999993,401.78636069999993,401.78636069999993,401.78636069999993,401.78636069999993,401.78636069999993,,006,P007,2025_Feb_01_1011,ConditionRich,2021.2.3,59.92635051502827,
367.75,368.0,41,0.0,Stimuli/Blank.png,0,0,0.0,0,161,161,161,,,,,,,,,,,,,367.77401929999996,0.02401929999996355,None,405.53974070000004,405.53974070000004,405.53974070000004,405.53974070000004,405.53974070000004,405.53974070000004,405.53974070000004,405.53974070000004,405.53974070000004,405.53974070000004,,006,P007,2025_Feb_01_1011,ConditionRich,2021.2.3,59.92635051502827,
368.0,371.75,16,0.75,Stimuli/P007/sun_bnpggenxuowzsywq.jpg,0,0,0.0,0,162,162,162,,,,,,,,,,,,,368.0080103,0.008010300000023562,None,405.77321949999987,405.77321949999987,405.77321949999987,405.77321949999987,405.77321949999987,405.77321949999987,405.77321949999987,405.77321949999987,405.77321949999987,405.77321949999987,,006,P007,2025_Feb_01_1011,ConditionRich,2021.2.3,59.92635051502827,
371.75,372.0,41,0.0,Stimuli/Blank.png,0,0,0.0,0,163,163,163,,,,,,,,,,,,,371.76384190000044,0.013841900000443275,None,409.5432221000001,409.5432221000001,409.5432221000001,409.5432221000001,409.5432221000001,409.5432221000001,409.5432221000001,409.5432221000001,409.5432221000001,409.5432221000001,,006,P007,2025_Feb_01_1011,ConditionRich,2021.2.3,59.92635051502827,
372.0,388.0,0,0.0,Stimuli/Blank.png,1,9,9.75,0,164,164,164,,,,,,,,,,,,,372.02764819999993,0.02764819999993051,2,409.7934538999998,409.7934538999998,409.7934538999998,409.7934538999998,409.7934538999998,409.7934538999998,418.78476800000044,419.5187575,409.7934538999998,409.7934538999998,9.381656999999905,006,P007,2025_Feb_01_1011,ConditionRich,2021.2.3,59.92635051502827,
