eventStartTime,eventEndTime,eventCond,imSize,imFile,responseEvent,fixRespStart,fixRespEnd,Events.thisRepN,Events.thisTrialN,Events.thisN,Events.thisIndex,Instructions.started,Instructions.stopped,participantReadyResponse.keys,participantReadyResponse.rt,participantReadyResponse.started,participantReadyResponse.stopped,startWaitforTrigger,triggerResponse.keys,triggerResponse.rt,triggerResponse.started,triggerResponse.stopped,globalTimer,actualStartTime,startTimingDiff,participantResponse.keys,participantResponse.started,participantResponse.stopped,image.started,image.stopped,fixationOutside.started,fixationOutside.stopped,fixationResponse.started,fixationResponse.stopped,fixationInside.started,fixationInside.stopped,participantResponse.rt,session,participant,date,expName,psychopyVersion,frameRate,
,,,,,,,,,,,,14.801637700000356,None,2,14.908279900000707,14.801637700000356,None,,,,,,,,,,,,,,,,,,,,,009,P007,2025_Feb_01_1039,ConditionRich,2021.2.3,59.92229277067504,
,,,,,,,,,,,,,,,,,,29.72142470000017,5,14.136329799999658,29.734676600000057,None,,,,,,,,,,,,,,,,009,P007,2025_Feb_01_1039,ConditionRich,2021.2.3,59.92229277067504,
0.0,4.0,0,0.0,Stimuli/Blank.png,0,0,0.0,0,0,0,0,,,,,,,,,,,,43.88432139999986,0.017246399999748974,0.017246399999748974,None,43.91383780000069,None,43.91383780000069,None,43.91383780000069,None,43.91383780000069,43.91383780000069,43.91383780000069,None,,009,P007,2025_Feb_01_1039,ConditionRich,2021.2.3,59.92229277067504,
4.0,7.75,14,0.75,Stimuli/P007/sun_bkvjqgmploznrhxt.jpg,0,0,0.0,0,1,1,1,,,,,,,,,,,,,4.004515499999798,0.004515499999797612,None,47.91777390000061,47.91777390000061,47.91777390000061,47.91777390000061,47.91777390000061,47.91777390000061,47.91777390000061,47.91777390000061,47.91777390000061,47.91777390000061,,009,P007,2025_Feb_01_1039,ConditionRich,2021.2.3,59.92229277067504,
7.75,8.0,41,0.0,Stimuli/Blank.png,0,0,0.0,0,2,2,2,,,,,,,,,,,,,7.7743829000000915,0.024382900000091468,None,51.68768820000059,51.68768820000059,51.68768820000059,51.68768820000059,51.68768820000059,51.68768820000059,51.68768820000059,51.68768820000059,51.68768820000059,51.68768820000059,,009,P007,2025_Feb_01_1039,ConditionRich,2021.2.3,59.92229277067504,
8.0,11.75,19,0.75,Stimuli/P007/sun_brpfgrmubnnjvfkw.jpg,0,0,0.0,0,3,3,3,,,,,,,,,,,,,8.02459540000018,0.024595400000180234,None,51.937603899999885,51.937603899999885,51.937603899999885,51.937603899999885,51.937603899999885,51.937603899999885,51.937603899999885,51.937603899999885,51.937603899999885,51.937603899999885,,009,P007,2025_Feb_01_1039,ConditionRich,2021.2.3,59.92229277067504,
11.75,12.0,41,0.0,Stimuli/Blank.png,0,0,0.0,0,4,4,4,,,,,,,,,,,,,11.775287200000093,0.025287200000093435,None,55.67423710000003,55.67423710000003,55.67423710000003,55.67423710000003,55.67423710000003,55.67423710000003,55.67423710000003,55.67423710000003,55.67423710000003,55.67423710000003,,009,P007,2025_Feb_01_1039,ConditionRich,2021.2.3,59.92229277067504,
12.0,15.75,2,0.75,Stimuli/P007/sun_ajyzloqaptmicnfr.jpg,0,0,0.0,0,5,5,5,,,,,,,,,,,,,12.009671300000264,0.009671300000263727,None,55.92446689999997,55.92446689999997,55.92446689999997,55.92446689999997,55.92446689999997,55.92446689999997,55.92446689999997,55.92446689999997,55.92446689999997,55.92446689999997,,009,P007,2025_Feb_01_1039,ConditionRich,2021.2.3,59.92229277067504,
15.75,16.0,41,0.0,Stimuli/Blank.png,0,0,0.0,0,6,6,6,,,,,,,,,,,,,15.778824500000155,0.02882450000015524,None,59.67778090000047,59.67778090000047,59.67778090000047,59.67778090000047,59.67778090000047,59.67778090000047,59.67778090000047,59.67778090000047,59.67778090000047,59.67778090000047,,009,P007,2025_Feb_01_1039,ConditionRich,2021.2.3,59.92229277067504,
16.0,19.75,20,0.75,Stimuli/P007/sun_btrxtfbwtggtrpfv.jpg,1,3,3.75,0,7,7,7,,,,,,,,,,,,,16.012609399999747,0.012609399999746529,2,59.91132470000048,59.91132470000048,59.91132470000048,59.91132470000048,59.91132470000048,59.91132470000048,62.89729919999991,None,59.91132470000048,59.91132470000048,3.474697599999672,009,P007,2025_Feb_01_1039,ConditionRich,2021.2.3,59.92229277067504,
19.75,20.0,41,0.0,Stimuli/Blank.png,0,0,0.0,0,8,8,8,,,,,,,,,,,,,19.75029100000029,0.00029100000028847717,None,63.66464910000013,63.66464910000013,63.66464910000013,63.66464910000013,63.66464910000013,63.66464910000013,63.66464910000013,63.66464910000013,63.66464910000013,63.66464910000013,,009,P007,2025_Feb_01_1039,ConditionRich,2021.2.3,59.92229277067504,
20.0,23.75,8,0.75,Stimuli/P007/sun_bbnepvzvycqjjczs.jpg,0,0,0.0,0,9,9,9,,,,,,,,,,,,,20.015919700000268,0.015919700000267767,None,63.914860200000476,63.914860200000476,63.914860200000476,63.914860200000476,63.914860200000476,63.914860200000476,63.914860200000476,63.914860200000476,63.914860200000476,63.914860200000476,,009,P007,2025_Feb_01_1039,ConditionRich,2021.2.3,59.92229277067504,
23.75,24.0,41,0.0,Stimuli/Blank.png,0,0,0.0,0,10,10,10,,,,,,,,,,,,,23.75536000000011,0.0053600000001097214,None,67.6681881000004,67.6681881000004,67.6681881000004,67.6681881000004,67.6681881000004,67.6681881000004,67.6681881000004,67.6681881000004,67.6681881000004,67.6681881000004,,009,P007,2025_Feb_01_1039,ConditionRich,2021.2.3,59.92229277067504,
24.0,27.75,1,0.75,Stimuli/P007/sun_abrlrupzcrwpxqfc.jpg,0,0,0.0,0,11,11,11,,,,,,,,,,,,,24.021578500000032,0.021578500000032363,None,67.93508340000062,67.93508340000062,67.93508340000062,67.93508340000062,67.93508340000062,67.93508340000062,67.93508340000062,67.93508340000062,67.93508340000062,67.93508340000062,,009,P007,2025_Feb_01_1039,ConditionRich,2021.2.3,59.92229277067504,
27.75,28.0,41,0.0,Stimuli/Blank.png,0,0,0.0,0,12,12,12,,,,,,,,,,,,,27.774038200000177,0.024038200000177312,None,71.67173309999998,71.67173309999998,71.67173309999998,71.67173309999998,71.67173309999998,71.67173309999998,71.67173309999998,71.67173309999998,71.67173309999998,71.67173309999998,,009,P007,2025_Feb_01_1039,ConditionRich,2021.2.3,59.92229277067504,
28.0,31.75,6,0.75,Stimuli/P007/sun_azpjjfwsbjdjcopb.jpg,0,0,0.0,0,13,13,13,,,,,,,,,,,,,28.006444399999964,0.0064443999999639345,None,71.92197060000035,71.92197060000035,71.92197060000035,71.92197060000035,71.92197060000035,71.92197060000035,71.92197060000035,71.92197060000035,71.92197060000035,71.92197060000035,,009,P007,2025_Feb_01_1039,ConditionRich,2021.2.3,59.92229277067504,
31.75,32.0,41,0.0,Stimuli/Blank.png,0,0,0.0,0,14,14,14,,,,,,,,,,,,,31.776418600000397,0.02641860000039742,None,75.67535889999999,75.67535889999999,75.67535889999999,75.67535889999999,75.67535889999999,75.67535889999999,75.67535889999999,75.67535889999999,75.67535889999999,75.67535889999999,,009,P007,2025_Feb_01_1039,ConditionRich,2021.2.3,59.92229277067504,
32.0,35.75,37,0.75,Stimuli/P007/things_praying_mantis_04s.jpg,0,0,0.0,0,15,15,15,,,,,,,,,,,,,32.010156800000004,0.010156800000004296,None,75.9088085000003,75.9088085000003,75.9088085000003,75.9088085000003,75.9088085000003,75.9088085000003,75.9088085000003,75.9088085000003,75.9088085000003,75.9088085000003,,009,P007,2025_Feb_01_1039,ConditionRich,2021.2.3,59.92229277067504,
35.75,36.0,41,0.0,Stimuli/Blank.png,0,0,0.0,0,16,16,16,,,,,,,,,,,,,35.7633109999997,0.0133109999997032,None,79.6621224999999,79.6621224999999,79.6621224999999,79.6621224999999,79.6621224999999,79.6621224999999,79.6621224999999,79.6621224999999,79.6621224999999,79.6621224999999,,009,P007,2025_Feb_01_1039,ConditionRich,2021.2.3,59.92229277067504,
36.0,39.75,33,0.75,Stimuli/P007/things_man_04s.jpg,0,0,0.0,0,17,17,17,,,,,,,,,,,,,36.01425230000041,0.014252300000407558,None,79.91236149999986,79.91236149999986,79.91236149999986,79.91236149999986,79.91236149999986,79.91236149999986,79.91236149999986,79.91236149999986,79.91236149999986,79.91236149999986,,009,P007,2025_Feb_01_1039,ConditionRich,2021.2.3,59.92229277067504,
39.75,40.0,41,0.0,Stimuli/Blank.png,0,0,0.0,0,18,18,18,,,,,,,,,,,,,39.75005179999971,5.1799999710056e-05,None,83.64898670000002,83.64898670000002,83.64898670000002,83.64898670000002,83.64898670000002,83.64898670000002,83.64898670000002,83.64898670000002,83.64898670000002,83.64898670000002,,009,P007,2025_Feb_01_1039,ConditionRich,2021.2.3,59.92229277067504,
40.0,43.75,12,0.75,Stimuli/P007/sun_bitpmyvulluuasab.jpg,0,0,0.0,0,19,19,19,,,,,,,,,,,,,40.0004171999999,0.0004171999999016407,None,83.89917740000055,83.89917740000055,83.89917740000055,83.89917740000055,83.89917740000055,83.89917740000055,83.89917740000055,83.89917740000055,83.89917740000055,83.89917740000055,,009,P007,2025_Feb_01_1039,ConditionRich,2021.2.3,59.92229277067504,
43.75,44.0,41,0.0,Stimuli/Blank.png,0,0,0.0,0,20,20,20,,,,,,,,,,,,,43.754981600000065,0.004981600000064645,None,87.65253459999985,87.65253459999985,87.65253459999985,87.65253459999985,87.65253459999985,87.65253459999985,87.65253459999985,87.65253459999985,87.65253459999985,87.65253459999985,,009,P007,2025_Feb_01_1039,ConditionRich,2021.2.3,59.92229277067504,
44.0,47.75,3,0.75,Stimuli/P007/sun_aueftjhdwnvkbzlt.jpg,0,0,0.0,0,21,21,21,,,,,,,,,,,,,44.00439480000023,0.004394800000227406,None,87.90275350000047,87.90275350000047,87.90275350000047,87.90275350000047,87.90275350000047,87.90275350000047,87.90275350000047,87.90275350000047,87.90275350000047,87.90275350000047,,009,P007,2025_Feb_01_1039,ConditionRich,2021.2.3,59.92229277067504,
47.75,48.0,41,0.0,Stimuli/Blank.png,0,0,0.0,0,22,22,22,,,,,,,,,,,,,47.757524399999966,0.007524399999965681,None,91.6560683000007,91.6560683000007,91.6560683000007,91.6560683000007,91.6560683000007,91.6560683000007,91.6560683000007,91.6560683000007,91.6560683000007,91.6560683000007,,009,P007,2025_Feb_01_1039,ConditionRich,2021.2.3,59.92229277067504,
48.0,51.75,35,0.75,Stimuli/P007/things_pecan_04s.jpg,1,2,2.75,0,23,23,23,,,,,,,,,,,,,48.007610300000124,0.007610300000123971,2,91.90629390000049,91.90629390000049,91.90629390000049,91.90629390000049,91.90629390000049,91.90629390000049,93.89139780000005,94.64208719999988,91.90629390000049,91.90629390000049,2.348730899999282,009,P007,2025_Feb_01_1039,ConditionRich,2021.2.3,59.92229277067504,
51.75,52.0,41,0.0,Stimuli/Blank.png,0,0,0.0,0,24,24,24,,,,,,,,,,,,,51.76073509999969,0.010735099999692466,None,95.65958380000029,95.65958380000029,95.65958380000029,95.65958380000029,95.65958380000029,95.65958380000029,95.65958380000029,95.65958380000029,95.65958380000029,95.65958380000029,,009,P007,2025_Feb_01_1039,ConditionRich,2021.2.3,59.92229277067504,
52.0,55.75,21,0.75,Stimuli/P007/things_baby_04s.jpg,1,0,0.75,0,25,25,25,,,,,,,,,,,,,52.01099390000036,0.010993900000357826,2,95.90983360000064,95.90983360000064,95.90983360000064,95.90983360000064,95.90983360000064,95.90983360000064,95.90983360000064,96.64381510000021,95.90983360000064,95.90983360000064,1.0711968000005072,009,P007,2025_Feb_01_1039,ConditionRich,2021.2.3,59.92229277067504,
55.75,56.0,41,0.0,Stimuli/Blank.png,0,0,0.0,0,26,26,26,,,,,,,,,,,,,55.76499469999999,0.01499469999998837,None,99.66315490000034,99.66315490000034,99.66315490000034,99.66315490000034,99.66315490000034,99.66315490000034,99.66315490000034,99.66315490000034,99.66315490000034,99.66315490000034,,009,P007,2025_Feb_01_1039,ConditionRich,2021.2.3,59.92229277067504,
56.0,59.75,5,0.75,Stimuli/P007/sun_ayzkwnqsoiycbncn.jpg,0,0,0.0,0,27,27,27,,,,,,,,,,,,,56.01481950000016,0.01481950000015786,None,99.91337060000023,99.91337060000023,99.91337060000023,99.91337060000023,99.91337060000023,99.91337060000023,99.91337060000023,99.91337060000023,99.91337060000023,99.91337060000023,,009,P007,2025_Feb_01_1039,ConditionRich,2021.2.3,59.92229277067504,
59.75,60.0,41,0.0,Stimuli/Blank.png,0,0,0.0,0,28,28,28,,,,,,,,,,,,,59.75407670000004,0.0040767000000414555,None,103.66670160000012,103.66670160000012,103.66670160000012,103.66670160000012,103.66670160000012,103.66670160000012,103.66670160000012,103.66670160000012,103.66670160000012,103.66670160000012,,009,P007,2025_Feb_01_1039,ConditionRich,2021.2.3,59.92229277067504,
60.0,63.75,30,0.75,Stimuli/P007/things_jalapeno_04s.jpg,0,0,0.0,0,29,29,29,,,,,,,,,,,,,60.01863930000036,0.01863930000035907,None,103.91691020000053,103.91691020000053,103.91691020000053,103.91691020000053,103.91691020000053,103.91691020000053,103.91691020000053,103.91691020000053,103.91691020000053,103.91691020000053,,009,P007,2025_Feb_01_1039,ConditionRich,2021.2.3,59.92229277067504,
63.75,64.0,41,0.0,Stimuli/Blank.png,0,0,0.0,0,30,30,30,,,,,,,,,,,,,63.755273700000544,0.005273700000543613,None,107.6535573000001,107.6535573000001,107.6535573000001,107.6535573000001,107.6535573000001,107.6535573000001,107.6535573000001,107.6535573000001,107.6535573000001,107.6535573000001,,009,P007,2025_Feb_01_1039,ConditionRich,2021.2.3,59.92229277067504,
64.0,67.75,38,0.75,Stimuli/P007/things_rollerblade_04s.jpg,1,1,1.75,0,31,31,31,,,,,,,,,,,,,64.00487059999978,0.004870599999776459,2,107.90377950000038,107.90377950000038,107.90377950000038,107.90377950000038,107.90377950000038,107.90377950000038,108.88798700000007,109.6386338000002,107.90377950000038,107.90377950000038,1.4072317000000112,009,P007,2025_Feb_01_1039,ConditionRich,2021.2.3,59.92229277067504,
67.75,68.0,41,0.0,Stimuli/Blank.png,0,0,0.0,0,32,32,32,,,,,,,,,,,,,67.75815820000025,0.008158200000252691,None,111.65710209999997,111.65710209999997,111.65710209999997,111.65710209999997,111.65710209999997,111.65710209999997,111.65710209999997,111.65710209999997,111.65710209999997,111.65710209999997,,009,P007,2025_Feb_01_1039,ConditionRich,2021.2.3,59.92229277067504,
68.0,71.75,31,0.75,Stimuli/P007/things_jug_04s.jpg,0,0,0.0,0,33,33,33,,,,,,,,,,,,,68.00985930000024,0.00985930000024382,None,111.92400940000061,111.92400940000061,111.92400940000061,111.92400940000061,111.92400940000061,111.92400940000061,111.92400940000061,111.92400940000061,111.92400940000061,111.92400940000061,,009,P007,2025_Feb_01_1039,ConditionRich,2021.2.3,59.92229277067504,
71.75,72.0,41,0.0,Stimuli/Blank.png,0,0,0.0,0,34,34,34,,,,,,,,,,,,,71.77995139999985,0.029951399999845307,None,115.67732160000014,115.67732160000014,115.67732160000014,115.67732160000014,115.67732160000014,115.67732160000014,115.67732160000014,115.67732160000014,115.67732160000014,115.67732160000014,,009,P007,2025_Feb_01_1039,ConditionRich,2021.2.3,59.92229277067504,
72.0,75.75,15,0.75,Stimuli/P007/sun_bmeductqpfkygtww.jpg,0,0,0.0,0,35,35,35,,,,,,,,,,,,,72.01196929999969,0.01196929999969143,None,115.92754400000013,115.92754400000013,115.92754400000013,115.92754400000013,115.92754400000013,115.92754400000013,115.92754400000013,115.92754400000013,115.92754400000013,115.92754400000013,,009,P007,2025_Feb_01_1039,ConditionRich,2021.2.3,59.92229277067504,
75.75,76.0,41,0.0,Stimuli/Blank.png,0,0,0.0,0,36,36,36,,,,,,,,,,,,,75.78255700000045,0.03255700000045181,None,119.68087120000018,119.68087120000018,119.68087120000018,119.68087120000018,119.68087120000018,119.68087120000018,119.68087120000018,119.68087120000018,119.68087120000018,119.68087120000018,,009,P007,2025_Feb_01_1039,ConditionRich,2021.2.3,59.92229277067504,
76.0,79.75,24,0.75,Stimuli/P007/things_collar_04s.jpg,1,3,3.75,0,37,37,37,,,,,,,,,,,,,75.99983979999979,-0.0001602000002094428,2,119.91439249999985,119.91439249999985,119.91439249999985,119.91439249999985,119.91439249999985,119.91439249999985,122.88372940000045,123.63439259999996,119.91439249999985,119.91439249999985,3.4648636000001716,009,P007,2025_Feb_01_1039,ConditionRich,2021.2.3,59.92229277067504,
79.75,80.0,41,0.0,Stimuli/Blank.png,0,0,0.0,0,38,38,38,,,,,,,,,,,,,79.7694631000004,0.01946310000039375,None,123.66773100000046,123.66773100000046,123.66773100000046,123.66773100000046,123.66773100000046,123.66773100000046,123.66773100000046,123.66773100000046,123.66773100000046,123.66773100000046,,009,P007,2025_Feb_01_1039,ConditionRich,2021.2.3,59.92229277067504,
80.0,83.75,7,0.75,Stimuli/P007/sun_babhwrqvnhanonuy.jpg,0,0,0.0,0,39,39,39,,,,,,,,,,,,,80.0028500999997,0.0028500999997049803,None,123.90125380000063,123.90125380000063,123.90125380000063,123.90125380000063,123.90125380000063,123.90125380000063,123.90125380000063,123.90125380000063,123.90125380000063,123.90125380000063,,009,P007,2025_Feb_01_1039,ConditionRich,2021.2.3,59.92229277067504,
83.75,84.0,41,0.0,Stimuli/Blank.png,0,0,0.0,0,40,40,40,,,,,,,,,,,,,83.75668399999995,0.006683999999950174,None,127.6545801000002,127.6545801000002,127.6545801000002,127.6545801000002,127.6545801000002,127.6545801000002,127.6545801000002,127.6545801000002,127.6545801000002,127.6545801000002,,009,P007,2025_Feb_01_1039,ConditionRich,2021.2.3,59.92229277067504,
84.0,100.0,0,0.0,Stimuli/Blank.png,1,3,3.75,0,41,41,41,,,,,,,,,,,,,84.00591919999988,0.00591919999988022,2,127.90479940000023,127.90479940000023,127.90479940000023,127.90479940000023,127.90479940000023,127.90479940000023,130.89078440000048,131.6414601000006,127.90479940000023,127.90479940000023,3.3663477999998577,009,P007,2025_Feb_01_1039,ConditionRich,2021.2.3,59.92229277067504,
100.0,103.75,26,0.75,Stimuli/P007/things_face_04s.jpg,0,0,0.0,0,42,42,42,,,,,,,,,,,,,100.00347460000012,0.003474600000117789,None,143.90228389999993,143.90228389999993,143.90228389999993,143.90228389999993,143.90228389999993,143.90228389999993,143.90228389999993,143.90228389999993,143.90228389999993,143.90228389999993,,009,P007,2025_Feb_01_1039,ConditionRich,2021.2.3,59.92229277067504,
103.75,104.0,41,0.0,Stimuli/Blank.png,0,0,0.0,0,43,43,43,,,,,,,,,,,,,103.75748300000032,0.007483000000320317,None,147.65566330000001,147.65566330000001,147.65566330000001,147.65566330000001,147.65566330000001,147.65566330000001,147.65566330000001,147.65566330000001,147.65566330000001,147.65566330000001,,009,P007,2025_Feb_01_1039,ConditionRich,2021.2.3,59.92229277067504,
104.0,107.75,39,0.75,Stimuli/P007/things_showerhead_04s.jpg,1,0,0.75,0,44,44,44,,,,,,,,,,,,,104.00731770000039,0.00731770000038523,2,147.92251380000016,147.92251380000016,147.92251380000016,147.92251380000016,147.92251380000016,147.92251380000016,147.92251380000016,148.6398360000003,147.92251380000016,147.92251380000016,0.37757109999984095,009,P007,2025_Feb_01_1039,ConditionRich,2021.2.3,59.92229277067504,
107.75,108.0,41,0.0,Stimuli/Blank.png,0,0,0.0,0,45,45,45,,,,,,,,,,,,,107.77768319999996,0.027683199999955832,None,151.67583850000028,151.67583850000028,151.67583850000028,151.67583850000028,151.67583850000028,151.67583850000028,151.67583850000028,151.67583850000028,151.67583850000028,151.67583850000028,,009,P007,2025_Feb_01_1039,ConditionRich,2021.2.3,59.92229277067504,
108.0,111.75,27,0.75,Stimuli/P007/things_fur_coat_04s.jpg,0,0,0.0,0,46,46,46,,,,,,,,,,,,,108.01118990000032,0.01118990000031772,None,151.90936240000065,151.90936240000065,151.90936240000065,151.90936240000065,151.90936240000065,151.90936240000065,151.90936240000065,151.90936240000065,151.90936240000065,151.90936240000065,,009,P007,2025_Feb_01_1039,ConditionRich,2021.2.3,59.92229277067504,
111.75,112.0,41,0.0,Stimuli/Blank.png,0,0,0.0,0,47,47,47,,,,,,,,,,,,,111.76383090000036,0.01383090000035736,None,155.6626913,155.6626913,155.6626913,155.6626913,155.6626913,155.6626913,155.6626913,155.6626913,155.6626913,155.6626913,,009,P007,2025_Feb_01_1039,ConditionRich,2021.2.3,59.92229277067504,
112.0,115.75,22,0.75,Stimuli/P007/things_boar_04s.jpg,0,0,0.0,0,48,48,48,,,,,,,,,,,,,112.01452150000023,0.014521500000228116,None,155.91290090000075,155.91290090000075,155.91290090000075,155.91290090000075,155.91290090000075,155.91290090000075,155.91290090000075,155.91290090000075,155.91290090000075,155.91290090000075,,009,P007,2025_Feb_01_1039,ConditionRich,2021.2.3,59.92229277067504,
115.75,116.0,41,0.0,Stimuli/Blank.png,0,0,0.0,0,49,49,49,,,,,,,,,,,,,115.7506269000005,0.0006269000004976988,None,159.64953650000007,159.64953650000007,159.64953650000007,159.64953650000007,159.64953650000007,159.64953650000007,159.64953650000007,159.64953650000007,159.64953650000007,159.64953650000007,,009,P007,2025_Feb_01_1039,ConditionRich,2021.2.3,59.92229277067504,
116.0,119.75,10,0.75,Stimuli/P007/sun_bdekcgnlcicvgpvq.jpg,0,0,0.0,0,50,50,50,,,,,,,,,,,,,116.00148520000039,0.0014852000003884314,None,159.89972470000066,159.89972470000066,159.89972470000066,159.89972470000066,159.89972470000066,159.89972470000066,159.89972470000066,159.89972470000066,159.89972470000066,159.89972470000066,,009,P007,2025_Feb_01_1039,ConditionRich,2021.2.3,59.92229277067504,
119.75,120.0,41,0.0,Stimuli/Blank.png,0,0,0.0,0,51,51,51,,,,,,,,,,,,,119.75479900000028,0.004799000000275555,None,163.65308200000072,163.65308200000072,163.65308200000072,163.65308200000072,163.65308200000072,163.65308200000072,163.65308200000072,163.65308200000072,163.65308200000072,163.65308200000072,,009,P007,2025_Feb_01_1039,ConditionRich,2021.2.3,59.92229277067504,
120.0,123.75,18,0.75,Stimuli/P007/sun_borgfidyubrwsuuw.jpg,0,0,0.0,0,52,52,52,,,,,,,,,,,,,120.00496939999994,0.004969399999936286,None,163.90330500000073,163.90330500000073,163.90330500000073,163.90330500000073,163.90330500000073,163.90330500000073,163.90330500000073,163.90330500000073,163.90330500000073,163.90330500000073,,009,P007,2025_Feb_01_1039,ConditionRich,2021.2.3,59.92229277067504,
123.75,124.0,41,0.0,Stimuli/Blank.png,0,0,0.0,0,53,53,53,,,,,,,,,,,,,123.76037770000039,0.010377700000390178,None,167.6733088000001,167.6733088000001,167.6733088000001,167.6733088000001,167.6733088000001,167.6733088000001,167.6733088000001,167.6733088000001,167.6733088000001,167.6733088000001,,009,P007,2025_Feb_01_1039,ConditionRich,2021.2.3,59.92229277067504,
124.0,127.75,4,0.75,Stimuli/P007/sun_awqukazlzsxaokai.jpg,1,3,3.75,0,54,54,54,,,,,,,,,,,,,124.02516819999983,0.025168199999825447,2,167.92352280000068,167.92352280000068,167.92352280000068,167.92352280000068,167.92352280000068,167.92352280000068,170.90953170000012,None,167.92352280000068,167.92352280000068,3.42853550000018,009,P007,2025_Feb_01_1039,ConditionRich,2021.2.3,59.92229277067504,
127.75,128.0,41,0.0,Stimuli/Blank.png,0,0,0.0,0,55,55,55,,,,,,,,,,,,,127.7619967999999,0.011996799999906216,None,171.66023120000045,171.66023120000045,171.66023120000045,171.66023120000045,171.66023120000045,171.66023120000045,171.66023120000045,171.66023120000045,171.66023120000045,171.66023120000045,,009,P007,2025_Feb_01_1039,ConditionRich,2021.2.3,59.92229277067504,
128.0,131.75,32,0.75,Stimuli/P007/things_maggot_04s.jpg,0,0,0.0,0,56,56,56,,,,,,,,,,,,,128.01289090000046,0.012890900000456895,None,171.92706970000017,171.92706970000017,171.92706970000017,171.92706970000017,171.92706970000017,171.92706970000017,171.92706970000017,171.92706970000017,171.92706970000017,171.92706970000017,,009,P007,2025_Feb_01_1039,ConditionRich,2021.2.3,59.92229277067504,
131.75,132.0,41,0.0,Stimuli/Blank.png,0,0,0.0,0,57,57,57,,,,,,,,,,,,,131.76498410000022,0.014984100000219769,None,175.6637070000006,175.6637070000006,175.6637070000006,175.6637070000006,175.6637070000006,175.6637070000006,175.6637070000006,175.6637070000006,175.6637070000006,175.6637070000006,,009,P007,2025_Feb_01_1039,ConditionRich,2021.2.3,59.92229277067504,
132.0,135.75,23,0.75,Stimuli/P007/things_bumper_04s.jpg,0,0,0.0,0,58,58,58,,,,,,,,,,,,,132.0157975000002,0.015797500000189757,None,175.91393330000028,175.91393330000028,175.91393330000028,175.91393330000028,175.91393330000028,175.91393330000028,175.91393330000028,175.91393330000028,175.91393330000028,175.91393330000028,,009,P007,2025_Feb_01_1039,ConditionRich,2021.2.3,59.92229277067504,
135.75,136.0,41,0.0,Stimuli/Blank.png,0,0,0.0,0,59,59,59,,,,,,,,,,,,,135.7525243,0.0025243000000045868,None,179.65058190000036,179.65058190000036,179.65058190000036,179.65058190000036,179.65058190000036,179.65058190000036,179.65058190000036,179.65058190000036,179.65058190000036,179.65058190000036,,009,P007,2025_Feb_01_1039,ConditionRich,2021.2.3,59.92229277067504,
136.0,139.75,34,0.75,Stimuli/P007/things_moose_04s.jpg,0,0,0.0,0,60,60,60,,,,,,,,,,,,,136.0018273000005,0.0018273000005137874,None,179.91748860000007,179.91748860000007,179.91748860000007,179.91748860000007,179.91748860000007,179.91748860000007,179.91748860000007,179.91748860000007,179.91748860000007,179.91748860000007,,009,P007,2025_Feb_01_1039,ConditionRich,2021.2.3,59.92229277067504,
139.75,140.0,41,0.0,Stimuli/Blank.png,0,0,0.0,0,61,61,61,,,,,,,,,,,,,139.77445129999978,0.02445129999978235,None,183.68768660000023,183.68768660000023,183.68768660000023,183.68768660000023,183.68768660000023,183.68768660000023,183.68768660000023,183.68768660000023,183.68768660000023,183.68768660000023,,009,P007,2025_Feb_01_1039,ConditionRich,2021.2.3,59.92229277067504,
140.0,143.75,9,0.75,Stimuli/P007/sun_bcsqogieozpyvuft.jpg,0,0,0.0,0,62,62,62,,,,,,,,,,,,,140.02473310000005,0.02473310000004858,None,183.93774340000073,183.93774340000073,183.93774340000073,183.93774340000073,183.93774340000073,183.93774340000073,183.93774340000073,183.93774340000073,183.93774340000073,183.93774340000073,,009,P007,2025_Feb_01_1039,ConditionRich,2021.2.3,59.92229277067504,
143.75,144.0,41,0.0,Stimuli/Blank.png,0,0,0.0,0,63,63,63,,,,,,,,,,,,,143.77551969999968,0.02551969999967696,None,187.67432559999997,187.67432559999997,187.67432559999997,187.67432559999997,187.67432559999997,187.67432559999997,187.67432559999997,187.67432559999997,187.67432559999997,187.67432559999997,,009,P007,2025_Feb_01_1039,ConditionRich,2021.2.3,59.92229277067504,
144.0,147.75,17,0.75,Stimuli/P007/sun_bnsxdhbsafbdyncy.jpg,1,1,1.75,0,64,64,64,,,,,,,,,,,,,144.00941719999992,0.009417199999916193,2,187.90786610000032,187.90786610000032,187.90786610000032,187.90786610000032,187.90786610000032,187.90786610000032,188.89207239999996,189.64273630000025,187.90786610000032,187.90786610000032,1.4302082000003793,009,P007,2025_Feb_01_1039,ConditionRich,2021.2.3,59.92229277067504,
147.75,148.0,41,0.0,Stimuli/Blank.png,0,0,0.0,0,65,65,65,,,,,,,,,,,,,147.76444749999973,0.014447499999732827,None,191.6778875,191.6778875,191.6778875,191.6778875,191.6778875,191.6778875,191.6778875,191.6778875,191.6778875,191.6778875,,009,P007,2025_Feb_01_1039,ConditionRich,2021.2.3,59.92229277067504,
148.0,151.75,40,0.75,Stimuli/P007/things_woman_04s.jpg,0,0,0.0,0,66,66,66,,,,,,,,,,,,,148.02910580000025,0.029105800000252202,None,191.92811000000074,191.92811000000074,191.92811000000074,191.92811000000074,191.92811000000074,191.92811000000074,191.92811000000074,191.92811000000074,191.92811000000074,191.92811000000074,,009,P007,2025_Feb_01_1039,ConditionRich,2021.2.3,59.92229277067504,
151.75,152.0,41,0.0,Stimuli/Blank.png,0,0,0.0,0,67,67,67,,,,,,,,,,,,,151.75008210000033,8.210000032704556e-05,None,195.6480588000004,195.6480588000004,195.6480588000004,195.6480588000004,195.6480588000004,195.6480588000004,195.6480588000004,195.6480588000004,195.6480588000004,195.6480588000004,,009,P007,2025_Feb_01_1039,ConditionRich,2021.2.3,59.92229277067504,
152.0,155.75,29,0.75,Stimuli/P007/things_hawk_04s.jpg,1,2,2.75,0,68,68,68,,,,,,,,,,,,,151.99998049999977,-1.9500000234984327e-05,2,195.89826970000013,195.89826970000013,195.89826970000013,195.89826970000013,195.89826970000013,195.89826970000013,197.88331780000044,198.6340551000003,195.89826970000013,195.89826970000013,2.582805500000177,009,P007,2025_Feb_01_1039,ConditionRich,2021.2.3,59.92229277067504,
155.75,156.0,41,0.0,Stimuli/Blank.png,0,0,0.0,0,69,69,69,,,,,,,,,,,,,155.75565499999993,0.005654999999933352,None,199.6682983999999,199.6682983999999,199.6682983999999,199.6682983999999,199.6682983999999,199.6682983999999,199.6682983999999,199.6682983999999,199.6682983999999,199.6682983999999,,009,P007,2025_Feb_01_1039,ConditionRich,2021.2.3,59.92229277067504,
156.0,159.75,28,0.75,Stimuli/P007/things_girl_04s.jpg,0,0,0.0,0,70,70,70,,,,,,,,,,,,,156.02023559999998,0.02023559999997815,None,199.91849270000057,199.91849270000057,199.91849270000057,199.91849270000057,199.91849270000057,199.91849270000057,199.91849270000057,199.91849270000057,199.91849270000057,199.91849270000057,,009,P007,2025_Feb_01_1039,ConditionRich,2021.2.3,59.92229277067504,
159.75,160.0,41,0.0,Stimuli/Blank.png,0,0,0.0,0,71,71,71,,,,,,,,,,,,,159.75676100000055,0.006761000000551576,None,203.65518359999987,203.65518359999987,203.65518359999987,203.65518359999987,203.65518359999987,203.65518359999987,203.65518359999987,203.65518359999987,203.65518359999987,203.65518359999987,,009,P007,2025_Feb_01_1039,ConditionRich,2021.2.3,59.92229277067504,
160.0,163.75,11,0.75,Stimuli/P007/sun_bdsriuscubkvzrmt.jpg,0,0,0.0,0,72,72,72,,,,,,,,,,,,,160.00639560000036,0.006395600000359991,None,203.92202989999987,203.92202989999987,203.92202989999987,203.92202989999987,203.92202989999987,203.92202989999987,203.92202989999987,203.92202989999987,203.92202989999987,203.92202989999987,,009,P007,2025_Feb_01_1039,ConditionRich,2021.2.3,59.92229277067504,
163.75,164.0,41,0.0,Stimuli/Blank.png,0,0,0.0,0,73,73,73,,,,,,,,,,,,,163.7793257000003,0.029325700000299548,None,207.69204979999995,207.69204979999995,207.69204979999995,207.69204979999995,207.69204979999995,207.69204979999995,207.69204979999995,207.69204979999995,207.69204979999995,207.69204979999995,,009,P007,2025_Feb_01_1039,ConditionRich,2021.2.3,59.92229277067504,
164.0,167.75,13,0.75,Stimuli/P007/sun_bkhuvtsqontzwtbo.jpg,0,0,0.0,0,74,74,74,,,,,,,,,,,,,164.02951370000028,0.02951370000027964,None,207.94226080000044,207.94226080000044,207.94226080000044,207.94226080000044,207.94226080000044,207.94226080000044,207.94226080000044,207.94226080000044,207.94226080000044,207.94226080000044,,009,P007,2025_Feb_01_1039,ConditionRich,2021.2.3,59.92229277067504,
167.75,168.0,41,0.0,Stimuli/Blank.png,0,0,0.0,0,75,75,75,,,,,,,,,,,,,167.76407699999982,0.014076999999815598,None,211.6622154000006,211.6622154000006,211.6622154000006,211.6622154000006,211.6622154000006,211.6622154000006,211.6622154000006,211.6622154000006,211.6622154000006,211.6622154000006,,009,P007,2025_Feb_01_1039,ConditionRich,2021.2.3,59.92229277067504,
168.0,171.75,36,0.75,Stimuli/P007/things_platypus_04s.jpg,0,0,0.0,0,76,76,76,,,,,,,,,,,,,168.01376609999988,0.013766099999884318,None,211.9124357999999,211.9124357999999,211.9124357999999,211.9124357999999,211.9124357999999,211.9124357999999,211.9124357999999,211.9124357999999,211.9124357999999,211.9124357999999,,009,P007,2025_Feb_01_1039,ConditionRich,2021.2.3,59.92229277067504,
171.75,172.0,41,0.0,Stimuli/Blank.png,0,0,0.0,0,77,77,77,,,,,,,,,,,,,171.75026140000045,0.00026140000045415945,None,215.6490715,215.6490715,215.6490715,215.6490715,215.6490715,215.6490715,215.6490715,215.6490715,215.6490715,215.6490715,,009,P007,2025_Feb_01_1039,ConditionRich,2021.2.3,59.92229277067504,
172.0,175.75,16,0.75,Stimuli/P007/sun_bnpggenxuowzsywq.jpg,1,0,0.75,0,78,78,78,,,,,,,,,,,,,172.00144379999983,0.0014437999998335727,2,215.8992906000003,215.8992906000003,215.8992906000003,215.8992906000003,215.8992906000003,215.8992906000003,215.8992906000003,216.6333196000005,215.8992906000003,215.8992906000003,0.463937900000019,009,P007,2025_Feb_01_1039,ConditionRich,2021.2.3,59.92229277067504,
175.75,176.0,41,0.0,Stimuli/Blank.png,0,0,0.0,0,79,79,79,,,,,,,,,,,,,175.75390880000032,0.003908800000317569,None,219.65261030000056,219.65261030000056,219.65261030000056,219.65261030000056,219.65261030000056,219.65261030000056,219.65261030000056,219.65261030000056,219.65261030000056,219.65261030000056,,009,P007,2025_Feb_01_1039,ConditionRich,2021.2.3,59.92229277067504,
176.0,179.75,25,0.75,Stimuli/P007/things_credit_card_04s.jpg,0,0,0.0,0,80,80,80,,,,,,,,,,,,,176.0053700999997,0.005370099999709055,None,219.91962950000016,219.91962950000016,219.91962950000016,219.91962950000016,219.91962950000016,219.91962950000016,219.91962950000016,219.91962950000016,219.91962950000016,219.91962950000016,,009,P007,2025_Feb_01_1039,ConditionRich,2021.2.3,59.92229277067504,
179.75,180.0,41,0.0,Stimuli/Blank.png,0,0,0.0,0,81,81,81,,,,,,,,,,,,,179.77458900000056,0.02458900000056019,None,223.67286700000022,223.67286700000022,223.67286700000022,223.67286700000022,223.67286700000022,223.67286700000022,223.67286700000022,223.67286700000022,223.67286700000022,223.67286700000022,,009,P007,2025_Feb_01_1039,ConditionRich,2021.2.3,59.92229277067504,
180.0,196.0,0,0.0,Stimuli/Blank.png,1,1,1.75,0,82,82,82,,,,,,,,,,,,,180.00860019999982,0.00860019999981887,2,223.9063913,223.9063913,223.9063913,223.9063913,223.9063913,223.9063913,224.89062900000044,225.6412479999999,223.9063913,223.9063913,1.4090368000006492,009,P007,2025_Feb_01_1039,ConditionRich,2021.2.3,59.92229277067504,
196.0,199.75,12,0.75,Stimuli/P007/sun_bitpmyvulluuasab.jpg,0,0,0.0,0,83,83,83,,,,,,,,,,,,,196.00558060000003,0.005580600000030245,None,239.90385800000058,239.90385800000058,239.90385800000058,239.90385800000058,239.90385800000058,239.90385800000058,239.90385800000058,239.90385800000058,239.90385800000058,239.90385800000058,,009,P007,2025_Feb_01_1039,ConditionRich,2021.2.3,59.92229277067504,
199.75,200.0,41,0.0,Stimuli/Blank.png,0,0,0.0,0,84,84,84,,,,,,,,,,,,,199.75959630000034,0.009596300000339397,None,243.65719040000022,243.65719040000022,243.65719040000022,243.65719040000022,243.65719040000022,243.65719040000022,243.65719040000022,243.65719040000022,243.65719040000022,243.65719040000022,,009,P007,2025_Feb_01_1039,ConditionRich,2021.2.3,59.92229277067504,
200.0,203.75,16,0.75,Stimuli/P007/sun_bnpggenxuowzsywq.jpg,0,0,0.0,0,85,85,85,,,,,,,,,,,,,200.00902829999995,0.00902829999995447,None,243.9240808000004,243.9240808000004,243.9240808000004,243.9240808000004,243.9240808000004,243.9240808000004,243.9240808000004,243.9240808000004,243.9240808000004,243.9240808000004,,009,P007,2025_Feb_01_1039,ConditionRich,2021.2.3,59.92229277067504,
203.75,204.0,41,0.0,Stimuli/Blank.png,0,0,0.0,0,86,86,86,,,,,,,,,,,,,203.77907270000014,0.029072700000142504,None,247.67742129999988,247.67742129999988,247.67742129999988,247.67742129999988,247.67742129999988,247.67742129999988,247.67742129999988,247.67742129999988,247.67742129999988,247.67742129999988,,009,P007,2025_Feb_01_1039,ConditionRich,2021.2.3,59.92229277067504,
204.0,207.75,33,0.75,Stimuli/P007/things_man_04s.jpg,1,2,2.75,0,87,87,87,,,,,,,,,,,,,204.01272150000023,0.012721500000225205,2,247.9276189000002,247.9276189000002,247.9276189000002,247.9276189000002,247.9276189000002,247.9276189000002,249.8960749000007,250.6467222000001,247.9276189000002,247.9276189000002,2.419560199999978,009,P007,2025_Feb_01_1039,ConditionRich,2021.2.3,59.92229277067504,
207.75,208.0,41,0.0,Stimuli/Blank.png,0,0,0.0,0,88,88,88,,,,,,,,,,,,,207.7662731999999,0.016273199999886856,None,251.66426580000007,251.66426580000007,251.66426580000007,251.66426580000007,251.66426580000007,251.66426580000007,251.66426580000007,251.66426580000007,251.66426580000007,251.66426580000007,,009,P007,2025_Feb_01_1039,ConditionRich,2021.2.3,59.92229277067504,
208.0,211.75,37,0.75,Stimuli/P007/things_praying_mantis_04s.jpg,0,0,0.0,0,89,89,89,,,,,,,,,,,,,207.99945360000038,-0.0005463999996209168,None,251.91450070000064,251.91450070000064,251.91450070000064,251.91450070000064,251.91450070000064,251.91450070000064,251.91450070000064,251.91450070000064,251.91450070000064,251.91450070000064,,009,P007,2025_Feb_01_1039,ConditionRich,2021.2.3,59.92229277067504,
211.75,212.0,41,0.0,Stimuli/Blank.png,0,0,0.0,0,90,90,90,,,,,,,,,,,,,211.7703029000004,0.020302900000388036,None,255.66781190000074,255.66781190000074,255.66781190000074,255.66781190000074,255.66781190000074,255.66781190000074,255.66781190000074,255.66781190000074,255.66781190000074,255.66781190000074,,009,P007,2025_Feb_01_1039,ConditionRich,2021.2.3,59.92229277067504,
212.0,215.75,17,0.75,Stimuli/P007/sun_bnsxdhbsafbdyncy.jpg,1,2,2.75,0,91,91,91,,,,,,,,,,,,,212.00382940000054,0.0038294000005407725,2,255.9180294000007,255.9180294000007,255.9180294000007,255.9180294000007,255.9180294000007,255.9180294000007,257.8864561999999,258.6370906000002,255.9180294000007,255.9180294000007,2.445345700000871,009,P007,2025_Feb_01_1039,ConditionRich,2021.2.3,59.92229277067504,
215.75,216.0,41,0.0,Stimuli/Blank.png,0,0,0.0,0,92,92,92,,,,,,,,,,,,,215.77316210000026,0.023162100000263308,None,259.67138909999994,259.67138909999994,259.67138909999994,259.67138909999994,259.67138909999994,259.67138909999994,259.67138909999994,259.67138909999994,259.67138909999994,259.67138909999994,,009,P007,2025_Feb_01_1039,ConditionRich,2021.2.3,59.92229277067504,
216.0,219.75,7,0.75,Stimuli/P007/sun_babhwrqvnhanonuy.jpg,0,0,0.0,0,93,93,93,,,,,,,,,,,,,216.0064322999997,0.00643229999968753,None,259.9048885000002,259.9048885000002,259.9048885000002,259.9048885000002,259.9048885000002,259.9048885000002,259.9048885000002,259.9048885000002,259.9048885000002,259.9048885000002,,009,P007,2025_Feb_01_1039,ConditionRich,2021.2.3,59.92229277067504,
219.75,220.0,41,0.0,Stimuli/Blank.png,0,0,0.0,0,94,94,94,,,,,,,,,,,,,219.75996740000028,0.009967400000277848,None,263.65820990000066,263.65820990000066,263.65820990000066,263.65820990000066,263.65820990000066,263.65820990000066,263.65820990000066,263.65820990000066,263.65820990000066,263.65820990000066,,009,P007,2025_Feb_01_1039,ConditionRich,2021.2.3,59.92229277067504,
220.0,223.75,8,0.75,Stimuli/P007/sun_bbnepvzvycqjjczs.jpg,0,0,0.0,0,95,95,95,,,,,,,,,,,,,220.01039279999986,0.0103927999998632,None,263.9251197000003,263.9251197000003,263.9251197000003,263.9251197000003,263.9251197000003,263.9251197000003,263.9251197000003,263.9251197000003,263.9251197000003,263.9251197000003,,009,P007,2025_Feb_01_1039,ConditionRich,2021.2.3,59.92229277067504,
223.75,224.0,41,0.0,Stimuli/Blank.png,0,0,0.0,0,96,96,96,,,,,,,,,,,,,223.7804229000003,0.030422900000303343,None,267.6784421000002,267.6784421000002,267.6784421000002,267.6784421000002,267.6784421000002,267.6784421000002,267.6784421000002,267.6784421000002,267.6784421000002,267.6784421000002,,009,P007,2025_Feb_01_1039,ConditionRich,2021.2.3,59.92229277067504,
224.0,227.75,29,0.75,Stimuli/P007/things_hawk_04s.jpg,0,0,0.0,0,97,97,97,,,,,,,,,,,,,224.01384599999983,0.013845999999830383,None,267.9286462,267.9286462,267.9286462,267.9286462,267.9286462,267.9286462,267.9286462,267.9286462,267.9286462,267.9286462,,009,P007,2025_Feb_01_1039,ConditionRich,2021.2.3,59.92229277067504,
227.75,228.0,41,0.0,Stimuli/Blank.png,0,0,0.0,0,98,98,98,,,,,,,,,,,,,227.76711260000047,0.01711260000047332,None,271.6653019000005,271.6653019000005,271.6653019000005,271.6653019000005,271.6653019000005,271.6653019000005,271.6653019000005,271.6653019000005,271.6653019000005,271.6653019000005,,009,P007,2025_Feb_01_1039,ConditionRich,2021.2.3,59.92229277067504,
228.0,231.75,11,0.75,Stimuli/P007/sun_bdsriuscubkvzrmt.jpg,0,0,0.0,0,99,99,99,,,,,,,,,,,,,227.99999380000008,-6.199999916134402e-06,None,271.89883550000013,271.89883550000013,271.89883550000013,271.89883550000013,271.89883550000013,271.89883550000013,271.89883550000013,271.89883550000013,271.89883550000013,271.89883550000013,,009,P007,2025_Feb_01_1039,ConditionRich,2021.2.3,59.92229277067504,
231.75,232.0,41,0.0,Stimuli/Blank.png,0,0,0.0,0,100,100,100,,,,,,,,,,,,,231.75385170000027,0.0038517000002684654,None,275.65215590000025,275.65215590000025,275.65215590000025,275.65215590000025,275.65215590000025,275.65215590000025,275.65215590000025,275.65215590000025,275.65215590000025,275.65215590000025,,009,P007,2025_Feb_01_1039,ConditionRich,2021.2.3,59.92229277067504,
232.0,235.75,18,0.75,Stimuli/P007/sun_borgfidyubrwsuuw.jpg,1,1,1.75,0,101,101,101,,,,,,,,,,,,,232.00417509999988,0.004175099999883969,2,275.91904909999994,275.91904909999994,275.91904909999994,275.91904909999994,275.91904909999994,275.91904909999994,276.88659540000026,277.6372372000005,275.91904909999994,275.91904909999994,1.4051999999992404,009,P007,2025_Feb_01_1039,ConditionRich,2021.2.3,59.92229277067504,
235.75,236.0,41,0.0,Stimuli/Blank.png,0,0,0.0,0,102,102,102,,,,,,,,,,,,,235.7742949000003,0.024294900000313646,None,279.6723873000001,279.6723873000001,279.6723873000001,279.6723873000001,279.6723873000001,279.6723873000001,279.6723873000001,279.6723873000001,279.6723873000001,279.6723873000001,,009,P007,2025_Feb_01_1039,ConditionRich,2021.2.3,59.92229277067504,
236.0,239.75,3,0.75,Stimuli/P007/sun_aueftjhdwnvkbzlt.jpg,0,0,0.0,0,103,103,103,,,,,,,,,,,,,236.00773819999995,0.007738199999948847,None,279.9225868000003,279.9225868000003,279.9225868000003,279.9225868000003,279.9225868000003,279.9225868000003,279.9225868000003,279.9225868000003,279.9225868000003,279.9225868000003,,009,P007,2025_Feb_01_1039,ConditionRich,2021.2.3,59.92229277067504,
239.75,240.0,41,0.0,Stimuli/Blank.png,0,0,0.0,0,104,104,104,,,,,,,,,,,,,239.77766919999976,0.027669199999763805,None,283.67591750000065,283.67591750000065,283.67591750000065,283.67591750000065,283.67591750000065,283.67591750000065,283.67591750000065,283.67591750000065,283.67591750000065,283.67591750000065,,009,P007,2025_Feb_01_1039,ConditionRich,2021.2.3,59.92229277067504,
240.0,243.75,34,0.75,Stimuli/P007/things_moose_04s.jpg,1,3,3.75,0,105,105,105,,,,,,,,,,,,,240.0115691000001,0.011569100000087928,2,283.9094689000003,283.9094689000003,283.9094689000003,283.9094689000003,283.9094689000003,283.9094689000003,286.8954598,287.6461401000006,283.9094689000003,283.9094689000003,3.540729299999839,009,P007,2025_Feb_01_1039,ConditionRich,2021.2.3,59.92229277067504,
243.75,244.0,41,0.0,Stimuli/Blank.png,0,0,0.0,0,106,106,106,,,,,,,,,,,,,243.7648975000002,0.014897500000188302,None,287.66277919999993,287.66277919999993,287.66277919999993,287.66277919999993,287.66277919999993,287.66277919999993,287.66277919999993,287.66277919999993,287.66277919999993,287.66277919999993,,009,P007,2025_Feb_01_1039,ConditionRich,2021.2.3,59.92229277067504,
244.0,247.75,13,0.75,Stimuli/P007/sun_bkhuvtsqontzwtbo.jpg,0,0,0.0,0,107,107,107,,,,,,,,,,,,,244.01510849999977,0.015108499999769265,None,287.9296844999999,287.9296844999999,287.9296844999999,287.9296844999999,287.9296844999999,287.9296844999999,287.9296844999999,287.9296844999999,287.9296844999999,287.9296844999999,,009,P007,2025_Feb_01_1039,ConditionRich,2021.2.3,59.92229277067504,
247.75,248.0,41,0.0,Stimuli/Blank.png,0,0,0.0,0,108,108,108,,,,,,,,,,,,,247.7693491,0.019349099999999453,None,291.68300010000075,291.68300010000075,291.68300010000075,291.68300010000075,291.68300010000075,291.68300010000075,291.68300010000075,291.68300010000075,291.68300010000075,291.68300010000075,,009,P007,2025_Feb_01_1039,ConditionRich,2021.2.3,59.92229277067504,
248.0,251.75,35,0.75,Stimuli/P007/things_pecan_04s.jpg,0,0,0.0,0,109,109,109,,,,,,,,,,,,,248.01888229999986,0.018882299999859242,None,291.9332155000002,291.9332155000002,291.9332155000002,291.9332155000002,291.9332155000002,291.9332155000002,291.9332155000002,291.9332155000002,291.9332155000002,291.9332155000002,,009,P007,2025_Feb_01_1039,ConditionRich,2021.2.3,59.92229277067504,
251.75,252.0,41,0.0,Stimuli/Blank.png,0,0,0.0,0,110,110,110,,,,,,,,,,,,,251.7718921000005,0.021892100000513892,None,295.66985400000067,295.66985400000067,295.66985400000067,295.66985400000067,295.66985400000067,295.66985400000067,295.66985400000067,295.66985400000067,295.66985400000067,295.66985400000067,,009,P007,2025_Feb_01_1039,ConditionRich,2021.2.3,59.92229277067504,
252.0,255.75,14,0.75,Stimuli/P007/sun_bkvjqgmploznrhxt.jpg,0,0,0.0,0,111,111,111,,,,,,,,,,,,,252.00514910000038,0.005149100000380713,None,295.92009790000066,295.92009790000066,295.92009790000066,295.92009790000066,295.92009790000066,295.92009790000066,295.92009790000066,295.92009790000066,295.92009790000066,295.92009790000066,,009,P007,2025_Feb_01_1039,ConditionRich,2021.2.3,59.92229277067504,
255.75,256.0,41,0.0,Stimuli/Blank.png,0,0,0.0,0,112,112,112,,,,,,,,,,,,,255.77549330000056,0.025493300000562158,None,299.6733965000003,299.6733965000003,299.6733965000003,299.6733965000003,299.6733965000003,299.6733965000003,299.6733965000003,299.6733965000003,299.6733965000003,299.6733965000003,,009,P007,2025_Feb_01_1039,ConditionRich,2021.2.3,59.92229277067504,
256.0,259.75,32,0.75,Stimuli/P007/things_maggot_04s.jpg,0,0,0.0,0,113,113,113,,,,,,,,,,,,,256.0088974999999,0.008897499999875436,None,299.9069330000002,299.9069330000002,299.9069330000002,299.9069330000002,299.9069330000002,299.9069330000002,299.9069330000002,299.9069330000002,299.9069330000002,299.9069330000002,,009,P007,2025_Feb_01_1039,ConditionRich,2021.2.3,59.92229277067504,
259.75,260.0,41,0.0,Stimuli/Blank.png,0,0,0.0,0,114,114,114,,,,,,,,,,,,,259.76171890000023,0.01171890000023268,None,303.6602636000007,303.6602636000007,303.6602636000007,303.6602636000007,303.6602636000007,303.6602636000007,303.6602636000007,303.6602636000007,303.6602636000007,303.6602636000007,,009,P007,2025_Feb_01_1039,ConditionRich,2021.2.3,59.92229277067504,
260.0,263.75,9,0.75,Stimuli/P007/sun_bcsqogieozpyvuft.jpg,0,0,0.0,0,115,115,115,,,,,,,,,,,,,260.0134052000003,0.01340520000030665,None,303.92716050000035,303.92716050000035,303.92716050000035,303.92716050000035,303.92716050000035,303.92716050000035,303.92716050000035,303.92716050000035,303.92716050000035,303.92716050000035,,009,P007,2025_Feb_01_1039,ConditionRich,2021.2.3,59.92229277067504,
263.75,264.0,41,0.0,Stimuli/Blank.png,0,0,0.0,0,116,116,116,,,,,,,,,,,,,263.76563630000055,0.015636300000551273,None,307.66379250000045,307.66379250000045,307.66379250000045,307.66379250000045,307.66379250000045,307.66379250000045,307.66379250000045,307.66379250000045,307.66379250000045,307.66379250000045,,009,P007,2025_Feb_01_1039,ConditionRich,2021.2.3,59.92229277067504,
264.0,267.75,28,0.75,Stimuli/P007/things_girl_04s.jpg,0,0,0.0,0,117,117,117,,,,,,,,,,,,,263.99944980000055,-0.0005501999994521611,None,307.8973302000004,307.8973302000004,307.8973302000004,307.8973302000004,307.8973302000004,307.8973302000004,307.8973302000004,307.8973302000004,307.8973302000004,307.8973302000004,,009,P007,2025_Feb_01_1039,ConditionRich,2021.2.3,59.92229277067504,
267.75,268.0,41,0.0,Stimuli/Blank.png,0,0,0.0,0,118,118,118,,,,,,,,,,,,,267.75182459999996,0.0018245999999635387,None,311.6507386000003,311.6507386000003,311.6507386000003,311.6507386000003,311.6507386000003,311.6507386000003,311.6507386000003,311.6507386000003,311.6507386000003,311.6507386000003,,009,P007,2025_Feb_01_1039,ConditionRich,2021.2.3,59.92229277067504,
268.0,271.75,25,0.75,Stimuli/P007/things_credit_card_04s.jpg,0,0,0.0,0,119,119,119,,,,,,,,,,,,,268.0045799999998,0.004579999999805295,None,311.91761829999996,311.91761829999996,311.91761829999996,311.91761829999996,311.91761829999996,311.91761829999996,311.91761829999996,311.91761829999996,311.91761829999996,311.91761829999996,,009,P007,2025_Feb_01_1039,ConditionRich,2021.2.3,59.92229277067504,
271.75,272.0,41,0.0,Stimuli/Blank.png,0,0,0.0,0,120,120,120,,,,,,,,,,,,,271.77435760000026,0.024357600000257662,None,315.6875694999999,315.6875694999999,315.6875694999999,315.6875694999999,315.6875694999999,315.6875694999999,315.6875694999999,315.6875694999999,315.6875694999999,315.6875694999999,,009,P007,2025_Feb_01_1039,ConditionRich,2021.2.3,59.92229277067504,
272.0,275.75,30,0.75,Stimuli/P007/things_jalapeno_04s.jpg,0,0,0.0,0,121,121,121,,,,,,,,,,,,,272.0229496000002,0.02294960000017454,None,315.92110409999987,315.92110409999987,315.92110409999987,315.92110409999987,315.92110409999987,315.92110409999987,315.92110409999987,315.92110409999987,315.92110409999987,315.92110409999987,,009,P007,2025_Feb_01_1039,ConditionRich,2021.2.3,59.92229277067504,
275.75,276.0,41,0.0,Stimuli/Blank.png,0,0,0.0,0,122,122,122,,,,,,,,,,,,,275.75943280000047,0.009432800000467978,None,319.6577434999999,319.6577434999999,319.6577434999999,319.6577434999999,319.6577434999999,319.6577434999999,319.6577434999999,319.6577434999999,319.6577434999999,319.6577434999999,,009,P007,2025_Feb_01_1039,ConditionRich,2021.2.3,59.92229277067504,
276.0,292.0,0,0.0,Stimuli/Blank.png,1,9,9.75,0,123,123,123,,,,,,,,,,,,,276.00968250000005,0.009682500000053551,2,319.9079651000002,319.9079651000002,319.9079651000002,319.9079651000002,319.9079651000002,319.9079651000002,328.89938750000056,329.6499358000001,319.9079651000002,319.9079651000002,9.337484800000311,009,P007,2025_Feb_01_1039,ConditionRich,2021.2.3,59.92229277067504,
292.0,295.75,20,0.75,Stimuli/P007/sun_btrxtfbwtggtrpfv.jpg,0,0,0.0,0,124,124,124,,,,,,,,,,,,,292.00738530000035,0.0073853000003509806,None,335.92209809999986,335.92209809999986,335.92209809999986,335.92209809999986,335.92209809999986,335.92209809999986,335.92209809999986,335.92209809999986,335.92209809999986,335.92209809999986,,009,P007,2025_Feb_01_1039,ConditionRich,2021.2.3,59.92229277067504,
295.75,296.0,41,0.0,Stimuli/Blank.png,0,0,0.0,0,125,125,125,,,,,,,,,,,,,295.77677649999987,0.026776499999868975,None,339.67545040000005,339.67545040000005,339.67545040000005,339.67545040000005,339.67545040000005,339.67545040000005,339.67545040000005,339.67545040000005,339.67545040000005,339.67545040000005,,009,P007,2025_Feb_01_1039,ConditionRich,2021.2.3,59.92229277067504,
296.0,299.75,15,0.75,Stimuli/P007/sun_bmeductqpfkygtww.jpg,0,0,0.0,0,126,126,126,,,,,,,,,,,,,296.01083149999977,0.010831499999767402,None,339.9089887,339.9089887,339.9089887,339.9089887,339.9089887,339.9089887,339.9089887,339.9089887,339.9089887,339.9089887,,009,P007,2025_Feb_01_1039,ConditionRich,2021.2.3,59.92229277067504,
299.75,300.0,41,0.0,Stimuli/Blank.png,0,0,0.0,0,127,127,127,,,,,,,,,,,,,299.76438120000057,0.01438120000057097,None,343.6623131000006,343.6623131000006,343.6623131000006,343.6623131000006,343.6623131000006,343.6623131000006,343.6623131000006,343.6623131000006,343.6623131000006,343.6623131000006,,009,P007,2025_Feb_01_1039,ConditionRich,2021.2.3,59.92229277067504,
300.0,303.75,38,0.75,Stimuli/P007/things_rollerblade_04s.jpg,0,0,0.0,0,128,128,128,,,,,,,,,,,,,300.0141703999998,0.014170399999784422,None,343.9125391000007,343.9125391000007,343.9125391000007,343.9125391000007,343.9125391000007,343.9125391000007,343.9125391000007,343.9125391000007,343.9125391000007,343.9125391000007,,009,P007,2025_Feb_01_1039,ConditionRich,2021.2.3,59.92229277067504,
303.75,304.0,41,0.0,Stimuli/Blank.png,0,0,0.0,0,129,129,129,,,,,,,,,,,,,303.75029650000033,0.0002965000003314344,None,347.64915759999985,347.64915759999985,347.64915759999985,347.64915759999985,347.64915759999985,347.64915759999985,347.64915759999985,347.64915759999985,347.64915759999985,347.64915759999985,,009,P007,2025_Feb_01_1039,ConditionRich,2021.2.3,59.92229277067504,
304.0,307.75,4,0.75,Stimuli/P007/sun_awqukazlzsxaokai.jpg,0,0,0.0,0,130,130,130,,,,,,,,,,,,,304.0006020000001,0.0006020000000717118,None,347.89938489999986,347.89938489999986,347.89938489999986,347.89938489999986,347.89938489999986,347.89938489999986,347.89938489999986,347.89938489999986,347.89938489999986,347.89938489999986,,009,P007,2025_Feb_01_1039,ConditionRich,2021.2.3,59.92229277067504,
307.75,308.0,41,0.0,Stimuli/Blank.png,0,0,0.0,0,131,131,131,,,,,,,,,,,,,307.7538735999997,0.003873599999678845,None,351.6527033000002,351.6527033000002,351.6527033000002,351.6527033000002,351.6527033000002,351.6527033000002,351.6527033000002,351.6527033000002,351.6527033000002,351.6527033000002,,009,P007,2025_Feb_01_1039,ConditionRich,2021.2.3,59.92229277067504,
308.0,311.75,27,0.75,Stimuli/P007/things_fur_coat_04s.jpg,0,0,0.0,0,132,132,132,,,,,,,,,,,,,308.00491370000054,0.004913700000543031,None,351.90294150000045,351.90294150000045,351.90294150000045,351.90294150000045,351.90294150000045,351.90294150000045,351.90294150000045,351.90294150000045,351.90294150000045,351.90294150000045,,009,P007,2025_Feb_01_1039,ConditionRich,2021.2.3,59.92229277067504,
311.75,312.0,41,0.0,Stimuli/Blank.png,0,0,0.0,0,133,133,133,,,,,,,,,,,,,311.75876590000007,0.00876590000007127,None,355.6562506,355.6562506,355.6562506,355.6562506,355.6562506,355.6562506,355.6562506,355.6562506,355.6562506,355.6562506,,009,P007,2025_Feb_01_1039,ConditionRich,2021.2.3,59.92229277067504,
312.0,315.75,5,0.75,Stimuli/P007/sun_ayzkwnqsoiycbncn.jpg,1,3,3.75,0,134,134,134,,,,,,,,,,,,,312.0095441000003,0.009544100000312028,2,355.92316370000026,355.92316370000026,355.92316370000026,355.92316370000026,355.92316370000026,355.92316370000026,358.90912130000015,359.6598210000002,355.92316370000026,355.92316370000026,3.402983099999801,009,P007,2025_Feb_01_1039,ConditionRich,2021.2.3,59.92229277067504,
315.75,316.0,41,0.0,Stimuli/Blank.png,0,0,0.0,0,135,135,135,,,,,,,,,,,,,315.7806706000001,0.03067060000012134,None,359.69315630000074,359.69315630000074,359.69315630000074,359.69315630000074,359.69315630000074,359.69315630000074,359.69315630000074,359.69315630000074,359.69315630000074,359.69315630000074,,009,P007,2025_Feb_01_1039,ConditionRich,2021.2.3,59.92229277067504,
316.0,319.75,10,0.75,Stimuli/P007/sun_bdekcgnlcicvgpvq.jpg,1,2,2.75,0,136,136,136,,,,,,,,,,,,,316.0307674000005,0.03076740000051359,2,359.9434105999999,359.9434105999999,359.9434105999999,359.9434105999999,359.9434105999999,359.9434105999999,361.92845510000006,362.67912070000057,359.9434105999999,359.9434105999999,2.3761217999999644,009,P007,2025_Feb_01_1039,ConditionRich,2021.2.3,59.92229277067504,
319.75,320.0,41,0.0,Stimuli/Blank.png,0,0,0.0,0,137,137,137,,,,,,,,,,,,,319.7652542000005,0.015254200000526907,None,363.66333250000025,363.66333250000025,363.66333250000025,363.66333250000025,363.66333250000025,363.66333250000025,363.66333250000025,363.66333250000025,363.66333250000025,363.66333250000025,,009,P007,2025_Feb_01_1039,ConditionRich,2021.2.3,59.92229277067504,
320.0,323.75,26,0.75,Stimuli/P007/things_face_04s.jpg,1,0,0.75,0,138,138,138,,,,,,,,,,,,,320.0152257,0.015225699999973585,2,363.9135546000007,363.9135546000007,363.9135546000007,363.9135546000007,363.9135546000007,363.9135546000007,363.9135546000007,364.64752150000004,363.9135546000007,363.9135546000007,0.5347373000004154,009,P007,2025_Feb_01_1039,ConditionRich,2021.2.3,59.92229277067504,
323.75,324.0,41,0.0,Stimuli/Blank.png,0,0,0.0,0,139,139,139,,,,,,,,,,,,,323.7519049000002,0.0019049000002269167,None,367.65019269999993,367.65019269999993,367.65019269999993,367.65019269999993,367.65019269999993,367.65019269999993,367.65019269999993,367.65019269999993,367.65019269999993,367.65019269999993,,009,P007,2025_Feb_01_1039,ConditionRich,2021.2.3,59.92229277067504,
324.0,327.75,6,0.75,Stimuli/P007/sun_azpjjfwsbjdjcopb.jpg,0,0,0.0,0,140,140,140,,,,,,,,,,,,,324.00182250000034,0.0018225000003440073,None,367.9004115000007,367.9004115000007,367.9004115000007,367.9004115000007,367.9004115000007,367.9004115000007,367.9004115000007,367.9004115000007,367.9004115000007,367.9004115000007,,009,P007,2025_Feb_01_1039,ConditionRich,2021.2.3,59.92229277067504,
327.75,328.0,41,0.0,Stimuli/Blank.png,0,0,0.0,0,141,141,141,,,,,,,,,,,,,327.75482660000034,0.004826600000342296,None,371.65372950000074,371.65372950000074,371.65372950000074,371.65372950000074,371.65372950000074,371.65372950000074,371.65372950000074,371.65372950000074,371.65372950000074,371.65372950000074,,009,P007,2025_Feb_01_1039,ConditionRich,2021.2.3,59.92229277067504,
328.0,331.75,31,0.75,Stimuli/P007/things_jug_04s.jpg,0,0,0.0,0,142,142,142,,,,,,,,,,,,,328.0053730999998,0.005373099999815167,None,371.90395250000074,371.90395250000074,371.90395250000074,371.90395250000074,371.90395250000074,371.90395250000074,371.90395250000074,371.90395250000074,371.90395250000074,371.90395250000074,,009,P007,2025_Feb_01_1039,ConditionRich,2021.2.3,59.92229277067504,
331.75,332.0,41,0.0,Stimuli/Blank.png,0,0,0.0,0,143,143,143,,,,,,,,,,,,,331.7598512000004,0.009851200000412064,None,375.6572801000002,375.6572801000002,375.6572801000002,375.6572801000002,375.6572801000002,375.6572801000002,375.6572801000002,375.6572801000002,375.6572801000002,375.6572801000002,,009,P007,2025_Feb_01_1039,ConditionRich,2021.2.3,59.92229277067504,
332.0,335.75,40,0.75,Stimuli/P007/things_woman_04s.jpg,0,0,0.0,0,144,144,144,,,,,,,,,,,,,332.0101414999999,0.010141499999917869,None,375.92418180000004,375.92418180000004,375.92418180000004,375.92418180000004,375.92418180000004,375.92418180000004,375.92418180000004,375.92418180000004,375.92418180000004,375.92418180000004,,009,P007,2025_Feb_01_1039,ConditionRich,2021.2.3,59.92229277067504,
335.75,336.0,41,0.0,Stimuli/Blank.png,0,0,0.0,0,145,145,145,,,,,,,,,,,,,335.77986969999984,0.029869699999835575,None,379.6774982000006,379.6774982000006,379.6774982000006,379.6774982000006,379.6774982000006,379.6774982000006,379.6774982000006,379.6774982000006,379.6774982000006,379.6774982000006,,009,P007,2025_Feb_01_1039,ConditionRich,2021.2.3,59.92229277067504,
336.0,339.75,2,0.75,Stimuli/P007/sun_ajyzloqaptmicnfr.jpg,0,0,0.0,0,146,146,146,,,,,,,,,,,,,336.01498300000003,0.014983000000029278,None,379.9277193000007,379.9277193000007,379.9277193000007,379.9277193000007,379.9277193000007,379.9277193000007,379.9277193000007,379.9277193000007,379.9277193000007,379.9277193000007,,009,P007,2025_Feb_01_1039,ConditionRich,2021.2.3,59.92229277067504,
339.75,340.0,41,0.0,Stimuli/Blank.png,0,0,0.0,0,147,147,147,,,,,,,,,,,,,339.7655814999998,0.01558149999982561,None,383.66437010000027,383.66437010000027,383.66437010000027,383.66437010000027,383.66437010000027,383.66437010000027,383.66437010000027,383.66437010000027,383.66437010000027,383.66437010000027,,009,P007,2025_Feb_01_1039,ConditionRich,2021.2.3,59.92229277067504,
340.0,343.75,1,0.75,Stimuli/P007/sun_abrlrupzcrwpxqfc.jpg,0,0,0.0,0,148,148,148,,,,,,,,,,,,,339.99971520000054,-0.00028479999946284806,None,383.9145631000001,383.9145631000001,383.9145631000001,383.9145631000001,383.9145631000001,383.9145631000001,383.9145631000001,383.9145631000001,383.9145631000001,383.9145631000001,,009,P007,2025_Feb_01_1039,ConditionRich,2021.2.3,59.92229277067504,
343.75,344.0,41,0.0,Stimuli/Blank.png,0,0,0.0,0,149,149,149,,,,,,,,,,,,,343.7699448000003,0.019944800000303076,None,387.6679033999999,387.6679033999999,387.6679033999999,387.6679033999999,387.6679033999999,387.6679033999999,387.6679033999999,387.6679033999999,387.6679033999999,387.6679033999999,,009,P007,2025_Feb_01_1039,ConditionRich,2021.2.3,59.92229277067504,
344.0,347.75,23,0.75,Stimuli/P007/things_bumper_04s.jpg,0,0,0.0,0,150,150,150,,,,,,,,,,,,,344.00554790000024,0.00554790000023786,None,387.91812070000015,387.91812070000015,387.91812070000015,387.91812070000015,387.91812070000015,387.91812070000015,387.91812070000015,387.91812070000015,387.91812070000015,387.91812070000015,,009,P007,2025_Feb_01_1039,ConditionRich,2021.2.3,59.92229277067504,
347.75,348.0,41,0.0,Stimuli/Blank.png,0,0,0.0,0,151,151,151,,,,,,,,,,,,,347.7724533999999,0.022453399999903922,None,391.67144390000067,391.67144390000067,391.67144390000067,391.67144390000067,391.67144390000067,391.67144390000067,391.67144390000067,391.67144390000067,391.67144390000067,391.67144390000067,,009,P007,2025_Feb_01_1039,ConditionRich,2021.2.3,59.92229277067504,
348.0,351.75,36,0.75,Stimuli/P007/things_platypus_04s.jpg,0,0,0.0,0,152,152,152,,,,,,,,,,,,,348.0062671000005,0.006267100000513892,None,391.9049885000004,391.9049885000004,391.9049885000004,391.9049885000004,391.9049885000004,391.9049885000004,391.9049885000004,391.9049885000004,391.9049885000004,391.9049885000004,,009,P007,2025_Feb_01_1039,ConditionRich,2021.2.3,59.92229277067504,
351.75,352.0,41,0.0,Stimuli/Blank.png,0,0,0.0,0,153,153,153,,,,,,,,,,,,,351.7609259999999,0.010925999999926717,None,395.6750066000004,395.6750066000004,395.6750066000004,395.6750066000004,395.6750066000004,395.6750066000004,395.6750066000004,395.6750066000004,395.6750066000004,395.6750066000004,,009,P007,2025_Feb_01_1039,ConditionRich,2021.2.3,59.92229277067504,
352.0,355.75,21,0.75,Stimuli/P007/things_baby_04s.jpg,1,0,0.75,0,154,154,154,,,,,,,,,,,,,352.02652709999984,0.026527099999839265,None,395.9418850000002,395.9418850000002,395.9418850000002,395.9418850000002,395.9418850000002,395.9418850000002,395.9418850000002,396.6592172999999,395.9418850000002,395.9418850000002,,009,P007,2025_Feb_01_1039,ConditionRich,2021.2.3,59.92229277067504,
355.75,356.0,41,0.0,Stimuli/Blank.png,0,0,0.0,0,155,155,155,,,,,,,,,,,,,355.78105159999996,0.031051599999955215,None,399.67853430000014,399.67853430000014,399.67853430000014,399.67853430000014,399.67853430000014,399.67853430000014,399.67853430000014,399.67853430000014,399.67853430000014,399.67853430000014,,009,P007,2025_Feb_01_1039,ConditionRich,2021.2.3,59.92229277067504,
356.0,359.75,22,0.75,Stimuli/P007/things_boar_04s.jpg,0,0,0.0,0,156,156,156,,,,,,,,,,,,,356.01613180000004,0.01613180000003922,None,399.92874870000014,399.92874870000014,399.92874870000014,399.92874870000014,399.92874870000014,399.92874870000014,399.92874870000014,399.92874870000014,399.92874870000014,399.92874870000014,,009,P007,2025_Feb_01_1039,ConditionRich,2021.2.3,59.92229277067504,
359.75,360.0,41,0.0,Stimuli/Blank.png,0,0,0.0,0,157,157,157,,,,,,,,,,,,,359.7663480000001,0.016348000000107277,None,403.6653780000006,403.6653780000006,403.6653780000006,403.6653780000006,403.6653780000006,403.6653780000006,403.6653780000006,403.6653780000006,403.6653780000006,403.6653780000006,,009,P007,2025_Feb_01_1039,ConditionRich,2021.2.3,59.92229277067504,
360.0,363.75,24,0.75,Stimuli/P007/things_collar_04s.jpg,0,0,0.0,0,158,158,158,,,,,,,,,,,,,360.00012479999987,0.00012479999986680923,None,403.8989257000003,403.8989257000003,403.8989257000003,403.8989257000003,403.8989257000003,403.8989257000003,403.8989257000003,403.8989257000003,403.8989257000003,403.8989257000003,,009,P007,2025_Feb_01_1039,ConditionRich,2021.2.3,59.92229277067504,
363.75,364.0,41,0.0,Stimuli/Blank.png,0,0,0.0,0,159,159,159,,,,,,,,,,,,,363.75415070000054,0.0041507000005367445,None,407.65223289999994,407.65223289999994,407.65223289999994,407.65223289999994,407.65223289999994,407.65223289999994,407.65223289999994,407.65223289999994,407.65223289999994,407.65223289999994,,009,P007,2025_Feb_01_1039,ConditionRich,2021.2.3,59.92229277067504,
364.0,367.75,19,0.75,Stimuli/P007/sun_brpfgrmubnnjvfkw.jpg,1,2,2.75,0,160,160,160,,,,,,,,,,,,,364.00414700000056,0.004147000000557455,2,407.91918950000036,407.91918950000036,407.91918950000036,407.91918950000036,407.91918950000036,407.91918950000036,409.88754599999993,410.6382072000006,407.91918950000036,407.91918950000036,2.438393399999768,009,P007,2025_Feb_01_1039,ConditionRich,2021.2.3,59.92229277067504,
367.75,368.0,41,0.0,Stimuli/Blank.png,0,0,0.0,0,161,161,161,,,,,,,,,,,,,367.77429250000023,0.024292500000228756,None,411.67246909999994,411.67246909999994,411.67246909999994,411.67246909999994,411.67246909999994,411.67246909999994,411.67246909999994,411.67246909999994,411.67246909999994,411.67246909999994,,009,P007,2025_Feb_01_1039,ConditionRich,2021.2.3,59.92229277067504,
368.0,371.75,39,0.75,Stimuli/P007/things_showerhead_04s.jpg,0,0,0.0,0,162,162,162,,,,,,,,,,,,,368.0071460999998,0.007146099999772559,None,411.9226855000006,411.9226855000006,411.9226855000006,411.9226855000006,411.9226855000006,411.9226855000006,411.9226855000006,411.9226855000006,411.9226855000006,411.9226855000006,,009,P007,2025_Feb_01_1039,ConditionRich,2021.2.3,59.92229277067504,
371.75,372.0,41,0.0,Stimuli/Blank.png,0,0,0.0,0,163,163,163,,,,,,,,,,,,,371.7770021000006,0.027002100000572682,None,415.6760066000006,415.6760066000006,415.6760066000006,415.6760066000006,415.6760066000006,415.6760066000006,415.6760066000006,415.6760066000006,415.6760066000006,415.6760066000006,,009,P007,2025_Feb_01_1039,ConditionRich,2021.2.3,59.92229277067504,
372.0,388.0,0,0.0,Stimuli/Blank.png,1,2,2.75,0,164,164,164,,,,,,,,,,,,,372.01065050000034,0.01065050000033807,2,415.9095513000002,415.9095513000002,415.9095513000002,415.9095513000002,415.9095513000002,415.9095513000002,417.8946775000004,418.64533050000045,415.9095513000002,415.9095513000002,2.2898331000005783,009,P007,2025_Feb_01_1039,ConditionRich,2021.2.3,59.92229277067504,
