eventStartTime,eventEndTime,eventCond,imSize,imFile,responseEvent,fixRespStart,fixRespEnd,Events.thisRepN,Events.thisTrialN,Events.thisN,Events.thisIndex,Instructions.started,Instructions.stopped,participantReadyResponse.keys,participantReadyResponse.rt,participantReadyResponse.started,participantReadyResponse.stopped,startWaitforTrigger,triggerResponse.keys,triggerResponse.rt,triggerResponse.started,triggerResponse.stopped,globalTimer,actualStartTime,startTimingDiff,participantResponse.keys,participantResponse.started,participantResponse.stopped,image.started,image.stopped,fixationOutside.started,fixationOutside.stopped,fixationResponse.started,fixationResponse.stopped,fixationInside.started,fixationInside.stopped,participantResponse.rt,session,participant,date,expName,psychopyVersion,frameRate,
,,,,,,,,,,,,11.376715800000056,None,2,17.27949080000053,11.376715800000056,None,,,,,,,,,,,,,,,,,,,,,007,P007,2025_Feb_01_1024,ConditionRich,2021.2.3,59.93058839259402,
,,,,,,,,,,,,,,,,,,28.674818399999822,5,14.146369400000367,28.687833399999363,None,,,,,,,,,,,,,,,,007,P007,2025_Feb_01_1024,ConditionRich,2021.2.3,59.93058839259402,
0.0,4.0,0,0.0,Stimuli/Blank.png,0,0.0,0.0,0,0,0,0,,,,,,,,,,,,42.83731429999989,0.03233190000082686,0.03233190000082686,None,42.88373950000005,None,42.88373950000005,None,42.88373950000005,None,42.88373950000005,42.88373950000005,42.88373950000005,None,,007,P007,2025_Feb_01_1024,ConditionRich,2021.2.3,59.93058839259402,
4.0,4.75,36,0.75,Stimuli/P007/things_platypus_04s.jpg,0,0.0,0.0,0,1,1,1,,,,,,,,,,,,,4.003821100000096,0.003821100000095612,None,46.87086939999972,46.87086939999972,46.87086939999972,46.87086939999972,46.87086939999972,46.87086939999972,46.87086939999972,46.87086939999972,46.87086939999972,46.87086939999972,,007,P007,2025_Feb_01_1024,ConditionRich,2021.2.3,59.93058839259402,
4.75,8.0,41,0.0,Stimuli/Blank.png,0,0.0,0.0,0,2,2,2,,,,,,,,,,,,,4.769952500000727,0.019952500000727014,None,47.62153899999976,47.62153899999976,47.62153899999976,47.62153899999976,47.62153899999976,47.62153899999976,47.62153899999976,47.62153899999976,47.62153899999976,47.62153899999976,,007,P007,2025_Feb_01_1024,ConditionRich,2021.2.3,59.93058839259402,
8.0,8.75,23,0.75,Stimuli/P007/things_bumper_04s.jpg,0,0.0,0.0,0,3,3,3,,,,,,,,,,,,,8.005797000000712,0.005797000000711705,None,50.85745399999996,50.85745399999996,50.85745399999996,50.85745399999996,50.85745399999996,50.85745399999996,50.85745399999996,50.85745399999996,50.85745399999996,50.85745399999996,,007,P007,2025_Feb_01_1024,ConditionRich,2021.2.3,59.93058839259402,
8.75,12.0,41,0.0,Stimuli/Blank.png,1,0.25,1.0,0,4,4,4,,,,,,,,,,,,,8.756870500000332,0.006870500000331958,2,51.60811569999987,51.60811569999987,51.60811569999987,51.60811569999987,51.60811569999987,51.60811569999987,51.841691899999205,52.59236839999994,51.60811569999987,51.60811569999987,0.6331872000000658,007,P007,2025_Feb_01_1024,ConditionRich,2021.2.3,59.93058839259402,
12.0,12.75,4,0.75,Stimuli/P007/sun_awqukazlzsxaokai.jpg,0,0.0,0.0,0,5,5,5,,,,,,,,,,,,,12.010617700000694,0.01061770000069373,None,54.86098779999975,54.86098779999975,54.86098779999975,54.86098779999975,54.86098779999975,54.86098779999975,54.86098779999975,54.86098779999975,54.86098779999975,54.86098779999975,,007,P007,2025_Feb_01_1024,ConditionRich,2021.2.3,59.93058839259402,
12.75,16.0,41,0.0,Stimuli/Blank.png,1,0.25,1.0,0,6,6,6,,,,,,,,,,,,,12.760496500000045,0.010496500000044762,2,55.61164949999966,55.61164949999966,55.61164949999966,55.61164949999966,55.61164949999966,55.61164949999966,55.84520479999992,56.59585169999991,55.61164949999966,55.61164949999966,0.625531100000444,007,P007,2025_Feb_01_1024,ConditionRich,2021.2.3,59.93058839259402,
16.0,16.75,1,0.75,Stimuli/P007/sun_abrlrupzcrwpxqfc.jpg,0,0.0,0.0,0,7,7,7,,,,,,,,,,,,,16.014773600000808,0.014773600000808074,None,58.881315699999504,58.881315699999504,58.881315699999504,58.881315699999504,58.881315699999504,58.881315699999504,58.881315699999504,58.881315699999504,58.881315699999504,58.881315699999504,,007,P007,2025_Feb_01_1024,ConditionRich,2021.2.3,59.93058839259402,
16.75,20.0,41,0.0,Stimuli/Blank.png,0,0.0,0.0,0,8,8,8,,,,,,,,,,,,,16.780148300000292,0.030148300000291783,None,59.63187409999955,59.63187409999955,59.63187409999955,59.63187409999955,59.63187409999955,59.63187409999955,59.63187409999955,59.63187409999955,59.63187409999955,59.63187409999955,,007,P007,2025_Feb_01_1024,ConditionRich,2021.2.3,59.93058839259402,
20.0,20.75,5,0.75,Stimuli/P007/sun_ayzkwnqsoiycbncn.jpg,0,0.0,0.0,0,9,9,9,,,,,,,,,,,,,20.00014270000065,0.00014270000065153,None,62.85137699999996,62.85137699999996,62.85137699999996,62.85137699999996,62.85137699999996,62.85137699999996,62.85137699999996,62.85137699999996,62.85137699999996,62.85137699999996,,007,P007,2025_Feb_01_1024,ConditionRich,2021.2.3,59.93058839259402,
20.75,24.0,41,0.0,Stimuli/Blank.png,0,0.0,0.0,0,10,10,10,,,,,,,,,,,,,20.751016100000015,0.0010161000000152853,None,63.60205909999968,63.60205909999968,63.60205909999968,63.60205909999968,63.60205909999968,63.60205909999968,63.60205909999968,63.60205909999968,63.60205909999968,63.60205909999968,,007,P007,2025_Feb_01_1024,ConditionRich,2021.2.3,59.93058839259402,
24.0,24.75,39,0.75,Stimuli/P007/things_showerhead_04s.jpg,0,0.0,0.0,0,11,11,11,,,,,,,,,,,,,24.006116100000327,0.006116100000326696,None,66.87160459999996,66.87160459999996,66.87160459999996,66.87160459999996,66.87160459999996,66.87160459999996,66.87160459999996,66.87160459999996,66.87160459999996,66.87160459999996,,007,P007,2025_Feb_01_1024,ConditionRich,2021.2.3,59.93058839259402,
24.75,28.0,41,0.0,Stimuli/Blank.png,0,0.0,0.0,0,12,12,12,,,,,,,,,,,,,24.770314600000347,0.020314600000347127,None,67.62226979999923,67.62226979999923,67.62226979999923,67.62226979999923,67.62226979999923,67.62226979999923,67.62226979999923,67.62226979999923,67.62226979999923,67.62226979999923,,007,P007,2025_Feb_01_1024,ConditionRich,2021.2.3,59.93058839259402,
28.0,28.75,16,0.75,Stimuli/P007/sun_bnpggenxuowzsywq.jpg,0,0.0,0.0,0,13,13,13,,,,,,,,,,,,,28.00652750000063,0.006527500000629516,None,70.8584622999997,70.8584622999997,70.8584622999997,70.8584622999997,70.8584622999997,70.8584622999997,70.8584622999997,70.8584622999997,70.8584622999997,70.8584622999997,,007,P007,2025_Feb_01_1024,ConditionRich,2021.2.3,59.93058839259402,
28.75,32.0,41,0.0,Stimuli/Blank.png,0,0.0,0.0,0,14,14,14,,,,,,,,,,,,,28.759298000000854,0.00929800000085379,None,71.62581409999984,71.62581409999984,71.62581409999984,71.62581409999984,71.62581409999984,71.62581409999984,71.62581409999984,71.62581409999984,71.62581409999984,71.62581409999984,,007,P007,2025_Feb_01_1024,ConditionRich,2021.2.3,59.93058839259402,
32.0,32.75,28,0.75,Stimuli/P007/things_girl_04s.jpg,0,0.0,0.0,0,15,15,15,,,,,,,,,,,,,32.02718960000038,0.027189600000383507,None,74.89537689999997,74.89537689999997,74.89537689999997,74.89537689999997,74.89537689999997,74.89537689999997,74.89537689999997,74.89537689999997,74.89537689999997,74.89537689999997,,007,P007,2025_Feb_01_1024,ConditionRich,2021.2.3,59.93058839259402,
32.75,36.0,41,0.0,Stimuli/Blank.png,0,0.0,0.0,0,16,16,16,,,,,,,,,,,,,32.77954910000062,0.029549100000622275,None,75.64604529999997,75.64604529999997,75.64604529999997,75.64604529999997,75.64604529999997,75.64604529999997,75.64604529999997,75.64604529999997,75.64604529999997,75.64604529999997,,007,P007,2025_Feb_01_1024,ConditionRich,2021.2.3,59.93058839259402,
36.0,36.75,11,0.75,Stimuli/P007/sun_bdsriuscubkvzrmt.jpg,0,0.0,0.0,0,17,17,17,,,,,,,,,,,,,36.013622500000565,0.013622500000565196,None,78.86554679999972,78.86554679999972,78.86554679999972,78.86554679999972,78.86554679999972,78.86554679999972,78.86554679999972,78.86554679999972,78.86554679999972,78.86554679999972,,007,P007,2025_Feb_01_1024,ConditionRich,2021.2.3,59.93058839259402,
36.75,40.0,41,0.0,Stimuli/Blank.png,0,0.0,0.0,0,18,18,18,,,,,,,,,,,,,36.76496600000064,0.014966000000640634,None,79.61622079999961,79.61622079999961,79.61622079999961,79.61622079999961,79.61622079999961,79.61622079999961,79.61622079999961,79.61622079999961,79.61622079999961,79.61622079999961,,007,P007,2025_Feb_01_1024,ConditionRich,2021.2.3,59.93058839259402,
40.0,40.75,29,0.75,Stimuli/P007/things_hawk_04s.jpg,0,0.0,0.0,0,19,19,19,,,,,,,,,,,,,40.00045560000035,0.00045560000035038684,None,82.85241059999953,82.85241059999953,82.85241059999953,82.85241059999953,82.85241059999953,82.85241059999953,82.85241059999953,82.85241059999953,82.85241059999953,82.85241059999953,,007,P007,2025_Feb_01_1024,ConditionRich,2021.2.3,59.93058839259402,
40.75,44.0,41,0.0,Stimuli/Blank.png,0,0.0,0.0,0,20,20,20,,,,,,,,,,,,,40.751226000000315,0.0012260000003152527,None,83.60307549999925,83.60307549999925,83.60307549999925,83.60307549999925,83.60307549999925,83.60307549999925,83.60307549999925,83.60307549999925,83.60307549999925,83.60307549999925,,007,P007,2025_Feb_01_1024,ConditionRich,2021.2.3,59.93058839259402,
44.0,44.75,25,0.75,Stimuli/P007/things_credit_card_04s.jpg,0,0.0,0.0,0,21,21,21,,,,,,,,,,,,,44.005108700000164,0.00510870000016439,None,86.87263189999976,86.87263189999976,86.87263189999976,86.87263189999976,86.87263189999976,86.87263189999976,86.87263189999976,86.87263189999976,86.87263189999976,86.87263189999976,,007,P007,2025_Feb_01_1024,ConditionRich,2021.2.3,59.93058839259402,
44.75,48.0,41,0.0,Stimuli/Blank.png,0,0.0,0.0,0,22,22,22,,,,,,,,,,,,,44.77427140000054,0.024271400000543508,None,87.63998759999959,87.63998759999959,87.63998759999959,87.63998759999959,87.63998759999959,87.63998759999959,87.63998759999959,87.63998759999959,87.63998759999959,87.63998759999959,,007,P007,2025_Feb_01_1024,ConditionRich,2021.2.3,59.93058839259402,
48.0,48.75,21,0.75,Stimuli/P007/things_baby_04s.jpg,0,0.0,0.0,0,23,23,23,,,,,,,,,,,,,48.02425790000052,0.02425790000052075,None,90.87616889999936,90.87616889999936,90.87616889999936,90.87616889999936,90.87616889999936,90.87616889999936,90.87616889999936,90.87616889999936,90.87616889999936,90.87616889999936,,007,P007,2025_Feb_01_1024,ConditionRich,2021.2.3,59.93058839259402,
48.75,52.0,41,0.0,Stimuli/Blank.png,0,0.0,0.0,0,24,24,24,,,,,,,,,,,,,48.75883630000044,0.008836300000439223,None,91.61015629999929,91.61015629999929,91.61015629999929,91.61015629999929,91.61015629999929,91.61015629999929,91.61015629999929,91.61015629999929,91.61015629999929,91.61015629999929,,007,P007,2025_Feb_01_1024,ConditionRich,2021.2.3,59.93058839259402,
52.0,52.75,40,0.75,Stimuli/P007/things_woman_04s.jpg,0,0.0,0.0,0,25,25,25,,,,,,,,,,,,,52.011770300000535,0.011770300000534917,None,94.86306809999951,94.86306809999951,94.86306809999951,94.86306809999951,94.86306809999951,94.86306809999951,94.86306809999951,94.86306809999951,94.86306809999951,94.86306809999951,,007,P007,2025_Feb_01_1024,ConditionRich,2021.2.3,59.93058839259402,
52.75,56.0,41,0.0,Stimuli/Blank.png,1,2.25,3.0,0,26,26,26,,,,,,,,,,,,,52.76178190000064,0.011781900000642054,2,95.61369859999922,95.61369859999922,95.61369859999922,95.61369859999922,95.61369859999922,95.61369859999922,97.8490439999996,98.59969929999988,95.61369859999922,95.61369859999922,2.7396257000000332,007,P007,2025_Feb_01_1024,ConditionRich,2021.2.3,59.93058839259402,
56.0,56.75,35,0.75,Stimuli/P007/things_pecan_04s.jpg,0,0.0,0.0,0,27,27,27,,,,,,,,,,,,,56.01483120000012,0.01483120000011695,None,98.86657359999936,98.86657359999936,98.86657359999936,98.86657359999936,98.86657359999936,98.86657359999936,98.86657359999936,98.86657359999936,98.86657359999936,98.86657359999936,,007,P007,2025_Feb_01_1024,ConditionRich,2021.2.3,59.93058839259402,
56.75,60.0,41,0.0,Stimuli/Blank.png,1,1.25,2.0,0,28,28,28,,,,,,,,,,,,,56.76541240000006,0.015412400000059279,2,99.61723379999967,99.61723379999967,99.61723379999967,99.61723379999967,99.61723379999967,99.61723379999967,100.85165639999923,101.60232619999988,99.61723379999967,99.61723379999967,1.6680759999999282,007,P007,2025_Feb_01_1024,ConditionRich,2021.2.3,59.93058839259402,
60.0,60.75,12,0.75,Stimuli/P007/sun_bitpmyvulluuasab.jpg,0,0.0,0.0,0,29,29,29,,,,,,,,,,,,,60.002233800000795,0.002233800000794872,None,102.87011899999925,102.87011899999925,102.87011899999925,102.87011899999925,102.87011899999925,102.87011899999925,102.87011899999925,102.87011899999925,102.87011899999925,102.87011899999925,,007,P007,2025_Feb_01_1024,ConditionRich,2021.2.3,59.93058839259402,
60.75,64.0,41,0.0,Stimuli/Blank.png,0,0.0,0.0,0,30,30,30,,,,,,,,,,,,,60.77035500000056,0.02035500000056345,None,103.62078279999969,103.62078279999969,103.62078279999969,103.62078279999969,103.62078279999969,103.62078279999969,103.62078279999969,103.62078279999969,103.62078279999969,103.62078279999969,,007,P007,2025_Feb_01_1024,ConditionRich,2021.2.3,59.93058839259402,
64.0,64.75,15,0.75,Stimuli/P007/sun_bmeductqpfkygtww.jpg,0,0.0,0.0,0,31,31,31,,,,,,,,,,,,,64.00523890000022,0.005238900000222202,None,106.85698159999993,106.85698159999993,106.85698159999993,106.85698159999993,106.85698159999993,106.85698159999993,106.85698159999993,106.85698159999993,106.85698159999993,106.85698159999993,,007,P007,2025_Feb_01_1024,ConditionRich,2021.2.3,59.93058839259402,
64.75,68.0,41,0.0,Stimuli/Blank.png,0,0.0,0.0,0,32,32,32,,,,,,,,,,,,,64.75568730000032,0.005687300000317919,None,107.60763349999979,107.60763349999979,107.60763349999979,107.60763349999979,107.60763349999979,107.60763349999979,107.60763349999979,107.60763349999979,107.60763349999979,107.60763349999979,,007,P007,2025_Feb_01_1024,ConditionRich,2021.2.3,59.93058839259402,
68.0,68.75,2,0.75,Stimuli/P007/sun_ajyzloqaptmicnfr.jpg,0,0.0,0.0,0,33,33,33,,,,,,,,,,,,,68.00879610000084,0.008796100000836304,None,110.86051259999931,110.86051259999931,110.86051259999931,110.86051259999931,110.86051259999931,110.86051259999931,110.86051259999931,110.86051259999931,110.86051259999931,110.86051259999931,,007,P007,2025_Feb_01_1024,ConditionRich,2021.2.3,59.93058839259402,
68.75,72.0,41,0.0,Stimuli/Blank.png,0,0.0,0.0,0,34,34,34,,,,,,,,,,,,,68.76023670000086,0.010236700000859855,None,111.61118389999956,111.61118389999956,111.61118389999956,111.61118389999956,111.61118389999956,111.61118389999956,111.61118389999956,111.61118389999956,111.61118389999956,111.61118389999956,,007,P007,2025_Feb_01_1024,ConditionRich,2021.2.3,59.93058839259402,
72.0,72.75,27,0.75,Stimuli/P007/things_fur_coat_04s.jpg,0,0.0,0.0,0,35,35,35,,,,,,,,,,,,,72.01550580000003,0.015505800000028103,None,114.88077209999938,114.88077209999938,114.88077209999938,114.88077209999938,114.88077209999938,114.88077209999938,114.88077209999938,114.88077209999938,114.88077209999938,114.88077209999938,,007,P007,2025_Feb_01_1024,ConditionRich,2021.2.3,59.93058839259402,
72.75,76.0,41,0.0,Stimuli/Blank.png,0,0.0,0.0,0,36,36,36,,,,,,,,,,,,,72.76382080000076,0.013820800000758027,None,115.61473019999994,115.61473019999994,115.61473019999994,115.61473019999994,115.61473019999994,115.61473019999994,115.61473019999994,115.61473019999994,115.61473019999994,115.61473019999994,,007,P007,2025_Feb_01_1024,ConditionRich,2021.2.3,59.93058839259402,
76.0,76.75,10,0.75,Stimuli/P007/sun_bdekcgnlcicvgpvq.jpg,0,0.0,0.0,0,37,37,37,,,,,,,,,,,,,76.00013310000031,0.00013310000031196978,None,118.85087870000007,118.85087870000007,118.85087870000007,118.85087870000007,118.85087870000007,118.85087870000007,118.85087870000007,118.85087870000007,118.85087870000007,118.85087870000007,,007,P007,2025_Feb_01_1024,ConditionRich,2021.2.3,59.93058839259402,
76.75,80.0,41,0.0,Stimuli/Blank.png,0,0.0,0.0,0,38,38,38,,,,,,,,,,,,,76.7510082000008,0.0010082000007969327,None,119.61828419999983,119.61828419999983,119.61828419999983,119.61828419999983,119.61828419999983,119.61828419999983,119.61828419999983,119.61828419999983,119.61828419999983,119.61828419999983,,007,P007,2025_Feb_01_1024,ConditionRich,2021.2.3,59.93058839259402,
80.0,80.75,38,0.75,Stimuli/P007/things_rollerblade_04s.jpg,0,0.0,0.0,0,39,39,39,,,,,,,,,,,,,80.01920420000079,0.01920420000078593,None,122.87113210000007,122.87113210000007,122.87113210000007,122.87113210000007,122.87113210000007,122.87113210000007,122.87113210000007,122.87113210000007,122.87113210000007,122.87113210000007,,007,P007,2025_Feb_01_1024,ConditionRich,2021.2.3,59.93058839259402,
80.75,84.0,41,0.0,Stimuli/Blank.png,1,0.25,1.0,0,40,40,40,,,,,,,,,,,,,80.75392100000045,0.003921000000445929,2,123.60512709999966,123.60512709999966,123.60512709999966,123.60512709999966,123.60512709999966,123.60512709999966,123.83870519999982,124.58935269999984,123.60512709999966,123.60512709999966,0.593084799999815,007,P007,2025_Feb_01_1024,ConditionRich,2021.2.3,59.93058839259402,
84.0,100.0,0,0.0,Stimuli/Blank.png,1,8.0,8.75,0,41,41,41,,,,,,,,,,,,,84.00649910000084,0.006499100000837643,2,126.85797459999958,126.85797459999958,126.85797459999958,126.85797459999958,126.85797459999958,126.85797459999958,134.8483916999994,135.59906580000006,126.85797459999958,126.85797459999958,8.321372700000211,007,P007,2025_Feb_01_1024,ConditionRich,2021.2.3,59.93058839259402,
100.0,100.75,20,0.75,Stimuli/P007/sun_btrxtfbwtggtrpfv.jpg,0,0.0,0.0,0,42,42,42,,,,,,,,,,,,,100.00401630000033,0.004016300000330375,None,142.85547939999924,142.85547939999924,142.85547939999924,142.85547939999924,142.85547939999924,142.85547939999924,142.85547939999924,142.85547939999924,142.85547939999924,142.85547939999924,,007,P007,2025_Feb_01_1024,ConditionRich,2021.2.3,59.93058839259402,
100.75,104.0,41,0.0,Stimuli/Blank.png,0,0.0,0.0,0,43,43,43,,,,,,,,,,,,,100.75501110000005,0.0050111000000470085,None,143.6061598999995,143.6061598999995,143.6061598999995,143.6061598999995,143.6061598999995,143.6061598999995,143.6061598999995,143.6061598999995,143.6061598999995,143.6061598999995,,007,P007,2025_Feb_01_1024,ConditionRich,2021.2.3,59.93058839259402,
104.0,104.75,32,0.75,Stimuli/P007/things_maggot_04s.jpg,0,0.0,0.0,0,44,44,44,,,,,,,,,,,,,104.00809390000086,0.008093900000858412,None,146.87569789999998,146.87569789999998,146.87569789999998,146.87569789999998,146.87569789999998,146.87569789999998,146.87569789999998,146.87569789999998,146.87569789999998,146.87569789999998,,007,P007,2025_Feb_01_1024,ConditionRich,2021.2.3,59.93058839259402,
104.75,108.0,41,0.0,Stimuli/Blank.png,1,0.25,1.0,0,45,45,45,,,,,,,,,,,,,104.77491390000068,0.024913900000683498,2,147.6263724999999,147.6263724999999,147.6263724999999,147.6263724999999,147.6263724999999,147.6263724999999,147.8599291999999,148.61057339999934,147.6263724999999,147.6263724999999,0.870976499999415,007,P007,2025_Feb_01_1024,ConditionRich,2021.2.3,59.93058839259402,
108.0,108.75,17,0.75,Stimuli/P007/sun_bnsxdhbsafbdyncy.jpg,0,0.0,0.0,0,46,46,46,,,,,,,,,,,,,108.01090360000035,0.010903600000347069,None,150.86256400000002,150.86256400000002,150.86256400000002,150.86256400000002,150.86256400000002,150.86256400000002,150.86256400000002,150.86256400000002,150.86256400000002,150.86256400000002,,007,P007,2025_Feb_01_1024,ConditionRich,2021.2.3,59.93058839259402,
108.75,112.0,41,0.0,Stimuli/Blank.png,0,0.0,0.0,0,47,47,47,,,,,,,,,,,,,108.76137840000047,0.011378400000467082,None,151.6132190999997,151.6132190999997,151.6132190999997,151.6132190999997,151.6132190999997,151.6132190999997,151.6132190999997,151.6132190999997,151.6132190999997,151.6132190999997,,007,P007,2025_Feb_01_1024,ConditionRich,2021.2.3,59.93058839259402,
112.0,112.75,33,0.75,Stimuli/P007/things_man_04s.jpg,0,0.0,0.0,0,48,48,48,,,,,,,,,,,,,112.01501050000024,0.015010500000244065,None,154.8661014999998,154.8661014999998,154.8661014999998,154.8661014999998,154.8661014999998,154.8661014999998,154.8661014999998,154.8661014999998,154.8661014999998,154.8661014999998,,007,P007,2025_Feb_01_1024,ConditionRich,2021.2.3,59.93058839259402,
112.75,116.0,41,0.0,Stimuli/Blank.png,1,1.25,2.0,0,49,49,49,,,,,,,,,,,,,112.7488314000002,-0.00116859999980079,2,155.60009289999925,155.60009289999925,155.60009289999925,155.60009289999925,155.60009289999925,155.60009289999925,156.8345363999997,157.58517200000006,155.60009289999925,155.60009289999925,1.6232376999996632,007,P007,2025_Feb_01_1024,ConditionRich,2021.2.3,59.93058839259402,
116.0,116.75,19,0.75,Stimuli/P007/sun_brpfgrmubnnjvfkw.jpg,0,0.0,0.0,0,50,50,50,,,,,,,,,,,,,116.00221360000069,0.0022136000006867107,None,158.85298409999996,158.85298409999996,158.85298409999996,158.85298409999996,158.85298409999996,158.85298409999996,158.85298409999996,158.85298409999996,158.85298409999996,158.85298409999996,,007,P007,2025_Feb_01_1024,ConditionRich,2021.2.3,59.93058839259402,
116.75,120.0,41,0.0,Stimuli/Blank.png,0,0.0,0.0,0,51,51,51,,,,,,,,,,,,,116.75176330000068,0.0017633000006753718,None,159.60363199999938,159.60363199999938,159.60363199999938,159.60363199999938,159.60363199999938,159.60363199999938,159.60363199999938,159.60363199999938,159.60363199999938,159.60363199999938,,007,P007,2025_Feb_01_1024,ConditionRich,2021.2.3,59.93058839259402,
120.0,120.75,26,0.75,Stimuli/P007/things_face_04s.jpg,0,0.0,0.0,0,52,52,52,,,,,,,,,,,,,120.00612690000071,0.0061269000007087016,None,162.87315349999972,162.87315349999972,162.87315349999972,162.87315349999972,162.87315349999972,162.87315349999972,162.87315349999972,162.87315349999972,162.87315349999972,162.87315349999972,,007,P007,2025_Feb_01_1024,ConditionRich,2021.2.3,59.93058839259402,
120.75,124.0,41,0.0,Stimuli/Blank.png,0,0.0,0.0,0,53,53,53,,,,,,,,,,,,,120.77311230000032,0.02311230000032083,None,163.62387639999997,163.62387639999997,163.62387639999997,163.62387639999997,163.62387639999997,163.62387639999997,163.62387639999997,163.62387639999997,163.62387639999997,163.62387639999997,,007,P007,2025_Feb_01_1024,ConditionRich,2021.2.3,59.93058839259402,
124.0,124.75,31,0.75,Stimuli/P007/things_jug_04s.jpg,1,0.0,0.75,0,54,54,54,,,,,,,,,,,,,124.00882750000073,0.00882750000073429,2,166.87671649999993,166.87671649999993,166.87671649999993,166.87671649999993,166.87671649999993,166.87671649999993,166.87671649999993,167.59414789999937,166.87671649999993,166.87671649999993,0.5577510000002803,007,P007,2025_Feb_01_1024,ConditionRich,2021.2.3,59.93058839259402,
124.75,128.0,41,0.0,Stimuli/Blank.png,0,0.0,0.0,0,55,55,55,,,,,,,,,,,,,124.7755958000007,0.025595800000701274,None,167.62747109999964,167.62747109999964,167.62747109999964,167.62747109999964,167.62747109999964,167.62747109999964,167.62747109999964,167.62747109999964,167.62747109999964,167.62747109999964,,007,P007,2025_Feb_01_1024,ConditionRich,2021.2.3,59.93058839259402,
128.0,128.75,22,0.75,Stimuli/P007/things_boar_04s.jpg,0,0.0,0.0,0,56,56,56,,,,,,,,,,,,,128.01300490000085,0.013004900000851194,None,170.8802640999993,170.8802640999993,170.8802640999993,170.8802640999993,170.8802640999993,170.8802640999993,170.8802640999993,170.8802640999993,170.8802640999993,170.8802640999993,,007,P007,2025_Feb_01_1024,ConditionRich,2021.2.3,59.93058839259402,
128.75,132.0,41,0.0,Stimuli/Blank.png,0,0.0,0.0,0,57,57,57,,,,,,,,,,,,,128.77941160000046,0.029411600000457838,None,171.63091409999925,171.63091409999925,171.63091409999925,171.63091409999925,171.63091409999925,171.63091409999925,171.63091409999925,171.63091409999925,171.63091409999925,171.63091409999925,,007,P007,2025_Feb_01_1024,ConditionRich,2021.2.3,59.93058839259402,
132.0,132.75,14,0.75,Stimuli/P007/sun_bkvjqgmploznrhxt.jpg,0,0.0,0.0,0,58,58,58,,,,,,,,,,,,,132.01619240000036,0.016192400000363705,None,174.86712499999976,174.86712499999976,174.86712499999976,174.86712499999976,174.86712499999976,174.86712499999976,174.86712499999976,174.86712499999976,174.86712499999976,174.86712499999976,,007,P007,2025_Feb_01_1024,ConditionRich,2021.2.3,59.93058839259402,
132.75,136.0,41,0.0,Stimuli/Blank.png,0,0.0,0.0,0,59,59,59,,,,,,,,,,,,,132.7498129000005,-0.00018709999949351186,None,175.60112169999957,175.60112169999957,175.60112169999957,175.60112169999957,175.60112169999957,175.60112169999957,175.60112169999957,175.60112169999957,175.60112169999957,175.60112169999957,,007,P007,2025_Feb_01_1024,ConditionRich,2021.2.3,59.93058839259402,
136.0,136.75,24,0.75,Stimuli/P007/things_collar_04s.jpg,0,0.0,0.0,0,60,60,60,,,,,,,,,,,,,136.00512640000034,0.005126400000335707,None,178.8706390999996,178.8706390999996,178.8706390999996,178.8706390999996,178.8706390999996,178.8706390999996,178.8706390999996,178.8706390999996,178.8706390999996,178.8706390999996,,007,P007,2025_Feb_01_1024,ConditionRich,2021.2.3,59.93058839259402,
136.75,140.0,41,0.0,Stimuli/Blank.png,0,0.0,0.0,0,61,61,61,,,,,,,,,,,,,136.77007570000023,0.020075700000234065,None,179.62132519999977,179.62132519999977,179.62132519999977,179.62132519999977,179.62132519999977,179.62132519999977,179.62132519999977,179.62132519999977,179.62132519999977,179.62132519999977,,007,P007,2025_Feb_01_1024,ConditionRich,2021.2.3,59.93058839259402,
140.0,140.75,34,0.75,Stimuli/P007/things_moose_04s.jpg,0,0.0,0.0,0,62,62,62,,,,,,,,,,,,,140.00604320000002,0.006043200000021898,None,182.85749699999997,182.85749699999997,182.85749699999997,182.85749699999997,182.85749699999997,182.85749699999997,182.85749699999997,182.85749699999997,182.85749699999997,182.85749699999997,,007,P007,2025_Feb_01_1024,ConditionRich,2021.2.3,59.93058839259402,
140.75,144.0,41,0.0,Stimuli/Blank.png,1,1.25,2.0,0,63,63,63,,,,,,,,,,,,,140.7562321000005,0.006232100000488572,2,183.60818689999996,183.60818689999996,183.60818689999996,183.60818689999996,183.60818689999996,183.60818689999996,184.84265119999964,185.59327309999935,183.60818689999996,183.60818689999996,1.6682240000000093,007,P007,2025_Feb_01_1024,ConditionRich,2021.2.3,59.93058839259402,
144.0,144.75,18,0.75,Stimuli/P007/sun_borgfidyubrwsuuw.jpg,0,0.0,0.0,0,64,64,64,,,,,,,,,,,,,144.01029020000078,0.010290200000781624,None,186.8777698999993,186.8777698999993,186.8777698999993,186.8777698999993,186.8777698999993,186.8777698999993,186.8777698999993,186.8777698999993,186.8777698999993,186.8777698999993,,007,P007,2025_Feb_01_1024,ConditionRich,2021.2.3,59.93058839259402,
144.75,148.0,41,0.0,Stimuli/Blank.png,0,0.0,0.0,0,65,65,65,,,,,,,,,,,,,144.77936350000073,0.029363500000727072,None,187.64510869999958,187.64510869999958,187.64510869999958,187.64510869999958,187.64510869999958,187.64510869999958,187.64510869999958,187.64510869999958,187.64510869999958,187.64510869999958,,007,P007,2025_Feb_01_1024,ConditionRich,2021.2.3,59.93058839259402,
148.0,148.75,7,0.75,Stimuli/P007/sun_babhwrqvnhanonuy.jpg,0,0.0,0.0,0,66,66,66,,,,,,,,,,,,,148.02936520000003,0.02936520000002929,None,190.88128619999952,190.88128619999952,190.88128619999952,190.88128619999952,190.88128619999952,190.88128619999952,190.88128619999952,190.88128619999952,190.88128619999952,190.88128619999952,,007,P007,2025_Feb_01_1024,ConditionRich,2021.2.3,59.93058839259402,
148.75,152.0,41,0.0,Stimuli/Blank.png,0,0.0,0.0,0,67,67,67,,,,,,,,,,,,,148.76431550000052,0.014315500000520842,None,191.61527289999958,191.61527289999958,191.61527289999958,191.61527289999958,191.61527289999958,191.61527289999958,191.61527289999958,191.61527289999958,191.61527289999958,191.61527289999958,,007,P007,2025_Feb_01_1024,ConditionRich,2021.2.3,59.93058839259402,
152.0,152.75,6,0.75,Stimuli/P007/sun_azpjjfwsbjdjcopb.jpg,0,0.0,0.0,0,68,68,68,,,,,,,,,,,,,151.99971090000054,-0.0002890999994633603,None,194.85144330000003,194.85144330000003,194.85144330000003,194.85144330000003,194.85144330000003,194.85144330000003,194.85144330000003,194.85144330000003,194.85144330000003,194.85144330000003,,007,P007,2025_Feb_01_1024,ConditionRich,2021.2.3,59.93058839259402,
152.75,156.0,41,0.0,Stimuli/Blank.png,0,0.0,0.0,0,69,69,69,,,,,,,,,,,,,152.75027430000046,0.00027430000045569614,None,195.60213189999922,195.60213189999922,195.60213189999922,195.60213189999922,195.60213189999922,195.60213189999922,195.60213189999922,195.60213189999922,195.60213189999922,195.60213189999922,,007,P007,2025_Feb_01_1024,ConditionRich,2021.2.3,59.93058839259402,
156.0,156.75,9,0.75,Stimuli/P007/sun_bcsqogieozpyvuft.jpg,0,0.0,0.0,0,70,70,70,,,,,,,,,,,,,156.00431130000015,0.004311300000154006,None,198.87167969999973,198.87167969999973,198.87167969999973,198.87167969999973,198.87167969999973,198.87167969999973,198.87167969999973,198.87167969999973,198.87167969999973,198.87167969999973,,007,P007,2025_Feb_01_1024,ConditionRich,2021.2.3,59.93058839259402,
156.75,160.0,41,0.0,Stimuli/Blank.png,0,0.0,0.0,0,71,71,71,,,,,,,,,,,,,156.7703147000002,0.020314700000199082,None,199.6223519999994,199.6223519999994,199.6223519999994,199.6223519999994,199.6223519999994,199.6223519999994,199.6223519999994,199.6223519999994,199.6223519999994,199.6223519999994,,007,P007,2025_Feb_01_1024,ConditionRich,2021.2.3,59.93058839259402,
160.0,160.75,13,0.75,Stimuli/P007/sun_bkhuvtsqontzwtbo.jpg,0,0.0,0.0,0,72,72,72,,,,,,,,,,,,,160.00961740000002,0.009617400000024645,None,202.87519389999943,202.87519389999943,202.87519389999943,202.87519389999943,202.87519389999943,202.87519389999943,202.87519389999943,202.87519389999943,202.87519389999943,202.87519389999943,,007,P007,2025_Feb_01_1024,ConditionRich,2021.2.3,59.93058839259402,
160.75,164.0,41,0.0,Stimuli/Blank.png,1,1.25,2.0,0,73,73,73,,,,,,,,,,,,,160.7746691000002,0.024669100000210165,2,203.62589149999985,203.62589149999985,203.62589149999985,203.62589149999985,203.62589149999985,203.62589149999985,204.86031019999973,205.61097339999924,203.62589149999985,203.62589149999985,1.569461100000808,007,P007,2025_Feb_01_1024,ConditionRich,2021.2.3,59.93058839259402,
164.0,164.75,37,0.75,Stimuli/P007/things_praying_mantis_04s.jpg,0,0.0,0.0,0,74,74,74,,,,,,,,,,,,,164.01095030000033,0.010950300000331481,None,206.86205459999928,206.86205459999928,206.86205459999928,206.86205459999928,206.86205459999928,206.86205459999928,206.86205459999928,206.86205459999928,206.86205459999928,206.86205459999928,,007,P007,2025_Feb_01_1024,ConditionRich,2021.2.3,59.93058839259402,
164.75,168.0,41,0.0,Stimuli/Blank.png,0,0.0,0.0,0,75,75,75,,,,,,,,,,,,,164.76161370000045,0.011613700000452809,None,207.6127510999995,207.6127510999995,207.6127510999995,207.6127510999995,207.6127510999995,207.6127510999995,207.6127510999995,207.6127510999995,207.6127510999995,207.6127510999995,,007,P007,2025_Feb_01_1024,ConditionRich,2021.2.3,59.93058839259402,
168.0,168.75,8,0.75,Stimuli/P007/sun_bbnepvzvycqjjczs.jpg,0,0.0,0.0,0,76,76,76,,,,,,,,,,,,,168.01538720000008,0.015387200000077428,None,210.8823096999995,210.8823096999995,210.8823096999995,210.8823096999995,210.8823096999995,210.8823096999995,210.8823096999995,210.8823096999995,210.8823096999995,210.8823096999995,,007,P007,2025_Feb_01_1024,ConditionRich,2021.2.3,59.93058839259402,
168.75,172.0,41,0.0,Stimuli/Blank.png,0,0.0,0.0,0,77,77,77,,,,,,,,,,,,,168.7653938000003,0.015393800000310875,None,211.61629529999936,211.61629529999936,211.61629529999936,211.61629529999936,211.61629529999936,211.61629529999936,211.61629529999936,211.61629529999936,211.61629529999936,211.61629529999936,,007,P007,2025_Feb_01_1024,ConditionRich,2021.2.3,59.93058839259402,
172.0,172.75,30,0.75,Stimuli/P007/things_jalapeno_04s.jpg,0,0.0,0.0,0,78,78,78,,,,,,,,,,,,,172.00073490000068,0.0007349000006797723,None,214.85249889999977,214.85249889999977,214.85249889999977,214.85249889999977,214.85249889999977,214.85249889999977,214.85249889999977,214.85249889999977,214.85249889999977,214.85249889999977,,007,P007,2025_Feb_01_1024,ConditionRich,2021.2.3,59.93058839259402,
172.75,176.0,41,0.0,Stimuli/Blank.png,0,0.0,0.0,0,79,79,79,,,,,,,,,,,,,172.7512873000005,0.0012873000005129143,None,215.60315300000002,215.60315300000002,215.60315300000002,215.60315300000002,215.60315300000002,215.60315300000002,215.60315300000002,215.60315300000002,215.60315300000002,215.60315300000002,,007,P007,2025_Feb_01_1024,ConditionRich,2021.2.3,59.93058839259402,
176.0,176.75,3,0.75,Stimuli/P007/sun_aueftjhdwnvkbzlt.jpg,0,0.0,0.0,0,80,80,80,,,,,,,,,,,,,176.00487430000067,0.004874300000665244,None,218.85604069999954,218.85604069999954,218.85604069999954,218.85604069999954,218.85604069999954,218.85604069999954,218.85604069999954,218.85604069999954,218.85604069999954,218.85604069999954,,007,P007,2025_Feb_01_1024,ConditionRich,2021.2.3,59.93058839259402,
176.75,180.0,41,0.0,Stimuli/Blank.png,0,0.0,0.0,0,81,81,81,,,,,,,,,,,,,176.75587919999998,0.005879199999981211,None,219.60670009999922,219.60670009999922,219.60670009999922,219.60670009999922,219.60670009999922,219.60670009999922,219.60670009999922,219.60670009999922,219.60670009999922,219.60670009999922,,007,P007,2025_Feb_01_1024,ConditionRich,2021.2.3,59.93058839259402,
180.0,196.0,0,0.0,Stimuli/Blank.png,1,9.0,9.75,0,82,82,82,,,,,,,,,,,,,180.0099927000001,0.009992700000111654,2,222.87627359999988,222.87627359999988,222.87627359999988,222.87627359999988,222.87627359999988,222.87627359999988,231.85085439999966,232.60156449999977,222.87627359999988,222.87627359999988,9.457156399999803,007,P007,2025_Feb_01_1024,ConditionRich,2021.2.3,59.93058839259402,
196.0,196.75,17,0.75,Stimuli/P007/sun_bnsxdhbsafbdyncy.jpg,0,0.0,0.0,0,83,83,83,,,,,,,,,,,,,196.0218676000004,0.02186760000040522,None,238.87374789999922,238.87374789999922,238.87374789999922,238.87374789999922,238.87374789999922,238.87374789999922,238.87374789999922,238.87374789999922,238.87374789999922,238.87374789999922,,007,P007,2025_Feb_01_1024,ConditionRich,2021.2.3,59.93058839259402,
196.75,200.0,41,0.0,Stimuli/Blank.png,0,0.0,0.0,0,84,84,84,,,,,,,,,,,,,196.7562968000002,0.0062968000002001645,None,239.60774989999936,239.60774989999936,239.60774989999936,239.60774989999936,239.60774989999936,239.60774989999936,239.60774989999936,239.60774989999936,239.60774989999936,239.60774989999936,,007,P007,2025_Feb_01_1024,ConditionRich,2021.2.3,59.93058839259402,
200.0,200.75,14,0.75,Stimuli/P007/sun_bkvjqgmploznrhxt.jpg,0,0.0,0.0,0,85,85,85,,,,,,,,,,,,,200.01021300000048,0.010213000000476313,None,242.87729949999994,242.87729949999994,242.87729949999994,242.87729949999994,242.87729949999994,242.87729949999994,242.87729949999994,242.87729949999994,242.87729949999994,242.87729949999994,,007,P007,2025_Feb_01_1024,ConditionRich,2021.2.3,59.93058839259402,
200.75,204.0,41,0.0,Stimuli/Blank.png,0,0.0,0.0,0,86,86,86,,,,,,,,,,,,,200.7761341000005,0.026134100000490434,None,243.62793349999993,243.62793349999993,243.62793349999993,243.62793349999993,243.62793349999993,243.62793349999993,243.62793349999993,243.62793349999993,243.62793349999993,243.62793349999993,,007,P007,2025_Feb_01_1024,ConditionRich,2021.2.3,59.93058839259402,
204.0,204.75,37,0.75,Stimuli/P007/things_praying_mantis_04s.jpg,1,0.0,0.75,0,87,87,87,,,,,,,,,,,,,204.01231890000054,0.012318900000536814,2,246.88082869999926,246.88082869999926,246.88082869999926,246.88082869999926,246.88082869999926,246.88082869999926,246.88082869999926,247.5981224999996,246.88082869999926,246.88082869999926,0.5845592999994551,007,P007,2025_Feb_01_1024,ConditionRich,2021.2.3,59.93058839259402,
204.75,208.0,41,0.0,Stimuli/Blank.png,0,0.0,0.0,0,88,88,88,,,,,,,,,,,,,204.7802696000008,0.030269600000792707,None,247.6314972,247.6314972,247.6314972,247.6314972,247.6314972,247.6314972,247.6314972,247.6314972,247.6314972,247.6314972,,007,P007,2025_Feb_01_1024,ConditionRich,2021.2.3,59.93058839259402,
208.0,208.75,9,0.75,Stimuli/P007/sun_bcsqogieozpyvuft.jpg,0,0.0,0.0,0,89,89,89,,,,,,,,,,,,,207.99896190000072,-0.0010380999992776196,None,250.8509830999992,250.8509830999992,250.8509830999992,250.8509830999992,250.8509830999992,250.8509830999992,250.8509830999992,250.8509830999992,250.8509830999992,250.8509830999992,,007,P007,2025_Feb_01_1024,ConditionRich,2021.2.3,59.93058839259402,
208.75,212.0,41,0.0,Stimuli/Blank.png,0,0.0,0.0,0,90,90,90,,,,,,,,,,,,,208.7512557,0.001255700000001525,None,251.60165789999974,251.60165789999974,251.60165789999974,251.60165789999974,251.60165789999974,251.60165789999974,251.60165789999974,251.60165789999974,251.60165789999974,251.60165789999974,,007,P007,2025_Feb_01_1024,ConditionRich,2021.2.3,59.93058839259402,
212.0,212.75,12,0.75,Stimuli/P007/sun_bitpmyvulluuasab.jpg,1,0.0,0.75,0,91,91,91,,,,,,,,,,,,,212.0057521000008,0.005752100000790961,2,254.87121229999957,254.87121229999957,254.87121229999957,254.87121229999957,254.87121229999957,254.87121229999957,254.87121229999957,255.60518649999995,254.87121229999957,254.87121229999957,0.5632870999997976,007,P007,2025_Feb_01_1024,ConditionRich,2021.2.3,59.93058839259402,
212.75,216.0,41,0.0,Stimuli/Blank.png,0,0.0,0.0,0,92,92,92,,,,,,,,,,,,,212.77001070000006,0.020010700000057113,None,255.62187809999978,255.62187809999978,255.62187809999978,255.62187809999978,255.62187809999978,255.62187809999978,255.62187809999978,255.62187809999978,255.62187809999978,255.62187809999978,,007,P007,2025_Feb_01_1024,ConditionRich,2021.2.3,59.93058839259402,
216.0,216.75,6,0.75,Stimuli/P007/sun_azpjjfwsbjdjcopb.jpg,0,0.0,0.0,0,93,93,93,,,,,,,,,,,,,216.00625890000083,0.006258900000830181,None,258.8580701000001,258.8580701000001,258.8580701000001,258.8580701000001,258.8580701000001,258.8580701000001,258.8580701000001,258.8580701000001,258.8580701000001,258.8580701000001,,007,P007,2025_Feb_01_1024,ConditionRich,2021.2.3,59.93058839259402,
216.75,220.0,41,0.0,Stimuli/Blank.png,0,0.0,0.0,0,94,94,94,,,,,,,,,,,,,216.7573327,0.007332700000006298,None,259.60876299999927,259.60876299999927,259.60876299999927,259.60876299999927,259.60876299999927,259.60876299999927,259.60876299999927,259.60876299999927,259.60876299999927,259.60876299999927,,007,P007,2025_Feb_01_1024,ConditionRich,2021.2.3,59.93058839259402,
220.0,220.75,22,0.75,Stimuli/P007/things_boar_04s.jpg,0,0.0,0.0,0,95,95,95,,,,,,,,,,,,,220.0104927000002,0.010492700000213517,None,262.8616082999997,262.8616082999997,262.8616082999997,262.8616082999997,262.8616082999997,262.8616082999997,262.8616082999997,262.8616082999997,262.8616082999997,262.8616082999997,,007,P007,2025_Feb_01_1024,ConditionRich,2021.2.3,59.93058839259402,
220.75,224.0,41,0.0,Stimuli/Blank.png,0,0.0,0.0,0,96,96,96,,,,,,,,,,,,,220.76052920000075,0.010529200000746641,None,263.61228349999965,263.61228349999965,263.61228349999965,263.61228349999965,263.61228349999965,263.61228349999965,263.61228349999965,263.61228349999965,263.61228349999965,263.61228349999965,,007,P007,2025_Feb_01_1024,ConditionRich,2021.2.3,59.93058839259402,
224.0,224.75,33,0.75,Stimuli/P007/things_man_04s.jpg,0,0.0,0.0,0,97,97,97,,,,,,,,,,,,,224.01462960000026,0.014629600000262144,None,266.86516239999946,266.86516239999946,266.86516239999946,266.86516239999946,266.86516239999946,266.86516239999946,266.86516239999946,266.86516239999946,266.86516239999946,266.86516239999946,,007,P007,2025_Feb_01_1024,ConditionRich,2021.2.3,59.93058839259402,
224.75,228.0,41,0.0,Stimuli/Blank.png,0,0.0,0.0,0,98,98,98,,,,,,,,,,,,,224.76422020000064,0.014220200000636396,None,267.61582909999925,267.61582909999925,267.61582909999925,267.61582909999925,267.61582909999925,267.61582909999925,267.61582909999925,267.61582909999925,267.61582909999925,267.61582909999925,,007,P007,2025_Feb_01_1024,ConditionRich,2021.2.3,59.93058839259402,
228.0,228.75,36,0.75,Stimuli/P007/things_platypus_04s.jpg,0,0.0,0.0,0,99,99,99,,,,,,,,,,,,,228.00023240000064,0.00023240000064106425,None,270.85202129999925,270.85202129999925,270.85202129999925,270.85202129999925,270.85202129999925,270.85202129999925,270.85202129999925,270.85202129999925,270.85202129999925,270.85202129999925,,007,P007,2025_Feb_01_1024,ConditionRich,2021.2.3,59.93058839259402,
228.75,232.0,41,0.0,Stimuli/Blank.png,0,0.0,0.0,0,100,100,100,,,,,,,,,,,,,228.75152180000077,0.00152180000077351,None,271.60267269999986,271.60267269999986,271.60267269999986,271.60267269999986,271.60267269999986,271.60267269999986,271.60267269999986,271.60267269999986,271.60267269999986,271.60267269999986,,007,P007,2025_Feb_01_1024,ConditionRich,2021.2.3,59.93058839259402,
232.0,232.75,18,0.75,Stimuli/P007/sun_borgfidyubrwsuuw.jpg,1,0.0,0.75,0,101,101,101,,,,,,,,,,,,,232.00435490000018,0.004354900000180351,None,274.87225409999974,274.87225409999974,274.87225409999974,274.87225409999974,274.87225409999974,274.87225409999974,274.87225409999974,275.5895591999997,274.87225409999974,274.87225409999974,,007,P007,2025_Feb_01_1024,ConditionRich,2021.2.3,59.93058839259402,
232.75,236.0,41,0.0,Stimuli/Blank.png,0,0.0,0.0,0,102,102,102,,,,,,,,,,,,,232.77172500000052,0.021725000000515138,2,275.62290419999954,275.62290419999954,275.62290419999954,275.62290419999954,275.62290419999954,275.62290419999954,275.62290419999954,275.62290419999954,275.62290419999954,275.62290419999954,0.25073470000006637,007,P007,2025_Feb_01_1024,ConditionRich,2021.2.3,59.93058839259402,
236.0,236.75,2,0.75,Stimuli/P007/sun_ajyzloqaptmicnfr.jpg,0,0.0,0.0,0,103,103,103,,,,,,,,,,,,,236.00818860000072,0.008188600000721635,None,278.85910049999984,278.85910049999984,278.85910049999984,278.85910049999984,278.85910049999984,278.85910049999984,278.85910049999984,278.85910049999984,278.85910049999984,278.85910049999984,,007,P007,2025_Feb_01_1024,ConditionRich,2021.2.3,59.93058839259402,
236.75,240.0,41,0.0,Stimuli/Blank.png,0,0.0,0.0,0,104,104,104,,,,,,,,,,,,,236.75994720000017,0.009947200000169687,None,279.6264403999994,279.6264403999994,279.6264403999994,279.6264403999994,279.6264403999994,279.6264403999994,279.6264403999994,279.6264403999994,279.6264403999994,279.6264403999994,,007,P007,2025_Feb_01_1024,ConditionRich,2021.2.3,59.93058839259402,
240.0,240.75,28,0.75,Stimuli/P007/things_girl_04s.jpg,0,0.0,0.0,0,105,105,105,,,,,,,,,,,,,240.0273575000001,0.027357500000107393,None,282.89599479999924,282.89599479999924,282.89599479999924,282.89599479999924,282.89599479999924,282.89599479999924,282.89599479999924,282.89599479999924,282.89599479999924,282.89599479999924,,007,P007,2025_Feb_01_1024,ConditionRich,2021.2.3,59.93058839259402,
240.75,244.0,41,0.0,Stimuli/Blank.png,0,0.0,0.0,0,106,106,106,,,,,,,,,,,,,240.7807371000008,0.030737100000806095,None,283.6466619999992,283.6466619999992,283.6466619999992,283.6466619999992,283.6466619999992,283.6466619999992,283.6466619999992,283.6466619999992,283.6466619999992,283.6466619999992,,007,P007,2025_Feb_01_1024,ConditionRich,2021.2.3,59.93058839259402,
244.0,244.75,21,0.75,Stimuli/P007/things_baby_04s.jpg,0,0.0,0.0,0,107,107,107,,,,,,,,,,,,,244.01486280000063,0.01486280000062834,None,286.88287020000007,286.88287020000007,286.88287020000007,286.88287020000007,286.88287020000007,286.88287020000007,286.88287020000007,286.88287020000007,286.88287020000007,286.88287020000007,,007,P007,2025_Feb_01_1024,ConditionRich,2021.2.3,59.93058839259402,
244.75,248.0,41,0.0,Stimuli/Blank.png,0,0.0,0.0,0,108,108,108,,,,,,,,,,,,,244.78168640000058,0.03168640000058076,None,287.63363649999974,287.63363649999974,287.63363649999974,287.63363649999974,287.63363649999974,287.63363649999974,287.63363649999974,287.63363649999974,287.63363649999974,287.63363649999974,,007,P007,2025_Feb_01_1024,ConditionRich,2021.2.3,59.93058839259402,
248.0,248.75,10,0.75,Stimuli/P007/sun_bdekcgnlcicvgpvq.jpg,0,0.0,0.0,0,109,109,109,,,,,,,,,,,,,248.00224720000006,0.002247200000056182,None,290.8697220999993,290.8697220999993,290.8697220999993,290.8697220999993,290.8697220999993,290.8697220999993,290.8697220999993,290.8697220999993,290.8697220999993,290.8697220999993,,007,P007,2025_Feb_01_1024,ConditionRich,2021.2.3,59.93058839259402,
248.75,252.0,41,0.0,Stimuli/Blank.png,0,0.0,0.0,0,110,110,110,,,,,,,,,,,,,248.76928150000003,0.019281500000033702,None,291.62037899999996,291.62037899999996,291.62037899999996,291.62037899999996,291.62037899999996,291.62037899999996,291.62037899999996,291.62037899999996,291.62037899999996,291.62037899999996,,007,P007,2025_Feb_01_1024,ConditionRich,2021.2.3,59.93058839259402,
252.0,252.75,38,0.75,Stimuli/P007/things_rollerblade_04s.jpg,0,0.0,0.0,0,111,111,111,,,,,,,,,,,,,252.00533870000072,0.005338700000720564,None,294.8732281999992,294.8732281999992,294.8732281999992,294.8732281999992,294.8732281999992,294.8732281999992,294.8732281999992,294.8732281999992,294.8732281999992,294.8732281999992,,007,P007,2025_Feb_01_1024,ConditionRich,2021.2.3,59.93058839259402,
252.75,256.0,41,0.0,Stimuli/Blank.png,0,0.0,0.0,0,112,112,112,,,,,,,,,,,,,252.77271520000068,0.022715200000675395,None,295.62393819999943,295.62393819999943,295.62393819999943,295.62393819999943,295.62393819999943,295.62393819999943,295.62393819999943,295.62393819999943,295.62393819999943,295.62393819999943,,007,P007,2025_Feb_01_1024,ConditionRich,2021.2.3,59.93058839259402,
256.0,256.75,27,0.75,Stimuli/P007/things_fur_coat_04s.jpg,0,0.0,0.0,0,113,113,113,,,,,,,,,,,,,256.0088846000008,0.008884600000783394,None,298.8767965999996,298.8767965999996,298.8767965999996,298.8767965999996,298.8767965999996,298.8767965999996,298.8767965999996,298.8767965999996,298.8767965999996,298.8767965999996,,007,P007,2025_Feb_01_1024,ConditionRich,2021.2.3,59.93058839259402,
256.75,260.0,41,0.0,Stimuli/Blank.png,0,0.0,0.0,0,114,114,114,,,,,,,,,,,,,256.7759650000007,0.025965000000724103,None,299.6274627999992,299.6274627999992,299.6274627999992,299.6274627999992,299.6274627999992,299.6274627999992,299.6274627999992,299.6274627999992,299.6274627999992,299.6274627999992,,007,P007,2025_Feb_01_1024,ConditionRich,2021.2.3,59.93058839259402,
260.0,260.75,1,0.75,Stimuli/P007/sun_abrlrupzcrwpxqfc.jpg,0,0.0,0.0,0,115,115,115,,,,,,,,,,,,,260.0117704000004,0.011770400000386871,None,302.8636613999997,302.8636613999997,302.8636613999997,302.8636613999997,302.8636613999997,302.8636613999997,302.8636613999997,302.8636613999997,302.8636613999997,302.8636613999997,,007,P007,2025_Feb_01_1024,ConditionRich,2021.2.3,59.93058839259402,
260.75,264.0,41,0.0,Stimuli/Blank.png,0,0.0,0.0,0,116,116,116,,,,,,,,,,,,,260.76246020000053,0.012460200000532495,None,303.6143803999994,303.6143803999994,303.6143803999994,303.6143803999994,303.6143803999994,303.6143803999994,303.6143803999994,303.6143803999994,303.6143803999994,303.6143803999994,,007,P007,2025_Feb_01_1024,ConditionRich,2021.2.3,59.93058839259402,
264.0,264.75,40,0.75,Stimuli/P007/things_woman_04s.jpg,0,0.0,0.0,0,117,117,117,,,,,,,,,,,,,264.01607010000043,0.01607010000043374,None,306.86719169999924,306.86719169999924,306.86719169999924,306.86719169999924,306.86719169999924,306.86719169999924,306.86719169999924,306.86719169999924,306.86719169999924,306.86719169999924,,007,P007,2025_Feb_01_1024,ConditionRich,2021.2.3,59.93058839259402,
264.75,268.0,41,0.0,Stimuli/Blank.png,0,0.0,0.0,0,118,118,118,,,,,,,,,,,,,264.7507387000005,0.0007387000005110167,None,307.6178798000001,307.6178798000001,307.6178798000001,307.6178798000001,307.6178798000001,307.6178798000001,307.6178798000001,307.6178798000001,307.6178798000001,307.6178798000001,,007,P007,2025_Feb_01_1024,ConditionRich,2021.2.3,59.93058839259402,
268.0,268.75,24,0.75,Stimuli/P007/things_collar_04s.jpg,0,0.0,0.0,0,119,119,119,,,,,,,,,,,,,268.0187941000004,0.01879410000037751,None,310.87073789999977,310.87073789999977,310.87073789999977,310.87073789999977,310.87073789999977,310.87073789999977,310.87073789999977,310.87073789999977,310.87073789999977,310.87073789999977,,007,P007,2025_Feb_01_1024,ConditionRich,2021.2.3,59.93058839259402,
268.75,272.0,41,0.0,Stimuli/Blank.png,1,1.25,2.0,0,120,120,120,,,,,,,,,,,,,268.7547041000007,0.004704100000708422,2,311.62140459999955,311.62140459999955,311.62140459999955,311.62140459999955,311.62140459999955,311.62140459999955,312.85583999999926,313.6064873999994,311.62140459999955,311.62140459999955,1.649011600000449,007,P007,2025_Feb_01_1024,ConditionRich,2021.2.3,59.93058839259402,
272.0,272.75,19,0.75,Stimuli/P007/sun_brpfgrmubnnjvfkw.jpg,0,0.0,0.0,0,121,121,121,,,,,,,,,,,,,272.0223689000004,0.02236890000040148,None,314.89098359999934,314.89098359999934,314.89098359999934,314.89098359999934,314.89098359999934,314.89098359999934,314.89098359999934,314.89098359999934,314.89098359999934,314.89098359999934,,007,P007,2025_Feb_01_1024,ConditionRich,2021.2.3,59.93058839259402,
272.75,276.0,41,0.0,Stimuli/Blank.png,1,1.25,2.0,0,122,122,122,,,,,,,,,,,,,272.77572860000055,0.025728600000547885,2,315.6416316999994,315.6416316999994,315.6416316999994,315.6416316999994,315.6416316999994,315.6416316999994,316.8760601999993,317.6267171999998,315.6416316999994,315.6416316999994,1.8581881000000067,007,P007,2025_Feb_01_1024,ConditionRich,2021.2.3,59.93058839259402,
276.0,292.0,0,0.0,Stimuli/Blank.png,1,4.0,4.75,0,123,123,123,,,,,,,,,,,,,276.0266849000009,0.026684900000873313,2,318.87782049999987,318.87782049999987,318.87782049999987,318.87782049999987,318.87782049999987,318.87782049999987,322.8647052999995,323.6153371999999,318.87782049999987,318.87782049999987,4.50563449999936,007,P007,2025_Feb_01_1024,ConditionRich,2021.2.3,59.93058839259402,
292.0,292.75,25,0.75,Stimuli/P007/things_credit_card_04s.jpg,0,0.0,0.0,0,124,124,124,,,,,,,,,,,,,292.00753970000005,0.0075397000000521075,None,334.8753164999998,334.8753164999998,334.8753164999998,334.8753164999998,334.8753164999998,334.8753164999998,334.8753164999998,334.8753164999998,334.8753164999998,334.8753164999998,,007,P007,2025_Feb_01_1024,ConditionRich,2021.2.3,59.93058839259402,
292.75,296.0,41,0.0,Stimuli/Blank.png,0,0.0,0.0,0,125,125,125,,,,,,,,,,,,,292.7741950000009,0.024195000000872824,None,335.62596549999944,335.62596549999944,335.62596549999944,335.62596549999944,335.62596549999944,335.62596549999944,335.62596549999944,335.62596549999944,335.62596549999944,335.62596549999944,,007,P007,2025_Feb_01_1024,ConditionRich,2021.2.3,59.93058839259402,
296.0,296.75,39,0.75,Stimuli/P007/things_showerhead_04s.jpg,0,0.0,0.0,0,126,126,126,,,,,,,,,,,,,296.0102248000003,0.01022480000028736,None,338.8621549999998,338.8621549999998,338.8621549999998,338.8621549999998,338.8621549999998,338.8621549999998,338.8621549999998,338.8621549999998,338.8621549999998,338.8621549999998,,007,P007,2025_Feb_01_1024,ConditionRich,2021.2.3,59.93058839259402,
296.75,300.0,41,0.0,Stimuli/Blank.png,1,0.25,1.0,0,127,127,127,,,,,,,,,,,,,296.7616659000005,0.011665900000480178,2,339.61294009999983,339.61294009999983,339.61294009999983,339.61294009999983,339.61294009999983,339.61294009999983,339.84635789999993,340.59706319999987,339.61294009999983,339.61294009999983,0.6764677999999549,007,P007,2025_Feb_01_1024,ConditionRich,2021.2.3,59.93058839259402,
300.0,300.75,13,0.75,Stimuli/P007/sun_bkhuvtsqontzwtbo.jpg,0,0.0,0.0,0,128,128,128,,,,,,,,,,,,,300.0148854000008,0.014885400000821392,None,342.88237729999946,342.88237729999946,342.88237729999946,342.88237729999946,342.88237729999946,342.88237729999946,342.88237729999946,342.88237729999946,342.88237729999946,342.88237729999946,,007,P007,2025_Feb_01_1024,ConditionRich,2021.2.3,59.93058839259402,
300.75,304.0,41,0.0,Stimuli/Blank.png,0,0.0,0.0,0,129,129,129,,,,,,,,,,,,,300.78128650000053,0.031286500000533124,None,343.63304399999924,343.63304399999924,343.63304399999924,343.63304399999924,343.63304399999924,343.63304399999924,343.63304399999924,343.63304399999924,343.63304399999924,343.63304399999924,,007,P007,2025_Feb_01_1024,ConditionRich,2021.2.3,59.93058839259402,
304.0,304.75,30,0.75,Stimuli/P007/things_jalapeno_04s.jpg,0,0.0,0.0,0,130,130,130,,,,,,,,,,,,,304.0005732000009,0.0005732000008720206,None,346.8525608,346.8525608,346.8525608,346.8525608,346.8525608,346.8525608,346.8525608,346.8525608,346.8525608,346.8525608,,007,P007,2025_Feb_01_1024,ConditionRich,2021.2.3,59.93058839259402,
304.75,308.0,41,0.0,Stimuli/Blank.png,0,0.0,0.0,0,131,131,131,,,,,,,,,,,,,304.75193410000065,0.001934100000653416,None,347.60322089999954,347.60322089999954,347.60322089999954,347.60322089999954,347.60322089999954,347.60322089999954,347.60322089999954,347.60322089999954,347.60322089999954,347.60322089999954,,007,P007,2025_Feb_01_1024,ConditionRich,2021.2.3,59.93058839259402,
308.0,308.75,31,0.75,Stimuli/P007/things_jug_04s.jpg,0,0.0,0.0,0,132,132,132,,,,,,,,,,,,,308.00527520000014,0.005275200000141922,None,350.8727977999997,350.8727977999997,350.8727977999997,350.8727977999997,350.8727977999997,350.8727977999997,350.8727977999997,350.8727977999997,350.8727977999997,350.8727977999997,,007,P007,2025_Feb_01_1024,ConditionRich,2021.2.3,59.93058839259402,
308.75,312.0,41,0.0,Stimuli/Blank.png,0,0.0,0.0,0,133,133,133,,,,,,,,,,,,,308.7721934000001,0.022193400000105612,None,351.62345129999994,351.62345129999994,351.62345129999994,351.62345129999994,351.62345129999994,351.62345129999994,351.62345129999994,351.62345129999994,351.62345129999994,351.62345129999994,,007,P007,2025_Feb_01_1024,ConditionRich,2021.2.3,59.93058839259402,
312.0,312.75,11,0.75,Stimuli/P007/sun_bdsriuscubkvzrmt.jpg,0,0.0,0.0,0,134,134,134,,,,,,,,,,,,,312.01084020000053,0.010840200000529876,None,354.87632679999933,354.87632679999933,354.87632679999933,354.87632679999933,354.87632679999933,354.87632679999933,354.87632679999933,354.87632679999933,354.87632679999933,354.87632679999933,,007,P007,2025_Feb_01_1024,ConditionRich,2021.2.3,59.93058839259402,
312.75,316.0,41,0.0,Stimuli/Blank.png,0,0.0,0.0,0,135,135,135,,,,,,,,,,,,,312.77582390000043,0.02582390000043233,None,355.6269849,355.6269849,355.6269849,355.6269849,355.6269849,355.6269849,355.6269849,355.6269849,355.6269849,355.6269849,,007,P007,2025_Feb_01_1024,ConditionRich,2021.2.3,59.93058839259402,
316.0,316.75,8,0.75,Stimuli/P007/sun_bbnepvzvycqjjczs.jpg,0,0.0,0.0,0,136,136,136,,,,,,,,,,,,,316.0113749000002,0.011374900000191701,None,358.87987149999935,358.87987149999935,358.87987149999935,358.87987149999935,358.87987149999935,358.87987149999935,358.87987149999935,358.87987149999935,358.87987149999935,358.87987149999935,,007,P007,2025_Feb_01_1024,ConditionRich,2021.2.3,59.93058839259402,
316.75,320.0,41,0.0,Stimuli/Blank.png,0,0.0,0.0,0,137,137,137,,,,,,,,,,,,,316.7792919000003,0.029291900000316673,None,359.63053820000005,359.63053820000005,359.63053820000005,359.63053820000005,359.63053820000005,359.63053820000005,359.63053820000005,359.63053820000005,359.63053820000005,359.63053820000005,,007,P007,2025_Feb_01_1024,ConditionRich,2021.2.3,59.93058839259402,
320.0,320.75,15,0.75,Stimuli/P007/sun_bmeductqpfkygtww.jpg,0,0.0,0.0,0,138,138,138,,,,,,,,,,,,,320.0154713000002,0.01547130000017205,None,362.88345690000006,362.88345690000006,362.88345690000006,362.88345690000006,362.88345690000006,362.88345690000006,362.88345690000006,362.88345690000006,362.88345690000006,362.88345690000006,,007,P007,2025_Feb_01_1024,ConditionRich,2021.2.3,59.93058839259402,
320.75,324.0,41,0.0,Stimuli/Blank.png,1,1.25,2.0,0,139,139,139,,,,,,,,,,,,,320.76541350000025,0.015413500000249769,2,363.61737879999964,363.61737879999964,363.61737879999964,363.61737879999964,363.61737879999964,363.61737879999964,364.8518488999998,365.60250859999996,363.61737879999964,363.61737879999964,1.7150904000000082,007,P007,2025_Feb_01_1024,ConditionRich,2021.2.3,59.93058839259402,
324.0,324.75,34,0.75,Stimuli/P007/things_moose_04s.jpg,0,0.0,0.0,0,140,140,140,,,,,,,,,,,,,324.00173430000086,0.0017343000008622766,None,366.85357939999994,366.85357939999994,366.85357939999994,366.85357939999994,366.85357939999994,366.85357939999994,366.85357939999994,366.85357939999994,366.85357939999994,366.85357939999994,,007,P007,2025_Feb_01_1024,ConditionRich,2021.2.3,59.93058839259402,
324.75,328.0,41,0.0,Stimuli/Blank.png,0,0.0,0.0,0,141,141,141,,,,,,,,,,,,,324.7530205000003,0.003020500000275206,None,367.6042542999994,367.6042542999994,367.6042542999994,367.6042542999994,367.6042542999994,367.6042542999994,367.6042542999994,367.6042542999994,367.6042542999994,367.6042542999994,,007,P007,2025_Feb_01_1024,ConditionRich,2021.2.3,59.93058839259402,
328.0,328.75,4,0.75,Stimuli/P007/sun_awqukazlzsxaokai.jpg,0,0.0,0.0,0,142,142,142,,,,,,,,,,,,,328.00620850000087,0.006208500000866479,None,370.8571248999997,370.8571248999997,370.8571248999997,370.8571248999997,370.8571248999997,370.8571248999997,370.8571248999997,370.8571248999997,370.8571248999997,370.8571248999997,,007,P007,2025_Feb_01_1024,ConditionRich,2021.2.3,59.93058839259402,
328.75,332.0,41,0.0,Stimuli/Blank.png,1,1.25,2.0,0,143,143,143,,,,,,,,,,,,,328.75646900000083,0.006469000000834058,2,371.60778690000006,371.60778690000006,371.60778690000006,371.60778690000006,371.60778690000006,371.60778690000006,372.84225199999946,373.5929151999999,371.60778690000006,371.60778690000006,1.6299306000000797,007,P007,2025_Feb_01_1024,ConditionRich,2021.2.3,59.93058839259402,
332.0,332.75,26,0.75,Stimuli/P007/things_face_04s.jpg,0,0.0,0.0,0,144,144,144,,,,,,,,,,,,,332.01046060000044,0.010460600000442355,None,374.8773422999993,374.8773422999993,374.8773422999993,374.8773422999993,374.8773422999993,374.8773422999993,374.8773422999993,374.8773422999993,374.8773422999993,374.8773422999993,,007,P007,2025_Feb_01_1024,ConditionRich,2021.2.3,59.93058839259402,
332.75,336.0,41,0.0,Stimuli/Blank.png,1,2.25,3.0,0,145,145,145,,,,,,,,,,,,,332.7765010000003,0.026501000000280328,2,375.6280008999993,375.6280008999993,375.6280008999993,375.6280008999993,375.6280008999993,375.6280008999993,377.8633209999998,378.6139870999996,375.6280008999993,375.6280008999993,2.701481899999635,007,P007,2025_Feb_01_1024,ConditionRich,2021.2.3,59.93058839259402,
336.0,336.75,35,0.75,Stimuli/P007/things_pecan_04s.jpg,0,0.0,0.0,0,146,146,146,,,,,,,,,,,,,336.0124356000006,0.012435600000571867,None,378.8808821999992,378.8808821999992,378.8808821999992,378.8808821999992,378.8808821999992,378.8808821999992,378.8808821999992,378.8808821999992,378.8808821999992,378.8808821999992,,007,P007,2025_Feb_01_1024,ConditionRich,2021.2.3,59.93058839259402,
336.75,340.0,41,0.0,Stimuli/Blank.png,0,0.0,0.0,0,147,147,147,,,,,,,,,,,,,336.7804459000008,0.030445900000813708,None,379.6315625999996,379.6315625999996,379.6315625999996,379.6315625999996,379.6315625999996,379.6315625999996,379.6315625999996,379.6315625999996,379.6315625999996,379.6315625999996,,007,P007,2025_Feb_01_1024,ConditionRich,2021.2.3,59.93058839259402,
340.0,340.75,5,0.75,Stimuli/P007/sun_ayzkwnqsoiycbncn.jpg,0,0.0,0.0,0,148,148,148,,,,,,,,,,,,,339.9991471000003,-0.00085289999969973,None,382.8510607999997,382.8510607999997,382.8510607999997,382.8510607999997,382.8510607999997,382.8510607999997,382.8510607999997,382.8510607999997,382.8510607999997,382.8510607999997,,007,P007,2025_Feb_01_1024,ConditionRich,2021.2.3,59.93058839259402,
340.75,344.0,41,0.0,Stimuli/Blank.png,0,0.0,0.0,0,149,149,149,,,,,,,,,,,,,340.7505048000003,0.0005048000002716435,None,383.6017305999994,383.6017305999994,383.6017305999994,383.6017305999994,383.6017305999994,383.6017305999994,383.6017305999994,383.6017305999994,383.6017305999994,383.6017305999994,,007,P007,2025_Feb_01_1024,ConditionRich,2021.2.3,59.93058839259402,
344.0,344.75,7,0.75,Stimuli/P007/sun_babhwrqvnhanonuy.jpg,0,0.0,0.0,0,150,150,150,,,,,,,,,,,,,344.0032508000004,0.003250800000387244,None,386.8546693999997,386.8546693999997,386.8546693999997,386.8546693999997,386.8546693999997,386.8546693999997,386.8546693999997,386.8546693999997,386.8546693999997,386.8546693999997,,007,P007,2025_Feb_01_1024,ConditionRich,2021.2.3,59.93058839259402,
344.75,348.0,41,0.0,Stimuli/Blank.png,1,1.25,2.0,0,151,151,151,,,,,,,,,,,,,344.75584920000074,0.005849200000739074,2,387.6219487999997,387.6219487999997,387.6219487999997,387.6219487999997,387.6219487999997,387.6219487999997,388.8563701999992,389.6070723999992,387.6219487999997,387.6219487999997,1.742718800000148,007,P007,2025_Feb_01_1024,ConditionRich,2021.2.3,59.93058839259402,
348.0,348.75,32,0.75,Stimuli/P007/things_maggot_04s.jpg,0,0.0,0.0,0,152,152,152,,,,,,,,,,,,,348.02373740000075,0.02373740000075486,None,390.87483129999964,390.87483129999964,390.87483129999964,390.87483129999964,390.87483129999964,390.87483129999964,390.87483129999964,390.87483129999964,390.87483129999964,390.87483129999964,,007,P007,2025_Feb_01_1024,ConditionRich,2021.2.3,59.93058839259402,
348.75,352.0,41,0.0,Stimuli/Blank.png,0,0.0,0.0,0,153,153,153,,,,,,,,,,,,,348.7598938000001,0.009893800000099873,None,391.62549919999947,391.62549919999947,391.62549919999947,391.62549919999947,391.62549919999947,391.62549919999947,391.62549919999947,391.62549919999947,391.62549919999947,391.62549919999947,,007,P007,2025_Feb_01_1024,ConditionRich,2021.2.3,59.93058839259402,
352.0,352.75,29,0.75,Stimuli/P007/things_hawk_04s.jpg,0,0.0,0.0,0,154,154,154,,,,,,,,,,,,,352.0273814000002,0.027381400000194844,None,394.89510019999943,394.89510019999943,394.89510019999943,394.89510019999943,394.89510019999943,394.89510019999943,394.89510019999943,394.89510019999943,394.89510019999943,394.89510019999943,,007,P007,2025_Feb_01_1024,ConditionRich,2021.2.3,59.93058839259402,
352.75,356.0,41,0.0,Stimuli/Blank.png,0,0.0,0.0,0,155,155,155,,,,,,,,,,,,,352.7770124000008,0.02701240000078542,None,395.6290261999993,395.6290261999993,395.6290261999993,395.6290261999993,395.6290261999993,395.6290261999993,395.6290261999993,395.6290261999993,395.6290261999993,395.6290261999993,,007,P007,2025_Feb_01_1024,ConditionRich,2021.2.3,59.93058839259402,
356.0,356.75,16,0.75,Stimuli/P007/sun_bnpggenxuowzsywq.jpg,0,0.0,0.0,0,156,156,156,,,,,,,,,,,,,356.01360190000014,0.013601900000139722,None,398.8652192999998,398.8652192999998,398.8652192999998,398.8652192999998,398.8652192999998,398.8652192999998,398.8652192999998,398.8652192999998,398.8652192999998,398.8652192999998,,007,P007,2025_Feb_01_1024,ConditionRich,2021.2.3,59.93058839259402,
356.75,360.0,41,0.0,Stimuli/Blank.png,0,0.0,0.0,0,157,157,157,,,,,,,,,,,,,356.76487870000074,0.01487870000073599,None,399.61589879999974,399.61589879999974,399.61589879999974,399.61589879999974,399.61589879999974,399.61589879999974,399.61589879999974,399.61589879999974,399.61589879999974,399.61589879999974,,007,P007,2025_Feb_01_1024,ConditionRich,2021.2.3,59.93058839259402,
360.0,360.75,3,0.75,Stimuli/P007/sun_aueftjhdwnvkbzlt.jpg,0,0.0,0.0,0,158,158,158,,,,,,,,,,,,,360.0006934000003,0.000693400000272959,None,402.8520847,402.8520847,402.8520847,402.8520847,402.8520847,402.8520847,402.8520847,402.8520847,402.8520847,402.8520847,,007,P007,2025_Feb_01_1024,ConditionRich,2021.2.3,59.93058839259402,
360.75,364.0,41,0.0,Stimuli/Blank.png,0,0.0,0.0,0,159,159,159,,,,,,,,,,,,,360.75075090000064,0.0007509000006393762,None,403.6027452999997,403.6027452999997,403.6027452999997,403.6027452999997,403.6027452999997,403.6027452999997,403.6027452999997,403.6027452999997,403.6027452999997,403.6027452999997,,007,P007,2025_Feb_01_1024,ConditionRich,2021.2.3,59.93058839259402,
364.0,364.75,20,0.75,Stimuli/P007/sun_btrxtfbwtggtrpfv.jpg,0,0.0,0.0,0,160,160,160,,,,,,,,,,,,,364.0053187000003,0.005318700000316312,None,406.8723181999994,406.8723181999994,406.8723181999994,406.8723181999994,406.8723181999994,406.8723181999994,406.8723181999994,406.8723181999994,406.8723181999994,406.8723181999994,,007,P007,2025_Feb_01_1024,ConditionRich,2021.2.3,59.93058839259402,
364.75,368.0,41,0.0,Stimuli/Blank.png,0,0.0,0.0,0,161,161,161,,,,,,,,,,,,,364.7711312000001,0.021131200000127137,None,407.62294699999984,407.62294699999984,407.62294699999984,407.62294699999984,407.62294699999984,407.62294699999984,407.62294699999984,407.62294699999984,407.62294699999984,407.62294699999984,,007,P007,2025_Feb_01_1024,ConditionRich,2021.2.3,59.93058839259402,
368.0,368.75,23,0.75,Stimuli/P007/things_bumper_04s.jpg,0,0.0,0.0,0,162,162,162,,,,,,,,,,,,,368.0080360000002,0.008036000000174681,None,410.8758468999995,410.8758468999995,410.8758468999995,410.8758468999995,410.8758468999995,410.8758468999995,410.8758468999995,410.8758468999995,410.8758468999995,410.8758468999995,,007,P007,2025_Feb_01_1024,ConditionRich,2021.2.3,59.93058839259402,
368.75,372.0,41,0.0,Stimuli/Blank.png,0,0.0,0.0,0,163,163,163,,,,,,,,,,,,,368.7755853000008,0.025585300000784628,None,411.6265120999997,411.6265120999997,411.6265120999997,411.6265120999997,411.6265120999997,411.6265120999997,411.6265120999997,411.6265120999997,411.6265120999997,411.6265120999997,,007,P007,2025_Feb_01_1024,ConditionRich,2021.2.3,59.93058839259402,
372.0,388.0,0,0.0,Stimuli/Blank.png,1,5.0,5.75,0,164,164,164,,,,,,,,,,,,,372.01076230000035,0.010762300000351388,2,414.8627029999998,414.8627029999998,414.8627029999998,414.8627029999998,414.8627029999998,414.8627029999998,419.85044839999955,420.60112019999997,414.8627029999998,414.8627029999998,5.344112800000403,007,P007,2025_Feb_01_1024,ConditionRich,2021.2.3,59.93058839259402,
