eventStartTime,eventEndTime,eventCond,imSize,imFile,responseEvent,fixRespStart,fixRespEnd,Events.thisRepN,Events.thisTrialN,Events.thisN,Events.thisIndex,Instructions.started,Instructions.stopped,participantReadyResponse.keys,participantReadyResponse.rt,participantReadyResponse.started,participantReadyResponse.stopped,startWaitforTrigger,triggerResponse.keys,triggerResponse.rt,triggerResponse.started,triggerResponse.stopped,globalTimer,actualStartTime,startTimingDiff,participantResponse.keys,participantResponse.started,participantResponse.stopped,image.started,image.stopped,fixationOutside.started,fixationOutside.stopped,fixationResponse.started,fixationResponse.stopped,fixationInside.started,fixationInside.stopped,participantResponse.rt,session,participant,date,expName,psychopyVersion,frameRate,
,,,,,,,,,,,,12.16002619999972,None,2,1.3592423000000053,12.16002619999972,None,,,,,,,,,,,,,,,,,,,,,002,P007,2025_Feb_01_0935,ConditionRich,2021.2.3,59.92674554628746,
,,,,,,,,,,,,,,,,,,13.531181699999706,5,12.726900999999998,13.54333859999997,None,,,,,,,,,,,,,,,,002,P007,2025_Feb_01_0935,ConditionRich,2021.2.3,59.92674554628746,
0.0,4.0,0,0.0,Stimuli/Blank.png,0,0,0.0,0,0,0,0,,,,,,,,,,,,26.273727699999654,0.04012349999993603,0.04012349999993603,None,26.338091899999654,None,26.338091899999654,None,26.338091899999654,None,26.338091899999654,26.338091899999654,26.338091899999654,None,,002,P007,2025_Feb_01_0935,ConditionRich,2021.2.3,59.92674554628746,
4.0,4.75,6,0.75,Stimuli/P007/sun_azpjjfwsbjdjcopb.jpg,0,0,0.0,0,1,1,1,,,,,,,,,,,,,4.023069599999872,0.02306959999987157,None,30.32515639999974,30.32515639999974,30.32515639999974,30.32515639999974,30.32515639999974,30.32515639999974,30.32515639999974,30.32515639999974,30.32515639999974,30.32515639999974,,002,P007,2025_Feb_01_0935,ConditionRich,2021.2.3,59.92674554628746,
4.75,5.0,41,0.0,Stimuli/Blank.png,0,0,0.0,0,2,2,2,,,,,,,,,,,,,4.771419799999876,0.021419799999875977,None,31.05915539999978,31.05915539999978,31.05915539999978,31.05915539999978,31.05915539999978,31.05915539999978,31.05915539999978,31.05915539999978,31.05915539999978,31.05915539999978,,002,P007,2025_Feb_01_0935,ConditionRich,2021.2.3,59.92674554628746,
5.0,5.75,6,0.75,Stimuli/P007/sun_azpjjfwsbjdjcopb.jpg,0,0,0.0,0,3,3,3,,,,,,,,,,,,,5.005605199999991,0.005605199999990873,None,31.309078699999645,31.309078699999645,31.309078699999645,31.309078699999645,31.309078699999645,31.309078699999645,31.309078699999645,31.309078699999645,31.309078699999645,31.309078699999645,,002,P007,2025_Feb_01_0935,ConditionRich,2021.2.3,59.92674554628746,
5.75,6.0,41,0.0,Stimuli/Blank.png,0,0,0.0,0,4,4,4,,,,,,,,,,,,,5.771634799999902,0.02163479999990159,None,32.05975709999984,32.05975709999984,32.05975709999984,32.05975709999984,32.05975709999984,32.05975709999984,32.05975709999984,32.05975709999984,32.05975709999984,32.05975709999984,,002,P007,2025_Feb_01_0935,ConditionRich,2021.2.3,59.92674554628746,
6.0,6.75,6,0.75,Stimuli/P007/sun_azpjjfwsbjdjcopb.jpg,1,0,0.75,0,5,5,5,,,,,,,,,,,,,6.005004799999824,0.005004799999824172,2,32.29329179999968,32.29329179999968,32.29329179999968,32.29329179999968,32.29329179999968,32.29329179999968,32.29329179999968,33.02730509999992,32.29329179999968,32.29329179999968,0.5968529000001581,002,P007,2025_Feb_01_0935,ConditionRich,2021.2.3,59.92674554628746,
6.75,7.0,41,0.0,Stimuli/Blank.png,0,0,0.0,0,6,6,6,,,,,,,,,,,,,6.756725299999744,0.006725299999743584,None,33.04400019999957,33.04400019999957,33.04400019999957,33.04400019999957,33.04400019999957,33.04400019999957,33.04400019999957,33.04400019999957,33.04400019999957,33.04400019999957,,002,P007,2025_Feb_01_0935,ConditionRich,2021.2.3,59.92674554628746,
7.0,7.75,6,0.75,Stimuli/P007/sun_azpjjfwsbjdjcopb.jpg,0,0,0.0,0,7,7,7,,,,,,,,,,,,,7.006213099999968,0.006213099999968108,None,33.294210199999725,33.294210199999725,33.294210199999725,33.294210199999725,33.294210199999725,33.294210199999725,33.294210199999725,33.294210199999725,33.294210199999725,33.294210199999725,,002,P007,2025_Feb_01_0935,ConditionRich,2021.2.3,59.92674554628746,
7.75,8.0,41,0.0,Stimuli/Blank.png,0,0,0.0,0,8,8,8,,,,,,,,,,,,,7.757175400000051,0.007175400000051013,None,34.044839299999694,34.044839299999694,34.044839299999694,34.044839299999694,34.044839299999694,34.044839299999694,34.044839299999694,34.044839299999694,34.044839299999694,34.044839299999694,,002,P007,2025_Feb_01_0935,ConditionRich,2021.2.3,59.92674554628746,
8.0,8.75,31,0.75,Stimuli/P007/things_jug_04s.jpg,0,0,0.0,0,9,9,9,,,,,,,,,,,,,8.006791699999667,0.006791699999666889,None,34.29503439999962,34.29503439999962,34.29503439999962,34.29503439999962,34.29503439999962,34.29503439999962,34.29503439999962,34.29503439999962,34.29503439999962,34.29503439999962,,002,P007,2025_Feb_01_0935,ConditionRich,2021.2.3,59.92674554628746,
8.75,9.0,41,0.0,Stimuli/Blank.png,0,0,0.0,0,10,10,10,,,,,,,,,,,,,8.757490499999676,0.0074904999996761035,None,35.04572250000001,35.04572250000001,35.04572250000001,35.04572250000001,35.04572250000001,35.04572250000001,35.04572250000001,35.04572250000001,35.04572250000001,35.04572250000001,,002,P007,2025_Feb_01_0935,ConditionRich,2021.2.3,59.92674554628746,
9.0,9.75,31,0.75,Stimuli/P007/things_jug_04s.jpg,0,0,0.0,0,11,11,11,,,,,,,,,,,,,9.0076825000001,0.007682500000100845,None,35.295942999999625,35.295942999999625,35.295942999999625,35.295942999999625,35.295942999999625,35.295942999999625,35.295942999999625,35.295942999999625,35.295942999999625,35.295942999999625,,002,P007,2025_Feb_01_0935,ConditionRich,2021.2.3,59.92674554628746,
9.75,10.0,41,0.0,Stimuli/Blank.png,0,0,0.0,0,12,12,12,,,,,,,,,,,,,9.759145199999693,0.009145199999693432,None,36.04662599999983,36.04662599999983,36.04662599999983,36.04662599999983,36.04662599999983,36.04662599999983,36.04662599999983,36.04662599999983,36.04662599999983,36.04662599999983,,002,P007,2025_Feb_01_0935,ConditionRich,2021.2.3,59.92674554628746,
10.0,10.75,31,0.75,Stimuli/P007/things_jug_04s.jpg,1,0,0.75,0,13,13,13,,,,,,,,,,,,,10.009302500000103,0.009302500000103464,2,36.31351119999999,36.31351119999999,36.31351119999999,36.31351119999999,36.31351119999999,36.31351119999999,36.31351119999999,37.030868199999986,36.31351119999999,36.31351119999999,0.33272729999998774,002,P007,2025_Feb_01_0935,ConditionRich,2021.2.3,59.92674554628746,
10.75,11.0,41,0.0,Stimuli/Blank.png,0,0,0.0,0,14,14,14,,,,,,,,,,,,,10.776632900000095,0.026632900000095105,None,37.06418450000001,37.06418450000001,37.06418450000001,37.06418450000001,37.06418450000001,37.06418450000001,37.06418450000001,37.06418450000001,37.06418450000001,37.06418450000001,,002,P007,2025_Feb_01_0935,ConditionRich,2021.2.3,59.92674554628746,
11.0,11.75,31,0.75,Stimuli/P007/things_jug_04s.jpg,0,0,0.0,0,15,15,15,,,,,,,,,,,,,11.010226299999886,0.010226299999885669,None,37.31439339999997,37.31439339999997,37.31439339999997,37.31439339999997,37.31439339999997,37.31439339999997,37.31439339999997,37.31439339999997,37.31439339999997,37.31439339999997,,002,P007,2025_Feb_01_0935,ConditionRich,2021.2.3,59.92674554628746,
11.75,12.0,41,0.0,Stimuli/Blank.png,0,0,0.0,0,16,16,16,,,,,,,,,,,,,11.776709400000072,0.026709400000072492,None,38.0650655999998,38.0650655999998,38.0650655999998,38.0650655999998,38.0650655999998,38.0650655999998,38.0650655999998,38.0650655999998,38.0650655999998,38.0650655999998,,002,P007,2025_Feb_01_0935,ConditionRich,2021.2.3,59.92674554628746,
12.0,12.75,28,0.75,Stimuli/P007/things_girl_04s.jpg,0,0,0.0,0,17,17,17,,,,,,,,,,,,,12.010366799999701,0.01036679999970147,None,38.29860629999985,38.29860629999985,38.29860629999985,38.29860629999985,38.29860629999985,38.29860629999985,38.29860629999985,38.29860629999985,38.29860629999985,38.29860629999985,,002,P007,2025_Feb_01_0935,ConditionRich,2021.2.3,59.92674554628746,
12.75,13.0,41,0.0,Stimuli/Blank.png,0,0,0.0,0,18,18,18,,,,,,,,,,,,,12.761802699999862,0.011802699999861943,None,39.049268499999926,39.049268499999926,39.049268499999926,39.049268499999926,39.049268499999926,39.049268499999926,39.049268499999926,39.049268499999926,39.049268499999926,39.049268499999926,,002,P007,2025_Feb_01_0935,ConditionRich,2021.2.3,59.92674554628746,
13.0,13.75,28,0.75,Stimuli/P007/things_girl_04s.jpg,0,0,0.0,0,19,19,19,,,,,,,,,,,,,13.012005099999897,0.012005099999896629,None,39.31618159999971,39.31618159999971,39.31618159999971,39.31618159999971,39.31618159999971,39.31618159999971,39.31618159999971,39.31618159999971,39.31618159999971,39.31618159999971,,002,P007,2025_Feb_01_0935,ConditionRich,2021.2.3,59.92674554628746,
13.75,14.0,41,0.0,Stimuli/Blank.png,0,0,0.0,0,20,20,20,,,,,,,,,,,,,13.778445599999941,0.028445599999940896,None,40.066831699999966,40.066831699999966,40.066831699999966,40.066831699999966,40.066831699999966,40.066831699999966,40.066831699999966,40.066831699999966,40.066831699999966,40.066831699999966,,002,P007,2025_Feb_01_0935,ConditionRich,2021.2.3,59.92674554628746,
14.0,14.75,28,0.75,Stimuli/P007/things_girl_04s.jpg,0,0,0.0,0,21,21,21,,,,,,,,,,,,,14.012001699999928,0.01200169999992795,None,40.30036949999976,40.30036949999976,40.30036949999976,40.30036949999976,40.30036949999976,40.30036949999976,40.30036949999976,40.30036949999976,40.30036949999976,40.30036949999976,,002,P007,2025_Feb_01_0935,ConditionRich,2021.2.3,59.92674554628746,
14.75,15.0,41,0.0,Stimuli/Blank.png,0,0,0.0,0,22,22,22,,,,,,,,,,,,,14.763469799999712,0.01346979999971154,None,41.05105089999961,41.05105089999961,41.05105089999961,41.05105089999961,41.05105089999961,41.05105089999961,41.05105089999961,41.05105089999961,41.05105089999961,41.05105089999961,,002,P007,2025_Feb_01_0935,ConditionRich,2021.2.3,59.92674554628746,
15.0,15.75,28,0.75,Stimuli/P007/things_girl_04s.jpg,0,0,0.0,0,23,23,23,,,,,,,,,,,,,15.01585040000009,0.015850400000090303,None,41.31794059999993,41.31794059999993,41.31794059999993,41.31794059999993,41.31794059999993,41.31794059999993,41.31794059999993,41.31794059999993,41.31794059999993,41.31794059999993,,002,P007,2025_Feb_01_0935,ConditionRich,2021.2.3,59.92674554628746,
15.75,16.0,41,0.0,Stimuli/Blank.png,0,0,0.0,0,24,24,24,,,,,,,,,,,,,15.766204600000037,0.016204600000037317,None,42.06862319999982,42.06862319999982,42.06862319999982,42.06862319999982,42.06862319999982,42.06862319999982,42.06862319999982,42.06862319999982,42.06862319999982,42.06862319999982,,002,P007,2025_Feb_01_0935,ConditionRich,2021.2.3,59.92674554628746,
16.0,16.75,3,0.75,Stimuli/P007/sun_aueftjhdwnvkbzlt.jpg,0,0,0.0,0,25,25,25,,,,,,,,,,,,,16.013773199999832,0.013773199999832286,None,42.31883139999991,42.31883139999991,42.31883139999991,42.31883139999991,42.31883139999991,42.31883139999991,42.31883139999991,42.31883139999991,42.31883139999991,42.31883139999991,,002,P007,2025_Feb_01_0935,ConditionRich,2021.2.3,59.92674554628746,
16.75,17.0,41,0.0,Stimuli/Blank.png,0,0,0.0,0,26,26,26,,,,,,,,,,,,,16.781776499999978,0.031776499999978114,None,43.06948799999964,43.06948799999964,43.06948799999964,43.06948799999964,43.06948799999964,43.06948799999964,43.06948799999964,43.06948799999964,43.06948799999964,43.06948799999964,,002,P007,2025_Feb_01_0935,ConditionRich,2021.2.3,59.92674554628746,
17.0,17.75,3,0.75,Stimuli/P007/sun_aueftjhdwnvkbzlt.jpg,0,0,0.0,0,27,27,27,,,,,,,,,,,,,17.01541109999971,0.015411099999710132,None,43.31970889999957,43.31970889999957,43.31970889999957,43.31970889999957,43.31970889999957,43.31970889999957,43.31970889999957,43.31970889999957,43.31970889999957,43.31970889999957,,002,P007,2025_Feb_01_0935,ConditionRich,2021.2.3,59.92674554628746,
17.75,18.0,41,0.0,Stimuli/Blank.png,0,0,0.0,0,28,28,28,,,,,,,,,,,,,17.76558249999971,0.015582499999709398,None,44.053691699999945,44.053691699999945,44.053691699999945,44.053691699999945,44.053691699999945,44.053691699999945,44.053691699999945,44.053691699999945,44.053691699999945,44.053691699999945,,002,P007,2025_Feb_01_0935,ConditionRich,2021.2.3,59.92674554628746,
18.0,18.75,3,0.75,Stimuli/P007/sun_aueftjhdwnvkbzlt.jpg,0,0,0.0,0,29,29,29,,,,,,,,,,,,,17.99907170000006,-0.0009282999999413732,None,44.28723869999976,44.28723869999976,44.28723869999976,44.28723869999976,44.28723869999976,44.28723869999976,44.28723869999976,44.28723869999976,44.28723869999976,44.28723869999976,,002,P007,2025_Feb_01_0935,ConditionRich,2021.2.3,59.92674554628746,
18.75,19.0,41,0.0,Stimuli/Blank.png,0,0,0.0,0,30,30,30,,,,,,,,,,,,,18.749551500000052,-0.0004484999999476713,None,45.03794059999973,45.03794059999973,45.03794059999973,45.03794059999973,45.03794059999973,45.03794059999973,45.03794059999973,45.03794059999973,45.03794059999973,45.03794059999973,,002,P007,2025_Feb_01_0935,ConditionRich,2021.2.3,59.92674554628746,
19.0,19.75,3,0.75,Stimuli/P007/sun_aueftjhdwnvkbzlt.jpg,0,0,0.0,0,31,31,31,,,,,,,,,,,,,19.001435700000002,0.001435700000001816,None,45.30481579999969,45.30481579999969,45.30481579999969,45.30481579999969,45.30481579999969,45.30481579999969,45.30481579999969,45.30481579999969,45.30481579999969,45.30481579999969,,002,P007,2025_Feb_01_0935,ConditionRich,2021.2.3,59.92674554628746,
19.75,20.0,41,0.0,Stimuli/Blank.png,0,0,0.0,0,32,32,32,,,,,,,,,,,,,19.767375999999786,0.017375999999785563,None,46.05546689999983,46.05546689999983,46.05546689999983,46.05546689999983,46.05546689999983,46.05546689999983,46.05546689999983,46.05546689999983,46.05546689999983,46.05546689999983,,002,P007,2025_Feb_01_0935,ConditionRich,2021.2.3,59.92674554628746,
20.0,20.75,17,0.75,Stimuli/P007/sun_bnsxdhbsafbdyncy.jpg,0,0,0.0,0,33,33,33,,,,,,,,,,,,,20.002339399999983,0.002339399999982561,None,46.305652299999565,46.305652299999565,46.305652299999565,46.305652299999565,46.305652299999565,46.305652299999565,46.305652299999565,46.305652299999565,46.305652299999565,46.305652299999565,,002,P007,2025_Feb_01_0935,ConditionRich,2021.2.3,59.92674554628746,
20.75,21.0,41,0.0,Stimuli/Blank.png,0,0,0.0,0,34,34,34,,,,,,,,,,,,,20.770982699999877,0.020982699999876786,None,47.07303699999966,47.07303699999966,47.07303699999966,47.07303699999966,47.07303699999966,47.07303699999966,47.07303699999966,47.07303699999966,47.07303699999966,47.07303699999966,,002,P007,2025_Feb_01_0935,ConditionRich,2021.2.3,59.92674554628746,
21.0,21.75,17,0.75,Stimuli/P007/sun_bnsxdhbsafbdyncy.jpg,0,0,0.0,0,35,35,35,,,,,,,,,,,,,21.020794600000045,0.02079460000004474,None,47.32326879999982,47.32326879999982,47.32326879999982,47.32326879999982,47.32326879999982,47.32326879999982,47.32326879999982,47.32326879999982,47.32326879999982,47.32326879999982,,002,P007,2025_Feb_01_0935,ConditionRich,2021.2.3,59.92674554628746,
21.75,22.0,41,0.0,Stimuli/Blank.png,0,0,0.0,0,36,36,36,,,,,,,,,,,,,21.77093620000005,0.02093620000005103,None,48.07392589999972,48.07392589999972,48.07392589999972,48.07392589999972,48.07392589999972,48.07392589999972,48.07392589999972,48.07392589999972,48.07392589999972,48.07392589999972,,002,P007,2025_Feb_01_0935,ConditionRich,2021.2.3,59.92674554628746,
22.0,22.75,17,0.75,Stimuli/P007/sun_bnsxdhbsafbdyncy.jpg,0,0,0.0,0,37,37,37,,,,,,,,,,,,,22.021135499999673,0.021135499999672902,None,48.32414279999966,48.32414279999966,48.32414279999966,48.32414279999966,48.32414279999966,48.32414279999966,48.32414279999966,48.32414279999966,48.32414279999966,48.32414279999966,,002,P007,2025_Feb_01_0935,ConditionRich,2021.2.3,59.92674554628746,
22.75,23.0,41,0.0,Stimuli/Blank.png,0,0,0.0,0,38,38,38,,,,,,,,,,,,,22.7699005999998,0.01990059999980076,None,49.05812359999982,49.05812359999982,49.05812359999982,49.05812359999982,49.05812359999982,49.05812359999982,49.05812359999982,49.05812359999982,49.05812359999982,49.05812359999982,,002,P007,2025_Feb_01_0935,ConditionRich,2021.2.3,59.92674554628746,
23.0,23.75,17,0.75,Stimuli/P007/sun_bnsxdhbsafbdyncy.jpg,0,0,0.0,0,39,39,39,,,,,,,,,,,,,23.00334819999989,0.0033481999998912215,None,49.291705399999955,49.291705399999955,49.291705399999955,49.291705399999955,49.291705399999955,49.291705399999955,49.291705399999955,49.291705399999955,49.291705399999955,49.291705399999955,,002,P007,2025_Feb_01_0935,ConditionRich,2021.2.3,59.92674554628746,
23.75,24.0,41,0.0,Stimuli/Blank.png,0,0,0.0,0,40,40,40,,,,,,,,,,,,,23.755491099999745,0.00549109999974462,None,50.04234079999969,50.04234079999969,50.04234079999969,50.04234079999969,50.04234079999969,50.04234079999969,50.04234079999969,50.04234079999969,50.04234079999969,50.04234079999969,,002,P007,2025_Feb_01_0935,ConditionRich,2021.2.3,59.92674554628746,
24.0,24.75,15,0.75,Stimuli/P007/sun_bmeductqpfkygtww.jpg,0,0,0.0,0,41,41,41,,,,,,,,,,,,,24.007049199999983,0.007049199999983102,None,50.30923109999958,50.30923109999958,50.30923109999958,50.30923109999958,50.30923109999958,50.30923109999958,50.30923109999958,50.30923109999958,50.30923109999958,50.30923109999958,,002,P007,2025_Feb_01_0935,ConditionRich,2021.2.3,59.92674554628746,
24.75,25.0,41,0.0,Stimuli/Blank.png,0,0,0.0,0,42,42,42,,,,,,,,,,,,,24.772086299999955,0.022086299999955372,None,51.05989199999976,51.05989199999976,51.05989199999976,51.05989199999976,51.05989199999976,51.05989199999976,51.05989199999976,51.05989199999976,51.05989199999976,51.05989199999976,,002,P007,2025_Feb_01_0935,ConditionRich,2021.2.3,59.92674554628746,
25.0,25.75,15,0.75,Stimuli/P007/sun_bmeductqpfkygtww.jpg,0,0,0.0,0,43,43,43,,,,,,,,,,,,,25.00579179999977,0.005791799999769864,None,51.29343579999977,51.29343579999977,51.29343579999977,51.29343579999977,51.29343579999977,51.29343579999977,51.29343579999977,51.29343579999977,51.29343579999977,51.29343579999977,,002,P007,2025_Feb_01_0935,ConditionRich,2021.2.3,59.92674554628746,
25.75,26.0,41,0.0,Stimuli/Blank.png,0,0,0.0,0,44,44,44,,,,,,,,,,,,,25.756392199999937,0.006392199999936565,None,52.04410109999981,52.04410109999981,52.04410109999981,52.04410109999981,52.04410109999981,52.04410109999981,52.04410109999981,52.04410109999981,52.04410109999981,52.04410109999981,,002,P007,2025_Feb_01_0935,ConditionRich,2021.2.3,59.92674554628746,
26.0,26.75,15,0.75,Stimuli/P007/sun_bmeductqpfkygtww.jpg,0,0,0.0,0,45,45,45,,,,,,,,,,,,,26.00726029999987,0.007260299999870767,None,52.31099610000001,52.31099610000001,52.31099610000001,52.31099610000001,52.31099610000001,52.31099610000001,52.31099610000001,52.31099610000001,52.31099610000001,52.31099610000001,,002,P007,2025_Feb_01_0935,ConditionRich,2021.2.3,59.92674554628746,
26.75,27.0,41,0.0,Stimuli/Blank.png,0,0,0.0,0,46,46,46,,,,,,,,,,,,,26.774175900000046,0.024175900000045658,None,53.061679899999945,53.061679899999945,53.061679899999945,53.061679899999945,53.061679899999945,53.061679899999945,53.061679899999945,53.061679899999945,53.061679899999945,53.061679899999945,,002,P007,2025_Feb_01_0935,ConditionRich,2021.2.3,59.92674554628746,
27.0,27.75,15,0.75,Stimuli/P007/sun_bmeductqpfkygtww.jpg,0,0,0.0,0,47,47,47,,,,,,,,,,,,,27.007020600000033,0.007020600000032573,None,53.295219899999665,53.295219899999665,53.295219899999665,53.295219899999665,53.295219899999665,53.295219899999665,53.295219899999665,53.295219899999665,53.295219899999665,53.295219899999665,,002,P007,2025_Feb_01_0935,ConditionRich,2021.2.3,59.92674554628746,
27.75,28.0,41,0.0,Stimuli/Blank.png,0,0,0.0,0,48,48,48,,,,,,,,,,,,,27.757646300000033,0.007646300000033079,None,54.045862399999805,54.045862399999805,54.045862399999805,54.045862399999805,54.045862399999805,54.045862399999805,54.045862399999805,54.045862399999805,54.045862399999805,54.045862399999805,,002,P007,2025_Feb_01_0935,ConditionRich,2021.2.3,59.92674554628746,
28.0,28.75,24,0.75,Stimuli/P007/things_collar_04s.jpg,0,0,0.0,0,49,49,49,,,,,,,,,,,,,28.008158099999946,0.008158099999945989,None,54.312799899999845,54.312799899999845,54.312799899999845,54.312799899999845,54.312799899999845,54.312799899999845,54.312799899999845,54.312799899999845,54.312799899999845,54.312799899999845,,002,P007,2025_Feb_01_0935,ConditionRich,2021.2.3,59.92674554628746,
28.75,29.0,41,0.0,Stimuli/Blank.png,0,0,0.0,0,50,50,50,,,,,,,,,,,,,28.775637299999744,0.025637299999743846,None,55.06343049999987,55.06343049999987,55.06343049999987,55.06343049999987,55.06343049999987,55.06343049999987,55.06343049999987,55.06343049999987,55.06343049999987,55.06343049999987,,002,P007,2025_Feb_01_0935,ConditionRich,2021.2.3,59.92674554628746,
29.0,29.75,24,0.75,Stimuli/P007/things_collar_04s.jpg,0,0,0.0,0,51,51,51,,,,,,,,,,,,,29.010954599999877,0.010954599999877246,None,55.31367319999981,55.31367319999981,55.31367319999981,55.31367319999981,55.31367319999981,55.31367319999981,55.31367319999981,55.31367319999981,55.31367319999981,55.31367319999981,,002,P007,2025_Feb_01_0935,ConditionRich,2021.2.3,59.92674554628746,
29.75,30.0,41,0.0,Stimuli/Blank.png,0,0,0.0,0,52,52,52,,,,,,,,,,,,,29.776611400000093,0.026611400000092544,None,56.06432649999988,56.06432649999988,56.06432649999988,56.06432649999988,56.06432649999988,56.06432649999988,56.06432649999988,56.06432649999988,56.06432649999988,56.06432649999988,,002,P007,2025_Feb_01_0935,ConditionRich,2021.2.3,59.92674554628746,
30.0,30.75,24,0.75,Stimuli/P007/things_collar_04s.jpg,0,0,0.0,0,53,53,53,,,,,,,,,,,,,30.009689099999832,0.009689099999832251,None,56.29786639999975,56.29786639999975,56.29786639999975,56.29786639999975,56.29786639999975,56.29786639999975,56.29786639999975,56.29786639999975,56.29786639999975,56.29786639999975,,002,P007,2025_Feb_01_0935,ConditionRich,2021.2.3,59.92674554628746,
30.75,31.0,41,0.0,Stimuli/Blank.png,0,0,0.0,0,54,54,54,,,,,,,,,,,,,30.761546299999736,0.01154629999973622,None,57.048535999999785,57.048535999999785,57.048535999999785,57.048535999999785,57.048535999999785,57.048535999999785,57.048535999999785,57.048535999999785,57.048535999999785,57.048535999999785,,002,P007,2025_Feb_01_0935,ConditionRich,2021.2.3,59.92674554628746,
31.0,31.75,24,0.75,Stimuli/P007/things_collar_04s.jpg,0,0,0.0,0,55,55,55,,,,,,,,,,,,,31.01071019999972,0.010710199999721226,None,57.29874319999999,57.29874319999999,57.29874319999999,57.29874319999999,57.29874319999999,57.29874319999999,57.29874319999999,57.29874319999999,57.29874319999999,57.29874319999999,,002,P007,2025_Feb_01_0935,ConditionRich,2021.2.3,59.92674554628746,
31.75,32.0,41,0.0,Stimuli/Blank.png,0,0,0.0,0,56,56,56,,,,,,,,,,,,,31.762616399999843,0.012616399999842542,None,58.04941179999969,58.04941179999969,58.04941179999969,58.04941179999969,58.04941179999969,58.04941179999969,58.04941179999969,58.04941179999969,58.04941179999969,58.04941179999969,,002,P007,2025_Feb_01_0935,ConditionRich,2021.2.3,59.92674554628746,
32.0,32.75,18,0.75,Stimuli/P007/sun_borgfidyubrwsuuw.jpg,0,0,0.0,0,57,57,57,,,,,,,,,,,,,32.01135549999981,0.011355499999808671,None,58.29964189999964,58.29964189999964,58.29964189999964,58.29964189999964,58.29964189999964,58.29964189999964,58.29964189999964,58.29964189999964,58.29964189999964,58.29964189999964,,002,P007,2025_Feb_01_0935,ConditionRich,2021.2.3,59.92674554628746,
32.75,33.0,41,0.0,Stimuli/Blank.png,0,0,0.0,0,58,58,58,,,,,,,,,,,,,32.76195969999981,0.011959699999806617,None,59.050293899999815,59.050293899999815,59.050293899999815,59.050293899999815,59.050293899999815,59.050293899999815,59.050293899999815,59.050293899999815,59.050293899999815,59.050293899999815,,002,P007,2025_Feb_01_0935,ConditionRich,2021.2.3,59.92674554628746,
33.0,33.75,18,0.75,Stimuli/P007/sun_borgfidyubrwsuuw.jpg,0,0,0.0,0,59,59,59,,,,,,,,,,,,,33.01268260000006,0.012682600000061939,None,59.30051649999996,59.30051649999996,59.30051649999996,59.30051649999996,59.30051649999996,59.30051649999996,59.30051649999996,59.30051649999996,59.30051649999996,59.30051649999996,,002,P007,2025_Feb_01_0935,ConditionRich,2021.2.3,59.92674554628746,
33.75,34.0,41,0.0,Stimuli/Blank.png,0,0,0.0,0,60,60,60,,,,,,,,,,,,,33.76333119999981,0.01333119999981136,None,60.05117659999996,60.05117659999996,60.05117659999996,60.05117659999996,60.05117659999996,60.05117659999996,60.05117659999996,60.05117659999996,60.05117659999996,60.05117659999996,,002,P007,2025_Feb_01_0935,ConditionRich,2021.2.3,59.92674554628746,
34.0,34.75,18,0.75,Stimuli/P007/sun_borgfidyubrwsuuw.jpg,0,0,0.0,0,61,61,61,,,,,,,,,,,,,34.01297339999974,0.012973399999737012,None,60.301400999999714,60.301400999999714,60.301400999999714,60.301400999999714,60.301400999999714,60.301400999999714,60.301400999999714,60.301400999999714,60.301400999999714,60.301400999999714,,002,P007,2025_Feb_01_0935,ConditionRich,2021.2.3,59.92674554628746,
34.75,35.0,41,0.0,Stimuli/Blank.png,0,0,0.0,0,62,62,62,,,,,,,,,,,,,34.76572989999977,0.01572989999976926,None,61.0687496999999,61.0687496999999,61.0687496999999,61.0687496999999,61.0687496999999,61.0687496999999,61.0687496999999,61.0687496999999,61.0687496999999,61.0687496999999,,002,P007,2025_Feb_01_0935,ConditionRich,2021.2.3,59.92674554628746,
35.0,35.75,18,0.75,Stimuli/P007/sun_borgfidyubrwsuuw.jpg,0,0,0.0,0,63,63,63,,,,,,,,,,,,,35.01460599999973,0.014605999999730557,None,61.30228659999966,61.30228659999966,61.30228659999966,61.30228659999966,61.30228659999966,61.30228659999966,61.30228659999966,61.30228659999966,61.30228659999966,61.30228659999966,,002,P007,2025_Feb_01_0935,ConditionRich,2021.2.3,59.92674554628746,
35.75,36.0,41,0.0,Stimuli/Blank.png,0,0,0.0,0,64,64,64,,,,,,,,,,,,,35.765303700000004,0.015303700000004028,None,62.052959199999805,62.052959199999805,62.052959199999805,62.052959199999805,62.052959199999805,62.052959199999805,62.052959199999805,62.052959199999805,62.052959199999805,62.052959199999805,,002,P007,2025_Feb_01_0935,ConditionRich,2021.2.3,59.92674554628746,
36.0,36.75,38,0.75,Stimuli/P007/things_rollerblade_04s.jpg,0,0,0.0,0,65,65,65,,,,,,,,,,,,,36.01550610000004,0.015506100000038714,None,62.30317439999999,62.30317439999999,62.30317439999999,62.30317439999999,62.30317439999999,62.30317439999999,62.30317439999999,62.30317439999999,62.30317439999999,62.30317439999999,,002,P007,2025_Feb_01_0935,ConditionRich,2021.2.3,59.92674554628746,
36.75,37.0,41,0.0,Stimuli/Blank.png,0,0,0.0,0,66,66,66,,,,,,,,,,,,,36.75102319999996,0.0010231999999632535,None,63.05384349999986,63.05384349999986,63.05384349999986,63.05384349999986,63.05384349999986,63.05384349999986,63.05384349999986,63.05384349999986,63.05384349999986,63.05384349999986,,002,P007,2025_Feb_01_0935,ConditionRich,2021.2.3,59.92674554628746,
37.0,37.75,38,0.75,Stimuli/P007/things_rollerblade_04s.jpg,0,0,0.0,0,67,67,67,,,,,,,,,,,,,37.01579390000006,0.015793900000062422,None,63.30405759999985,63.30405759999985,63.30405759999985,63.30405759999985,63.30405759999985,63.30405759999985,63.30405759999985,63.30405759999985,63.30405759999985,63.30405759999985,,002,P007,2025_Feb_01_0935,ConditionRich,2021.2.3,59.92674554628746,
37.75,38.0,41,0.0,Stimuli/Blank.png,0,0,0.0,0,68,68,68,,,,,,,,,,,,,37.752261499999804,0.002261499999804073,None,64.03806459999987,64.03806459999987,64.03806459999987,64.03806459999987,64.03806459999987,64.03806459999987,64.03806459999987,64.03806459999987,64.03806459999987,64.03806459999987,,002,P007,2025_Feb_01_0935,ConditionRich,2021.2.3,59.92674554628746,
38.0,38.75,38,0.75,Stimuli/P007/things_rollerblade_04s.jpg,0,0,0.0,0,69,69,69,,,,,,,,,,,,,38.0005943000001,0.0005943000001025212,None,64.28823019999982,64.28823019999982,64.28823019999982,64.28823019999982,64.28823019999982,64.28823019999982,64.28823019999982,64.28823019999982,64.28823019999982,64.28823019999982,,002,P007,2025_Feb_01_0935,ConditionRich,2021.2.3,59.92674554628746,
38.75,39.0,41,0.0,Stimuli/Blank.png,0,0,0.0,0,70,70,70,,,,,,,,,,,,,38.75121189999982,0.0012118999998165236,None,65.03893049999988,65.03893049999988,65.03893049999988,65.03893049999988,65.03893049999988,65.03893049999988,65.03893049999988,65.03893049999988,65.03893049999988,65.03893049999988,,002,P007,2025_Feb_01_0935,ConditionRich,2021.2.3,59.92674554628746,
39.0,39.75,38,0.75,Stimuli/P007/things_rollerblade_04s.jpg,0,0,0.0,0,71,71,71,,,,,,,,,,,,,39.00146739999991,0.0014673999999104126,None,65.30584829999998,65.30584829999998,65.30584829999998,65.30584829999998,65.30584829999998,65.30584829999998,65.30584829999998,65.30584829999998,65.30584829999998,65.30584829999998,,002,P007,2025_Feb_01_0935,ConditionRich,2021.2.3,59.92674554628746,
39.75,40.0,41,0.0,Stimuli/Blank.png,0,0,0.0,0,72,72,72,,,,,,,,,,,,,39.77118169999994,0.021181699999942794,None,66.07318039999973,66.07318039999973,66.07318039999973,66.07318039999973,66.07318039999973,66.07318039999973,66.07318039999973,66.07318039999973,66.07318039999973,66.07318039999973,,002,P007,2025_Feb_01_0935,ConditionRich,2021.2.3,59.92674554628746,
40.0,40.75,37,0.75,Stimuli/P007/things_praying_mantis_04s.jpg,0,0,0.0,0,73,73,73,,,,,,,,,,,,,40.018895899999734,0.018895899999733956,None,66.30671979999988,66.30671979999988,66.30671979999988,66.30671979999988,66.30671979999988,66.30671979999988,66.30671979999988,66.30671979999988,66.30671979999988,66.30671979999988,,002,P007,2025_Feb_01_0935,ConditionRich,2021.2.3,59.92674554628746,
40.75,41.0,41,0.0,Stimuli/Blank.png,0,0,0.0,0,74,74,74,,,,,,,,,,,,,40.753109700000095,0.003109700000095472,None,67.0407680999997,67.0407680999997,67.0407680999997,67.0407680999997,67.0407680999997,67.0407680999997,67.0407680999997,67.0407680999997,67.0407680999997,67.0407680999997,,002,P007,2025_Feb_01_0935,ConditionRich,2021.2.3,59.92674554628746,
41.0,41.75,37,0.75,Stimuli/P007/things_praying_mantis_04s.jpg,0,0,0.0,0,75,75,75,,,,,,,,,,,,,41.002692600000046,0.002692600000045786,None,67.29091749999998,67.29091749999998,67.29091749999998,67.29091749999998,67.29091749999998,67.29091749999998,67.29091749999998,67.29091749999998,67.29091749999998,67.29091749999998,,002,P007,2025_Feb_01_0935,ConditionRich,2021.2.3,59.92674554628746,
41.75,42.0,41,0.0,Stimuli/Blank.png,0,0,0.0,0,76,76,76,,,,,,,,,,,,,41.75366149999991,0.0036614999999073916,None,68.0416839999998,68.0416839999998,68.0416839999998,68.0416839999998,68.0416839999998,68.0416839999998,68.0416839999998,68.0416839999998,68.0416839999998,68.0416839999998,,002,P007,2025_Feb_01_0935,ConditionRich,2021.2.3,59.92674554628746,
42.0,42.75,37,0.75,Stimuli/P007/things_praying_mantis_04s.jpg,0,0,0.0,0,77,77,77,,,,,,,,,,,,,42.00422089999984,0.004220899999836547,None,68.30848179999975,68.30848179999975,68.30848179999975,68.30848179999975,68.30848179999975,68.30848179999975,68.30848179999975,68.30848179999975,68.30848179999975,68.30848179999975,,002,P007,2025_Feb_01_0935,ConditionRich,2021.2.3,59.92674554628746,
42.75,43.0,41,0.0,Stimuli/Blank.png,0,0,0.0,0,78,78,78,,,,,,,,,,,,,42.77193159999979,0.021931599999788887,None,69.05915449999975,69.05915449999975,69.05915449999975,69.05915449999975,69.05915449999975,69.05915449999975,69.05915449999975,69.05915449999975,69.05915449999975,69.05915449999975,,002,P007,2025_Feb_01_0935,ConditionRich,2021.2.3,59.92674554628746,
43.0,43.75,37,0.75,Stimuli/P007/things_praying_mantis_04s.jpg,0,0,0.0,0,79,79,79,,,,,,,,,,,,,43.006451599999764,0.006451599999763857,None,69.30937629999971,69.30937629999971,69.30937629999971,69.30937629999971,69.30937629999971,69.30937629999971,69.30937629999971,69.30937629999971,69.30937629999971,69.30937629999971,,002,P007,2025_Feb_01_0935,ConditionRich,2021.2.3,59.92674554628746,
43.75,44.0,41,0.0,Stimuli/Blank.png,0,0,0.0,0,80,80,80,,,,,,,,,,,,,43.77242239999987,0.022422399999868503,None,70.06003639999972,70.06003639999972,70.06003639999972,70.06003639999972,70.06003639999972,70.06003639999972,70.06003639999972,70.06003639999972,70.06003639999972,70.06003639999972,,002,P007,2025_Feb_01_0935,ConditionRich,2021.2.3,59.92674554628746,
44.0,44.75,39,0.75,Stimuli/P007/things_showerhead_04s.jpg,0,0,0.0,0,81,81,81,,,,,,,,,,,,,44.00590889999967,0.005908899999667483,None,70.29354189999958,70.29354189999958,70.29354189999958,70.29354189999958,70.29354189999958,70.29354189999958,70.29354189999958,70.29354189999958,70.29354189999958,70.29354189999958,,002,P007,2025_Feb_01_0935,ConditionRich,2021.2.3,59.92674554628746,
44.75,45.0,41,0.0,Stimuli/Blank.png,0,0,0.0,0,82,82,82,,,,,,,,,,,,,44.75743199999988,0.007431999999880645,None,71.04424859999972,71.04424859999972,71.04424859999972,71.04424859999972,71.04424859999972,71.04424859999972,71.04424859999972,71.04424859999972,71.04424859999972,71.04424859999972,,002,P007,2025_Feb_01_0935,ConditionRich,2021.2.3,59.92674554628746,
45.0,45.75,39,0.75,Stimuli/P007/things_showerhead_04s.jpg,0,0,0.0,0,83,83,83,,,,,,,,,,,,,45.006870700000036,0.0068707000000358676,None,71.29446879999978,71.29446879999978,71.29446879999978,71.29446879999978,71.29446879999978,71.29446879999978,71.29446879999978,71.29446879999978,71.29446879999978,71.29446879999978,,002,P007,2025_Feb_01_0935,ConditionRich,2021.2.3,59.92674554628746,
45.75,46.0,41,0.0,Stimuli/Blank.png,0,0,0.0,0,84,84,84,,,,,,,,,,,,,45.75698479999983,0.0069847999998273735,None,72.0451380999998,72.0451380999998,72.0451380999998,72.0451380999998,72.0451380999998,72.0451380999998,72.0451380999998,72.0451380999998,72.0451380999998,72.0451380999998,,002,P007,2025_Feb_01_0935,ConditionRich,2021.2.3,59.92674554628746,
46.0,46.75,39,0.75,Stimuli/P007/things_showerhead_04s.jpg,0,0,0.0,0,85,85,85,,,,,,,,,,,,,46.0076724999999,0.007672499999898719,None,72.29531629999974,72.29531629999974,72.29531629999974,72.29531629999974,72.29531629999974,72.29531629999974,72.29531629999974,72.29531629999974,72.29531629999974,72.29531629999974,,002,P007,2025_Feb_01_0935,ConditionRich,2021.2.3,59.92674554628746,
46.75,47.0,41,0.0,Stimuli/Blank.png,0,0,0.0,0,86,86,86,,,,,,,,,,,,,46.75878439999997,0.008784399999967718,None,73.04603909999969,73.04603909999969,73.04603909999969,73.04603909999969,73.04603909999969,73.04603909999969,73.04603909999969,73.04603909999969,73.04603909999969,73.04603909999969,,002,P007,2025_Feb_01_0935,ConditionRich,2021.2.3,59.92674554628746,
47.0,47.75,39,0.75,Stimuli/P007/things_showerhead_04s.jpg,0,0,0.0,0,87,87,87,,,,,,,,,,,,,47.0078825999999,0.007882599999902595,None,73.29622829999971,73.29622829999971,73.29622829999971,73.29622829999971,73.29622829999971,73.29622829999971,73.29622829999971,73.29622829999971,73.29622829999971,73.29622829999971,,002,P007,2025_Feb_01_0935,ConditionRich,2021.2.3,59.92674554628746,
47.75,48.0,41,0.0,Stimuli/Blank.png,0,0,0.0,0,88,88,88,,,,,,,,,,,,,47.760942200000045,0.010942200000044977,None,74.0636113999999,74.0636113999999,74.0636113999999,74.0636113999999,74.0636113999999,74.0636113999999,74.0636113999999,74.0636113999999,74.0636113999999,74.0636113999999,,002,P007,2025_Feb_01_0935,ConditionRich,2021.2.3,59.92674554628746,
48.0,48.75,7,0.75,Stimuli/P007/sun_babhwrqvnhanonuy.jpg,0,0,0.0,0,89,89,89,,,,,,,,,,,,,48.0261459999997,0.026145999999698688,None,74.31379759999982,74.31379759999982,74.31379759999982,74.31379759999982,74.31379759999982,74.31379759999982,74.31379759999982,74.31379759999982,74.31379759999982,74.31379759999982,,002,P007,2025_Feb_01_0935,ConditionRich,2021.2.3,59.92674554628746,
48.75,49.0,41,0.0,Stimuli/Blank.png,0,0,0.0,0,90,90,90,,,,,,,,,,,,,48.76039499999979,0.010394999999789434,None,75.04778449999958,75.04778449999958,75.04778449999958,75.04778449999958,75.04778449999958,75.04778449999958,75.04778449999958,75.04778449999958,75.04778449999958,75.04778449999958,,002,P007,2025_Feb_01_0935,ConditionRich,2021.2.3,59.92674554628746,
49.0,49.75,7,0.75,Stimuli/P007/sun_babhwrqvnhanonuy.jpg,0,0,0.0,0,91,91,91,,,,,,,,,,,,,49.010538,0.010537999999996828,None,75.29800109999996,75.29800109999996,75.29800109999996,75.29800109999996,75.29800109999996,75.29800109999996,75.29800109999996,75.29800109999996,75.29800109999996,75.29800109999996,,002,P007,2025_Feb_01_0935,ConditionRich,2021.2.3,59.92674554628746,
49.75,50.0,41,0.0,Stimuli/Blank.png,0,0,0.0,0,92,92,92,,,,,,,,,,,,,49.762408199999754,0.012408199999754288,None,76.0486791999997,76.0486791999997,76.0486791999997,76.0486791999997,76.0486791999997,76.0486791999997,76.0486791999997,76.0486791999997,76.0486791999997,76.0486791999997,,002,P007,2025_Feb_01_0935,ConditionRich,2021.2.3,59.92674554628746,
50.0,50.75,7,0.75,Stimuli/P007/sun_babhwrqvnhanonuy.jpg,0,0,0.0,0,93,93,93,,,,,,,,,,,,,50.01061159999972,0.010611599999720056,None,76.29889869999988,76.29889869999988,76.29889869999988,76.29889869999988,76.29889869999988,76.29889869999988,76.29889869999988,76.29889869999988,76.29889869999988,76.29889869999988,,002,P007,2025_Feb_01_0935,ConditionRich,2021.2.3,59.92674554628746,
50.75,51.0,41,0.0,Stimuli/Blank.png,0,0,0.0,0,94,94,94,,,,,,,,,,,,,50.761318500000016,0.011318500000015774,None,77.04955059999975,77.04955059999975,77.04955059999975,77.04955059999975,77.04955059999975,77.04955059999975,77.04955059999975,77.04955059999975,77.04955059999975,77.04955059999975,,002,P007,2025_Feb_01_0935,ConditionRich,2021.2.3,59.92674554628746,
51.0,51.75,7,0.75,Stimuli/P007/sun_babhwrqvnhanonuy.jpg,0,0,0.0,0,95,95,95,,,,,,,,,,,,,51.011801000000105,0.011801000000104978,None,77.2997733999996,77.2997733999996,77.2997733999996,77.2997733999996,77.2997733999996,77.2997733999996,77.2997733999996,77.2997733999996,77.2997733999996,77.2997733999996,,002,P007,2025_Feb_01_0935,ConditionRich,2021.2.3,59.92674554628746,
51.75,52.0,41,0.0,Stimuli/Blank.png,0,0,0.0,0,96,96,96,,,,,,,,,,,,,51.76264749999973,0.012647499999729916,None,78.05043839999962,78.05043839999962,78.05043839999962,78.05043839999962,78.05043839999962,78.05043839999962,78.05043839999962,78.05043839999962,78.05043839999962,78.05043839999962,,002,P007,2025_Feb_01_0935,ConditionRich,2021.2.3,59.92674554628746,
52.0,52.75,10,0.75,Stimuli/P007/sun_bdekcgnlcicvgpvq.jpg,0,0,0.0,0,97,97,97,,,,,,,,,,,,,52.01288260000001,0.012882600000011735,None,78.31735069999968,78.31735069999968,78.31735069999968,78.31735069999968,78.31735069999968,78.31735069999968,78.31735069999968,78.31735069999968,78.31735069999968,78.31735069999968,,002,P007,2025_Feb_01_0935,ConditionRich,2021.2.3,59.92674554628746,
52.75,53.0,41,0.0,Stimuli/Blank.png,0,0,0.0,0,98,98,98,,,,,,,,,,,,,52.78132229999983,0.03132229999982883,None,79.06804189999957,79.06804189999957,79.06804189999957,79.06804189999957,79.06804189999957,79.06804189999957,79.06804189999957,79.06804189999957,79.06804189999957,79.06804189999957,,002,P007,2025_Feb_01_0935,ConditionRich,2021.2.3,59.92674554628746,
53.0,53.75,10,0.75,Stimuli/P007/sun_bdekcgnlcicvgpvq.jpg,0,0,0.0,0,99,99,99,,,,,,,,,,,,,53.01335029999973,0.013350299999729032,None,79.30154509999966,79.30154509999966,79.30154509999966,79.30154509999966,79.30154509999966,79.30154509999966,79.30154509999966,79.30154509999966,79.30154509999966,79.30154509999966,,002,P007,2025_Feb_01_0935,ConditionRich,2021.2.3,59.92674554628746,
53.75,54.0,41,0.0,Stimuli/Blank.png,0,0,0.0,0,100,100,100,,,,,,,,,,,,,53.766064299999925,0.016064299999925424,None,80.06889249999995,80.06889249999995,80.06889249999995,80.06889249999995,80.06889249999995,80.06889249999995,80.06889249999995,80.06889249999995,80.06889249999995,80.06889249999995,,002,P007,2025_Feb_01_0935,ConditionRich,2021.2.3,59.92674554628746,
54.0,54.75,10,0.75,Stimuli/P007/sun_bdekcgnlcicvgpvq.jpg,0,0,0.0,0,101,101,101,,,,,,,,,,,,,54.014588900000035,0.01458890000003521,None,80.30245459999969,80.30245459999969,80.30245459999969,80.30245459999969,80.30245459999969,80.30245459999969,80.30245459999969,80.30245459999969,80.30245459999969,80.30245459999969,,002,P007,2025_Feb_01_0935,ConditionRich,2021.2.3,59.92674554628746,
54.75,55.0,41,0.0,Stimuli/Blank.png,0,0,0.0,0,102,102,102,,,,,,,,,,,,,54.76571669999976,0.01571669999975711,None,81.05310199999985,81.05310199999985,81.05310199999985,81.05310199999985,81.05310199999985,81.05310199999985,81.05310199999985,81.05310199999985,81.05310199999985,81.05310199999985,,002,P007,2025_Feb_01_0935,ConditionRich,2021.2.3,59.92674554628746,
55.0,55.75,10,0.75,Stimuli/P007/sun_bdekcgnlcicvgpvq.jpg,0,0,0.0,0,103,103,103,,,,,,,,,,,,,54.99914929999977,-0.0008507000002282439,None,81.3033349999996,81.3033349999996,81.3033349999996,81.3033349999996,81.3033349999996,81.3033349999996,81.3033349999996,81.3033349999996,81.3033349999996,81.3033349999996,,002,P007,2025_Feb_01_0935,ConditionRich,2021.2.3,59.92674554628746,
55.75,56.0,41,0.0,Stimuli/Blank.png,0,0,0.0,0,104,104,104,,,,,,,,,,,,,55.76639720000003,0.016397200000028533,None,82.05398659999992,82.05398659999992,82.05398659999992,82.05398659999992,82.05398659999992,82.05398659999992,82.05398659999992,82.05398659999992,82.05398659999992,82.05398659999992,,002,P007,2025_Feb_01_0935,ConditionRich,2021.2.3,59.92674554628746,
56.0,56.75,20,0.75,Stimuli/P007/sun_btrxtfbwtggtrpfv.jpg,0,0,0.0,0,105,105,105,,,,,,,,,,,,,56.00191610000002,0.0019161000000167405,None,82.30420289999984,82.30420289999984,82.30420289999984,82.30420289999984,82.30420289999984,82.30420289999984,82.30420289999984,82.30420289999984,82.30420289999984,82.30420289999984,,002,P007,2025_Feb_01_0935,ConditionRich,2021.2.3,59.92674554628746,
56.75,57.0,41,0.0,Stimuli/Blank.png,0,0,0.0,0,106,106,106,,,,,,,,,,,,,56.76663000000008,0.016630000000077416,None,83.05486789999986,83.05486789999986,83.05486789999986,83.05486789999986,83.05486789999986,83.05486789999986,83.05486789999986,83.05486789999986,83.05486789999986,83.05486789999986,,002,P007,2025_Feb_01_0935,ConditionRich,2021.2.3,59.92674554628746,
57.0,57.75,20,0.75,Stimuli/P007/sun_btrxtfbwtggtrpfv.jpg,0,0,0.0,0,107,107,107,,,,,,,,,,,,,57.00078140000005,0.0007814000000507804,None,83.30507779999971,83.30507779999971,83.30507779999971,83.30507779999971,83.30507779999971,83.30507779999971,83.30507779999971,83.30507779999971,83.30507779999971,83.30507779999971,,002,P007,2025_Feb_01_0935,ConditionRich,2021.2.3,59.92674554628746,
57.75,58.0,41,0.0,Stimuli/Blank.png,0,0,0.0,0,108,108,108,,,,,,,,,,,,,57.767491900000095,0.017491900000095484,None,84.05574819999993,84.05574819999993,84.05574819999993,84.05574819999993,84.05574819999993,84.05574819999993,84.05574819999993,84.05574819999993,84.05574819999993,84.05574819999993,,002,P007,2025_Feb_01_0935,ConditionRich,2021.2.3,59.92674554628746,
58.0,58.75,20,0.75,Stimuli/P007/sun_btrxtfbwtggtrpfv.jpg,0,0,0.0,0,109,109,109,,,,,,,,,,,,,58.00195459999986,0.001954599999862694,None,84.30596549999973,84.30596549999973,84.30596549999973,84.30596549999973,84.30596549999973,84.30596549999973,84.30596549999973,84.30596549999973,84.30596549999973,84.30596549999973,,002,P007,2025_Feb_01_0935,ConditionRich,2021.2.3,59.92674554628746,
58.75,59.0,41,0.0,Stimuli/Blank.png,0,0,0.0,0,110,110,110,,,,,,,,,,,,,58.76824339999985,0.018243399999846588,None,85.05663399999958,85.05663399999958,85.05663399999958,85.05663399999958,85.05663399999958,85.05663399999958,85.05663399999958,85.05663399999958,85.05663399999958,85.05663399999958,,002,P007,2025_Feb_01_0935,ConditionRich,2021.2.3,59.92674554628746,
59.0,59.75,20,0.75,Stimuli/P007/sun_btrxtfbwtggtrpfv.jpg,0,0,0.0,0,111,111,111,,,,,,,,,,,,,59.00262440000006,0.002624400000058813,None,85.2901823999996,85.2901823999996,85.2901823999996,85.2901823999996,85.2901823999996,85.2901823999996,85.2901823999996,85.2901823999996,85.2901823999996,85.2901823999996,,002,P007,2025_Feb_01_0935,ConditionRich,2021.2.3,59.92674554628746,
59.75,60.0,41,0.0,Stimuli/Blank.png,0,0,0.0,0,112,112,112,,,,,,,,,,,,,59.75245719999975,0.0024571999997533567,None,86.04084579999972,86.04084579999972,86.04084579999972,86.04084579999972,86.04084579999972,86.04084579999972,86.04084579999972,86.04084579999972,86.04084579999972,86.04084579999972,,002,P007,2025_Feb_01_0935,ConditionRich,2021.2.3,59.92674554628746,
60.0,60.75,23,0.75,Stimuli/P007/things_bumper_04s.jpg,0,0,0.0,0,113,113,113,,,,,,,,,,,,,60.00349580000011,0.003495800000109739,None,86.30774909999991,86.30774909999991,86.30774909999991,86.30774909999991,86.30774909999991,86.30774909999991,86.30774909999991,86.30774909999991,86.30774909999991,86.30774909999991,,002,P007,2025_Feb_01_0935,ConditionRich,2021.2.3,59.92674554628746,
60.75,61.0,41,0.0,Stimuli/Blank.png,0,0,0.0,0,114,114,114,,,,,,,,,,,,,60.770351899999696,0.020351899999695888,None,87.0584144999998,87.0584144999998,87.0584144999998,87.0584144999998,87.0584144999998,87.0584144999998,87.0584144999998,87.0584144999998,87.0584144999998,87.0584144999998,,002,P007,2025_Feb_01_0935,ConditionRich,2021.2.3,59.92674554628746,
61.0,61.75,23,0.75,Stimuli/P007/things_bumper_04s.jpg,0,0,0.0,0,115,115,115,,,,,,,,,,,,,61.00586350000003,0.005863500000032218,None,87.30862869999964,87.30862869999964,87.30862869999964,87.30862869999964,87.30862869999964,87.30862869999964,87.30862869999964,87.30862869999964,87.30862869999964,87.30862869999964,,002,P007,2025_Feb_01_0935,ConditionRich,2021.2.3,59.92674554628746,
61.75,62.0,41,0.0,Stimuli/Blank.png,0,0,0.0,0,116,116,116,,,,,,,,,,,,,61.772102800000084,0.022102800000084244,None,88.05930109999963,88.05930109999963,88.05930109999963,88.05930109999963,88.05930109999963,88.05930109999963,88.05930109999963,88.05930109999963,88.05930109999963,88.05930109999963,,002,P007,2025_Feb_01_0935,ConditionRich,2021.2.3,59.92674554628746,
62.0,62.75,23,0.75,Stimuli/P007/things_bumper_04s.jpg,1,0,0.75,0,117,117,117,,,,,,,,,,,,,62.0072111999998,0.007211199999801465,2,88.30951589999995,88.30951589999995,88.30951589999995,88.30951589999995,88.30951589999995,88.30951589999995,88.30951589999995,89.043498,88.30951589999995,88.30951589999995,0.3506431999999222,002,P007,2025_Feb_01_0935,ConditionRich,2021.2.3,59.92674554628746,
62.75,63.0,41,0.0,Stimuli/Blank.png,0,0,0.0,0,118,118,118,,,,,,,,,,,,,62.772643400000106,0.02264340000010634,None,89.06017689999999,89.06017689999999,89.06017689999999,89.06017689999999,89.06017689999999,89.06017689999999,89.06017689999999,89.06017689999999,89.06017689999999,89.06017689999999,,002,P007,2025_Feb_01_0935,ConditionRich,2021.2.3,59.92674554628746,
63.0,63.75,23,0.75,Stimuli/P007/things_bumper_04s.jpg,0,0,0.0,0,119,119,119,,,,,,,,,,,,,63.006620199999816,0.006620199999815668,None,89.31040109999958,89.31040109999958,89.31040109999958,89.31040109999958,89.31040109999958,89.31040109999958,89.31040109999958,89.31040109999958,89.31040109999958,89.31040109999958,,002,P007,2025_Feb_01_0935,ConditionRich,2021.2.3,59.92674554628746,
63.75,64.0,41,0.0,Stimuli/Blank.png,0,0,0.0,0,120,120,120,,,,,,,,,,,,,63.772679700000026,0.02267970000002606,None,90.0610643,90.0610643,90.0610643,90.0610643,90.0610643,90.0610643,90.0610643,90.0610643,90.0610643,90.0610643,,002,P007,2025_Feb_01_0935,ConditionRich,2021.2.3,59.92674554628746,
64.0,64.75,14,0.75,Stimuli/P007/sun_bkvjqgmploznrhxt.jpg,0,0,0.0,0,121,121,121,,,,,,,,,,,,,64.00652510000009,0.0065251000000898784,None,90.29461039999978,90.29461039999978,90.29461039999978,90.29461039999978,90.29461039999978,90.29461039999978,90.29461039999978,90.29461039999978,90.29461039999978,90.29461039999978,,002,P007,2025_Feb_01_0935,ConditionRich,2021.2.3,59.92674554628746,
64.75,65.0,41,0.0,Stimuli/Blank.png,0,0,0.0,0,122,122,122,,,,,,,,,,,,,64.75773879999997,0.00773879999997007,None,91.04542049999964,91.04542049999964,91.04542049999964,91.04542049999964,91.04542049999964,91.04542049999964,91.04542049999964,91.04542049999964,91.04542049999964,91.04542049999964,,002,P007,2025_Feb_01_0935,ConditionRich,2021.2.3,59.92674554628746,
65.0,65.75,14,0.75,Stimuli/P007/sun_bkvjqgmploznrhxt.jpg,0,0,0.0,0,123,123,123,,,,,,,,,,,,,65.00712350000003,0.007123500000034255,None,91.29548449999993,91.29548449999993,91.29548449999993,91.29548449999993,91.29548449999993,91.29548449999993,91.29548449999993,91.29548449999993,91.29548449999993,91.29548449999993,,002,P007,2025_Feb_01_0935,ConditionRich,2021.2.3,59.92674554628746,
65.75,66.0,41,0.0,Stimuli/Blank.png,0,0,0.0,0,124,124,124,,,,,,,,,,,,,65.75860639999974,0.008606399999735004,None,92.04625159999978,92.04625159999978,92.04625159999978,92.04625159999978,92.04625159999978,92.04625159999978,92.04625159999978,92.04625159999978,92.04625159999978,92.04625159999978,,002,P007,2025_Feb_01_0935,ConditionRich,2021.2.3,59.92674554628746,
66.0,66.75,14,0.75,Stimuli/P007/sun_bkvjqgmploznrhxt.jpg,0,0,0.0,0,125,125,125,,,,,,,,,,,,,66.00801069999989,0.008010699999886128,None,92.29638099999966,92.29638099999966,92.29638099999966,92.29638099999966,92.29638099999966,92.29638099999966,92.29638099999966,92.29638099999966,92.29638099999966,92.29638099999966,,002,P007,2025_Feb_01_0935,ConditionRich,2021.2.3,59.92674554628746,
66.75,67.0,41,0.0,Stimuli/Blank.png,0,0,0.0,0,126,126,126,,,,,,,,,,,,,66.75891939999974,0.008919399999740563,None,93.04711369999995,93.04711369999995,93.04711369999995,93.04711369999995,93.04711369999995,93.04711369999995,93.04711369999995,93.04711369999995,93.04711369999995,93.04711369999995,,002,P007,2025_Feb_01_0935,ConditionRich,2021.2.3,59.92674554628746,
67.0,67.75,14,0.75,Stimuli/P007/sun_bkvjqgmploznrhxt.jpg,0,0,0.0,0,127,127,127,,,,,,,,,,,,,67.01184979999971,0.011849799999708921,None,93.31394109999974,93.31394109999974,93.31394109999974,93.31394109999974,93.31394109999974,93.31394109999974,93.31394109999974,93.31394109999974,93.31394109999974,93.31394109999974,,002,P007,2025_Feb_01_0935,ConditionRich,2021.2.3,59.92674554628746,
67.75,68.0,41,0.0,Stimuli/Blank.png,0,0,0.0,0,128,128,128,,,,,,,,,,,,,67.77638750000006,0.026387500000055297,None,94.06460819999984,94.06460819999984,94.06460819999984,94.06460819999984,94.06460819999984,94.06460819999984,94.06460819999984,94.06460819999984,94.06460819999984,94.06460819999984,,002,P007,2025_Feb_01_0935,ConditionRich,2021.2.3,59.92674554628746,
68.0,68.75,2,0.75,Stimuli/P007/sun_ajyzloqaptmicnfr.jpg,0,0,0.0,0,129,129,129,,,,,,,,,,,,,68.0103181999998,0.010318199999801436,None,94.29814659999965,94.29814659999965,94.29814659999965,94.29814659999965,94.29814659999965,94.29814659999965,94.29814659999965,94.29814659999965,94.29814659999965,94.29814659999965,,002,P007,2025_Feb_01_0935,ConditionRich,2021.2.3,59.92674554628746,
68.75,69.0,41,0.0,Stimuli/Blank.png,0,0,0.0,0,130,130,130,,,,,,,,,,,,,68.76112049999983,0.011120499999833555,None,95.04881589999968,95.04881589999968,95.04881589999968,95.04881589999968,95.04881589999968,95.04881589999968,95.04881589999968,95.04881589999968,95.04881589999968,95.04881589999968,,002,P007,2025_Feb_01_0935,ConditionRich,2021.2.3,59.92674554628746,
69.0,69.75,2,0.75,Stimuli/P007/sun_ajyzloqaptmicnfr.jpg,0,0,0.0,0,131,131,131,,,,,,,,,,,,,69.01074059999974,0.010740599999735423,None,95.29903389999981,95.29903389999981,95.29903389999981,95.29903389999981,95.29903389999981,95.29903389999981,95.29903389999981,95.29903389999981,95.29903389999981,95.29903389999981,,002,P007,2025_Feb_01_0935,ConditionRich,2021.2.3,59.92674554628746,
69.75,70.0,41,0.0,Stimuli/Blank.png,0,0,0.0,0,132,132,132,,,,,,,,,,,,,69.76205249999975,0.012052499999754218,None,96.04970579999963,96.04970579999963,96.04970579999963,96.04970579999963,96.04970579999963,96.04970579999963,96.04970579999963,96.04970579999963,96.04970579999963,96.04970579999963,,002,P007,2025_Feb_01_0935,ConditionRich,2021.2.3,59.92674554628746,
70.0,70.75,2,0.75,Stimuli/P007/sun_ajyzloqaptmicnfr.jpg,0,0,0.0,0,133,133,133,,,,,,,,,,,,,70.01163439999982,0.011634399999820744,None,96.29991749999999,96.29991749999999,96.29991749999999,96.29991749999999,96.29991749999999,96.29991749999999,96.29991749999999,96.29991749999999,96.29991749999999,96.29991749999999,,002,P007,2025_Feb_01_0935,ConditionRich,2021.2.3,59.92674554628746,
70.75,71.0,41,0.0,Stimuli/Blank.png,0,0,0.0,0,134,134,134,,,,,,,,,,,,,70.7624737000001,0.012473700000100507,None,97.05057749999969,97.05057749999969,97.05057749999969,97.05057749999969,97.05057749999969,97.05057749999969,97.05057749999969,97.05057749999969,97.05057749999969,97.05057749999969,,002,P007,2025_Feb_01_0935,ConditionRich,2021.2.3,59.92674554628746,
71.0,71.75,2,0.75,Stimuli/P007/sun_ajyzloqaptmicnfr.jpg,0,0,0.0,0,135,135,135,,,,,,,,,,,,,71.01281089999975,0.012810899999749381,None,97.3008004999997,97.3008004999997,97.3008004999997,97.3008004999997,97.3008004999997,97.3008004999997,97.3008004999997,97.3008004999997,97.3008004999997,97.3008004999997,,002,P007,2025_Feb_01_0935,ConditionRich,2021.2.3,59.92674554628746,
71.75,72.0,41,0.0,Stimuli/Blank.png,0,0,0.0,0,136,136,136,,,,,,,,,,,,,71.7630750999997,0.01307509999969625,None,98.05143899999985,98.05143899999985,98.05143899999985,98.05143899999985,98.05143899999985,98.05143899999985,98.05143899999985,98.05143899999985,98.05143899999985,98.05143899999985,,002,P007,2025_Feb_01_0935,ConditionRich,2021.2.3,59.92674554628746,
72.0,72.75,36,0.75,Stimuli/P007/things_platypus_04s.jpg,0,0,0.0,0,137,137,137,,,,,,,,,,,,,72.0135892999997,0.013589299999694049,None,98.31837609999957,98.31837609999957,98.31837609999957,98.31837609999957,98.31837609999957,98.31837609999957,98.31837609999957,98.31837609999957,98.31837609999957,98.31837609999957,,002,P007,2025_Feb_01_0935,ConditionRich,2021.2.3,59.92674554628746,
72.75,73.0,41,0.0,Stimuli/Blank.png,0,0,0.0,0,138,138,138,,,,,,,,,,,,,72.78088389999994,0.030883899999935238,None,99.06903749999992,99.06903749999992,99.06903749999992,99.06903749999992,99.06903749999992,99.06903749999992,99.06903749999992,99.06903749999992,99.06903749999992,99.06903749999992,,002,P007,2025_Feb_01_0935,ConditionRich,2021.2.3,59.92674554628746,
73.0,73.75,36,0.75,Stimuli/P007/things_platypus_04s.jpg,0,0,0.0,0,139,139,139,,,,,,,,,,,,,73.0175847999999,0.01758479999989504,None,99.31925499999988,99.31925499999988,99.31925499999988,99.31925499999988,99.31925499999988,99.31925499999988,99.31925499999988,99.31925499999988,99.31925499999988,99.31925499999988,,002,P007,2025_Feb_01_0935,ConditionRich,2021.2.3,59.92674554628746,
73.75,74.0,41,0.0,Stimuli/Blank.png,0,0,0.0,0,140,140,140,,,,,,,,,,,,,73.76567320000004,0.01567320000003747,None,100.05324399999972,100.05324399999972,100.05324399999972,100.05324399999972,100.05324399999972,100.05324399999972,100.05324399999972,100.05324399999972,100.05324399999972,100.05324399999972,,002,P007,2025_Feb_01_0935,ConditionRich,2021.2.3,59.92674554628746,
74.0,74.75,36,0.75,Stimuli/P007/things_platypus_04s.jpg,1,0,0.75,0,141,141,141,,,,,,,,,,,,,73.99936179999986,-0.0006382000001394772,2,100.30347669999992,100.30347669999992,100.30347669999992,100.30347669999992,100.30347669999992,100.30347669999992,100.30347669999992,101.02074670000002,100.30347669999992,100.30347669999992,0.3719882000000325,002,P007,2025_Feb_01_0935,ConditionRich,2021.2.3,59.92674554628746,
74.75,75.0,41,0.0,Stimuli/Blank.png,0,0,0.0,0,142,142,142,,,,,,,,,,,,,74.76647839999987,0.016478399999868998,None,101.0541218999997,101.0541218999997,101.0541218999997,101.0541218999997,101.0541218999997,101.0541218999997,101.0541218999997,101.0541218999997,101.0541218999997,101.0541218999997,,002,P007,2025_Feb_01_0935,ConditionRich,2021.2.3,59.92674554628746,
75.0,75.75,36,0.75,Stimuli/P007/things_platypus_04s.jpg,0,0,0.0,0,143,143,143,,,,,,,,,,,,,75.00040639999997,0.0004063999999743828,None,101.30433709999988,101.30433709999988,101.30433709999988,101.30433709999988,101.30433709999988,101.30433709999988,101.30433709999988,101.30433709999988,101.30433709999988,101.30433709999988,,002,P007,2025_Feb_01_0935,ConditionRich,2021.2.3,59.92674554628746,
75.75,76.0,41,0.0,Stimuli/Blank.png,0,0,0.0,0,144,144,144,,,,,,,,,,,,,75.76668070000005,0.01668070000005173,None,102.05500379999967,102.05500379999967,102.05500379999967,102.05500379999967,102.05500379999967,102.05500379999967,102.05500379999967,102.05500379999967,102.05500379999967,102.05500379999967,,002,P007,2025_Feb_01_0935,ConditionRich,2021.2.3,59.92674554628746,
76.0,76.75,32,0.75,Stimuli/P007/things_maggot_04s.jpg,0,0,0.0,0,145,145,145,,,,,,,,,,,,,76.00050929999998,0.000509299999976065,None,102.28850889999967,102.28850889999967,102.28850889999967,102.28850889999967,102.28850889999967,102.28850889999967,102.28850889999967,102.28850889999967,102.28850889999967,102.28850889999967,,002,P007,2025_Feb_01_0935,ConditionRich,2021.2.3,59.92674554628746,
76.75,77.0,41,0.0,Stimuli/Blank.png,0,0,0.0,0,146,146,146,,,,,,,,,,,,,76.75226840000005,0.002268400000048132,None,103.03920999999991,103.03920999999991,103.03920999999991,103.03920999999991,103.03920999999991,103.03920999999991,103.03920999999991,103.03920999999991,103.03920999999991,103.03920999999991,,002,P007,2025_Feb_01_0935,ConditionRich,2021.2.3,59.92674554628746,
77.0,77.75,32,0.75,Stimuli/P007/things_maggot_04s.jpg,0,0,0.0,0,147,147,147,,,,,,,,,,,,,77.00173469999982,0.0017346999998153478,None,103.30612099999962,103.30612099999962,103.30612099999962,103.30612099999962,103.30612099999962,103.30612099999962,103.30612099999962,103.30612099999962,103.30612099999962,103.30612099999962,,002,P007,2025_Feb_01_0935,ConditionRich,2021.2.3,59.92674554628746,
77.75,78.0,41,0.0,Stimuli/Blank.png,0,0,0.0,0,148,148,148,,,,,,,,,,,,,77.76841179999974,0.018411799999739742,None,104.05684839999958,104.05684839999958,104.05684839999958,104.05684839999958,104.05684839999958,104.05684839999958,104.05684839999958,104.05684839999958,104.05684839999958,104.05684839999958,,002,P007,2025_Feb_01_0935,ConditionRich,2021.2.3,59.92674554628746,
78.0,78.75,32,0.75,Stimuli/P007/things_maggot_04s.jpg,0,0,0.0,0,149,149,149,,,,,,,,,,,,,78.00275209999973,0.002752099999725033,None,104.29033459999982,104.29033459999982,104.29033459999982,104.29033459999982,104.29033459999982,104.29033459999982,104.29033459999982,104.29033459999982,104.29033459999982,104.29033459999982,,002,P007,2025_Feb_01_0935,ConditionRich,2021.2.3,59.92674554628746,
78.75,79.0,41,0.0,Stimuli/Blank.png,0,0,0.0,0,150,150,150,,,,,,,,,,,,,78.75334339999972,0.0033433999997214414,None,105.0409980999998,105.0409980999998,105.0409980999998,105.0409980999998,105.0409980999998,105.0409980999998,105.0409980999998,105.0409980999998,105.0409980999998,105.0409980999998,,002,P007,2025_Feb_01_0935,ConditionRich,2021.2.3,59.92674554628746,
79.0,79.75,32,0.75,Stimuli/P007/things_maggot_04s.jpg,0,0,0.0,0,151,151,151,,,,,,,,,,,,,79.00594349999983,0.005943499999830237,None,105.30789749999985,105.30789749999985,105.30789749999985,105.30789749999985,105.30789749999985,105.30789749999985,105.30789749999985,105.30789749999985,105.30789749999985,105.30789749999985,,002,P007,2025_Feb_01_0935,ConditionRich,2021.2.3,59.92674554628746,
79.75,80.0,41,0.0,Stimuli/Blank.png,0,0,0.0,0,152,152,152,,,,,,,,,,,,,79.77133789999971,0.021337899999707588,None,106.05855359999987,106.05855359999987,106.05855359999987,106.05855359999987,106.05855359999987,106.05855359999987,106.05855359999987,106.05855359999987,106.05855359999987,106.05855359999987,,002,P007,2025_Feb_01_0935,ConditionRich,2021.2.3,59.92674554628746,
80.0,80.75,5,0.75,Stimuli/P007/sun_ayzkwnqsoiycbncn.jpg,0,0,0.0,0,153,153,153,,,,,,,,,,,,,80.00597349999998,0.005973499999981868,None,106.30877529999998,106.30877529999998,106.30877529999998,106.30877529999998,106.30877529999998,106.30877529999998,106.30877529999998,106.30877529999998,106.30877529999998,106.30877529999998,,002,P007,2025_Feb_01_0935,ConditionRich,2021.2.3,59.92674554628746,
80.75,81.0,41,0.0,Stimuli/Blank.png,0,0,0.0,0,154,154,154,,,,,,,,,,,,,80.77175439999974,0.02175439999973605,None,107.05943149999985,107.05943149999985,107.05943149999985,107.05943149999985,107.05943149999985,107.05943149999985,107.05943149999985,107.05943149999985,107.05943149999985,107.05943149999985,,002,P007,2025_Feb_01_0935,ConditionRich,2021.2.3,59.92674554628746,
81.0,81.75,5,0.75,Stimuli/P007/sun_ayzkwnqsoiycbncn.jpg,0,0,0.0,0,155,155,155,,,,,,,,,,,,,81.00463820000004,0.00463820000004489,None,107.29298589999962,107.29298589999962,107.29298589999962,107.29298589999962,107.29298589999962,107.29298589999962,107.29298589999962,107.29298589999962,107.29298589999962,107.29298589999962,,002,P007,2025_Feb_01_0935,ConditionRich,2021.2.3,59.92674554628746,
81.75,82.0,41,0.0,Stimuli/Blank.png,0,0,0.0,0,156,156,156,,,,,,,,,,,,,81.75619379999989,0.00619379999989178,None,108.04365899999993,108.04365899999993,108.04365899999993,108.04365899999993,108.04365899999993,108.04365899999993,108.04365899999993,108.04365899999993,108.04365899999993,108.04365899999993,,002,P007,2025_Feb_01_0935,ConditionRich,2021.2.3,59.92674554628746,
82.0,82.75,5,0.75,Stimuli/P007/sun_ayzkwnqsoiycbncn.jpg,0,0,0.0,0,157,157,157,,,,,,,,,,,,,82.0066683,0.006668300000001182,None,108.29382499999974,108.29382499999974,108.29382499999974,108.29382499999974,108.29382499999974,108.29382499999974,108.29382499999974,108.29382499999974,108.29382499999974,108.29382499999974,,002,P007,2025_Feb_01_0935,ConditionRich,2021.2.3,59.92674554628746,
82.75,83.0,41,0.0,Stimuli/Blank.png,0,0,0.0,0,158,158,158,,,,,,,,,,,,,82.75678859999971,0.006788599999708822,None,109.04527479999979,109.04527479999979,109.04527479999979,109.04527479999979,109.04527479999979,109.04527479999979,109.04527479999979,109.04527479999979,109.04527479999979,109.04527479999979,,002,P007,2025_Feb_01_0935,ConditionRich,2021.2.3,59.92674554628746,
83.0,83.75,5,0.75,Stimuli/P007/sun_ayzkwnqsoiycbncn.jpg,0,0,0.0,0,159,159,159,,,,,,,,,,,,,83.00726899999972,0.0072689999997237464,None,109.29479769999989,109.29479769999989,109.29479769999989,109.29479769999989,109.29479769999989,109.29479769999989,109.29479769999989,109.29479769999989,109.29479769999989,109.29479769999989,,002,P007,2025_Feb_01_0935,ConditionRich,2021.2.3,59.92674554628746,
83.75,84.0,41,0.0,Stimuli/Blank.png,0,0,0.0,0,160,160,160,,,,,,,,,,,,,83.75774490000003,0.007744900000034249,None,110.0454109999996,110.0454109999996,110.0454109999996,110.0454109999996,110.0454109999996,110.0454109999996,110.0454109999996,110.0454109999996,110.0454109999996,110.0454109999996,,002,P007,2025_Feb_01_0935,ConditionRich,2021.2.3,59.92674554628746,
84.0,100.0,0,0.0,Stimuli/Blank.png,1,4,4.75,0,161,161,161,,,,,,,,,,,,,84.00787679999985,0.007876799999849027,2,110.29559519999975,110.29559519999975,110.29559519999975,110.29559519999975,110.29559519999975,110.29559519999975,114.2824900999999,115.03314869999986,110.29559519999975,110.29559519999975,4.376756900000146,002,P007,2025_Feb_01_0935,ConditionRich,2021.2.3,59.92674554628746,
100.0,100.75,27,0.75,Stimuli/P007/things_fur_coat_04s.jpg,0,0,0.0,0,162,162,162,,,,,,,,,,,,,100.00568059999978,0.005680599999777769,None,126.30979009999965,126.30979009999965,126.30979009999965,126.30979009999965,126.30979009999965,126.30979009999965,126.30979009999965,126.30979009999965,126.30979009999965,126.30979009999965,,002,P007,2025_Feb_01_0935,ConditionRich,2021.2.3,59.92674554628746,
100.75,101.0,41,0.0,Stimuli/Blank.png,0,0,0.0,0,163,163,163,,,,,,,,,,,,,100.7727976000001,0.022797600000103557,None,127.06046199999992,127.06046199999992,127.06046199999992,127.06046199999992,127.06046199999992,127.06046199999992,127.06046199999992,127.06046199999992,127.06046199999992,127.06046199999992,,002,P007,2025_Feb_01_0935,ConditionRich,2021.2.3,59.92674554628746,
101.0,101.75,27,0.75,Stimuli/P007/things_fur_coat_04s.jpg,0,0,0.0,0,164,164,164,,,,,,,,,,,,,101.00679489999993,0.006794899999931658,None,127.3107728,127.3107728,127.3107728,127.3107728,127.3107728,127.3107728,127.3107728,127.3107728,127.3107728,127.3107728,,002,P007,2025_Feb_01_0935,ConditionRich,2021.2.3,59.92674554628746,
101.75,102.0,41,0.0,Stimuli/Blank.png,0,0,0.0,0,165,165,165,,,,,,,,,,,,,101.77295920000006,0.022959200000059354,None,128.06134949999978,128.06134949999978,128.06134949999978,128.06134949999978,128.06134949999978,128.06134949999978,128.06134949999978,128.06134949999978,128.06134949999978,128.06134949999978,,002,P007,2025_Feb_01_0935,ConditionRich,2021.2.3,59.92674554628746,
102.0,102.75,27,0.75,Stimuli/P007/things_fur_coat_04s.jpg,0,0,0.0,0,166,166,166,,,,,,,,,,,,,102.00701739999977,0.007017399999767804,None,128.2948478999997,128.2948478999997,128.2948478999997,128.2948478999997,128.2948478999997,128.2948478999997,128.2948478999997,128.2948478999997,128.2948478999997,128.2948478999997,,002,P007,2025_Feb_01_0935,ConditionRich,2021.2.3,59.92674554628746,
102.75,103.0,41,0.0,Stimuli/Blank.png,0,0,0.0,0,167,167,167,,,,,,,,,,,,,102.7574182999997,0.007418299999699229,None,129.04554819999976,129.04554819999976,129.04554819999976,129.04554819999976,129.04554819999976,129.04554819999976,129.04554819999976,129.04554819999976,129.04554819999976,129.04554819999976,,002,P007,2025_Feb_01_0935,ConditionRich,2021.2.3,59.92674554628746,
103.0,103.75,27,0.75,Stimuli/P007/things_fur_coat_04s.jpg,0,0,0.0,0,168,168,168,,,,,,,,,,,,,103.00813319999997,0.00813319999997475,None,129.29574649999995,129.29574649999995,129.29574649999995,129.29574649999995,129.29574649999995,129.29574649999995,129.29574649999995,129.29574649999995,129.29574649999995,129.29574649999995,,002,P007,2025_Feb_01_0935,ConditionRich,2021.2.3,59.92674554628746,
103.75,104.0,41,0.0,Stimuli/Blank.png,0,0,0.0,0,169,169,169,,,,,,,,,,,,,103.76079699999991,0.01079699999991135,None,130.06312179999986,130.06312179999986,130.06312179999986,130.06312179999986,130.06312179999986,130.06312179999986,130.06312179999986,130.06312179999986,130.06312179999986,130.06312179999986,,002,P007,2025_Feb_01_0935,ConditionRich,2021.2.3,59.92674554628746,
104.0,104.75,40,0.75,Stimuli/P007/things_woman_04s.jpg,0,0,0.0,0,170,170,170,,,,,,,,,,,,,104.0254476,0.025447600000006787,None,130.31333649999988,130.31333649999988,130.31333649999988,130.31333649999988,130.31333649999988,130.31333649999988,130.31333649999988,130.31333649999988,130.31333649999988,130.31333649999988,,002,P007,2025_Feb_01_0935,ConditionRich,2021.2.3,59.92674554628746,
104.75,105.0,41,0.0,Stimuli/Blank.png,0,0,0.0,0,171,171,171,,,,,,,,,,,,,104.76041339999983,0.010413399999833928,None,131.0473334999997,131.0473334999997,131.0473334999997,131.0473334999997,131.0473334999997,131.0473334999997,131.0473334999997,131.0473334999997,131.0473334999997,131.0473334999997,,002,P007,2025_Feb_01_0935,ConditionRich,2021.2.3,59.92674554628746,
105.0,105.75,40,0.75,Stimuli/P007/things_woman_04s.jpg,0,0,0.0,0,172,172,172,,,,,,,,,,,,,105.00971579999987,0.009715799999867158,None,131.29754319999984,131.29754319999984,131.29754319999984,131.29754319999984,131.29754319999984,131.29754319999984,131.29754319999984,131.29754319999984,131.29754319999984,131.29754319999984,,002,P007,2025_Feb_01_0935,ConditionRich,2021.2.3,59.92674554628746,
105.75,106.0,41,0.0,Stimuli/Blank.png,0,0,0.0,0,173,173,173,,,,,,,,,,,,,105.75982149999982,0.009821499999816297,None,132.0482036999997,132.0482036999997,132.0482036999997,132.0482036999997,132.0482036999997,132.0482036999997,132.0482036999997,132.0482036999997,132.0482036999997,132.0482036999997,,002,P007,2025_Feb_01_0935,ConditionRich,2021.2.3,59.92674554628746,
106.0,106.75,40,0.75,Stimuli/P007/things_woman_04s.jpg,0,0,0.0,0,174,174,174,,,,,,,,,,,,,106.01055749999978,0.010557499999777065,None,132.29838449999988,132.29838449999988,132.29838449999988,132.29838449999988,132.29838449999988,132.29838449999988,132.29838449999988,132.29838449999988,132.29838449999988,132.29838449999988,,002,P007,2025_Feb_01_0935,ConditionRich,2021.2.3,59.92674554628746,
106.75,107.0,41,0.0,Stimuli/Blank.png,0,0,0.0,0,175,175,175,,,,,,,,,,,,,106.76174459999993,0.01174459999992905,None,133.0490952,133.0490952,133.0490952,133.0490952,133.0490952,133.0490952,133.0490952,133.0490952,133.0490952,133.0490952,,002,P007,2025_Feb_01_0935,ConditionRich,2021.2.3,59.92674554628746,
107.0,107.75,40,0.75,Stimuli/P007/things_woman_04s.jpg,0,0,0.0,0,176,176,176,,,,,,,,,,,,,107.01206729999967,0.012067299999671377,None,133.31601249999994,133.31601249999994,133.31601249999994,133.31601249999994,133.31601249999994,133.31601249999994,133.31601249999994,133.31601249999994,133.31601249999994,133.31601249999994,,002,P007,2025_Feb_01_0935,ConditionRich,2021.2.3,59.92674554628746,
107.75,108.0,41,0.0,Stimuli/Blank.png,0,0,0.0,0,177,177,177,,,,,,,,,,,,,107.77937419999989,0.02937419999989288,None,134.06667039999957,134.06667039999957,134.06667039999957,134.06667039999957,134.06667039999957,134.06667039999957,134.06667039999957,134.06667039999957,134.06667039999957,134.06667039999957,,002,P007,2025_Feb_01_0935,ConditionRich,2021.2.3,59.92674554628746,
108.0,108.75,25,0.75,Stimuli/P007/things_credit_card_04s.jpg,0,0,0.0,0,178,178,178,,,,,,,,,,,,,108.0124264000001,0.012426400000094873,None,134.3001973999999,134.3001973999999,134.3001973999999,134.3001973999999,134.3001973999999,134.3001973999999,134.3001973999999,134.3001973999999,134.3001973999999,134.3001973999999,,002,P007,2025_Feb_01_0935,ConditionRich,2021.2.3,59.92674554628746,
108.75,109.0,41,0.0,Stimuli/Blank.png,0,0,0.0,0,179,179,179,,,,,,,,,,,,,108.7633221000001,0.013322100000095816,None,135.05085999999983,135.05085999999983,135.05085999999983,135.05085999999983,135.05085999999983,135.05085999999983,135.05085999999983,135.05085999999983,135.05085999999983,135.05085999999983,,002,P007,2025_Feb_01_0935,ConditionRich,2021.2.3,59.92674554628746,
109.0,109.75,25,0.75,Stimuli/P007/things_credit_card_04s.jpg,1,0,0.75,0,180,180,180,,,,,,,,,,,,,109.01377890000003,0.0137789000000339,2,135.31776929999978,135.31776929999978,135.31776929999978,135.31776929999978,135.31776929999978,135.31776929999978,135.31776929999978,136.0350996999996,135.31776929999978,135.31776929999978,0.4925413999999364,002,P007,2025_Feb_01_0935,ConditionRich,2021.2.3,59.92674554628746,
109.75,110.0,41,0.0,Stimuli/Blank.png,0,0,0.0,0,181,181,181,,,,,,,,,,,,,109.78042899999991,0.030428999999912776,None,136.06843249999974,136.06843249999974,136.06843249999974,136.06843249999974,136.06843249999974,136.06843249999974,136.06843249999974,136.06843249999974,136.06843249999974,136.06843249999974,,002,P007,2025_Feb_01_0935,ConditionRich,2021.2.3,59.92674554628746,
110.0,110.75,25,0.75,Stimuli/P007/things_credit_card_04s.jpg,0,0,0.0,0,182,182,182,,,,,,,,,,,,,110.01443059999974,0.01443059999974139,None,136.30196529999967,136.30196529999967,136.30196529999967,136.30196529999967,136.30196529999967,136.30196529999967,136.30196529999967,136.30196529999967,136.30196529999967,136.30196529999967,,002,P007,2025_Feb_01_0935,ConditionRich,2021.2.3,59.92674554628746,
110.75,111.0,41,0.0,Stimuli/Blank.png,0,0,0.0,0,183,183,183,,,,,,,,,,,,,110.7669308999998,0.01693089999980657,None,137.0693222,137.0693222,137.0693222,137.0693222,137.0693222,137.0693222,137.0693222,137.0693222,137.0693222,137.0693222,,002,P007,2025_Feb_01_0935,ConditionRich,2021.2.3,59.92674554628746,
111.0,111.75,25,0.75,Stimuli/P007/things_credit_card_04s.jpg,0,0,0.0,0,184,184,184,,,,,,,,,,,,,111.01642099999981,0.016420999999809283,None,137.3195469999996,137.3195469999996,137.3195469999996,137.3195469999996,137.3195469999996,137.3195469999996,137.3195469999996,137.3195469999996,137.3195469999996,137.3195469999996,,002,P007,2025_Feb_01_0935,ConditionRich,2021.2.3,59.92674554628746,
111.75,112.0,41,0.0,Stimuli/Blank.png,0,0,0.0,0,185,185,185,,,,,,,,,,,,,111.76595330000009,0.015953300000091986,None,138.05352429999994,138.05352429999994,138.05352429999994,138.05352429999994,138.05352429999994,138.05352429999994,138.05352429999994,138.05352429999994,138.05352429999994,138.05352429999994,,002,P007,2025_Feb_01_0935,ConditionRich,2021.2.3,59.92674554628746,
112.0,112.75,13,0.75,Stimuli/P007/sun_bkhuvtsqontzwtbo.jpg,0,0,0.0,0,186,186,186,,,,,,,,,,,,,111.99946359999967,-0.0005364000003282854,None,138.3037459999996,138.3037459999996,138.3037459999996,138.3037459999996,138.3037459999996,138.3037459999996,138.3037459999996,138.3037459999996,138.3037459999996,138.3037459999996,,002,P007,2025_Feb_01_0935,ConditionRich,2021.2.3,59.92674554628746,
112.75,113.0,41,0.0,Stimuli/Blank.png,0,0,0.0,0,187,187,187,,,,,,,,,,,,,112.76664469999969,0.016644699999687873,None,139.0544187999999,139.0544187999999,139.0544187999999,139.0544187999999,139.0544187999999,139.0544187999999,139.0544187999999,139.0544187999999,139.0544187999999,139.0544187999999,,002,P007,2025_Feb_01_0935,ConditionRich,2021.2.3,59.92674554628746,
113.0,113.75,13,0.75,Stimuli/P007/sun_bkhuvtsqontzwtbo.jpg,0,0,0.0,0,188,188,188,,,,,,,,,,,,,113.0003587000001,0.0003587000001061824,None,139.30459379999957,139.30459379999957,139.30459379999957,139.30459379999957,139.30459379999957,139.30459379999957,139.30459379999957,139.30459379999957,139.30459379999957,139.30459379999957,,002,P007,2025_Feb_01_0935,ConditionRich,2021.2.3,59.92674554628746,
113.75,114.0,41,0.0,Stimuli/Blank.png,0,0,0.0,0,189,189,189,,,,,,,,,,,,,113.76691329999994,0.016913299999941955,None,140.05528779999986,140.05528779999986,140.05528779999986,140.05528779999986,140.05528779999986,140.05528779999986,140.05528779999986,140.05528779999986,140.05528779999986,140.05528779999986,,002,P007,2025_Feb_01_0935,ConditionRich,2021.2.3,59.92674554628746,
114.0,114.75,13,0.75,Stimuli/P007/sun_bkhuvtsqontzwtbo.jpg,0,0,0.0,0,190,190,190,,,,,,,,,,,,,114.00154829999974,0.0015482999997402658,None,140.30550939999966,140.30550939999966,140.30550939999966,140.30550939999966,140.30550939999966,140.30550939999966,140.30550939999966,140.30550939999966,140.30550939999966,140.30550939999966,,002,P007,2025_Feb_01_0935,ConditionRich,2021.2.3,59.92674554628746,
114.75,115.0,41,0.0,Stimuli/Blank.png,0,0,0.0,0,191,191,191,,,,,,,,,,,,,114.76915229999986,0.01915229999985968,None,141.05618519999962,141.05618519999962,141.05618519999962,141.05618519999962,141.05618519999962,141.05618519999962,141.05618519999962,141.05618519999962,141.05618519999962,141.05618519999962,,002,P007,2025_Feb_01_0935,ConditionRich,2021.2.3,59.92674554628746,
115.0,115.75,13,0.75,Stimuli/P007/sun_bkhuvtsqontzwtbo.jpg,0,0,0.0,0,192,192,192,,,,,,,,,,,,,115.00236820000009,0.002368200000091747,None,141.30641749999995,141.30641749999995,141.30641749999995,141.30641749999995,141.30641749999995,141.30641749999995,141.30641749999995,141.30641749999995,141.30641749999995,141.30641749999995,,002,P007,2025_Feb_01_0935,ConditionRich,2021.2.3,59.92674554628746,
115.75,116.0,41,0.0,Stimuli/Blank.png,0,0,0.0,0,193,193,193,,,,,,,,,,,,,115.76942430000008,0.01942430000008244,None,142.0570831,142.0570831,142.0570831,142.0570831,142.0570831,142.0570831,142.0570831,142.0570831,142.0570831,142.0570831,,002,P007,2025_Feb_01_0935,ConditionRich,2021.2.3,59.92674554628746,
116.0,116.75,29,0.75,Stimuli/P007/things_hawk_04s.jpg,0,0,0.0,0,194,194,194,,,,,,,,,,,,,116.00291870000001,0.0029187000000092667,None,142.3072463999997,142.3072463999997,142.3072463999997,142.3072463999997,142.3072463999997,142.3072463999997,142.3072463999997,142.3072463999997,142.3072463999997,142.3072463999997,,002,P007,2025_Feb_01_0935,ConditionRich,2021.2.3,59.92674554628746,
116.75,117.0,41,0.0,Stimuli/Blank.png,0,0,0.0,0,195,195,195,,,,,,,,,,,,,116.77224690000003,0.02224690000002738,None,143.07463979999966,143.07463979999966,143.07463979999966,143.07463979999966,143.07463979999966,143.07463979999966,143.07463979999966,143.07463979999966,143.07463979999966,143.07463979999966,,002,P007,2025_Feb_01_0935,ConditionRich,2021.2.3,59.92674554628746,
117.0,117.75,29,0.75,Stimuli/P007/things_hawk_04s.jpg,0,0,0.0,0,196,196,196,,,,,,,,,,,,,117.02063169999974,0.020631699999739794,None,143.32484019999993,143.32484019999993,143.32484019999993,143.32484019999993,143.32484019999993,143.32484019999993,143.32484019999993,143.32484019999993,143.32484019999993,143.32484019999993,,002,P007,2025_Feb_01_0935,ConditionRich,2021.2.3,59.92674554628746,
117.75,118.0,41,0.0,Stimuli/Blank.png,0,0,0.0,0,197,197,197,,,,,,,,,,,,,117.77057779999996,0.02057779999995546,None,144.05882929999962,144.05882929999962,144.05882929999962,144.05882929999962,144.05882929999962,144.05882929999962,144.05882929999962,144.05882929999962,144.05882929999962,144.05882929999962,,002,P007,2025_Feb_01_0935,ConditionRich,2021.2.3,59.92674554628746,
118.0,118.75,29,0.75,Stimuli/P007/things_hawk_04s.jpg,0,0,0.0,0,198,198,198,,,,,,,,,,,,,118.00708369999984,0.007083699999839155,None,144.3090542,144.3090542,144.3090542,144.3090542,144.3090542,144.3090542,144.3090542,144.3090542,144.3090542,144.3090542,,002,P007,2025_Feb_01_0935,ConditionRich,2021.2.3,59.92674554628746,
118.75,119.0,41,0.0,Stimuli/Blank.png,0,0,0.0,0,199,199,199,,,,,,,,,,,,,118.7722117999997,0.02221179999969536,None,145.0597143,145.0597143,145.0597143,145.0597143,145.0597143,145.0597143,145.0597143,145.0597143,145.0597143,145.0597143,,002,P007,2025_Feb_01_0935,ConditionRich,2021.2.3,59.92674554628746,
119.0,119.75,29,0.75,Stimuli/P007/things_hawk_04s.jpg,0,0,0.0,0,200,200,200,,,,,,,,,,,,,119.00567729999966,0.005677299999661045,None,145.293768,145.293768,145.293768,145.293768,145.293768,145.293768,145.293768,145.293768,145.293768,145.293768,,002,P007,2025_Feb_01_0935,ConditionRich,2021.2.3,59.92674554628746,
119.75,120.0,41,0.0,Stimuli/Blank.png,0,0,0.0,0,201,201,201,,,,,,,,,,,,,119.75563039999997,0.005630399999972724,None,146.04396829999996,146.04396829999996,146.04396829999996,146.04396829999996,146.04396829999996,146.04396829999996,146.04396829999996,146.04396829999996,146.04396829999996,146.04396829999996,,002,P007,2025_Feb_01_0935,ConditionRich,2021.2.3,59.92674554628746,
120.0,120.75,12,0.75,Stimuli/P007/sun_bitpmyvulluuasab.jpg,0,0,0.0,0,202,202,202,,,,,,,,,,,,,120.00659029999997,0.006590299999970739,None,146.31081379999978,146.31081379999978,146.31081379999978,146.31081379999978,146.31081379999978,146.31081379999978,146.31081379999978,146.31081379999978,146.31081379999978,146.31081379999978,,002,P007,2025_Feb_01_0935,ConditionRich,2021.2.3,59.92674554628746,
120.75,121.0,41,0.0,Stimuli/Blank.png,0,0,0.0,0,203,203,203,,,,,,,,,,,,,120.77311199999986,0.02311199999985547,None,147.0614885,147.0614885,147.0614885,147.0614885,147.0614885,147.0614885,147.0614885,147.0614885,147.0614885,147.0614885,,002,P007,2025_Feb_01_0935,ConditionRich,2021.2.3,59.92674554628746,
121.0,121.75,12,0.75,Stimuli/P007/sun_bitpmyvulluuasab.jpg,0,0,0.0,0,204,204,204,,,,,,,,,,,,,121.00769439999976,0.007694399999763846,None,147.3117304999996,147.3117304999996,147.3117304999996,147.3117304999996,147.3117304999996,147.3117304999996,147.3117304999996,147.3117304999996,147.3117304999996,147.3117304999996,,002,P007,2025_Feb_01_0935,ConditionRich,2021.2.3,59.92674554628746,
121.75,122.0,41,0.0,Stimuli/Blank.png,0,0,0.0,0,205,205,205,,,,,,,,,,,,,121.77640029999975,0.026400299999750132,None,148.07906239999966,148.07906239999966,148.07906239999966,148.07906239999966,148.07906239999966,148.07906239999966,148.07906239999966,148.07906239999966,148.07906239999966,148.07906239999966,,002,P007,2025_Feb_01_0935,ConditionRich,2021.2.3,59.92674554628746,
122.0,122.75,12,0.75,Stimuli/P007/sun_bitpmyvulluuasab.jpg,0,0,0.0,0,206,206,206,,,,,,,,,,,,,122.02437349999991,0.024373499999910564,None,148.3125954999996,148.3125954999996,148.3125954999996,148.3125954999996,148.3125954999996,148.3125954999996,148.3125954999996,148.3125954999996,148.3125954999996,148.3125954999996,,002,P007,2025_Feb_01_0935,ConditionRich,2021.2.3,59.92674554628746,
122.75,123.0,41,0.0,Stimuli/Blank.png,0,0,0.0,0,207,207,207,,,,,,,,,,,,,122.7613394,0.011339399999997113,None,149.06327599999986,149.06327599999986,149.06327599999986,149.06327599999986,149.06327599999986,149.06327599999986,149.06327599999986,149.06327599999986,149.06327599999986,149.06327599999986,,002,P007,2025_Feb_01_0935,ConditionRich,2021.2.3,59.92674554628746,
123.0,123.75,12,0.75,Stimuli/P007/sun_bitpmyvulluuasab.jpg,0,0,0.0,0,208,208,208,,,,,,,,,,,,,123.02606429999969,0.026064299999688956,None,149.3301563,149.3301563,149.3301563,149.3301563,149.3301563,149.3301563,149.3301563,149.3301563,149.3301563,149.3301563,,002,P007,2025_Feb_01_0935,ConditionRich,2021.2.3,59.92674554628746,
123.75,124.0,41,0.0,Stimuli/Blank.png,0,0,0.0,0,209,209,209,,,,,,,,,,,,,123.77661009999974,0.026610099999743397,None,150.06414989999985,150.06414989999985,150.06414989999985,150.06414989999985,150.06414989999985,150.06414989999985,150.06414989999985,150.06414989999985,150.06414989999985,150.06414989999985,,002,P007,2025_Feb_01_0935,ConditionRich,2021.2.3,59.92674554628746,
124.0,124.75,22,0.75,Stimuli/P007/things_boar_04s.jpg,0,0,0.0,0,210,210,210,,,,,,,,,,,,,124.0093308999999,0.009330899999895337,None,150.29769499999975,150.29769499999975,150.29769499999975,150.29769499999975,150.29769499999975,150.29769499999975,150.29769499999975,150.29769499999975,150.29769499999975,150.29769499999975,,002,P007,2025_Feb_01_0935,ConditionRich,2021.2.3,59.92674554628746,
124.75,125.0,41,0.0,Stimuli/Blank.png,0,0,0.0,0,211,211,211,,,,,,,,,,,,,124.76024890000008,0.01024890000007872,None,151.04835449999973,151.04835449999973,151.04835449999973,151.04835449999973,151.04835449999973,151.04835449999973,151.04835449999973,151.04835449999973,151.04835449999973,151.04835449999973,,002,P007,2025_Feb_01_0935,ConditionRich,2021.2.3,59.92674554628746,
125.0,125.75,22,0.75,Stimuli/P007/things_boar_04s.jpg,0,0,0.0,0,212,212,212,,,,,,,,,,,,,125.01138999999966,0.011389999999664724,None,151.3152656999996,151.3152656999996,151.3152656999996,151.3152656999996,151.3152656999996,151.3152656999996,151.3152656999996,151.3152656999996,151.3152656999996,151.3152656999996,,002,P007,2025_Feb_01_0935,ConditionRich,2021.2.3,59.92674554628746,
125.75,126.0,41,0.0,Stimuli/Blank.png,0,0,0.0,0,213,213,213,,,,,,,,,,,,,125.77766419999989,0.027664199999890116,None,152.0659241999997,152.0659241999997,152.0659241999997,152.0659241999997,152.0659241999997,152.0659241999997,152.0659241999997,152.0659241999997,152.0659241999997,152.0659241999997,,002,P007,2025_Feb_01_0935,ConditionRich,2021.2.3,59.92674554628746,
126.0,126.75,22,0.75,Stimuli/P007/things_boar_04s.jpg,0,0,0.0,0,214,214,214,,,,,,,,,,,,,126.01168609999968,0.011686099999678845,None,152.29941789999975,152.29941789999975,152.29941789999975,152.29941789999975,152.29941789999975,152.29941789999975,152.29941789999975,152.29941789999975,152.29941789999975,152.29941789999975,,002,P007,2025_Feb_01_0935,ConditionRich,2021.2.3,59.92674554628746,
126.75,127.0,41,0.0,Stimuli/Blank.png,0,0,0.0,0,215,215,215,,,,,,,,,,,,,126.7625109999999,0.012510999999904016,None,153.05012769999985,153.05012769999985,153.05012769999985,153.05012769999985,153.05012769999985,153.05012769999985,153.05012769999985,153.05012769999985,153.05012769999985,153.05012769999985,,002,P007,2025_Feb_01_0935,ConditionRich,2021.2.3,59.92674554628746,
127.0,127.75,22,0.75,Stimuli/P007/things_boar_04s.jpg,0,0,0.0,0,216,216,216,,,,,,,,,,,,,127.01252609999983,0.012526099999831786,None,153.30033619999995,153.30033619999995,153.30033619999995,153.30033619999995,153.30033619999995,153.30033619999995,153.30033619999995,153.30033619999995,153.30033619999995,153.30033619999995,,002,P007,2025_Feb_01_0935,ConditionRich,2021.2.3,59.92674554628746,
127.75,128.0,41,0.0,Stimuli/Blank.png,0,0,0.0,0,217,217,217,,,,,,,,,,,,,127.76279989999966,0.012799899999663467,None,154.05100999999968,154.05100999999968,154.05100999999968,154.05100999999968,154.05100999999968,154.05100999999968,154.05100999999968,154.05100999999968,154.05100999999968,154.05100999999968,,002,P007,2025_Feb_01_0935,ConditionRich,2021.2.3,59.92674554628746,
128.0,128.75,26,0.75,Stimuli/P007/things_face_04s.jpg,0,0,0.0,0,218,218,218,,,,,,,,,,,,,128.01331600000003,0.013316000000031636,None,154.31794079999963,154.31794079999963,154.31794079999963,154.31794079999963,154.31794079999963,154.31794079999963,154.31794079999963,154.31794079999963,154.31794079999963,154.31794079999963,,002,P007,2025_Feb_01_0935,ConditionRich,2021.2.3,59.92674554628746,
128.75,129.0,41,0.0,Stimuli/Blank.png,0,0,0.0,0,219,219,219,,,,,,,,,,,,,128.7809285999997,0.030928599999697326,None,155.0685701999996,155.0685701999996,155.0685701999996,155.0685701999996,155.0685701999996,155.0685701999996,155.0685701999996,155.0685701999996,155.0685701999996,155.0685701999996,,002,P007,2025_Feb_01_0935,ConditionRich,2021.2.3,59.92674554628746,
129.0,129.75,26,0.75,Stimuli/P007/things_face_04s.jpg,0,0,0.0,0,220,220,220,,,,,,,,,,,,,129.01608409999972,0.016084099999716273,None,155.31881369999974,155.31881369999974,155.31881369999974,155.31881369999974,155.31881369999974,155.31881369999974,155.31881369999974,155.31881369999974,155.31881369999974,155.31881369999974,,002,P007,2025_Feb_01_0935,ConditionRich,2021.2.3,59.92674554628746,
129.75,130.0,41,0.0,Stimuli/Blank.png,0,0,0.0,0,221,221,221,,,,,,,,,,,,,129.76837999999998,0.01837999999997919,None,156.06953129999965,156.06953129999965,156.06953129999965,156.06953129999965,156.06953129999965,156.06953129999965,156.06953129999965,156.06953129999965,156.06953129999965,156.06953129999965,,002,P007,2025_Feb_01_0935,ConditionRich,2021.2.3,59.92674554628746,
130.0,130.75,26,0.75,Stimuli/P007/things_face_04s.jpg,0,0,0.0,0,222,222,222,,,,,,,,,,,,,130.0150349999999,0.015034999999897991,None,156.30298859999994,156.30298859999994,156.30298859999994,156.30298859999994,156.30298859999994,156.30298859999994,156.30298859999994,156.30298859999994,156.30298859999994,156.30298859999994,,002,P007,2025_Feb_01_0935,ConditionRich,2021.2.3,59.92674554628746,
130.75,131.0,41,0.0,Stimuli/Blank.png,0,0,0.0,0,223,223,223,,,,,,,,,,,,,130.74856249999993,-0.0014375000000654836,None,157.03700179999987,157.03700179999987,157.03700179999987,157.03700179999987,157.03700179999987,157.03700179999987,157.03700179999987,157.03700179999987,157.03700179999987,157.03700179999987,,002,P007,2025_Feb_01_0935,ConditionRich,2021.2.3,59.92674554628746,
131.0,131.75,26,0.75,Stimuli/P007/things_face_04s.jpg,0,0,0.0,0,224,224,224,,,,,,,,,,,,,131.01708839999992,0.01708839999992051,None,157.32058519999964,157.32058519999964,157.32058519999964,157.32058519999964,157.32058519999964,157.32058519999964,157.32058519999964,157.32058519999964,157.32058519999964,157.32058519999964,,002,P007,2025_Feb_01_0935,ConditionRich,2021.2.3,59.92674554628746,
131.75,132.0,41,0.0,Stimuli/Blank.png,0,0,0.0,0,225,225,225,,,,,,,,,,,,,131.7670264999997,0.017026499999701628,None,158.05455259999962,158.05455259999962,158.05455259999962,158.05455259999962,158.05455259999962,158.05455259999962,158.05455259999962,158.05455259999962,158.05455259999962,158.05455259999962,,002,P007,2025_Feb_01_0935,ConditionRich,2021.2.3,59.92674554628746,
132.0,132.75,34,0.75,Stimuli/P007/things_moose_04s.jpg,0,0,0.0,0,226,226,226,,,,,,,,,,,,,132.00053780000007,0.0005378000000746397,None,158.30476979999958,158.30476979999958,158.30476979999958,158.30476979999958,158.30476979999958,158.30476979999958,158.30476979999958,158.30476979999958,158.30476979999958,158.30476979999958,,002,P007,2025_Feb_01_0935,ConditionRich,2021.2.3,59.92674554628746,
132.75,133.0,41,0.0,Stimuli/Blank.png,0,0,0.0,0,227,227,227,,,,,,,,,,,,,132.76725159999978,0.01725159999978132,None,159.05544459999965,159.05544459999965,159.05544459999965,159.05544459999965,159.05544459999965,159.05544459999965,159.05544459999965,159.05544459999965,159.05544459999965,159.05544459999965,,002,P007,2025_Feb_01_0935,ConditionRich,2021.2.3,59.92674554628746,
133.0,133.75,34,0.75,Stimuli/P007/things_moose_04s.jpg,0,0,0.0,0,228,228,228,,,,,,,,,,,,,133.00165470000002,0.0016547000000173284,None,159.3056545999998,159.3056545999998,159.3056545999998,159.3056545999998,159.3056545999998,159.3056545999998,159.3056545999998,159.3056545999998,159.3056545999998,159.3056545999998,,002,P007,2025_Feb_01_0935,ConditionRich,2021.2.3,59.92674554628746,
133.75,134.0,41,0.0,Stimuli/Blank.png,0,0,0.0,0,229,229,229,,,,,,,,,,,,,133.7679834999999,0.017983499999900232,None,160.0563333,160.0563333,160.0563333,160.0563333,160.0563333,160.0563333,160.0563333,160.0563333,160.0563333,160.0563333,,002,P007,2025_Feb_01_0935,ConditionRich,2021.2.3,59.92674554628746,
134.0,134.75,34,0.75,Stimuli/P007/things_moose_04s.jpg,0,0,0.0,0,230,230,230,,,,,,,,,,,,,134.00216309999996,0.0021630999999615597,None,160.2898166,160.2898166,160.2898166,160.2898166,160.2898166,160.2898166,160.2898166,160.2898166,160.2898166,160.2898166,,002,P007,2025_Feb_01_0935,ConditionRich,2021.2.3,59.92674554628746,
134.75,135.0,41,0.0,Stimuli/Blank.png,0,0,0.0,0,231,231,231,,,,,,,,,,,,,134.75240349999967,0.002403499999672931,None,161.04051349999963,161.04051349999963,161.04051349999963,161.04051349999963,161.04051349999963,161.04051349999963,161.04051349999963,161.04051349999963,161.04051349999963,161.04051349999963,,002,P007,2025_Feb_01_0935,ConditionRich,2021.2.3,59.92674554628746,
135.0,135.75,34,0.75,Stimuli/P007/things_moose_04s.jpg,0,0,0.0,0,232,232,232,,,,,,,,,,,,,135.00321069999973,0.003210699999726785,None,161.2907393999999,161.2907393999999,161.2907393999999,161.2907393999999,161.2907393999999,161.2907393999999,161.2907393999999,161.2907393999999,161.2907393999999,161.2907393999999,,002,P007,2025_Feb_01_0935,ConditionRich,2021.2.3,59.92674554628746,
135.75,136.0,41,0.0,Stimuli/Blank.png,0,0,0.0,0,233,233,233,,,,,,,,,,,,,135.7533158000001,0.003315800000109448,None,162.04138569999986,162.04138569999986,162.04138569999986,162.04138569999986,162.04138569999986,162.04138569999986,162.04138569999986,162.04138569999986,162.04138569999986,162.04138569999986,,002,P007,2025_Feb_01_0935,ConditionRich,2021.2.3,59.92674554628746,
136.0,136.75,8,0.75,Stimuli/P007/sun_bbnepvzvycqjjczs.jpg,1,0,0.75,0,234,234,234,,,,,,,,,,,,,136.00331529999994,0.00331529999994018,2,162.29160219999994,162.29160219999994,162.29160219999994,162.29160219999994,162.29160219999994,162.29160219999994,162.29160219999994,163.02566509999997,162.29160219999994,162.29160219999994,0.39161749999993845,002,P007,2025_Feb_01_0935,ConditionRich,2021.2.3,59.92674554628746,
136.75,137.0,41,0.0,Stimuli/Blank.png,0,0,0.0,0,235,235,235,,,,,,,,,,,,,136.75678990000006,0.006789900000057969,None,163.0589783999999,163.0589783999999,163.0589783999999,163.0589783999999,163.0589783999999,163.0589783999999,163.0589783999999,163.0589783999999,163.0589783999999,163.0589783999999,,002,P007,2025_Feb_01_0935,ConditionRich,2021.2.3,59.92674554628746,
137.0,137.75,8,0.75,Stimuli/P007/sun_bbnepvzvycqjjczs.jpg,0,0,0.0,0,236,236,236,,,,,,,,,,,,,137.02212400000008,0.022124000000076194,None,163.3259062999996,163.3259062999996,163.3259062999996,163.3259062999996,163.3259062999996,163.3259062999996,163.3259062999996,163.3259062999996,163.3259062999996,163.3259062999996,,002,P007,2025_Feb_01_0935,ConditionRich,2021.2.3,59.92674554628746,
137.75,138.0,41,0.0,Stimuli/Blank.png,0,0,0.0,0,237,237,237,,,,,,,,,,,,,137.77229929999976,0.02229929999975866,None,164.0598418999998,164.0598418999998,164.0598418999998,164.0598418999998,164.0598418999998,164.0598418999998,164.0598418999998,164.0598418999998,164.0598418999998,164.0598418999998,,002,P007,2025_Feb_01_0935,ConditionRich,2021.2.3,59.92674554628746,
138.0,138.75,8,0.75,Stimuli/P007/sun_bbnepvzvycqjjczs.jpg,0,0,0.0,0,238,238,238,,,,,,,,,,,,,138.0062385000001,0.0062385000001086155,None,164.31008529999963,164.31008529999963,164.31008529999963,164.31008529999963,164.31008529999963,164.31008529999963,164.31008529999963,164.31008529999963,164.31008529999963,164.31008529999963,,002,P007,2025_Feb_01_0935,ConditionRich,2021.2.3,59.92674554628746,
138.75,139.0,41,0.0,Stimuli/Blank.png,0,0,0.0,0,239,239,239,,,,,,,,,,,,,138.77245670000002,0.022456700000020646,None,165.06074259999968,165.06074259999968,165.06074259999968,165.06074259999968,165.06074259999968,165.06074259999968,165.06074259999968,165.06074259999968,165.06074259999968,165.06074259999968,,002,P007,2025_Feb_01_0935,ConditionRich,2021.2.3,59.92674554628746,
139.0,139.75,8,0.75,Stimuli/P007/sun_bbnepvzvycqjjczs.jpg,0,0,0.0,0,240,240,240,,,,,,,,,,,,,139.00664579999966,0.006645799999660085,None,165.31099809999978,165.31099809999978,165.31099809999978,165.31099809999978,165.31099809999978,165.31099809999978,165.31099809999978,165.31099809999978,165.31099809999978,165.31099809999978,,002,P007,2025_Feb_01_0935,ConditionRich,2021.2.3,59.92674554628746,
139.75,140.0,41,0.0,Stimuli/Blank.png,0,0,0.0,0,241,241,241,,,,,,,,,,,,,139.77385550000008,0.02385550000008152,None,166.06165779999992,166.06165779999992,166.06165779999992,166.06165779999992,166.06165779999992,166.06165779999992,166.06165779999992,166.06165779999992,166.06165779999992,166.06165779999992,,002,P007,2025_Feb_01_0935,ConditionRich,2021.2.3,59.92674554628746,
140.0,140.75,21,0.75,Stimuli/P007/things_baby_04s.jpg,0,0,0.0,0,242,242,242,,,,,,,,,,,,,140.00746479999998,0.007464799999979732,None,166.29516609999973,166.29516609999973,166.29516609999973,166.29516609999973,166.29516609999973,166.29516609999973,166.29516609999973,166.29516609999973,166.29516609999973,166.29516609999973,,002,P007,2025_Feb_01_0935,ConditionRich,2021.2.3,59.92674554628746,
140.75,141.0,41,0.0,Stimuli/Blank.png,0,0,0.0,0,243,243,243,,,,,,,,,,,,,140.7579109999997,0.007910999999694468,None,167.0458709999998,167.0458709999998,167.0458709999998,167.0458709999998,167.0458709999998,167.0458709999998,167.0458709999998,167.0458709999998,167.0458709999998,167.0458709999998,,002,P007,2025_Feb_01_0935,ConditionRich,2021.2.3,59.92674554628746,
141.0,141.75,21,0.75,Stimuli/P007/things_baby_04s.jpg,0,0,0.0,0,244,244,244,,,,,,,,,,,,,141.0082881999997,0.008288199999697099,None,167.29611079999995,167.29611079999995,167.29611079999995,167.29611079999995,167.29611079999995,167.29611079999995,167.29611079999995,167.29611079999995,167.29611079999995,167.29611079999995,,002,P007,2025_Feb_01_0935,ConditionRich,2021.2.3,59.92674554628746,
141.75,142.0,41,0.0,Stimuli/Blank.png,0,0,0.0,0,245,245,245,,,,,,,,,,,,,141.75881899999968,0.008818999999675725,None,168.0467165,168.0467165,168.0467165,168.0467165,168.0467165,168.0467165,168.0467165,168.0467165,168.0467165,168.0467165,,002,P007,2025_Feb_01_0935,ConditionRich,2021.2.3,59.92674554628746,
142.0,142.75,21,0.75,Stimuli/P007/things_baby_04s.jpg,0,0,0.0,0,246,246,246,,,,,,,,,,,,,142.00853209999968,0.008532099999683851,None,168.31363519999968,168.31363519999968,168.31363519999968,168.31363519999968,168.31363519999968,168.31363519999968,168.31363519999968,168.31363519999968,168.31363519999968,168.31363519999968,,002,P007,2025_Feb_01_0935,ConditionRich,2021.2.3,59.92674554628746,
142.75,143.0,41,0.0,Stimuli/Blank.png,0,0,0.0,0,247,247,247,,,,,,,,,,,,,142.77633190000006,0.02633190000005925,None,169.06428389999974,169.06428389999974,169.06428389999974,169.06428389999974,169.06428389999974,169.06428389999974,169.06428389999974,169.06428389999974,169.06428389999974,169.06428389999974,,002,P007,2025_Feb_01_0935,ConditionRich,2021.2.3,59.92674554628746,
143.0,143.75,21,0.75,Stimuli/P007/things_baby_04s.jpg,0,0,0.0,0,248,248,248,,,,,,,,,,,,,143.01036609999983,0.010366099999828293,None,169.3144970999997,169.3144970999997,169.3144970999997,169.3144970999997,169.3144970999997,169.3144970999997,169.3144970999997,169.3144970999997,169.3144970999997,169.3144970999997,,002,P007,2025_Feb_01_0935,ConditionRich,2021.2.3,59.92674554628746,
143.75,144.0,41,0.0,Stimuli/Blank.png,0,0,0.0,0,249,249,249,,,,,,,,,,,,,143.77693099999988,0.026930999999876803,None,170.0651740999997,170.0651740999997,170.0651740999997,170.0651740999997,170.0651740999997,170.0651740999997,170.0651740999997,170.0651740999997,170.0651740999997,170.0651740999997,,002,P007,2025_Feb_01_0935,ConditionRich,2021.2.3,59.92674554628746,
144.0,144.75,16,0.75,Stimuli/P007/sun_bnpggenxuowzsywq.jpg,0,0,0.0,0,250,250,250,,,,,,,,,,,,,144.0115794999997,0.011579499999697873,None,170.3154056999997,170.3154056999997,170.3154056999997,170.3154056999997,170.3154056999997,170.3154056999997,170.3154056999997,170.3154056999997,170.3154056999997,170.3154056999997,,002,P007,2025_Feb_01_0935,ConditionRich,2021.2.3,59.92674554628746,
144.75,145.0,41,0.0,Stimuli/Blank.png,0,0,0.0,0,251,251,251,,,,,,,,,,,,,144.77780119999989,0.027801199999885284,None,171.06604849999985,171.06604849999985,171.06604849999985,171.06604849999985,171.06604849999985,171.06604849999985,171.06604849999985,171.06604849999985,171.06604849999985,171.06604849999985,,002,P007,2025_Feb_01_0935,ConditionRich,2021.2.3,59.92674554628746,
145.0,145.75,16,0.75,Stimuli/P007/sun_bnpggenxuowzsywq.jpg,0,0,0.0,0,252,252,252,,,,,,,,,,,,,145.01190169999973,0.011901699999725679,None,171.2995923999997,171.2995923999997,171.2995923999997,171.2995923999997,171.2995923999997,171.2995923999997,171.2995923999997,171.2995923999997,171.2995923999997,171.2995923999997,,002,P007,2025_Feb_01_0935,ConditionRich,2021.2.3,59.92674554628746,
145.75,146.0,41,0.0,Stimuli/Blank.png,0,0,0.0,0,253,253,253,,,,,,,,,,,,,145.76249599999983,0.0124959999998282,None,172.05025289999958,172.05025289999958,172.05025289999958,172.05025289999958,172.05025289999958,172.05025289999958,172.05025289999958,172.05025289999958,172.05025289999958,172.05025289999958,,002,P007,2025_Feb_01_0935,ConditionRich,2021.2.3,59.92674554628746,
146.0,146.75,16,0.75,Stimuli/P007/sun_bnpggenxuowzsywq.jpg,0,0,0.0,0,254,254,254,,,,,,,,,,,,,146.01218579999977,0.012185799999770097,None,172.30048169999964,172.30048169999964,172.30048169999964,172.30048169999964,172.30048169999964,172.30048169999964,172.30048169999964,172.30048169999964,172.30048169999964,172.30048169999964,,002,P007,2025_Feb_01_0935,ConditionRich,2021.2.3,59.92674554628746,
146.75,147.0,41,0.0,Stimuli/Blank.png,0,0,0.0,0,255,255,255,,,,,,,,,,,,,146.76309919999994,0.013099199999942357,None,173.0511373999998,173.0511373999998,173.0511373999998,173.0511373999998,173.0511373999998,173.0511373999998,173.0511373999998,173.0511373999998,173.0511373999998,173.0511373999998,,002,P007,2025_Feb_01_0935,ConditionRich,2021.2.3,59.92674554628746,
147.0,147.75,16,0.75,Stimuli/P007/sun_bnpggenxuowzsywq.jpg,0,0,0.0,0,256,256,256,,,,,,,,,,,,,147.01299759999984,0.012997599999835074,None,173.30136159999984,173.30136159999984,173.30136159999984,173.30136159999984,173.30136159999984,173.30136159999984,173.30136159999984,173.30136159999984,173.30136159999984,173.30136159999984,,002,P007,2025_Feb_01_0935,ConditionRich,2021.2.3,59.92674554628746,
147.75,148.0,41,0.0,Stimuli/Blank.png,0,0,0.0,0,257,257,257,,,,,,,,,,,,,147.7637605,0.013760499999989406,None,174.05209839999998,174.05209839999998,174.05209839999998,174.05209839999998,174.05209839999998,174.05209839999998,174.05209839999998,174.05209839999998,174.05209839999998,174.05209839999998,,002,P007,2025_Feb_01_0935,ConditionRich,2021.2.3,59.92674554628746,
148.0,148.75,11,0.75,Stimuli/P007/sun_bdsriuscubkvzrmt.jpg,0,0,0.0,0,258,258,258,,,,,,,,,,,,,148.0162719,0.016271899999992456,None,174.3189327,174.3189327,174.3189327,174.3189327,174.3189327,174.3189327,174.3189327,174.3189327,174.3189327,174.3189327,,002,P007,2025_Feb_01_0935,ConditionRich,2021.2.3,59.92674554628746,
148.75,149.0,41,0.0,Stimuli/Blank.png,0,0,0.0,0,259,259,259,,,,,,,,,,,,,148.76470130000007,0.01470130000006975,None,175.0529775,175.0529775,175.0529775,175.0529775,175.0529775,175.0529775,175.0529775,175.0529775,175.0529775,175.0529775,,002,P007,2025_Feb_01_0935,ConditionRich,2021.2.3,59.92674554628746,
149.0,149.75,11,0.75,Stimuli/P007/sun_bdsriuscubkvzrmt.jpg,0,0,0.0,0,260,260,260,,,,,,,,,,,,,149.01556949999986,0.015569499999855907,None,175.30313519999982,175.30313519999982,175.30313519999982,175.30313519999982,175.30313519999982,175.30313519999982,175.30313519999982,175.30313519999982,175.30313519999982,175.30313519999982,,002,P007,2025_Feb_01_0935,ConditionRich,2021.2.3,59.92674554628746,
149.75,150.0,41,0.0,Stimuli/Blank.png,0,0,0.0,0,261,261,261,,,,,,,,,,,,,149.7487301000001,-0.0012698999998974614,None,176.0371172,176.0371172,176.0371172,176.0371172,176.0371172,176.0371172,176.0371172,176.0371172,176.0371172,176.0371172,,002,P007,2025_Feb_01_0935,ConditionRich,2021.2.3,59.92674554628746,
150.0,150.75,11,0.75,Stimuli/P007/sun_bdsriuscubkvzrmt.jpg,0,0,0.0,0,262,262,262,,,,,,,,,,,,,150.01590850000002,0.015908500000023196,None,176.3040504999999,176.3040504999999,176.3040504999999,176.3040504999999,176.3040504999999,176.3040504999999,176.3040504999999,176.3040504999999,176.3040504999999,176.3040504999999,,002,P007,2025_Feb_01_0935,ConditionRich,2021.2.3,59.92674554628746,
150.75,151.0,41,0.0,Stimuli/Blank.png,0,0,0.0,0,263,263,263,,,,,,,,,,,,,150.75049809999973,0.0004980999997314939,None,177.03800159999992,177.03800159999992,177.03800159999992,177.03800159999992,177.03800159999992,177.03800159999992,177.03800159999992,177.03800159999992,177.03800159999992,177.03800159999992,,002,P007,2025_Feb_01_0935,ConditionRich,2021.2.3,59.92674554628746,
151.0,151.75,11,0.75,Stimuli/P007/sun_bdsriuscubkvzrmt.jpg,0,0,0.0,0,264,264,264,,,,,,,,,,,,,151.00094279999985,0.0009427999998479208,None,177.30489709999983,177.30489709999983,177.30489709999983,177.30489709999983,177.30489709999983,177.30489709999983,177.30489709999983,177.30489709999983,177.30489709999983,177.30489709999983,,002,P007,2025_Feb_01_0935,ConditionRich,2021.2.3,59.92674554628746,
