eventStartTime,eventEndTime,eventCond,imSize,imFile,responseEvent,fixRespStart,fixRespEnd,Events.thisRepN,Events.thisTrialN,Events.thisN,Events.thisIndex,Instructions.started,Instructions.stopped,participantReadyResponse.keys,participantReadyResponse.rt,participantReadyResponse.started,participantReadyResponse.stopped,startWaitforTrigger,triggerResponse.keys,triggerResponse.rt,triggerResponse.started,triggerResponse.stopped,globalTimer,actualStartTime,startTimingDiff,participantResponse.keys,participantResponse.started,participantResponse.stopped,image.started,image.stopped,fixationOutside.started,fixationOutside.stopped,fixationResponse.started,fixationResponse.stopped,fixationInside.started,fixationInside.stopped,participantResponse.rt,session,participant,date,expName,psychopyVersion,frameRate,
,,,,,,,,,,,,9.465498299999581,None,2,2.233786400000099,9.465498299999581,None,,,,,,,,,,,,,,,,,,,,,001,P007,2025_Feb_01_0928,ConditionRich,2021.2.3,59.93637154796724,
,,,,,,,,,,,,,,,,,,11.705646599999909,5,14.689586599999984,11.718613999999889,None,,,,,,,,,,,,,,,,001,P007,2025_Feb_01_0928,ConditionRich,2021.2.3,59.93637154796724,
0.0,4.0,0,0.0,Stimuli/Blank.png,0,0.0,0.0,0,0,0,0,,,,,,,,,,,,26.419066499999644,0.026391200000034587,0.026391200000034587,None,26.464957799999866,None,26.464957799999866,None,26.464957799999866,None,26.464957799999866,26.464957799999866,26.464957799999866,None,,001,P007,2025_Feb_01_0928,ConditionRich,2021.2.3,59.93637154796724,
4.0,4.75,6,0.75,Stimuli/P007/sun_azpjjfwsbjdjcopb.jpg,0,0.0,0.0,0,1,1,1,,,,,,,,,,,,,4.019378999999844,0.019378999999844382,None,30.46881519999988,30.46881519999988,30.46881519999988,30.46881519999988,30.46881519999988,30.46881519999988,30.46881519999988,30.46881519999988,30.46881519999988,30.46881519999988,,001,P007,2025_Feb_01_0928,ConditionRich,2021.2.3,59.93637154796724,
4.75,8.0,41,0.0,Stimuli/Blank.png,0,0.0,0.0,0,2,2,2,,,,,,,,,,,,,4.7694430999999895,0.0194430999999895,None,31.203370299999733,31.203370299999733,31.203370299999733,31.203370299999733,31.203370299999733,31.203370299999733,31.203370299999733,31.203370299999733,31.203370299999733,31.203370299999733,,001,P007,2025_Feb_01_0928,ConditionRich,2021.2.3,59.93637154796724,
8.0,8.75,4,0.75,Stimuli/P007/sun_awqukazlzsxaokai.jpg,0,0.0,0.0,0,3,3,3,,,,,,,,,,,,,8.007060099999762,0.007060099999762315,None,34.45535729999983,34.45535729999983,34.45535729999983,34.45535729999983,34.45535729999983,34.45535729999983,34.45535729999983,34.45535729999983,34.45535729999983,34.45535729999983,,001,P007,2025_Feb_01_0928,ConditionRich,2021.2.3,59.93637154796724,
8.75,12.0,41,0.0,Stimuli/Blank.png,0,0.0,0.0,0,4,4,4,,,,,,,,,,,,,8.772847499999898,0.02284749999989799,None,35.20601809999971,35.20601809999971,35.20601809999971,35.20601809999971,35.20601809999971,35.20601809999971,35.20601809999971,35.20601809999971,35.20601809999971,35.20601809999971,,001,P007,2025_Feb_01_0928,ConditionRich,2021.2.3,59.93637154796724,
12.0,12.75,8,0.75,Stimuli/P007/sun_bbnepvzvycqjjczs.jpg,0,0.0,0.0,0,5,5,5,,,,,,,,,,,,,12.00849449999987,0.008494499999869731,None,38.458911199999875,38.458911199999875,38.458911199999875,38.458911199999875,38.458911199999875,38.458911199999875,38.458911199999875,38.458911199999875,38.458911199999875,38.458911199999875,,001,P007,2025_Feb_01_0928,ConditionRich,2021.2.3,59.93637154796724,
12.75,16.0,41,0.0,Stimuli/Blank.png,0,0.0,0.0,0,6,6,6,,,,,,,,,,,,,12.77744679999978,0.027446799999779614,None,39.209567499999594,39.209567499999594,39.209567499999594,39.209567499999594,39.209567499999594,39.209567499999594,39.209567499999594,39.209567499999594,39.209567499999594,39.209567499999594,,001,P007,2025_Feb_01_0928,ConditionRich,2021.2.3,59.93637154796724,
16.0,16.75,30,0.75,Stimuli/P007/things_jalapeno_04s.jpg,0,0.0,0.0,0,7,7,7,,,,,,,,,,,,,16.012584799999786,0.0125847999997859,None,42.445752099999936,42.445752099999936,42.445752099999936,42.445752099999936,42.445752099999936,42.445752099999936,42.445752099999936,42.445752099999936,42.445752099999936,42.445752099999936,,001,P007,2025_Feb_01_0928,ConditionRich,2021.2.3,59.93637154796724,
16.75,20.0,41,0.0,Stimuli/Blank.png,0,0.0,0.0,0,8,8,8,,,,,,,,,,,,,16.763668600000074,0.013668600000073639,None,43.196417499999825,43.196417499999825,43.196417499999825,43.196417499999825,43.196417499999825,43.196417499999825,43.196417499999825,43.196417499999825,43.196417499999825,43.196417499999825,,001,P007,2025_Feb_01_0928,ConditionRich,2021.2.3,59.93637154796724,
20.0,20.75,35,0.75,Stimuli/P007/things_pecan_04s.jpg,0,0.0,0.0,0,9,9,9,,,,,,,,,,,,,19.998960299999908,-0.0010397000000921253,None,46.4326116999996,46.4326116999996,46.4326116999996,46.4326116999996,46.4326116999996,46.4326116999996,46.4326116999996,46.4326116999996,46.4326116999996,46.4326116999996,,001,P007,2025_Feb_01_0928,ConditionRich,2021.2.3,59.93637154796724,
20.75,24.0,41,0.0,Stimuli/Blank.png,0,0.0,0.0,0,10,10,10,,,,,,,,,,,,,20.752073499999824,0.00207349999982398,None,47.19996069999979,47.19996069999979,47.19996069999979,47.19996069999979,47.19996069999979,47.19996069999979,47.19996069999979,47.19996069999979,47.19996069999979,47.19996069999979,,001,P007,2025_Feb_01_0928,ConditionRich,2021.2.3,59.93637154796724,
24.0,24.75,34,0.75,Stimuli/P007/things_moose_04s.jpg,0,0.0,0.0,0,11,11,11,,,,,,,,,,,,,24.019684099999722,0.019684099999722093,None,50.46952109999984,50.46952109999984,50.46952109999984,50.46952109999984,50.46952109999984,50.46952109999984,50.46952109999984,50.46952109999984,50.46952109999984,50.46952109999984,,001,P007,2025_Feb_01_0928,ConditionRich,2021.2.3,59.93637154796724,
24.75,28.0,41,0.0,Stimuli/Blank.png,0,0.0,0.0,0,12,12,12,,,,,,,,,,,,,24.771875699999782,0.021875699999782228,None,51.220186699999886,51.220186699999886,51.220186699999886,51.220186699999886,51.220186699999886,51.220186699999886,51.220186699999886,51.220186699999886,51.220186699999886,51.220186699999886,,001,P007,2025_Feb_01_0928,ConditionRich,2021.2.3,59.93637154796724,
28.0,28.75,11,0.75,Stimuli/P007/sun_bdsriuscubkvzrmt.jpg,0,0.0,0.0,0,13,13,13,,,,,,,,,,,,,28.022747600000002,0.02274760000000242,None,54.456368699999985,54.456368699999985,54.456368699999985,54.456368699999985,54.456368699999985,54.456368699999985,54.456368699999985,54.456368699999985,54.456368699999985,54.456368699999985,,001,P007,2025_Feb_01_0928,ConditionRich,2021.2.3,59.93637154796724,
28.75,32.0,41,0.0,Stimuli/Blank.png,0,0.0,0.0,0,14,14,14,,,,,,,,,,,,,28.757552099999884,0.007552099999884376,None,55.19037299999991,55.19037299999991,55.19037299999991,55.19037299999991,55.19037299999991,55.19037299999991,55.19037299999991,55.19037299999991,55.19037299999991,55.19037299999991,,001,P007,2025_Feb_01_0928,ConditionRich,2021.2.3,59.93637154796724,
32.0,32.75,9,0.75,Stimuli/P007/sun_bcsqogieozpyvuft.jpg,1,0.0,0.75,0,15,15,15,,,,,,,,,,,,,32.01025149999987,0.01025149999986752,2,58.44329219999963,58.44329219999963,58.44329219999963,58.44329219999963,58.44329219999963,58.44329219999963,58.44329219999963,59.17720949999966,58.44329219999963,58.44329219999963,0.4099308999998357,001,P007,2025_Feb_01_0928,ConditionRich,2021.2.3,59.93637154796724,
32.75,36.0,41,0.0,Stimuli/Blank.png,0,0.0,0.0,0,16,16,16,,,,,,,,,,,,,32.76327809999975,0.013278099999752158,None,59.21058069999981,59.21058069999981,59.21058069999981,59.21058069999981,59.21058069999981,59.21058069999981,59.21058069999981,59.21058069999981,59.21058069999981,59.21058069999981,,001,P007,2025_Feb_01_0928,ConditionRich,2021.2.3,59.93637154796724,
36.0,36.75,15,0.75,Stimuli/P007/sun_bmeductqpfkygtww.jpg,0,0.0,0.0,0,17,17,17,,,,,,,,,,,,,36.01313389999996,0.013133899999957066,None,62.446772899999814,62.446772899999814,62.446772899999814,62.446772899999814,62.446772899999814,62.446772899999814,62.446772899999814,62.446772899999814,62.446772899999814,62.446772899999814,,001,P007,2025_Feb_01_0928,ConditionRich,2021.2.3,59.93637154796724,
36.75,40.0,41,0.0,Stimuli/Blank.png,0,0.0,0.0,0,18,18,18,,,,,,,,,,,,,36.764642600000116,0.014642600000115635,None,63.19743479999988,63.19743479999988,63.19743479999988,63.19743479999988,63.19743479999988,63.19743479999988,63.19743479999988,63.19743479999988,63.19743479999988,63.19743479999988,,001,P007,2025_Feb_01_0928,ConditionRich,2021.2.3,59.93637154796724,
40.0,40.75,23,0.75,Stimuli/P007/things_bumper_04s.jpg,0,0.0,0.0,0,19,19,19,,,,,,,,,,,,,40.00226269999985,0.002262699999846518,None,66.45031699999981,66.45031699999981,66.45031699999981,66.45031699999981,66.45031699999981,66.45031699999981,66.45031699999981,66.45031699999981,66.45031699999981,66.45031699999981,,001,P007,2025_Feb_01_0928,ConditionRich,2021.2.3,59.93637154796724,
40.75,44.0,41,0.0,Stimuli/Blank.png,0,0.0,0.0,0,20,20,20,,,,,,,,,,,,,40.76740229999996,0.017402299999957904,None,67.2009721999998,67.2009721999998,67.2009721999998,67.2009721999998,67.2009721999998,67.2009721999998,67.2009721999998,67.2009721999998,67.2009721999998,67.2009721999998,,001,P007,2025_Feb_01_0928,ConditionRich,2021.2.3,59.93637154796724,
44.0,44.75,10,0.75,Stimuli/P007/sun_bdekcgnlcicvgpvq.jpg,0,0.0,0.0,0,21,21,21,,,,,,,,,,,,,44.00430520000009,0.004305200000089826,None,70.43717719999995,70.43717719999995,70.43717719999995,70.43717719999995,70.43717719999995,70.43717719999995,70.43717719999995,70.43717719999995,70.43717719999995,70.43717719999995,,001,P007,2025_Feb_01_0928,ConditionRich,2021.2.3,59.93637154796724,
44.75,48.0,41,0.0,Stimuli/Blank.png,0,0.0,0.0,0,22,22,22,,,,,,,,,,,,,44.75444019999986,0.004440199999862671,None,71.18783659999963,71.18783659999963,71.18783659999963,71.18783659999963,71.18783659999963,71.18783659999963,71.18783659999963,71.18783659999963,71.18783659999963,71.18783659999963,,001,P007,2025_Feb_01_0928,ConditionRich,2021.2.3,59.93637154796724,
48.0,48.75,14,0.75,Stimuli/P007/sun_bkvjqgmploznrhxt.jpg,0,0.0,0.0,0,23,23,23,,,,,,,,,,,,,48.00749309999992,0.00749309999991965,None,74.44071169999961,74.44071169999961,74.44071169999961,74.44071169999961,74.44071169999961,74.44071169999961,74.44071169999961,74.44071169999961,74.44071169999961,74.44071169999961,,001,P007,2025_Feb_01_0928,ConditionRich,2021.2.3,59.93637154796724,
48.75,52.0,41,0.0,Stimuli/Blank.png,0,0.0,0.0,0,24,24,24,,,,,,,,,,,,,48.75853079999979,0.008530799999789451,None,75.19137019999971,75.19137019999971,75.19137019999971,75.19137019999971,75.19137019999971,75.19137019999971,75.19137019999971,75.19137019999971,75.19137019999971,75.19137019999971,,001,P007,2025_Feb_01_0928,ConditionRich,2021.2.3,59.93637154796724,
52.0,52.75,3,0.75,Stimuli/P007/sun_aueftjhdwnvkbzlt.jpg,0,0.0,0.0,0,25,25,25,,,,,,,,,,,,,52.01115350000009,0.011153500000091299,None,78.44424549999985,78.44424549999985,78.44424549999985,78.44424549999985,78.44424549999985,78.44424549999985,78.44424549999985,78.44424549999985,78.44424549999985,78.44424549999985,,001,P007,2025_Feb_01_0928,ConditionRich,2021.2.3,59.93637154796724,
52.75,56.0,41,0.0,Stimuli/Blank.png,0,0.0,0.0,0,26,26,26,,,,,,,,,,,,,52.76182029999973,0.011820299999726558,None,79.19491619999962,79.19491619999962,79.19491619999962,79.19491619999962,79.19491619999962,79.19491619999962,79.19491619999962,79.19491619999962,79.19491619999962,79.19491619999962,,001,P007,2025_Feb_01_0928,ConditionRich,2021.2.3,59.93637154796724,
56.0,56.75,40,0.75,Stimuli/P007/things_woman_04s.jpg,0,0.0,0.0,0,27,27,27,,,,,,,,,,,,,56.01424390000011,0.014243900000110443,None,82.46447989999979,82.46447989999979,82.46447989999979,82.46447989999979,82.46447989999979,82.46447989999979,82.46447989999979,82.46447989999979,82.46447989999979,82.46447989999979,,001,P007,2025_Feb_01_0928,ConditionRich,2021.2.3,59.93637154796724,
56.75,60.0,41,0.0,Stimuli/Blank.png,1,2.25,3.0,0,28,28,28,,,,,,,,,,,,,56.78249830000004,0.032498300000042946,2,83.2151474999996,83.2151474999996,83.2151474999996,83.2151474999996,83.2151474999996,83.2151474999996,85.45044259999986,86.20109899999989,83.2151474999996,83.2151474999996,2.580075599999873,001,P007,2025_Feb_01_0928,ConditionRich,2021.2.3,59.93637154796724,
60.0,60.75,29,0.75,Stimuli/P007/things_hawk_04s.jpg,1,0.0,0.75,0,29,29,29,,,,,,,,,,,,,60.00164129999985,0.0016412999998465239,2,86.43460759999971,86.43460759999971,86.43460759999971,86.43460759999971,86.43460759999971,86.43460759999971,86.43460759999971,87.16865169999983,86.43460759999971,86.43460759999971,0.5699203000003763,001,P007,2025_Feb_01_0928,ConditionRich,2021.2.3,59.93637154796724,
60.75,64.0,41,0.0,Stimuli/Blank.png,0,0.0,0.0,0,30,30,30,,,,,,,,,,,,,60.75235780000003,0.002357800000027055,None,87.18531689999963,87.18531689999963,87.18531689999963,87.18531689999963,87.18531689999963,87.18531689999963,87.18531689999963,87.18531689999963,87.18531689999963,87.18531689999963,,001,P007,2025_Feb_01_0928,ConditionRich,2021.2.3,59.93637154796724,
64.0,64.75,16,0.75,Stimuli/P007/sun_bnpggenxuowzsywq.jpg,0,0.0,0.0,0,31,31,31,,,,,,,,,,,,,64.00443529999984,0.004435299999840936,None,90.45488989999967,90.45488989999967,90.45488989999967,90.45488989999967,90.45488989999967,90.45488989999967,90.45488989999967,90.45488989999967,90.45488989999967,90.45488989999967,,001,P007,2025_Feb_01_0928,ConditionRich,2021.2.3,59.93637154796724,
64.75,68.0,41,0.0,Stimuli/Blank.png,1,2.25,3.0,0,32,32,32,,,,,,,,,,,,,64.77285789999996,0.022857899999962683,2,91.2055290999997,91.2055290999997,91.2055290999997,91.2055290999997,91.2055290999997,91.2055290999997,93.44089059999988,94.19154309999976,91.2055290999997,91.2055290999997,2.6058084000001145,001,P007,2025_Feb_01_0928,ConditionRich,2021.2.3,59.93637154796724,
68.0,68.75,28,0.75,Stimuli/P007/things_girl_04s.jpg,0,0.0,0.0,0,33,33,33,,,,,,,,,,,,,68.00816639999994,0.008166399999936402,None,94.4418684999996,94.4418684999996,94.4418684999996,94.4418684999996,94.4418684999996,94.4418684999996,94.4418684999996,94.4418684999996,94.4418684999996,94.4418684999996,,001,P007,2025_Feb_01_0928,ConditionRich,2021.2.3,59.93637154796724,
68.75,72.0,41,0.0,Stimuli/Blank.png,0,0.0,0.0,0,34,34,34,,,,,,,,,,,,,68.75864589999992,0.008645899999919493,None,95.19239059999973,95.19239059999973,95.19239059999973,95.19239059999973,95.19239059999973,95.19239059999973,95.19239059999973,95.19239059999973,95.19239059999973,95.19239059999973,,001,P007,2025_Feb_01_0928,ConditionRich,2021.2.3,59.93637154796724,
72.0,72.75,27,0.75,Stimuli/P007/things_fur_coat_04s.jpg,0,0.0,0.0,0,35,35,35,,,,,,,,,,,,,72.01163029999998,0.011630299999978888,None,98.44527229999994,98.44527229999994,98.44527229999994,98.44527229999994,98.44527229999994,98.44527229999994,98.44527229999994,98.44527229999994,98.44527229999994,98.44527229999994,,001,P007,2025_Feb_01_0928,ConditionRich,2021.2.3,59.93637154796724,
72.75,76.0,41,0.0,Stimuli/Blank.png,1,2.25,3.0,0,36,36,36,,,,,,,,,,,,,72.7629579999998,0.01295799999979863,2,99.19592759999978,99.19592759999978,99.19592759999978,99.19592759999978,99.19592759999978,99.19592759999978,101.43127929999991,102.18193959999962,99.19592759999978,99.19592759999978,2.5794942000002266,001,P007,2025_Feb_01_0928,ConditionRich,2021.2.3,59.93637154796724,
76.0,76.75,37,0.75,Stimuli/P007/things_praying_mantis_04s.jpg,0,0.0,0.0,0,37,37,37,,,,,,,,,,,,,75.99861490000012,-0.0013850999998794578,None,102.44879869999977,102.44879869999977,102.44879869999977,102.44879869999977,102.44879869999977,102.44879869999977,102.44879869999977,102.44879869999977,102.44879869999977,102.44879869999977,,001,P007,2025_Feb_01_0928,ConditionRich,2021.2.3,59.93637154796724,
76.75,80.0,41,0.0,Stimuli/Blank.png,0,0.0,0.0,0,38,38,38,,,,,,,,,,,,,76.76742169999989,0.017421699999886187,None,103.19947919999959,103.19947919999959,103.19947919999959,103.19947919999959,103.19947919999959,103.19947919999959,103.19947919999959,103.19947919999959,103.19947919999959,103.19947919999959,,001,P007,2025_Feb_01_0928,ConditionRich,2021.2.3,59.93637154796724,
80.0,80.75,18,0.75,Stimuli/P007/sun_borgfidyubrwsuuw.jpg,0,0.0,0.0,0,39,39,39,,,,,,,,,,,,,80.00195729999996,0.0019572999999581953,None,106.43566029999965,106.43566029999965,106.43566029999965,106.43566029999965,106.43566029999965,106.43566029999965,106.43566029999965,106.43566029999965,106.43566029999965,106.43566029999965,,001,P007,2025_Feb_01_0928,ConditionRich,2021.2.3,59.93637154796724,
80.75,84.0,41,0.0,Stimuli/Blank.png,0,0.0,0.0,0,40,40,40,,,,,,,,,,,,,80.75267789999998,0.002677899999980582,None,107.18632519999983,107.18632519999983,107.18632519999983,107.18632519999983,107.18632519999983,107.18632519999983,107.18632519999983,107.18632519999983,107.18632519999983,107.18632519999983,,001,P007,2025_Feb_01_0928,ConditionRich,2021.2.3,59.93637154796724,
84.0,100.0,0,0.0,Stimuli/Blank.png,1,5.0,5.75,0,41,41,41,,,,,,,,,,,,,84.00635999999986,0.006359999999858701,2,110.43920619999972,110.43920619999972,110.43920619999972,110.43920619999972,110.43920619999972,110.43920619999972,115.42694079999956,116.17764829999987,110.43920619999972,110.43920619999972,5.359037400000034,001,P007,2025_Feb_01_0928,ConditionRich,2021.2.3,59.93637154796724,
100.0,100.75,33,0.75,Stimuli/P007/things_man_04s.jpg,0,0.0,0.0,0,42,42,42,,,,,,,,,,,,,100.00298449999991,0.0029844999999113497,None,126.43667809999988,126.43667809999988,126.43667809999988,126.43667809999988,126.43667809999988,126.43667809999988,126.43667809999988,126.43667809999988,126.43667809999988,126.43667809999988,,001,P007,2025_Feb_01_0928,ConditionRich,2021.2.3,59.93637154796724,
100.75,104.0,41,0.0,Stimuli/Blank.png,0,0.0,0.0,0,43,43,43,,,,,,,,,,,,,100.75658440000007,0.006584400000065216,None,127.2040294999997,127.2040294999997,127.2040294999997,127.2040294999997,127.2040294999997,127.2040294999997,127.2040294999997,127.2040294999997,127.2040294999997,127.2040294999997,,001,P007,2025_Feb_01_0928,ConditionRich,2021.2.3,59.93637154796724,
104.0,104.75,17,0.75,Stimuli/P007/sun_bnsxdhbsafbdyncy.jpg,0,0.0,0.0,0,44,44,44,,,,,,,,,,,,,104.02355769999986,0.023557699999855686,None,130.45690589999958,130.45690589999958,130.45690589999958,130.45690589999958,130.45690589999958,130.45690589999958,130.45690589999958,130.45690589999958,130.45690589999958,130.45690589999958,,001,P007,2025_Feb_01_0928,ConditionRich,2021.2.3,59.93637154796724,
104.75,108.0,41,0.0,Stimuli/Blank.png,0,0.0,0.0,0,45,45,45,,,,,,,,,,,,,104.75728769999978,0.007287699999778852,None,131.19088169999986,131.19088169999986,131.19088169999986,131.19088169999986,131.19088169999986,131.19088169999986,131.19088169999986,131.19088169999986,131.19088169999986,131.19088169999986,,001,P007,2025_Feb_01_0928,ConditionRich,2021.2.3,59.93637154796724,
108.0,108.75,13,0.75,Stimuli/P007/sun_bkhuvtsqontzwtbo.jpg,0,0.0,0.0,0,46,46,46,,,,,,,,,,,,,108.0125165999998,0.012516599999798927,None,134.46043989999998,134.46043989999998,134.46043989999998,134.46043989999998,134.46043989999998,134.46043989999998,134.46043989999998,134.46043989999998,134.46043989999998,134.46043989999998,,001,P007,2025_Feb_01_0928,ConditionRich,2021.2.3,59.93637154796724,
108.75,112.0,41,0.0,Stimuli/Blank.png,0,0.0,0.0,0,47,47,47,,,,,,,,,,,,,108.7783045000001,0.02830450000010387,None,135.21110299999964,135.21110299999964,135.21110299999964,135.21110299999964,135.21110299999964,135.21110299999964,135.21110299999964,135.21110299999964,135.21110299999964,135.21110299999964,,001,P007,2025_Feb_01_0928,ConditionRich,2021.2.3,59.93637154796724,
112.0,112.75,31,0.75,Stimuli/P007/things_jug_04s.jpg,0,0.0,0.0,0,48,48,48,,,,,,,,,,,,,112.01360960000011,0.013609600000108912,None,138.4472977999999,138.4472977999999,138.4472977999999,138.4472977999999,138.4472977999999,138.4472977999999,138.4472977999999,138.4472977999999,138.4472977999999,138.4472977999999,,001,P007,2025_Feb_01_0928,ConditionRich,2021.2.3,59.93637154796724,
112.75,116.0,41,0.0,Stimuli/Blank.png,1,0.25,1.0,0,49,49,49,,,,,,,,,,,,,112.76507670000001,0.015076700000008714,2,139.19797609999978,139.19797609999978,139.19797609999978,139.19797609999978,139.19797609999978,139.19797609999978,139.4315505999998,140.18220299999984,139.19797609999978,139.19797609999978,0.6593612000001485,001,P007,2025_Feb_01_0928,ConditionRich,2021.2.3,59.93637154796724,
116.0,116.75,19,0.75,Stimuli/P007/sun_brpfgrmubnnjvfkw.jpg,0,0.0,0.0,0,50,50,50,,,,,,,,,,,,,116.00169619999997,0.0016961999999693944,None,142.45083039999963,142.45083039999963,142.45083039999963,142.45083039999963,142.45083039999963,142.45083039999963,142.45083039999963,142.45083039999963,142.45083039999963,142.45083039999963,,001,P007,2025_Feb_01_0928,ConditionRich,2021.2.3,59.93637154796724,
116.75,120.0,41,0.0,Stimuli/Blank.png,0,0.0,0.0,0,51,51,51,,,,,,,,,,,,,116.76790040000014,0.017900400000144145,None,143.20150539999986,143.20150539999986,143.20150539999986,143.20150539999986,143.20150539999986,143.20150539999986,143.20150539999986,143.20150539999986,143.20150539999986,143.20150539999986,,001,P007,2025_Feb_01_0928,ConditionRich,2021.2.3,59.93637154796724,
120.0,120.75,25,0.75,Stimuli/P007/things_credit_card_04s.jpg,1,0.0,0.75,0,52,52,52,,,,,,,,,,,,,120.00404329999992,0.004043299999921146,2,146.45438589999958,146.45438589999958,146.45438589999958,146.45438589999958,146.45438589999958,146.45438589999958,146.45438589999958,147.17171849999977,146.45438589999958,146.45438589999958,0.4158833000001323,001,P007,2025_Feb_01_0928,ConditionRich,2021.2.3,59.93637154796724,
120.75,124.0,41,0.0,Stimuli/Blank.png,0,0.0,0.0,0,53,53,53,,,,,,,,,,,,,120.77200409999978,0.022004099999776372,None,147.20504859999983,147.20504859999983,147.20504859999983,147.20504859999983,147.20504859999983,147.20504859999983,147.20504859999983,147.20504859999983,147.20504859999983,147.20504859999983,,001,P007,2025_Feb_01_0928,ConditionRich,2021.2.3,59.93637154796724,
124.0,124.75,39,0.75,Stimuli/P007/things_showerhead_04s.jpg,0,0.0,0.0,0,54,54,54,,,,,,,,,,,,,124.00780780000014,0.007807800000136922,None,150.4412352999998,150.4412352999998,150.4412352999998,150.4412352999998,150.4412352999998,150.4412352999998,150.4412352999998,150.4412352999998,150.4412352999998,150.4412352999998,,001,P007,2025_Feb_01_0928,ConditionRich,2021.2.3,59.93637154796724,
124.75,128.0,41,0.0,Stimuli/Blank.png,0,0.0,0.0,0,55,55,55,,,,,,,,,,,,,124.75897699999996,0.008976999999958934,None,151.19189589999996,151.19189589999996,151.19189589999996,151.19189589999996,151.19189589999996,151.19189589999996,151.19189589999996,151.19189589999996,151.19189589999996,151.19189589999996,,001,P007,2025_Feb_01_0928,ConditionRich,2021.2.3,59.93637154796724,
128.0,128.75,1,0.75,Stimuli/P007/sun_abrlrupzcrwpxqfc.jpg,0,0.0,0.0,0,56,56,56,,,,,,,,,,,,,128.01122510000005,0.01122510000004695,None,154.44477359999973,154.44477359999973,154.44477359999973,154.44477359999973,154.44477359999973,154.44477359999973,154.44477359999973,154.44477359999973,154.44477359999973,154.44477359999973,,001,P007,2025_Feb_01_0928,ConditionRich,2021.2.3,59.93637154796724,
128.75,132.0,41,0.0,Stimuli/Blank.png,0,0.0,0.0,0,57,57,57,,,,,,,,,,,,,128.7625211999998,0.012521199999810051,None,155.19544059999998,155.19544059999998,155.19544059999998,155.19544059999998,155.19544059999998,155.19544059999998,155.19544059999998,155.19544059999998,155.19544059999998,155.19544059999998,,001,P007,2025_Feb_01_0928,ConditionRich,2021.2.3,59.93637154796724,
132.0,132.75,26,0.75,Stimuli/P007/things_face_04s.jpg,0,0.0,0.0,0,58,58,58,,,,,,,,,,,,,132.01462200000014,0.014622000000144908,None,158.46500609999975,158.46500609999975,158.46500609999975,158.46500609999975,158.46500609999975,158.46500609999975,158.46500609999975,158.46500609999975,158.46500609999975,158.46500609999975,,001,P007,2025_Feb_01_0928,ConditionRich,2021.2.3,59.93637154796724,
132.75,136.0,41,0.0,Stimuli/Blank.png,0,0.0,0.0,0,59,59,59,,,,,,,,,,,,,132.78261479999992,0.03261479999991934,None,159.2156705999996,159.2156705999996,159.2156705999996,159.2156705999996,159.2156705999996,159.2156705999996,159.2156705999996,159.2156705999996,159.2156705999996,159.2156705999996,,001,P007,2025_Feb_01_0928,ConditionRich,2021.2.3,59.93637154796724,
136.0,136.75,21,0.75,Stimuli/P007/things_baby_04s.jpg,0,0.0,0.0,0,60,60,60,,,,,,,,,,,,,136.00186750000012,0.0018675000001167064,None,162.4351827999999,162.4351827999999,162.4351827999999,162.4351827999999,162.4351827999999,162.4351827999999,162.4351827999999,162.4351827999999,162.4351827999999,162.4351827999999,,001,P007,2025_Feb_01_0928,ConditionRich,2021.2.3,59.93637154796724,
136.75,140.0,41,0.0,Stimuli/Blank.png,0,0.0,0.0,0,61,61,61,,,,,,,,,,,,,136.75304890000007,0.0030489000000670785,None,163.18583819999958,163.18583819999958,163.18583819999958,163.18583819999958,163.18583819999958,163.18583819999958,163.18583819999958,163.18583819999958,163.18583819999958,163.18583819999958,,001,P007,2025_Feb_01_0928,ConditionRich,2021.2.3,59.93637154796724,
140.0,140.75,24,0.75,Stimuli/P007/things_collar_04s.jpg,0,0.0,0.0,0,62,62,62,,,,,,,,,,,,,140.00792999999976,0.007929999999760184,None,166.45540149999988,166.45540149999988,166.45540149999988,166.45540149999988,166.45540149999988,166.45540149999988,166.45540149999988,166.45540149999988,166.45540149999988,166.45540149999988,,001,P007,2025_Feb_01_0928,ConditionRich,2021.2.3,59.93637154796724,
140.75,144.0,41,0.0,Stimuli/Blank.png,0,0.0,0.0,0,63,63,63,,,,,,,,,,,,,140.7732089000001,0.023208900000099675,None,167.2061517999996,167.2061517999996,167.2061517999996,167.2061517999996,167.2061517999996,167.2061517999996,167.2061517999996,167.2061517999996,167.2061517999996,167.2061517999996,,001,P007,2025_Feb_01_0928,ConditionRich,2021.2.3,59.93637154796724,
144.0,144.75,12,0.75,Stimuli/P007/sun_bitpmyvulluuasab.jpg,0,0.0,0.0,0,64,64,64,,,,,,,,,,,,,144.00861290000012,0.008612900000116497,None,170.44225219999998,170.44225219999998,170.44225219999998,170.44225219999998,170.44225219999998,170.44225219999998,170.44225219999998,170.44225219999998,170.44225219999998,170.44225219999998,,001,P007,2025_Feb_01_0928,ConditionRich,2021.2.3,59.93637154796724,
144.75,148.0,41,0.0,Stimuli/Blank.png,1,1.25,2.0,0,65,65,65,,,,,,,,,,,,,144.75998619999973,0.009986199999730161,2,171.19292359999963,171.19292359999963,171.19292359999963,171.19292359999963,171.19292359999963,171.19292359999963,172.42729759999975,173.1780560999996,171.19292359999963,171.19292359999963,1.4944979000001695,001,P007,2025_Feb_01_0928,ConditionRich,2021.2.3,59.93637154796724,
148.0,148.75,7,0.75,Stimuli/P007/sun_babhwrqvnhanonuy.jpg,0,0.0,0.0,0,66,66,66,,,,,,,,,,,,,148.01298099999985,0.012980999999854248,None,174.44576689999985,174.44576689999985,174.44576689999985,174.44576689999985,174.44576689999985,174.44576689999985,174.44576689999985,174.44576689999985,174.44576689999985,174.44576689999985,,001,P007,2025_Feb_01_0928,ConditionRich,2021.2.3,59.93637154796724,
148.75,152.0,41,0.0,Stimuli/Blank.png,0,0.0,0.0,0,67,67,67,,,,,,,,,,,,,148.76270399999976,0.012703999999757798,None,175.19645329999958,175.19645329999958,175.19645329999958,175.19645329999958,175.19645329999958,175.19645329999958,175.19645329999958,175.19645329999958,175.19645329999958,175.19645329999958,,001,P007,2025_Feb_01_0928,ConditionRich,2021.2.3,59.93637154796724,
152.0,152.75,2,0.75,Stimuli/P007/sun_ajyzloqaptmicnfr.jpg,0,0.0,0.0,0,68,68,68,,,,,,,,,,,,,152.01564839999992,0.015648399999918183,None,178.44932999999992,178.44932999999992,178.44932999999992,178.44932999999992,178.44932999999992,178.44932999999992,178.44932999999992,178.44932999999992,178.44932999999992,178.44932999999992,,001,P007,2025_Feb_01_0928,ConditionRich,2021.2.3,59.93637154796724,
152.75,156.0,41,0.0,Stimuli/Blank.png,0,0.0,0.0,0,69,69,69,,,,,,,,,,,,,152.75179470000012,0.0017947000001186098,None,179.2000033999998,179.2000033999998,179.2000033999998,179.2000033999998,179.2000033999998,179.2000033999998,179.2000033999998,179.2000033999998,179.2000033999998,179.2000033999998,,001,P007,2025_Feb_01_0928,ConditionRich,2021.2.3,59.93637154796724,
156.0,156.75,20,0.75,Stimuli/P007/sun_btrxtfbwtggtrpfv.jpg,0,0.0,0.0,0,70,70,70,,,,,,,,,,,,,156.02193549999993,0.021935499999926833,None,182.4695572999999,182.4695572999999,182.4695572999999,182.4695572999999,182.4695572999999,182.4695572999999,182.4695572999999,182.4695572999999,182.4695572999999,182.4695572999999,,001,P007,2025_Feb_01_0928,ConditionRich,2021.2.3,59.93637154796724,
156.75,160.0,41,0.0,Stimuli/Blank.png,0,0.0,0.0,0,71,71,71,,,,,,,,,,,,,156.7720865000001,0.02208650000011403,None,183.22022079999988,183.22022079999988,183.22022079999988,183.22022079999988,183.22022079999988,183.22022079999988,183.22022079999988,183.22022079999988,183.22022079999988,183.22022079999988,,001,P007,2025_Feb_01_0928,ConditionRich,2021.2.3,59.93637154796724,
160.0,160.75,5,0.75,Stimuli/P007/sun_ayzkwnqsoiycbncn.jpg,1,0.0,0.75,0,72,72,72,,,,,,,,,,,,,160.02274480000005,0.022744800000054965,2,186.45641079999996,186.45641079999996,186.45641079999996,186.45641079999996,186.45641079999996,186.45641079999996,186.45641079999996,None,186.45641079999996,186.45641079999996,0.34294729999965057,001,P007,2025_Feb_01_0928,ConditionRich,2021.2.3,59.93637154796724,
160.75,164.0,41,0.0,Stimuli/Blank.png,0,0.0,0.0,0,73,73,73,,,,,,,,,,,,,160.75777119999975,0.007771199999751843,None,187.1904112999996,187.1904112999996,187.1904112999996,187.1904112999996,187.1904112999996,187.1904112999996,187.1904112999996,187.1904112999996,187.1904112999996,187.1904112999996,,001,P007,2025_Feb_01_0928,ConditionRich,2021.2.3,59.93637154796724,
164.0,164.75,32,0.75,Stimuli/P007/things_maggot_04s.jpg,0,0.0,0.0,0,74,74,74,,,,,,,,,,,,,164.01209960000006,0.012099600000055943,None,190.45995709999988,190.45995709999988,190.45995709999988,190.45995709999988,190.45995709999988,190.45995709999988,190.45995709999988,190.45995709999988,190.45995709999988,190.45995709999988,,001,P007,2025_Feb_01_0928,ConditionRich,2021.2.3,59.93637154796724,
164.75,168.0,41,0.0,Stimuli/Blank.png,0,0.0,0.0,0,75,75,75,,,,,,,,,,,,,164.7784754999998,0.028475499999785825,None,191.2273194999998,191.2273194999998,191.2273194999998,191.2273194999998,191.2273194999998,191.2273194999998,191.2273194999998,191.2273194999998,191.2273194999998,191.2273194999998,,001,P007,2025_Feb_01_0928,ConditionRich,2021.2.3,59.93637154796724,
168.0,168.75,36,0.75,Stimuli/P007/things_platypus_04s.jpg,0,0.0,0.0,0,76,76,76,,,,,,,,,,,,,168.03110199999992,0.031101999999918917,None,194.4635003999997,194.4635003999997,194.4635003999997,194.4635003999997,194.4635003999997,194.4635003999997,194.4635003999997,194.4635003999997,194.4635003999997,194.4635003999997,,001,P007,2025_Feb_01_0928,ConditionRich,2021.2.3,59.93637154796724,
168.75,172.0,41,0.0,Stimuli/Blank.png,0,0.0,0.0,0,77,77,77,,,,,,,,,,,,,168.76436839999997,0.014368399999966641,None,195.19748009999967,195.19748009999967,195.19748009999967,195.19748009999967,195.19748009999967,195.19748009999967,195.19748009999967,195.19748009999967,195.19748009999967,195.19748009999967,,001,P007,2025_Feb_01_0928,ConditionRich,2021.2.3,59.93637154796724,
172.0,172.75,38,0.75,Stimuli/P007/things_rollerblade_04s.jpg,0,0.0,0.0,0,78,78,78,,,,,,,,,,,,,172.00068999999985,0.0006899999998495332,None,198.43367089999992,198.43367089999992,198.43367089999992,198.43367089999992,198.43367089999992,198.43367089999992,198.43367089999992,198.43367089999992,198.43367089999992,198.43367089999992,,001,P007,2025_Feb_01_0928,ConditionRich,2021.2.3,59.93637154796724,
172.75,176.0,41,0.0,Stimuli/Blank.png,1,0.25,1.0,0,79,79,79,,,,,,,,,,,,,172.75080519999983,0.0008051999998315296,2,199.18434279999974,199.18434279999974,199.18434279999974,199.18434279999974,199.18434279999974,199.18434279999974,199.41791699999976,200.1685639999996,199.18434279999974,199.18434279999974,0.625047099999847,001,P007,2025_Feb_01_0928,ConditionRich,2021.2.3,59.93637154796724,
176.0,176.75,22,0.75,Stimuli/P007/things_boar_04s.jpg,0,0.0,0.0,0,80,80,80,,,,,,,,,,,,,176.0043443999998,0.004344399999808957,None,202.43721179999966,202.43721179999966,202.43721179999966,202.43721179999966,202.43721179999966,202.43721179999966,202.43721179999966,202.43721179999966,202.43721179999966,202.43721179999966,,001,P007,2025_Feb_01_0928,ConditionRich,2021.2.3,59.93637154796724,
176.75,180.0,41,0.0,Stimuli/Blank.png,0,0.0,0.0,0,81,81,81,,,,,,,,,,,,,176.75446009999996,0.004460099999960221,None,203.18881629999987,203.18881629999987,203.18881629999987,203.18881629999987,203.18881629999987,203.18881629999987,203.18881629999987,203.18881629999987,203.18881629999987,203.18881629999987,,001,P007,2025_Feb_01_0928,ConditionRich,2021.2.3,59.93637154796724,
180.0,196.0,0,0.0,Stimuli/Blank.png,1,10.0,10.75,0,82,82,82,,,,,,,,,,,,,180.00772240000015,0.0077224000001479,2,206.44076529999984,206.44076529999984,206.44076529999984,206.44076529999984,206.44076529999984,206.44076529999984,216.43291359999967,217.16694179999968,206.44076529999984,206.44076529999984,10.306510400000207,001,P007,2025_Feb_01_0928,ConditionRich,2021.2.3,59.93637154796724,
196.0,196.75,26,0.75,Stimuli/P007/things_face_04s.jpg,1,0.0,0.75,0,83,83,83,,,,,,,,,,,,,196.00539320000007,0.005393200000071374,2,222.45490919999975,222.45490919999975,222.45490919999975,222.45490919999975,222.45490919999975,222.45490919999975,222.45490919999975,223.17220439999983,222.45490919999975,222.45490919999975,0.35344009999971604,001,P007,2025_Feb_01_0928,ConditionRich,2021.2.3,59.93637154796724,
196.75,200.0,41,0.0,Stimuli/Blank.png,0,0.0,0.0,0,84,84,84,,,,,,,,,,,,,196.77257830000008,0.022578300000077434,None,223.20558459999984,223.20558459999984,223.20558459999984,223.20558459999984,223.20558459999984,223.20558459999984,223.20558459999984,223.20558459999984,223.20558459999984,223.20558459999984,,001,P007,2025_Feb_01_0928,ConditionRich,2021.2.3,59.93637154796724,
200.0,200.75,17,0.75,Stimuli/P007/sun_bnsxdhbsafbdyncy.jpg,0,0.0,0.0,0,85,85,85,,,,,,,,,,,,,200.0088925,0.008892500000001746,None,226.4584574999999,226.4584574999999,226.4584574999999,226.4584574999999,226.4584574999999,226.4584574999999,226.4584574999999,226.4584574999999,226.4584574999999,226.4584574999999,,001,P007,2025_Feb_01_0928,ConditionRich,2021.2.3,59.93637154796724,
200.75,204.0,41,0.0,Stimuli/Blank.png,0,0.0,0.0,0,86,86,86,,,,,,,,,,,,,200.7760800000001,0.026080000000092696,None,227.20912089999956,227.20912089999956,227.20912089999956,227.20912089999956,227.20912089999956,227.20912089999956,227.20912089999956,227.20912089999956,227.20912089999956,227.20912089999956,,001,P007,2025_Feb_01_0928,ConditionRich,2021.2.3,59.93637154796724,
204.0,204.75,29,0.75,Stimuli/P007/things_hawk_04s.jpg,0,0.0,0.0,0,87,87,87,,,,,,,,,,,,,204.01257209999994,0.01257209999994302,None,230.44531579999966,230.44531579999966,230.44531579999966,230.44531579999966,230.44531579999966,230.44531579999966,230.44531579999966,230.44531579999966,230.44531579999966,230.44531579999966,,001,P007,2025_Feb_01_0928,ConditionRich,2021.2.3,59.93637154796724,
204.75,208.0,41,0.0,Stimuli/Blank.png,1,1.25,2.0,0,88,88,88,,,,,,,,,,,,,204.76300630000014,0.0130063000001428,2,231.19597049999993,231.19597049999993,231.19597049999993,231.19597049999993,231.19597049999993,231.19597049999993,232.43038549999983,233.18109949999962,231.19597049999993,231.19597049999993,1.6825266999999258,001,P007,2025_Feb_01_0928,ConditionRich,2021.2.3,59.93637154796724,
208.0,208.75,7,0.75,Stimuli/P007/sun_babhwrqvnhanonuy.jpg,0,0.0,0.0,0,89,89,89,,,,,,,,,,,,,207.99865769999997,-0.001342300000032992,None,234.4488540999996,234.4488540999996,234.4488540999996,234.4488540999996,234.4488540999996,234.4488540999996,234.4488540999996,234.4488540999996,234.4488540999996,234.4488540999996,,001,P007,2025_Feb_01_0928,ConditionRich,2021.2.3,59.93637154796724,
208.75,212.0,41,0.0,Stimuli/Blank.png,1,2.25,3.0,0,90,90,90,,,,,,,,,,,,,208.76647749999984,0.016477499999837164,2,235.19951439999977,235.19951439999977,235.19951439999977,235.19951439999977,235.19951439999977,235.19951439999977,237.43482029999996,238.18547679999983,235.19951439999977,235.19951439999977,2.534864799999923,001,P007,2025_Feb_01_0928,ConditionRich,2021.2.3,59.93637154796724,
212.0,212.75,24,0.75,Stimuli/P007/things_collar_04s.jpg,0,0.0,0.0,0,91,91,91,,,,,,,,,,,,,212.00279330000012,0.002793300000121235,None,238.43571379999958,238.43571379999958,238.43571379999958,238.43571379999958,238.43571379999958,238.43571379999958,238.43571379999958,238.43571379999958,238.43571379999958,238.43571379999958,,001,P007,2025_Feb_01_0928,ConditionRich,2021.2.3,59.93637154796724,
212.75,216.0,41,0.0,Stimuli/Blank.png,0,0.0,0.0,0,92,92,92,,,,,,,,,,,,,212.7532157999999,0.0032157999999071762,None,239.1863656999999,239.1863656999999,239.1863656999999,239.1863656999999,239.1863656999999,239.1863656999999,239.1863656999999,239.1863656999999,239.1863656999999,239.1863656999999,,001,P007,2025_Feb_01_0928,ConditionRich,2021.2.3,59.93637154796724,
216.0,216.75,5,0.75,Stimuli/P007/sun_ayzkwnqsoiycbncn.jpg,0,0.0,0.0,0,93,93,93,,,,,,,,,,,,,216.0054697999999,0.005469799999900715,None,242.43924719999995,242.43924719999995,242.43924719999995,242.43924719999995,242.43924719999995,242.43924719999995,242.43924719999995,242.43924719999995,242.43924719999995,242.43924719999995,,001,P007,2025_Feb_01_0928,ConditionRich,2021.2.3,59.93637154796724,
216.75,220.0,41,0.0,Stimuli/Blank.png,0,0.0,0.0,0,94,94,94,,,,,,,,,,,,,216.7563298,0.006329800000003161,None,243.18990889999986,243.18990889999986,243.18990889999986,243.18990889999986,243.18990889999986,243.18990889999986,243.18990889999986,243.18990889999986,243.18990889999986,243.18990889999986,,001,P007,2025_Feb_01_0928,ConditionRich,2021.2.3,59.93637154796724,
220.0,220.75,19,0.75,Stimuli/P007/sun_brpfgrmubnnjvfkw.jpg,0,0.0,0.0,0,95,95,95,,,,,,,,,,,,,220.01176750000013,0.011767500000132713,None,246.4594677,246.4594677,246.4594677,246.4594677,246.4594677,246.4594677,246.4594677,246.4594677,246.4594677,246.4594677,,001,P007,2025_Feb_01_0928,ConditionRich,2021.2.3,59.93637154796724,
220.75,224.0,41,0.0,Stimuli/Blank.png,0,0.0,0.0,0,96,96,96,,,,,,,,,,,,,220.7774959999997,0.02749599999970087,None,247.21013279999988,247.21013279999988,247.21013279999988,247.21013279999988,247.21013279999988,247.21013279999988,247.21013279999988,247.21013279999988,247.21013279999988,247.21013279999988,,001,P007,2025_Feb_01_0928,ConditionRich,2021.2.3,59.93637154796724,
224.0,224.75,16,0.75,Stimuli/P007/sun_bnpggenxuowzsywq.jpg,0,0.0,0.0,0,97,97,97,,,,,,,,,,,,,224.01304429999982,0.013044299999819486,None,250.44632109999975,250.44632109999975,250.44632109999975,250.44632109999975,250.44632109999975,250.44632109999975,250.44632109999975,250.44632109999975,250.44632109999975,250.44632109999975,,001,P007,2025_Feb_01_0928,ConditionRich,2021.2.3,59.93637154796724,
224.75,228.0,41,0.0,Stimuli/Blank.png,0,0.0,0.0,0,98,98,98,,,,,,,,,,,,,224.7634079999998,0.013407999999799358,None,251.1969949999998,251.1969949999998,251.1969949999998,251.1969949999998,251.1969949999998,251.1969949999998,251.1969949999998,251.1969949999998,251.1969949999998,251.1969949999998,,001,P007,2025_Feb_01_0928,ConditionRich,2021.2.3,59.93637154796724,
228.0,228.75,34,0.75,Stimuli/P007/things_moose_04s.jpg,0,0.0,0.0,0,99,99,99,,,,,,,,,,,,,228.0023001999998,0.002300199999808683,None,254.44986589999962,254.44986589999962,254.44986589999962,254.44986589999962,254.44986589999962,254.44986589999962,254.44986589999962,254.44986589999962,254.44986589999962,254.44986589999962,,001,P007,2025_Feb_01_0928,ConditionRich,2021.2.3,59.93637154796724,
228.75,232.0,41,0.0,Stimuli/Blank.png,0,0.0,0.0,0,100,100,100,,,,,,,,,,,,,228.7676722000001,0.017672200000106386,None,255.20053849999977,255.20053849999977,255.20053849999977,255.20053849999977,255.20053849999977,255.20053849999977,255.20053849999977,255.20053849999977,255.20053849999977,255.20053849999977,,001,P007,2025_Feb_01_0928,ConditionRich,2021.2.3,59.93637154796724,
232.0,232.75,37,0.75,Stimuli/P007/things_praying_mantis_04s.jpg,0,0.0,0.0,0,101,101,101,,,,,,,,,,,,,232.00397789999988,0.003977899999881629,None,258.4534094999999,258.4534094999999,258.4534094999999,258.4534094999999,258.4534094999999,258.4534094999999,258.4534094999999,258.4534094999999,258.4534094999999,258.4534094999999,,001,P007,2025_Feb_01_0928,ConditionRich,2021.2.3,59.93637154796724,
232.75,236.0,41,0.0,Stimuli/Blank.png,0,0.0,0.0,0,102,102,102,,,,,,,,,,,,,232.77317619999985,0.023176199999852543,None,259.2207519999997,259.2207519999997,259.2207519999997,259.2207519999997,259.2207519999997,259.2207519999997,259.2207519999997,259.2207519999997,259.2207519999997,259.2207519999997,,001,P007,2025_Feb_01_0928,ConditionRich,2021.2.3,59.93637154796724,
236.0,236.75,40,0.75,Stimuli/P007/things_woman_04s.jpg,0,0.0,0.0,0,103,103,103,,,,,,,,,,,,,236.02420119999988,0.024201199999879464,None,262.47363819999964,262.47363819999964,262.47363819999964,262.47363819999964,262.47363819999964,262.47363819999964,262.47363819999964,262.47363819999964,262.47363819999964,262.47363819999964,,001,P007,2025_Feb_01_0928,ConditionRich,2021.2.3,59.93637154796724,
236.75,240.0,41,0.0,Stimuli/Blank.png,0,0.0,0.0,0,104,104,104,,,,,,,,,,,,,236.7740921999998,0.0240921999998136,None,263.2076010999999,263.2076010999999,263.2076010999999,263.2076010999999,263.2076010999999,263.2076010999999,263.2076010999999,263.2076010999999,263.2076010999999,263.2076010999999,,001,P007,2025_Feb_01_0928,ConditionRich,2021.2.3,59.93637154796724,
240.0,240.75,15,0.75,Stimuli/P007/sun_bmeductqpfkygtww.jpg,0,0.0,0.0,0,105,105,105,,,,,,,,,,,,,240.0112141999998,0.01121419999981299,None,266.4604811999998,266.4604811999998,266.4604811999998,266.4604811999998,266.4604811999998,266.4604811999998,266.4604811999998,266.4604811999998,266.4604811999998,266.4604811999998,,001,P007,2025_Feb_01_0928,ConditionRich,2021.2.3,59.93637154796724,
240.75,244.0,41,0.0,Stimuli/Blank.png,0,0.0,0.0,0,106,106,106,,,,,,,,,,,,,240.77740940000012,0.02740940000012415,None,267.2111468999997,267.2111468999997,267.2111468999997,267.2111468999997,267.2111468999997,267.2111468999997,267.2111468999997,267.2111468999997,267.2111468999997,267.2111468999997,,001,P007,2025_Feb_01_0928,ConditionRich,2021.2.3,59.93637154796724,
244.0,244.75,13,0.75,Stimuli/P007/sun_bkhuvtsqontzwtbo.jpg,0,0.0,0.0,0,107,107,107,,,,,,,,,,,,,244.01437540000006,0.014375400000062655,None,270.4473575999996,270.4473575999996,270.4473575999996,270.4473575999996,270.4473575999996,270.4473575999996,270.4473575999996,270.4473575999996,270.4473575999996,270.4473575999996,,001,P007,2025_Feb_01_0928,ConditionRich,2021.2.3,59.93637154796724,
244.75,248.0,41,0.0,Stimuli/Blank.png,1,0.25,1.0,0,108,108,108,,,,,,,,,,,,,244.7650619000001,0.015061900000091555,2,271.1979717999998,271.1979717999998,271.1979717999998,271.1979717999998,271.1979717999998,271.1979717999998,271.4315886999998,272.18220139999994,271.1979717999998,271.1979717999998,0.6164383000000271,001,P007,2025_Feb_01_0928,ConditionRich,2021.2.3,59.93637154796724,
248.0,248.75,1,0.75,Stimuli/P007/sun_abrlrupzcrwpxqfc.jpg,0,0.0,0.0,0,109,109,109,,,,,,,,,,,,,248.00160789999973,0.0016078999997262144,None,274.4508754999997,274.4508754999997,274.4508754999997,274.4508754999997,274.4508754999997,274.4508754999997,274.4508754999997,274.4508754999997,274.4508754999997,274.4508754999997,,001,P007,2025_Feb_01_0928,ConditionRich,2021.2.3,59.93637154796724,
248.75,252.0,41,0.0,Stimuli/Blank.png,0,0.0,0.0,0,110,110,110,,,,,,,,,,,,,248.76784420000013,0.017844200000126875,None,275.20154429999957,275.20154429999957,275.20154429999957,275.20154429999957,275.20154429999957,275.20154429999957,275.20154429999957,275.20154429999957,275.20154429999957,275.20154429999957,,001,P007,2025_Feb_01_0928,ConditionRich,2021.2.3,59.93637154796724,
252.0,252.75,27,0.75,Stimuli/P007/things_fur_coat_04s.jpg,0,0.0,0.0,0,111,111,111,,,,,,,,,,,,,252.0042039,0.004203899999993155,None,278.43774019999955,278.43774019999955,278.43774019999955,278.43774019999955,278.43774019999955,278.43774019999955,278.43774019999955,278.43774019999955,278.43774019999955,278.43774019999955,,001,P007,2025_Feb_01_0928,ConditionRich,2021.2.3,59.93637154796724,
252.75,256.0,41,0.0,Stimuli/Blank.png,0,0.0,0.0,0,112,112,112,,,,,,,,,,,,,252.7568824,0.006882399999994959,None,279.20508389999986,279.20508389999986,279.20508389999986,279.20508389999986,279.20508389999986,279.20508389999986,279.20508389999986,279.20508389999986,279.20508389999986,279.20508389999986,,001,P007,2025_Feb_01_0928,ConditionRich,2021.2.3,59.93637154796724,
256.0,256.75,18,0.75,Stimuli/P007/sun_borgfidyubrwsuuw.jpg,0,0.0,0.0,0,113,113,113,,,,,,,,,,,,,256.0244978999999,0.024497899999914807,None,282.4746517999997,282.4746517999997,282.4746517999997,282.4746517999997,282.4746517999997,282.4746517999997,282.4746517999997,282.4746517999997,282.4746517999997,282.4746517999997,,001,P007,2025_Feb_01_0928,ConditionRich,2021.2.3,59.93637154796724,
256.75,260.0,41,0.0,Stimuli/Blank.png,0,0.0,0.0,0,114,114,114,,,,,,,,,,,,,256.7762192,0.026219200000014098,None,283.20862959999977,283.20862959999977,283.20862959999977,283.20862959999977,283.20862959999977,283.20862959999977,283.20862959999977,283.20862959999977,283.20862959999977,283.20862959999977,,001,P007,2025_Feb_01_0928,ConditionRich,2021.2.3,59.93637154796724,
260.0,260.75,22,0.75,Stimuli/P007/things_boar_04s.jpg,0,0.0,0.0,0,115,115,115,,,,,,,,,,,,,260.01185529999975,0.011855299999751878,None,286.4448161999999,286.4448161999999,286.4448161999999,286.4448161999999,286.4448161999999,286.4448161999999,286.4448161999999,286.4448161999999,286.4448161999999,286.4448161999999,,001,P007,2025_Feb_01_0928,ConditionRich,2021.2.3,59.93637154796724,
260.75,264.0,41,0.0,Stimuli/Blank.png,0,0.0,0.0,0,116,116,116,,,,,,,,,,,,,260.76258430000007,0.01258430000007138,None,287.1954900999999,287.1954900999999,287.1954900999999,287.1954900999999,287.1954900999999,287.1954900999999,287.1954900999999,287.1954900999999,287.1954900999999,287.1954900999999,,001,P007,2025_Feb_01_0928,ConditionRich,2021.2.3,59.93637154796724,
264.0,264.75,8,0.75,Stimuli/P007/sun_bbnepvzvycqjjczs.jpg,0,0.0,0.0,0,117,117,117,,,,,,,,,,,,,264.0173706999999,0.017370699999901262,None,290.4650475999997,290.4650475999997,290.4650475999997,290.4650475999997,290.4650475999997,290.4650475999997,290.4650475999997,290.4650475999997,290.4650475999997,290.4650475999997,,001,P007,2025_Feb_01_0928,ConditionRich,2021.2.3,59.93637154796724,
264.75,268.0,41,0.0,Stimuli/Blank.png,0,0.0,0.0,0,118,118,118,,,,,,,,,,,,,264.7674102000001,0.01741020000008575,None,291.2157047999999,291.2157047999999,291.2157047999999,291.2157047999999,291.2157047999999,291.2157047999999,291.2157047999999,291.2157047999999,291.2157047999999,291.2157047999999,,001,P007,2025_Feb_01_0928,ConditionRich,2021.2.3,59.93637154796724,
268.0,268.75,30,0.75,Stimuli/P007/things_jalapeno_04s.jpg,0,0.0,0.0,0,119,119,119,,,,,,,,,,,,,268.0182085000001,0.01820850000012797,None,294.4519011999996,294.4519011999996,294.4519011999996,294.4519011999996,294.4519011999996,294.4519011999996,294.4519011999996,294.4519011999996,294.4519011999996,294.4519011999996,,001,P007,2025_Feb_01_0928,ConditionRich,2021.2.3,59.93637154796724,
268.75,272.0,41,0.0,Stimuli/Blank.png,0,0.0,0.0,0,120,120,120,,,,,,,,,,,,,268.7529830999997,0.002983099999710248,None,295.1858772999999,295.1858772999999,295.1858772999999,295.1858772999999,295.1858772999999,295.1858772999999,295.1858772999999,295.1858772999999,295.1858772999999,295.1858772999999,,001,P007,2025_Feb_01_0928,ConditionRich,2021.2.3,59.93637154796724,
272.0,272.75,38,0.75,Stimuli/P007/things_rollerblade_04s.jpg,0,0.0,0.0,0,121,121,121,,,,,,,,,,,,,272.00643630000013,0.006436300000132178,None,298.4554321999999,298.4554321999999,298.4554321999999,298.4554321999999,298.4554321999999,298.4554321999999,298.4554321999999,298.4554321999999,298.4554321999999,298.4554321999999,,001,P007,2025_Feb_01_0928,ConditionRich,2021.2.3,59.93637154796724,
272.75,276.0,41,0.0,Stimuli/Blank.png,0,0.0,0.0,0,122,122,122,,,,,,,,,,,,,272.77320310000005,0.023203100000046106,None,299.20610239999996,299.20610239999996,299.20610239999996,299.20610239999996,299.20610239999996,299.20610239999996,299.20610239999996,299.20610239999996,299.20610239999996,299.20610239999996,,001,P007,2025_Feb_01_0928,ConditionRich,2021.2.3,59.93637154796724,
276.0,292.0,0,0.0,Stimuli/Blank.png,1,7.0,7.75,0,123,123,123,,,,,,,,,,,,,276.00927379999985,0.009273799999846233,2,302.4423834999998,302.4423834999998,302.4423834999998,302.4423834999998,302.4423834999998,302.4423834999998,309.4318543999998,310.1824747999999,302.4423834999998,302.4423834999998,7.293338400000266,001,P007,2025_Feb_01_0928,ConditionRich,2021.2.3,59.93637154796724,
292.0,292.75,36,0.75,Stimuli/P007/things_platypus_04s.jpg,0,0.0,0.0,0,124,124,124,,,,,,,,,,,,,292.0062168999998,0.006216899999799352,None,318.4397763999996,318.4397763999996,318.4397763999996,318.4397763999996,318.4397763999996,318.4397763999996,318.4397763999996,318.4397763999996,318.4397763999996,318.4397763999996,,001,P007,2025_Feb_01_0928,ConditionRich,2021.2.3,59.93637154796724,
292.75,296.0,41,0.0,Stimuli/Blank.png,0,0.0,0.0,0,125,125,125,,,,,,,,,,,,,292.7569033999998,0.0069033999998282525,None,319.19049029999996,319.19049029999996,319.19049029999996,319.19049029999996,319.19049029999996,319.19049029999996,319.19049029999996,319.19049029999996,319.19049029999996,319.19049029999996,,001,P007,2025_Feb_01_0928,ConditionRich,2021.2.3,59.93637154796724,
296.0,296.75,9,0.75,Stimuli/P007/sun_bcsqogieozpyvuft.jpg,0,0.0,0.0,0,126,126,126,,,,,,,,,,,,,296.01225639999984,0.01225639999984196,None,322.46000879999974,322.46000879999974,322.46000879999974,322.46000879999974,322.46000879999974,322.46000879999974,322.46000879999974,322.46000879999974,322.46000879999974,322.46000879999974,,001,P007,2025_Feb_01_0928,ConditionRich,2021.2.3,59.93637154796724,
296.75,300.0,41,0.0,Stimuli/Blank.png,0,0.0,0.0,0,127,127,127,,,,,,,,,,,,,296.77689150000015,0.02689150000014706,None,323.21066629999996,323.21066629999996,323.21066629999996,323.21066629999996,323.21066629999996,323.21066629999996,323.21066629999996,323.21066629999996,323.21066629999996,323.21066629999996,,001,P007,2025_Feb_01_0928,ConditionRich,2021.2.3,59.93637154796724,
300.0,300.75,4,0.75,Stimuli/P007/sun_awqukazlzsxaokai.jpg,0,0.0,0.0,0,128,128,128,,,,,,,,,,,,,300.0138366000001,0.013836600000104227,None,326.4635473999997,326.4635473999997,326.4635473999997,326.4635473999997,326.4635473999997,326.4635473999997,326.4635473999997,326.4635473999997,326.4635473999997,326.4635473999997,,001,P007,2025_Feb_01_0928,ConditionRich,2021.2.3,59.93637154796724,
300.75,304.0,41,0.0,Stimuli/Blank.png,0,0.0,0.0,0,129,129,129,,,,,,,,,,,,,300.78122840000015,0.031228400000145484,None,327.2142048999999,327.2142048999999,327.2142048999999,327.2142048999999,327.2142048999999,327.2142048999999,327.2142048999999,327.2142048999999,327.2142048999999,327.2142048999999,,001,P007,2025_Feb_01_0928,ConditionRich,2021.2.3,59.93637154796724,
304.0,304.75,3,0.75,Stimuli/P007/sun_aueftjhdwnvkbzlt.jpg,1,0.0,0.75,0,130,130,130,,,,,,,,,,,,,304.0023443,0.0023443000000042957,2,330.4504506999997,330.4504506999997,330.4504506999997,330.4504506999997,330.4504506999997,330.4504506999997,330.4504506999997,331.1843795,330.4504506999997,330.4504506999997,0.4400080999998863,001,P007,2025_Feb_01_0928,ConditionRich,2021.2.3,59.93637154796724,
304.75,308.0,41,0.0,Stimuli/Blank.png,0,0.0,0.0,0,131,131,131,,,,,,,,,,,,,304.7675181999998,0.017518199999813078,None,331.2010573999996,331.2010573999996,331.2010573999996,331.2010573999996,331.2010573999996,331.2010573999996,331.2010573999996,331.2010573999996,331.2010573999996,331.2010573999996,,001,P007,2025_Feb_01_0928,ConditionRich,2021.2.3,59.93637154796724,
308.0,308.75,12,0.75,Stimuli/P007/sun_bitpmyvulluuasab.jpg,0,0.0,0.0,0,132,132,132,,,,,,,,,,,,,308.0037202999997,0.003720299999713461,None,334.4372519999997,334.4372519999997,334.4372519999997,334.4372519999997,334.4372519999997,334.4372519999997,334.4372519999997,334.4372519999997,334.4372519999997,334.4372519999997,,001,P007,2025_Feb_01_0928,ConditionRich,2021.2.3,59.93637154796724,
308.75,312.0,41,0.0,Stimuli/Blank.png,0,0.0,0.0,0,133,133,133,,,,,,,,,,,,,308.75713959999985,0.007139599999845814,None,335.20460619999994,335.20460619999994,335.20460619999994,335.20460619999994,335.20460619999994,335.20460619999994,335.20460619999994,335.20460619999994,335.20460619999994,335.20460619999994,,001,P007,2025_Feb_01_0928,ConditionRich,2021.2.3,59.93637154796724,
312.0,312.75,11,0.75,Stimuli/P007/sun_bdsriuscubkvzrmt.jpg,0,0.0,0.0,0,134,134,134,,,,,,,,,,,,,312.02465170000005,0.02465170000004946,None,338.4741528999998,338.4741528999998,338.4741528999998,338.4741528999998,338.4741528999998,338.4741528999998,338.4741528999998,338.4741528999998,338.4741528999998,338.4741528999998,,001,P007,2025_Feb_01_0928,ConditionRich,2021.2.3,59.93637154796724,
312.75,316.0,41,0.0,Stimuli/Blank.png,0,0.0,0.0,0,135,135,135,,,,,,,,,,,,,312.7769137,0.0269137000000228,None,339.22484959999974,339.22484959999974,339.22484959999974,339.22484959999974,339.22484959999974,339.22484959999974,339.22484959999974,339.22484959999974,339.22484959999974,339.22484959999974,,001,P007,2025_Feb_01_0928,ConditionRich,2021.2.3,59.93637154796724,
316.0,316.75,35,0.75,Stimuli/P007/things_pecan_04s.jpg,0,0.0,0.0,0,136,136,136,,,,,,,,,,,,,316.0273889,0.02738890000000538,None,342.4610226,342.4610226,342.4610226,342.4610226,342.4610226,342.4610226,342.4610226,342.4610226,342.4610226,342.4610226,,001,P007,2025_Feb_01_0928,ConditionRich,2021.2.3,59.93637154796724,
316.75,320.0,41,0.0,Stimuli/Blank.png,0,0.0,0.0,0,137,137,137,,,,,,,,,,,,,316.7619961999999,0.011996199999884993,None,343.19500659999994,343.19500659999994,343.19500659999994,343.19500659999994,343.19500659999994,343.19500659999994,343.19500659999994,343.19500659999994,343.19500659999994,343.19500659999994,,001,P007,2025_Feb_01_0928,ConditionRich,2021.2.3,59.93637154796724,
320.0,320.75,25,0.75,Stimuli/P007/things_credit_card_04s.jpg,0,0.0,0.0,0,138,138,138,,,,,,,,,,,,,320.0142654000001,0.014265400000113004,None,346.46458189999976,346.46458189999976,346.46458189999976,346.46458189999976,346.46458189999976,346.46458189999976,346.46458189999976,346.46458189999976,346.46458189999976,346.46458189999976,,001,P007,2025_Feb_01_0928,ConditionRich,2021.2.3,59.93637154796724,
320.75,324.0,41,0.0,Stimuli/Blank.png,0,0.0,0.0,0,139,139,139,,,,,,,,,,,,,320.78271369999993,0.03271369999993112,None,347.21522619999996,347.21522619999996,347.21522619999996,347.21522619999996,347.21522619999996,347.21522619999996,347.21522619999996,347.21522619999996,347.21522619999996,347.21522619999996,,001,P007,2025_Feb_01_0928,ConditionRich,2021.2.3,59.93637154796724,
324.0,324.75,39,0.75,Stimuli/P007/things_showerhead_04s.jpg,0,0.0,0.0,0,140,140,140,,,,,,,,,,,,,324.001182,0.0011819999999715947,None,350.4347389999998,350.4347389999998,350.4347389999998,350.4347389999998,350.4347389999998,350.4347389999998,350.4347389999998,350.4347389999998,350.4347389999998,350.4347389999998,,001,P007,2025_Feb_01_0928,ConditionRich,2021.2.3,59.93637154796724,
324.75,328.0,41,0.0,Stimuli/Blank.png,1,2.25,3.0,0,141,141,141,,,,,,,,,,,,,324.7526134999998,0.002613499999824853,2,351.18537309999965,351.18537309999965,351.18537309999965,351.18537309999965,351.18537309999965,351.18537309999965,353.4207537999996,354.17140459999973,351.18537309999965,351.18537309999965,2.6274163000002773,001,P007,2025_Feb_01_0928,ConditionRich,2021.2.3,59.93637154796724,
328.0,328.75,10,0.75,Stimuli/P007/sun_bdekcgnlcicvgpvq.jpg,0,0.0,0.0,0,142,142,142,,,,,,,,,,,,,328.00544649999983,0.0054464999998344865,None,354.4549520999999,354.4549520999999,354.4549520999999,354.4549520999999,354.4549520999999,354.4549520999999,354.4549520999999,354.4549520999999,354.4549520999999,354.4549520999999,,001,P007,2025_Feb_01_0928,ConditionRich,2021.2.3,59.93637154796724,
328.75,332.0,41,0.0,Stimuli/Blank.png,0,0.0,0.0,0,143,143,143,,,,,,,,,,,,,328.77254760000005,0.022547600000052626,None,355.2056226999998,355.2056226999998,355.2056226999998,355.2056226999998,355.2056226999998,355.2056226999998,355.2056226999998,355.2056226999998,355.2056226999998,355.2056226999998,,001,P007,2025_Feb_01_0928,ConditionRich,2021.2.3,59.93637154796724,
332.0,332.75,2,0.75,Stimuli/P007/sun_ajyzloqaptmicnfr.jpg,1,0.0,0.75,0,144,144,144,,,,,,,,,,,,,332.0087616999999,0.008761699999922712,2,358.4418118999997,358.4418118999997,358.4418118999997,358.4418118999997,358.4418118999997,358.4418118999997,358.4418118999997,359.17579259999957,358.4418118999997,358.4418118999997,0.39171570000007705,001,P007,2025_Feb_01_0928,ConditionRich,2021.2.3,59.93637154796724,
332.75,336.0,41,0.0,Stimuli/Blank.png,0,0.0,0.0,0,145,145,145,,,,,,,,,,,,,332.7589290000001,0.008929000000080123,None,359.1924752,359.1924752,359.1924752,359.1924752,359.1924752,359.1924752,359.1924752,359.1924752,359.1924752,359.1924752,,001,P007,2025_Feb_01_0928,ConditionRich,2021.2.3,59.93637154796724,
336.0,336.75,6,0.75,Stimuli/P007/sun_azpjjfwsbjdjcopb.jpg,0,0.0,0.0,0,146,146,146,,,,,,,,,,,,,336.01264919999994,0.01264919999994163,None,362.4453574999998,362.4453574999998,362.4453574999998,362.4453574999998,362.4453574999998,362.4453574999998,362.4453574999998,362.4453574999998,362.4453574999998,362.4453574999998,,001,P007,2025_Feb_01_0928,ConditionRich,2021.2.3,59.93637154796724,
336.75,340.0,41,0.0,Stimuli/Blank.png,0,0.0,0.0,0,147,147,147,,,,,,,,,,,,,336.7628687000001,0.01286870000012641,None,363.19601209999973,363.19601209999973,363.19601209999973,363.19601209999973,363.19601209999973,363.19601209999973,363.19601209999973,363.19601209999973,363.19601209999973,363.19601209999973,,001,P007,2025_Feb_01_0928,ConditionRich,2021.2.3,59.93637154796724,
340.0,340.75,28,0.75,Stimuli/P007/things_girl_04s.jpg,1,0.0,0.75,0,148,148,148,,,,,,,,,,,,,339.99923069999977,-0.0007693000002291228,2,366.43230639999956,366.43230639999956,366.43230639999956,366.43230639999956,366.43230639999956,366.43230639999956,366.43230639999956,367.1662064999996,366.43230639999956,366.43230639999956,0.43132880000030127,001,P007,2025_Feb_01_0928,ConditionRich,2021.2.3,59.93637154796724,
340.75,344.0,41,0.0,Stimuli/Blank.png,0,0.0,0.0,0,149,149,149,,,,,,,,,,,,,340.74982580000005,-0.00017419999994672253,None,367.1829498999996,367.1829498999996,367.1829498999996,367.1829498999996,367.1829498999996,367.1829498999996,367.1829498999996,367.1829498999996,367.1829498999996,367.1829498999996,,001,P007,2025_Feb_01_0928,ConditionRich,2021.2.3,59.93637154796724,
344.0,344.75,33,0.75,Stimuli/P007/things_man_04s.jpg,0,0.0,0.0,0,150,150,150,,,,,,,,,,,,,344.00290459999997,0.002904599999965285,None,370.43574569999964,370.43574569999964,370.43574569999964,370.43574569999964,370.43574569999964,370.43574569999964,370.43574569999964,370.43574569999964,370.43574569999964,370.43574569999964,,001,P007,2025_Feb_01_0928,ConditionRich,2021.2.3,59.93637154796724,
344.75,348.0,41,0.0,Stimuli/Blank.png,0,0.0,0.0,0,151,151,151,,,,,,,,,,,,,344.7530802000001,0.003080200000113109,None,371.1864094999996,371.1864094999996,371.1864094999996,371.1864094999996,371.1864094999996,371.1864094999996,371.1864094999996,371.1864094999996,371.1864094999996,371.1864094999996,,001,P007,2025_Feb_01_0928,ConditionRich,2021.2.3,59.93637154796724,
348.0,348.75,23,0.75,Stimuli/P007/things_bumper_04s.jpg,0,0.0,0.0,0,152,152,152,,,,,,,,,,,,,348.00645699999995,0.00645699999995486,None,374.4392921999997,374.4392921999997,374.4392921999997,374.4392921999997,374.4392921999997,374.4392921999997,374.4392921999997,374.4392921999997,374.4392921999997,374.4392921999997,,001,P007,2025_Feb_01_0928,ConditionRich,2021.2.3,59.93637154796724,
348.75,352.0,41,0.0,Stimuli/Blank.png,0,0.0,0.0,0,153,153,153,,,,,,,,,,,,,348.75706809999974,0.007068099999742117,None,375.1899621999996,375.1899621999996,375.1899621999996,375.1899621999996,375.1899621999996,375.1899621999996,375.1899621999996,375.1899621999996,375.1899621999996,375.1899621999996,,001,P007,2025_Feb_01_0928,ConditionRich,2021.2.3,59.93637154796724,
352.0,352.75,32,0.75,Stimuli/P007/things_maggot_04s.jpg,0,0.0,0.0,0,154,154,154,,,,,,,,,,,,,352.0091671,0.009167100000013306,None,378.4428313999997,378.4428313999997,378.4428313999997,378.4428313999997,378.4428313999997,378.4428313999997,378.4428313999997,378.4428313999997,378.4428313999997,378.4428313999997,,001,P007,2025_Feb_01_0928,ConditionRich,2021.2.3,59.93637154796724,
352.75,356.0,41,0.0,Stimuli/Blank.png,0,0.0,0.0,0,155,155,155,,,,,,,,,,,,,352.75972509999974,0.00972509999974136,None,379.1935443999996,379.1935443999996,379.1935443999996,379.1935443999996,379.1935443999996,379.1935443999996,379.1935443999996,379.1935443999996,379.1935443999996,379.1935443999996,,001,P007,2025_Feb_01_0928,ConditionRich,2021.2.3,59.93637154796724,
356.0,356.75,21,0.75,Stimuli/P007/things_baby_04s.jpg,0,0.0,0.0,0,156,156,156,,,,,,,,,,,,,356.0136560000001,0.013656000000082713,None,382.4463705999997,382.4463705999997,382.4463705999997,382.4463705999997,382.4463705999997,382.4463705999997,382.4463705999997,382.4463705999997,382.4463705999997,382.4463705999997,,001,P007,2025_Feb_01_0928,ConditionRich,2021.2.3,59.93637154796724,
356.75,360.0,41,0.0,Stimuli/Blank.png,1,1.25,2.0,0,157,157,157,,,,,,,,,,,,,356.7641426,0.014142600000013772,2,383.19714969999995,383.19714969999995,383.19714969999995,383.19714969999995,383.19714969999995,383.19714969999995,384.4314952,385.1821665999996,383.19714969999995,383.19714969999995,1.6716338999999607,001,P007,2025_Feb_01_0928,ConditionRich,2021.2.3,59.93637154796724,
360.0,360.75,20,0.75,Stimuli/P007/sun_btrxtfbwtggtrpfv.jpg,0,0.0,0.0,0,158,158,158,,,,,,,,,,,,,360.0025409,0.002540899999985413,None,386.44990759999973,386.44990759999973,386.44990759999973,386.44990759999973,386.44990759999973,386.44990759999973,386.44990759999973,386.44990759999973,386.44990759999973,386.44990759999973,,001,P007,2025_Feb_01_0928,ConditionRich,2021.2.3,59.93637154796724,
360.75,364.0,41,0.0,Stimuli/Blank.png,0,0.0,0.0,0,159,159,159,,,,,,,,,,,,,360.76756380000006,0.017563800000061747,None,387.20058629999994,387.20058629999994,387.20058629999994,387.20058629999994,387.20058629999994,387.20058629999994,387.20058629999994,387.20058629999994,387.20058629999994,387.20058629999994,,001,P007,2025_Feb_01_0928,ConditionRich,2021.2.3,59.93637154796724,
364.0,364.75,14,0.75,Stimuli/P007/sun_bkvjqgmploznrhxt.jpg,0,0.0,0.0,0,160,160,160,,,,,,,,,,,,,364.00385789999973,0.0038578999997298524,None,390.4367607999998,390.4367607999998,390.4367607999998,390.4367607999998,390.4367607999998,390.4367607999998,390.4367607999998,390.4367607999998,390.4367607999998,390.4367607999998,,001,P007,2025_Feb_01_0928,ConditionRich,2021.2.3,59.93637154796724,
364.75,368.0,41,0.0,Stimuli/Blank.png,0,0.0,0.0,0,161,161,161,,,,,,,,,,,,,364.7569497999998,0.006949799999802053,None,391.2041276,391.2041276,391.2041276,391.2041276,391.2041276,391.2041276,391.2041276,391.2041276,391.2041276,391.2041276,,001,P007,2025_Feb_01_0928,ConditionRich,2021.2.3,59.93637154796724,
368.0,368.75,31,0.75,Stimuli/P007/things_jug_04s.jpg,0,0.0,0.0,0,162,162,162,,,,,,,,,,,,,368.0232820000001,0.023282000000108383,None,394.45698939999966,394.45698939999966,394.45698939999966,394.45698939999966,394.45698939999966,394.45698939999966,394.45698939999966,394.45698939999966,394.45698939999966,394.45698939999966,,001,P007,2025_Feb_01_0928,ConditionRich,2021.2.3,59.93637154796724,
368.75,372.0,41,0.0,Stimuli/Blank.png,0,0.0,0.0,0,163,163,163,,,,,,,,,,,,,368.7572494000001,0.007249400000091555,None,395.19096899999977,395.19096899999977,395.19096899999977,395.19096899999977,395.19096899999977,395.19096899999977,395.19096899999977,395.19096899999977,395.19096899999977,395.19096899999977,,001,P007,2025_Feb_01_0928,ConditionRich,2021.2.3,59.93637154796724,
372.0,388.0,0,0.0,Stimuli/Blank.png,1,10.0,10.75,0,164,164,164,,,,,,,,,,,,,372.0113243999999,0.011324399999921297,2,398.44385509999984,398.44385509999984,398.44385509999984,398.44385509999984,398.44385509999984,398.44385509999984,408.43600879999985,409.1866782999996,398.44385509999984,398.44385509999984,10.312760799999978,001,P007,2025_Feb_01_0928,ConditionRich,2021.2.3,59.93637154796724,
