eventStartTime,eventEndTime,eventCond,imSize,imFile,responseEvent,fixRespStart,fixRespEnd,Events.thisRepN,Events.thisTrialN,Events.thisN,Events.thisIndex,Instructions.started,Instructions.stopped,participantReadyResponse.keys,participantReadyResponse.rt,participantReadyResponse.started,participantReadyResponse.stopped,startWaitforTrigger,triggerResponse.keys,triggerResponse.rt,triggerResponse.started,triggerResponse.stopped,globalTimer,actualStartTime,startTimingDiff,participantResponse.keys,participantResponse.started,participantResponse.stopped,image.started,image.stopped,fixationOutside.started,fixationOutside.stopped,fixationResponse.started,fixationResponse.stopped,fixationInside.started,fixationInside.stopped,participantResponse.rt,session,participant,date,expName,psychopyVersion,frameRate,
,,,,,,,,,,,,20.555630299999393,None,2,8.352879900000516,20.555630299999393,None,,,,,,,,,,,,,,,,,,,,,005,P007,2025_Feb_01_1004,ConditionRich,2021.2.3,59.98379237939866,
,,,,,,,,,,,,,,,,,,28.923383599999397,5,13.268982499999765,28.936438599999747,None,,,,,,,,,,,,,,,,005,P007,2025_Feb_01_1004,ConditionRich,2021.2.3,59.98379237939866,
0.0,4.0,0,0.0,Stimuli/Blank.png,0,0,0.0,0,0,0,0,,,,,,,,,,,,42.21899719999965,0.06479419999959646,0.06479419999959646,None,42.29819150000003,None,42.29819150000003,None,42.29819150000003,None,42.29819150000003,42.29819150000003,42.29819150000003,None,,005,P007,2025_Feb_01_1004,ConditionRich,2021.2.3,59.98379237939866,
4.0,4.75,14,0.75,Stimuli/P007/sun_bkvjqgmploznrhxt.jpg,0,0,0.0,0,1,1,1,,,,,,,,,,,,,4.005308299999342,0.005308299999342125,None,46.25198309999996,46.25198309999996,46.25198309999996,46.25198309999996,46.25198309999996,46.25198309999996,46.25198309999996,46.25198309999996,46.25198309999996,46.25198309999996,,005,P007,2025_Feb_01_1004,ConditionRich,2021.2.3,59.98379237939866,
4.75,5.0,41,0.0,Stimuli/Blank.png,0,0,0.0,0,2,2,2,,,,,,,,,,,,,4.769534899999599,0.019534899999598565,None,47.00264729999981,47.00264729999981,47.00264729999981,47.00264729999981,47.00264729999981,47.00264729999981,47.00264729999981,47.00264729999981,47.00264729999981,47.00264729999981,,005,P007,2025_Feb_01_1004,ConditionRich,2021.2.3,59.98379237939866,
5.0,5.75,14,0.75,Stimuli/P007/sun_bkvjqgmploznrhxt.jpg,0,0,0.0,0,3,3,3,,,,,,,,,,,,,5.003268799999205,0.00326879999920493,None,47.23590249999961,47.23590249999961,47.23590249999961,47.23590249999961,47.23590249999961,47.23590249999961,47.23590249999961,47.23590249999961,47.23590249999961,47.23590249999961,,005,P007,2025_Feb_01_1004,ConditionRich,2021.2.3,59.98379237939866,
5.75,6.0,41,0.0,Stimuli/Blank.png,0,0,0.0,0,4,4,4,,,,,,,,,,,,,5.753811799999312,0.0038117999993119156,None,47.98655359999975,47.98655359999975,47.98655359999975,47.98655359999975,47.98655359999975,47.98655359999975,47.98655359999975,47.98655359999975,47.98655359999975,47.98655359999975,,005,P007,2025_Feb_01_1004,ConditionRich,2021.2.3,59.98379237939866,
6.0,6.75,14,0.75,Stimuli/P007/sun_bkvjqgmploznrhxt.jpg,0,0,0.0,0,5,5,5,,,,,,,,,,,,,6.004374899999675,0.004374899999675108,None,48.236781199999314,48.236781199999314,48.236781199999314,48.236781199999314,48.236781199999314,48.236781199999314,48.236781199999314,48.236781199999314,48.236781199999314,48.236781199999314,,005,P007,2025_Feb_01_1004,ConditionRich,2021.2.3,59.98379237939866,
6.75,7.0,41,0.0,Stimuli/Blank.png,0,0,0.0,0,6,6,6,,,,,,,,,,,,,6.754905899999358,0.0049058999993576435,None,48.98745599999984,48.98745599999984,48.98745599999984,48.98745599999984,48.98745599999984,48.98745599999984,48.98745599999984,48.98745599999984,48.98745599999984,48.98745599999984,,005,P007,2025_Feb_01_1004,ConditionRich,2021.2.3,59.98379237939866,
7.0,7.75,14,0.75,Stimuli/P007/sun_bkvjqgmploznrhxt.jpg,0,0,0.0,0,7,7,7,,,,,,,,,,,,,7.005251099999441,0.005251099999441067,None,49.25436429999991,49.25436429999991,49.25436429999991,49.25436429999991,49.25436429999991,49.25436429999991,49.25436429999991,49.25436429999991,49.25436429999991,49.25436429999991,,005,P007,2025_Feb_01_1004,ConditionRich,2021.2.3,59.98379237939866,
7.75,8.0,41,0.0,Stimuli/Blank.png,0,0,0.0,0,8,8,8,,,,,,,,,,,,,7.771406500000012,0.021406500000011874,None,50.00508449999961,50.00508449999961,50.00508449999961,50.00508449999961,50.00508449999961,50.00508449999961,50.00508449999961,50.00508449999961,50.00508449999961,50.00508449999961,,005,P007,2025_Feb_01_1004,ConditionRich,2021.2.3,59.98379237939866,
8.0,8.75,3,0.75,Stimuli/P007/sun_aueftjhdwnvkbzlt.jpg,0,0,0.0,0,9,9,9,,,,,,,,,,,,,8.005540799999835,0.005540799999835144,None,50.238542199999756,50.238542199999756,50.238542199999756,50.238542199999756,50.238542199999756,50.238542199999756,50.238542199999756,50.238542199999756,50.238542199999756,50.238542199999756,,005,P007,2025_Feb_01_1004,ConditionRich,2021.2.3,59.98379237939866,
8.75,9.0,41,0.0,Stimuli/Blank.png,0,0,0.0,0,10,10,10,,,,,,,,,,,,,8.756264099999498,0.006264099999498285,None,50.98929210000006,50.98929210000006,50.98929210000006,50.98929210000006,50.98929210000006,50.98929210000006,50.98929210000006,50.98929210000006,50.98929210000006,50.98929210000006,,005,P007,2025_Feb_01_1004,ConditionRich,2021.2.3,59.98379237939866,
9.0,9.75,3,0.75,Stimuli/P007/sun_aueftjhdwnvkbzlt.jpg,0,0,0.0,0,11,11,11,,,,,,,,,,,,,9.00636249999934,0.006362499999340798,None,51.23944129999927,51.23944129999927,51.23944129999927,51.23944129999927,51.23944129999927,51.23944129999927,51.23944129999927,51.23944129999927,51.23944129999927,51.23944129999927,,005,P007,2025_Feb_01_1004,ConditionRich,2021.2.3,59.98379237939866,
9.75,10.0,41,0.0,Stimuli/Blank.png,0,0,0.0,0,12,12,12,,,,,,,,,,,,,9.756564599999365,0.006564599999364873,None,51.99009399999977,51.99009399999977,51.99009399999977,51.99009399999977,51.99009399999977,51.99009399999977,51.99009399999977,51.99009399999977,51.99009399999977,51.99009399999977,,005,P007,2025_Feb_01_1004,ConditionRich,2021.2.3,59.98379237939866,
10.0,10.75,3,0.75,Stimuli/P007/sun_aueftjhdwnvkbzlt.jpg,0,0,0.0,0,13,13,13,,,,,,,,,,,,,10.007417599999826,0.007417599999826052,None,52.257017999999334,52.257017999999334,52.257017999999334,52.257017999999334,52.257017999999334,52.257017999999334,52.257017999999334,52.257017999999334,52.257017999999334,52.257017999999334,,005,P007,2025_Feb_01_1004,ConditionRich,2021.2.3,59.98379237939866,
10.75,11.0,41,0.0,Stimuli/Blank.png,0,0,0.0,0,14,14,14,,,,,,,,,,,,,10.774855199999365,0.02485519999936514,None,53.00766569999996,53.00766569999996,53.00766569999996,53.00766569999996,53.00766569999996,53.00766569999996,53.00766569999996,53.00766569999996,53.00766569999996,53.00766569999996,,005,P007,2025_Feb_01_1004,ConditionRich,2021.2.3,59.98379237939866,
11.0,11.75,3,0.75,Stimuli/P007/sun_aueftjhdwnvkbzlt.jpg,0,0,0.0,0,15,15,15,,,,,,,,,,,,,11.009204499999214,0.009204499999214022,None,53.241208200000074,53.241208200000074,53.241208200000074,53.241208200000074,53.241208200000074,53.241208200000074,53.241208200000074,53.241208200000074,53.241208200000074,53.241208200000074,,005,P007,2025_Feb_01_1004,ConditionRich,2021.2.3,59.98379237939866,
11.75,12.0,41,0.0,Stimuli/Blank.png,0,0,0.0,0,16,16,16,,,,,,,,,,,,,11.758846699999594,0.00884669999959442,None,53.99187249999977,53.99187249999977,53.99187249999977,53.99187249999977,53.99187249999977,53.99187249999977,53.99187249999977,53.99187249999977,53.99187249999977,53.99187249999977,,005,P007,2025_Feb_01_1004,ConditionRich,2021.2.3,59.98379237939866,
12.0,12.75,26,0.75,Stimuli/P007/things_face_04s.jpg,0,0,0.0,0,17,17,17,,,,,,,,,,,,,12.008924400000069,0.008924400000069,None,54.24209079999946,54.24209079999946,54.24209079999946,54.24209079999946,54.24209079999946,54.24209079999946,54.24209079999946,54.24209079999946,54.24209079999946,54.24209079999946,,005,P007,2025_Feb_01_1004,ConditionRich,2021.2.3,59.98379237939866,
12.75,13.0,41,0.0,Stimuli/Blank.png,0,0,0.0,0,18,18,18,,,,,,,,,,,,,12.759931599999618,0.009931599999617902,None,54.99274989999958,54.99274989999958,54.99274989999958,54.99274989999958,54.99274989999958,54.99274989999958,54.99274989999958,54.99274989999958,54.99274989999958,54.99274989999958,,005,P007,2025_Feb_01_1004,ConditionRich,2021.2.3,59.98379237939866,
13.0,13.75,26,0.75,Stimuli/P007/things_face_04s.jpg,0,0,0.0,0,19,19,19,,,,,,,,,,,,,13.010142099999939,0.010142099999939092,None,55.24297349999961,55.24297349999961,55.24297349999961,55.24297349999961,55.24297349999961,55.24297349999961,55.24297349999961,55.24297349999961,55.24297349999961,55.24297349999961,,005,P007,2025_Feb_01_1004,ConditionRich,2021.2.3,59.98379237939866,
13.75,14.0,41,0.0,Stimuli/Blank.png,0,0,0.0,0,20,20,20,,,,,,,,,,,,,13.761279499999546,0.011279499999545806,None,55.99422759999925,55.99422759999925,55.99422759999925,55.99422759999925,55.99422759999925,55.99422759999925,55.99422759999925,55.99422759999925,55.99422759999925,55.99422759999925,,005,P007,2025_Feb_01_1004,ConditionRich,2021.2.3,59.98379237939866,
14.0,14.75,26,0.75,Stimuli/P007/things_face_04s.jpg,0,0,0.0,0,21,21,21,,,,,,,,,,,,,14.011221599999772,0.01122159999977157,None,56.24388219999946,56.24388219999946,56.24388219999946,56.24388219999946,56.24388219999946,56.24388219999946,56.24388219999946,56.24388219999946,56.24388219999946,56.24388219999946,,005,P007,2025_Feb_01_1004,ConditionRich,2021.2.3,59.98379237939866,
14.75,15.0,41,0.0,Stimuli/Blank.png,0,0,0.0,0,22,22,22,,,,,,,,,,,,,14.761667299999317,0.011667299999317038,None,56.99453599999924,56.99453599999924,56.99453599999924,56.99453599999924,56.99453599999924,56.99453599999924,56.99453599999924,56.99453599999924,56.99453599999924,56.99453599999924,,005,P007,2025_Feb_01_1004,ConditionRich,2021.2.3,59.98379237939866,
15.0,15.75,26,0.75,Stimuli/P007/things_face_04s.jpg,0,0,0.0,0,23,23,23,,,,,,,,,,,,,15.01187039999968,0.011870399999679648,None,57.24475699999948,57.24475699999948,57.24475699999948,57.24475699999948,57.24475699999948,57.24475699999948,57.24475699999948,57.24475699999948,57.24475699999948,57.24475699999948,,005,P007,2025_Feb_01_1004,ConditionRich,2021.2.3,59.98379237939866,
15.75,16.0,41,0.0,Stimuli/Blank.png,0,0,0.0,0,24,24,24,,,,,,,,,,,,,15.76309289999972,0.01309289999971952,None,57.99541330000011,57.99541330000011,57.99541330000011,57.99541330000011,57.99541330000011,57.99541330000011,57.99541330000011,57.99541330000011,57.99541330000011,57.99541330000011,,005,P007,2025_Feb_01_1004,ConditionRich,2021.2.3,59.98379237939866,
16.0,16.75,33,0.75,Stimuli/P007/things_man_04s.jpg,0,0,0.0,0,25,25,25,,,,,,,,,,,,,16.012569199999234,0.012569199999234115,None,58.26231359999929,58.26231359999929,58.26231359999929,58.26231359999929,58.26231359999929,58.26231359999929,58.26231359999929,58.26231359999929,58.26231359999929,58.26231359999929,,005,P007,2025_Feb_01_1004,ConditionRich,2021.2.3,59.98379237939866,
16.75,17.0,41,0.0,Stimuli/Blank.png,0,0,0.0,0,26,26,26,,,,,,,,,,,,,16.779443899999933,0.02944389999993291,None,59.01297079999949,59.01297079999949,59.01297079999949,59.01297079999949,59.01297079999949,59.01297079999949,59.01297079999949,59.01297079999949,59.01297079999949,59.01297079999949,,005,P007,2025_Feb_01_1004,ConditionRich,2021.2.3,59.98379237939866,
17.0,17.75,33,0.75,Stimuli/P007/things_man_04s.jpg,0,0,0.0,0,27,27,27,,,,,,,,,,,,,17.013603399999738,0.01360339999973803,None,59.24651769999946,59.24651769999946,59.24651769999946,59.24651769999946,59.24651769999946,59.24651769999946,59.24651769999946,59.24651769999946,59.24651769999946,59.24651769999946,,005,P007,2025_Feb_01_1004,ConditionRich,2021.2.3,59.98379237939866,
17.75,18.0,41,0.0,Stimuli/Blank.png,0,0,0.0,0,28,28,28,,,,,,,,,,,,,17.764399499999854,0.014399499999854015,None,59.99718049999956,59.99718049999956,59.99718049999956,59.99718049999956,59.99718049999956,59.99718049999956,59.99718049999956,59.99718049999956,59.99718049999956,59.99718049999956,,005,P007,2025_Feb_01_1004,ConditionRich,2021.2.3,59.98379237939866,
18.0,18.75,33,0.75,Stimuli/P007/things_man_04s.jpg,0,0,0.0,0,29,29,29,,,,,,,,,,,,,18.014811399999417,0.014811399999416608,None,60.24739969999973,60.24739969999973,60.24739969999973,60.24739969999973,60.24739969999973,60.24739969999973,60.24739969999973,60.24739969999973,60.24739969999973,60.24739969999973,,005,P007,2025_Feb_01_1004,ConditionRich,2021.2.3,59.98379237939866,
18.75,19.0,41,0.0,Stimuli/Blank.png,0,0,0.0,0,30,30,30,,,,,,,,,,,,,18.76532849999967,0.015328499999668566,None,60.998060399999304,60.998060399999304,60.998060399999304,60.998060399999304,60.998060399999304,60.998060399999304,60.998060399999304,60.998060399999304,60.998060399999304,60.998060399999304,,005,P007,2025_Feb_01_1004,ConditionRich,2021.2.3,59.98379237939866,
19.0,19.75,33,0.75,Stimuli/P007/things_man_04s.jpg,0,0,0.0,0,31,31,31,,,,,,,,,,,,,19.015300699999898,0.015300699999897915,None,61.26496529999986,61.26496529999986,61.26496529999986,61.26496529999986,61.26496529999986,61.26496529999986,61.26496529999986,61.26496529999986,61.26496529999986,61.26496529999986,,005,P007,2025_Feb_01_1004,ConditionRich,2021.2.3,59.98379237939866,
19.75,20.0,41,0.0,Stimuli/Blank.png,0,0,0.0,0,32,32,32,,,,,,,,,,,,,19.765947899999446,0.015947899999446236,None,61.99894779999977,61.99894779999977,61.99894779999977,61.99894779999977,61.99894779999977,61.99894779999977,61.99894779999977,61.99894779999977,61.99894779999977,61.99894779999977,,005,P007,2025_Feb_01_1004,ConditionRich,2021.2.3,59.98379237939866,
20.0,20.75,13,0.75,Stimuli/P007/sun_bkhuvtsqontzwtbo.jpg,0,0,0.0,0,33,33,33,,,,,,,,,,,,,19.998927899999217,-0.0010721000007833936,None,62.23248559999956,62.23248559999956,62.23248559999956,62.23248559999956,62.23248559999956,62.23248559999956,62.23248559999956,62.23248559999956,62.23248559999956,62.23248559999956,,005,P007,2025_Feb_01_1004,ConditionRich,2021.2.3,59.98379237939866,
20.75,21.0,41,0.0,Stimuli/Blank.png,0,0,0.0,0,34,34,34,,,,,,,,,,,,,20.749691600000006,-0.00030839999999443535,None,62.98313159999998,62.98313159999998,62.98313159999998,62.98313159999998,62.98313159999998,62.98313159999998,62.98313159999998,62.98313159999998,62.98313159999998,62.98313159999998,,005,P007,2025_Feb_01_1004,ConditionRich,2021.2.3,59.98379237939866,
21.0,21.75,13,0.75,Stimuli/P007/sun_bkhuvtsqontzwtbo.jpg,0,0,0.0,0,35,35,35,,,,,,,,,,,,,21.000435399999333,0.00043539999933273066,None,63.2333736999999,63.2333736999999,63.2333736999999,63.2333736999999,63.2333736999999,63.2333736999999,63.2333736999999,63.2333736999999,63.2333736999999,63.2333736999999,,005,P007,2025_Feb_01_1004,ConditionRich,2021.2.3,59.98379237939866,
21.75,22.0,41,0.0,Stimuli/Blank.png,0,0,0.0,0,36,36,36,,,,,,,,,,,,,21.75123899999926,0.0012389999992592493,None,63.98404349999964,63.98404349999964,63.98404349999964,63.98404349999964,63.98404349999964,63.98404349999964,63.98404349999964,63.98404349999964,63.98404349999964,63.98404349999964,,005,P007,2025_Feb_01_1004,ConditionRich,2021.2.3,59.98379237939866,
22.0,22.75,13,0.75,Stimuli/P007/sun_bkhuvtsqontzwtbo.jpg,0,0,0.0,0,37,37,37,,,,,,,,,,,,,22.0006728999997,0.0006728999996994389,None,64.23425709999992,64.23425709999992,64.23425709999992,64.23425709999992,64.23425709999992,64.23425709999992,64.23425709999992,64.23425709999992,64.23425709999992,64.23425709999992,,005,P007,2025_Feb_01_1004,ConditionRich,2021.2.3,59.98379237939866,
22.75,23.0,41,0.0,Stimuli/Blank.png,0,0,0.0,0,38,38,38,,,,,,,,,,,,,22.75398909999967,0.003989099999671453,None,65.00162759999967,65.00162759999967,65.00162759999967,65.00162759999967,65.00162759999967,65.00162759999967,65.00162759999967,65.00162759999967,65.00162759999967,65.00162759999967,,005,P007,2025_Feb_01_1004,ConditionRich,2021.2.3,59.98379237939866,
23.0,23.75,13,0.75,Stimuli/P007/sun_bkhuvtsqontzwtbo.jpg,0,0,0.0,0,39,39,39,,,,,,,,,,,,,23.01818000000003,0.018180000000029395,None,65.25179930000013,65.25179930000013,65.25179930000013,65.25179930000013,65.25179930000013,65.25179930000013,65.25179930000013,65.25179930000013,65.25179930000013,65.25179930000013,,005,P007,2025_Feb_01_1004,ConditionRich,2021.2.3,59.98379237939866,
23.75,24.0,41,0.0,Stimuli/Blank.png,0,0,0.0,0,40,40,40,,,,,,,,,,,,,23.75489749999997,0.004897499999970023,None,66.00250609999966,66.00250609999966,66.00250609999966,66.00250609999966,66.00250609999966,66.00250609999966,66.00250609999966,66.00250609999966,66.00250609999966,66.00250609999966,,005,P007,2025_Feb_01_1004,ConditionRich,2021.2.3,59.98379237939866,
24.0,24.75,39,0.75,Stimuli/P007/things_showerhead_04s.jpg,0,0,0.0,0,41,41,41,,,,,,,,,,,,,24.01979140000003,0.01979140000003099,None,66.25271389999943,66.25271389999943,66.25271389999943,66.25271389999943,66.25271389999943,66.25271389999943,66.25271389999943,66.25271389999943,66.25271389999943,66.25271389999943,,005,P007,2025_Feb_01_1004,ConditionRich,2021.2.3,59.98379237939866,
24.75,25.0,41,0.0,Stimuli/Blank.png,0,0,0.0,0,42,42,42,,,,,,,,,,,,,24.754470500000025,0.004470500000024913,None,66.98669659999996,66.98669659999996,66.98669659999996,66.98669659999996,66.98669659999996,66.98669659999996,66.98669659999996,66.98669659999996,66.98669659999996,66.98669659999996,,005,P007,2025_Feb_01_1004,ConditionRich,2021.2.3,59.98379237939866,
25.0,25.75,39,0.75,Stimuli/P007/things_showerhead_04s.jpg,0,0,0.0,0,43,43,43,,,,,,,,,,,,,25.004215099999783,0.0042150999997829786,None,67.23692010000013,67.23692010000013,67.23692010000013,67.23692010000013,67.23692010000013,67.23692010000013,67.23692010000013,67.23692010000013,67.23692010000013,67.23692010000013,,005,P007,2025_Feb_01_1004,ConditionRich,2021.2.3,59.98379237939866,
25.75,26.0,41,0.0,Stimuli/Blank.png,0,0,0.0,0,44,44,44,,,,,,,,,,,,,25.75463259999924,0.004632599999240483,None,67.98758069999985,67.98758069999985,67.98758069999985,67.98758069999985,67.98758069999985,67.98758069999985,67.98758069999985,67.98758069999985,67.98758069999985,67.98758069999985,,005,P007,2025_Feb_01_1004,ConditionRich,2021.2.3,59.98379237939866,
26.0,26.75,39,0.75,Stimuli/P007/things_showerhead_04s.jpg,0,0,0.0,0,45,45,45,,,,,,,,,,,,,26.00528630000008,0.005286300000079791,None,68.23782329999995,68.23782329999995,68.23782329999995,68.23782329999995,68.23782329999995,68.23782329999995,68.23782329999995,68.23782329999995,68.23782329999995,68.23782329999995,,005,P007,2025_Feb_01_1004,ConditionRich,2021.2.3,59.98379237939866,
26.75,27.0,41,0.0,Stimuli/Blank.png,0,0,0.0,0,46,46,46,,,,,,,,,,,,,26.75492149999991,0.004921499999909429,None,68.9884648999996,68.9884648999996,68.9884648999996,68.9884648999996,68.9884648999996,68.9884648999996,68.9884648999996,68.9884648999996,68.9884648999996,68.9884648999996,,005,P007,2025_Feb_01_1004,ConditionRich,2021.2.3,59.98379237939866,
27.0,27.75,39,0.75,Stimuli/P007/things_showerhead_04s.jpg,0,0,0.0,0,47,47,47,,,,,,,,,,,,,27.005725600000005,0.005725600000005215,None,69.2386891999995,69.2386891999995,69.2386891999995,69.2386891999995,69.2386891999995,69.2386891999995,69.2386891999995,69.2386891999995,69.2386891999995,69.2386891999995,,005,P007,2025_Feb_01_1004,ConditionRich,2021.2.3,59.98379237939866,
27.75,28.0,41,0.0,Stimuli/Blank.png,0,0,0.0,0,48,48,48,,,,,,,,,,,,,27.75647509999999,0.006475099999988743,None,69.98943220000001,69.98943220000001,69.98943220000001,69.98943220000001,69.98943220000001,69.98943220000001,69.98943220000001,69.98943220000001,69.98943220000001,69.98943220000001,,005,P007,2025_Feb_01_1004,ConditionRich,2021.2.3,59.98379237939866,
28.0,28.75,28,0.75,Stimuli/P007/things_girl_04s.jpg,0,0,0.0,0,49,49,49,,,,,,,,,,,,,28.005934799999523,0.005934799999522511,None,70.23957429999973,70.23957429999973,70.23957429999973,70.23957429999973,70.23957429999973,70.23957429999973,70.23957429999973,70.23957429999973,70.23957429999973,70.23957429999973,,005,P007,2025_Feb_01_1004,ConditionRich,2021.2.3,59.98379237939866,
28.75,29.0,41,0.0,Stimuli/Blank.png,0,0,0.0,0,50,50,50,,,,,,,,,,,,,28.758801399999356,0.008801399999356363,None,71.00692159999926,71.00692159999926,71.00692159999926,71.00692159999926,71.00692159999926,71.00692159999926,71.00692159999926,71.00692159999926,71.00692159999926,71.00692159999926,,005,P007,2025_Feb_01_1004,ConditionRich,2021.2.3,59.98379237939866,
29.0,29.75,28,0.75,Stimuli/P007/things_girl_04s.jpg,0,0,0.0,0,51,51,51,,,,,,,,,,,,,29.023691899999903,0.0236918999999034,None,71.25713639999958,71.25713639999958,71.25713639999958,71.25713639999958,71.25713639999958,71.25713639999958,71.25713639999958,71.25713639999958,71.25713639999958,71.25713639999958,,005,P007,2025_Feb_01_1004,ConditionRich,2021.2.3,59.98379237939866,
29.75,30.0,41,0.0,Stimuli/Blank.png,0,0,0.0,0,52,52,52,,,,,,,,,,,,,29.757478300000002,0.007478300000002491,None,71.99112119999972,71.99112119999972,71.99112119999972,71.99112119999972,71.99112119999972,71.99112119999972,71.99112119999972,71.99112119999972,71.99112119999972,71.99112119999972,,005,P007,2025_Feb_01_1004,ConditionRich,2021.2.3,59.98379237939866,
30.0,30.75,28,0.75,Stimuli/P007/things_girl_04s.jpg,0,0,0.0,0,53,53,53,,,,,,,,,,,,,30.007869499999288,0.007869499999287655,None,72.24133869999969,72.24133869999969,72.24133869999969,72.24133869999969,72.24133869999969,72.24133869999969,72.24133869999969,72.24133869999969,72.24133869999969,72.24133869999969,,005,P007,2025_Feb_01_1004,ConditionRich,2021.2.3,59.98379237939866,
30.75,31.0,41,0.0,Stimuli/Blank.png,0,0,0.0,0,54,54,54,,,,,,,,,,,,,30.758966999999757,0.008966999999756808,None,72.99201579999954,72.99201579999954,72.99201579999954,72.99201579999954,72.99201579999954,72.99201579999954,72.99201579999954,72.99201579999954,72.99201579999954,72.99201579999954,,005,P007,2025_Feb_01_1004,ConditionRich,2021.2.3,59.98379237939866,
31.0,31.75,28,0.75,Stimuli/P007/things_girl_04s.jpg,0,0,0.0,0,55,55,55,,,,,,,,,,,,,31.008714699999473,0.008714699999472941,None,73.24222809999992,73.24222809999992,73.24222809999992,73.24222809999992,73.24222809999992,73.24222809999992,73.24222809999992,73.24222809999992,73.24222809999992,73.24222809999992,,005,P007,2025_Feb_01_1004,ConditionRich,2021.2.3,59.98379237939866,
31.75,32.0,41,0.0,Stimuli/Blank.png,0,0,0.0,0,56,56,56,,,,,,,,,,,,,31.75927909999973,0.009279099999730533,None,73.9928874999996,73.9928874999996,73.9928874999996,73.9928874999996,73.9928874999996,73.9928874999996,73.9928874999996,73.9928874999996,73.9928874999996,73.9928874999996,,005,P007,2025_Feb_01_1004,ConditionRich,2021.2.3,59.98379237939866,
32.0,32.75,6,0.75,Stimuli/P007/sun_azpjjfwsbjdjcopb.jpg,0,0,0.0,0,57,57,57,,,,,,,,,,,,,32.00964659999954,0.00964659999954165,None,74.2432589,74.2432589,74.2432589,74.2432589,74.2432589,74.2432589,74.2432589,74.2432589,74.2432589,74.2432589,,005,P007,2025_Feb_01_1004,ConditionRich,2021.2.3,59.98379237939866,
32.75,33.0,41,0.0,Stimuli/Blank.png,0,0,0.0,0,58,58,58,,,,,,,,,,,,,32.76040159999957,0.010401599999568134,None,74.99379669999962,74.99379669999962,74.99379669999962,74.99379669999962,74.99379669999962,74.99379669999962,74.99379669999962,74.99379669999962,74.99379669999962,74.99379669999962,,005,P007,2025_Feb_01_1004,ConditionRich,2021.2.3,59.98379237939866,
33.0,33.75,6,0.75,Stimuli/P007/sun_azpjjfwsbjdjcopb.jpg,0,0,0.0,0,59,59,59,,,,,,,,,,,,,33.01080379999985,0.010803799999848707,None,75.24400119999973,75.24400119999973,75.24400119999973,75.24400119999973,75.24400119999973,75.24400119999973,75.24400119999973,75.24400119999973,75.24400119999973,75.24400119999973,,005,P007,2025_Feb_01_1004,ConditionRich,2021.2.3,59.98379237939866,
33.75,34.0,41,0.0,Stimuli/Blank.png,0,0,0.0,0,60,60,60,,,,,,,,,,,,,33.76402879999932,0.014028799999323383,None,76.0113526999994,76.0113526999994,76.0113526999994,76.0113526999994,76.0113526999994,76.0113526999994,76.0113526999994,76.0113526999994,76.0113526999994,76.0113526999994,,005,P007,2025_Feb_01_1004,ConditionRich,2021.2.3,59.98379237939866,
34.0,34.75,6,0.75,Stimuli/P007/sun_azpjjfwsbjdjcopb.jpg,0,0,0.0,0,61,61,61,,,,,,,,,,,,,34.02852719999919,0.02852719999918918,None,76.26153629999953,76.26153629999953,76.26153629999953,76.26153629999953,76.26153629999953,76.26153629999953,76.26153629999953,76.26153629999953,76.26153629999953,76.26153629999953,,005,P007,2025_Feb_01_1004,ConditionRich,2021.2.3,59.98379237939866,
34.75,35.0,41,0.0,Stimuli/Blank.png,0,0,0.0,0,62,62,62,,,,,,,,,,,,,34.76316599999973,0.013165999999728228,None,76.99556140000004,76.99556140000004,76.99556140000004,76.99556140000004,76.99556140000004,76.99556140000004,76.99556140000004,76.99556140000004,76.99556140000004,76.99556140000004,,005,P007,2025_Feb_01_1004,ConditionRich,2021.2.3,59.98379237939866,
35.0,35.75,6,0.75,Stimuli/P007/sun_azpjjfwsbjdjcopb.jpg,0,0,0.0,0,63,63,63,,,,,,,,,,,,,35.01498939999965,0.014989399999649322,None,77.26248359999954,77.26248359999954,77.26248359999954,77.26248359999954,77.26248359999954,77.26248359999954,77.26248359999954,77.26248359999954,77.26248359999954,77.26248359999954,,005,P007,2025_Feb_01_1004,ConditionRich,2021.2.3,59.98379237939866,
35.75,36.0,41,0.0,Stimuli/Blank.png,0,0,0.0,0,64,64,64,,,,,,,,,,,,,35.764858799999274,0.014858799999274197,None,78.01312049999979,78.01312049999979,78.01312049999979,78.01312049999979,78.01312049999979,78.01312049999979,78.01312049999979,78.01312049999979,78.01312049999979,78.01312049999979,,005,P007,2025_Feb_01_1004,ConditionRich,2021.2.3,59.98379237939866,
36.0,36.75,40,0.75,Stimuli/P007/things_woman_04s.jpg,0,0,0.0,0,65,65,65,,,,,,,,,,,,,36.029744699999355,0.029744699999355362,None,78.2633380999996,78.2633380999996,78.2633380999996,78.2633380999996,78.2633380999996,78.2633380999996,78.2633380999996,78.2633380999996,78.2633380999996,78.2633380999996,,005,P007,2025_Feb_01_1004,ConditionRich,2021.2.3,59.98379237939866,
36.75,37.0,41,0.0,Stimuli/Blank.png,0,0,0.0,0,66,66,66,,,,,,,,,,,,,36.76446889999988,0.014468899999883433,None,78.99731729999985,78.99731729999985,78.99731729999985,78.99731729999985,78.99731729999985,78.99731729999985,78.99731729999985,78.99731729999985,78.99731729999985,78.99731729999985,,005,P007,2025_Feb_01_1004,ConditionRich,2021.2.3,59.98379237939866,
37.0,37.75,40,0.75,Stimuli/P007/things_woman_04s.jpg,0,0,0.0,0,67,67,67,,,,,,,,,,,,,37.01469159999942,0.014691599999423488,None,79.24754049999956,79.24754049999956,79.24754049999956,79.24754049999956,79.24754049999956,79.24754049999956,79.24754049999956,79.24754049999956,79.24754049999956,79.24754049999956,,005,P007,2025_Feb_01_1004,ConditionRich,2021.2.3,59.98379237939866,
37.75,38.0,41,0.0,Stimuli/Blank.png,0,0,0.0,0,68,68,68,,,,,,,,,,,,,37.76455899999928,0.014558999999280786,None,79.99821389999943,79.99821389999943,79.99821389999943,79.99821389999943,79.99821389999943,79.99821389999943,79.99821389999943,79.99821389999943,79.99821389999943,79.99821389999943,,005,P007,2025_Feb_01_1004,ConditionRich,2021.2.3,59.98379237939866,
38.0,38.75,40,0.75,Stimuli/P007/things_woman_04s.jpg,1,0,0.75,0,69,69,69,,,,,,,,,,,,,38.01481149999927,0.014811499999268563,2,80.24842480000007,80.24842480000007,80.24842480000007,80.24842480000007,80.24842480000007,80.24842480000007,80.24842480000007,80.98240569999962,80.24842480000007,80.24842480000007,0.45415760000014416,005,P007,2025_Feb_01_1004,ConditionRich,2021.2.3,59.98379237939866,
38.75,39.0,41,0.0,Stimuli/Blank.png,0,0,0.0,0,70,70,70,,,,,,,,,,,,,38.765953199999785,0.015953199999785284,None,80.99908950000008,80.99908950000008,80.99908950000008,80.99908950000008,80.99908950000008,80.99908950000008,80.99908950000008,80.99908950000008,80.99908950000008,80.99908950000008,,005,P007,2025_Feb_01_1004,ConditionRich,2021.2.3,59.98379237939866,
39.0,39.75,40,0.75,Stimuli/P007/things_woman_04s.jpg,0,0,0.0,0,71,71,71,,,,,,,,,,,,,38.998982899999646,-0.001017100000353821,None,81.23263399999996,81.23263399999996,81.23263399999996,81.23263399999996,81.23263399999996,81.23263399999996,81.23263399999996,81.23263399999996,81.23263399999996,81.23263399999996,,005,P007,2025_Feb_01_1004,ConditionRich,2021.2.3,59.98379237939866,
39.75,40.0,41,0.0,Stimuli/Blank.png,0,0,0.0,0,72,72,72,,,,,,,,,,,,,39.750330799999574,0.0003307999995740829,None,81.98330170000008,81.98330170000008,81.98330170000008,81.98330170000008,81.98330170000008,81.98330170000008,81.98330170000008,81.98330170000008,81.98330170000008,81.98330170000008,,005,P007,2025_Feb_01_1004,ConditionRich,2021.2.3,59.98379237939866,
40.0,40.75,15,0.75,Stimuli/P007/sun_bmeductqpfkygtww.jpg,0,0,0.0,0,73,73,73,,,,,,,,,,,,,40.00006689999918,6.689999918307876e-05,None,82.23351359999924,82.23351359999924,82.23351359999924,82.23351359999924,82.23351359999924,82.23351359999924,82.23351359999924,82.23351359999924,82.23351359999924,82.23351359999924,,005,P007,2025_Feb_01_1004,ConditionRich,2021.2.3,59.98379237939866,
40.75,41.0,41,0.0,Stimuli/Blank.png,0,0,0.0,0,74,74,74,,,,,,,,,,,,,40.75132609999946,0.0013260999994599842,None,82.98417719999998,82.98417719999998,82.98417719999998,82.98417719999998,82.98417719999998,82.98417719999998,82.98417719999998,82.98417719999998,82.98417719999998,82.98417719999998,,005,P007,2025_Feb_01_1004,ConditionRich,2021.2.3,59.98379237939866,
41.0,41.75,15,0.75,Stimuli/P007/sun_bmeductqpfkygtww.jpg,0,0,0.0,0,75,75,75,,,,,,,,,,,,,41.00380249999944,0.003802499999437714,None,83.25109100000009,83.25109100000009,83.25109100000009,83.25109100000009,83.25109100000009,83.25109100000009,83.25109100000009,83.25109100000009,83.25109100000009,83.25109100000009,,005,P007,2025_Feb_01_1004,ConditionRich,2021.2.3,59.98379237939866,
41.75,42.0,41,0.0,Stimuli/Blank.png,0,0,0.0,0,76,76,76,,,,,,,,,,,,,41.768446299999596,0.018446299999595794,None,84.00174419999985,84.00174419999985,84.00174419999985,84.00174419999985,84.00174419999985,84.00174419999985,84.00174419999985,84.00174419999985,84.00174419999985,84.00174419999985,,005,P007,2025_Feb_01_1004,ConditionRich,2021.2.3,59.98379237939866,
42.0,42.75,15,0.75,Stimuli/P007/sun_bmeductqpfkygtww.jpg,0,0,0.0,0,77,77,77,,,,,,,,,,,,,42.00170249999974,0.0017024999997374834,None,84.25196869999945,84.25196869999945,84.25196869999945,84.25196869999945,84.25196869999945,84.25196869999945,84.25196869999945,84.25196869999945,84.25196869999945,84.25196869999945,,005,P007,2025_Feb_01_1004,ConditionRich,2021.2.3,59.98379237939866,
42.75,43.0,41,0.0,Stimuli/Blank.png,0,0,0.0,0,78,78,78,,,,,,,,,,,,,42.769082899999376,0.019082899999375513,None,85.00263739999991,85.00263739999991,85.00263739999991,85.00263739999991,85.00263739999991,85.00263739999991,85.00263739999991,85.00263739999991,85.00263739999991,85.00263739999991,,005,P007,2025_Feb_01_1004,ConditionRich,2021.2.3,59.98379237939866,
43.0,43.75,15,0.75,Stimuli/P007/sun_bmeductqpfkygtww.jpg,1,0,0.75,0,79,79,79,,,,,,,,,,,,,43.002799399999276,0.00279939999927592,2,85.23614319999979,85.23614319999979,85.23614319999979,85.23614319999979,85.23614319999979,85.23614319999979,85.23614319999979,85.97014809999928,85.23614319999979,85.23614319999979,0.4283864999997604,005,P007,2025_Feb_01_1004,ConditionRich,2021.2.3,59.98379237939866,
43.75,44.0,41,0.0,Stimuli/Blank.png,0,0,0.0,0,80,80,80,,,,,,,,,,,,,43.75390449999941,0.0039044999994075624,None,85.9868319999996,85.9868319999996,85.9868319999996,85.9868319999996,85.9868319999996,85.9868319999996,85.9868319999996,85.9868319999996,85.9868319999996,85.9868319999996,,005,P007,2025_Feb_01_1004,ConditionRich,2021.2.3,59.98379237939866,
44.0,44.75,19,0.75,Stimuli/P007/sun_brpfgrmubnnjvfkw.jpg,0,0,0.0,0,81,81,81,,,,,,,,,,,,,44.0035399999997,0.003539999999702559,None,86.23705509999945,86.23705509999945,86.23705509999945,86.23705509999945,86.23705509999945,86.23705509999945,86.23705509999945,86.23705509999945,86.23705509999945,86.23705509999945,,005,P007,2025_Feb_01_1004,ConditionRich,2021.2.3,59.98379237939866,
44.75,45.0,41,0.0,Stimuli/Blank.png,0,0,0.0,0,82,82,82,,,,,,,,,,,,,44.75568239999939,0.005682399999386689,None,87.00445339999987,87.00445339999987,87.00445339999987,87.00445339999987,87.00445339999987,87.00445339999987,87.00445339999987,87.00445339999987,87.00445339999987,87.00445339999987,,005,P007,2025_Feb_01_1004,ConditionRich,2021.2.3,59.98379237939866,
45.0,45.75,19,0.75,Stimuli/P007/sun_brpfgrmubnnjvfkw.jpg,0,0,0.0,0,83,83,83,,,,,,,,,,,,,45.024484599999596,0.024484599999595957,None,87.27132259999962,87.27132259999962,87.27132259999962,87.27132259999962,87.27132259999962,87.27132259999962,87.27132259999962,87.27132259999962,87.27132259999962,87.27132259999962,,005,P007,2025_Feb_01_1004,ConditionRich,2021.2.3,59.98379237939866,
45.75,46.0,41,0.0,Stimuli/Blank.png,0,0,0.0,0,84,84,84,,,,,,,,,,,,,45.773144999999204,0.02314499999920372,None,88.00529049999932,88.00529049999932,88.00529049999932,88.00529049999932,88.00529049999932,88.00529049999932,88.00529049999932,88.00529049999932,88.00529049999932,88.00529049999932,,005,P007,2025_Feb_01_1004,ConditionRich,2021.2.3,59.98379237939866,
46.0,46.75,19,0.75,Stimuli/P007/sun_brpfgrmubnnjvfkw.jpg,0,0,0.0,0,85,85,85,,,,,,,,,,,,,46.005237399999714,0.005237399999714398,None,88.23883089999981,88.23883089999981,88.23883089999981,88.23883089999981,88.23883089999981,88.23883089999981,88.23883089999981,88.23883089999981,88.23883089999981,88.23883089999981,,005,P007,2025_Feb_01_1004,ConditionRich,2021.2.3,59.98379237939866,
46.75,47.0,41,0.0,Stimuli/Blank.png,0,0,0.0,0,86,86,86,,,,,,,,,,,,,46.7567212999993,0.006721299999298935,None,88.98949579999953,88.98949579999953,88.98949579999953,88.98949579999953,88.98949579999953,88.98949579999953,88.98949579999953,88.98949579999953,88.98949579999953,88.98949579999953,,005,P007,2025_Feb_01_1004,ConditionRich,2021.2.3,59.98379237939866,
47.0,47.75,19,0.75,Stimuli/P007/sun_brpfgrmubnnjvfkw.jpg,0,0,0.0,0,87,87,87,,,,,,,,,,,,,47.00603179999962,0.00603179999961867,None,89.23970729999928,89.23970729999928,89.23970729999928,89.23970729999928,89.23970729999928,89.23970729999928,89.23970729999928,89.23970729999928,89.23970729999928,89.23970729999928,,005,P007,2025_Feb_01_1004,ConditionRich,2021.2.3,59.98379237939866,
47.75,48.0,41,0.0,Stimuli/Blank.png,0,0,0.0,0,88,88,88,,,,,,,,,,,,,47.75760509999964,0.007605099999636877,None,89.99038849999943,89.99038849999943,89.99038849999943,89.99038849999943,89.99038849999943,89.99038849999943,89.99038849999943,89.99038849999943,89.99038849999943,89.99038849999943,,005,P007,2025_Feb_01_1004,ConditionRich,2021.2.3,59.98379237939866,
48.0,48.75,35,0.75,Stimuli/P007/things_pecan_04s.jpg,0,0,0.0,0,89,89,89,,,,,,,,,,,,,48.00892699999986,0.008926999999857799,None,90.25727619999998,90.25727619999998,90.25727619999998,90.25727619999998,90.25727619999998,90.25727619999998,90.25727619999998,90.25727619999998,90.25727619999998,90.25727619999998,,005,P007,2025_Feb_01_1004,ConditionRich,2021.2.3,59.98379237939866,
48.75,49.0,41,0.0,Stimuli/Blank.png,0,0,0.0,0,90,90,90,,,,,,,,,,,,,48.775047999999515,0.025047999999515014,None,91.00794069999938,91.00794069999938,91.00794069999938,91.00794069999938,91.00794069999938,91.00794069999938,91.00794069999938,91.00794069999938,91.00794069999938,91.00794069999938,,005,P007,2025_Feb_01_1004,ConditionRich,2021.2.3,59.98379237939866,
49.0,49.75,35,0.75,Stimuli/P007/things_pecan_04s.jpg,0,0,0.0,0,91,91,91,,,,,,,,,,,,,49.00832360000004,0.008323600000039733,None,91.24154049999925,91.24154049999925,91.24154049999925,91.24154049999925,91.24154049999925,91.24154049999925,91.24154049999925,91.24154049999925,91.24154049999925,91.24154049999925,,005,P007,2025_Feb_01_1004,ConditionRich,2021.2.3,59.98379237939866,
49.75,50.0,41,0.0,Stimuli/Blank.png,0,0,0.0,0,92,92,92,,,,,,,,,,,,,49.75941859999966,0.009418599999662547,None,91.99215060000006,91.99215060000006,91.99215060000006,91.99215060000006,91.99215060000006,91.99215060000006,91.99215060000006,91.99215060000006,91.99215060000006,91.99215060000006,,005,P007,2025_Feb_01_1004,ConditionRich,2021.2.3,59.98379237939866,
50.0,50.75,35,0.75,Stimuli/P007/things_pecan_04s.jpg,0,0,0.0,0,93,93,93,,,,,,,,,,,,,50.010336299999835,0.010336299999835319,None,92.25950860000012,92.25950860000012,92.25950860000012,92.25950860000012,92.25950860000012,92.25950860000012,92.25950860000012,92.25950860000012,92.25950860000012,92.25950860000012,,005,P007,2025_Feb_01_1004,ConditionRich,2021.2.3,59.98379237939866,
50.75,51.0,41,0.0,Stimuli/Blank.png,0,0,0.0,0,94,94,94,,,,,,,,,,,,,50.77605019999919,0.026050199999190227,None,93.00971469999968,93.00971469999968,93.00971469999968,93.00971469999968,93.00971469999968,93.00971469999968,93.00971469999968,93.00971469999968,93.00971469999968,93.00971469999968,,005,P007,2025_Feb_01_1004,ConditionRich,2021.2.3,59.98379237939866,
51.0,51.75,35,0.75,Stimuli/P007/things_pecan_04s.jpg,0,0,0.0,0,95,95,95,,,,,,,,,,,,,51.01043049999953,0.010430499999529275,None,93.2599339999997,93.2599339999997,93.2599339999997,93.2599339999997,93.2599339999997,93.2599339999997,93.2599339999997,93.2599339999997,93.2599339999997,93.2599339999997,,005,P007,2025_Feb_01_1004,ConditionRich,2021.2.3,59.98379237939866,
51.75,52.0,41,0.0,Stimuli/Blank.png,0,0,0.0,0,96,96,96,,,,,,,,,,,,,51.779055699999844,0.029055699999844364,None,94.02728659999957,94.02728659999957,94.02728659999957,94.02728659999957,94.02728659999957,94.02728659999957,94.02728659999957,94.02728659999957,94.02728659999957,94.02728659999957,,005,P007,2025_Feb_01_1004,ConditionRich,2021.2.3,59.98379237939866,
52.0,52.75,1,0.75,Stimuli/P007/sun_abrlrupzcrwpxqfc.jpg,0,0,0.0,0,97,97,97,,,,,,,,,,,,,52.029323299999305,0.029323299999305164,None,94.27749959999983,94.27749959999983,94.27749959999983,94.27749959999983,94.27749959999983,94.27749959999983,94.27749959999983,94.27749959999983,94.27749959999983,94.27749959999983,,005,P007,2025_Feb_01_1004,ConditionRich,2021.2.3,59.98379237939866,
52.75,53.0,41,0.0,Stimuli/Blank.png,0,0,0.0,0,98,98,98,,,,,,,,,,,,,52.77962200000002,0.02962200000001758,None,95.01149110000006,95.01149110000006,95.01149110000006,95.01149110000006,95.01149110000006,95.01149110000006,95.01149110000006,95.01149110000006,95.01149110000006,95.01149110000006,,005,P007,2025_Feb_01_1004,ConditionRich,2021.2.3,59.98379237939866,
53.0,53.75,1,0.75,Stimuli/P007/sun_abrlrupzcrwpxqfc.jpg,0,0,0.0,0,99,99,99,,,,,,,,,,,,,53.014198799999576,0.014198799999576295,None,95.26170610000008,95.26170610000008,95.26170610000008,95.26170610000008,95.26170610000008,95.26170610000008,95.26170610000008,95.26170610000008,95.26170610000008,95.26170610000008,,005,P007,2025_Feb_01_1004,ConditionRich,2021.2.3,59.98379237939866,
53.75,54.0,41,0.0,Stimuli/Blank.png,0,0,0.0,0,100,100,100,,,,,,,,,,,,,53.77958889999991,0.02958889999990788,None,96.01237739999942,96.01237739999942,96.01237739999942,96.01237739999942,96.01237739999942,96.01237739999942,96.01237739999942,96.01237739999942,96.01237739999942,96.01237739999942,,005,P007,2025_Feb_01_1004,ConditionRich,2021.2.3,59.98379237939866,
54.0,54.75,1,0.75,Stimuli/P007/sun_abrlrupzcrwpxqfc.jpg,0,0,0.0,0,101,101,101,,,,,,,,,,,,,54.012807499999326,0.012807499999325955,None,96.24590519999947,96.24590519999947,96.24590519999947,96.24590519999947,96.24590519999947,96.24590519999947,96.24590519999947,96.24590519999947,96.24590519999947,96.24590519999947,,005,P007,2025_Feb_01_1004,ConditionRich,2021.2.3,59.98379237939866,
54.75,55.0,41,0.0,Stimuli/Blank.png,0,0,0.0,0,102,102,102,,,,,,,,,,,,,54.76319160000003,0.013191600000027393,None,96.99659769999926,96.99659769999926,96.99659769999926,96.99659769999926,96.99659769999926,96.99659769999926,96.99659769999926,96.99659769999926,96.99659769999926,96.99659769999926,,005,P007,2025_Feb_01_1004,ConditionRich,2021.2.3,59.98379237939866,
55.0,55.75,1,0.75,Stimuli/P007/sun_abrlrupzcrwpxqfc.jpg,0,0,0.0,0,103,103,103,,,,,,,,,,,,,55.013231500000074,0.013231500000074448,None,97.24679500000002,97.24679500000002,97.24679500000002,97.24679500000002,97.24679500000002,97.24679500000002,97.24679500000002,97.24679500000002,97.24679500000002,97.24679500000002,,005,P007,2025_Feb_01_1004,ConditionRich,2021.2.3,59.98379237939866,
55.75,56.0,41,0.0,Stimuli/Blank.png,0,0,0.0,0,104,104,104,,,,,,,,,,,,,55.76470749999953,0.014707499999531137,None,97.99745929999972,97.99745929999972,97.99745929999972,97.99745929999972,97.99745929999972,97.99745929999972,97.99745929999972,97.99745929999972,97.99745929999972,97.99745929999972,,005,P007,2025_Feb_01_1004,ConditionRich,2021.2.3,59.98379237939866,
56.0,56.75,20,0.75,Stimuli/P007/sun_btrxtfbwtggtrpfv.jpg,0,0,0.0,0,105,105,105,,,,,,,,,,,,,56.01500969999961,0.015009699999609438,None,98.26436289999947,98.26436289999947,98.26436289999947,98.26436289999947,98.26436289999947,98.26436289999947,98.26436289999947,98.26436289999947,98.26436289999947,98.26436289999947,,005,P007,2025_Feb_01_1004,ConditionRich,2021.2.3,59.98379237939866,
56.75,57.0,41,0.0,Stimuli/Blank.png,0,0,0.0,0,106,106,106,,,,,,,,,,,,,56.78404249999949,0.03404249999948661,None,99.03171119999934,99.03171119999934,99.03171119999934,99.03171119999934,99.03171119999934,99.03171119999934,99.03171119999934,99.03171119999934,99.03171119999934,99.03171119999934,,005,P007,2025_Feb_01_1004,ConditionRich,2021.2.3,59.98379237939866,
57.0,57.75,20,0.75,Stimuli/P007/sun_btrxtfbwtggtrpfv.jpg,0,0,0.0,0,107,107,107,,,,,,,,,,,,,57.01522279999972,0.015222799999719427,None,99.24856309999996,99.24856309999996,99.24856309999996,99.24856309999996,99.24856309999996,99.24856309999996,99.24856309999996,99.24856309999996,99.24856309999996,99.24856309999996,,005,P007,2025_Feb_01_1004,ConditionRich,2021.2.3,59.98379237939866,
57.75,58.0,41,0.0,Stimuli/Blank.png,0,0,0.0,0,108,108,108,,,,,,,,,,,,,57.75015069999972,0.00015069999972183723,None,99.99925129999974,99.99925129999974,99.99925129999974,99.99925129999974,99.99925129999974,99.99925129999974,99.99925129999974,99.99925129999974,99.99925129999974,99.99925129999974,,005,P007,2025_Feb_01_1004,ConditionRich,2021.2.3,59.98379237939866,
58.0,58.75,20,0.75,Stimuli/P007/sun_btrxtfbwtggtrpfv.jpg,0,0,0.0,0,109,109,109,,,,,,,,,,,,,58.0190264999992,0.019026499999199586,None,100.26614379999955,100.26614379999955,100.26614379999955,100.26614379999955,100.26614379999955,100.26614379999955,100.26614379999955,100.26614379999955,100.26614379999955,100.26614379999955,,005,P007,2025_Feb_01_1004,ConditionRich,2021.2.3,59.98379237939866,
58.75,59.0,41,0.0,Stimuli/Blank.png,0,0,0.0,0,110,110,110,,,,,,,,,,,,,58.769199800000024,0.01919980000002397,None,101.0167980999995,101.0167980999995,101.0167980999995,101.0167980999995,101.0167980999995,101.0167980999995,101.0167980999995,101.0167980999995,101.0167980999995,101.0167980999995,,005,P007,2025_Feb_01_1004,ConditionRich,2021.2.3,59.98379237939866,
59.0,59.75,20,0.75,Stimuli/P007/sun_btrxtfbwtggtrpfv.jpg,0,0,0.0,0,111,111,111,,,,,,,,,,,,,59.01900079999996,0.019000799999957962,None,101.26701569999932,101.26701569999932,101.26701569999932,101.26701569999932,101.26701569999932,101.26701569999932,101.26701569999932,101.26701569999932,101.26701569999932,101.26701569999932,,005,P007,2025_Feb_01_1004,ConditionRich,2021.2.3,59.98379237939866,
59.75,60.0,41,0.0,Stimuli/Blank.png,0,0,0.0,0,112,112,112,,,,,,,,,,,,,59.76820819999921,0.018208199999207864,None,102.00102459999925,102.00102459999925,102.00102459999925,102.00102459999925,102.00102459999925,102.00102459999925,102.00102459999925,102.00102459999925,102.00102459999925,102.00102459999925,,005,P007,2025_Feb_01_1004,ConditionRich,2021.2.3,59.98379237939866,
60.0,60.75,2,0.75,Stimuli/P007/sun_ajyzloqaptmicnfr.jpg,0,0,0.0,0,113,113,113,,,,,,,,,,,,,60.00151559999995,0.0015155999999478809,None,102.25122289999945,102.25122289999945,102.25122289999945,102.25122289999945,102.25122289999945,102.25122289999945,102.25122289999945,102.25122289999945,102.25122289999945,102.25122289999945,,005,P007,2025_Feb_01_1004,ConditionRich,2021.2.3,59.98379237939866,
60.75,61.0,41,0.0,Stimuli/Blank.png,0,0,0.0,0,114,114,114,,,,,,,,,,,,,60.76929299999938,0.01929299999937939,None,103.00188489999982,103.00188489999982,103.00188489999982,103.00188489999982,103.00188489999982,103.00188489999982,103.00188489999982,103.00188489999982,103.00188489999982,103.00188489999982,,005,P007,2025_Feb_01_1004,ConditionRich,2021.2.3,59.98379237939866,
61.0,61.75,2,0.75,Stimuli/P007/sun_ajyzloqaptmicnfr.jpg,1,0,0.75,0,115,115,115,,,,,,,,,,,,,61.00410389999979,0.004103899999790883,2,103.25210220000008,103.25210220000008,103.25210220000008,103.25210220000008,103.25210220000008,103.25210220000008,103.25210220000008,103.98608599999989,103.25210220000008,103.25210220000008,0.44428770000013174,005,P007,2025_Feb_01_1004,ConditionRich,2021.2.3,59.98379237939866,
61.75,62.0,41,0.0,Stimuli/Blank.png,0,0,0.0,0,116,116,116,,,,,,,,,,,,,61.76922359999935,0.019223599999349972,None,104.00277069999993,104.00277069999993,104.00277069999993,104.00277069999993,104.00277069999993,104.00277069999993,104.00277069999993,104.00277069999993,104.00277069999993,104.00277069999993,,005,P007,2025_Feb_01_1004,ConditionRich,2021.2.3,59.98379237939866,
62.0,62.75,2,0.75,Stimuli/P007/sun_ajyzloqaptmicnfr.jpg,0,0,0.0,0,117,117,117,,,,,,,,,,,,,62.00339839999924,0.0033983999992415193,None,104.23631479999949,104.23631479999949,104.23631479999949,104.23631479999949,104.23631479999949,104.23631479999949,104.23631479999949,104.23631479999949,104.23631479999949,104.23631479999949,,005,P007,2025_Feb_01_1004,ConditionRich,2021.2.3,59.98379237939866,
62.75,63.0,41,0.0,Stimuli/Blank.png,0,0,0.0,0,118,118,118,,,,,,,,,,,,,62.75437399999919,0.004373999999188527,None,104.98697989999982,104.98697989999982,104.98697989999982,104.98697989999982,104.98697989999982,104.98697989999982,104.98697989999982,104.98697989999982,104.98697989999982,104.98697989999982,,005,P007,2025_Feb_01_1004,ConditionRich,2021.2.3,59.98379237939866,
63.0,63.75,2,0.75,Stimuli/P007/sun_ajyzloqaptmicnfr.jpg,0,0,0.0,0,119,119,119,,,,,,,,,,,,,63.00493920000008,0.004939200000080746,None,105.25389689999975,105.25389689999975,105.25389689999975,105.25389689999975,105.25389689999975,105.25389689999975,105.25389689999975,105.25389689999975,105.25389689999975,105.25389689999975,,005,P007,2025_Feb_01_1004,ConditionRich,2021.2.3,59.98379237939866,
63.75,64.0,41,0.0,Stimuli/Blank.png,0,0,0.0,0,120,120,120,,,,,,,,,,,,,63.77090019999923,0.020900199999232427,None,106.00456089999989,106.00456089999989,106.00456089999989,106.00456089999989,106.00456089999989,106.00456089999989,106.00456089999989,106.00456089999989,106.00456089999989,106.00456089999989,,005,P007,2025_Feb_01_1004,ConditionRich,2021.2.3,59.98379237939866,
64.0,64.75,31,0.75,Stimuli/P007/things_jug_04s.jpg,0,0,0.0,0,121,121,121,,,,,,,,,,,,,64.00503659999958,0.005036599999584723,None,106.2380822999994,106.2380822999994,106.2380822999994,106.2380822999994,106.2380822999994,106.2380822999994,106.2380822999994,106.2380822999994,106.2380822999994,106.2380822999994,,005,P007,2025_Feb_01_1004,ConditionRich,2021.2.3,59.98379237939866,
64.75,65.0,41,0.0,Stimuli/Blank.png,0,0,0.0,0,122,122,122,,,,,,,,,,,,,64.75522199999978,0.005221999999776017,None,106.98873699999967,106.98873699999967,106.98873699999967,106.98873699999967,106.98873699999967,106.98873699999967,106.98873699999967,106.98873699999967,106.98873699999967,106.98873699999967,,005,P007,2025_Feb_01_1004,ConditionRich,2021.2.3,59.98379237939866,
65.0,65.75,31,0.75,Stimuli/P007/things_jug_04s.jpg,0,0,0.0,0,123,123,123,,,,,,,,,,,,,65.00641259999975,0.006412599999748636,None,107.23896400000012,107.23896400000012,107.23896400000012,107.23896400000012,107.23896400000012,107.23896400000012,107.23896400000012,107.23896400000012,107.23896400000012,107.23896400000012,,005,P007,2025_Feb_01_1004,ConditionRich,2021.2.3,59.98379237939866,
65.75,66.0,41,0.0,Stimuli/Blank.png,0,0,0.0,0,124,124,124,,,,,,,,,,,,,65.75879869999972,0.008798699999715609,None,108.00630860000001,108.00630860000001,108.00630860000001,108.00630860000001,108.00630860000001,108.00630860000001,108.00630860000001,108.00630860000001,108.00630860000001,108.00630860000001,,005,P007,2025_Feb_01_1004,ConditionRich,2021.2.3,59.98379237939866,
66.0,66.75,31,0.75,Stimuli/P007/things_jug_04s.jpg,0,0,0.0,0,125,125,125,,,,,,,,,,,,,66.02359449999949,0.023594499999489926,None,108.25653389999934,108.25653389999934,108.25653389999934,108.25653389999934,108.25653389999934,108.25653389999934,108.25653389999934,108.25653389999934,108.25653389999934,108.25653389999934,,005,P007,2025_Feb_01_1004,ConditionRich,2021.2.3,59.98379237939866,
66.75,67.0,41,0.0,Stimuli/Blank.png,0,0,0.0,0,126,126,126,,,,,,,,,,,,,66.7591053999995,0.009105399999498331,None,109.00719509999999,109.00719509999999,109.00719509999999,109.00719509999999,109.00719509999999,109.00719509999999,109.00719509999999,109.00719509999999,109.00719509999999,109.00719509999999,,005,P007,2025_Feb_01_1004,ConditionRich,2021.2.3,59.98379237939866,
67.0,67.75,31,0.75,Stimuli/P007/things_jug_04s.jpg,0,0,0.0,0,127,127,127,,,,,,,,,,,,,67.02459809999982,0.024598099999820988,None,109.25742189999983,109.25742189999983,109.25742189999983,109.25742189999983,109.25742189999983,109.25742189999983,109.25742189999983,109.25742189999983,109.25742189999983,109.25742189999983,,005,P007,2025_Feb_01_1004,ConditionRich,2021.2.3,59.98379237939866,
67.75,68.0,41,0.0,Stimuli/Blank.png,0,0,0.0,0,128,128,128,,,,,,,,,,,,,67.7591666999997,0.009166699999695993,None,109.9914190999998,109.9914190999998,109.9914190999998,109.9914190999998,109.9914190999998,109.9914190999998,109.9914190999998,109.9914190999998,109.9914190999998,109.9914190999998,,005,P007,2025_Feb_01_1004,ConditionRich,2021.2.3,59.98379237939866,
68.0,68.75,21,0.75,Stimuli/P007/things_baby_04s.jpg,0,0,0.0,0,129,129,129,,,,,,,,,,,,,68.00844059999963,0.008440599999630649,None,110.24162089999936,110.24162089999936,110.24162089999936,110.24162089999936,110.24162089999936,110.24162089999936,110.24162089999936,110.24162089999936,110.24162089999936,110.24162089999936,,005,P007,2025_Feb_01_1004,ConditionRich,2021.2.3,59.98379237939866,
68.75,69.0,41,0.0,Stimuli/Blank.png,0,0,0.0,0,130,130,130,,,,,,,,,,,,,68.75872729999992,0.008727299999918614,None,110.99228609999955,110.99228609999955,110.99228609999955,110.99228609999955,110.99228609999955,110.99228609999955,110.99228609999955,110.99228609999955,110.99228609999955,110.99228609999955,,005,P007,2025_Feb_01_1004,ConditionRich,2021.2.3,59.98379237939866,
69.0,69.75,21,0.75,Stimuli/P007/things_baby_04s.jpg,0,0,0.0,0,131,131,131,,,,,,,,,,,,,69.00990529999945,0.00990529999944556,None,111.2592055999994,111.2592055999994,111.2592055999994,111.2592055999994,111.2592055999994,111.2592055999994,111.2592055999994,111.2592055999994,111.2592055999994,111.2592055999994,,005,P007,2025_Feb_01_1004,ConditionRich,2021.2.3,59.98379237939866,
69.75,70.0,41,0.0,Stimuli/Blank.png,0,0,0.0,0,132,132,132,,,,,,,,,,,,,69.7762460999993,0.026246099999298167,None,112.00984859999971,112.00984859999971,112.00984859999971,112.00984859999971,112.00984859999971,112.00984859999971,112.00984859999971,112.00984859999971,112.00984859999971,112.00984859999971,,005,P007,2025_Feb_01_1004,ConditionRich,2021.2.3,59.98379237939866,
70.0,70.75,21,0.75,Stimuli/P007/things_baby_04s.jpg,0,0,0.0,0,133,133,133,,,,,,,,,,,,,70.0108225999993,0.010822599999301019,None,112.24338499999976,112.24338499999976,112.24338499999976,112.24338499999976,112.24338499999976,112.24338499999976,112.24338499999976,112.24338499999976,112.24338499999976,112.24338499999976,,005,P007,2025_Feb_01_1004,ConditionRich,2021.2.3,59.98379237939866,
70.75,71.0,41,0.0,Stimuli/Blank.png,0,0,0.0,0,134,134,134,,,,,,,,,,,,,70.76149469999928,0.011494699999275326,None,112.99412579999989,112.99412579999989,112.99412579999989,112.99412579999989,112.99412579999989,112.99412579999989,112.99412579999989,112.99412579999989,112.99412579999989,112.99412579999989,,005,P007,2025_Feb_01_1004,ConditionRich,2021.2.3,59.98379237939866,
71.0,71.75,21,0.75,Stimuli/P007/things_baby_04s.jpg,0,0,0.0,0,135,135,135,,,,,,,,,,,,,71.01085590000002,0.010855900000024121,None,113.2442747999994,113.2442747999994,113.2442747999994,113.2442747999994,113.2442747999994,113.2442747999994,113.2442747999994,113.2442747999994,113.2442747999994,113.2442747999994,,005,P007,2025_Feb_01_1004,ConditionRich,2021.2.3,59.98379237939866,
71.75,72.0,41,0.0,Stimuli/Blank.png,0,0,0.0,0,136,136,136,,,,,,,,,,,,,71.76401799999985,0.014017999999850872,None,114.01163949999955,114.01163949999955,114.01163949999955,114.01163949999955,114.01163949999955,114.01163949999955,114.01163949999955,114.01163949999955,114.01163949999955,114.01163949999955,,005,P007,2025_Feb_01_1004,ConditionRich,2021.2.3,59.98379237939866,
72.0,72.75,12,0.75,Stimuli/P007/sun_bitpmyvulluuasab.jpg,0,0,0.0,0,137,137,137,,,,,,,,,,,,,72.02889609999966,0.028896099999656144,None,114.26183489999949,114.26183489999949,114.26183489999949,114.26183489999949,114.26183489999949,114.26183489999949,114.26183489999949,114.26183489999949,114.26183489999949,114.26183489999949,,005,P007,2025_Feb_01_1004,ConditionRich,2021.2.3,59.98379237939866,
72.75,73.0,41,0.0,Stimuli/Blank.png,0,0,0.0,0,138,138,138,,,,,,,,,,,,,72.76320629999918,0.013206299999183102,None,114.9958246999995,114.9958246999995,114.9958246999995,114.9958246999995,114.9958246999995,114.9958246999995,114.9958246999995,114.9958246999995,114.9958246999995,114.9958246999995,,005,P007,2025_Feb_01_1004,ConditionRich,2021.2.3,59.98379237939866,
73.0,73.75,12,0.75,Stimuli/P007/sun_bitpmyvulluuasab.jpg,0,0,0.0,0,139,139,139,,,,,,,,,,,,,73.0133481999992,0.013348199999200006,None,115.2460500999996,115.2460500999996,115.2460500999996,115.2460500999996,115.2460500999996,115.2460500999996,115.2460500999996,115.2460500999996,115.2460500999996,115.2460500999996,,005,P007,2025_Feb_01_1004,ConditionRich,2021.2.3,59.98379237939866,
73.75,74.0,41,0.0,Stimuli/Blank.png,0,0,0.0,0,140,140,140,,,,,,,,,,,,,73.7636537999997,0.013653799999701732,None,115.99670259999948,115.99670259999948,115.99670259999948,115.99670259999948,115.99670259999948,115.99670259999948,115.99670259999948,115.99670259999948,115.99670259999948,115.99670259999948,,005,P007,2025_Feb_01_1004,ConditionRich,2021.2.3,59.98379237939866,
74.0,74.75,12,0.75,Stimuli/P007/sun_bitpmyvulluuasab.jpg,0,0,0.0,0,141,141,141,,,,,,,,,,,,,74.01433779999934,0.01433779999933904,None,116.24693289999959,116.24693289999959,116.24693289999959,116.24693289999959,116.24693289999959,116.24693289999959,116.24693289999959,116.24693289999959,116.24693289999959,116.24693289999959,,005,P007,2025_Feb_01_1004,ConditionRich,2021.2.3,59.98379237939866,
74.75,75.0,41,0.0,Stimuli/Blank.png,0,0,0.0,0,142,142,142,,,,,,,,,,,,,74.76528629999939,0.015286299999388575,None,116.99760439999955,116.99760439999955,116.99760439999955,116.99760439999955,116.99760439999955,116.99760439999955,116.99760439999955,116.99760439999955,116.99760439999955,116.99760439999955,,005,P007,2025_Feb_01_1004,ConditionRich,2021.2.3,59.98379237939866,
75.0,75.75,12,0.75,Stimuli/P007/sun_bitpmyvulluuasab.jpg,0,0,0.0,0,143,143,143,,,,,,,,,,,,,75.0146863,0.014686299999993935,None,117.24781499999972,117.24781499999972,117.24781499999972,117.24781499999972,117.24781499999972,117.24781499999972,117.24781499999972,117.24781499999972,117.24781499999972,117.24781499999972,,005,P007,2025_Feb_01_1004,ConditionRich,2021.2.3,59.98379237939866,
75.75,76.0,41,0.0,Stimuli/Blank.png,0,0,0.0,0,144,144,144,,,,,,,,,,,,,75.76503069999944,0.015030699999442731,None,117.99848190000012,117.99848190000012,117.99848190000012,117.99848190000012,117.99848190000012,117.99848190000012,117.99848190000012,117.99848190000012,117.99848190000012,117.99848190000012,,005,P007,2025_Feb_01_1004,ConditionRich,2021.2.3,59.98379237939866,
76.0,76.75,29,0.75,Stimuli/P007/things_hawk_04s.jpg,0,0,0.0,0,145,145,145,,,,,,,,,,,,,76.0156251999997,0.01562519999970391,None,118.24869839999974,118.24869839999974,118.24869839999974,118.24869839999974,118.24869839999974,118.24869839999974,118.24869839999974,118.24869839999974,118.24869839999974,118.24869839999974,,005,P007,2025_Feb_01_1004,ConditionRich,2021.2.3,59.98379237939866,
76.75,77.0,41,0.0,Stimuli/Blank.png,0,0,0.0,0,146,146,146,,,,,,,,,,,,,76.7499601999998,-3.980000019510044e-05,None,118.98269559999972,118.98269559999972,118.98269559999972,118.98269559999972,118.98269559999972,118.98269559999972,118.98269559999972,118.98269559999972,118.98269559999972,118.98269559999972,,005,P007,2025_Feb_01_1004,ConditionRich,2021.2.3,59.98379237939866,
77.0,77.75,29,0.75,Stimuli/P007/things_hawk_04s.jpg,0,0,0.0,0,147,147,147,,,,,,,,,,,,,77.00000639999962,6.399999620043673e-06,None,119.23291079999944,119.23291079999944,119.23291079999944,119.23291079999944,119.23291079999944,119.23291079999944,119.23291079999944,119.23291079999944,119.23291079999944,119.23291079999944,,005,P007,2025_Feb_01_1004,ConditionRich,2021.2.3,59.98379237939866,
77.75,78.0,41,0.0,Stimuli/Blank.png,0,0,0.0,0,148,148,148,,,,,,,,,,,,,77.75005770000007,5.7700000070326496e-05,None,119.98356830000012,119.98356830000012,119.98356830000012,119.98356830000012,119.98356830000012,119.98356830000012,119.98356830000012,119.98356830000012,119.98356830000012,119.98356830000012,,005,P007,2025_Feb_01_1004,ConditionRich,2021.2.3,59.98379237939866,
78.0,78.75,29,0.75,Stimuli/P007/things_hawk_04s.jpg,0,0,0.0,0,149,149,149,,,,,,,,,,,,,78.00033039999926,0.00033039999925676966,None,120.23378729999968,120.23378729999968,120.23378729999968,120.23378729999968,120.23378729999968,120.23378729999968,120.23378729999968,120.23378729999968,120.23378729999968,120.23378729999968,,005,P007,2025_Feb_01_1004,ConditionRich,2021.2.3,59.98379237939866,
78.75,79.0,41,0.0,Stimuli/Blank.png,0,0,0.0,0,150,150,150,,,,,,,,,,,,,78.75230680000004,0.0023068000000421307,None,120.98446269999931,120.98446269999931,120.98446269999931,120.98446269999931,120.98446269999931,120.98446269999931,120.98446269999931,120.98446269999931,120.98446269999931,120.98446269999931,,005,P007,2025_Feb_01_1004,ConditionRich,2021.2.3,59.98379237939866,
79.0,79.75,29,0.75,Stimuli/P007/things_hawk_04s.jpg,1,0,0.75,0,151,151,151,,,,,,,,,,,,,79.00399689999995,0.003996899999947345,2,121.25136609999936,121.25136609999936,121.25136609999936,121.25136609999936,121.25136609999936,121.25136609999936,121.25136609999936,121.98537529999976,121.25136609999936,121.25136609999936,0.3840853000001516,005,P007,2025_Feb_01_1004,ConditionRich,2021.2.3,59.98379237939866,
79.75,80.0,41,0.0,Stimuli/Blank.png,0,0,0.0,0,152,152,152,,,,,,,,,,,,,79.76911309999923,0.019113099999231054,None,122.00202389999959,122.00202389999959,122.00202389999959,122.00202389999959,122.00202389999959,122.00202389999959,122.00202389999959,122.00202389999959,122.00202389999959,122.00202389999959,,005,P007,2025_Feb_01_1004,ConditionRich,2021.2.3,59.98379237939866,
80.0,80.75,10,0.75,Stimuli/P007/sun_bdekcgnlcicvgpvq.jpg,0,0,0.0,0,153,153,153,,,,,,,,,,,,,80.00276179999946,0.0027617999994618003,None,122.2355848999996,122.2355848999996,122.2355848999996,122.2355848999996,122.2355848999996,122.2355848999996,122.2355848999996,122.2355848999996,122.2355848999996,122.2355848999996,,005,P007,2025_Feb_01_1004,ConditionRich,2021.2.3,59.98379237939866,
80.75,81.0,41,0.0,Stimuli/Blank.png,0,0,0.0,0,154,154,154,,,,,,,,,,,,,80.7533128999994,0.0033128999994005426,None,122.98622769999929,122.98622769999929,122.98622769999929,122.98622769999929,122.98622769999929,122.98622769999929,122.98622769999929,122.98622769999929,122.98622769999929,122.98622769999929,,005,P007,2025_Feb_01_1004,ConditionRich,2021.2.3,59.98379237939866,
81.0,81.75,10,0.75,Stimuli/P007/sun_bdekcgnlcicvgpvq.jpg,0,0,0.0,0,155,155,155,,,,,,,,,,,,,81.00355229999968,0.003552299999682873,None,123.23644869999953,123.23644869999953,123.23644869999953,123.23644869999953,123.23644869999953,123.23644869999953,123.23644869999953,123.23644869999953,123.23644869999953,123.23644869999953,,005,P007,2025_Feb_01_1004,ConditionRich,2021.2.3,59.98379237939866,
81.75,82.0,41,0.0,Stimuli/Blank.png,0,0,0.0,0,156,156,156,,,,,,,,,,,,,81.7542285999998,0.004228599999805738,None,123.98711189999995,123.98711189999995,123.98711189999995,123.98711189999995,123.98711189999995,123.98711189999995,123.98711189999995,123.98711189999995,123.98711189999995,123.98711189999995,,005,P007,2025_Feb_01_1004,ConditionRich,2021.2.3,59.98379237939866,
82.0,82.75,10,0.75,Stimuli/P007/sun_bdekcgnlcicvgpvq.jpg,0,0,0.0,0,157,157,157,,,,,,,,,,,,,82.00441059999957,0.004410599999573606,None,124.23732729999938,124.23732729999938,124.23732729999938,124.23732729999938,124.23732729999938,124.23732729999938,124.23732729999938,124.23732729999938,124.23732729999938,124.23732729999938,,005,P007,2025_Feb_01_1004,ConditionRich,2021.2.3,59.98379237939866,
82.75,83.0,41,0.0,Stimuli/Blank.png,0,0,0.0,0,158,158,158,,,,,,,,,,,,,82.75478049999947,0.004780499999469612,None,124.98799589999999,124.98799589999999,124.98799589999999,124.98799589999999,124.98799589999999,124.98799589999999,124.98799589999999,124.98799589999999,124.98799589999999,124.98799589999999,,005,P007,2025_Feb_01_1004,ConditionRich,2021.2.3,59.98379237939866,
83.0,83.75,10,0.75,Stimuli/P007/sun_bdekcgnlcicvgpvq.jpg,0,0,0.0,0,159,159,159,,,,,,,,,,,,,83.00476819999949,0.004768199999489298,None,125.23821689999932,125.23821689999932,125.23821689999932,125.23821689999932,125.23821689999932,125.23821689999932,125.23821689999932,125.23821689999932,125.23821689999932,125.23821689999932,,005,P007,2025_Feb_01_1004,ConditionRich,2021.2.3,59.98379237939866,
83.75,84.0,41,0.0,Stimuli/Blank.png,0,0,0.0,0,160,160,160,,,,,,,,,,,,,83.75632719999976,0.006327199999759614,None,125.98896830000012,125.98896830000012,125.98896830000012,125.98896830000012,125.98896830000012,125.98896830000012,125.98896830000012,125.98896830000012,125.98896830000012,125.98896830000012,,005,P007,2025_Feb_01_1004,ConditionRich,2021.2.3,59.98379237939866,
84.0,100.0,0,0.0,Stimuli/Blank.png,1,9,9.75,0,161,161,161,,,,,,,,,,,,,84.00611239999944,0.006112399999437912,2,126.23909670000012,126.23909670000012,126.23909670000012,126.23909670000012,126.23909670000012,126.23909670000012,135.23041769999963,135.98107230000005,126.23909670000012,126.23909670000012,9.405258599999797,005,P007,2025_Feb_01_1004,ConditionRich,2021.2.3,59.98379237939866,
100.0,100.75,11,0.75,Stimuli/P007/sun_bdsriuscubkvzrmt.jpg,0,0,0.0,0,162,162,162,,,,,,,,,,,,,100.00308229999973,0.0030822999997326406,None,142.23657939999975,142.23657939999975,142.23657939999975,142.23657939999975,142.23657939999975,142.23657939999975,142.23657939999975,142.23657939999975,142.23657939999975,142.23657939999975,,005,P007,2025_Feb_01_1004,ConditionRich,2021.2.3,59.98379237939866,
100.75,101.0,41,0.0,Stimuli/Blank.png,0,0,0.0,0,163,163,163,,,,,,,,,,,,,100.75452959999984,0.004529599999841594,None,142.9872538999998,142.9872538999998,142.9872538999998,142.9872538999998,142.9872538999998,142.9872538999998,142.9872538999998,142.9872538999998,142.9872538999998,142.9872538999998,,005,P007,2025_Feb_01_1004,ConditionRich,2021.2.3,59.98379237939866,
101.0,101.75,11,0.75,Stimuli/P007/sun_bdsriuscubkvzrmt.jpg,0,0,0.0,0,164,164,164,,,,,,,,,,,,,101.00467059999937,0.004670599999371916,None,143.23747240000012,143.23747240000012,143.23747240000012,143.23747240000012,143.23747240000012,143.23747240000012,143.23747240000012,143.23747240000012,143.23747240000012,143.23747240000012,,005,P007,2025_Feb_01_1004,ConditionRich,2021.2.3,59.98379237939866,
101.75,102.0,41,0.0,Stimuli/Blank.png,0,0,0.0,0,165,165,165,,,,,,,,,,,,,101.754637,0.004637000000002445,None,143.98813989999962,143.98813989999962,143.98813989999962,143.98813989999962,143.98813989999962,143.98813989999962,143.98813989999962,143.98813989999962,143.98813989999962,143.98813989999962,,005,P007,2025_Feb_01_1004,ConditionRich,2021.2.3,59.98379237939866,
102.0,102.75,11,0.75,Stimuli/P007/sun_bdsriuscubkvzrmt.jpg,0,0,0.0,0,166,166,166,,,,,,,,,,,,,102.00470349999978,0.004703499999777705,None,144.23835539999982,144.23835539999982,144.23835539999982,144.23835539999982,144.23835539999982,144.23835539999982,144.23835539999982,144.23835539999982,144.23835539999982,144.23835539999982,,005,P007,2025_Feb_01_1004,ConditionRich,2021.2.3,59.98379237939866,
102.75,103.0,41,0.0,Stimuli/Blank.png,0,0,0.0,0,167,167,167,,,,,,,,,,,,,102.75615789999938,0.006157899999379879,None,144.9890335,144.9890335,144.9890335,144.9890335,144.9890335,144.9890335,144.9890335,144.9890335,144.9890335,144.9890335,,005,P007,2025_Feb_01_1004,ConditionRich,2021.2.3,59.98379237939866,
103.0,103.75,11,0.75,Stimuli/P007/sun_bdsriuscubkvzrmt.jpg,0,0,0.0,0,168,168,168,,,,,,,,,,,,,103.00649309999972,0.006493099999715923,None,145.25592919999963,145.25592919999963,145.25592919999963,145.25592919999963,145.25592919999963,145.25592919999963,145.25592919999963,145.25592919999963,145.25592919999963,145.25592919999963,,005,P007,2025_Feb_01_1004,ConditionRich,2021.2.3,59.98379237939866,
103.75,104.0,41,0.0,Stimuli/Blank.png,0,0,0.0,0,169,169,169,,,,,,,,,,,,,103.7736931999998,0.023693199999797798,None,146.00659480000013,146.00659480000013,146.00659480000013,146.00659480000013,146.00659480000013,146.00659480000013,146.00659480000013,146.00659480000013,146.00659480000013,146.00659480000013,,005,P007,2025_Feb_01_1004,ConditionRich,2021.2.3,59.98379237939866,
104.0,104.75,30,0.75,Stimuli/P007/things_jalapeno_04s.jpg,0,0,0.0,0,170,170,170,,,,,,,,,,,,,104.00661659999969,0.006616599999688333,None,146.25680999999986,146.25680999999986,146.25680999999986,146.25680999999986,146.25680999999986,146.25680999999986,146.25680999999986,146.25680999999986,146.25680999999986,146.25680999999986,,005,P007,2025_Feb_01_1004,ConditionRich,2021.2.3,59.98379237939866,
104.75,105.0,41,0.0,Stimuli/Blank.png,0,0,0.0,0,171,171,171,,,,,,,,,,,,,104.77454669999952,0.02454669999951875,None,147.0074799999993,147.0074799999993,147.0074799999993,147.0074799999993,147.0074799999993,147.0074799999993,147.0074799999993,147.0074799999993,147.0074799999993,147.0074799999993,,005,P007,2025_Feb_01_1004,ConditionRich,2021.2.3,59.98379237939866,
105.0,105.75,30,0.75,Stimuli/P007/things_jalapeno_04s.jpg,0,0,0.0,0,172,172,172,,,,,,,,,,,,,105.00945059999958,0.009450599999581755,None,147.25769489999948,147.25769489999948,147.25769489999948,147.25769489999948,147.25769489999948,147.25769489999948,147.25769489999948,147.25769489999948,147.25769489999948,147.25769489999948,,005,P007,2025_Feb_01_1004,ConditionRich,2021.2.3,59.98379237939866,
105.75,106.0,41,0.0,Stimuli/Blank.png,0,0,0.0,0,173,173,173,,,,,,,,,,,,,105.7748761999992,0.024876199999198434,None,148.0083608999994,148.0083608999994,148.0083608999994,148.0083608999994,148.0083608999994,148.0083608999994,148.0083608999994,148.0083608999994,148.0083608999994,148.0083608999994,,005,P007,2025_Feb_01_1004,ConditionRich,2021.2.3,59.98379237939866,
106.0,106.75,30,0.75,Stimuli/P007/things_jalapeno_04s.jpg,0,0,0.0,0,174,174,174,,,,,,,,,,,,,106.00944929999969,0.009449299999687355,None,148.24189529999967,148.24189529999967,148.24189529999967,148.24189529999967,148.24189529999967,148.24189529999967,148.24189529999967,148.24189529999967,148.24189529999967,148.24189529999967,,005,P007,2025_Feb_01_1004,ConditionRich,2021.2.3,59.98379237939866,
106.75,107.0,41,0.0,Stimuli/Blank.png,0,0,0.0,0,175,175,175,,,,,,,,,,,,,106.75962749999962,0.009627499999623979,None,148.9925604,148.9925604,148.9925604,148.9925604,148.9925604,148.9925604,148.9925604,148.9925604,148.9925604,148.9925604,,005,P007,2025_Feb_01_1004,ConditionRich,2021.2.3,59.98379237939866,
107.0,107.75,30,0.75,Stimuli/P007/things_jalapeno_04s.jpg,0,0,0.0,0,176,176,176,,,,,,,,,,,,,107.01025649999974,0.010256499999741209,None,149.25946320000003,149.25946320000003,149.25946320000003,149.25946320000003,149.25946320000003,149.25946320000003,149.25946320000003,149.25946320000003,149.25946320000003,149.25946320000003,,005,P007,2025_Feb_01_1004,ConditionRich,2021.2.3,59.98379237939866,
107.75,108.0,41,0.0,Stimuli/Blank.png,0,0,0.0,0,177,177,177,,,,,,,,,,,,,107.77652579999994,0.026525799999944866,None,150.01013069999954,150.01013069999954,150.01013069999954,150.01013069999954,150.01013069999954,150.01013069999954,150.01013069999954,150.01013069999954,150.01013069999954,150.01013069999954,,005,P007,2025_Feb_01_1004,ConditionRich,2021.2.3,59.98379237939866,
108.0,108.75,9,0.75,Stimuli/P007/sun_bcsqogieozpyvuft.jpg,0,0,0.0,0,178,178,178,,,,,,,,,,,,,108.01024759999927,0.010247599999274826,None,150.24366559999999,150.24366559999999,150.24366559999999,150.24366559999999,150.24366559999999,150.24366559999999,150.24366559999999,150.24366559999999,150.24366559999999,150.24366559999999,,005,P007,2025_Feb_01_1004,ConditionRich,2021.2.3,59.98379237939866,
108.75,109.0,41,0.0,Stimuli/Blank.png,0,0,0.0,0,179,179,179,,,,,,,,,,,,,108.7608582999992,0.010858299999199517,None,150.99430380000013,150.99430380000013,150.99430380000013,150.99430380000013,150.99430380000013,150.99430380000013,150.99430380000013,150.99430380000013,150.99430380000013,150.99430380000013,,005,P007,2025_Feb_01_1004,ConditionRich,2021.2.3,59.98379237939866,
109.0,109.75,9,0.75,Stimuli/P007/sun_bcsqogieozpyvuft.jpg,1,0,0.75,0,180,180,180,,,,,,,,,,,,,109.01101179999932,0.011011799999323557,2,151.2445442999997,151.2445442999997,151.2445442999997,151.2445442999997,151.2445442999997,151.2445442999997,151.2445442999997,151.97857639999984,151.2445442999997,151.2445442999997,0.47895079999943846,005,P007,2025_Feb_01_1004,ConditionRich,2021.2.3,59.98379237939866,
109.75,110.0,41,0.0,Stimuli/Blank.png,0,0,0.0,0,181,181,181,,,,,,,,,,,,,109.76418569999987,0.014185699999870849,None,152.01195459999963,152.01195459999963,152.01195459999963,152.01195459999963,152.01195459999963,152.01195459999963,152.01195459999963,152.01195459999963,152.01195459999963,152.01195459999963,,005,P007,2025_Feb_01_1004,ConditionRich,2021.2.3,59.98379237939866,
110.0,110.75,9,0.75,Stimuli/P007/sun_bcsqogieozpyvuft.jpg,0,0,0.0,0,182,182,182,,,,,,,,,,,,,110.02918379999937,0.02918379999937315,None,152.26211239999975,152.26211239999975,152.26211239999975,152.26211239999975,152.26211239999975,152.26211239999975,152.26211239999975,152.26211239999975,152.26211239999975,152.26211239999975,,005,P007,2025_Feb_01_1004,ConditionRich,2021.2.3,59.98379237939866,
110.75,111.0,41,0.0,Stimuli/Blank.png,0,0,0.0,0,183,183,183,,,,,,,,,,,,,110.76241499999924,0.012414999999236898,None,152.99615369999992,152.99615369999992,152.99615369999992,152.99615369999992,152.99615369999992,152.99615369999992,152.99615369999992,152.99615369999992,152.99615369999992,152.99615369999992,,005,P007,2025_Feb_01_1004,ConditionRich,2021.2.3,59.98379237939866,
111.0,111.75,9,0.75,Stimuli/P007/sun_bcsqogieozpyvuft.jpg,0,0,0.0,0,184,184,184,,,,,,,,,,,,,111.01339680000001,0.013396800000009534,None,153.2630008999995,153.2630008999995,153.2630008999995,153.2630008999995,153.2630008999995,153.2630008999995,153.2630008999995,153.2630008999995,153.2630008999995,153.2630008999995,,005,P007,2025_Feb_01_1004,ConditionRich,2021.2.3,59.98379237939866,
111.75,112.0,41,0.0,Stimuli/Blank.png,0,0,0.0,0,185,185,185,,,,,,,,,,,,,111.78023339999982,0.030233399999815447,None,154.01366249999955,154.01366249999955,154.01366249999955,154.01366249999955,154.01366249999955,154.01366249999955,154.01366249999955,154.01366249999955,154.01366249999955,154.01366249999955,,005,P007,2025_Feb_01_1004,ConditionRich,2021.2.3,59.98379237939866,
112.0,112.75,4,0.75,Stimuli/P007/sun_awqukazlzsxaokai.jpg,1,0,0.75,0,186,186,186,,,,,,,,,,,,,112.01455159999932,0.014551599999322207,2,154.26388289999977,154.26388289999977,154.26388289999977,154.26388289999977,154.26388289999977,154.26388289999977,154.26388289999977,154.9811738999997,154.26388289999977,154.26388289999977,0.4377679999997781,005,P007,2025_Feb_01_1004,ConditionRich,2021.2.3,59.98379237939866,
112.75,113.0,41,0.0,Stimuli/Blank.png,0,0,0.0,0,187,187,187,,,,,,,,,,,,,112.78092799999922,0.030927999999221356,None,155.01454740000008,155.01454740000008,155.01454740000008,155.01454740000008,155.01454740000008,155.01454740000008,155.01454740000008,155.01454740000008,155.01454740000008,155.01454740000008,,005,P007,2025_Feb_01_1004,ConditionRich,2021.2.3,59.98379237939866,
113.0,113.75,4,0.75,Stimuli/P007/sun_awqukazlzsxaokai.jpg,0,0,0.0,0,188,188,188,,,,,,,,,,,,,113.01500020000003,0.015000200000031327,None,155.24809689999984,155.24809689999984,155.24809689999984,155.24809689999984,155.24809689999984,155.24809689999984,155.24809689999984,155.24809689999984,155.24809689999984,155.24809689999984,,005,P007,2025_Feb_01_1004,ConditionRich,2021.2.3,59.98379237939866,
113.75,114.0,41,0.0,Stimuli/Blank.png,0,0,0.0,0,189,189,189,,,,,,,,,,,,,113.76525779999974,0.015257799999744748,None,155.99873919999936,155.99873919999936,155.99873919999936,155.99873919999936,155.99873919999936,155.99873919999936,155.99873919999936,155.99873919999936,155.99873919999936,155.99873919999936,,005,P007,2025_Feb_01_1004,ConditionRich,2021.2.3,59.98379237939866,
114.0,114.75,4,0.75,Stimuli/P007/sun_awqukazlzsxaokai.jpg,0,0,0.0,0,190,190,190,,,,,,,,,,,,,114.01594159999968,0.015941599999678147,None,156.26567689999956,156.26567689999956,156.26567689999956,156.26567689999956,156.26567689999956,156.26567689999956,156.26567689999956,156.26567689999956,156.26567689999956,156.26567689999956,,005,P007,2025_Feb_01_1004,ConditionRich,2021.2.3,59.98379237939866,
114.75,115.0,41,0.0,Stimuli/Blank.png,0,0,0.0,0,191,191,191,,,,,,,,,,,,,114.76883719999933,0.018837199999325094,None,157.01634259999992,157.01634259999992,157.01634259999992,157.01634259999992,157.01634259999992,157.01634259999992,157.01634259999992,157.01634259999992,157.01634259999992,157.01634259999992,,005,P007,2025_Feb_01_1004,ConditionRich,2021.2.3,59.98379237939866,
115.0,115.75,4,0.75,Stimuli/P007/sun_awqukazlzsxaokai.jpg,0,0,0.0,0,192,192,192,,,,,,,,,,,,,115.01620679999996,0.01620679999996355,None,157.26655630000005,157.26655630000005,157.26655630000005,157.26655630000005,157.26655630000005,157.26655630000005,157.26655630000005,157.26655630000005,157.26655630000005,157.26655630000005,,005,P007,2025_Feb_01_1004,ConditionRich,2021.2.3,59.98379237939866,
115.75,116.0,41,0.0,Stimuli/Blank.png,0,0,0.0,0,193,193,193,,,,,,,,,,,,,115.76994569999988,0.019945699999880162,None,158.01721120000002,158.01721120000002,158.01721120000002,158.01721120000002,158.01721120000002,158.01721120000002,158.01721120000002,158.01721120000002,158.01721120000002,158.01721120000002,,005,P007,2025_Feb_01_1004,ConditionRich,2021.2.3,59.98379237939866,
116.0,116.75,32,0.75,Stimuli/P007/things_maggot_04s.jpg,0,0,0.0,0,194,194,194,,,,,,,,,,,,,116.02062289999958,0.020622899999580113,None,158.26743219999935,158.26743219999935,158.26743219999935,158.26743219999935,158.26743219999935,158.26743219999935,158.26743219999935,158.26743219999935,158.26743219999935,158.26743219999935,,005,P007,2025_Feb_01_1004,ConditionRich,2021.2.3,59.98379237939866,
116.75,117.0,41,0.0,Stimuli/Blank.png,0,0,0.0,0,195,195,195,,,,,,,,,,,,,116.76856889999999,0.018568899999991118,None,159.00141239999994,159.00141239999994,159.00141239999994,159.00141239999994,159.00141239999994,159.00141239999994,159.00141239999994,159.00141239999994,159.00141239999994,159.00141239999994,,005,P007,2025_Feb_01_1004,ConditionRich,2021.2.3,59.98379237939866,
117.0,117.75,32,0.75,Stimuli/P007/things_maggot_04s.jpg,0,0,0.0,0,196,196,196,,,,,,,,,,,,,117.00237190000007,0.0023719000000710366,None,159.23495459999958,159.23495459999958,159.23495459999958,159.23495459999958,159.23495459999958,159.23495459999958,159.23495459999958,159.23495459999958,159.23495459999958,159.23495459999958,,005,P007,2025_Feb_01_1004,ConditionRich,2021.2.3,59.98379237939866,
117.75,118.0,41,0.0,Stimuli/Blank.png,0,0,0.0,0,197,197,197,,,,,,,,,,,,,117.7541255999995,0.0041255999994973536,None,160.00227109999923,160.00227109999923,160.00227109999923,160.00227109999923,160.00227109999923,160.00227109999923,160.00227109999923,160.00227109999923,160.00227109999923,160.00227109999923,,005,P007,2025_Feb_01_1004,ConditionRich,2021.2.3,59.98379237939866,
118.0,118.75,32,0.75,Stimuli/P007/things_maggot_04s.jpg,0,0,0.0,0,198,198,198,,,,,,,,,,,,,118.01900690000002,0.019006900000022142,None,160.2525231999998,160.2525231999998,160.2525231999998,160.2525231999998,160.2525231999998,160.2525231999998,160.2525231999998,160.2525231999998,160.2525231999998,160.2525231999998,,005,P007,2025_Feb_01_1004,ConditionRich,2021.2.3,59.98379237939866,
118.75,119.0,41,0.0,Stimuli/Blank.png,0,0,0.0,0,199,199,199,,,,,,,,,,,,,118.75392979999924,0.003929799999241368,None,160.98651259999951,160.98651259999951,160.98651259999951,160.98651259999951,160.98651259999951,160.98651259999951,160.98651259999951,160.98651259999951,160.98651259999951,160.98651259999951,,005,P007,2025_Feb_01_1004,ConditionRich,2021.2.3,59.98379237939866,
119.0,119.75,32,0.75,Stimuli/P007/things_maggot_04s.jpg,0,0,0.0,0,200,200,200,,,,,,,,,,,,,119.00464250000005,0.004642500000045402,None,161.25340039999992,161.25340039999992,161.25340039999992,161.25340039999992,161.25340039999992,161.25340039999992,161.25340039999992,161.25340039999992,161.25340039999992,161.25340039999992,,005,P007,2025_Feb_01_1004,ConditionRich,2021.2.3,59.98379237939866,
119.75,120.0,41,0.0,Stimuli/Blank.png,0,0,0.0,0,201,201,201,,,,,,,,,,,,,119.7705563999998,0.020556399999804853,None,162.00406249999924,162.00406249999924,162.00406249999924,162.00406249999924,162.00406249999924,162.00406249999924,162.00406249999924,162.00406249999924,162.00406249999924,162.00406249999924,,005,P007,2025_Feb_01_1004,ConditionRich,2021.2.3,59.98379237939866,
120.0,120.75,18,0.75,Stimuli/P007/sun_borgfidyubrwsuuw.jpg,0,0,0.0,0,202,202,202,,,,,,,,,,,,,120.00467709999975,0.004677099999753409,None,162.2376076999999,162.2376076999999,162.2376076999999,162.2376076999999,162.2376076999999,162.2376076999999,162.2376076999999,162.2376076999999,162.2376076999999,162.2376076999999,,005,P007,2025_Feb_01_1004,ConditionRich,2021.2.3,59.98379237939866,
120.75,121.0,41,0.0,Stimuli/Blank.png,0,0,0.0,0,203,203,203,,,,,,,,,,,,,120.75480179999977,0.004801799999768264,None,162.9882631999999,162.9882631999999,162.9882631999999,162.9882631999999,162.9882631999999,162.9882631999999,162.9882631999999,162.9882631999999,162.9882631999999,162.9882631999999,,005,P007,2025_Feb_01_1004,ConditionRich,2021.2.3,59.98379237939866,
121.0,121.75,18,0.75,Stimuli/P007/sun_borgfidyubrwsuuw.jpg,0,0,0.0,0,204,204,204,,,,,,,,,,,,,121.00596999999925,0.0059699999992517405,None,163.25517969999964,163.25517969999964,163.25517969999964,163.25517969999964,163.25517969999964,163.25517969999964,163.25517969999964,163.25517969999964,163.25517969999964,163.25517969999964,,005,P007,2025_Feb_01_1004,ConditionRich,2021.2.3,59.98379237939866,
121.75,122.0,41,0.0,Stimuli/Blank.png,0,0,0.0,0,205,205,205,,,,,,,,,,,,,121.77423399999952,0.024233999999523803,None,164.0225144999995,164.0225144999995,164.0225144999995,164.0225144999995,164.0225144999995,164.0225144999995,164.0225144999995,164.0225144999995,164.0225144999995,164.0225144999995,,005,P007,2025_Feb_01_1004,ConditionRich,2021.2.3,59.98379237939866,
122.0,122.75,18,0.75,Stimuli/P007/sun_borgfidyubrwsuuw.jpg,0,0,0.0,0,206,206,206,,,,,,,,,,,,,122.02322539999932,0.023225399999319052,None,164.2560636999997,164.2560636999997,164.2560636999997,164.2560636999997,164.2560636999997,164.2560636999997,164.2560636999997,164.2560636999997,164.2560636999997,164.2560636999997,,005,P007,2025_Feb_01_1004,ConditionRich,2021.2.3,59.98379237939866,
122.75,123.0,41,0.0,Stimuli/Blank.png,0,0,0.0,0,207,207,207,,,,,,,,,,,,,122.75725789999979,0.007257899999785877,None,164.99011679999967,164.99011679999967,164.99011679999967,164.99011679999967,164.99011679999967,164.99011679999967,164.99011679999967,164.99011679999967,164.99011679999967,164.99011679999967,,005,P007,2025_Feb_01_1004,ConditionRich,2021.2.3,59.98379237939866,
123.0,123.75,18,0.75,Stimuli/P007/sun_borgfidyubrwsuuw.jpg,0,0,0.0,0,208,208,208,,,,,,,,,,,,,123.0087512,0.008751200000006065,None,165.25694609999937,165.25694609999937,165.25694609999937,165.25694609999937,165.25694609999937,165.25694609999937,165.25694609999937,165.25694609999937,165.25694609999937,165.25694609999937,,005,P007,2025_Feb_01_1004,ConditionRich,2021.2.3,59.98379237939866,
123.75,124.0,41,0.0,Stimuli/Blank.png,0,0,0.0,0,209,209,209,,,,,,,,,,,,,123.77473669999927,0.02473669999926642,None,166.00761929999953,166.00761929999953,166.00761929999953,166.00761929999953,166.00761929999953,166.00761929999953,166.00761929999953,166.00761929999953,166.00761929999953,166.00761929999953,,005,P007,2025_Feb_01_1004,ConditionRich,2021.2.3,59.98379237939866,
124.0,124.75,23,0.75,Stimuli/P007/things_bumper_04s.jpg,0,0,0.0,0,210,210,210,,,,,,,,,,,,,124.00835889999962,0.008358899999620917,None,166.2411420999997,166.2411420999997,166.2411420999997,166.2411420999997,166.2411420999997,166.2411420999997,166.2411420999997,166.2411420999997,166.2411420999997,166.2411420999997,,005,P007,2025_Feb_01_1004,ConditionRich,2021.2.3,59.98379237939866,
124.75,125.0,41,0.0,Stimuli/Blank.png,0,0,0.0,0,211,211,211,,,,,,,,,,,,,124.7587668999995,0.00876689999950031,None,166.9918201999999,166.9918201999999,166.9918201999999,166.9918201999999,166.9918201999999,166.9918201999999,166.9918201999999,166.9918201999999,166.9918201999999,166.9918201999999,,005,P007,2025_Feb_01_1004,ConditionRich,2021.2.3,59.98379237939866,
125.0,125.75,23,0.75,Stimuli/P007/things_bumper_04s.jpg,0,0,0.0,0,212,212,212,,,,,,,,,,,,,125.00933709999936,0.009337099999356724,None,167.24203669999952,167.24203669999952,167.24203669999952,167.24203669999952,167.24203669999952,167.24203669999952,167.24203669999952,167.24203669999952,167.24203669999952,167.24203669999952,,005,P007,2025_Feb_01_1004,ConditionRich,2021.2.3,59.98379237939866,
125.75,126.0,41,0.0,Stimuli/Blank.png,0,0,0.0,0,213,213,213,,,,,,,,,,,,,125.75919159999921,0.009191599999212485,None,167.99269389999972,167.99269389999972,167.99269389999972,167.99269389999972,167.99269389999972,167.99269389999972,167.99269389999972,167.99269389999972,167.99269389999972,167.99269389999972,,005,P007,2025_Feb_01_1004,ConditionRich,2021.2.3,59.98379237939866,
126.0,126.75,23,0.75,Stimuli/P007/things_bumper_04s.jpg,0,0,0.0,0,214,214,214,,,,,,,,,,,,,126.00930319999952,0.009303199999521894,None,168.24292069999956,168.24292069999956,168.24292069999956,168.24292069999956,168.24292069999956,168.24292069999956,168.24292069999956,168.24292069999956,168.24292069999956,168.24292069999956,,005,P007,2025_Feb_01_1004,ConditionRich,2021.2.3,59.98379237939866,
126.75,127.0,41,0.0,Stimuli/Blank.png,0,0,0.0,0,215,215,215,,,,,,,,,,,,,126.76043899999968,0.010438999999678344,None,168.9935814999999,168.9935814999999,168.9935814999999,168.9935814999999,168.9935814999999,168.9935814999999,168.9935814999999,168.9935814999999,168.9935814999999,168.9935814999999,,005,P007,2025_Feb_01_1004,ConditionRich,2021.2.3,59.98379237939866,
127.0,127.75,23,0.75,Stimuli/P007/things_bumper_04s.jpg,0,0,0.0,0,216,216,216,,,,,,,,,,,,,127.01019019999967,0.010190199999669858,None,169.24380179999935,169.24380179999935,169.24380179999935,169.24380179999935,169.24380179999935,169.24380179999935,169.24380179999935,169.24380179999935,169.24380179999935,169.24380179999935,,005,P007,2025_Feb_01_1004,ConditionRich,2021.2.3,59.98379237939866,
127.75,128.0,41,0.0,Stimuli/Blank.png,0,0,0.0,0,217,217,217,,,,,,,,,,,,,127.76074829999925,0.010748299999249866,None,169.99446679999983,169.99446679999983,169.99446679999983,169.99446679999983,169.99446679999983,169.99446679999983,169.99446679999983,169.99446679999983,169.99446679999983,169.99446679999983,,005,P007,2025_Feb_01_1004,ConditionRich,2021.2.3,59.98379237939866,
128.0,128.75,25,0.75,Stimuli/P007/things_credit_card_04s.jpg,0,0,0.0,0,218,218,218,,,,,,,,,,,,,128.0143438999994,0.01434389999940322,None,170.26137159999962,170.26137159999962,170.26137159999962,170.26137159999962,170.26137159999962,170.26137159999962,170.26137159999962,170.26137159999962,170.26137159999962,170.26137159999962,,005,P007,2025_Feb_01_1004,ConditionRich,2021.2.3,59.98379237939866,
128.75,129.0,41,0.0,Stimuli/Blank.png,0,0,0.0,0,219,219,219,,,,,,,,,,,,,128.77957419999984,0.029574199999842676,None,171.01205750000008,171.01205750000008,171.01205750000008,171.01205750000008,171.01205750000008,171.01205750000008,171.01205750000008,171.01205750000008,171.01205750000008,171.01205750000008,,005,P007,2025_Feb_01_1004,ConditionRich,2021.2.3,59.98379237939866,
129.0,129.75,25,0.75,Stimuli/P007/things_credit_card_04s.jpg,0,0,0.0,0,220,220,220,,,,,,,,,,,,,129.01484059999984,0.014840599999843107,None,171.26226899999983,171.26226899999983,171.26226899999983,171.26226899999983,171.26226899999983,171.26226899999983,171.26226899999983,171.26226899999983,171.26226899999983,171.26226899999983,,005,P007,2025_Feb_01_1004,ConditionRich,2021.2.3,59.98379237939866,
129.75,130.0,41,0.0,Stimuli/Blank.png,0,0,0.0,0,221,221,221,,,,,,,,,,,,,129.77941499999997,0.02941499999997177,None,172.0129133999999,172.0129133999999,172.0129133999999,172.0129133999999,172.0129133999999,172.0129133999999,172.0129133999999,172.0129133999999,172.0129133999999,172.0129133999999,,005,P007,2025_Feb_01_1004,ConditionRich,2021.2.3,59.98379237939866,
130.0,130.75,25,0.75,Stimuli/P007/things_credit_card_04s.jpg,0,0,0.0,0,222,222,222,,,,,,,,,,,,,130.01365889999943,0.013658899999427376,None,172.2464818999997,172.2464818999997,172.2464818999997,172.2464818999997,172.2464818999997,172.2464818999997,172.2464818999997,172.2464818999997,172.2464818999997,172.2464818999997,,005,P007,2025_Feb_01_1004,ConditionRich,2021.2.3,59.98379237939866,
130.75,131.0,41,0.0,Stimuli/Blank.png,0,0,0.0,0,223,223,223,,,,,,,,,,,,,130.7649733999997,0.014973399999689718,None,173.01382119999926,173.01382119999926,173.01382119999926,173.01382119999926,173.01382119999926,173.01382119999926,173.01382119999926,173.01382119999926,173.01382119999926,173.01382119999926,,005,P007,2025_Feb_01_1004,ConditionRich,2021.2.3,59.98379237939866,
131.0,131.75,25,0.75,Stimuli/P007/things_credit_card_04s.jpg,0,0,0.0,0,224,224,224,,,,,,,,,,,,,131.0305086999997,0.030508699999700184,None,173.26402309999958,173.26402309999958,173.26402309999958,173.26402309999958,173.26402309999958,173.26402309999958,173.26402309999958,173.26402309999958,173.26402309999958,173.26402309999958,,005,P007,2025_Feb_01_1004,ConditionRich,2021.2.3,59.98379237939866,
131.75,132.0,41,0.0,Stimuli/Blank.png,0,0,0.0,0,225,225,225,,,,,,,,,,,,,131.76523610000004,0.015236100000038277,None,173.99801399999978,173.99801399999978,173.99801399999978,173.99801399999978,173.99801399999978,173.99801399999978,173.99801399999978,173.99801399999978,173.99801399999978,173.99801399999978,,005,P007,2025_Feb_01_1004,ConditionRich,2021.2.3,59.98379237939866,
132.0,132.75,7,0.75,Stimuli/P007/sun_babhwrqvnhanonuy.jpg,0,0,0.0,0,226,226,226,,,,,,,,,,,,,132.01467969999976,0.014679699999760487,None,174.24822479999966,174.24822479999966,174.24822479999966,174.24822479999966,174.24822479999966,174.24822479999966,174.24822479999966,174.24822479999966,174.24822479999966,174.24822479999966,,005,P007,2025_Feb_01_1004,ConditionRich,2021.2.3,59.98379237939866,
132.75,133.0,41,0.0,Stimuli/Blank.png,0,0,0.0,0,227,227,227,,,,,,,,,,,,,132.76605699999982,0.0160569999998188,None,174.99890090000008,174.99890090000008,174.99890090000008,174.99890090000008,174.99890090000008,174.99890090000008,174.99890090000008,174.99890090000008,174.99890090000008,174.99890090000008,,005,P007,2025_Feb_01_1004,ConditionRich,2021.2.3,59.98379237939866,
133.0,133.75,7,0.75,Stimuli/P007/sun_babhwrqvnhanonuy.jpg,0,0,0.0,0,228,228,228,,,,,,,,,,,,,132.9988217,-0.001178299999992305,None,175.23244149999937,175.23244149999937,175.23244149999937,175.23244149999937,175.23244149999937,175.23244149999937,175.23244149999937,175.23244149999937,175.23244149999937,175.23244149999937,,005,P007,2025_Feb_01_1004,ConditionRich,2021.2.3,59.98379237939866,
133.75,134.0,41,0.0,Stimuli/Blank.png,0,0,0.0,0,229,229,229,,,,,,,,,,,,,133.74957819999963,-0.00042180000036751153,None,175.98310020000008,175.98310020000008,175.98310020000008,175.98310020000008,175.98310020000008,175.98310020000008,175.98310020000008,175.98310020000008,175.98310020000008,175.98310020000008,,005,P007,2025_Feb_01_1004,ConditionRich,2021.2.3,59.98379237939866,
134.0,134.75,7,0.75,Stimuli/P007/sun_babhwrqvnhanonuy.jpg,0,0,0.0,0,230,230,230,,,,,,,,,,,,,134.00003729999935,3.729999934876105e-05,None,176.2333134999999,176.2333134999999,176.2333134999999,176.2333134999999,176.2333134999999,176.2333134999999,176.2333134999999,176.2333134999999,176.2333134999999,176.2333134999999,,005,P007,2025_Feb_01_1004,ConditionRich,2021.2.3,59.98379237939866,
134.75,135.0,41,0.0,Stimuli/Blank.png,0,0,0.0,0,231,231,231,,,,,,,,,,,,,134.7510339999999,0.0010339999998905114,None,176.98397829999976,176.98397829999976,176.98397829999976,176.98397829999976,176.98397829999976,176.98397829999976,176.98397829999976,176.98397829999976,176.98397829999976,176.98397829999976,,005,P007,2025_Feb_01_1004,ConditionRich,2021.2.3,59.98379237939866,
135.0,135.75,7,0.75,Stimuli/P007/sun_babhwrqvnhanonuy.jpg,0,0,0.0,0,232,232,232,,,,,,,,,,,,,135.0012113999992,0.0012113999991925084,None,177.23421039999994,177.23421039999994,177.23421039999994,177.23421039999994,177.23421039999994,177.23421039999994,177.23421039999994,177.23421039999994,177.23421039999994,177.23421039999994,,005,P007,2025_Feb_01_1004,ConditionRich,2021.2.3,59.98379237939866,
135.75,136.0,41,0.0,Stimuli/Blank.png,0,0,0.0,0,233,233,233,,,,,,,,,,,,,135.75439879999976,0.004398799999762559,None,178.0015843000001,178.0015843000001,178.0015843000001,178.0015843000001,178.0015843000001,178.0015843000001,178.0015843000001,178.0015843000001,178.0015843000001,178.0015843000001,,005,P007,2025_Feb_01_1004,ConditionRich,2021.2.3,59.98379237939866,
136.0,136.75,22,0.75,Stimuli/P007/things_boar_04s.jpg,0,0,0.0,0,234,234,234,,,,,,,,,,,,,136.01892489999955,0.01892489999954705,None,178.26844989999972,178.26844989999972,178.26844989999972,178.26844989999972,178.26844989999972,178.26844989999972,178.26844989999972,178.26844989999972,178.26844989999972,178.26844989999972,,005,P007,2025_Feb_01_1004,ConditionRich,2021.2.3,59.98379237939866,
136.75,137.0,41,0.0,Stimuli/Blank.png,0,0,0.0,0,235,235,235,,,,,,,,,,,,,136.7695281999995,0.019528199999513163,None,179.00244239999938,179.00244239999938,179.00244239999938,179.00244239999938,179.00244239999938,179.00244239999938,179.00244239999938,179.00244239999938,179.00244239999938,179.00244239999938,,005,P007,2025_Feb_01_1004,ConditionRich,2021.2.3,59.98379237939866,
137.0,137.75,22,0.75,Stimuli/P007/things_boar_04s.jpg,0,0,0.0,0,236,236,236,,,,,,,,,,,,,137.0052326999994,0.005232699999396573,None,179.2526640999995,179.2526640999995,179.2526640999995,179.2526640999995,179.2526640999995,179.2526640999995,179.2526640999995,179.2526640999995,179.2526640999995,179.2526640999995,,005,P007,2025_Feb_01_1004,ConditionRich,2021.2.3,59.98379237939866,
137.75,138.0,41,0.0,Stimuli/Blank.png,0,0,0.0,0,237,237,237,,,,,,,,,,,,,137.76993709999988,0.019937099999879138,None,180.00332159999925,180.00332159999925,180.00332159999925,180.00332159999925,180.00332159999925,180.00332159999925,180.00332159999925,180.00332159999925,180.00332159999925,180.00332159999925,,005,P007,2025_Feb_01_1004,ConditionRich,2021.2.3,59.98379237939866,
138.0,138.75,22,0.75,Stimuli/P007/things_boar_04s.jpg,0,0,0.0,0,238,238,238,,,,,,,,,,,,,138.00318999999945,0.0031899999994493555,None,180.23686649999945,180.23686649999945,180.23686649999945,180.23686649999945,180.23686649999945,180.23686649999945,180.23686649999945,180.23686649999945,180.23686649999945,180.23686649999945,,005,P007,2025_Feb_01_1004,ConditionRich,2021.2.3,59.98379237939866,
138.75,139.0,41,0.0,Stimuli/Blank.png,0,0,0.0,0,239,239,239,,,,,,,,,,,,,138.75456249999934,0.004562499999337888,None,180.98752179999974,180.98752179999974,180.98752179999974,180.98752179999974,180.98752179999974,180.98752179999974,180.98752179999974,180.98752179999974,180.98752179999974,180.98752179999974,,005,P007,2025_Feb_01_1004,ConditionRich,2021.2.3,59.98379237939866,
139.0,139.75,22,0.75,Stimuli/P007/things_boar_04s.jpg,0,0,0.0,0,240,240,240,,,,,,,,,,,,,139.00488469999982,0.004884699999820441,None,181.2544515999998,181.2544515999998,181.2544515999998,181.2544515999998,181.2544515999998,181.2544515999998,181.2544515999998,181.2544515999998,181.2544515999998,181.2544515999998,,005,P007,2025_Feb_01_1004,ConditionRich,2021.2.3,59.98379237939866,
139.75,140.0,41,0.0,Stimuli/Blank.png,0,0,0.0,0,241,241,241,,,,,,,,,,,,,139.77414640000006,0.024146400000063295,None,182.02177179999944,182.02177179999944,182.02177179999944,182.02177179999944,182.02177179999944,182.02177179999944,182.02177179999944,182.02177179999944,182.02177179999944,182.02177179999944,,005,P007,2025_Feb_01_1004,ConditionRich,2021.2.3,59.98379237939866,
140.0,140.75,38,0.75,Stimuli/P007/things_rollerblade_04s.jpg,0,0,0.0,0,242,242,242,,,,,,,,,,,,,140.02407309999944,0.024073099999441183,None,182.2719903999996,182.2719903999996,182.2719903999996,182.2719903999996,182.2719903999996,182.2719903999996,182.2719903999996,182.2719903999996,182.2719903999996,182.2719903999996,,005,P007,2025_Feb_01_1004,ConditionRich,2021.2.3,59.98379237939866,
140.75,141.0,41,0.0,Stimuli/Blank.png,0,0,0.0,0,243,243,243,,,,,,,,,,,,,140.77361130000008,0.023611300000084157,None,183.0061784999998,183.0061784999998,183.0061784999998,183.0061784999998,183.0061784999998,183.0061784999998,183.0061784999998,183.0061784999998,183.0061784999998,183.0061784999998,,005,P007,2025_Feb_01_1004,ConditionRich,2021.2.3,59.98379237939866,
141.0,141.75,38,0.75,Stimuli/P007/things_rollerblade_04s.jpg,0,0,0.0,0,244,244,244,,,,,,,,,,,,,141.00648569999976,0.006485699999757344,None,183.2562012999997,183.2562012999997,183.2562012999997,183.2562012999997,183.2562012999997,183.2562012999997,183.2562012999997,183.2562012999997,183.2562012999997,183.2562012999997,,005,P007,2025_Feb_01_1004,ConditionRich,2021.2.3,59.98379237939866,
141.75,142.0,41,0.0,Stimuli/Blank.png,0,0,0.0,0,245,245,245,,,,,,,,,,,,,141.77337119999993,0.02337119999992865,None,184.00686529999984,184.00686529999984,184.00686529999984,184.00686529999984,184.00686529999984,184.00686529999984,184.00686529999984,184.00686529999984,184.00686529999984,184.00686529999984,,005,P007,2025_Feb_01_1004,ConditionRich,2021.2.3,59.98379237939866,
142.0,142.75,38,0.75,Stimuli/P007/things_rollerblade_04s.jpg,0,0,0.0,0,246,246,246,,,,,,,,,,,,,142.0071051999994,0.0071051999993869686,None,184.25709559999996,184.25709559999996,184.25709559999996,184.25709559999996,184.25709559999996,184.25709559999996,184.25709559999996,184.25709559999996,184.25709559999996,184.25709559999996,,005,P007,2025_Feb_01_1004,ConditionRich,2021.2.3,59.98379237939866,
142.75,143.0,41,0.0,Stimuli/Blank.png,0,0,0.0,0,247,247,247,,,,,,,,,,,,,142.77473459999965,0.02473459999964689,None,185.00774319999982,185.00774319999982,185.00774319999982,185.00774319999982,185.00774319999982,185.00774319999982,185.00774319999982,185.00774319999982,185.00774319999982,185.00774319999982,,005,P007,2025_Feb_01_1004,ConditionRich,2021.2.3,59.98379237939866,
143.0,143.75,38,0.75,Stimuli/P007/things_rollerblade_04s.jpg,0,0,0.0,0,248,248,248,,,,,,,,,,,,,143.00838229999954,0.0083822999995391,None,185.2412848999993,185.2412848999993,185.2412848999993,185.2412848999993,185.2412848999993,185.2412848999993,185.2412848999993,185.2412848999993,185.2412848999993,185.2412848999993,,005,P007,2025_Feb_01_1004,ConditionRich,2021.2.3,59.98379237939866,
143.75,144.0,41,0.0,Stimuli/Blank.png,0,0,0.0,0,249,249,249,,,,,,,,,,,,,143.75889800000004,0.008898000000044703,None,185.99195679999957,185.99195679999957,185.99195679999957,185.99195679999957,185.99195679999957,185.99195679999957,185.99195679999957,185.99195679999957,185.99195679999957,185.99195679999957,,005,P007,2025_Feb_01_1004,ConditionRich,2021.2.3,59.98379237939866,
144.0,144.75,36,0.75,Stimuli/P007/things_platypus_04s.jpg,0,0,0.0,0,250,250,250,,,,,,,,,,,,,144.0085669,0.008566900000005262,None,186.2421690000001,186.2421690000001,186.2421690000001,186.2421690000001,186.2421690000001,186.2421690000001,186.2421690000001,186.2421690000001,186.2421690000001,186.2421690000001,,005,P007,2025_Feb_01_1004,ConditionRich,2021.2.3,59.98379237939866,
144.75,145.0,41,0.0,Stimuli/Blank.png,0,0,0.0,0,251,251,251,,,,,,,,,,,,,144.7593221999996,0.00932219999958761,None,186.9928448999999,186.9928448999999,186.9928448999999,186.9928448999999,186.9928448999999,186.9928448999999,186.9928448999999,186.9928448999999,186.9928448999999,186.9928448999999,,005,P007,2025_Feb_01_1004,ConditionRich,2021.2.3,59.98379237939866,
145.0,145.75,36,0.75,Stimuli/P007/things_platypus_04s.jpg,0,0,0.0,0,252,252,252,,,,,,,,,,,,,145.00938629999928,0.00938629999927798,None,187.24305209999966,187.24305209999966,187.24305209999966,187.24305209999966,187.24305209999966,187.24305209999966,187.24305209999966,187.24305209999966,187.24305209999966,187.24305209999966,,005,P007,2025_Feb_01_1004,ConditionRich,2021.2.3,59.98379237939866,
145.75,146.0,41,0.0,Stimuli/Blank.png,0,0,0.0,0,253,253,253,,,,,,,,,,,,,145.76019209999959,0.01019209999958548,None,187.99371530000008,187.99371530000008,187.99371530000008,187.99371530000008,187.99371530000008,187.99371530000008,187.99371530000008,187.99371530000008,187.99371530000008,187.99371530000008,,005,P007,2025_Feb_01_1004,ConditionRich,2021.2.3,59.98379237939866,
146.0,146.75,36,0.75,Stimuli/P007/things_platypus_04s.jpg,1,0,0.75,0,254,254,254,,,,,,,,,,,,,146.01116169999932,0.011161699999320263,2,188.26063720000002,188.26063720000002,188.26063720000002,188.26063720000002,188.26063720000002,188.26063720000002,188.26063720000002,188.97798169999987,188.26063720000002,188.26063720000002,0.3797576000006302,005,P007,2025_Feb_01_1004,ConditionRich,2021.2.3,59.98379237939866,
146.75,147.0,41,0.0,Stimuli/Blank.png,0,0,0.0,0,255,255,255,,,,,,,,,,,,,146.7784746999996,0.028474699999605946,None,189.01128900000003,189.01128900000003,189.01128900000003,189.01128900000003,189.01128900000003,189.01128900000003,189.01128900000003,189.01128900000003,189.01128900000003,189.01128900000003,,005,P007,2025_Feb_01_1004,ConditionRich,2021.2.3,59.98379237939866,
147.0,147.75,36,0.75,Stimuli/P007/things_platypus_04s.jpg,0,0,0.0,0,256,256,256,,,,,,,,,,,,,147.01416189999964,0.014161899999635352,None,189.26150869999947,189.26150869999947,189.26150869999947,189.26150869999947,189.26150869999947,189.26150869999947,189.26150869999947,189.26150869999947,189.26150869999947,189.26150869999947,,005,P007,2025_Feb_01_1004,ConditionRich,2021.2.3,59.98379237939866,
147.75,148.0,41,0.0,Stimuli/Blank.png,0,0,0.0,0,257,257,257,,,,,,,,,,,,,147.77918229999977,0.02918229999977484,None,190.01217819999965,190.01217819999965,190.01217819999965,190.01217819999965,190.01217819999965,190.01217819999965,190.01217819999965,190.01217819999965,190.01217819999965,190.01217819999965,,005,P007,2025_Feb_01_1004,ConditionRich,2021.2.3,59.98379237939866,
148.0,148.75,8,0.75,Stimuli/P007/sun_bbnepvzvycqjjczs.jpg,0,0,0.0,0,258,258,258,,,,,,,,,,,,,148.01279259999956,0.012792599999556842,None,190.24571019999985,190.24571019999985,190.24571019999985,190.24571019999985,190.24571019999985,190.24571019999985,190.24571019999985,190.24571019999985,190.24571019999985,190.24571019999985,,005,P007,2025_Feb_01_1004,ConditionRich,2021.2.3,59.98379237939866,
148.75,149.0,41,0.0,Stimuli/Blank.png,0,0,0.0,0,259,259,259,,,,,,,,,,,,,148.76354639999954,0.013546399999540881,None,190.99638229999982,190.99638229999982,190.99638229999982,190.99638229999982,190.99638229999982,190.99638229999982,190.99638229999982,190.99638229999982,190.99638229999982,190.99638229999982,,005,P007,2025_Feb_01_1004,ConditionRich,2021.2.3,59.98379237939866,
149.0,149.75,8,0.75,Stimuli/P007/sun_bbnepvzvycqjjczs.jpg,0,0,0.0,0,260,260,260,,,,,,,,,,,,,149.01375179999923,0.013751799999226932,None,191.26327749999928,191.26327749999928,191.26327749999928,191.26327749999928,191.26327749999928,191.26327749999928,191.26327749999928,191.26327749999928,191.26327749999928,191.26327749999928,,005,P007,2025_Feb_01_1004,ConditionRich,2021.2.3,59.98379237939866,
149.75,150.0,41,0.0,Stimuli/Blank.png,0,0,0.0,0,261,261,261,,,,,,,,,,,,,149.78139769999962,0.031397699999615725,None,192.0140223999997,192.0140223999997,192.0140223999997,192.0140223999997,192.0140223999997,192.0140223999997,192.0140223999997,192.0140223999997,192.0140223999997,192.0140223999997,,005,P007,2025_Feb_01_1004,ConditionRich,2021.2.3,59.98379237939866,
