eventStartTime,eventEndTime,eventCond,imSize,imFile,responseEvent,fixRespStart,fixRespEnd,Events.thisRepN,Events.thisTrialN,Events.thisN,Events.thisIndex,Instructions.started,Instructions.stopped,participantReadyResponse.keys,participantReadyResponse.rt,participantReadyResponse.started,participantReadyResponse.stopped,startWaitforTrigger,triggerResponse.keys,triggerResponse.rt,triggerResponse.started,triggerResponse.stopped,globalTimer,actualStartTime,startTimingDiff,participantResponse.keys,participantResponse.started,participantResponse.stopped,image.started,image.stopped,fixationOutside.started,fixationOutside.stopped,fixationResponse.started,fixationResponse.stopped,fixationInside.started,fixationInside.stopped,participantResponse.rt,session,participant,date,expName,psychopyVersion,frameRate,
,,,,,,,,,,,,11.266532500000267,None,2,9.216008200000033,11.266532500000267,None,,,,,,,,,,,,,,,,,,,,,003,P007,2025_Feb_01_0943,ConditionRich,2021.2.3,59.95671125443363,
,,,,,,,,,,,,,,,,,,20.489794700000402,5,15.495385400000487,20.502174100000502,None,,,,,,,,,,,,,,,,003,P007,2025_Feb_01_0943,ConditionRich,2021.2.3,59.95671125443363,
0.0,4.0,0,0.0,Stimuli/Blank.png,0,0,0.0,0,0,0,0,,,,,,,,,,,,36.00275019999981,0.03684550000070885,0.03684550000070885,None,36.06591030000027,None,36.06591030000027,None,36.06591030000027,None,36.06591030000027,36.06591030000027,36.06591030000027,None,,003,P007,2025_Feb_01_0943,ConditionRich,2021.2.3,59.95671125443363,
4.0,7.75,37,0.75,Stimuli/P007/things_praying_mantis_04s.jpg,0,0,0.0,0,1,1,1,,,,,,,,,,,,,4.0192884000007325,0.01928840000073251,None,40.05307980000043,40.05307980000043,40.05307980000043,40.05307980000043,40.05307980000043,40.05307980000043,40.05307980000043,40.05307980000043,40.05307980000043,40.05307980000043,,003,P007,2025_Feb_01_0943,ConditionRich,2021.2.3,59.95671125443363,
7.75,8.0,41,0.0,Stimuli/Blank.png,0,0,0.0,0,2,2,2,,,,,,,,,,,,,7.772446599999967,0.022446599999966566,None,43.789963499999885,43.789963499999885,43.789963499999885,43.789963499999885,43.789963499999885,43.789963499999885,43.789963499999885,43.789963499999885,43.789963499999885,43.789963499999885,,003,P007,2025_Feb_01_0943,ConditionRich,2021.2.3,59.95671125443363,
8.0,11.75,31,0.75,Stimuli/P007/things_jug_04s.jpg,0,0,0.0,0,3,3,3,,,,,,,,,,,,,8.006705600000714,0.006705600000714185,None,44.039644599999974,44.039644599999974,44.039644599999974,44.039644599999974,44.039644599999974,44.039644599999974,44.039644599999974,44.039644599999974,44.039644599999974,44.039644599999974,,003,P007,2025_Feb_01_0943,ConditionRich,2021.2.3,59.95671125443363,
11.75,12.0,41,0.0,Stimuli/Blank.png,0,0,0.0,0,4,4,4,,,,,,,,,,,,,11.775545600000441,0.025545600000441482,None,47.792912200000046,47.792912200000046,47.792912200000046,47.792912200000046,47.792912200000046,47.792912200000046,47.792912200000046,47.792912200000046,47.792912200000046,47.792912200000046,,003,P007,2025_Feb_01_0943,ConditionRich,2021.2.3,59.95671125443363,
12.0,15.75,38,0.75,Stimuli/P007/things_rollerblade_04s.jpg,1,1,1.75,0,5,5,5,,,,,,,,,,,,,12.009697400000732,0.00969740000073216,2,48.04315799999995,48.04315799999995,48.04315799999995,48.04315799999995,48.04315799999995,48.04315799999995,49.0106923999997,49.76135420000037,48.04315799999995,48.04315799999995,1.4263355000002775,003,P007,2025_Feb_01_0943,ConditionRich,2021.2.3,59.95671125443363,
15.75,16.0,41,0.0,Stimuli/Blank.png,0,0,0.0,0,6,6,6,,,,,,,,,,,,,15.781443500000023,0.03144350000002305,None,51.81314900000007,51.81314900000007,51.81314900000007,51.81314900000007,51.81314900000007,51.81314900000007,51.81314900000007,51.81314900000007,51.81314900000007,51.81314900000007,,003,P007,2025_Feb_01_0943,ConditionRich,2021.2.3,59.95671125443363,
16.0,19.75,13,0.75,Stimuli/P007/sun_bkhuvtsqontzwtbo.jpg,0,0,0.0,0,7,7,7,,,,,,,,,,,,,16.03226310000082,0.03226310000081867,None,52.06337730000041,52.06337730000041,52.06337730000041,52.06337730000041,52.06337730000041,52.06337730000041,52.06337730000041,52.06337730000041,52.06337730000041,52.06337730000041,,003,P007,2025_Feb_01_0943,ConditionRich,2021.2.3,59.95671125443363,
19.75,20.0,41,0.0,Stimuli/Blank.png,0,0,0.0,0,8,8,8,,,,,,,,,,,,,19.767498700000033,0.01749870000003284,None,55.78335519999973,55.78335519999973,55.78335519999973,55.78335519999973,55.78335519999973,55.78335519999973,55.78335519999973,55.78335519999973,55.78335519999973,55.78335519999973,,003,P007,2025_Feb_01_0943,ConditionRich,2021.2.3,59.95671125443363,
20.0,23.75,23,0.75,Stimuli/P007/things_bumper_04s.jpg,0,0,0.0,0,9,9,9,,,,,,,,,,,,,20.000110700000732,0.00011070000073232222,None,56.01684830000022,56.01684830000022,56.01684830000022,56.01684830000022,56.01684830000022,56.01684830000022,56.01684830000022,56.01684830000022,56.01684830000022,56.01684830000022,,003,P007,2025_Feb_01_0943,ConditionRich,2021.2.3,59.95671125443363,
23.75,24.0,41,0.0,Stimuli/Blank.png,0,0,0.0,0,10,10,10,,,,,,,,,,,,,23.753497000000607,0.0034970000006069313,None,59.770203200000196,59.770203200000196,59.770203200000196,59.770203200000196,59.770203200000196,59.770203200000196,59.770203200000196,59.770203200000196,59.770203200000196,59.770203200000196,,003,P007,2025_Feb_01_0943,ConditionRich,2021.2.3,59.95671125443363,
24.0,27.75,14,0.75,Stimuli/P007/sun_bkvjqgmploznrhxt.jpg,0,0,0.0,0,11,11,11,,,,,,,,,,,,,24.00353880000057,0.0035388000005696085,None,60.02038279999988,60.02038279999988,60.02038279999988,60.02038279999988,60.02038279999988,60.02038279999988,60.02038279999988,60.02038279999988,60.02038279999988,60.02038279999988,,003,P007,2025_Feb_01_0943,ConditionRich,2021.2.3,59.95671125443363,
27.75,28.0,41,0.0,Stimuli/Blank.png,0,0,0.0,0,12,12,12,,,,,,,,,,,,,27.75755190000018,0.007551900000180467,None,63.79044339999973,63.79044339999973,63.79044339999973,63.79044339999973,63.79044339999973,63.79044339999973,63.79044339999973,63.79044339999973,63.79044339999973,63.79044339999973,,003,P007,2025_Feb_01_0943,ConditionRich,2021.2.3,59.95671125443363,
28.0,31.75,24,0.75,Stimuli/P007/things_collar_04s.jpg,1,0,0.75,0,13,13,13,,,,,,,,,,,,,28.023712700000033,0.023712700000032783,2,64.05734929999971,64.05734929999971,64.05734929999971,64.05734929999971,64.05734929999971,64.05734929999971,64.05734929999971,64.77474180000036,64.05734929999971,64.05734929999971,0.4531435999997484,003,P007,2025_Feb_01_0943,ConditionRich,2021.2.3,59.95671125443363,
31.75,32.0,41,0.0,Stimuli/Blank.png,0,0,0.0,0,14,14,14,,,,,,,,,,,,,31.777037300000302,0.02703730000030191,None,67.79396250000036,67.79396250000036,67.79396250000036,67.79396250000036,67.79396250000036,67.79396250000036,67.79396250000036,67.79396250000036,67.79396250000036,67.79396250000036,,003,P007,2025_Feb_01_0943,ConditionRich,2021.2.3,59.95671125443363,
32.0,35.75,18,0.75,Stimuli/P007/sun_borgfidyubrwsuuw.jpg,0,0,0.0,0,15,15,15,,,,,,,,,,,,,32.01011530000051,0.010115300000506977,None,68.0274970000005,68.0274970000005,68.0274970000005,68.0274970000005,68.0274970000005,68.0274970000005,68.0274970000005,68.0274970000005,68.0274970000005,68.0274970000005,,003,P007,2025_Feb_01_0943,ConditionRich,2021.2.3,59.95671125443363,
35.75,36.0,41,0.0,Stimuli/Blank.png,0,0,0.0,0,16,16,16,,,,,,,,,,,,,35.76435610000044,0.014356100000441074,None,71.78086140000005,71.78086140000005,71.78086140000005,71.78086140000005,71.78086140000005,71.78086140000005,71.78086140000005,71.78086140000005,71.78086140000005,71.78086140000005,,003,P007,2025_Feb_01_0943,ConditionRich,2021.2.3,59.95671125443363,
36.0,39.75,29,0.75,Stimuli/P007/things_hawk_04s.jpg,0,0,0.0,0,17,17,17,,,,,,,,,,,,,36.01735540000027,0.017355400000269583,None,72.04769600000009,72.04769600000009,72.04769600000009,72.04769600000009,72.04769600000009,72.04769600000009,72.04769600000009,72.04769600000009,72.04769600000009,72.04769600000009,,003,P007,2025_Feb_01_0943,ConditionRich,2021.2.3,59.95671125443363,
39.75,40.0,41,0.0,Stimuli/Blank.png,0,0,0.0,0,18,18,18,,,,,,,,,,,,,39.76758390000032,0.017583900000317954,None,75.78436590000047,75.78436590000047,75.78436590000047,75.78436590000047,75.78436590000047,75.78436590000047,75.78436590000047,75.78436590000047,75.78436590000047,75.78436590000047,,003,P007,2025_Feb_01_0943,ConditionRich,2021.2.3,59.95671125443363,
40.0,43.75,22,0.75,Stimuli/P007/things_boar_04s.jpg,0,0,0.0,0,19,19,19,,,,,,,,,,,,,40.00122180000017,0.001221800000166695,None,76.01790879999999,76.01790879999999,76.01790879999999,76.01790879999999,76.01790879999999,76.01790879999999,76.01790879999999,76.01790879999999,76.01790879999999,76.01790879999999,,003,P007,2025_Feb_01_0943,ConditionRich,2021.2.3,59.95671125443363,
43.75,44.0,41,0.0,Stimuli/Blank.png,0,0,0.0,0,20,20,20,,,,,,,,,,,,,43.75390530000004,0.003905300000042189,None,79.77131959999997,79.77131959999997,79.77131959999997,79.77131959999997,79.77131959999997,79.77131959999997,79.77131959999997,79.77131959999997,79.77131959999997,79.77131959999997,,003,P007,2025_Feb_01_0943,ConditionRich,2021.2.3,59.95671125443363,
44.0,47.75,15,0.75,Stimuli/P007/sun_bmeductqpfkygtww.jpg,0,0,0.0,0,21,21,21,,,,,,,,,,,,,44.00684189999993,0.006841899999926682,None,80.03813690000015,80.03813690000015,80.03813690000015,80.03813690000015,80.03813690000015,80.03813690000015,80.03813690000015,80.03813690000015,80.03813690000015,80.03813690000015,,003,P007,2025_Feb_01_0943,ConditionRich,2021.2.3,59.95671125443363,
47.75,48.0,41,0.0,Stimuli/Blank.png,0,0,0.0,0,22,22,22,,,,,,,,,,,,,47.77404190000016,0.024041900000156602,None,83.79149590000043,83.79149590000043,83.79149590000043,83.79149590000043,83.79149590000043,83.79149590000043,83.79149590000043,83.79149590000043,83.79149590000043,83.79149590000043,,003,P007,2025_Feb_01_0943,ConditionRich,2021.2.3,59.95671125443363,
48.0,51.75,27,0.75,Stimuli/P007/things_fur_coat_04s.jpg,0,0,0.0,0,23,23,23,,,,,,,,,,,,,48.00775870000052,0.007758700000522367,None,84.02498990000049,84.02498990000049,84.02498990000049,84.02498990000049,84.02498990000049,84.02498990000049,84.02498990000049,84.02498990000049,84.02498990000049,84.02498990000049,,003,P007,2025_Feb_01_0943,ConditionRich,2021.2.3,59.95671125443363,
51.75,52.0,41,0.0,Stimuli/Blank.png,0,0,0.0,0,24,24,24,,,,,,,,,,,,,51.761570000000575,0.01157000000057451,None,87.77832189999981,87.77832189999981,87.77832189999981,87.77832189999981,87.77832189999981,87.77832189999981,87.77832189999981,87.77832189999981,87.77832189999981,87.77832189999981,,003,P007,2025_Feb_01_0943,ConditionRich,2021.2.3,59.95671125443363,
52.0,55.75,2,0.75,Stimuli/P007/sun_ajyzloqaptmicnfr.jpg,0,0,0.0,0,25,25,25,,,,,,,,,,,,,52.011925200000405,0.011925200000405312,None,88.02853150000055,88.02853150000055,88.02853150000055,88.02853150000055,88.02853150000055,88.02853150000055,88.02853150000055,88.02853150000055,88.02853150000055,88.02853150000055,,003,P007,2025_Feb_01_0943,ConditionRich,2021.2.3,59.95671125443363,
55.75,56.0,41,0.0,Stimuli/Blank.png,0,0,0.0,0,26,26,26,,,,,,,,,,,,,55.76737080000021,0.017370800000207964,None,91.79856280000013,91.79856280000013,91.79856280000013,91.79856280000013,91.79856280000013,91.79856280000013,91.79856280000013,91.79856280000013,91.79856280000013,91.79856280000013,,003,P007,2025_Feb_01_0943,ConditionRich,2021.2.3,59.95671125443363,
56.0,59.75,40,0.75,Stimuli/P007/things_woman_04s.jpg,0,0,0.0,0,27,27,27,,,,,,,,,,,,,56.01490720000038,0.014907200000379817,None,92.03207020000036,92.03207020000036,92.03207020000036,92.03207020000036,92.03207020000036,92.03207020000036,92.03207020000036,92.03207020000036,92.03207020000036,92.03207020000036,,003,P007,2025_Feb_01_0943,ConditionRich,2021.2.3,59.95671125443363,
59.75,60.0,41,0.0,Stimuli/Blank.png,0,0,0.0,0,28,28,28,,,,,,,,,,,,,59.75257409999995,0.002574099999947066,None,95.76871100000017,95.76871100000017,95.76871100000017,95.76871100000017,95.76871100000017,95.76871100000017,95.76871100000017,95.76871100000017,95.76871100000017,95.76871100000017,,003,P007,2025_Feb_01_0943,ConditionRich,2021.2.3,59.95671125443363,
60.0,63.75,11,0.75,Stimuli/P007/sun_bdsriuscubkvzrmt.jpg,0,0,0.0,0,29,29,29,,,,,,,,,,,,,60.002077800000734,0.002077800000733987,None,96.01890159999994,96.01890159999994,96.01890159999994,96.01890159999994,96.01890159999994,96.01890159999994,96.01890159999994,96.01890159999994,96.01890159999994,96.01890159999994,,003,P007,2025_Feb_01_0943,ConditionRich,2021.2.3,59.95671125443363,
63.75,64.0,41,0.0,Stimuli/Blank.png,0,0,0.0,0,30,30,30,,,,,,,,,,,,,63.754993900000045,0.00499390000004496,None,99.77225140000019,99.77225140000019,99.77225140000019,99.77225140000019,99.77225140000019,99.77225140000019,99.77225140000019,99.77225140000019,99.77225140000019,99.77225140000019,,003,P007,2025_Feb_01_0943,ConditionRich,2021.2.3,59.95671125443363,
64.0,67.75,8,0.75,Stimuli/P007/sun_bbnepvzvycqjjczs.jpg,1,1,1.75,0,31,31,31,,,,,,,,,,,,,64.00615480000033,0.006154800000331306,2,100.03915160000042,100.03915160000042,100.03915160000042,100.03915160000042,100.03915160000042,100.03915160000042,101.0068127999998,101.75734070000044,100.03915160000042,100.03915160000042,1.3575434000003952,003,P007,2025_Feb_01_0943,ConditionRich,2021.2.3,59.95671125443363,
67.75,68.0,41,0.0,Stimuli/Blank.png,0,0,0.0,0,32,32,32,,,,,,,,,,,,,67.77584350000052,0.02584350000051927,None,103.79248330000019,103.79248330000019,103.79248330000019,103.79248330000019,103.79248330000019,103.79248330000019,103.79248330000019,103.79248330000019,103.79248330000019,103.79248330000019,,003,P007,2025_Feb_01_0943,ConditionRich,2021.2.3,59.95671125443363,
68.0,71.75,33,0.75,Stimuli/P007/things_man_04s.jpg,1,2,2.75,0,33,33,33,,,,,,,,,,,,,68.00955250000061,0.009552500000609143,2,104.02601129999994,104.02601129999994,104.02601129999994,104.02601129999994,104.02601129999994,104.02601129999994,106.0110582000002,106.76179129999991,104.02601129999994,104.02601129999994,2.3185905000000275,003,P007,2025_Feb_01_0943,ConditionRich,2021.2.3,59.95671125443363,
71.75,72.0,41,0.0,Stimuli/Blank.png,0,0,0.0,0,34,34,34,,,,,,,,,,,,,71.76284720000058,0.012847200000578596,None,107.77933059999987,107.77933059999987,107.77933059999987,107.77933059999987,107.77933059999987,107.77933059999987,107.77933059999987,107.77933059999987,107.77933059999987,107.77933059999987,,003,P007,2025_Feb_01_0943,ConditionRich,2021.2.3,59.95671125443363,
72.0,75.75,30,0.75,Stimuli/P007/things_jalapeno_04s.jpg,0,0,0.0,0,35,35,35,,,,,,,,,,,,,72.01278530000036,0.012785300000359712,None,108.04626210000015,108.04626210000015,108.04626210000015,108.04626210000015,108.04626210000015,108.04626210000015,108.04626210000015,108.04626210000015,108.04626210000015,108.04626210000015,,003,P007,2025_Feb_01_0943,ConditionRich,2021.2.3,59.95671125443363,
75.75,76.0,41,0.0,Stimuli/Blank.png,0,0,0.0,0,36,36,36,,,,,,,,,,,,,75.76554510000005,0.015545100000053935,None,111.78285069999993,111.78285069999993,111.78285069999993,111.78285069999993,111.78285069999993,111.78285069999993,111.78285069999993,111.78285069999993,111.78285069999993,111.78285069999993,,003,P007,2025_Feb_01_0943,ConditionRich,2021.2.3,59.95671125443363,
76.0,79.75,9,0.75,Stimuli/P007/sun_bcsqogieozpyvuft.jpg,0,0,0.0,0,37,37,37,,,,,,,,,,,,,76.00178730000061,0.0017873000006147777,None,112.03310389999979,112.03310389999979,112.03310389999979,112.03310389999979,112.03310389999979,112.03310389999979,112.03310389999979,112.03310389999979,112.03310389999979,112.03310389999979,,003,P007,2025_Feb_01_0943,ConditionRich,2021.2.3,59.95671125443363,
79.75,80.0,41,0.0,Stimuli/Blank.png,0,0,0.0,0,38,38,38,,,,,,,,,,,,,79.77002290000019,0.020022900000185473,None,115.78648610000027,115.78648610000027,115.78648610000027,115.78648610000027,115.78648610000027,115.78648610000027,115.78648610000027,115.78648610000027,115.78648610000027,115.78648610000027,,003,P007,2025_Feb_01_0943,ConditionRich,2021.2.3,59.95671125443363,
80.0,83.75,20,0.75,Stimuli/P007/sun_btrxtfbwtggtrpfv.jpg,0,0,0.0,0,39,39,39,,,,,,,,,,,,,80.00320720000036,0.003207200000360899,None,116.01991820000012,116.01991820000012,116.01991820000012,116.01991820000012,116.01991820000012,116.01991820000012,116.01991820000012,116.01991820000012,116.01991820000012,116.01991820000012,,003,P007,2025_Feb_01_0943,ConditionRich,2021.2.3,59.95671125443363,
83.75,84.0,41,0.0,Stimuli/Blank.png,0,0,0.0,0,40,40,40,,,,,,,,,,,,,83.75667500000054,0.006675000000541331,None,119.77328160000025,119.77328160000025,119.77328160000025,119.77328160000025,119.77328160000025,119.77328160000025,119.77328160000025,119.77328160000025,119.77328160000025,119.77328160000025,,003,P007,2025_Feb_01_0943,ConditionRich,2021.2.3,59.95671125443363,
84.0,100.0,0,0.0,Stimuli/Blank.png,1,8,8.75,0,41,41,41,,,,,,,,,,,,,84.00664810000035,0.0066481000003477675,2,120.02349809999987,120.02349809999987,120.02349809999987,120.02349809999987,120.02349809999987,120.02349809999987,128.01388030000044,128.76454880000028,120.02349809999987,120.02349809999987,8.443314699999974,003,P007,2025_Feb_01_0943,ConditionRich,2021.2.3,59.95671125443363,
100.0,103.75,6,0.75,Stimuli/P007/sun_azpjjfwsbjdjcopb.jpg,0,0,0.0,0,42,42,42,,,,,,,,,,,,,100.00391330000002,0.003913300000021991,None,136.03767730000027,136.03767730000027,136.03767730000027,136.03767730000027,136.03767730000027,136.03767730000027,136.03767730000027,136.03767730000027,136.03767730000027,136.03767730000027,,003,P007,2025_Feb_01_0943,ConditionRich,2021.2.3,59.95671125443363,
103.75,104.0,41,0.0,Stimuli/Blank.png,0,0,0.0,0,43,43,43,,,,,,,,,,,,,103.77449990000059,0.02449990000059188,None,139.79099290000022,139.79099290000022,139.79099290000022,139.79099290000022,139.79099290000022,139.79099290000022,139.79099290000022,139.79099290000022,139.79099290000022,139.79099290000022,,003,P007,2025_Feb_01_0943,ConditionRich,2021.2.3,59.95671125443363,
104.0,107.75,12,0.75,Stimuli/P007/sun_bitpmyvulluuasab.jpg,0,0,0.0,0,44,44,44,,,,,,,,,,,,,104.00762940000004,0.007629400000041642,None,140.0244945999998,140.0244945999998,140.0244945999998,140.0244945999998,140.0244945999998,140.0244945999998,140.0244945999998,140.0244945999998,140.0244945999998,140.0244945999998,,003,P007,2025_Feb_01_0943,ConditionRich,2021.2.3,59.95671125443363,
107.75,108.0,41,0.0,Stimuli/Blank.png,0,0,0.0,0,45,45,45,,,,,,,,,,,,,107.76059600000008,0.010596000000077765,None,143.77784240000028,143.77784240000028,143.77784240000028,143.77784240000028,143.77784240000028,143.77784240000028,143.77784240000028,143.77784240000028,143.77784240000028,143.77784240000028,,003,P007,2025_Feb_01_0943,ConditionRich,2021.2.3,59.95671125443363,
108.0,111.75,26,0.75,Stimuli/P007/things_face_04s.jpg,1,1,1.75,0,46,46,46,,,,,,,,,,,,,108.01071260000026,0.010712600000260863,2,144.02805949999993,144.02805949999993,144.02805949999993,144.02805949999993,144.02805949999993,144.02805949999993,145.01227590000008,145.76300480000054,144.02805949999993,144.02805949999993,1.7645178000002488,003,P007,2025_Feb_01_0943,ConditionRich,2021.2.3,59.95671125443363,
111.75,112.0,41,0.0,Stimuli/Blank.png,0,0,0.0,0,47,47,47,,,,,,,,,,,,,111.76481730000069,0.014817300000686373,None,147.78140099999973,147.78140099999973,147.78140099999973,147.78140099999973,147.78140099999973,147.78140099999973,147.78140099999973,147.78140099999973,147.78140099999973,147.78140099999973,,003,P007,2025_Feb_01_0943,ConditionRich,2021.2.3,59.95671125443363,
112.0,115.75,17,0.75,Stimuli/P007/sun_bnsxdhbsafbdyncy.jpg,0,0,0.0,0,48,48,48,,,,,,,,,,,,,112.0150650000005,0.01506500000050437,None,148.03161630000022,148.03161630000022,148.03161630000022,148.03161630000022,148.03161630000022,148.03161630000022,148.03161630000022,148.03161630000022,148.03161630000022,148.03161630000022,,003,P007,2025_Feb_01_0943,ConditionRich,2021.2.3,59.95671125443363,
115.75,116.0,41,0.0,Stimuli/Blank.png,0,0,0.0,0,49,49,49,,,,,,,,,,,,,115.7518770000006,0.001877000000604312,None,151.7682479,151.7682479,151.7682479,151.7682479,151.7682479,151.7682479,151.7682479,151.7682479,151.7682479,151.7682479,,003,P007,2025_Feb_01_0943,ConditionRich,2021.2.3,59.95671125443363,
116.0,119.75,4,0.75,Stimuli/P007/sun_awqukazlzsxaokai.jpg,0,0,0.0,0,50,50,50,,,,,,,,,,,,,116.00231450000047,0.0023145000004660687,None,152.03514959999984,152.03514959999984,152.03514959999984,152.03514959999984,152.03514959999984,152.03514959999984,152.03514959999984,152.03514959999984,152.03514959999984,152.03514959999984,,003,P007,2025_Feb_01_0943,ConditionRich,2021.2.3,59.95671125443363,
119.75,120.0,41,0.0,Stimuli/Blank.png,0,0,0.0,0,51,51,51,,,,,,,,,,,,,119.77206660000047,0.022066600000471226,None,155.78849050000053,155.78849050000053,155.78849050000053,155.78849050000053,155.78849050000053,155.78849050000053,155.78849050000053,155.78849050000053,155.78849050000053,155.78849050000053,,003,P007,2025_Feb_01_0943,ConditionRich,2021.2.3,59.95671125443363,
120.0,123.75,35,0.75,Stimuli/P007/things_pecan_04s.jpg,1,2,2.75,0,52,52,52,,,,,,,,,,,,,120.00667450000037,0.006674500000372063,2,156.03870770000003,156.03870770000003,156.03870770000003,156.03870770000003,156.03870770000003,156.03870770000003,158.02376250000043,158.77447690000054,156.03870770000003,156.03870770000003,2.332818099999713,003,P007,2025_Feb_01_0943,ConditionRich,2021.2.3,59.95671125443363,
123.75,124.0,41,0.0,Stimuli/Blank.png,0,0,0.0,0,53,53,53,,,,,,,,,,,,,123.77768040000046,0.027680400000463123,None,159.8086889000001,159.8086889000001,159.8086889000001,159.8086889000001,159.8086889000001,159.8086889000001,159.8086889000001,159.8086889000001,159.8086889000001,159.8086889000001,,003,P007,2025_Feb_01_0943,ConditionRich,2021.2.3,59.95671125443363,
124.0,127.75,28,0.75,Stimuli/P007/things_girl_04s.jpg,0,0,0.0,0,54,54,54,,,,,,,,,,,,,124.02751260000059,0.027512600000591192,None,160.05891629999996,160.05891629999996,160.05891629999996,160.05891629999996,160.05891629999996,160.05891629999996,160.05891629999996,160.05891629999996,160.05891629999996,160.05891629999996,,003,P007,2025_Feb_01_0943,ConditionRich,2021.2.3,59.95671125443363,
127.75,128.0,41,0.0,Stimuli/Blank.png,0,0,0.0,0,55,55,55,,,,,,,,,,,,,127.77826650000043,0.028266500000427186,None,163.79555180000034,163.79555180000034,163.79555180000034,163.79555180000034,163.79555180000034,163.79555180000034,163.79555180000034,163.79555180000034,163.79555180000034,163.79555180000034,,003,P007,2025_Feb_01_0943,ConditionRich,2021.2.3,59.95671125443363,
128.0,131.75,36,0.75,Stimuli/P007/things_platypus_04s.jpg,0,0,0.0,0,56,56,56,,,,,,,,,,,,,128.01191390000076,0.011913900000763533,None,164.0290884000001,164.0290884000001,164.0290884000001,164.0290884000001,164.0290884000001,164.0290884000001,164.0290884000001,164.0290884000001,164.0290884000001,164.0290884000001,,003,P007,2025_Feb_01_0943,ConditionRich,2021.2.3,59.95671125443363,
131.75,132.0,41,0.0,Stimuli/Blank.png,0,0,0.0,0,57,57,57,,,,,,,,,,,,,131.76589430000058,0.015894300000582007,None,167.78241070000013,167.78241070000013,167.78241070000013,167.78241070000013,167.78241070000013,167.78241070000013,167.78241070000013,167.78241070000013,167.78241070000013,167.78241070000013,,003,P007,2025_Feb_01_0943,ConditionRich,2021.2.3,59.95671125443363,
132.0,135.75,25,0.75,Stimuli/P007/things_credit_card_04s.jpg,0,0,0.0,0,58,58,58,,,,,,,,,,,,,132.00178610000057,0.0017861000005723326,None,168.03259110000045,168.03259110000045,168.03259110000045,168.03259110000045,168.03259110000045,168.03259110000045,168.03259110000045,168.03259110000045,168.03259110000045,168.03259110000045,,003,P007,2025_Feb_01_0943,ConditionRich,2021.2.3,59.95671125443363,
135.75,136.0,41,0.0,Stimuli/Blank.png,0,0,0.0,0,59,59,59,,,,,,,,,,,,,135.76854520000052,0.01854520000051707,None,171.7859527000005,171.7859527000005,171.7859527000005,171.7859527000005,171.7859527000005,171.7859527000005,171.7859527000005,171.7859527000005,171.7859527000005,171.7859527000005,,003,P007,2025_Feb_01_0943,ConditionRich,2021.2.3,59.95671125443363,
136.0,139.75,19,0.75,Stimuli/P007/sun_brpfgrmubnnjvfkw.jpg,0,0,0.0,0,60,60,60,,,,,,,,,,,,,136.0021555000003,0.002155500000299071,None,172.0194492000005,172.0194492000005,172.0194492000005,172.0194492000005,172.0194492000005,172.0194492000005,172.0194492000005,172.0194492000005,172.0194492000005,172.0194492000005,,003,P007,2025_Feb_01_0943,ConditionRich,2021.2.3,59.95671125443363,
139.75,140.0,41,0.0,Stimuli/Blank.png,0,0,0.0,0,61,61,61,,,,,,,,,,,,,139.7558194000003,0.005819400000291353,None,175.77281679999987,175.77281679999987,175.77281679999987,175.77281679999987,175.77281679999987,175.77281679999987,175.77281679999987,175.77281679999987,175.77281679999987,175.77281679999987,,003,P007,2025_Feb_01_0943,ConditionRich,2021.2.3,59.95671125443363,
140.0,143.75,16,0.75,Stimuli/P007/sun_bnpggenxuowzsywq.jpg,0,0,0.0,0,62,62,62,,,,,,,,,,,,,140.00639260000025,0.0063926000002538785,None,176.02298949999977,176.02298949999977,176.02298949999977,176.02298949999977,176.02298949999977,176.02298949999977,176.02298949999977,176.02298949999977,176.02298949999977,176.02298949999977,,003,P007,2025_Feb_01_0943,ConditionRich,2021.2.3,59.95671125443363,
143.75,144.0,41,0.0,Stimuli/Blank.png,0,0,0.0,0,63,63,63,,,,,,,,,,,,,143.7588899000002,0.008889900000212947,None,179.77639390000013,179.77639390000013,179.77639390000013,179.77639390000013,179.77639390000013,179.77639390000013,179.77639390000013,179.77639390000013,179.77639390000013,179.77639390000013,,003,P007,2025_Feb_01_0943,ConditionRich,2021.2.3,59.95671125443363,
144.0,147.75,21,0.75,Stimuli/P007/things_baby_04s.jpg,1,0,0.75,0,64,64,64,,,,,,,,,,,,,144.0095996,0.009599600000001374,None,180.0265940000004,180.0265940000004,180.0265940000004,180.0265940000004,180.0265940000004,180.0265940000004,180.0265940000004,180.76060240000015,180.0265940000004,180.0265940000004,,003,P007,2025_Feb_01_0943,ConditionRich,2021.2.3,59.95671125443363,
147.75,148.0,41,0.0,Stimuli/Blank.png,0,0,0.0,0,65,65,65,,,,,,,,,,,,,147.76247010000043,0.01247010000042792,None,183.77988400000004,183.77988400000004,183.77988400000004,183.77988400000004,183.77988400000004,183.77988400000004,183.77988400000004,183.77988400000004,183.77988400000004,183.77988400000004,,003,P007,2025_Feb_01_0943,ConditionRich,2021.2.3,59.95671125443363,
148.0,151.75,34,0.75,Stimuli/P007/things_moose_04s.jpg,0,0,0.0,0,66,66,66,,,,,,,,,,,,,148.01284250000026,0.01284250000026077,None,184.03011149999975,184.03011149999975,184.03011149999975,184.03011149999975,184.03011149999975,184.03011149999975,184.03011149999975,184.03011149999975,184.03011149999975,184.03011149999975,,003,P007,2025_Feb_01_0943,ConditionRich,2021.2.3,59.95671125443363,
151.75,152.0,41,0.0,Stimuli/Blank.png,0,0,0.0,0,67,67,67,,,,,,,,,,,,,151.74998620000042,-1.3799999578623101e-05,None,187.76675029999979,187.76675029999979,187.76675029999979,187.76675029999979,187.76675029999979,187.76675029999979,187.76675029999979,187.76675029999979,187.76675029999979,187.76675029999979,,003,P007,2025_Feb_01_0943,ConditionRich,2021.2.3,59.95671125443363,
152.0,155.75,7,0.75,Stimuli/P007/sun_babhwrqvnhanonuy.jpg,1,0,0.75,0,68,68,68,,,,,,,,,,,,,152.00200750000022,0.0020075000002179877,2,188.0336508000005,188.0336508000005,188.0336508000005,188.0336508000005,188.0336508000005,188.0336508000005,188.0336508000005,188.76764860000048,188.0336508000005,188.0336508000005,0.3518759999997201,003,P007,2025_Feb_01_0943,ConditionRich,2021.2.3,59.95671125443363,
155.75,156.0,41,0.0,Stimuli/Blank.png,0,0,0.0,0,69,69,69,,,,,,,,,,,,,155.77039560000048,0.020395600000483682,None,191.78717800000004,191.78717800000004,191.78717800000004,191.78717800000004,191.78717800000004,191.78717800000004,191.78717800000004,191.78717800000004,191.78717800000004,191.78717800000004,,003,P007,2025_Feb_01_0943,ConditionRich,2021.2.3,59.95671125443363,
156.0,159.75,10,0.75,Stimuli/P007/sun_bdekcgnlcicvgpvq.jpg,0,0,0.0,0,70,70,70,,,,,,,,,,,,,156.00391639999998,0.003916399999980058,None,192.02051280000023,192.02051280000023,192.02051280000023,192.02051280000023,192.02051280000023,192.02051280000023,192.02051280000023,192.02051280000023,192.02051280000023,192.02051280000023,,003,P007,2025_Feb_01_0943,ConditionRich,2021.2.3,59.95671125443363,
159.75,160.0,41,0.0,Stimuli/Blank.png,0,0,0.0,0,71,71,71,,,,,,,,,,,,,159.7572957000002,0.007295700000213401,None,195.7738747999997,195.7738747999997,195.7738747999997,195.7738747999997,195.7738747999997,195.7738747999997,195.7738747999997,195.7738747999997,195.7738747999997,195.7738747999997,,003,P007,2025_Feb_01_0943,ConditionRich,2021.2.3,59.95671125443363,
160.0,163.75,5,0.75,Stimuli/P007/sun_ayzkwnqsoiycbncn.jpg,0,0,0.0,0,72,72,72,,,,,,,,,,,,,160.0075112000004,0.00751120000040828,None,196.0240686000002,196.0240686000002,196.0240686000002,196.0240686000002,196.0240686000002,196.0240686000002,196.0240686000002,196.0240686000002,196.0240686000002,196.0240686000002,,003,P007,2025_Feb_01_0943,ConditionRich,2021.2.3,59.95671125443363,
163.75,164.0,41,0.0,Stimuli/Blank.png,0,0,0.0,0,73,73,73,,,,,,,,,,,,,163.76107090000005,0.011070900000049733,None,199.77737449999995,199.77737449999995,199.77737449999995,199.77737449999995,199.77737449999995,199.77737449999995,199.77737449999995,199.77737449999995,199.77737449999995,199.77737449999995,,003,P007,2025_Feb_01_0943,ConditionRich,2021.2.3,59.95671125443363,
164.0,167.75,1,0.75,Stimuli/P007/sun_abrlrupzcrwpxqfc.jpg,0,0,0.0,0,74,74,74,,,,,,,,,,,,,164.01054620000014,0.010546200000135286,None,200.02758649999987,200.02758649999987,200.02758649999987,200.02758649999987,200.02758649999987,200.02758649999987,200.02758649999987,200.02758649999987,200.02758649999987,200.02758649999987,,003,P007,2025_Feb_01_0943,ConditionRich,2021.2.3,59.95671125443363,
167.75,168.0,41,0.0,Stimuli/Blank.png,0,0,0.0,0,75,75,75,,,,,,,,,,,,,167.76366730000063,0.013667300000633986,None,203.78092700000025,203.78092700000025,203.78092700000025,203.78092700000025,203.78092700000025,203.78092700000025,203.78092700000025,203.78092700000025,203.78092700000025,203.78092700000025,,003,P007,2025_Feb_01_0943,ConditionRich,2021.2.3,59.95671125443363,
168.0,171.75,32,0.75,Stimuli/P007/things_maggot_04s.jpg,0,0,0.0,0,76,76,76,,,,,,,,,,,,,168.0137289000004,0.013728900000387512,None,204.04783670000006,204.04783670000006,204.04783670000006,204.04783670000006,204.04783670000006,204.04783670000006,204.04783670000006,204.04783670000006,204.04783670000006,204.04783670000006,,003,P007,2025_Feb_01_0943,ConditionRich,2021.2.3,59.95671125443363,
171.75,172.0,41,0.0,Stimuli/Blank.png,0,0,0.0,0,77,77,77,,,,,,,,,,,,,171.76713740000014,0.01713740000013786,None,207.78445260000035,207.78445260000035,207.78445260000035,207.78445260000035,207.78445260000035,207.78445260000035,207.78445260000035,207.78445260000035,207.78445260000035,207.78445260000035,,003,P007,2025_Feb_01_0943,ConditionRich,2021.2.3,59.95671125443363,
172.0,175.75,3,0.75,Stimuli/P007/sun_aueftjhdwnvkbzlt.jpg,1,0,0.75,0,78,78,78,,,,,,,,,,,,,172.00077039999996,0.0007703999999648659,2,208.01800349999985,208.01800349999985,208.01800349999985,208.01800349999985,208.01800349999985,208.01800349999985,208.01800349999985,208.75200240000004,208.01800349999985,208.01800349999985,0.4069678000005297,003,P007,2025_Feb_01_0943,ConditionRich,2021.2.3,59.95671125443363,
175.75,176.0,41,0.0,Stimuli/Blank.png,0,0,0.0,0,79,79,79,,,,,,,,,,,,,175.7539697000002,0.003969700000197918,None,211.7714007999998,211.7714007999998,211.7714007999998,211.7714007999998,211.7714007999998,211.7714007999998,211.7714007999998,211.7714007999998,211.7714007999998,211.7714007999998,,003,P007,2025_Feb_01_0943,ConditionRich,2021.2.3,59.95671125443363,
176.0,179.75,39,0.75,Stimuli/P007/things_showerhead_04s.jpg,0,0,0.0,0,80,80,80,,,,,,,,,,,,,176.00647670000035,0.006476700000348501,None,212.03821709999966,212.03821709999966,212.03821709999966,212.03821709999966,212.03821709999966,212.03821709999966,212.03821709999966,212.03821709999966,212.03821709999966,212.03821709999966,,003,P007,2025_Feb_01_0943,ConditionRich,2021.2.3,59.95671125443363,
179.75,180.0,41,0.0,Stimuli/Blank.png,0,0,0.0,0,81,81,81,,,,,,,,,,,,,179.77657739999995,0.026577399999951012,None,215.80821700000024,215.80821700000024,215.80821700000024,215.80821700000024,215.80821700000024,215.80821700000024,215.80821700000024,215.80821700000024,215.80821700000024,215.80821700000024,,003,P007,2025_Feb_01_0943,ConditionRich,2021.2.3,59.95671125443363,
180.0,196.0,0,0.0,Stimuli/Blank.png,1,8,8.75,0,82,82,82,,,,,,,,,,,,,180.02746750000006,0.027467500000057044,2,216.05844600000046,216.05844600000046,216.05844600000046,216.05844600000046,216.05844600000046,216.05844600000046,224.0321273000004,224.78282450000052,216.05844600000046,216.05844600000046,8.310213800000383,003,P007,2025_Feb_01_0943,ConditionRich,2021.2.3,59.95671125443363,
196.0,199.75,6,0.75,Stimuli/P007/sun_azpjjfwsbjdjcopb.jpg,0,0,0.0,0,83,83,83,,,,,,,,,,,,,196.02253560000008,0.022535600000082923,None,232.0392469000003,232.0392469000003,232.0392469000003,232.0392469000003,232.0392469000003,232.0392469000003,232.0392469000003,232.0392469000003,232.0392469000003,232.0392469000003,,003,P007,2025_Feb_01_0943,ConditionRich,2021.2.3,59.95671125443363,
199.75,200.0,41,0.0,Stimuli/Blank.png,0,0,0.0,0,84,84,84,,,,,,,,,,,,,199.7585850000005,0.008585000000493892,None,235.77588380000043,235.77588380000043,235.77588380000043,235.77588380000043,235.77588380000043,235.77588380000043,235.77588380000043,235.77588380000043,235.77588380000043,235.77588380000043,,003,P007,2025_Feb_01_0943,ConditionRich,2021.2.3,59.95671125443363,
200.0,203.75,36,0.75,Stimuli/P007/things_platypus_04s.jpg,0,0,0.0,0,85,85,85,,,,,,,,,,,,,200.0115437000004,0.011543700000402168,None,236.0427864999997,236.0427864999997,236.0427864999997,236.0427864999997,236.0427864999997,236.0427864999997,236.0427864999997,236.0427864999997,236.0427864999997,236.0427864999997,,003,P007,2025_Feb_01_0943,ConditionRich,2021.2.3,59.95671125443363,
203.75,204.0,41,0.0,Stimuli/Blank.png,0,0,0.0,0,86,86,86,,,,,,,,,,,,,203.78181480000057,0.031814800000574905,None,239.8127859000001,239.8127859000001,239.8127859000001,239.8127859000001,239.8127859000001,239.8127859000001,239.8127859000001,239.8127859000001,239.8127859000001,239.8127859000001,,003,P007,2025_Feb_01_0943,ConditionRich,2021.2.3,59.95671125443363,
204.0,207.75,2,0.75,Stimuli/P007/sun_ajyzloqaptmicnfr.jpg,0,0,0.0,0,87,87,87,,,,,,,,,,,,,204.0297399000001,0.029739900000095076,None,240.0630103999997,240.0630103999997,240.0630103999997,240.0630103999997,240.0630103999997,240.0630103999997,240.0630103999997,240.0630103999997,240.0630103999997,240.0630103999997,,003,P007,2025_Feb_01_0943,ConditionRich,2021.2.3,59.95671125443363,
207.75,208.0,41,0.0,Stimuli/Blank.png,0,0,0.0,0,88,88,88,,,,,,,,,,,,,207.76716860000033,0.017168600000331935,None,243.78296910000017,243.78296910000017,243.78296910000017,243.78296910000017,243.78296910000017,243.78296910000017,243.78296910000017,243.78296910000017,243.78296910000017,243.78296910000017,,003,P007,2025_Feb_01_0943,ConditionRich,2021.2.3,59.95671125443363,
208.0,211.75,10,0.75,Stimuli/P007/sun_bdekcgnlcicvgpvq.jpg,0,0,0.0,0,89,89,89,,,,,,,,,,,,,207.99979239999993,-0.00020760000006703194,None,244.03318720000016,244.03318720000016,244.03318720000016,244.03318720000016,244.03318720000016,244.03318720000016,244.03318720000016,244.03318720000016,244.03318720000016,244.03318720000016,,003,P007,2025_Feb_01_0943,ConditionRich,2021.2.3,59.95671125443363,
211.75,212.0,41,0.0,Stimuli/Blank.png,0,0,0.0,0,90,90,90,,,,,,,,,,,,,211.7690801000008,0.0190801000007923,None,247.78656790000014,247.78656790000014,247.78656790000014,247.78656790000014,247.78656790000014,247.78656790000014,247.78656790000014,247.78656790000014,247.78656790000014,247.78656790000014,,003,P007,2025_Feb_01_0943,ConditionRich,2021.2.3,59.95671125443363,
212.0,215.75,31,0.75,Stimuli/P007/things_jug_04s.jpg,0,0,0.0,0,91,91,91,,,,,,,,,,,,,212.0035768000007,0.0035768000007010414,None,248.0367395999997,248.0367395999997,248.0367395999997,248.0367395999997,248.0367395999997,248.0367395999997,248.0367395999997,248.0367395999997,248.0367395999997,248.0367395999997,,003,P007,2025_Feb_01_0943,ConditionRich,2021.2.3,59.95671125443363,
215.75,216.0,41,0.0,Stimuli/Blank.png,0,0,0.0,0,92,92,92,,,,,,,,,,,,,215.77352820000033,0.02352820000032807,None,251.79004020000002,251.79004020000002,251.79004020000002,251.79004020000002,251.79004020000002,251.79004020000002,251.79004020000002,251.79004020000002,251.79004020000002,251.79004020000002,,003,P007,2025_Feb_01_0943,ConditionRich,2021.2.3,59.95671125443363,
216.0,219.75,22,0.75,Stimuli/P007/things_boar_04s.jpg,0,0,0.0,0,93,93,93,,,,,,,,,,,,,216.00702130000082,0.007021300000815245,None,252.04027160000032,252.04027160000032,252.04027160000032,252.04027160000032,252.04027160000032,252.04027160000032,252.04027160000032,252.04027160000032,252.04027160000032,252.04027160000032,,003,P007,2025_Feb_01_0943,ConditionRich,2021.2.3,59.95671125443363,
219.75,220.0,41,0.0,Stimuli/Blank.png,0,0,0.0,0,94,94,94,,,,,,,,,,,,,219.7768820000001,0.026882000000114203,None,255.79359419999992,255.79359419999992,255.79359419999992,255.79359419999992,255.79359419999992,255.79359419999992,255.79359419999992,255.79359419999992,255.79359419999992,255.79359419999992,,003,P007,2025_Feb_01_0943,ConditionRich,2021.2.3,59.95671125443363,
220.0,223.75,27,0.75,Stimuli/P007/things_fur_coat_04s.jpg,0,0,0.0,0,95,95,95,,,,,,,,,,,,,220.01298980000047,0.012989800000468676,None,256.0438171999999,256.0438171999999,256.0438171999999,256.0438171999999,256.0438171999999,256.0438171999999,256.0438171999999,256.0438171999999,256.0438171999999,256.0438171999999,,003,P007,2025_Feb_01_0943,ConditionRich,2021.2.3,59.95671125443363,
223.75,224.0,41,0.0,Stimuli/Blank.png,0,0,0.0,0,96,96,96,,,,,,,,,,,,,223.7636519000007,0.013651900000695605,None,259.7804583000002,259.7804583000002,259.7804583000002,259.7804583000002,259.7804583000002,259.7804583000002,259.7804583000002,259.7804583000002,259.7804583000002,259.7804583000002,,003,P007,2025_Feb_01_0943,ConditionRich,2021.2.3,59.95671125443363,
224.0,227.75,8,0.75,Stimuli/P007/sun_bbnepvzvycqjjczs.jpg,0,0,0.0,0,97,97,97,,,,,,,,,,,,,224.0139246000008,0.013924600000791543,None,260.0306674999997,260.0306674999997,260.0306674999997,260.0306674999997,260.0306674999997,260.0306674999997,260.0306674999997,260.0306674999997,260.0306674999997,260.0306674999997,,003,P007,2025_Feb_01_0943,ConditionRich,2021.2.3,59.95671125443363,
227.75,228.0,41,0.0,Stimuli/Blank.png,0,0,0.0,0,98,98,98,,,,,,,,,,,,,227.75067390000004,0.0006739000000379747,None,263.76732649999985,263.76732649999985,263.76732649999985,263.76732649999985,263.76732649999985,263.76732649999985,263.76732649999985,263.76732649999985,263.76732649999985,263.76732649999985,,003,P007,2025_Feb_01_0943,ConditionRich,2021.2.3,59.95671125443363,
228.0,231.75,40,0.75,Stimuli/P007/things_woman_04s.jpg,0,0,0.0,0,99,99,99,,,,,,,,,,,,,228.00115820000065,0.0011582000006455928,None,264.0175237999997,264.0175237999997,264.0175237999997,264.0175237999997,264.0175237999997,264.0175237999997,264.0175237999997,264.0175237999997,264.0175237999997,264.0175237999997,,003,P007,2025_Feb_01_0943,ConditionRich,2021.2.3,59.95671125443363,
231.75,232.0,41,0.0,Stimuli/Blank.png,0,0,0.0,0,100,100,100,,,,,,,,,,,,,231.75630400000045,0.006304000000454835,None,267.7875349000001,267.7875349000001,267.7875349000001,267.7875349000001,267.7875349000001,267.7875349000001,267.7875349000001,267.7875349000001,267.7875349000001,267.7875349000001,,003,P007,2025_Feb_01_0943,ConditionRich,2021.2.3,59.95671125443363,
232.0,235.75,16,0.75,Stimuli/P007/sun_bnpggenxuowzsywq.jpg,1,2,2.75,0,101,101,101,,,,,,,,,,,,,232.02206190000015,0.0220619000001534,2,268.0544461000004,268.0544461000004,268.0544461000004,268.0544461000004,268.0544461000004,268.0544461000004,270.0228443000001,270.7734959000004,268.0544461000004,268.0544461000004,2.367215999999644,003,P007,2025_Feb_01_0943,ConditionRich,2021.2.3,59.95671125443363,
235.75,236.0,41,0.0,Stimuli/Blank.png,0,0,0.0,0,102,102,102,,,,,,,,,,,,,235.7768171000007,0.0268171000006987,None,271.8077315000005,271.8077315000005,271.8077315000005,271.8077315000005,271.8077315000005,271.8077315000005,271.8077315000005,271.8077315000005,271.8077315000005,271.8077315000005,,003,P007,2025_Feb_01_0943,ConditionRich,2021.2.3,59.95671125443363,
236.0,239.75,35,0.75,Stimuli/P007/things_pecan_04s.jpg,0,0,0.0,0,103,103,103,,,,,,,,,,,,,236.02658060000067,0.02658060000067053,None,272.05797610000036,272.05797610000036,272.05797610000036,272.05797610000036,272.05797610000036,272.05797610000036,272.05797610000036,272.05797610000036,272.05797610000036,272.05797610000036,,003,P007,2025_Feb_01_0943,ConditionRich,2021.2.3,59.95671125443363,
239.75,240.0,41,0.0,Stimuli/Blank.png,0,0,0.0,0,104,104,104,,,,,,,,,,,,,239.77728750000006,0.027287500000056752,None,275.7946171999997,275.7946171999997,275.7946171999997,275.7946171999997,275.7946171999997,275.7946171999997,275.7946171999997,275.7946171999997,275.7946171999997,275.7946171999997,,003,P007,2025_Feb_01_0943,ConditionRich,2021.2.3,59.95671125443363,
240.0,243.75,5,0.75,Stimuli/P007/sun_ayzkwnqsoiycbncn.jpg,0,0,0.0,0,105,105,105,,,,,,,,,,,,,240.01209010000002,0.012090100000023085,None,276.04485160000013,276.04485160000013,276.04485160000013,276.04485160000013,276.04485160000013,276.04485160000013,276.04485160000013,276.04485160000013,276.04485160000013,276.04485160000013,,003,P007,2025_Feb_01_0943,ConditionRich,2021.2.3,59.95671125443363,
243.75,244.0,41,0.0,Stimuli/Blank.png,0,0,0.0,0,106,106,106,,,,,,,,,,,,,243.7813429000007,0.03134290000070905,None,279.7981488999999,279.7981488999999,279.7981488999999,279.7981488999999,279.7981488999999,279.7981488999999,279.7981488999999,279.7981488999999,279.7981488999999,279.7981488999999,,003,P007,2025_Feb_01_0943,ConditionRich,2021.2.3,59.95671125443363,
244.0,247.75,3,0.75,Stimuli/P007/sun_aueftjhdwnvkbzlt.jpg,0,0,0.0,0,107,107,107,,,,,,,,,,,,,244.01560060000065,0.015600600000652776,None,280.0483680000002,280.0483680000002,280.0483680000002,280.0483680000002,280.0483680000002,280.0483680000002,280.0483680000002,280.0483680000002,280.0483680000002,280.0483680000002,,003,P007,2025_Feb_01_0943,ConditionRich,2021.2.3,59.95671125443363,
247.75,248.0,41,0.0,Stimuli/Blank.png,0,0,0.0,0,108,108,108,,,,,,,,,,,,,247.7677136000002,0.017713600000206497,None,283.7850119999998,283.7850119999998,283.7850119999998,283.7850119999998,283.7850119999998,283.7850119999998,283.7850119999998,283.7850119999998,283.7850119999998,283.7850119999998,,003,P007,2025_Feb_01_0943,ConditionRich,2021.2.3,59.95671125443363,
248.0,251.75,32,0.75,Stimuli/P007/things_maggot_04s.jpg,0,0,0.0,0,109,109,109,,,,,,,,,,,,,248.00238330000047,0.0023833000004742644,None,284.0352426000004,284.0352426000004,284.0352426000004,284.0352426000004,284.0352426000004,284.0352426000004,284.0352426000004,284.0352426000004,284.0352426000004,284.0352426000004,,003,P007,2025_Feb_01_0943,ConditionRich,2021.2.3,59.95671125443363,
251.75,252.0,41,0.0,Stimuli/Blank.png,0,0,0.0,0,110,110,110,,,,,,,,,,,,,251.7721891000001,0.0221891000001051,None,287.7885615,287.7885615,287.7885615,287.7885615,287.7885615,287.7885615,287.7885615,287.7885615,287.7885615,287.7885615,,003,P007,2025_Feb_01_0943,ConditionRich,2021.2.3,59.95671125443363,
252.0,255.75,1,0.75,Stimuli/P007/sun_abrlrupzcrwpxqfc.jpg,1,1,1.75,0,111,111,111,,,,,,,,,,,,,252.00679390000005,0.00679390000004787,2,288.03878420000046,288.03878420000046,288.03878420000046,288.03878420000046,288.03878420000046,288.03878420000046,289.02298350000046,289.77364590000025,288.03878420000046,288.03878420000046,1.7309014000002207,003,P007,2025_Feb_01_0943,ConditionRich,2021.2.3,59.95671125443363,
255.75,256.0,41,0.0,Stimuli/Blank.png,0,0,0.0,0,112,112,112,,,,,,,,,,,,,255.77561349999996,0.025613499999963096,None,291.79211179999993,291.79211179999993,291.79211179999993,291.79211179999993,291.79211179999993,291.79211179999993,291.79211179999993,291.79211179999993,291.79211179999993,291.79211179999993,,003,P007,2025_Feb_01_0943,ConditionRich,2021.2.3,59.95671125443363,
256.0,259.75,37,0.75,Stimuli/P007/things_praying_mantis_04s.jpg,1,3,3.75,0,113,113,113,,,,,,,,,,,,,256.00826360000065,0.008263600000645965,2,292.0256328999999,292.0256328999999,292.0256328999999,292.0256328999999,292.0256328999999,292.0256328999999,295.0116576000005,295.7622965000005,292.0256328999999,292.0256328999999,3.336132300000827,003,P007,2025_Feb_01_0943,ConditionRich,2021.2.3,59.95671125443363,
259.75,260.0,41,0.0,Stimuli/Blank.png,0,0,0.0,0,114,114,114,,,,,,,,,,,,,259.7623439000008,0.012343900000814756,None,295.77900050000017,295.77900050000017,295.77900050000017,295.77900050000017,295.77900050000017,295.77900050000017,295.77900050000017,295.77900050000017,295.77900050000017,295.77900050000017,,003,P007,2025_Feb_01_0943,ConditionRich,2021.2.3,59.95671125443363,
260.0,263.75,25,0.75,Stimuli/P007/things_credit_card_04s.jpg,0,0,0.0,0,115,115,115,,,,,,,,,,,,,260.0129099000005,0.012909900000522612,None,296.0458733999999,296.0458733999999,296.0458733999999,296.0458733999999,296.0458733999999,296.0458733999999,296.0458733999999,296.0458733999999,296.0458733999999,296.0458733999999,,003,P007,2025_Feb_01_0943,ConditionRich,2021.2.3,59.95671125443363,
263.75,264.0,41,0.0,Stimuli/Blank.png,0,0,0.0,0,116,116,116,,,,,,,,,,,,,263.766122,0.01612199999999575,None,299.78251260000025,299.78251260000025,299.78251260000025,299.78251260000025,299.78251260000025,299.78251260000025,299.78251260000025,299.78251260000025,299.78251260000025,299.78251260000025,,003,P007,2025_Feb_01_0943,ConditionRich,2021.2.3,59.95671125443363,
264.0,267.75,11,0.75,Stimuli/P007/sun_bdsriuscubkvzrmt.jpg,0,0,0.0,0,117,117,117,,,,,,,,,,,,,264.0014942000007,0.001494200000706769,None,300.03272739999966,300.03272739999966,300.03272739999966,300.03272739999966,300.03272739999966,300.03272739999966,300.03272739999966,300.03272739999966,300.03272739999966,300.03272739999966,,003,P007,2025_Feb_01_0943,ConditionRich,2021.2.3,59.95671125443363,
267.75,268.0,41,0.0,Stimuli/Blank.png,0,0,0.0,0,118,118,118,,,,,,,,,,,,,267.76864019999994,0.018640199999936158,None,303.7860415,303.7860415,303.7860415,303.7860415,303.7860415,303.7860415,303.7860415,303.7860415,303.7860415,303.7860415,,003,P007,2025_Feb_01_0943,ConditionRich,2021.2.3,59.95671125443363,
268.0,271.75,7,0.75,Stimuli/P007/sun_babhwrqvnhanonuy.jpg,0,0,0.0,0,119,119,119,,,,,,,,,,,,,268.0024791000005,0.0024791000005279784,None,304.01957079999966,304.01957079999966,304.01957079999966,304.01957079999966,304.01957079999966,304.01957079999966,304.01957079999966,304.01957079999966,304.01957079999966,304.01957079999966,,003,P007,2025_Feb_01_0943,ConditionRich,2021.2.3,59.95671125443363,
271.75,272.0,41,0.0,Stimuli/Blank.png,0,0,0.0,0,120,120,120,,,,,,,,,,,,,271.7571351000006,0.00713510000059614,None,307.78959820000046,307.78959820000046,307.78959820000046,307.78959820000046,307.78959820000046,307.78959820000046,307.78959820000046,307.78959820000046,307.78959820000046,307.78959820000046,,003,P007,2025_Feb_01_0943,ConditionRich,2021.2.3,59.95671125443363,
272.0,275.75,39,0.75,Stimuli/P007/things_showerhead_04s.jpg,1,0,0.75,0,121,121,121,,,,,,,,,,,,,272.0231528000004,0.023152800000389107,2,308.0397979000004,308.0397979000004,308.0397979000004,308.0397979000004,308.0397979000004,308.0397979000004,308.0397979000004,308.7737767000003,308.0397979000004,308.0397979000004,0.40805379999983415,003,P007,2025_Feb_01_0943,ConditionRich,2021.2.3,59.95671125443363,
275.75,276.0,41,0.0,Stimuli/Blank.png,0,0,0.0,0,122,122,122,,,,,,,,,,,,,275.7590736000002,0.009073600000192528,None,311.7765303000001,311.7765303000001,311.7765303000001,311.7765303000001,311.7765303000001,311.7765303000001,311.7765303000001,311.7765303000001,311.7765303000001,311.7765303000001,,003,P007,2025_Feb_01_0943,ConditionRich,2021.2.3,59.95671125443363,
276.0,292.0,0,0.0,Stimuli/Blank.png,1,12,12.75,0,123,123,123,,,,,,,,,,,,,276.0092789,0.009278900000026624,2,312.02665769999976,312.02665769999976,312.02665769999976,312.02665769999976,312.02665769999976,312.02665769999976,324.0039234000001,324.7546207999999,312.02665769999976,312.02665769999976,12.269997299999886,003,P007,2025_Feb_01_0943,ConditionRich,2021.2.3,59.95671125443363,
292.0,295.75,24,0.75,Stimuli/P007/things_collar_04s.jpg,0,0,0.0,0,124,124,124,,,,,,,,,,,,,292.0078207000006,0.007820700000593206,None,328.02413990000014,328.02413990000014,328.02413990000014,328.02413990000014,328.02413990000014,328.02413990000014,328.02413990000014,328.02413990000014,328.02413990000014,328.02413990000014,,003,P007,2025_Feb_01_0943,ConditionRich,2021.2.3,59.95671125443363,
295.75,296.0,41,0.0,Stimuli/Blank.png,0,0,0.0,0,125,125,125,,,,,,,,,,,,,295.76108600000043,0.01108600000043225,None,331.7774752999999,331.7774752999999,331.7774752999999,331.7774752999999,331.7774752999999,331.7774752999999,331.7774752999999,331.7774752999999,331.7774752999999,331.7774752999999,,003,P007,2025_Feb_01_0943,ConditionRich,2021.2.3,59.95671125443363,
296.0,299.75,28,0.75,Stimuli/P007/things_girl_04s.jpg,0,0,0.0,0,126,126,126,,,,,,,,,,,,,296.0103013000007,0.010301300000719493,None,332.0277004000004,332.0277004000004,332.0277004000004,332.0277004000004,332.0277004000004,332.0277004000004,332.0277004000004,332.0277004000004,332.0277004000004,332.0277004000004,,003,P007,2025_Feb_01_0943,ConditionRich,2021.2.3,59.95671125443363,
299.75,300.0,41,0.0,Stimuli/Blank.png,0,0,0.0,0,127,127,127,,,,,,,,,,,,,299.76470400000017,0.014704000000165252,None,335.7810075000002,335.7810075000002,335.7810075000002,335.7810075000002,335.7810075000002,335.7810075000002,335.7810075000002,335.7810075000002,335.7810075000002,335.7810075000002,,003,P007,2025_Feb_01_0943,ConditionRich,2021.2.3,59.95671125443363,
300.0,303.75,13,0.75,Stimuli/P007/sun_bkhuvtsqontzwtbo.jpg,0,0,0.0,0,128,128,128,,,,,,,,,,,,,300.01383330000044,0.01383330000044225,None,336.0312230000004,336.0312230000004,336.0312230000004,336.0312230000004,336.0312230000004,336.0312230000004,336.0312230000004,336.0312230000004,336.0312230000004,336.0312230000004,,003,P007,2025_Feb_01_0943,ConditionRich,2021.2.3,59.95671125443363,
303.75,304.0,41,0.0,Stimuli/Blank.png,0,0,0.0,0,129,129,129,,,,,,,,,,,,,303.7504957000001,0.0004957000001013512,None,339.7679097000005,339.7679097000005,339.7679097000005,339.7679097000005,339.7679097000005,339.7679097000005,339.7679097000005,339.7679097000005,339.7679097000005,339.7679097000005,,003,P007,2025_Feb_01_0943,ConditionRich,2021.2.3,59.95671125443363,
304.0,307.75,17,0.75,Stimuli/P007/sun_bnsxdhbsafbdyncy.jpg,0,0,0.0,0,130,130,130,,,,,,,,,,,,,304.0021781000005,0.0021781000004921225,None,340.03478419999965,340.03478419999965,340.03478419999965,340.03478419999965,340.03478419999965,340.03478419999965,340.03478419999965,340.03478419999965,340.03478419999965,340.03478419999965,,003,P007,2025_Feb_01_0943,ConditionRich,2021.2.3,59.95671125443363,
307.75,308.0,41,0.0,Stimuli/Blank.png,0,0,0.0,0,131,131,131,,,,,,,,,,,,,307.7709401000002,0.020940100000188977,None,343.7880889000003,343.7880889000003,343.7880889000003,343.7880889000003,343.7880889000003,343.7880889000003,343.7880889000003,343.7880889000003,343.7880889000003,343.7880889000003,,003,P007,2025_Feb_01_0943,ConditionRich,2021.2.3,59.95671125443363,
308.0,311.75,23,0.75,Stimuli/P007/things_bumper_04s.jpg,1,2,2.75,0,132,132,132,,,,,,,,,,,,,308.0064394000001,0.006439400000090245,2,344.03834959999995,344.03834959999995,344.03834959999995,344.03834959999995,344.03834959999995,344.03834959999995,346.02338800000007,346.7740681,344.03834959999995,344.03834959999995,2.397547499999746,003,P007,2025_Feb_01_0943,ConditionRich,2021.2.3,59.95671125443363,
311.75,312.0,41,0.0,Stimuli/Blank.png,0,0,0.0,0,133,133,133,,,,,,,,,,,,,311.77655460000005,0.02655460000005405,None,347.80834110000023,347.80834110000023,347.80834110000023,347.80834110000023,347.80834110000023,347.80834110000023,347.80834110000023,347.80834110000023,347.80834110000023,347.80834110000023,,003,P007,2025_Feb_01_0943,ConditionRich,2021.2.3,59.95671125443363,
312.0,315.75,4,0.75,Stimuli/P007/sun_awqukazlzsxaokai.jpg,1,2,2.75,0,134,134,134,,,,,,,,,,,,,312.0275607000003,0.027560700000321958,2,348.05853400000024,348.05853400000024,348.05853400000024,348.05853400000024,348.05853400000024,348.05853400000024,350.0436106000002,350.7942753000002,348.05853400000024,348.05853400000024,2.2982898999998724,003,P007,2025_Feb_01_0943,ConditionRich,2021.2.3,59.95671125443363,
315.75,316.0,41,0.0,Stimuli/Blank.png,0,0,0.0,0,135,135,135,,,,,,,,,,,,,315.77776360000007,0.027763600000071165,None,351.79517460000034,351.79517460000034,351.79517460000034,351.79517460000034,351.79517460000034,351.79517460000034,351.79517460000034,351.79517460000034,351.79517460000034,351.79517460000034,,003,P007,2025_Feb_01_0943,ConditionRich,2021.2.3,59.95671125443363,
316.0,319.75,21,0.75,Stimuli/P007/things_baby_04s.jpg,0,0,0.0,0,136,136,136,,,,,,,,,,,,,316.01246790000005,0.012467900000046939,None,352.04538939999975,352.04538939999975,352.04538939999975,352.04538939999975,352.04538939999975,352.04538939999975,352.04538939999975,352.04538939999975,352.04538939999975,352.04538939999975,,003,P007,2025_Feb_01_0943,ConditionRich,2021.2.3,59.95671125443363,
319.75,320.0,41,0.0,Stimuli/Blank.png,0,0,0.0,0,137,137,137,,,,,,,,,,,,,319.7669493000003,0.01694930000030581,None,355.79871630000025,355.79871630000025,355.79871630000025,355.79871630000025,355.79871630000025,355.79871630000025,355.79871630000025,355.79871630000025,355.79871630000025,355.79871630000025,,003,P007,2025_Feb_01_0943,ConditionRich,2021.2.3,59.95671125443363,
320.0,323.75,14,0.75,Stimuli/P007/sun_bkvjqgmploznrhxt.jpg,1,2,2.75,0,138,138,138,,,,,,,,,,,,,320.01699240000016,0.01699240000016289,2,356.0489300000004,356.0489300000004,356.0489300000004,356.0489300000004,356.0489300000004,356.0489300000004,358.03402229999983,358.78474310000047,356.0489300000004,356.0489300000004,2.394993500000055,003,P007,2025_Feb_01_0943,ConditionRich,2021.2.3,59.95671125443363,
323.75,324.0,41,0.0,Stimuli/Blank.png,0,0,0.0,0,139,139,139,,,,,,,,,,,,,323.76838880000014,0.018388800000138872,None,359.78558250000015,359.78558250000015,359.78558250000015,359.78558250000015,359.78558250000015,359.78558250000015,359.78558250000015,359.78558250000015,359.78558250000015,359.78558250000015,,003,P007,2025_Feb_01_0943,ConditionRich,2021.2.3,59.95671125443363,
324.0,327.75,12,0.75,Stimuli/P007/sun_bitpmyvulluuasab.jpg,0,0,0.0,0,140,140,140,,,,,,,,,,,,,324.0032619000003,0.003261900000325113,None,360.03578849999985,360.03578849999985,360.03578849999985,360.03578849999985,360.03578849999985,360.03578849999985,360.03578849999985,360.03578849999985,360.03578849999985,360.03578849999985,,003,P007,2025_Feb_01_0943,ConditionRich,2021.2.3,59.95671125443363,
327.75,328.0,41,0.0,Stimuli/Blank.png,0,0,0.0,0,141,141,141,,,,,,,,,,,,,327.77253330000076,0.022533300000759482,None,363.78911709999966,363.78911709999966,363.78911709999966,363.78911709999966,363.78911709999966,363.78911709999966,363.78911709999966,363.78911709999966,363.78911709999966,363.78911709999966,,003,P007,2025_Feb_01_0943,ConditionRich,2021.2.3,59.95671125443363,
328.0,331.75,15,0.75,Stimuli/P007/sun_bmeductqpfkygtww.jpg,0,0,0.0,0,142,142,142,,,,,,,,,,,,,328.00601630000074,0.006016300000737829,None,364.0393316000004,364.0393316000004,364.0393316000004,364.0393316000004,364.0393316000004,364.0393316000004,364.0393316000004,364.0393316000004,364.0393316000004,364.0393316000004,,003,P007,2025_Feb_01_0943,ConditionRich,2021.2.3,59.95671125443363,
331.75,332.0,41,0.0,Stimuli/Blank.png,0,0,0.0,0,143,143,143,,,,,,,,,,,,,331.7768160000005,0.02681600000050821,None,367.7926613000004,367.7926613000004,367.7926613000004,367.7926613000004,367.7926613000004,367.7926613000004,367.7926613000004,367.7926613000004,367.7926613000004,367.7926613000004,,003,P007,2025_Feb_01_0943,ConditionRich,2021.2.3,59.95671125443363,
332.0,335.75,33,0.75,Stimuli/P007/things_man_04s.jpg,0,0,0.0,0,144,144,144,,,,,,,,,,,,,332.00927500000034,0.009275000000343425,None,368.0261883999997,368.0261883999997,368.0261883999997,368.0261883999997,368.0261883999997,368.0261883999997,368.0261883999997,368.0261883999997,368.0261883999997,368.0261883999997,,003,P007,2025_Feb_01_0943,ConditionRich,2021.2.3,59.95671125443363,
335.75,336.0,41,0.0,Stimuli/Blank.png,0,0,0.0,0,145,145,145,,,,,,,,,,,,,335.7621523000007,0.012152300000707328,None,371.77951110000004,371.77951110000004,371.77951110000004,371.77951110000004,371.77951110000004,371.77951110000004,371.77951110000004,371.77951110000004,371.77951110000004,371.77951110000004,,003,P007,2025_Feb_01_0943,ConditionRich,2021.2.3,59.95671125443363,
336.0,339.75,38,0.75,Stimuli/P007/things_rollerblade_04s.jpg,0,0,0.0,0,146,146,146,,,,,,,,,,,,,336.0126065000004,0.012606500000401866,None,372.02973450000036,372.02973450000036,372.02973450000036,372.02973450000036,372.02973450000036,372.02973450000036,372.02973450000036,372.02973450000036,372.02973450000036,372.02973450000036,,003,P007,2025_Feb_01_0943,ConditionRich,2021.2.3,59.95671125443363,
339.75,340.0,41,0.0,Stimuli/Blank.png,0,0,0.0,0,147,147,147,,,,,,,,,,,,,339.7499828,-1.720000000204891e-05,None,375.7663528999997,375.7663528999997,375.7663528999997,375.7663528999997,375.7663528999997,375.7663528999997,375.7663528999997,375.7663528999997,375.7663528999997,375.7663528999997,,003,P007,2025_Feb_01_0943,ConditionRich,2021.2.3,59.95671125443363,
340.0,343.75,26,0.75,Stimuli/P007/things_face_04s.jpg,1,0,0.75,0,148,148,148,,,,,,,,,,,,,339.9997347000008,-0.00026529999922786374,2,376.0332847000004,376.0332847000004,376.0332847000004,376.0332847000004,376.0332847000004,376.0332847000004,376.0332847000004,376.7506171,376.0332847000004,376.0332847000004,0.43256079999991925,003,P007,2025_Feb_01_0943,ConditionRich,2021.2.3,59.95671125443363,
343.75,344.0,41,0.0,Stimuli/Blank.png,0,0,0.0,0,149,149,149,,,,,,,,,,,,,343.7692538000001,0.019253800000115007,None,379.7865933999997,379.7865933999997,379.7865933999997,379.7865933999997,379.7865933999997,379.7865933999997,379.7865933999997,379.7865933999997,379.7865933999997,379.7865933999997,,003,P007,2025_Feb_01_0943,ConditionRich,2021.2.3,59.95671125443363,
344.0,347.75,18,0.75,Stimuli/P007/sun_borgfidyubrwsuuw.jpg,0,0,0.0,0,150,150,150,,,,,,,,,,,,,344.00357390000045,0.0035739000004468835,None,380.036834,380.036834,380.036834,380.036834,380.036834,380.036834,380.036834,380.036834,380.036834,380.036834,,003,P007,2025_Feb_01_0943,ConditionRich,2021.2.3,59.95671125443363,
347.75,348.0,41,0.0,Stimuli/Blank.png,0,0,0.0,0,151,151,151,,,,,,,,,,,,,347.7729194000003,0.022919400000319,None,383.79013689999965,383.79013689999965,383.79013689999965,383.79013689999965,383.79013689999965,383.79013689999965,383.79013689999965,383.79013689999965,383.79013689999965,383.79013689999965,,003,P007,2025_Feb_01_0943,ConditionRich,2021.2.3,59.95671125443363,
348.0,351.75,19,0.75,Stimuli/P007/sun_brpfgrmubnnjvfkw.jpg,1,3,3.75,0,152,152,152,,,,,,,,,,,,,348.0073194000006,0.007319400000596943,2,384.04035710000016,384.04035710000016,384.04035710000016,384.04035710000016,384.04035710000016,384.04035710000016,387.0096897999997,387.7603573000001,384.04035710000016,384.04035710000016,3.450386000000435,003,P007,2025_Feb_01_0943,ConditionRich,2021.2.3,59.95671125443363,
351.75,352.0,41,0.0,Stimuli/Blank.png,0,0,0.0,0,153,153,153,,,,,,,,,,,,,351.7769496000001,0.026949600000079954,None,387.79368250000016,387.79368250000016,387.79368250000016,387.79368250000016,387.79368250000016,387.79368250000016,387.79368250000016,387.79368250000016,387.79368250000016,387.79368250000016,,003,P007,2025_Feb_01_0943,ConditionRich,2021.2.3,59.95671125443363,
352.0,355.75,34,0.75,Stimuli/P007/things_moose_04s.jpg,0,0,0.0,0,154,154,154,,,,,,,,,,,,,352.0119164000007,0.011916400000700378,None,388.04390060000014,388.04390060000014,388.04390060000014,388.04390060000014,388.04390060000014,388.04390060000014,388.04390060000014,388.04390060000014,388.04390060000014,388.04390060000014,,003,P007,2025_Feb_01_0943,ConditionRich,2021.2.3,59.95671125443363,
355.75,356.0,41,0.0,Stimuli/Blank.png,0,0,0.0,0,155,155,155,,,,,,,,,,,,,355.7817683000003,0.0317683000002944,None,391.81390299999975,391.81390299999975,391.81390299999975,391.81390299999975,391.81390299999975,391.81390299999975,391.81390299999975,391.81390299999975,391.81390299999975,391.81390299999975,,003,P007,2025_Feb_01_0943,ConditionRich,2021.2.3,59.95671125443363,
356.0,359.75,29,0.75,Stimuli/P007/things_hawk_04s.jpg,0,0,0.0,0,156,156,156,,,,,,,,,,,,,356.0320801000007,0.032080100000712264,None,392.0641214000002,392.0641214000002,392.0641214000002,392.0641214000002,392.0641214000002,392.0641214000002,392.0641214000002,392.0641214000002,392.0641214000002,392.0641214000002,,003,P007,2025_Feb_01_0943,ConditionRich,2021.2.3,59.95671125443363,
359.75,360.0,41,0.0,Stimuli/Blank.png,0,0,0.0,0,157,157,157,,,,,,,,,,,,,359.76741290000064,0.017412900000636,None,395.78408270000045,395.78408270000045,395.78408270000045,395.78408270000045,395.78408270000045,395.78408270000045,395.78408270000045,395.78408270000045,395.78408270000045,395.78408270000045,,003,P007,2025_Feb_01_0943,ConditionRich,2021.2.3,59.95671125443363,
360.0,363.75,9,0.75,Stimuli/P007/sun_bcsqogieozpyvuft.jpg,0,0,0.0,0,158,158,158,,,,,,,,,,,,,360.0002977000004,0.00029770000037387945,None,396.01762759999974,396.01762759999974,396.01762759999974,396.01762759999974,396.01762759999974,396.01762759999974,396.01762759999974,396.01762759999974,396.01762759999974,396.01762759999974,,003,P007,2025_Feb_01_0943,ConditionRich,2021.2.3,59.95671125443363,
363.75,364.0,41,0.0,Stimuli/Blank.png,0,0,0.0,0,159,159,159,,,,,,,,,,,,,363.75416290000067,0.004162900000665104,None,399.7709477000003,399.7709477000003,399.7709477000003,399.7709477000003,399.7709477000003,399.7709477000003,399.7709477000003,399.7709477000003,399.7709477000003,399.7709477000003,,003,P007,2025_Feb_01_0943,ConditionRich,2021.2.3,59.95671125443363,
364.0,367.75,20,0.75,Stimuli/P007/sun_btrxtfbwtggtrpfv.jpg,0,0,0.0,0,160,160,160,,,,,,,,,,,,,364.0037918000007,0.003791800000726653,None,400.0378545999997,400.0378545999997,400.0378545999997,400.0378545999997,400.0378545999997,400.0378545999997,400.0378545999997,400.0378545999997,400.0378545999997,400.0378545999997,,003,P007,2025_Feb_01_0943,ConditionRich,2021.2.3,59.95671125443363,
367.75,368.0,41,0.0,Stimuli/Blank.png,0,0,0.0,0,161,161,161,,,,,,,,,,,,,367.7742879000007,0.02428790000067238,None,403.7911684000005,403.7911684000005,403.7911684000005,403.7911684000005,403.7911684000005,403.7911684000005,403.7911684000005,403.7911684000005,403.7911684000005,403.7911684000005,,003,P007,2025_Feb_01_0943,ConditionRich,2021.2.3,59.95671125443363,
368.0,371.75,30,0.75,Stimuli/P007/things_jalapeno_04s.jpg,0,0,0.0,0,162,162,162,,,,,,,,,,,,,368.00770009999997,0.00770009999996546,None,404.0246941999999,404.0246941999999,404.0246941999999,404.0246941999999,404.0246941999999,404.0246941999999,404.0246941999999,404.0246941999999,404.0246941999999,404.0246941999999,,003,P007,2025_Feb_01_0943,ConditionRich,2021.2.3,59.95671125443363,
371.75,372.0,41,0.0,Stimuli/Blank.png,0,0,0.0,0,163,163,163,,,,,,,,,,,,,371.7611448000007,0.011144800000693067,None,407.77802310000015,407.77802310000015,407.77802310000015,407.77802310000015,407.77802310000015,407.77802310000015,407.77802310000015,407.77802310000015,407.77802310000015,407.77802310000015,,003,P007,2025_Feb_01_0943,ConditionRich,2021.2.3,59.95671125443363,
372.0,388.0,0,0.0,Stimuli/Blank.png,1,1,1.75,0,164,164,164,,,,,,,,,,,,,372.01249220000045,0.012492200000451703,2,408.02825170000006,408.02825170000006,408.02825170000006,408.02825170000006,408.02825170000006,408.02825170000006,409.0124681000002,409.7631083000001,408.02825170000006,408.02825170000006,1.6486911000001783,003,P007,2025_Feb_01_0943,ConditionRich,2021.2.3,59.95671125443363,
