eventStartTime,eventEndTime,eventCond,imSize,imFile,responseEvent,fixRespStart,fixRespEnd,Events.thisRepN,Events.thisTrialN,Events.thisN,Events.thisIndex,Instructions.started,Instructions.stopped,participantReadyResponse.keys,participantReadyResponse.rt,participantReadyResponse.started,participantReadyResponse.stopped,startWaitforTrigger,triggerResponse.keys,triggerResponse.rt,triggerResponse.started,triggerResponse.stopped,globalTimer,actualStartTime,startTimingDiff,participantResponse.keys,participantResponse.started,participantResponse.stopped,image.started,image.stopped,fixationOutside.started,fixationOutside.stopped,fixationResponse.started,fixationResponse.stopped,fixationInside.started,fixationInside.stopped,participantResponse.rt,session,participant,date,expName,psychopyVersion,frameRate,
,,,,,,,,,,,,11.619461900000715,None,2,18.5118051999998,11.619461900000715,None,,,,,,,,,,,,,,,,,,,,,004,P007,2025_Feb_01_0956,ConditionRich,2021.2.3,59.93705410575036,
,,,,,,,,,,,,,,,,,,30.14778330000081,5,13.413298099999338,30.160966600000393,None,,,,,,,,,,,,,,,,004,P007,2025_Feb_01_0956,ConditionRich,2021.2.3,59.93705410575036,
0.0,4.0,0,0.0,Stimuli/Blank.png,0,0.0,0.0,0,0,0,0,,,,,,,,,,,,43.592885000000024,0.041648999999779335,0.041648999999779335,None,43.65619650000008,None,43.65619650000008,None,43.65619650000008,None,43.65619650000008,43.65619650000008,43.65619650000008,None,,004,P007,2025_Feb_01_0956,ConditionRich,2021.2.3,59.93705410575036,
4.0,4.75,5,0.75,Stimuli/P007/sun_ayzkwnqsoiycbncn.jpg,0,0.0,0.0,0,1,1,1,,,,,,,,,,,,,4.019847600000503,0.019847600000503007,None,47.626649000000725,47.626649000000725,47.626649000000725,47.626649000000725,47.626649000000725,47.626649000000725,47.626649000000725,47.626649000000725,47.626649000000725,47.626649000000725,,004,P007,2025_Feb_01_0956,ConditionRich,2021.2.3,59.93705410575036,
4.75,8.0,41,0.0,Stimuli/Blank.png,0,0.0,0.0,0,2,2,2,,,,,,,,,,,,,4.753538599999956,0.0035385999999562046,None,48.36068630000045,48.36068630000045,48.36068630000045,48.36068630000045,48.36068630000045,48.36068630000045,48.36068630000045,48.36068630000045,48.36068630000045,48.36068630000045,,004,P007,2025_Feb_01_0956,ConditionRich,2021.2.3,59.93705410575036,
8.0,8.75,10,0.75,Stimuli/P007/sun_bdekcgnlcicvgpvq.jpg,0,0.0,0.0,0,3,3,3,,,,,,,,,,,,,8.005749800000558,0.005749800000558025,None,51.62992790000044,51.62992790000044,51.62992790000044,51.62992790000044,51.62992790000044,51.62992790000044,51.62992790000044,51.62992790000044,51.62992790000044,51.62992790000044,,004,P007,2025_Feb_01_0956,ConditionRich,2021.2.3,59.93705410575036,
8.75,12.0,41,0.0,Stimuli/Blank.png,0,0.0,0.0,0,4,4,4,,,,,,,,,,,,,8.77415740000015,0.02415740000014921,None,52.380587800000285,52.380587800000285,52.380587800000285,52.380587800000285,52.380587800000285,52.380587800000285,52.380587800000285,52.380587800000285,52.380587800000285,52.380587800000285,,004,P007,2025_Feb_01_0956,ConditionRich,2021.2.3,59.93705410575036,
12.0,12.75,32,0.75,Stimuli/P007/things_maggot_04s.jpg,0,0.0,0.0,0,5,5,5,,,,,,,,,,,,,12.009986099999878,0.009986099999878206,None,55.61677130000044,55.61677130000044,55.61677130000044,55.61677130000044,55.61677130000044,55.61677130000044,55.61677130000044,55.61677130000044,55.61677130000044,55.61677130000044,,004,P007,2025_Feb_01_0956,ConditionRich,2021.2.3,59.93705410575036,
12.75,16.0,41,0.0,Stimuli/Blank.png,0,0.0,0.0,0,6,6,6,,,,,,,,,,,,,12.761028300000362,0.011028300000361924,None,56.36743110000043,56.36743110000043,56.36743110000043,56.36743110000043,56.36743110000043,56.36743110000043,56.36743110000043,56.36743110000043,56.36743110000043,56.36743110000043,,004,P007,2025_Feb_01_0956,ConditionRich,2021.2.3,59.93705410575036,
16.0,16.75,20,0.75,Stimuli/P007/sun_btrxtfbwtggtrpfv.jpg,0,0.0,0.0,0,7,7,7,,,,,,,,,,,,,16.01325530000031,0.013255300000309944,None,59.62030870000035,59.62030870000035,59.62030870000035,59.62030870000035,59.62030870000035,59.62030870000035,59.62030870000035,59.62030870000035,59.62030870000035,59.62030870000035,,004,P007,2025_Feb_01_0956,ConditionRich,2021.2.3,59.93705410575036,
16.75,20.0,41,0.0,Stimuli/Blank.png,1,0.25,1.0,0,8,8,8,,,,,,,,,,,,,16.76444300000003,0.014443000000028405,2,60.37097840000024,60.37097840000024,60.37097840000024,60.37097840000024,60.37097840000024,60.37097840000024,60.60454480000044,61.3559879000004,60.37097840000024,60.37097840000024,0.6161915000002409,004,P007,2025_Feb_01_0956,ConditionRich,2021.2.3,59.93705410575036,
20.0,20.75,40,0.75,Stimuli/P007/things_woman_04s.jpg,0,0.0,0.0,0,9,9,9,,,,,,,,,,,,,19.999805700000252,-0.00019429999974818202,None,63.607174300000224,63.607174300000224,63.607174300000224,63.607174300000224,63.607174300000224,63.607174300000224,63.607174300000224,63.607174300000224,63.607174300000224,63.607174300000224,,004,P007,2025_Feb_01_0956,ConditionRich,2021.2.3,59.93705410575036,
20.75,24.0,41,0.0,Stimuli/Blank.png,0,0.0,0.0,0,10,10,10,,,,,,,,,,,,,20.751315100000284,0.0013151000002835644,None,64.35783810000066,64.35783810000066,64.35783810000066,64.35783810000066,64.35783810000066,64.35783810000066,64.35783810000066,64.35783810000066,64.35783810000066,64.35783810000066,,004,P007,2025_Feb_01_0956,ConditionRich,2021.2.3,59.93705410575036,
24.0,24.75,8,0.75,Stimuli/P007/sun_bbnepvzvycqjjczs.jpg,0,0.0,0.0,0,11,11,11,,,,,,,,,,,,,24.00375080000049,0.0037508000004891073,None,67.61071179999999,67.61071179999999,67.61071179999999,67.61071179999999,67.61071179999999,67.61071179999999,67.61071179999999,67.61071179999999,67.61071179999999,67.61071179999999,,004,P007,2025_Feb_01_0956,ConditionRich,2021.2.3,59.93705410575036,
24.75,28.0,41,0.0,Stimuli/Blank.png,0,0.0,0.0,0,12,12,12,,,,,,,,,,,,,24.7543783000001,0.004378300000098534,None,68.36138760000085,68.36138760000085,68.36138760000085,68.36138760000085,68.36138760000085,68.36138760000085,68.36138760000085,68.36138760000085,68.36138760000085,68.36138760000085,,004,P007,2025_Feb_01_0956,ConditionRich,2021.2.3,59.93705410575036,
28.0,28.75,25,0.75,Stimuli/P007/things_credit_card_04s.jpg,0,0.0,0.0,0,13,13,13,,,,,,,,,,,,,28.007329900000514,0.0073299000005135895,None,71.63095910000084,71.63095910000084,71.63095910000084,71.63095910000084,71.63095910000084,71.63095910000084,71.63095910000084,71.63095910000084,71.63095910000084,71.63095910000084,,004,P007,2025_Feb_01_0956,ConditionRich,2021.2.3,59.93705410575036,
28.75,32.0,41,0.0,Stimuli/Blank.png,1,2.25,3.0,0,14,14,14,,,,,,,,,,,,,28.77443420000054,0.02443420000054175,2,72.38160430000062,72.38160430000062,72.38160430000062,72.38160430000062,72.38160430000062,72.38160430000062,74.6170047000005,75.36761520000073,72.38160430000062,72.38160430000062,2.6654318999999305,004,P007,2025_Feb_01_0956,ConditionRich,2021.2.3,59.93705410575036,
32.0,32.75,9,0.75,Stimuli/P007/sun_bcsqogieozpyvuft.jpg,0,0.0,0.0,0,15,15,15,,,,,,,,,,,,,32.01229179999973,0.012291799999729847,None,75.63448100000005,75.63448100000005,75.63448100000005,75.63448100000005,75.63448100000005,75.63448100000005,75.63448100000005,75.63448100000005,75.63448100000005,75.63448100000005,,004,P007,2025_Feb_01_0956,ConditionRich,2021.2.3,59.93705410575036,
32.75,36.0,41,0.0,Stimuli/Blank.png,0,0.0,0.0,0,16,16,16,,,,,,,,,,,,,32.77873920000002,0.028739200000018172,None,76.38515050000024,76.38515050000024,76.38515050000024,76.38515050000024,76.38515050000024,76.38515050000024,76.38515050000024,76.38515050000024,76.38515050000024,76.38515050000024,,004,P007,2025_Feb_01_0956,ConditionRich,2021.2.3,59.93705410575036,
36.0,36.75,39,0.75,Stimuli/P007/things_showerhead_04s.jpg,0,0.0,0.0,0,17,17,17,,,,,,,,,,,,,36.0151249999999,0.015124999999898137,None,79.6214112000007,79.6214112000007,79.6214112000007,79.6214112000007,79.6214112000007,79.6214112000007,79.6214112000007,79.6214112000007,79.6214112000007,79.6214112000007,,004,P007,2025_Feb_01_0956,ConditionRich,2021.2.3,59.93705410575036,
36.75,40.0,41,0.0,Stimuli/Blank.png,0,0.0,0.0,0,18,18,18,,,,,,,,,,,,,36.74809060000007,-0.0019093999999313382,None,80.35532620000049,80.35532620000049,80.35532620000049,80.35532620000049,80.35532620000049,80.35532620000049,80.35532620000049,80.35532620000049,80.35532620000049,80.35532620000049,,004,P007,2025_Feb_01_0956,ConditionRich,2021.2.3,59.93705410575036,
40.0,40.75,22,0.75,Stimuli/P007/things_boar_04s.jpg,0,0.0,0.0,0,19,19,19,,,,,,,,,,,,,40.00126139999975,0.0012613999997483916,None,83.62489760000062,83.62489760000062,83.62489760000062,83.62489760000062,83.62489760000062,83.62489760000062,83.62489760000062,83.62489760000062,83.62489760000062,83.62489760000062,,004,P007,2025_Feb_01_0956,ConditionRich,2021.2.3,59.93705410575036,
40.75,44.0,41,0.0,Stimuli/Blank.png,0,0.0,0.0,0,20,20,20,,,,,,,,,,,,,40.76870940000026,0.018709400000261667,None,84.37554110000019,84.37554110000019,84.37554110000019,84.37554110000019,84.37554110000019,84.37554110000019,84.37554110000019,84.37554110000019,84.37554110000019,84.37554110000019,,004,P007,2025_Feb_01_0956,ConditionRich,2021.2.3,59.93705410575036,
44.0,44.75,37,0.75,Stimuli/P007/things_praying_mantis_04s.jpg,0,0.0,0.0,0,21,21,21,,,,,,,,,,,,,44.0049125000005,0.004912500000500586,None,87.61173940000026,87.61173940000026,87.61173940000026,87.61173940000026,87.61173940000026,87.61173940000026,87.61173940000026,87.61173940000026,87.61173940000026,87.61173940000026,,004,P007,2025_Feb_01_0956,ConditionRich,2021.2.3,59.93705410575036,
44.75,48.0,41,0.0,Stimuli/Blank.png,0,0.0,0.0,0,22,22,22,,,,,,,,,,,,,44.75571089999994,0.005710899999940011,None,88.36240440000074,88.36240440000074,88.36240440000074,88.36240440000074,88.36240440000074,88.36240440000074,88.36240440000074,88.36240440000074,88.36240440000074,88.36240440000074,,004,P007,2025_Feb_01_0956,ConditionRich,2021.2.3,59.93705410575036,
48.0,48.75,4,0.75,Stimuli/P007/sun_awqukazlzsxaokai.jpg,0,0.0,0.0,0,23,23,23,,,,,,,,,,,,,48.00834920000034,0.008349200000338897,None,91.6152817000002,91.6152817000002,91.6152817000002,91.6152817000002,91.6152817000002,91.6152817000002,91.6152817000002,91.6152817000002,91.6152817000002,91.6152817000002,,004,P007,2025_Feb_01_0956,ConditionRich,2021.2.3,59.93705410575036,
48.75,52.0,41,0.0,Stimuli/Blank.png,0,0.0,0.0,0,24,24,24,,,,,,,,,,,,,48.759224299999914,0.009224299999914365,None,92.3659477000001,92.3659477000001,92.3659477000001,92.3659477000001,92.3659477000001,92.3659477000001,92.3659477000001,92.3659477000001,92.3659477000001,92.3659477000001,,004,P007,2025_Feb_01_0956,ConditionRich,2021.2.3,59.93705410575036,
52.0,52.75,2,0.75,Stimuli/P007/sun_ajyzloqaptmicnfr.jpg,0,0.0,0.0,0,25,25,25,,,,,,,,,,,,,52.0120466999997,0.01204669999970065,None,95.63551600000028,95.63551600000028,95.63551600000028,95.63551600000028,95.63551600000028,95.63551600000028,95.63551600000028,95.63551600000028,95.63551600000028,95.63551600000028,,004,P007,2025_Feb_01_0956,ConditionRich,2021.2.3,59.93705410575036,
52.75,56.0,41,0.0,Stimuli/Blank.png,1,1.25,2.0,0,26,26,26,,,,,,,,,,,,,52.77969759999996,0.02969759999996313,2,96.40285480000057,96.40285480000057,96.40285480000057,96.40285480000057,96.40285480000057,96.40285480000057,97.62119470000016,98.37125620000006,96.40285480000057,96.40285480000057,1.5734517999999298,004,P007,2025_Feb_01_0956,ConditionRich,2021.2.3,59.93705410575036,
56.0,56.75,29,0.75,Stimuli/P007/things_hawk_04s.jpg,0,0.0,0.0,0,27,27,27,,,,,,,,,,,,,56.01577840000027,0.015778400000272086,None,99.63905760000034,99.63905760000034,99.63905760000034,99.63905760000034,99.63905760000034,99.63905760000034,99.63905760000034,99.63905760000034,99.63905760000034,99.63905760000034,,004,P007,2025_Feb_01_0956,ConditionRich,2021.2.3,59.93705410575036,
56.75,60.0,41,0.0,Stimuli/Blank.png,0,0.0,0.0,0,28,28,28,,,,,,,,,,,,,56.766136299999744,0.016136299999743642,None,100.37310040000011,100.37310040000011,100.37310040000011,100.37310040000011,100.37310040000011,100.37310040000011,100.37310040000011,100.37310040000011,100.37310040000011,100.37310040000011,,004,P007,2025_Feb_01_0956,ConditionRich,2021.2.3,59.93705410575036,
60.0,60.75,35,0.75,Stimuli/P007/things_pecan_04s.jpg,0,0.0,0.0,0,29,29,29,,,,,,,,,,,,,60.00260460000027,0.002604600000267965,None,103.6092277000007,103.6092277000007,103.6092277000007,103.6092277000007,103.6092277000007,103.6092277000007,103.6092277000007,103.6092277000007,103.6092277000007,103.6092277000007,,004,P007,2025_Feb_01_0956,ConditionRich,2021.2.3,59.93705410575036,
60.75,64.0,41,0.0,Stimuli/Blank.png,0,0.0,0.0,0,30,30,30,,,,,,,,,,,,,60.753243699999985,0.0032436999999845284,None,104.35989300000074,104.35989300000074,104.35989300000074,104.35989300000074,104.35989300000074,104.35989300000074,104.35989300000074,104.35989300000074,104.35989300000074,104.35989300000074,,004,P007,2025_Feb_01_0956,ConditionRich,2021.2.3,59.93705410575036,
64.0,64.75,17,0.75,Stimuli/P007/sun_bnsxdhbsafbdyncy.jpg,0,0.0,0.0,0,31,31,31,,,,,,,,,,,,,64.00526290000016,0.005262900000161608,None,107.62946870000087,107.62946870000087,107.62946870000087,107.62946870000087,107.62946870000087,107.62946870000087,107.62946870000087,107.62946870000087,107.62946870000087,107.62946870000087,,004,P007,2025_Feb_01_0956,ConditionRich,2021.2.3,59.93705410575036,
64.75,68.0,41,0.0,Stimuli/Blank.png,0,0.0,0.0,0,32,32,32,,,,,,,,,,,,,64.7742302000006,0.024230200000602053,None,108.38012740000067,108.38012740000067,108.38012740000067,108.38012740000067,108.38012740000067,108.38012740000067,108.38012740000067,108.38012740000067,108.38012740000067,108.38012740000067,,004,P007,2025_Feb_01_0956,ConditionRich,2021.2.3,59.93705410575036,
68.0,68.75,14,0.75,Stimuli/P007/sun_bkvjqgmploznrhxt.jpg,0,0.0,0.0,0,33,33,33,,,,,,,,,,,,,68.00912990000052,0.0091299000005165,None,111.61630360000072,111.61630360000072,111.61630360000072,111.61630360000072,111.61630360000072,111.61630360000072,111.61630360000072,111.61630360000072,111.61630360000072,111.61630360000072,,004,P007,2025_Feb_01_0956,ConditionRich,2021.2.3,59.93705410575036,
68.75,72.0,41,0.0,Stimuli/Blank.png,0,0.0,0.0,0,34,34,34,,,,,,,,,,,,,68.76023690000056,0.010236900000563764,None,112.36697500000082,112.36697500000082,112.36697500000082,112.36697500000082,112.36697500000082,112.36697500000082,112.36697500000082,112.36697500000082,112.36697500000082,112.36697500000082,,004,P007,2025_Feb_01_0956,ConditionRich,2021.2.3,59.93705410575036,
72.0,72.75,3,0.75,Stimuli/P007/sun_aueftjhdwnvkbzlt.jpg,0,0.0,0.0,0,35,35,35,,,,,,,,,,,,,72.01247220000005,0.012472200000047451,None,115.6198486000003,115.6198486000003,115.6198486000003,115.6198486000003,115.6198486000003,115.6198486000003,115.6198486000003,115.6198486000003,115.6198486000003,115.6198486000003,,004,P007,2025_Feb_01_0956,ConditionRich,2021.2.3,59.93705410575036,
72.75,76.0,41,0.0,Stimuli/Blank.png,0,0.0,0.0,0,36,36,36,,,,,,,,,,,,,72.76368180000009,0.013681800000085786,None,116.3705159000001,116.3705159000001,116.3705159000001,116.3705159000001,116.3705159000001,116.3705159000001,116.3705159000001,116.3705159000001,116.3705159000001,116.3705159000001,,004,P007,2025_Feb_01_0956,ConditionRich,2021.2.3,59.93705410575036,
76.0,76.75,16,0.75,Stimuli/P007/sun_bnpggenxuowzsywq.jpg,1,0.0,0.75,0,37,37,37,,,,,,,,,,,,,75.99916110000049,-0.0008388999995077029,2,119.60671300000013,119.60671300000013,119.60671300000013,119.60671300000013,119.60671300000013,119.60671300000013,119.60671300000013,120.3406857,119.60671300000013,119.60671300000013,0.545518699999775,004,P007,2025_Feb_01_0956,ConditionRich,2021.2.3,59.93705410575036,
76.75,80.0,41,0.0,Stimuli/Blank.png,0,0.0,0.0,0,38,38,38,,,,,,,,,,,,,76.75030310000056,0.00030310000056488207,None,120.3573705000008,120.3573705000008,120.3573705000008,120.3573705000008,120.3573705000008,120.3573705000008,120.3573705000008,120.3573705000008,120.3573705000008,120.3573705000008,,004,P007,2025_Feb_01_0956,ConditionRich,2021.2.3,59.93705410575036,
80.0,80.75,7,0.75,Stimuli/P007/sun_babhwrqvnhanonuy.jpg,0,0.0,0.0,0,39,39,39,,,,,,,,,,,,,80.00300460000017,0.0030046000001675566,None,123.61024930000076,123.61024930000076,123.61024930000076,123.61024930000076,123.61024930000076,123.61024930000076,123.61024930000076,123.61024930000076,123.61024930000076,123.61024930000076,,004,P007,2025_Feb_01_0956,ConditionRich,2021.2.3,59.93705410575036,
80.75,84.0,41,0.0,Stimuli/Blank.png,0,0.0,0.0,0,40,40,40,,,,,,,,,,,,,80.75395690000005,0.003956900000048336,None,124.36091370000031,124.36091370000031,124.36091370000031,124.36091370000031,124.36091370000031,124.36091370000031,124.36091370000031,124.36091370000031,124.36091370000031,124.36091370000031,,004,P007,2025_Feb_01_0956,ConditionRich,2021.2.3,59.93705410575036,
84.0,100.0,0,0.0,Stimuli/Blank.png,1,10.0,10.75,0,41,41,41,,,,,,,,,,,,,84.00924639999994,0.009246399999938149,2,127.63047160000042,127.63047160000042,127.63047160000042,127.63047160000042,127.63047160000042,127.63047160000042,137.60595250000006,138.3566131000007,127.63047160000042,127.63047160000042,10.34687489999942,004,P007,2025_Feb_01_0956,ConditionRich,2021.2.3,59.93705410575036,
100.0,100.75,6,0.75,Stimuli/P007/sun_azpjjfwsbjdjcopb.jpg,1,0.0,0.75,0,42,42,42,,,,,,,,,,,,,100.02137670000047,0.021376700000473647,2,143.62795630000073,143.62795630000073,143.62795630000073,143.62795630000073,143.62795630000073,143.62795630000073,143.62795630000073,None,143.62795630000073,143.62795630000073,0.36015450000013516,004,P007,2025_Feb_01_0956,ConditionRich,2021.2.3,59.93705410575036,
100.75,104.0,41,0.0,Stimuli/Blank.png,0,0.0,0.0,0,43,43,43,,,,,,,,,,,,,100.7548084,0.004808400000001711,None,144.36194240000077,144.36194240000077,144.36194240000077,144.36194240000077,144.36194240000077,144.36194240000077,144.36194240000077,144.36194240000077,144.36194240000077,144.36194240000077,,004,P007,2025_Feb_01_0956,ConditionRich,2021.2.3,59.93705410575036,
104.0,104.75,33,0.75,Stimuli/P007/things_man_04s.jpg,0,0.0,0.0,0,44,44,44,,,,,,,,,,,,,104.00818660000004,0.008186600000044564,None,147.61480590000065,147.61480590000065,147.61480590000065,147.61480590000065,147.61480590000065,147.61480590000065,147.61480590000065,147.61480590000065,147.61480590000065,147.61480590000065,,004,P007,2025_Feb_01_0956,ConditionRich,2021.2.3,59.93705410575036,
104.75,108.0,41,0.0,Stimuli/Blank.png,0,0.0,0.0,0,45,45,45,,,,,,,,,,,,,104.7582024000003,0.008202400000300258,None,148.36545300000034,148.36545300000034,148.36545300000034,148.36545300000034,148.36545300000034,148.36545300000034,148.36545300000034,148.36545300000034,148.36545300000034,148.36545300000034,,004,P007,2025_Feb_01_0956,ConditionRich,2021.2.3,59.93705410575036,
108.0,108.75,23,0.75,Stimuli/P007/things_bumper_04s.jpg,0,0.0,0.0,0,46,46,46,,,,,,,,,,,,,108.01367370000025,0.01367370000025403,None,151.6350540000003,151.6350540000003,151.6350540000003,151.6350540000003,151.6350540000003,151.6350540000003,151.6350540000003,151.6350540000003,151.6350540000003,151.6350540000003,,004,P007,2025_Feb_01_0956,ConditionRich,2021.2.3,59.93705410575036,
108.75,112.0,41,0.0,Stimuli/Blank.png,1,2.25,3.0,0,47,47,47,,,,,,,,,,,,,108.77828130000034,0.028281300000344345,2,152.38570080000045,152.38570080000045,152.38570080000045,152.38570080000045,152.38570080000045,152.38570080000045,154.6210271,155.37168420000035,152.38570080000045,152.38570080000045,2.6183987999993406,004,P007,2025_Feb_01_0956,ConditionRich,2021.2.3,59.93705410575036,
112.0,112.75,19,0.75,Stimuli/P007/sun_brpfgrmubnnjvfkw.jpg,0,0.0,0.0,0,48,48,48,,,,,,,,,,,,,112.01459460000024,0.014594600000236824,None,155.6218867000007,155.6218867000007,155.6218867000007,155.6218867000007,155.6218867000007,155.6218867000007,155.6218867000007,155.6218867000007,155.6218867000007,155.6218867000007,,004,P007,2025_Feb_01_0956,ConditionRich,2021.2.3,59.93705410575036,
112.75,116.0,41,0.0,Stimuli/Blank.png,0,0.0,0.0,0,49,49,49,,,,,,,,,,,,,112.7651163999999,0.015116399999897112,None,156.37256230000003,156.37256230000003,156.37256230000003,156.37256230000003,156.37256230000003,156.37256230000003,156.37256230000003,156.37256230000003,156.37256230000003,156.37256230000003,,004,P007,2025_Feb_01_0956,ConditionRich,2021.2.3,59.93705410575036,
116.0,116.75,31,0.75,Stimuli/P007/things_jug_04s.jpg,0,0.0,0.0,0,50,50,50,,,,,,,,,,,,,116.00213249999979,0.002132499999788706,None,159.60875270000088,159.60875270000088,159.60875270000088,159.60875270000088,159.60875270000088,159.60875270000088,159.60875270000088,159.60875270000088,159.60875270000088,159.60875270000088,,004,P007,2025_Feb_01_0956,ConditionRich,2021.2.3,59.93705410575036,
116.75,120.0,41,0.0,Stimuli/Blank.png,0,0.0,0.0,0,51,51,51,,,,,,,,,,,,,116.75484070000039,0.004840700000386278,None,160.3761140000006,160.3761140000006,160.3761140000006,160.3761140000006,160.3761140000006,160.3761140000006,160.3761140000006,160.3761140000006,160.3761140000006,160.3761140000006,,004,P007,2025_Feb_01_0956,ConditionRich,2021.2.3,59.93705410575036,
120.0,120.75,30,0.75,Stimuli/P007/things_jalapeno_04s.jpg,0,0.0,0.0,0,52,52,52,,,,,,,,,,,,,120.02374560000044,0.02374560000043857,None,163.6456601,163.6456601,163.6456601,163.6456601,163.6456601,163.6456601,163.6456601,163.6456601,163.6456601,163.6456601,,004,P007,2025_Feb_01_0956,ConditionRich,2021.2.3,59.93705410575036,
120.75,124.0,41,0.0,Stimuli/Blank.png,0,0.0,0.0,0,53,53,53,,,,,,,,,,,,,120.77434989999983,0.024349899999833724,None,164.39631940000072,164.39631940000072,164.39631940000072,164.39631940000072,164.39631940000072,164.39631940000072,164.39631940000072,164.39631940000072,164.39631940000072,164.39631940000072,,004,P007,2025_Feb_01_0956,ConditionRich,2021.2.3,59.93705410575036,
124.0,124.75,1,0.75,Stimuli/P007/sun_abrlrupzcrwpxqfc.jpg,0,0.0,0.0,0,54,54,54,,,,,,,,,,,,,124.02516970000033,0.02516970000033325,None,167.63255050000043,167.63255050000043,167.63255050000043,167.63255050000043,167.63255050000043,167.63255050000043,167.63255050000043,167.63255050000043,167.63255050000043,167.63255050000043,,004,P007,2025_Feb_01_0956,ConditionRich,2021.2.3,59.93705410575036,
124.75,128.0,41,0.0,Stimuli/Blank.png,0,0.0,0.0,0,55,55,55,,,,,,,,,,,,,124.75979370000005,0.009793700000045646,None,168.3665017000003,168.3665017000003,168.3665017000003,168.3665017000003,168.3665017000003,168.3665017000003,168.3665017000003,168.3665017000003,168.3665017000003,168.3665017000003,,004,P007,2025_Feb_01_0956,ConditionRich,2021.2.3,59.93705410575036,
128.0,128.75,13,0.75,Stimuli/P007/sun_bkhuvtsqontzwtbo.jpg,0,0.0,0.0,0,56,56,56,,,,,,,,,,,,,128.0125790000002,0.01257900000018708,None,171.63605540000026,171.63605540000026,171.63605540000026,171.63605540000026,171.63605540000026,171.63605540000026,171.63605540000026,171.63605540000026,171.63605540000026,171.63605540000026,,004,P007,2025_Feb_01_0956,ConditionRich,2021.2.3,59.93705410575036,
128.75,132.0,41,0.0,Stimuli/Blank.png,0,0.0,0.0,0,57,57,57,,,,,,,,,,,,,128.77962380000008,0.029623800000081246,None,172.38672450000013,172.38672450000013,172.38672450000013,172.38672450000013,172.38672450000013,172.38672450000013,172.38672450000013,172.38672450000013,172.38672450000013,172.38672450000013,,004,P007,2025_Feb_01_0956,ConditionRich,2021.2.3,59.93705410575036,
132.0,132.75,12,0.75,Stimuli/P007/sun_bitpmyvulluuasab.jpg,0,0.0,0.0,0,58,58,58,,,,,,,,,,,,,131.99919229999978,-0.0008077000002231216,None,175.60623450000003,175.60623450000003,175.60623450000003,175.60623450000003,175.60623450000003,175.60623450000003,175.60623450000003,175.60623450000003,175.60623450000003,175.60623450000003,,004,P007,2025_Feb_01_0956,ConditionRich,2021.2.3,59.93705410575036,
132.75,136.0,41,0.0,Stimuli/Blank.png,0,0.0,0.0,0,59,59,59,,,,,,,,,,,,,132.7493957000006,-0.0006042999993951526,None,176.35689430000002,176.35689430000002,176.35689430000002,176.35689430000002,176.35689430000002,176.35689430000002,176.35689430000002,176.35689430000002,176.35689430000002,176.35689430000002,,004,P007,2025_Feb_01_0956,ConditionRich,2021.2.3,59.93705410575036,
136.0,136.75,24,0.75,Stimuli/P007/things_collar_04s.jpg,0,0.0,0.0,0,60,60,60,,,,,,,,,,,,,136.00222510000003,0.0022251000000323984,None,179.60978140000043,179.60978140000043,179.60978140000043,179.60978140000043,179.60978140000043,179.60978140000043,179.60978140000043,179.60978140000043,179.60978140000043,179.60978140000043,,004,P007,2025_Feb_01_0956,ConditionRich,2021.2.3,59.93705410575036,
136.75,140.0,41,0.0,Stimuli/Blank.png,0,0.0,0.0,0,61,61,61,,,,,,,,,,,,,136.75313259999984,0.0031325999998443876,None,180.3604331000006,180.3604331000006,180.3604331000006,180.3604331000006,180.3604331000006,180.3604331000006,180.3604331000006,180.3604331000006,180.3604331000006,180.3604331000006,,004,P007,2025_Feb_01_0956,ConditionRich,2021.2.3,59.93705410575036,
140.0,140.75,27,0.75,Stimuli/P007/things_fur_coat_04s.jpg,0,0.0,0.0,0,62,62,62,,,,,,,,,,,,,140.00614140000016,0.006141400000160502,None,183.6299981000002,183.6299981000002,183.6299981000002,183.6299981000002,183.6299981000002,183.6299981000002,183.6299981000002,183.6299981000002,183.6299981000002,183.6299981000002,,004,P007,2025_Feb_01_0956,ConditionRich,2021.2.3,59.93705410575036,
140.75,144.0,41,0.0,Stimuli/Blank.png,1,0.25,1.0,0,63,63,63,,,,,,,,,,,,,140.7743859000002,0.02438590000019758,2,184.3806725000004,184.3806725000004,184.3806725000004,184.3806725000004,184.3806725000004,184.3806725000004,184.6142314000008,185.36490140000024,184.3806725000004,184.3806725000004,0.6524649000002682,004,P007,2025_Feb_01_0956,ConditionRich,2021.2.3,59.93705410575036,
144.0,144.75,11,0.75,Stimuli/P007/sun_bdsriuscubkvzrmt.jpg,1,0.0,0.75,0,64,64,64,,,,,,,,,,,,,144.00939290000042,0.009392900000420923,2,187.61685400000079,187.61685400000079,187.61685400000079,187.61685400000079,187.61685400000079,187.61685400000079,187.61685400000079,188.3512139000004,187.61685400000079,187.61685400000079,0.3792866999992839,004,P007,2025_Feb_01_0956,ConditionRich,2021.2.3,59.93705410575036,
144.75,148.0,41,0.0,Stimuli/Blank.png,0,0.0,0.0,0,65,65,65,,,,,,,,,,,,,144.7613521000003,0.01135210000029474,None,188.36773210000047,188.36773210000047,188.36773210000047,188.36773210000047,188.36773210000047,188.36773210000047,188.36773210000047,188.36773210000047,188.36773210000047,188.36773210000047,,004,P007,2025_Feb_01_0956,ConditionRich,2021.2.3,59.93705410575036,
148.0,148.75,28,0.75,Stimuli/P007/things_girl_04s.jpg,0,0.0,0.0,0,66,66,66,,,,,,,,,,,,,148.01413479999974,0.01413479999973788,None,191.6370966000004,191.6370966000004,191.6370966000004,191.6370966000004,191.6370966000004,191.6370966000004,191.6370966000004,191.6370966000004,191.6370966000004,191.6370966000004,,004,P007,2025_Feb_01_0956,ConditionRich,2021.2.3,59.93705410575036,
148.75,152.0,41,0.0,Stimuli/Blank.png,0,0.0,0.0,0,67,67,67,,,,,,,,,,,,,148.78104669999993,0.03104669999993348,None,192.38774080000076,192.38774080000076,192.38774080000076,192.38774080000076,192.38774080000076,192.38774080000076,192.38774080000076,192.38774080000076,192.38774080000076,192.38774080000076,,004,P007,2025_Feb_01_0956,ConditionRich,2021.2.3,59.93705410575036,
152.0,152.75,34,0.75,Stimuli/P007/things_moose_04s.jpg,0,0.0,0.0,0,68,68,68,,,,,,,,,,,,,151.9996916,-0.00030839999999443535,None,195.60725720000028,195.60725720000028,195.60725720000028,195.60725720000028,195.60725720000028,195.60725720000028,195.60725720000028,195.60725720000028,195.60725720000028,195.60725720000028,,004,P007,2025_Feb_01_0956,ConditionRich,2021.2.3,59.93705410575036,
152.75,156.0,41,0.0,Stimuli/Blank.png,0,0.0,0.0,0,69,69,69,,,,,,,,,,,,,152.75166890000037,0.0016689000003680121,None,196.3580008000008,196.3580008000008,196.3580008000008,196.3580008000008,196.3580008000008,196.3580008000008,196.3580008000008,196.3580008000008,196.3580008000008,196.3580008000008,,004,P007,2025_Feb_01_0956,ConditionRich,2021.2.3,59.93705410575036,
156.0,156.75,21,0.75,Stimuli/P007/things_baby_04s.jpg,0,0.0,0.0,0,70,70,70,,,,,,,,,,,,,156.00336080000034,0.0033608000003368943,None,199.61080120000042,199.61080120000042,199.61080120000042,199.61080120000042,199.61080120000042,199.61080120000042,199.61080120000042,199.61080120000042,199.61080120000042,199.61080120000042,,004,P007,2025_Feb_01_0956,ConditionRich,2021.2.3,59.93705410575036,
156.75,160.0,41,0.0,Stimuli/Blank.png,0,0.0,0.0,0,71,71,71,,,,,,,,,,,,,156.75543910000033,0.0054391000003306544,None,200.37816629999998,200.37816629999998,200.37816629999998,200.37816629999998,200.37816629999998,200.37816629999998,200.37816629999998,200.37816629999998,200.37816629999998,200.37816629999998,,004,P007,2025_Feb_01_0956,ConditionRich,2021.2.3,59.93705410575036,
160.0,160.75,15,0.75,Stimuli/P007/sun_bmeductqpfkygtww.jpg,0,0.0,0.0,0,72,72,72,,,,,,,,,,,,,160.02349849999973,0.023498499999732303,None,203.63101730000017,203.63101730000017,203.63101730000017,203.63101730000017,203.63101730000017,203.63101730000017,203.63101730000017,203.63101730000017,203.63101730000017,203.63101730000017,,004,P007,2025_Feb_01_0956,ConditionRich,2021.2.3,59.93705410575036,
160.75,164.0,41,0.0,Stimuli/Blank.png,0,0.0,0.0,0,73,73,73,,,,,,,,,,,,,160.75903500000004,0.009035000000039872,None,204.36502910000036,204.36502910000036,204.36502910000036,204.36502910000036,204.36502910000036,204.36502910000036,204.36502910000036,204.36502910000036,204.36502910000036,204.36502910000036,,004,P007,2025_Feb_01_0956,ConditionRich,2021.2.3,59.93705410575036,
164.0,164.75,36,0.75,Stimuli/P007/things_platypus_04s.jpg,0,0.0,0.0,0,74,74,74,,,,,,,,,,,,,164.01128719999997,0.011287199999969744,None,207.61787690000074,207.61787690000074,207.61787690000074,207.61787690000074,207.61787690000074,207.61787690000074,207.61787690000074,207.61787690000074,207.61787690000074,207.61787690000074,,004,P007,2025_Feb_01_0956,ConditionRich,2021.2.3,59.93705410575036,
164.75,168.0,41,0.0,Stimuli/Blank.png,0,0.0,0.0,0,75,75,75,,,,,,,,,,,,,164.7614241000001,0.011424100000112958,None,208.3685213000008,208.3685213000008,208.3685213000008,208.3685213000008,208.3685213000008,208.3685213000008,208.3685213000008,208.3685213000008,208.3685213000008,208.3685213000008,,004,P007,2025_Feb_01_0956,ConditionRich,2021.2.3,59.93705410575036,
168.0,168.75,38,0.75,Stimuli/P007/things_rollerblade_04s.jpg,0,0.0,0.0,0,76,76,76,,,,,,,,,,,,,168.0140265,0.014026499999999942,None,211.6214275000002,211.6214275000002,211.6214275000002,211.6214275000002,211.6214275000002,211.6214275000002,211.6214275000002,211.6214275000002,211.6214275000002,211.6214275000002,,004,P007,2025_Feb_01_0956,ConditionRich,2021.2.3,59.93705410575036,
168.75,172.0,41,0.0,Stimuli/Blank.png,0,0.0,0.0,0,77,77,77,,,,,,,,,,,,,168.76467950000006,0.014679500000056578,None,212.37208290000035,212.37208290000035,212.37208290000035,212.37208290000035,212.37208290000035,212.37208290000035,212.37208290000035,212.37208290000035,212.37208290000035,212.37208290000035,,004,P007,2025_Feb_01_0956,ConditionRich,2021.2.3,59.93705410575036,
172.0,172.75,18,0.75,Stimuli/P007/sun_borgfidyubrwsuuw.jpg,0,0.0,0.0,0,78,78,78,,,,,,,,,,,,,172.00155069999983,0.0015506999998251558,None,215.62496330000067,215.62496330000067,215.62496330000067,215.62496330000067,215.62496330000067,215.62496330000067,215.62496330000067,215.62496330000067,215.62496330000067,215.62496330000067,,004,P007,2025_Feb_01_0956,ConditionRich,2021.2.3,59.93705410575036,
172.75,176.0,41,0.0,Stimuli/Blank.png,0,0.0,0.0,0,79,79,79,,,,,,,,,,,,,172.7697079999998,0.019707999999809545,None,216.37563170000067,216.37563170000067,216.37563170000067,216.37563170000067,216.37563170000067,216.37563170000067,216.37563170000067,216.37563170000067,216.37563170000067,216.37563170000067,,004,P007,2025_Feb_01_0956,ConditionRich,2021.2.3,59.93705410575036,
176.0,176.75,26,0.75,Stimuli/P007/things_face_04s.jpg,0,0.0,0.0,0,80,80,80,,,,,,,,,,,,,176.00461040000027,0.00461040000027424,None,219.61181580000084,219.61181580000084,219.61181580000084,219.61181580000084,219.61181580000084,219.61181580000084,219.61181580000084,219.61181580000084,219.61181580000084,219.61181580000084,,004,P007,2025_Feb_01_0956,ConditionRich,2021.2.3,59.93705410575036,
176.75,180.0,41,0.0,Stimuli/Blank.png,0,0.0,0.0,0,81,81,81,,,,,,,,,,,,,176.75567460000002,0.005674600000020291,None,220.36248310000065,220.36248310000065,220.36248310000065,220.36248310000065,220.36248310000065,220.36248310000065,220.36248310000065,220.36248310000065,220.36248310000065,220.36248310000065,,004,P007,2025_Feb_01_0956,ConditionRich,2021.2.3,59.93705410575036,
180.0,196.0,0,0.0,Stimuli/Blank.png,1,4.0,4.75,0,82,82,82,,,,,,,,,,,,,180.00943900000038,0.009439000000384112,2,223.61537790000057,223.61537790000057,223.61537790000057,223.61537790000057,223.61537790000057,223.61537790000057,227.60226039999998,228.35294160000012,223.61537790000057,223.61537790000057,4.398756099999446,004,P007,2025_Feb_01_0956,ConditionRich,2021.2.3,59.93705410575036,
196.0,196.75,6,0.75,Stimuli/P007/sun_azpjjfwsbjdjcopb.jpg,0,0.0,0.0,0,83,83,83,,,,,,,,,,,,,196.00666060000003,0.006660600000031991,None,239.62951840000005,239.62951840000005,239.62951840000005,239.62951840000005,239.62951840000005,239.62951840000005,239.62951840000005,239.62951840000005,239.62951840000005,239.62951840000005,,004,P007,2025_Feb_01_0956,ConditionRich,2021.2.3,59.93705410575036,
196.75,200.0,41,0.0,Stimuli/Blank.png,0,0.0,0.0,0,84,84,84,,,,,,,,,,,,,196.7736044000003,0.023604400000294845,None,240.38019359999998,240.38019359999998,240.38019359999998,240.38019359999998,240.38019359999998,240.38019359999998,240.38019359999998,240.38019359999998,240.38019359999998,240.38019359999998,,004,P007,2025_Feb_01_0956,ConditionRich,2021.2.3,59.93705410575036,
200.0,200.75,8,0.75,Stimuli/P007/sun_bbnepvzvycqjjczs.jpg,0,0.0,0.0,0,85,85,85,,,,,,,,,,,,,200.01045440000053,0.01045440000052622,None,243.63306170000033,243.63306170000033,243.63306170000033,243.63306170000033,243.63306170000033,243.63306170000033,243.63306170000033,243.63306170000033,243.63306170000033,243.63306170000033,,004,P007,2025_Feb_01_0956,ConditionRich,2021.2.3,59.93705410575036,
200.75,204.0,41,0.0,Stimuli/Blank.png,0,0.0,0.0,0,86,86,86,,,,,,,,,,,,,200.77699310000025,0.026993100000254344,None,244.38373800000045,244.38373800000045,244.38373800000045,244.38373800000045,244.38373800000045,244.38373800000045,244.38373800000045,244.38373800000045,244.38373800000045,244.38373800000045,,004,P007,2025_Feb_01_0956,ConditionRich,2021.2.3,59.93705410575036,
204.0,204.75,13,0.75,Stimuli/P007/sun_bkhuvtsqontzwtbo.jpg,0,0.0,0.0,0,87,87,87,,,,,,,,,,,,,204.0131167999998,0.013116799999806972,None,247.63660140000047,247.63660140000047,247.63660140000047,247.63660140000047,247.63660140000047,247.63660140000047,247.63660140000047,247.63660140000047,247.63660140000047,247.63660140000047,,004,P007,2025_Feb_01_0956,ConditionRich,2021.2.3,59.93705410575036,
204.75,208.0,41,0.0,Stimuli/Blank.png,0,0.0,0.0,0,88,88,88,,,,,,,,,,,,,204.7804285000002,0.030428500000198255,None,248.3872650000003,248.3872650000003,248.3872650000003,248.3872650000003,248.3872650000003,248.3872650000003,248.3872650000003,248.3872650000003,248.3872650000003,248.3872650000003,,004,P007,2025_Feb_01_0956,ConditionRich,2021.2.3,59.93705410575036,
208.0,208.75,40,0.75,Stimuli/P007/things_woman_04s.jpg,0,0.0,0.0,0,89,89,89,,,,,,,,,,,,,207.99951580000015,-0.0004841999998461688,None,251.60678130000088,251.60678130000088,251.60678130000088,251.60678130000088,251.60678130000088,251.60678130000088,251.60678130000088,251.60678130000088,251.60678130000088,251.60678130000088,,004,P007,2025_Feb_01_0956,ConditionRich,2021.2.3,59.93705410575036,
208.75,212.0,41,0.0,Stimuli/Blank.png,0,0.0,0.0,0,90,90,90,,,,,,,,,,,,,208.74990510000043,-9.489999956713291e-05,None,252.35744910000085,252.35744910000085,252.35744910000085,252.35744910000085,252.35744910000085,252.35744910000085,252.35744910000085,252.35744910000085,252.35744910000085,252.35744910000085,,004,P007,2025_Feb_01_0956,ConditionRich,2021.2.3,59.93705410575036,
212.0,212.75,16,0.75,Stimuli/P007/sun_bnpggenxuowzsywq.jpg,1,0.0,0.75,0,91,91,91,,,,,,,,,,,,,212.00297109999974,0.002971099999740545,2,255.61032590000013,255.61032590000013,255.61032590000013,255.61032590000013,255.61032590000013,255.61032590000013,255.61032590000013,256.3443352000004,255.61032590000013,255.61032590000013,0.43586899999991147,004,P007,2025_Feb_01_0956,ConditionRich,2021.2.3,59.93705410575036,
212.75,216.0,41,0.0,Stimuli/Blank.png,0,0.0,0.0,0,92,92,92,,,,,,,,,,,,,212.75481889999992,0.004818899999918358,None,256.36099060000015,256.36099060000015,256.36099060000015,256.36099060000015,256.36099060000015,256.36099060000015,256.36099060000015,256.36099060000015,256.36099060000015,256.36099060000015,,004,P007,2025_Feb_01_0956,ConditionRich,2021.2.3,59.93705410575036,
216.0,216.75,25,0.75,Stimuli/P007/things_credit_card_04s.jpg,0,0.0,0.0,0,93,93,93,,,,,,,,,,,,,216.00634009999976,0.006340099999761151,None,259.6305598000008,259.6305598000008,259.6305598000008,259.6305598000008,259.6305598000008,259.6305598000008,259.6305598000008,259.6305598000008,259.6305598000008,259.6305598000008,,004,P007,2025_Feb_01_0956,ConditionRich,2021.2.3,59.93705410575036,
216.75,220.0,41,0.0,Stimuli/Blank.png,1,0.25,1.0,0,94,94,94,,,,,,,,,,,,,216.77429370000027,0.0242937000002712,2,260.38121560000036,260.38121560000036,260.38121560000036,260.38121560000036,260.38121560000036,260.38121560000036,260.61476980000043,261.3654140000008,260.38121560000036,260.38121560000036,0.5659423999995852,004,P007,2025_Feb_01_0956,ConditionRich,2021.2.3,59.93705410575036,
220.0,220.75,19,0.75,Stimuli/P007/sun_brpfgrmubnnjvfkw.jpg,0,0.0,0.0,0,95,95,95,,,,,,,,,,,,,220.0107435,0.01074349999998958,None,263.63412140000037,263.63412140000037,263.63412140000037,263.63412140000037,263.63412140000037,263.63412140000037,263.63412140000037,263.63412140000037,263.63412140000037,263.63412140000037,,004,P007,2025_Feb_01_0956,ConditionRich,2021.2.3,59.93705410575036,
220.75,224.0,41,0.0,Stimuli/Blank.png,0,0.0,0.0,0,96,96,96,,,,,,,,,,,,,220.77987380000013,0.029873800000132178,None,264.40144110000074,264.40144110000074,264.40144110000074,264.40144110000074,264.40144110000074,264.40144110000074,264.40144110000074,264.40144110000074,264.40144110000074,264.40144110000074,,004,P007,2025_Feb_01_0956,ConditionRich,2021.2.3,59.93705410575036,
224.0,224.75,18,0.75,Stimuli/P007/sun_borgfidyubrwsuuw.jpg,0,0.0,0.0,0,97,97,97,,,,,,,,,,,,,224.01362130000052,0.013621300000522751,None,267.62094480000087,267.62094480000087,267.62094480000087,267.62094480000087,267.62094480000087,267.62094480000087,267.62094480000087,267.62094480000087,267.62094480000087,267.62094480000087,,004,P007,2025_Feb_01_0956,ConditionRich,2021.2.3,59.93705410575036,
224.75,228.0,41,0.0,Stimuli/Blank.png,0,0.0,0.0,0,98,98,98,,,,,,,,,,,,,224.76474490000055,0.014744900000550842,None,268.3716148000003,268.3716148000003,268.3716148000003,268.3716148000003,268.3716148000003,268.3716148000003,268.3716148000003,268.3716148000003,268.3716148000003,268.3716148000003,,004,P007,2025_Feb_01_0956,ConditionRich,2021.2.3,59.93705410575036,
228.0,228.75,17,0.75,Stimuli/P007/sun_bnsxdhbsafbdyncy.jpg,0,0.0,0.0,0,99,99,99,,,,,,,,,,,,,228.0012385,0.0012384999999994761,None,271.62452380000013,271.62452380000013,271.62452380000013,271.62452380000013,271.62452380000013,271.62452380000013,271.62452380000013,271.62452380000013,271.62452380000013,271.62452380000013,,004,P007,2025_Feb_01_0956,ConditionRich,2021.2.3,59.93705410575036,
228.75,232.0,41,0.0,Stimuli/Blank.png,0,0.0,0.0,0,100,100,100,,,,,,,,,,,,,228.7682906,0.018290600000000268,None,272.3751675000003,272.3751675000003,272.3751675000003,272.3751675000003,272.3751675000003,272.3751675000003,272.3751675000003,272.3751675000003,272.3751675000003,272.3751675000003,,004,P007,2025_Feb_01_0956,ConditionRich,2021.2.3,59.93705410575036,
232.0,232.75,7,0.75,Stimuli/P007/sun_babhwrqvnhanonuy.jpg,0,0.0,0.0,0,101,101,101,,,,,,,,,,,,,232.0049183000001,0.004918300000099407,None,275.6280211000003,275.6280211000003,275.6280211000003,275.6280211000003,275.6280211000003,275.6280211000003,275.6280211000003,275.6280211000003,275.6280211000003,275.6280211000003,,004,P007,2025_Feb_01_0956,ConditionRich,2021.2.3,59.93705410575036,
232.75,236.0,41,0.0,Stimuli/Blank.png,1,1.25,2.0,0,102,102,102,,,,,,,,,,,,,232.7713491000004,0.021349100000406906,2,276.3786985000006,276.3786985000006,276.3786985000006,276.3786985000006,276.3786985000006,276.3786985000006,277.6131574000001,278.36375990000033,276.3786985000006,276.3786985000006,1.5816018000004988,004,P007,2025_Feb_01_0956,ConditionRich,2021.2.3,59.93705410575036,
236.0,236.75,20,0.75,Stimuli/P007/sun_btrxtfbwtggtrpfv.jpg,0,0.0,0.0,0,103,103,103,,,,,,,,,,,,,236.00960039999973,0.009600399999726505,None,279.63157240000055,279.63157240000055,279.63157240000055,279.63157240000055,279.63157240000055,279.63157240000055,279.63157240000055,279.63157240000055,279.63157240000055,279.63157240000055,,004,P007,2025_Feb_01_0956,ConditionRich,2021.2.3,59.93705410575036,
236.75,240.0,41,0.0,Stimuli/Blank.png,0,0.0,0.0,0,104,104,104,,,,,,,,,,,,,236.77523590000055,0.025235900000552647,None,280.3822418,280.3822418,280.3822418,280.3822418,280.3822418,280.3822418,280.3822418,280.3822418,280.3822418,280.3822418,,004,P007,2025_Feb_01_0956,ConditionRich,2021.2.3,59.93705410575036,
240.0,240.75,3,0.75,Stimuli/P007/sun_aueftjhdwnvkbzlt.jpg,0,0.0,0.0,0,105,105,105,,,,,,,,,,,,,240.01388310000038,0.01388310000038473,None,283.6351284000002,283.6351284000002,283.6351284000002,283.6351284000002,283.6351284000002,283.6351284000002,283.6351284000002,283.6351284000002,283.6351284000002,283.6351284000002,,004,P007,2025_Feb_01_0956,ConditionRich,2021.2.3,59.93705410575036,
240.75,244.0,41,0.0,Stimuli/Blank.png,0,0.0,0.0,0,106,106,106,,,,,,,,,,,,,240.7794904000002,0.029490400000213413,None,284.38577670000086,284.38577670000086,284.38577670000086,284.38577670000086,284.38577670000086,284.38577670000086,284.38577670000086,284.38577670000086,284.38577670000086,284.38577670000086,,004,P007,2025_Feb_01_0956,ConditionRich,2021.2.3,59.93705410575036,
244.0,244.75,11,0.75,Stimuli/P007/sun_bdsriuscubkvzrmt.jpg,0,0.0,0.0,0,107,107,107,,,,,,,,,,,,,243.99777880000056,-0.0022211999994397047,None,287.60528740000063,287.60528740000063,287.60528740000063,287.60528740000063,287.60528740000063,287.60528740000063,287.60528740000063,287.60528740000063,287.60528740000063,287.60528740000063,,004,P007,2025_Feb_01_0956,ConditionRich,2021.2.3,59.93705410575036,
244.75,248.0,41,0.0,Stimuli/Blank.png,0,0.0,0.0,0,108,108,108,,,,,,,,,,,,,244.76506160000008,0.015061600000080944,None,288.3726422000009,288.3726422000009,288.3726422000009,288.3726422000009,288.3726422000009,288.3726422000009,288.3726422000009,288.3726422000009,288.3726422000009,288.3726422000009,,004,P007,2025_Feb_01_0956,ConditionRich,2021.2.3,59.93705410575036,
248.0,248.75,26,0.75,Stimuli/P007/things_face_04s.jpg,0,0.0,0.0,0,109,109,109,,,,,,,,,,,,,248.00413209999988,0.004132099999878847,None,291.6255250000004,291.6255250000004,291.6255250000004,291.6255250000004,291.6255250000004,291.6255250000004,291.6255250000004,291.6255250000004,291.6255250000004,291.6255250000004,,004,P007,2025_Feb_01_0956,ConditionRich,2021.2.3,59.93705410575036,
248.75,252.0,41,0.0,Stimuli/Blank.png,0,0.0,0.0,0,110,110,110,,,,,,,,,,,,,248.7686179000002,0.018617900000208465,None,292.3761688000004,292.3761688000004,292.3761688000004,292.3761688000004,292.3761688000004,292.3761688000004,292.3761688000004,292.3761688000004,292.3761688000004,292.3761688000004,,004,P007,2025_Feb_01_0956,ConditionRich,2021.2.3,59.93705410575036,
252.0,252.75,28,0.75,Stimuli/P007/things_girl_04s.jpg,0,0.0,0.0,0,111,111,111,,,,,,,,,,,,,252.00478759999987,0.004787599999872327,None,295.6123737000007,295.6123737000007,295.6123737000007,295.6123737000007,295.6123737000007,295.6123737000007,295.6123737000007,295.6123737000007,295.6123737000007,295.6123737000007,,004,P007,2025_Feb_01_0956,ConditionRich,2021.2.3,59.93705410575036,
252.75,256.0,41,0.0,Stimuli/Blank.png,0,0.0,0.0,0,112,112,112,,,,,,,,,,,,,252.7556411000005,0.0056411000005027745,None,296.36303620000035,296.36303620000035,296.36303620000035,296.36303620000035,296.36303620000035,296.36303620000035,296.36303620000035,296.36303620000035,296.36303620000035,296.36303620000035,,004,P007,2025_Feb_01_0956,ConditionRich,2021.2.3,59.93705410575036,
256.0,256.75,10,0.75,Stimuli/P007/sun_bdekcgnlcicvgpvq.jpg,0,0.0,0.0,0,113,113,113,,,,,,,,,,,,,256.0084409000001,0.008440900000096008,None,299.6159066,299.6159066,299.6159066,299.6159066,299.6159066,299.6159066,299.6159066,299.6159066,299.6159066,299.6159066,,004,P007,2025_Feb_01_0956,ConditionRich,2021.2.3,59.93705410575036,
256.75,260.0,41,0.0,Stimuli/Blank.png,0,0.0,0.0,0,114,114,114,,,,,,,,,,,,,256.7591443000001,0.009144300000116345,None,300.3665725000001,300.3665725000001,300.3665725000001,300.3665725000001,300.3665725000001,300.3665725000001,300.3665725000001,300.3665725000001,300.3665725000001,300.3665725000001,,004,P007,2025_Feb_01_0956,ConditionRich,2021.2.3,59.93705410575036,
260.0,260.75,5,0.75,Stimuli/P007/sun_ayzkwnqsoiycbncn.jpg,0,0.0,0.0,0,115,115,115,,,,,,,,,,,,,260.0151487000003,0.015148700000281679,None,303.6361594,303.6361594,303.6361594,303.6361594,303.6361594,303.6361594,303.6361594,303.6361594,303.6361594,303.6361594,,004,P007,2025_Feb_01_0956,ConditionRich,2021.2.3,59.93705410575036,
260.75,264.0,41,0.0,Stimuli/Blank.png,1,1.25,2.0,0,116,116,116,,,,,,,,,,,,,260.76357650000045,0.013576500000453962,2,304.3701363,304.3701363,304.3701363,304.3701363,304.3701363,304.3701363,305.6045664000003,306.3551965000006,304.3701363,304.3701363,1.60008629999993,004,P007,2025_Feb_01_0956,ConditionRich,2021.2.3,59.93705410575036,
264.0,264.75,23,0.75,Stimuli/P007/things_bumper_04s.jpg,0,0.0,0.0,0,117,117,117,,,,,,,,,,,,,263.9998443000004,-0.0001556999995955266,None,307.62298850000025,307.62298850000025,307.62298850000025,307.62298850000025,307.62298850000025,307.62298850000025,307.62298850000025,307.62298850000025,307.62298850000025,307.62298850000025,,004,P007,2025_Feb_01_0956,ConditionRich,2021.2.3,59.93705410575036,
264.75,268.0,41,0.0,Stimuli/Blank.png,0,0.0,0.0,0,118,118,118,,,,,,,,,,,,,264.7661463000004,0.016146300000400515,None,308.3737862000007,308.3737862000007,308.3737862000007,308.3737862000007,308.3737862000007,308.3737862000007,308.3737862000007,308.3737862000007,308.3737862000007,308.3737862000007,,004,P007,2025_Feb_01_0956,ConditionRich,2021.2.3,59.93705410575036,
268.0,268.75,21,0.75,Stimuli/P007/things_baby_04s.jpg,0,0.0,0.0,0,119,119,119,,,,,,,,,,,,,268.0050314,0.005031400000007125,None,311.62653430000046,311.62653430000046,311.62653430000046,311.62653430000046,311.62653430000046,311.62653430000046,311.62653430000046,311.62653430000046,311.62653430000046,311.62653430000046,,004,P007,2025_Feb_01_0956,ConditionRich,2021.2.3,59.93705410575036,
268.75,272.0,41,0.0,Stimuli/Blank.png,0,0.0,0.0,0,120,120,120,,,,,,,,,,,,,268.76978039999995,0.019780399999945075,None,312.37720270000045,312.37720270000045,312.37720270000045,312.37720270000045,312.37720270000045,312.37720270000045,312.37720270000045,312.37720270000045,312.37720270000045,312.37720270000045,,004,P007,2025_Feb_01_0956,ConditionRich,2021.2.3,59.93705410575036,
272.0,272.75,22,0.75,Stimuli/P007/things_boar_04s.jpg,0,0.0,0.0,0,121,121,121,,,,,,,,,,,,,272.0061663000006,0.006166300000586489,None,315.6300805000001,315.6300805000001,315.6300805000001,315.6300805000001,315.6300805000001,315.6300805000001,315.6300805000001,315.6300805000001,315.6300805000001,315.6300805000001,,004,P007,2025_Feb_01_0956,ConditionRich,2021.2.3,59.93705410575036,
272.75,276.0,41,0.0,Stimuli/Blank.png,1,0.25,1.0,0,122,122,122,,,,,,,,,,,,,272.77465500000017,0.024655000000166183,2,316.3807532000001,316.3807532000001,316.3807532000001,316.3807532000001,316.3807532000001,316.3807532000001,316.61427300000014,317.3649621000004,316.3807532000001,316.3807532000001,0.8596790999999939,004,P007,2025_Feb_01_0956,ConditionRich,2021.2.3,59.93705410575036,
276.0,292.0,0,0.0,Stimuli/Blank.png,1,7.0,7.75,0,123,123,123,,,,,,,,,,,,,276.00983799999995,0.009837999999945168,2,319.6169389000006,319.6169389000006,319.6169389000006,319.6169389000006,319.6169389000006,319.6169389000006,326.60644480000065,327.3571718000003,319.6169389000006,319.6169389000006,7.498488600000201,004,P007,2025_Feb_01_0956,ConditionRich,2021.2.3,59.93705410575036,
292.0,292.75,12,0.75,Stimuli/P007/sun_bitpmyvulluuasab.jpg,0,0.0,0.0,0,124,124,124,,,,,,,,,,,,,292.00927839999986,0.009278399999857356,None,335.63111050000043,335.63111050000043,335.63111050000043,335.63111050000043,335.63111050000043,335.63111050000043,335.63111050000043,335.63111050000043,335.63111050000043,335.63111050000043,,004,P007,2025_Feb_01_0956,ConditionRich,2021.2.3,59.93705410575036,
292.75,296.0,41,0.0,Stimuli/Blank.png,0,0.0,0.0,0,125,125,125,,,,,,,,,,,,,292.77486000000044,0.024860000000444415,None,336.38175370000044,336.38175370000044,336.38175370000044,336.38175370000044,336.38175370000044,336.38175370000044,336.38175370000044,336.38175370000044,336.38175370000044,336.38175370000044,,004,P007,2025_Feb_01_0956,ConditionRich,2021.2.3,59.93705410575036,
296.0,296.75,33,0.75,Stimuli/P007/things_man_04s.jpg,0,0.0,0.0,0,126,126,126,,,,,,,,,,,,,296.01127499999984,0.011274999999841384,None,339.61795170000005,339.61795170000005,339.61795170000005,339.61795170000005,339.61795170000005,339.61795170000005,339.61795170000005,339.61795170000005,339.61795170000005,339.61795170000005,,004,P007,2025_Feb_01_0956,ConditionRich,2021.2.3,59.93705410575036,
296.75,300.0,41,0.0,Stimuli/Blank.png,0,0.0,0.0,0,127,127,127,,,,,,,,,,,,,296.76110640000024,0.01110640000024432,None,340.3686284000005,340.3686284000005,340.3686284000005,340.3686284000005,340.3686284000005,340.3686284000005,340.3686284000005,340.3686284000005,340.3686284000005,340.3686284000005,,004,P007,2025_Feb_01_0956,ConditionRich,2021.2.3,59.93705410575036,
300.0,300.75,30,0.75,Stimuli/P007/things_jalapeno_04s.jpg,0,0.0,0.0,0,128,128,128,,,,,,,,,,,,,300.0146794000002,0.014679400000204623,None,343.6381813000007,343.6381813000007,343.6381813000007,343.6381813000007,343.6381813000007,343.6381813000007,343.6381813000007,343.6381813000007,343.6381813000007,343.6381813000007,,004,P007,2025_Feb_01_0956,ConditionRich,2021.2.3,59.93705410575036,
300.75,304.0,41,0.0,Stimuli/Blank.png,1,2.25,3.0,0,129,129,129,,,,,,,,,,,,,300.78384559999995,0.03384559999994963,2,344.4055287000001,344.4055287000001,344.4055287000001,344.4055287000001,344.4055287000001,344.4055287000001,346.64081800000076,347.39149670000006,344.4055287000001,344.4055287000001,2.784693900000093,004,P007,2025_Feb_01_0956,ConditionRich,2021.2.3,59.93705410575036,
304.0,304.75,24,0.75,Stimuli/P007/things_collar_04s.jpg,1,0.0,0.75,0,130,130,130,,,,,,,,,,,,,304.02069159999974,0.020691599999736354,2,347.6417164000004,347.6417164000004,347.6417164000004,347.6417164000004,347.6417164000004,347.6417164000004,347.6417164000004,None,347.6417164000004,347.6417164000004,0.460693099999844,004,P007,2025_Feb_01_0956,ConditionRich,2021.2.3,59.93705410575036,
304.75,308.0,41,0.0,Stimuli/Blank.png,0,0.0,0.0,0,131,131,131,,,,,,,,,,,,,304.76958840000043,0.01958840000042983,None,348.37570760000017,348.37570760000017,348.37570760000017,348.37570760000017,348.37570760000017,348.37570760000017,348.37570760000017,348.37570760000017,348.37570760000017,348.37570760000017,,004,P007,2025_Feb_01_0956,ConditionRich,2021.2.3,59.93705410575036,
308.0,308.75,32,0.75,Stimuli/P007/things_maggot_04s.jpg,0,0.0,0.0,0,132,132,132,,,,,,,,,,,,,308.0045718000001,0.004571800000121584,None,351.6119853,351.6119853,351.6119853,351.6119853,351.6119853,351.6119853,351.6119853,351.6119853,351.6119853,351.6119853,,004,P007,2025_Feb_01_0956,ConditionRich,2021.2.3,59.93705410575036,
308.75,312.0,41,0.0,Stimuli/Blank.png,0,0.0,0.0,0,133,133,133,,,,,,,,,,,,,308.75570620000053,0.00570620000053168,None,352.36256480000065,352.36256480000065,352.36256480000065,352.36256480000065,352.36256480000065,352.36256480000065,352.36256480000065,352.36256480000065,352.36256480000065,352.36256480000065,,004,P007,2025_Feb_01_0956,ConditionRich,2021.2.3,59.93705410575036,
312.0,312.75,27,0.75,Stimuli/P007/things_fur_coat_04s.jpg,0,0.0,0.0,0,134,134,134,,,,,,,,,,,,,312.00865950000025,0.008659500000248954,None,355.63211880000017,355.63211880000017,355.63211880000017,355.63211880000017,355.63211880000017,355.63211880000017,355.63211880000017,355.63211880000017,355.63211880000017,355.63211880000017,,004,P007,2025_Feb_01_0956,ConditionRich,2021.2.3,59.93705410575036,
312.75,316.0,41,0.0,Stimuli/Blank.png,0,0.0,0.0,0,135,135,135,,,,,,,,,,,,,312.7758706000004,0.025870600000416744,None,356.38277650000055,356.38277650000055,356.38277650000055,356.38277650000055,356.38277650000055,356.38277650000055,356.38277650000055,356.38277650000055,356.38277650000055,356.38277650000055,,004,P007,2025_Feb_01_0956,ConditionRich,2021.2.3,59.93705410575036,
316.0,316.75,34,0.75,Stimuli/P007/things_moose_04s.jpg,0,0.0,0.0,0,136,136,136,,,,,,,,,,,,,316.01407110000036,0.014071100000364822,None,359.6356568000001,359.6356568000001,359.6356568000001,359.6356568000001,359.6356568000001,359.6356568000001,359.6356568000001,359.6356568000001,359.6356568000001,359.6356568000001,,004,P007,2025_Feb_01_0956,ConditionRich,2021.2.3,59.93705410575036,
316.75,320.0,41,0.0,Stimuli/Blank.png,0,0.0,0.0,0,137,137,137,,,,,,,,,,,,,316.77988989999994,0.029889899999943736,None,360.3863272000008,360.3863272000008,360.3863272000008,360.3863272000008,360.3863272000008,360.3863272000008,360.3863272000008,360.3863272000008,360.3863272000008,360.3863272000008,,004,P007,2025_Feb_01_0956,ConditionRich,2021.2.3,59.93705410575036,
320.0,320.75,31,0.75,Stimuli/P007/things_jug_04s.jpg,0,0.0,0.0,0,138,138,138,,,,,,,,,,,,,319.9999576,-4.239999998389976e-05,None,363.6225404000006,363.6225404000006,363.6225404000006,363.6225404000006,363.6225404000006,363.6225404000006,363.6225404000006,363.6225404000006,363.6225404000006,363.6225404000006,,004,P007,2025_Feb_01_0956,ConditionRich,2021.2.3,59.93705410575036,
320.75,324.0,41,0.0,Stimuli/Blank.png,1,2.25,3.0,0,139,139,139,,,,,,,,,,,,,320.7661571999997,0.01615719999972498,2,364.3731768000007,364.3731768000007,364.3731768000007,364.3731768000007,364.3731768000007,364.3731768000007,366.60852890000024,367.3591612,364.3731768000007,364.3731768000007,2.6422828999993726,004,P007,2025_Feb_01_0956,ConditionRich,2021.2.3,59.93705410575036,
324.0,324.75,38,0.75,Stimuli/P007/things_rollerblade_04s.jpg,0,0.0,0.0,0,140,140,140,,,,,,,,,,,,,324.00269350000053,0.0026935000005323673,None,367.6093742000003,367.6093742000003,367.6093742000003,367.6093742000003,367.6093742000003,367.6093742000003,367.6093742000003,367.6093742000003,367.6093742000003,367.6093742000003,,004,P007,2025_Feb_01_0956,ConditionRich,2021.2.3,59.93705410575036,
324.75,328.0,41,0.0,Stimuli/Blank.png,0,0.0,0.0,0,141,141,141,,,,,,,,,,,,,324.75328960000024,0.0032896000002438086,None,368.36004350000076,368.36004350000076,368.36004350000076,368.36004350000076,368.36004350000076,368.36004350000076,368.36004350000076,368.36004350000076,368.36004350000076,368.36004350000076,,004,P007,2025_Feb_01_0956,ConditionRich,2021.2.3,59.93705410575036,
328.0,328.75,29,0.75,Stimuli/P007/things_hawk_04s.jpg,0,0.0,0.0,0,142,142,142,,,,,,,,,,,,,328.0062458000002,0.00624580000021524,None,371.6129189000003,371.6129189000003,371.6129189000003,371.6129189000003,371.6129189000003,371.6129189000003,371.6129189000003,371.6129189000003,371.6129189000003,371.6129189000003,,004,P007,2025_Feb_01_0956,ConditionRich,2021.2.3,59.93705410575036,
328.75,332.0,41,0.0,Stimuli/Blank.png,0,0.0,0.0,0,143,143,143,,,,,,,,,,,,,328.7561469000002,0.006146900000203459,None,372.3635750000003,372.3635750000003,372.3635750000003,372.3635750000003,372.3635750000003,372.3635750000003,372.3635750000003,372.3635750000003,372.3635750000003,372.3635750000003,,004,P007,2025_Feb_01_0956,ConditionRich,2021.2.3,59.93705410575036,
332.0,332.75,37,0.75,Stimuli/P007/things_praying_mantis_04s.jpg,0,0.0,0.0,0,144,144,144,,,,,,,,,,,,,332.0096457999998,0.009645799999816518,None,375.6164656000001,375.6164656000001,375.6164656000001,375.6164656000001,375.6164656000001,375.6164656000001,375.6164656000001,375.6164656000001,375.6164656000001,375.6164656000001,,004,P007,2025_Feb_01_0956,ConditionRich,2021.2.3,59.93705410575036,
332.75,336.0,41,0.0,Stimuli/Blank.png,0,0.0,0.0,0,145,145,145,,,,,,,,,,,,,332.7603575000003,0.010357500000282016,None,376.3671142000003,376.3671142000003,376.3671142000003,376.3671142000003,376.3671142000003,376.3671142000003,376.3671142000003,376.3671142000003,376.3671142000003,376.3671142000003,,004,P007,2025_Feb_01_0956,ConditionRich,2021.2.3,59.93705410575036,
336.0,336.75,1,0.75,Stimuli/P007/sun_abrlrupzcrwpxqfc.jpg,0,0.0,0.0,0,146,146,146,,,,,,,,,,,,,336.0137777,0.013777699999991455,None,379.63668570000027,379.63668570000027,379.63668570000027,379.63668570000027,379.63668570000027,379.63668570000027,379.63668570000027,379.63668570000027,379.63668570000027,379.63668570000027,,004,P007,2025_Feb_01_0956,ConditionRich,2021.2.3,59.93705410575036,
336.75,340.0,41,0.0,Stimuli/Blank.png,0,0.0,0.0,0,147,147,147,,,,,,,,,,,,,336.7805549000004,0.030554900000424823,None,380.38733720000073,380.38733720000073,380.38733720000073,380.38733720000073,380.38733720000073,380.38733720000073,380.38733720000073,380.38733720000073,380.38733720000073,380.38733720000073,,004,P007,2025_Feb_01_0956,ConditionRich,2021.2.3,59.93705410575036,
340.0,340.75,2,0.75,Stimuli/P007/sun_ajyzloqaptmicnfr.jpg,0,0.0,0.0,0,148,148,148,,,,,,,,,,,,,340.00013279999985,0.00013279999984661117,None,383.60685530000046,383.60685530000046,383.60685530000046,383.60685530000046,383.60685530000046,383.60685530000046,383.60685530000046,383.60685530000046,383.60685530000046,383.60685530000046,,004,P007,2025_Feb_01_0956,ConditionRich,2021.2.3,59.93705410575036,
340.75,344.0,41,0.0,Stimuli/Blank.png,0,0.0,0.0,0,149,149,149,,,,,,,,,,,,,340.7500497000001,4.9700000090524554e-05,None,384.3575247000008,384.3575247000008,384.3575247000008,384.3575247000008,384.3575247000008,384.3575247000008,384.3575247000008,384.3575247000008,384.3575247000008,384.3575247000008,,004,P007,2025_Feb_01_0956,ConditionRich,2021.2.3,59.93705410575036,
344.0,344.75,36,0.75,Stimuli/P007/things_platypus_04s.jpg,0,0.0,0.0,0,150,150,150,,,,,,,,,,,,,344.00285150000036,0.0028515000003608293,None,387.61039900000014,387.61039900000014,387.61039900000014,387.61039900000014,387.61039900000014,387.61039900000014,387.61039900000014,387.61039900000014,387.61039900000014,387.61039900000014,,004,P007,2025_Feb_01_0956,ConditionRich,2021.2.3,59.93705410575036,
344.75,348.0,41,0.0,Stimuli/Blank.png,0,0.0,0.0,0,151,151,151,,,,,,,,,,,,,344.7545707999998,0.004570799999783048,None,388.36106480000035,388.36106480000035,388.36106480000035,388.36106480000035,388.36106480000035,388.36106480000035,388.36106480000035,388.36106480000035,388.36106480000035,388.36106480000035,,004,P007,2025_Feb_01_0956,ConditionRich,2021.2.3,59.93705410575036,
348.0,348.75,39,0.75,Stimuli/P007/things_showerhead_04s.jpg,0,0.0,0.0,0,152,152,152,,,,,,,,,,,,,348.0064766000005,0.006476600000496546,None,391.63063070000044,391.63063070000044,391.63063070000044,391.63063070000044,391.63063070000044,391.63063070000044,391.63063070000044,391.63063070000044,391.63063070000044,391.63063070000044,,004,P007,2025_Feb_01_0956,ConditionRich,2021.2.3,59.93705410575036,
348.75,352.0,41,0.0,Stimuli/Blank.png,0,0.0,0.0,0,153,153,153,,,,,,,,,,,,,348.77466410000034,0.024664100000336475,None,392.3812916000006,392.3812916000006,392.3812916000006,392.3812916000006,392.3812916000006,392.3812916000006,392.3812916000006,392.3812916000006,392.3812916000006,392.3812916000006,,004,P007,2025_Feb_01_0956,ConditionRich,2021.2.3,59.93705410575036,
352.0,352.75,35,0.75,Stimuli/P007/things_pecan_04s.jpg,0,0.0,0.0,0,154,154,154,,,,,,,,,,,,,352.00994900000023,0.009949000000233355,None,395.61747770000056,395.61747770000056,395.61747770000056,395.61747770000056,395.61747770000056,395.61747770000056,395.61747770000056,395.61747770000056,395.61747770000056,395.61747770000056,,004,P007,2025_Feb_01_0956,ConditionRich,2021.2.3,59.93705410575036,
352.75,356.0,41,0.0,Stimuli/Blank.png,0,0.0,0.0,0,155,155,155,,,,,,,,,,,,,352.7607985000004,0.010798500000419153,None,396.3681434,396.3681434,396.3681434,396.3681434,396.3681434,396.3681434,396.3681434,396.3681434,396.3681434,396.3681434,,004,P007,2025_Feb_01_0956,ConditionRich,2021.2.3,59.93705410575036,
356.0,356.75,14,0.75,Stimuli/P007/sun_bkvjqgmploznrhxt.jpg,0,0.0,0.0,0,156,156,156,,,,,,,,,,,,,356.01564169999983,0.01564169999983278,None,399.6377069,399.6377069,399.6377069,399.6377069,399.6377069,399.6377069,399.6377069,399.6377069,399.6377069,399.6377069,,004,P007,2025_Feb_01_0956,ConditionRich,2021.2.3,59.93705410575036,
356.75,360.0,41,0.0,Stimuli/Blank.png,0,0.0,0.0,0,157,157,157,,,,,,,,,,,,,356.7647981,0.014798100000007253,None,400.3717725000006,400.3717725000006,400.3717725000006,400.3717725000006,400.3717725000006,400.3717725000006,400.3717725000006,400.3717725000006,400.3717725000006,400.3717725000006,,004,P007,2025_Feb_01_0956,ConditionRich,2021.2.3,59.93705410575036,
360.0,360.75,9,0.75,Stimuli/P007/sun_bcsqogieozpyvuft.jpg,1,0.0,0.75,0,158,158,158,,,,,,,,,,,,,360.0010745999998,0.0010745999998107436,2,403.6245663000009,403.6245663000009,403.6245663000009,403.6245663000009,403.6245663000009,403.6245663000009,403.6245663000009,404.34184450000066,403.6245663000009,403.6245663000009,0.4858831999999893,004,P007,2025_Feb_01_0956,ConditionRich,2021.2.3,59.93705410575036,
360.75,364.0,41,0.0,Stimuli/Blank.png,0,0.0,0.0,0,159,159,159,,,,,,,,,,,,,360.76931820000027,0.019318200000270735,None,404.375231,404.375231,404.375231,404.375231,404.375231,404.375231,404.375231,404.375231,404.375231,404.375231,,004,P007,2025_Feb_01_0956,ConditionRich,2021.2.3,59.93705410575036,
364.0,364.75,15,0.75,Stimuli/P007/sun_bmeductqpfkygtww.jpg,0,0.0,0.0,0,160,160,160,,,,,,,,,,,,,364.0055462,0.005546200000026147,None,407.62810490000084,407.62810490000084,407.62810490000084,407.62810490000084,407.62810490000084,407.62810490000084,407.62810490000084,407.62810490000084,407.62810490000084,407.62810490000084,,004,P007,2025_Feb_01_0956,ConditionRich,2021.2.3,59.93705410575036,
364.75,368.0,41,0.0,Stimuli/Blank.png,0,0.0,0.0,0,161,161,161,,,,,,,,,,,,,364.7738411,0.023841100000026927,None,408.3954564000005,408.3954564000005,408.3954564000005,408.3954564000005,408.3954564000005,408.3954564000005,408.3954564000005,408.3954564000005,408.3954564000005,408.3954564000005,,004,P007,2025_Feb_01_0956,ConditionRich,2021.2.3,59.93705410575036,
368.0,368.75,4,0.75,Stimuli/P007/sun_awqukazlzsxaokai.jpg,0,0.0,0.0,0,162,162,162,,,,,,,,,,,,,368.0248298000006,0.024829800000588875,None,411.63164700000016,411.63164700000016,411.63164700000016,411.63164700000016,411.63164700000016,411.63164700000016,411.63164700000016,411.63164700000016,411.63164700000016,411.63164700000016,,004,P007,2025_Feb_01_0956,ConditionRich,2021.2.3,59.93705410575036,
368.75,372.0,41,0.0,Stimuli/Blank.png,0,0.0,0.0,0,163,163,163,,,,,,,,,,,,,368.75868009999976,0.008680099999764934,None,412.3656316000006,412.3656316000006,412.3656316000006,412.3656316000006,412.3656316000006,412.3656316000006,412.3656316000006,412.3656316000006,412.3656316000006,412.3656316000006,,004,P007,2025_Feb_01_0956,ConditionRich,2021.2.3,59.93705410575036,
372.0,388.0,0,0.0,Stimuli/Blank.png,1,1.0,1.75,0,164,164,164,,,,,,,,,,,,,372.0110030000005,0.011003000000528118,2,415.6185067000006,415.6185067000006,415.6185067000006,415.6185067000006,415.6185067000006,415.6185067000006,416.6027868000001,417.3533700000007,415.6185067000006,415.6185067000006,1.2797835999999734,004,P007,2025_Feb_01_0956,ConditionRich,2021.2.3,59.93705410575036,
