eventStartTime,eventEndTime,eventCond,imSize,imFile,responseEvent,fixRespStart,fixRespEnd,Events.thisRepN,Events.thisTrialN,Events.thisN,Events.thisIndex,Instructions.started,Instructions.stopped,participantReadyResponse.keys,participantReadyResponse.rt,participantReadyResponse.started,participantReadyResponse.stopped,startWaitforTrigger,triggerResponse.keys,triggerResponse.rt,triggerResponse.started,triggerResponse.stopped,globalTimer,actualStartTime,startTimingDiff,participantResponse.keys,participantResponse.started,participantResponse.stopped,image.started,image.stopped,fixationOutside.started,fixationOutside.stopped,fixationResponse.started,fixationResponse.stopped,fixationInside.started,fixationInside.stopped,participantResponse.rt,session,participant,date,expName,psychopyVersion,frameRate,
,,,,,,,,,,,,10.874390900000435,None,2,15.719252099999721,10.874390900000435,None,,,,,,,,,,,,,,,,,,,,,008,P007,2025_Feb_01_1032,ConditionRich,2021.2.3,59.94661154763013,
,,,,,,,,,,,,,,,,,,26.60580579999987,5,16.175507699999798,26.61805220000042,None,,,,,,,,,,,,,,,,008,P007,2025_Feb_01_1032,ConditionRich,2021.2.3,59.94661154763013,
0.0,4.0,0,0.0,Stimuli/Blank.png,0,0,0.0,0,0,0,0,,,,,,,,,,,,42.80326140000034,0.06675629999972443,0.06675629999972443,None,42.88236880000022,None,42.88236880000022,None,42.88236880000022,None,42.88236880000022,42.88236880000022,42.88236880000022,None,,008,P007,2025_Feb_01_1032,ConditionRich,2021.2.3,59.94661154763013,
4.0,4.75,32,0.75,Stimuli/P007/things_maggot_04s.jpg,0,0,0.0,0,1,1,1,,,,,,,,,,,,,4.004869999999755,0.004869999999755237,None,46.836145000000215,46.836145000000215,46.836145000000215,46.836145000000215,46.836145000000215,46.836145000000215,46.836145000000215,46.836145000000215,46.836145000000215,46.836145000000215,,008,P007,2025_Feb_01_1032,ConditionRich,2021.2.3,59.94661154763013,
4.75,5.0,41,0.0,Stimuli/Blank.png,0,0,0.0,0,2,2,2,,,,,,,,,,,,,4.769081700000243,0.019081700000242563,None,47.58683459999975,47.58683459999975,47.58683459999975,47.58683459999975,47.58683459999975,47.58683459999975,47.58683459999975,47.58683459999975,47.58683459999975,47.58683459999975,,008,P007,2025_Feb_01_1032,ConditionRich,2021.2.3,59.94661154763013,
5.0,5.75,32,0.75,Stimuli/P007/things_maggot_04s.jpg,0,0,0.0,0,3,3,3,,,,,,,,,,,,,5.003201900000022,0.003201900000021851,None,47.836768199999824,47.836768199999824,47.836768199999824,47.836768199999824,47.836768199999824,47.836768199999824,47.836768199999824,47.836768199999824,47.836768199999824,47.836768199999824,,008,P007,2025_Feb_01_1032,ConditionRich,2021.2.3,59.94661154763013,
5.75,6.0,41,0.0,Stimuli/Blank.png,0,0,0.0,0,4,4,4,,,,,,,,,,,,,5.769522900000084,0.01952290000008361,None,48.587410699999964,48.587410699999964,48.587410699999964,48.587410699999964,48.587410699999964,48.587410699999964,48.587410699999964,48.587410699999964,48.587410699999964,48.587410699999964,,008,P007,2025_Feb_01_1032,ConditionRich,2021.2.3,59.94661154763013,
6.0,6.75,32,0.75,Stimuli/P007/things_maggot_04s.jpg,0,0,0.0,0,5,5,5,,,,,,,,,,,,,6.003711800000019,0.0037118000000191387,None,48.82092939999984,48.82092939999984,48.82092939999984,48.82092939999984,48.82092939999984,48.82092939999984,48.82092939999984,48.82092939999984,48.82092939999984,48.82092939999984,,008,P007,2025_Feb_01_1032,ConditionRich,2021.2.3,59.94661154763013,
6.75,7.0,41,0.0,Stimuli/Blank.png,0,0,0.0,0,6,6,6,,,,,,,,,,,,,6.75390729999981,0.003907299999809766,None,49.5716210999999,49.5716210999999,49.5716210999999,49.5716210999999,49.5716210999999,49.5716210999999,49.5716210999999,49.5716210999999,49.5716210999999,49.5716210999999,,008,P007,2025_Feb_01_1032,ConditionRich,2021.2.3,59.94661154763013,
7.0,7.75,32,0.75,Stimuli/P007/things_maggot_04s.jpg,0,0,0.0,0,7,7,7,,,,,,,,,,,,,7.004567300000417,0.004567300000417163,None,49.838522699999885,49.838522699999885,49.838522699999885,49.838522699999885,49.838522699999885,49.838522699999885,49.838522699999885,49.838522699999885,49.838522699999885,49.838522699999885,,008,P007,2025_Feb_01_1032,ConditionRich,2021.2.3,59.94661154763013,
7.75,8.0,41,0.0,Stimuli/Blank.png,0,0,0.0,0,8,8,8,,,,,,,,,,,,,7.772692000000461,0.02269200000046112,None,50.5891902000003,50.5891902000003,50.5891902000003,50.5891902000003,50.5891902000003,50.5891902000003,50.5891902000003,50.5891902000003,50.5891902000003,50.5891902000003,,008,P007,2025_Feb_01_1032,ConditionRich,2021.2.3,59.94661154763013,
8.0,8.75,14,0.75,Stimuli/P007/sun_bkvjqgmploznrhxt.jpg,0,0,0.0,0,9,9,9,,,,,,,,,,,,,8.008154699999977,0.00815469999997731,None,50.83940890000031,50.83940890000031,50.83940890000031,50.83940890000031,50.83940890000031,50.83940890000031,50.83940890000031,50.83940890000031,50.83940890000031,50.83940890000031,,008,P007,2025_Feb_01_1032,ConditionRich,2021.2.3,59.94661154763013,
8.75,9.0,41,0.0,Stimuli/Blank.png,0,0,0.0,0,10,10,10,,,,,,,,,,,,,8.77344230000017,0.02344230000016978,None,51.59012249999978,51.59012249999978,51.59012249999978,51.59012249999978,51.59012249999978,51.59012249999978,51.59012249999978,51.59012249999978,51.59012249999978,51.59012249999978,,008,P007,2025_Feb_01_1032,ConditionRich,2021.2.3,59.94661154763013,
9.0,9.75,14,0.75,Stimuli/P007/sun_bkvjqgmploznrhxt.jpg,0,0,0.0,0,11,11,11,,,,,,,,,,,,,9.00788730000022,0.00788730000022042,None,51.84029030000056,51.84029030000056,51.84029030000056,51.84029030000056,51.84029030000056,51.84029030000056,51.84029030000056,51.84029030000056,51.84029030000056,51.84029030000056,,008,P007,2025_Feb_01_1032,ConditionRich,2021.2.3,59.94661154763013,
9.75,10.0,41,0.0,Stimuli/Blank.png,0,0,0.0,0,12,12,12,,,,,,,,,,,,,9.773318999999901,0.02331899999990128,None,52.59095750000051,52.59095750000051,52.59095750000051,52.59095750000051,52.59095750000051,52.59095750000051,52.59095750000051,52.59095750000051,52.59095750000051,52.59095750000051,,008,P007,2025_Feb_01_1032,ConditionRich,2021.2.3,59.94661154763013,
10.0,10.75,14,0.75,Stimuli/P007/sun_bkvjqgmploznrhxt.jpg,0,0,0.0,0,13,13,13,,,,,,,,,,,,,10.006521999999677,0.006521999999677064,None,52.82449160000033,52.82449160000033,52.82449160000033,52.82449160000033,52.82449160000033,52.82449160000033,52.82449160000033,52.82449160000033,52.82449160000033,52.82449160000033,,008,P007,2025_Feb_01_1032,ConditionRich,2021.2.3,59.94661154763013,
10.75,11.0,41,0.0,Stimuli/Blank.png,0,0,0.0,0,14,14,14,,,,,,,,,,,,,10.75832470000023,0.008324700000230223,None,53.57514950000041,53.57514950000041,53.57514950000041,53.57514950000041,53.57514950000041,53.57514950000041,53.57514950000041,53.57514950000041,53.57514950000041,53.57514950000041,,008,P007,2025_Feb_01_1032,ConditionRich,2021.2.3,59.94661154763013,
11.0,11.75,14,0.75,Stimuli/P007/sun_bkvjqgmploznrhxt.jpg,0,0,0.0,0,15,15,15,,,,,,,,,,,,,11.00818900000013,0.008189000000129454,None,53.82538190000014,53.82538190000014,53.82538190000014,53.82538190000014,53.82538190000014,53.82538190000014,53.82538190000014,53.82538190000014,53.82538190000014,53.82538190000014,,008,P007,2025_Feb_01_1032,ConditionRich,2021.2.3,59.94661154763013,
11.75,12.0,41,0.0,Stimuli/Blank.png,0,0,0.0,0,16,16,16,,,,,,,,,,,,,11.758115499999803,0.008115499999803433,None,54.57603960000051,54.57603960000051,54.57603960000051,54.57603960000051,54.57603960000051,54.57603960000051,54.57603960000051,54.57603960000051,54.57603960000051,54.57603960000051,,008,P007,2025_Feb_01_1032,ConditionRich,2021.2.3,59.94661154763013,
12.0,12.75,11,0.75,Stimuli/P007/sun_bdsriuscubkvzrmt.jpg,0,0,0.0,0,17,17,17,,,,,,,,,,,,,12.008498099999997,0.008498099999997066,None,54.82626489999984,54.82626489999984,54.82626489999984,54.82626489999984,54.82626489999984,54.82626489999984,54.82626489999984,54.82626489999984,54.82626489999984,54.82626489999984,,008,P007,2025_Feb_01_1032,ConditionRich,2021.2.3,59.94661154763013,
12.75,13.0,41,0.0,Stimuli/Blank.png,0,0,0.0,0,18,18,18,,,,,,,,,,,,,12.759073299999727,0.009073299999727169,None,55.57692920000045,55.57692920000045,55.57692920000045,55.57692920000045,55.57692920000045,55.57692920000045,55.57692920000045,55.57692920000045,55.57692920000045,55.57692920000045,,008,P007,2025_Feb_01_1032,ConditionRich,2021.2.3,59.94661154763013,
13.0,13.75,11,0.75,Stimuli/P007/sun_bdsriuscubkvzrmt.jpg,0,0,0.0,0,19,19,19,,,,,,,,,,,,,13.00933780000014,0.009337800000139396,None,55.827152200000455,55.827152200000455,55.827152200000455,55.827152200000455,55.827152200000455,55.827152200000455,55.827152200000455,55.827152200000455,55.827152200000455,55.827152200000455,,008,P007,2025_Feb_01_1032,ConditionRich,2021.2.3,59.94661154763013,
13.75,14.0,41,0.0,Stimuli/Blank.png,0,0,0.0,0,20,20,20,,,,,,,,,,,,,13.761124499999823,0.011124499999823456,None,56.57785270000022,56.57785270000022,56.57785270000022,56.57785270000022,56.57785270000022,56.57785270000022,56.57785270000022,56.57785270000022,56.57785270000022,56.57785270000022,,008,P007,2025_Feb_01_1032,ConditionRich,2021.2.3,59.94661154763013,
14.0,14.75,11,0.75,Stimuli/P007/sun_bdsriuscubkvzrmt.jpg,0,0,0.0,0,21,21,21,,,,,,,,,,,,,14.010991600000125,0.01099160000012489,None,56.828036099999736,56.828036099999736,56.828036099999736,56.828036099999736,56.828036099999736,56.828036099999736,56.828036099999736,56.828036099999736,56.828036099999736,56.828036099999736,,008,P007,2025_Feb_01_1032,ConditionRich,2021.2.3,59.94661154763013,
14.75,15.0,41,0.0,Stimuli/Blank.png,0,0,0.0,0,22,22,22,,,,,,,,,,,,,14.762867100000221,0.012867100000221399,None,57.59538390000034,57.59538390000034,57.59538390000034,57.59538390000034,57.59538390000034,57.59538390000034,57.59538390000034,57.59538390000034,57.59538390000034,57.59538390000034,,008,P007,2025_Feb_01_1032,ConditionRich,2021.2.3,59.94661154763013,
15.0,15.75,11,0.75,Stimuli/P007/sun_bdsriuscubkvzrmt.jpg,1,0,0.75,0,23,23,23,,,,,,,,,,,,,15.028369599999678,0.02836959999967803,2,57.86230109999997,57.86230109999997,57.86230109999997,57.86230109999997,57.86230109999997,57.86230109999997,57.86230109999997,58.57957549999992,57.86230109999997,57.86230109999997,0.47218209999937244,008,P007,2025_Feb_01_1032,ConditionRich,2021.2.3,59.94661154763013,
15.75,16.0,41,0.0,Stimuli/Blank.png,0,0,0.0,0,24,24,24,,,,,,,,,,,,,15.778457000000344,0.028457000000344124,None,58.59626709999975,58.59626709999975,58.59626709999975,58.59626709999975,58.59626709999975,58.59626709999975,58.59626709999975,58.59626709999975,58.59626709999975,58.59626709999975,,008,P007,2025_Feb_01_1032,ConditionRich,2021.2.3,59.94661154763013,
16.0,16.75,28,0.75,Stimuli/P007/things_girl_04s.jpg,0,0,0.0,0,25,25,25,,,,,,,,,,,,,16.01245470000049,0.012454700000489538,None,58.82980270000007,58.82980270000007,58.82980270000007,58.82980270000007,58.82980270000007,58.82980270000007,58.82980270000007,58.82980270000007,58.82980270000007,58.82980270000007,,008,P007,2025_Feb_01_1032,ConditionRich,2021.2.3,59.94661154763013,
16.75,17.0,41,0.0,Stimuli/Blank.png,0,0,0.0,0,26,26,26,,,,,,,,,,,,,16.76325050000014,0.013250500000140164,None,59.58047350000015,59.58047350000015,59.58047350000015,59.58047350000015,59.58047350000015,59.58047350000015,59.58047350000015,59.58047350000015,59.58047350000015,59.58047350000015,,008,P007,2025_Feb_01_1032,ConditionRich,2021.2.3,59.94661154763013,
17.0,17.75,28,0.75,Stimuli/P007/things_girl_04s.jpg,0,0,0.0,0,27,27,27,,,,,,,,,,,,,17.014451900000495,0.014451900000494788,None,59.84735030000047,59.84735030000047,59.84735030000047,59.84735030000047,59.84735030000047,59.84735030000047,59.84735030000047,59.84735030000047,59.84735030000047,59.84735030000047,,008,P007,2025_Feb_01_1032,ConditionRich,2021.2.3,59.94661154763013,
17.75,18.0,41,0.0,Stimuli/Blank.png,0,0,0.0,0,28,28,28,,,,,,,,,,,,,17.78026890000001,0.030268900000010035,None,60.59803490000013,60.59803490000013,60.59803490000013,60.59803490000013,60.59803490000013,60.59803490000013,60.59803490000013,60.59803490000013,60.59803490000013,60.59803490000013,,008,P007,2025_Feb_01_1032,ConditionRich,2021.2.3,59.94661154763013,
18.0,18.75,28,0.75,Stimuli/P007/things_girl_04s.jpg,0,0,0.0,0,29,29,29,,,,,,,,,,,,,18.014271199999712,0.014271199999711826,None,60.8315733999998,60.8315733999998,60.8315733999998,60.8315733999998,60.8315733999998,60.8315733999998,60.8315733999998,60.8315733999998,60.8315733999998,60.8315733999998,,008,P007,2025_Feb_01_1032,ConditionRich,2021.2.3,59.94661154763013,
18.75,19.0,41,0.0,Stimuli/Blank.png,0,0,0.0,0,30,30,30,,,,,,,,,,,,,18.765101200000572,0.015101200000572135,None,61.58224820000032,61.58224820000032,61.58224820000032,61.58224820000032,61.58224820000032,61.58224820000032,61.58224820000032,61.58224820000032,61.58224820000032,61.58224820000032,,008,P007,2025_Feb_01_1032,ConditionRich,2021.2.3,59.94661154763013,
19.0,19.75,28,0.75,Stimuli/P007/things_girl_04s.jpg,0,0,0.0,0,31,31,31,,,,,,,,,,,,,19.015281799999684,0.015281799999684154,None,61.84916870000052,61.84916870000052,61.84916870000052,61.84916870000052,61.84916870000052,61.84916870000052,61.84916870000052,61.84916870000052,61.84916870000052,61.84916870000052,,008,P007,2025_Feb_01_1032,ConditionRich,2021.2.3,59.94661154763013,
19.75,20.0,41,0.0,Stimuli/Blank.png,0,0,0.0,0,32,32,32,,,,,,,,,,,,,19.766268200000013,0.016268200000013167,None,62.58314549999977,62.58314549999977,62.58314549999977,62.58314549999977,62.58314549999977,62.58314549999977,62.58314549999977,62.58314549999977,62.58314549999977,62.58314549999977,,008,P007,2025_Feb_01_1032,ConditionRich,2021.2.3,59.94661154763013,
20.0,20.75,39,0.75,Stimuli/P007/things_showerhead_04s.jpg,0,0,0.0,0,33,33,33,,,,,,,,,,,,,19.999241399999846,-0.0007586000001538196,None,62.81667010000001,62.81667010000001,62.81667010000001,62.81667010000001,62.81667010000001,62.81667010000001,62.81667010000001,62.81667010000001,62.81667010000001,62.81667010000001,,008,P007,2025_Feb_01_1032,ConditionRich,2021.2.3,59.94661154763013,
20.75,21.0,41,0.0,Stimuli/Blank.png,0,0,0.0,0,34,34,34,,,,,,,,,,,,,20.750197299999854,0.00019729999985429458,None,63.56740119999995,63.56740119999995,63.56740119999995,63.56740119999995,63.56740119999995,63.56740119999995,63.56740119999995,63.56740119999995,63.56740119999995,63.56740119999995,,008,P007,2025_Feb_01_1032,ConditionRich,2021.2.3,59.94661154763013,
21.0,21.75,39,0.75,Stimuli/P007/things_showerhead_04s.jpg,0,0,0.0,0,35,35,35,,,,,,,,,,,,,21.00268580000011,0.0026858000001084292,None,63.83423959999982,63.83423959999982,63.83423959999982,63.83423959999982,63.83423959999982,63.83423959999982,63.83423959999982,63.83423959999982,63.83423959999982,63.83423959999982,,008,P007,2025_Feb_01_1032,ConditionRich,2021.2.3,59.94661154763013,
21.75,22.0,41,0.0,Stimuli/Blank.png,0,0,0.0,0,36,36,36,,,,,,,,,,,,,21.76757980000002,0.01757980000002135,None,64.5849033000004,64.5849033000004,64.5849033000004,64.5849033000004,64.5849033000004,64.5849033000004,64.5849033000004,64.5849033000004,64.5849033000004,64.5849033000004,,008,P007,2025_Feb_01_1032,ConditionRich,2021.2.3,59.94661154763013,
22.0,22.75,39,0.75,Stimuli/P007/things_showerhead_04s.jpg,0,0,0.0,0,37,37,37,,,,,,,,,,,,,22.001304899999923,0.0013048999999227817,None,64.81840199999988,64.81840199999988,64.81840199999988,64.81840199999988,64.81840199999988,64.81840199999988,64.81840199999988,64.81840199999988,64.81840199999988,64.81840199999988,,008,P007,2025_Feb_01_1032,ConditionRich,2021.2.3,59.94661154763013,
22.75,23.0,41,0.0,Stimuli/Blank.png,0,0,0.0,0,38,38,38,,,,,,,,,,,,,22.754113799999686,0.004113799999686307,None,65.58578730000045,65.58578730000045,65.58578730000045,65.58578730000045,65.58578730000045,65.58578730000045,65.58578730000045,65.58578730000045,65.58578730000045,65.58578730000045,,008,P007,2025_Feb_01_1032,ConditionRich,2021.2.3,59.94661154763013,
23.0,23.75,39,0.75,Stimuli/P007/things_showerhead_04s.jpg,0,0,0.0,0,39,39,39,,,,,,,,,,,,,23.018860700000005,0.018860700000004726,None,65.83599940000022,65.83599940000022,65.83599940000022,65.83599940000022,65.83599940000022,65.83599940000022,65.83599940000022,65.83599940000022,65.83599940000022,65.83599940000022,,008,P007,2025_Feb_01_1032,ConditionRich,2021.2.3,59.94661154763013,
23.75,24.0,41,0.0,Stimuli/Blank.png,0,0,0.0,0,40,40,40,,,,,,,,,,,,,23.753319600000395,0.0033196000003954396,None,66.5699880000002,66.5699880000002,66.5699880000002,66.5699880000002,66.5699880000002,66.5699880000002,66.5699880000002,66.5699880000002,66.5699880000002,66.5699880000002,,008,P007,2025_Feb_01_1032,ConditionRich,2021.2.3,59.94661154763013,
24.0,24.75,29,0.75,Stimuli/P007/things_hawk_04s.jpg,0,0,0.0,0,41,41,41,,,,,,,,,,,,,24.00253320000047,0.00253320000047097,None,66.8202025999999,66.8202025999999,66.8202025999999,66.8202025999999,66.8202025999999,66.8202025999999,66.8202025999999,66.8202025999999,66.8202025999999,66.8202025999999,,008,P007,2025_Feb_01_1032,ConditionRich,2021.2.3,59.94661154763013,
24.75,25.0,41,0.0,Stimuli/Blank.png,0,0,0.0,0,42,42,42,,,,,,,,,,,,,24.753924499999812,0.003924499999811815,None,67.57087440000032,67.57087440000032,67.57087440000032,67.57087440000032,67.57087440000032,67.57087440000032,67.57087440000032,67.57087440000032,67.57087440000032,67.57087440000032,,008,P007,2025_Feb_01_1032,ConditionRich,2021.2.3,59.94661154763013,
25.0,25.75,29,0.75,Stimuli/P007/things_hawk_04s.jpg,0,0,0.0,0,43,43,43,,,,,,,,,,,,,25.00376159999996,0.003761599999961618,None,67.82112479999978,67.82112479999978,67.82112479999978,67.82112479999978,67.82112479999978,67.82112479999978,67.82112479999978,67.82112479999978,67.82112479999978,67.82112479999978,,008,P007,2025_Feb_01_1032,ConditionRich,2021.2.3,59.94661154763013,
25.75,26.0,41,0.0,Stimuli/Blank.png,0,0,0.0,0,44,44,44,,,,,,,,,,,,,25.754126100000576,0.004126100000576116,None,68.57175069999994,68.57175069999994,68.57175069999994,68.57175069999994,68.57175069999994,68.57175069999994,68.57175069999994,68.57175069999994,68.57175069999994,68.57175069999994,,008,P007,2025_Feb_01_1032,ConditionRich,2021.2.3,59.94661154763013,
26.0,26.75,29,0.75,Stimuli/P007/things_hawk_04s.jpg,0,0,0.0,0,45,45,45,,,,,,,,,,,,,26.004922699999952,0.004922699999951874,None,68.8219737999998,68.8219737999998,68.8219737999998,68.8219737999998,68.8219737999998,68.8219737999998,68.8219737999998,68.8219737999998,68.8219737999998,68.8219737999998,,008,P007,2025_Feb_01_1032,ConditionRich,2021.2.3,59.94661154763013,
26.75,27.0,41,0.0,Stimuli/Blank.png,0,0,0.0,0,46,46,46,,,,,,,,,,,,,26.755439800000204,0.005439800000203832,None,69.57270429999971,69.57270429999971,69.57270429999971,69.57270429999971,69.57270429999971,69.57270429999971,69.57270429999971,69.57270429999971,69.57270429999971,69.57270429999971,,008,P007,2025_Feb_01_1032,ConditionRich,2021.2.3,59.94661154763013,
27.0,27.75,29,0.75,Stimuli/P007/things_hawk_04s.jpg,0,0,0.0,0,47,47,47,,,,,,,,,,,,,27.007954200000313,0.007954200000312994,None,69.83953829999973,69.83953829999973,69.83953829999973,69.83953829999973,69.83953829999973,69.83953829999973,69.83953829999973,69.83953829999973,69.83953829999973,69.83953829999973,,008,P007,2025_Feb_01_1032,ConditionRich,2021.2.3,59.94661154763013,
27.75,28.0,41,0.0,Stimuli/Blank.png,0,0,0.0,0,48,48,48,,,,,,,,,,,,,27.77358910000021,0.02358910000020842,None,70.59021810000013,70.59021810000013,70.59021810000013,70.59021810000013,70.59021810000013,70.59021810000013,70.59021810000013,70.59021810000013,70.59021810000013,70.59021810000013,,008,P007,2025_Feb_01_1032,ConditionRich,2021.2.3,59.94661154763013,
28.0,28.75,6,0.75,Stimuli/P007/sun_azpjjfwsbjdjcopb.jpg,0,0,0.0,0,49,49,49,,,,,,,,,,,,,28.00617919999968,0.006179199999678531,None,70.82371890000013,70.82371890000013,70.82371890000013,70.82371890000013,70.82371890000013,70.82371890000013,70.82371890000013,70.82371890000013,70.82371890000013,70.82371890000013,,008,P007,2025_Feb_01_1032,ConditionRich,2021.2.3,59.94661154763013,
28.75,29.0,41,0.0,Stimuli/Blank.png,0,0,0.0,0,50,50,50,,,,,,,,,,,,,28.756858900000225,0.006858900000224821,None,71.57446710000022,71.57446710000022,71.57446710000022,71.57446710000022,71.57446710000022,71.57446710000022,71.57446710000022,71.57446710000022,71.57446710000022,71.57446710000022,,008,P007,2025_Feb_01_1032,ConditionRich,2021.2.3,59.94661154763013,
29.0,29.75,6,0.75,Stimuli/P007/sun_azpjjfwsbjdjcopb.jpg,0,0,0.0,0,51,51,51,,,,,,,,,,,,,29.008421200000157,0.008421200000157114,None,71.84131320000051,71.84131320000051,71.84131320000051,71.84131320000051,71.84131320000051,71.84131320000051,71.84131320000051,71.84131320000051,71.84131320000051,71.84131320000051,,008,P007,2025_Feb_01_1032,ConditionRich,2021.2.3,59.94661154763013,
29.75,30.0,41,0.0,Stimuli/Blank.png,0,0,0.0,0,52,52,52,,,,,,,,,,,,,29.774345599999833,0.024345599999833212,None,72.59198000000015,72.59198000000015,72.59198000000015,72.59198000000015,72.59198000000015,72.59198000000015,72.59198000000015,72.59198000000015,72.59198000000015,72.59198000000015,,008,P007,2025_Feb_01_1032,ConditionRich,2021.2.3,59.94661154763013,
30.0,30.75,6,0.75,Stimuli/P007/sun_azpjjfwsbjdjcopb.jpg,0,0,0.0,0,53,53,53,,,,,,,,,,,,,30.008523800000148,0.008523800000148185,None,72.82552209999994,72.82552209999994,72.82552209999994,72.82552209999994,72.82552209999994,72.82552209999994,72.82552209999994,72.82552209999994,72.82552209999994,72.82552209999994,,008,P007,2025_Feb_01_1032,ConditionRich,2021.2.3,59.94661154763013,
30.75,31.0,41,0.0,Stimuli/Blank.png,0,0,0.0,0,54,54,54,,,,,,,,,,,,,30.758254299999862,0.008254299999862269,None,73.57617589999973,73.57617589999973,73.57617589999973,73.57617589999973,73.57617589999973,73.57617589999973,73.57617589999973,73.57617589999973,73.57617589999973,73.57617589999973,,008,P007,2025_Feb_01_1032,ConditionRich,2021.2.3,59.94661154763013,
31.0,31.75,6,0.75,Stimuli/P007/sun_azpjjfwsbjdjcopb.jpg,0,0,0.0,0,55,55,55,,,,,,,,,,,,,31.0086110000002,0.008611000000200875,None,73.82637570000043,73.82637570000043,73.82637570000043,73.82637570000043,73.82637570000043,73.82637570000043,73.82637570000043,73.82637570000043,73.82637570000043,73.82637570000043,,008,P007,2025_Feb_01_1032,ConditionRich,2021.2.3,59.94661154763013,
31.75,32.0,41,0.0,Stimuli/Blank.png,0,0,0.0,0,56,56,56,,,,,,,,,,,,,31.76034499999969,0.010344999999688298,None,74.57715150000058,74.57715150000058,74.57715150000058,74.57715150000058,74.57715150000058,74.57715150000058,74.57715150000058,74.57715150000058,74.57715150000058,74.57715150000058,,008,P007,2025_Feb_01_1032,ConditionRich,2021.2.3,59.94661154763013,
32.0,32.75,7,0.75,Stimuli/P007/sun_babhwrqvnhanonuy.jpg,0,0,0.0,0,57,57,57,,,,,,,,,,,,,32.00932180000018,0.009321800000179792,None,74.82728510000015,74.82728510000015,74.82728510000015,74.82728510000015,74.82728510000015,74.82728510000015,74.82728510000015,74.82728510000015,74.82728510000015,74.82728510000015,,008,P007,2025_Feb_01_1032,ConditionRich,2021.2.3,59.94661154763013,
32.75,33.0,41,0.0,Stimuli/Blank.png,0,0,0.0,0,58,58,58,,,,,,,,,,,,,32.760033999999905,0.010033999999905063,None,75.5779521000004,75.5779521000004,75.5779521000004,75.5779521000004,75.5779521000004,75.5779521000004,75.5779521000004,75.5779521000004,75.5779521000004,75.5779521000004,,008,P007,2025_Feb_01_1032,ConditionRich,2021.2.3,59.94661154763013,
33.0,33.75,7,0.75,Stimuli/P007/sun_babhwrqvnhanonuy.jpg,1,0,0.75,0,59,59,59,,,,,,,,,,,,,33.01098830000046,0.010988300000462914,2,75.82818260000022,75.82818260000022,75.82818260000022,75.82818260000022,75.82818260000022,75.82818260000022,75.82818260000022,76.56219049999982,75.82818260000022,75.82818260000022,0.44351649999953224,008,P007,2025_Feb_01_1032,ConditionRich,2021.2.3,59.94661154763013,
33.75,34.0,41,0.0,Stimuli/Blank.png,0,0,0.0,0,60,60,60,,,,,,,,,,,,,33.7616066999999,0.011606699999902048,None,76.57888390000062,76.57888390000062,76.57888390000062,76.57888390000062,76.57888390000062,76.57888390000062,76.57888390000062,76.57888390000062,76.57888390000062,76.57888390000062,,008,P007,2025_Feb_01_1032,ConditionRich,2021.2.3,59.94661154763013,
34.0,34.75,7,0.75,Stimuli/P007/sun_babhwrqvnhanonuy.jpg,0,0,0.0,0,61,61,61,,,,,,,,,,,,,34.011912900000425,0.011912900000424997,None,76.82906079999975,76.82906079999975,76.82906079999975,76.82906079999975,76.82906079999975,76.82906079999975,76.82906079999975,76.82906079999975,76.82906079999975,76.82906079999975,,008,P007,2025_Feb_01_1032,ConditionRich,2021.2.3,59.94661154763013,
34.75,35.0,41,0.0,Stimuli/Blank.png,0,0,0.0,0,62,62,62,,,,,,,,,,,,,34.7624495,0.012449500000002445,None,77.57973200000015,77.57973200000015,77.57973200000015,77.57973200000015,77.57973200000015,77.57973200000015,77.57973200000015,77.57973200000015,77.57973200000015,77.57973200000015,,008,P007,2025_Feb_01_1032,ConditionRich,2021.2.3,59.94661154763013,
35.0,35.75,7,0.75,Stimuli/P007/sun_babhwrqvnhanonuy.jpg,0,0,0.0,0,63,63,63,,,,,,,,,,,,,35.012411800000336,0.01241180000033637,None,77.82994099999996,77.82994099999996,77.82994099999996,77.82994099999996,77.82994099999996,77.82994099999996,77.82994099999996,77.82994099999996,77.82994099999996,77.82994099999996,,008,P007,2025_Feb_01_1032,ConditionRich,2021.2.3,59.94661154763013,
35.75,36.0,41,0.0,Stimuli/Blank.png,0,0,0.0,0,64,64,64,,,,,,,,,,,,,35.76381649999985,0.01381649999984802,None,78.58060389999991,78.58060389999991,78.58060389999991,78.58060389999991,78.58060389999991,78.58060389999991,78.58060389999991,78.58060389999991,78.58060389999991,78.58060389999991,,008,P007,2025_Feb_01_1032,ConditionRich,2021.2.3,59.94661154763013,
36.0,36.75,35,0.75,Stimuli/P007/things_pecan_04s.jpg,0,0,0.0,0,65,65,65,,,,,,,,,,,,,36.013405599999714,0.013405599999714468,None,78.83082749999994,78.83082749999994,78.83082749999994,78.83082749999994,78.83082749999994,78.83082749999994,78.83082749999994,78.83082749999994,78.83082749999994,78.83082749999994,,008,P007,2025_Feb_01_1032,ConditionRich,2021.2.3,59.94661154763013,
36.75,37.0,41,0.0,Stimuli/Blank.png,0,0,0.0,0,66,66,66,,,,,,,,,,,,,36.76406880000013,0.014068800000131887,None,79.58148930000061,79.58148930000061,79.58148930000061,79.58148930000061,79.58148930000061,79.58148930000061,79.58148930000061,79.58148930000061,79.58148930000061,79.58148930000061,,008,P007,2025_Feb_01_1032,ConditionRich,2021.2.3,59.94661154763013,
37.0,37.75,35,0.75,Stimuli/P007/things_pecan_04s.jpg,0,0,0.0,0,67,67,67,,,,,,,,,,,,,37.0140650000003,0.014065000000300643,None,79.83171010000024,79.83171010000024,79.83171010000024,79.83171010000024,79.83171010000024,79.83171010000024,79.83171010000024,79.83171010000024,79.83171010000024,79.83171010000024,,008,P007,2025_Feb_01_1032,ConditionRich,2021.2.3,59.94661154763013,
37.75,38.0,41,0.0,Stimuli/Blank.png,0,0,0.0,0,68,68,68,,,,,,,,,,,,,37.7644820000005,0.014482000000498374,None,80.58237590000044,80.58237590000044,80.58237590000044,80.58237590000044,80.58237590000044,80.58237590000044,80.58237590000044,80.58237590000044,80.58237590000044,80.58237590000044,,008,P007,2025_Feb_01_1032,ConditionRich,2021.2.3,59.94661154763013,
38.0,38.75,35,0.75,Stimuli/P007/things_pecan_04s.jpg,0,0,0.0,0,69,69,69,,,,,,,,,,,,,38.015315499999815,0.015315499999815074,None,80.8492855000004,80.8492855000004,80.8492855000004,80.8492855000004,80.8492855000004,80.8492855000004,80.8492855000004,80.8492855000004,80.8492855000004,80.8492855000004,,008,P007,2025_Feb_01_1032,ConditionRich,2021.2.3,59.94661154763013,
38.75,39.0,41,0.0,Stimuli/Blank.png,0,0,0.0,0,70,70,70,,,,,,,,,,,,,38.76802469999984,0.018024699999841687,None,81.59994379999989,81.59994379999989,81.59994379999989,81.59994379999989,81.59994379999989,81.59994379999989,81.59994379999989,81.59994379999989,81.59994379999989,81.59994379999989,,008,P007,2025_Feb_01_1032,ConditionRich,2021.2.3,59.94661154763013,
39.0,39.75,35,0.75,Stimuli/P007/things_pecan_04s.jpg,0,0,0.0,0,71,71,71,,,,,,,,,,,,,39.017992300000515,0.01799230000051466,None,81.85016470000028,81.85016470000028,81.85016470000028,81.85016470000028,81.85016470000028,81.85016470000028,81.85016470000028,81.85016470000028,81.85016470000028,81.85016470000028,,008,P007,2025_Feb_01_1032,ConditionRich,2021.2.3,59.94661154763013,
39.75,40.0,41,0.0,Stimuli/Blank.png,0,0,0.0,0,72,72,72,,,,,,,,,,,,,39.76839259999997,0.018392599999970116,None,82.60082450000027,82.60082450000027,82.60082450000027,82.60082450000027,82.60082450000027,82.60082450000027,82.60082450000027,82.60082450000027,82.60082450000027,82.60082450000027,,008,P007,2025_Feb_01_1032,ConditionRich,2021.2.3,59.94661154763013,
40.0,40.75,30,0.75,Stimuli/P007/things_jalapeno_04s.jpg,1,0,0.75,0,73,73,73,,,,,,,,,,,,,40.016580800000156,0.01658080000015616,2,82.8343691,82.8343691,82.8343691,82.8343691,82.8343691,82.8343691,82.8343691,None,82.8343691,82.8343691,0.4791861000003337,008,P007,2025_Feb_01_1032,ConditionRich,2021.2.3,59.94661154763013,
40.75,41.0,41,0.0,Stimuli/Blank.png,0,0,0.0,0,74,74,74,,,,,,,,,,,,,40.75370740000017,0.003707400000166672,None,83.5850446000004,83.5850446000004,83.5850446000004,83.5850446000004,83.5850446000004,83.5850446000004,83.5850446000004,83.5850446000004,83.5850446000004,83.5850446000004,,008,P007,2025_Feb_01_1032,ConditionRich,2021.2.3,59.94661154763013,
41.0,41.75,30,0.75,Stimuli/P007/things_jalapeno_04s.jpg,0,0,0.0,0,75,75,75,,,,,,,,,,,,,41.01831310000034,0.018313100000341365,None,83.83526140000049,83.83526140000049,83.83526140000049,83.83526140000049,83.83526140000049,83.83526140000049,83.83526140000049,83.83526140000049,83.83526140000049,83.83526140000049,,008,P007,2025_Feb_01_1032,ConditionRich,2021.2.3,59.94661154763013,
41.75,42.0,41,0.0,Stimuli/Blank.png,0,0,0.0,0,76,76,76,,,,,,,,,,,,,41.75413970000045,0.00413970000045083,None,84.58593530000053,84.58593530000053,84.58593530000053,84.58593530000053,84.58593530000053,84.58593530000053,84.58593530000053,84.58593530000053,84.58593530000053,84.58593530000053,,008,P007,2025_Feb_01_1032,ConditionRich,2021.2.3,59.94661154763013,
42.0,42.75,30,0.75,Stimuli/P007/things_jalapeno_04s.jpg,0,0,0.0,0,77,77,77,,,,,,,,,,,,,42.01823700000023,0.018237000000226544,None,84.83613770000011,84.83613770000011,84.83613770000011,84.83613770000011,84.83613770000011,84.83613770000011,84.83613770000011,84.83613770000011,84.83613770000011,84.83613770000011,,008,P007,2025_Feb_01_1032,ConditionRich,2021.2.3,59.94661154763013,
42.75,43.0,41,0.0,Stimuli/Blank.png,0,0,0.0,0,78,78,78,,,,,,,,,,,,,42.75237730000026,0.0023773000002620392,None,85.57011550000061,85.57011550000061,85.57011550000061,85.57011550000061,85.57011550000061,85.57011550000061,85.57011550000061,85.57011550000061,85.57011550000061,85.57011550000061,,008,P007,2025_Feb_01_1032,ConditionRich,2021.2.3,59.94661154763013,
43.0,43.75,30,0.75,Stimuli/P007/things_jalapeno_04s.jpg,0,0,0.0,0,79,79,79,,,,,,,,,,,,,43.003520299999764,0.0035202999997636653,None,85.82034269999986,85.82034269999986,85.82034269999986,85.82034269999986,85.82034269999986,85.82034269999986,85.82034269999986,85.82034269999986,85.82034269999986,85.82034269999986,,008,P007,2025_Feb_01_1032,ConditionRich,2021.2.3,59.94661154763013,
43.75,44.0,41,0.0,Stimuli/Blank.png,0,0,0.0,0,80,80,80,,,,,,,,,,,,,43.753637900000285,0.003637900000285299,None,86.57100400000036,86.57100400000036,86.57100400000036,86.57100400000036,86.57100400000036,86.57100400000036,86.57100400000036,86.57100400000036,86.57100400000036,86.57100400000036,,008,P007,2025_Feb_01_1032,ConditionRich,2021.2.3,59.94661154763013,
44.0,44.75,13,0.75,Stimuli/P007/sun_bkhuvtsqontzwtbo.jpg,0,0,0.0,0,81,81,81,,,,,,,,,,,,,44.00331929999993,0.003319299999930081,None,86.8212336000006,86.8212336000006,86.8212336000006,86.8212336000006,86.8212336000006,86.8212336000006,86.8212336000006,86.8212336000006,86.8212336000006,86.8212336000006,,008,P007,2025_Feb_01_1032,ConditionRich,2021.2.3,59.94661154763013,
44.75,45.0,41,0.0,Stimuli/Blank.png,0,0,0.0,0,82,82,82,,,,,,,,,,,,,44.75414600000022,0.004146000000218919,None,87.57223400000021,87.57223400000021,87.57223400000021,87.57223400000021,87.57223400000021,87.57223400000021,87.57223400000021,87.57223400000021,87.57223400000021,87.57223400000021,,008,P007,2025_Feb_01_1032,ConditionRich,2021.2.3,59.94661154763013,
45.0,45.75,13,0.75,Stimuli/P007/sun_bkhuvtsqontzwtbo.jpg,0,0,0.0,0,83,83,83,,,,,,,,,,,,,45.00499380000019,0.004993800000193005,None,87.82220010000037,87.82220010000037,87.82220010000037,87.82220010000037,87.82220010000037,87.82220010000037,87.82220010000037,87.82220010000037,87.82220010000037,87.82220010000037,,008,P007,2025_Feb_01_1032,ConditionRich,2021.2.3,59.94661154763013,
45.75,46.0,41,0.0,Stimuli/Blank.png,0,0,0.0,0,84,84,84,,,,,,,,,,,,,45.7555911999998,0.005591199999798846,None,88.57285039999988,88.57285039999988,88.57285039999988,88.57285039999988,88.57285039999988,88.57285039999988,88.57285039999988,88.57285039999988,88.57285039999988,88.57285039999988,,008,P007,2025_Feb_01_1032,ConditionRich,2021.2.3,59.94661154763013,
46.0,46.75,13,0.75,Stimuli/P007/sun_bkhuvtsqontzwtbo.jpg,1,0,0.75,0,85,85,85,,,,,,,,,,,,,46.00510459999987,0.005104599999867787,2,88.82295950000025,88.82295950000025,88.82295950000025,88.82295950000025,88.82295950000025,88.82295950000025,88.82295950000025,89.5570275,88.82295950000025,88.82295950000025,0.41452469999967434,008,P007,2025_Feb_01_1032,ConditionRich,2021.2.3,59.94661154763013,
46.75,47.0,41,0.0,Stimuli/Blank.png,0,0,0.0,0,86,86,86,,,,,,,,,,,,,46.75802790000034,0.008027900000342925,None,89.5903460999998,89.5903460999998,89.5903460999998,89.5903460999998,89.5903460999998,89.5903460999998,89.5903460999998,89.5903460999998,89.5903460999998,89.5903460999998,,008,P007,2025_Feb_01_1032,ConditionRich,2021.2.3,59.94661154763013,
47.0,47.75,13,0.75,Stimuli/P007/sun_bkhuvtsqontzwtbo.jpg,0,0,0.0,0,87,87,87,,,,,,,,,,,,,47.02337140000054,0.023371400000542053,None,89.85728019999988,89.85728019999988,89.85728019999988,89.85728019999988,89.85728019999988,89.85728019999988,89.85728019999988,89.85728019999988,89.85728019999988,89.85728019999988,,008,P007,2025_Feb_01_1032,ConditionRich,2021.2.3,59.94661154763013,
47.75,48.0,41,0.0,Stimuli/Blank.png,0,0,0.0,0,88,88,88,,,,,,,,,,,,,47.77387030000045,0.023870300000453426,None,90.59123020000061,90.59123020000061,90.59123020000061,90.59123020000061,90.59123020000061,90.59123020000061,90.59123020000061,90.59123020000061,90.59123020000061,90.59123020000061,,008,P007,2025_Feb_01_1032,ConditionRich,2021.2.3,59.94661154763013,
48.0,48.75,37,0.75,Stimuli/P007/things_praying_mantis_04s.jpg,0,0,0.0,0,89,89,89,,,,,,,,,,,,,48.00697719999971,0.0069771999997101375,None,90.82477149999977,90.82477149999977,90.82477149999977,90.82477149999977,90.82477149999977,90.82477149999977,90.82477149999977,90.82477149999977,90.82477149999977,90.82477149999977,,008,P007,2025_Feb_01_1032,ConditionRich,2021.2.3,59.94661154763013,
48.75,49.0,41,0.0,Stimuli/Blank.png,0,0,0.0,0,90,90,90,,,,,,,,,,,,,48.758595700000114,0.008595700000114448,None,91.57543739999983,91.57543739999983,91.57543739999983,91.57543739999983,91.57543739999983,91.57543739999983,91.57543739999983,91.57543739999983,91.57543739999983,91.57543739999983,,008,P007,2025_Feb_01_1032,ConditionRich,2021.2.3,59.94661154763013,
49.0,49.75,37,0.75,Stimuli/P007/things_praying_mantis_04s.jpg,0,0,0.0,0,91,91,91,,,,,,,,,,,,,49.00856550000026,0.008565500000258908,None,91.84233010000025,91.84233010000025,91.84233010000025,91.84233010000025,91.84233010000025,91.84233010000025,91.84233010000025,91.84233010000025,91.84233010000025,91.84233010000025,,008,P007,2025_Feb_01_1032,ConditionRich,2021.2.3,59.94661154763013,
49.75,50.0,41,0.0,Stimuli/Blank.png,0,0,0.0,0,92,92,92,,,,,,,,,,,,,49.77512900000056,0.025129000000561064,None,92.59299689999989,92.59299689999989,92.59299689999989,92.59299689999989,92.59299689999989,92.59299689999989,92.59299689999989,92.59299689999989,92.59299689999989,92.59299689999989,,008,P007,2025_Feb_01_1032,ConditionRich,2021.2.3,59.94661154763013,
50.0,50.75,37,0.75,Stimuli/P007/things_praying_mantis_04s.jpg,0,0,0.0,0,93,93,93,,,,,,,,,,,,,50.00926460000028,0.009264600000278733,None,92.82653480000045,92.82653480000045,92.82653480000045,92.82653480000045,92.82653480000045,92.82653480000045,92.82653480000045,92.82653480000045,92.82653480000045,92.82653480000045,,008,P007,2025_Feb_01_1032,ConditionRich,2021.2.3,59.94661154763013,
50.75,51.0,41,0.0,Stimuli/Blank.png,0,0,0.0,0,94,94,94,,,,,,,,,,,,,50.76024740000048,0.010247400000480411,None,93.57722079999985,93.57722079999985,93.57722079999985,93.57722079999985,93.57722079999985,93.57722079999985,93.57722079999985,93.57722079999985,93.57722079999985,93.57722079999985,,008,P007,2025_Feb_01_1032,ConditionRich,2021.2.3,59.94661154763013,
51.0,51.75,37,0.75,Stimuli/P007/things_praying_mantis_04s.jpg,0,0,0.0,0,95,95,95,,,,,,,,,,,,,51.009619600000406,0.009619600000405626,None,93.82742140000028,93.82742140000028,93.82742140000028,93.82742140000028,93.82742140000028,93.82742140000028,93.82742140000028,93.82742140000028,93.82742140000028,93.82742140000028,,008,P007,2025_Feb_01_1032,ConditionRich,2021.2.3,59.94661154763013,
51.75,52.0,41,0.0,Stimuli/Blank.png,0,0,0.0,0,96,96,96,,,,,,,,,,,,,51.76068269999996,0.010682699999961187,None,94.57808590000059,94.57808590000059,94.57808590000059,94.57808590000059,94.57808590000059,94.57808590000059,94.57808590000059,94.57808590000059,94.57808590000059,94.57808590000059,,008,P007,2025_Feb_01_1032,ConditionRich,2021.2.3,59.94661154763013,
52.0,52.75,10,0.75,Stimuli/P007/sun_bdekcgnlcicvgpvq.jpg,0,0,0.0,0,97,97,97,,,,,,,,,,,,,52.0102966000004,0.010296600000401668,None,94.8283080000001,94.8283080000001,94.8283080000001,94.8283080000001,94.8283080000001,94.8283080000001,94.8283080000001,94.8283080000001,94.8283080000001,94.8283080000001,,008,P007,2025_Feb_01_1032,ConditionRich,2021.2.3,59.94661154763013,
52.75,53.0,41,0.0,Stimuli/Blank.png,0,0,0.0,0,98,98,98,,,,,,,,,,,,,52.763839400000506,0.01383940000050643,None,95.59566760000052,95.59566760000052,95.59566760000052,95.59566760000052,95.59566760000052,95.59566760000052,95.59566760000052,95.59566760000052,95.59566760000052,95.59566760000052,,008,P007,2025_Feb_01_1032,ConditionRich,2021.2.3,59.94661154763013,
53.0,53.75,10,0.75,Stimuli/P007/sun_bdekcgnlcicvgpvq.jpg,0,0,0.0,0,99,99,99,,,,,,,,,,,,,53.028858599999694,0.02885859999969398,None,95.86255660000006,95.86255660000006,95.86255660000006,95.86255660000006,95.86255660000006,95.86255660000006,95.86255660000006,95.86255660000006,95.86255660000006,95.86255660000006,,008,P007,2025_Feb_01_1032,ConditionRich,2021.2.3,59.94661154763013,
53.75,54.0,41,0.0,Stimuli/Blank.png,0,0,0.0,0,100,100,100,,,,,,,,,,,,,53.77865110000039,0.028651100000388396,None,96.59653789999993,96.59653789999993,96.59653789999993,96.59653789999993,96.59653789999993,96.59653789999993,96.59653789999993,96.59653789999993,96.59653789999993,96.59653789999993,,008,P007,2025_Feb_01_1032,ConditionRich,2021.2.3,59.94661154763013,
54.0,54.75,10,0.75,Stimuli/P007/sun_bdekcgnlcicvgpvq.jpg,0,0,0.0,0,101,101,101,,,,,,,,,,,,,54.01339000000007,0.013390000000072177,None,96.84678030000032,96.84678030000032,96.84678030000032,96.84678030000032,96.84678030000032,96.84678030000032,96.84678030000032,96.84678030000032,96.84678030000032,96.84678030000032,,008,P007,2025_Feb_01_1032,ConditionRich,2021.2.3,59.94661154763013,
54.75,55.0,41,0.0,Stimuli/Blank.png,0,0,0.0,0,102,102,102,,,,,,,,,,,,,54.77958219999982,0.02958219999982248,None,97.59743119999985,97.59743119999985,97.59743119999985,97.59743119999985,97.59743119999985,97.59743119999985,97.59743119999985,97.59743119999985,97.59743119999985,97.59743119999985,,008,P007,2025_Feb_01_1032,ConditionRich,2021.2.3,59.94661154763013,
55.0,55.75,10,0.75,Stimuli/P007/sun_bdekcgnlcicvgpvq.jpg,0,0,0.0,0,103,103,103,,,,,,,,,,,,,55.01400730000023,0.014007300000230316,None,97.84765020000032,97.84765020000032,97.84765020000032,97.84765020000032,97.84765020000032,97.84765020000032,97.84765020000032,97.84765020000032,97.84765020000032,97.84765020000032,,008,P007,2025_Feb_01_1032,ConditionRich,2021.2.3,59.94661154763013,
55.75,56.0,41,0.0,Stimuli/Blank.png,0,0,0.0,0,104,104,104,,,,,,,,,,,,,55.781134900000325,0.031134900000324706,None,98.59832160000042,98.59832160000042,98.59832160000042,98.59832160000042,98.59832160000042,98.59832160000042,98.59832160000042,98.59832160000042,98.59832160000042,98.59832160000042,,008,P007,2025_Feb_01_1032,ConditionRich,2021.2.3,59.94661154763013,
56.0,56.75,34,0.75,Stimuli/P007/things_moose_04s.jpg,0,0,0.0,0,105,105,105,,,,,,,,,,,,,56.014506399999846,0.014506399999845598,None,98.83184640000036,98.83184640000036,98.83184640000036,98.83184640000036,98.83184640000036,98.83184640000036,98.83184640000036,98.83184640000036,98.83184640000036,98.83184640000036,,008,P007,2025_Feb_01_1032,ConditionRich,2021.2.3,59.94661154763013,
56.75,57.0,41,0.0,Stimuli/Blank.png,0,0,0.0,0,106,106,106,,,,,,,,,,,,,56.76530449999973,0.01530449999972916,None,99.5825218,99.5825218,99.5825218,99.5825218,99.5825218,99.5825218,99.5825218,99.5825218,99.5825218,99.5825218,,008,P007,2025_Feb_01_1032,ConditionRich,2021.2.3,59.94661154763013,
57.0,57.75,34,0.75,Stimuli/P007/things_moose_04s.jpg,0,0,0.0,0,107,107,107,,,,,,,,,,,,,57.01797140000053,0.017971400000533322,None,99.84942320000027,99.84942320000027,99.84942320000027,99.84942320000027,99.84942320000027,99.84942320000027,99.84942320000027,99.84942320000027,99.84942320000027,99.84942320000027,,008,P007,2025_Feb_01_1032,ConditionRich,2021.2.3,59.94661154763013,
57.75,58.0,41,0.0,Stimuli/Blank.png,0,0,0.0,0,108,108,108,,,,,,,,,,,,,57.76799350000056,0.017993500000557106,None,100.60009280000031,100.60009280000031,100.60009280000031,100.60009280000031,100.60009280000031,100.60009280000031,100.60009280000031,100.60009280000031,100.60009280000031,100.60009280000031,,008,P007,2025_Feb_01_1032,ConditionRich,2021.2.3,59.94661154763013,
58.0,58.75,34,0.75,Stimuli/P007/things_moose_04s.jpg,0,0,0.0,0,109,109,109,,,,,,,,,,,,,58.01595670000006,0.015956700000060664,None,100.8336175000004,100.8336175000004,100.8336175000004,100.8336175000004,100.8336175000004,100.8336175000004,100.8336175000004,100.8336175000004,100.8336175000004,100.8336175000004,,008,P007,2025_Feb_01_1032,ConditionRich,2021.2.3,59.94661154763013,
58.75,59.0,41,0.0,Stimuli/Blank.png,0,0,0.0,0,110,110,110,,,,,,,,,,,,,58.74994570000035,-5.429999964690069e-05,None,101.56763510000019,101.56763510000019,101.56763510000019,101.56763510000019,101.56763510000019,101.56763510000019,101.56763510000019,101.56763510000019,101.56763510000019,101.56763510000019,,008,P007,2025_Feb_01_1032,ConditionRich,2021.2.3,59.94661154763013,
59.0,59.75,34,0.75,Stimuli/P007/things_moose_04s.jpg,0,0,0.0,0,111,111,111,,,,,,,,,,,,,58.99988620000022,-0.00011379999978089472,None,101.81783600000017,101.81783600000017,101.81783600000017,101.81783600000017,101.81783600000017,101.81783600000017,101.81783600000017,101.81783600000017,101.81783600000017,101.81783600000017,,008,P007,2025_Feb_01_1032,ConditionRich,2021.2.3,59.94661154763013,
59.75,60.0,41,0.0,Stimuli/Blank.png,0,0,0.0,0,112,112,112,,,,,,,,,,,,,59.75369150000006,0.0036915000000590226,None,102.5851831,102.5851831,102.5851831,102.5851831,102.5851831,102.5851831,102.5851831,102.5851831,102.5851831,102.5851831,,008,P007,2025_Feb_01_1032,ConditionRich,2021.2.3,59.94661154763013,
60.0,60.75,5,0.75,Stimuli/P007/sun_ayzkwnqsoiycbncn.jpg,0,0,0.0,0,113,113,113,,,,,,,,,,,,,60.01746559999992,0.017465599999923143,None,102.83539590000055,102.83539590000055,102.83539590000055,102.83539590000055,102.83539590000055,102.83539590000055,102.83539590000055,102.83539590000055,102.83539590000055,102.83539590000055,,008,P007,2025_Feb_01_1032,ConditionRich,2021.2.3,59.94661154763013,
60.75,61.0,41,0.0,Stimuli/Blank.png,0,0,0.0,0,114,114,114,,,,,,,,,,,,,60.75172720000046,0.0017272000004595611,None,103.56937310000012,103.56937310000012,103.56937310000012,103.56937310000012,103.56937310000012,103.56937310000012,103.56937310000012,103.56937310000012,103.56937310000012,103.56937310000012,,008,P007,2025_Feb_01_1032,ConditionRich,2021.2.3,59.94661154763013,
61.0,61.75,5,0.75,Stimuli/P007/sun_ayzkwnqsoiycbncn.jpg,0,0,0.0,0,115,115,115,,,,,,,,,,,,,61.002398300000095,0.0023983000000953325,None,103.81958980000036,103.81958980000036,103.81958980000036,103.81958980000036,103.81958980000036,103.81958980000036,103.81958980000036,103.81958980000036,103.81958980000036,103.81958980000036,,008,P007,2025_Feb_01_1032,ConditionRich,2021.2.3,59.94661154763013,
61.75,62.0,41,0.0,Stimuli/Blank.png,0,0,0.0,0,116,116,116,,,,,,,,,,,,,61.75305560000015,0.003055600000152481,None,104.57026000000042,104.57026000000042,104.57026000000042,104.57026000000042,104.57026000000042,104.57026000000042,104.57026000000042,104.57026000000042,104.57026000000042,104.57026000000042,,008,P007,2025_Feb_01_1032,ConditionRich,2021.2.3,59.94661154763013,
62.0,62.75,5,0.75,Stimuli/P007/sun_ayzkwnqsoiycbncn.jpg,0,0,0.0,0,117,117,117,,,,,,,,,,,,,62.00339129999975,0.0033912999997482984,None,104.83720799999992,104.83720799999992,104.83720799999992,104.83720799999992,104.83720799999992,104.83720799999992,104.83720799999992,104.83720799999992,104.83720799999992,104.83720799999992,,008,P007,2025_Feb_01_1032,ConditionRich,2021.2.3,59.94661154763013,
62.75,63.0,41,0.0,Stimuli/Blank.png,0,0,0.0,0,118,118,118,,,,,,,,,,,,,62.770520099999885,0.020520099999885133,None,105.58790330000011,105.58790330000011,105.58790330000011,105.58790330000011,105.58790330000011,105.58790330000011,105.58790330000011,105.58790330000011,105.58790330000011,105.58790330000011,,008,P007,2025_Feb_01_1032,ConditionRich,2021.2.3,59.94661154763013,
63.0,63.75,5,0.75,Stimuli/P007/sun_ayzkwnqsoiycbncn.jpg,0,0,0.0,0,119,119,119,,,,,,,,,,,,,63.003701900000124,0.0037019000001237146,None,105.82156380000015,105.82156380000015,105.82156380000015,105.82156380000015,105.82156380000015,105.82156380000015,105.82156380000015,105.82156380000015,105.82156380000015,105.82156380000015,,008,P007,2025_Feb_01_1032,ConditionRich,2021.2.3,59.94661154763013,
63.75,64.0,41,0.0,Stimuli/Blank.png,0,0,0.0,0,120,120,120,,,,,,,,,,,,,63.755155200000445,0.005155200000444893,None,106.57210840000062,106.57210840000062,106.57210840000062,106.57210840000062,106.57210840000062,106.57210840000062,106.57210840000062,106.57210840000062,106.57210840000062,106.57210840000062,,008,P007,2025_Feb_01_1032,ConditionRich,2021.2.3,59.94661154763013,
64.0,64.75,12,0.75,Stimuli/P007/sun_bitpmyvulluuasab.jpg,0,0,0.0,0,121,121,121,,,,,,,,,,,,,64.00502899999992,0.0050289999999222346,None,106.83892400000059,106.83892400000059,106.83892400000059,106.83892400000059,106.83892400000059,106.83892400000059,106.83892400000059,106.83892400000059,106.83892400000059,106.83892400000059,,008,P007,2025_Feb_01_1032,ConditionRich,2021.2.3,59.94661154763013,
64.75,65.0,41,0.0,Stimuli/Blank.png,0,0,0.0,0,122,122,122,,,,,,,,,,,,,64.77247910000006,0.02247910000005504,None,107.5896001000001,107.5896001000001,107.5896001000001,107.5896001000001,107.5896001000001,107.5896001000001,107.5896001000001,107.5896001000001,107.5896001000001,107.5896001000001,,008,P007,2025_Feb_01_1032,ConditionRich,2021.2.3,59.94661154763013,
65.0,65.75,12,0.75,Stimuli/P007/sun_bitpmyvulluuasab.jpg,0,0,0.0,0,123,123,123,,,,,,,,,,,,,65.00771910000003,0.007719100000031176,None,107.8398188000001,107.8398188000001,107.8398188000001,107.8398188000001,107.8398188000001,107.8398188000001,107.8398188000001,107.8398188000001,107.8398188000001,107.8398188000001,,008,P007,2025_Feb_01_1032,ConditionRich,2021.2.3,59.94661154763013,
65.75,66.0,41,0.0,Stimuli/Blank.png,0,0,0.0,0,124,124,124,,,,,,,,,,,,,65.77431419999994,0.024314199999935227,None,108.59050070000012,108.59050070000012,108.59050070000012,108.59050070000012,108.59050070000012,108.59050070000012,108.59050070000012,108.59050070000012,108.59050070000012,108.59050070000012,,008,P007,2025_Feb_01_1032,ConditionRich,2021.2.3,59.94661154763013,
66.0,66.75,12,0.75,Stimuli/P007/sun_bitpmyvulluuasab.jpg,1,0,0.75,0,125,125,125,,,,,,,,,,,,,66.00810270000056,0.008102700000563345,2,108.84071649999987,108.84071649999987,108.84071649999987,108.84071649999987,108.84071649999987,108.84071649999987,108.84071649999987,109.57467929999984,108.84071649999987,108.84071649999987,0.4499458999998751,008,P007,2025_Feb_01_1032,ConditionRich,2021.2.3,59.94661154763013,
66.75,67.0,41,0.0,Stimuli/Blank.png,0,0,0.0,0,126,126,126,,,,,,,,,,,,,66.7745458999998,0.02454589999979362,None,109.5913827000004,109.5913827000004,109.5913827000004,109.5913827000004,109.5913827000004,109.5913827000004,109.5913827000004,109.5913827000004,109.5913827000004,109.5913827000004,,008,P007,2025_Feb_01_1032,ConditionRich,2021.2.3,59.94661154763013,
67.0,67.75,12,0.75,Stimuli/P007/sun_bitpmyvulluuasab.jpg,0,0,0.0,0,127,127,127,,,,,,,,,,,,,67.00801169999977,0.008011699999769917,None,109.82490039999993,109.82490039999993,109.82490039999993,109.82490039999993,109.82490039999993,109.82490039999993,109.82490039999993,109.82490039999993,109.82490039999993,109.82490039999993,,008,P007,2025_Feb_01_1032,ConditionRich,2021.2.3,59.94661154763013,
67.75,68.0,41,0.0,Stimuli/Blank.png,0,0,0.0,0,128,128,128,,,,,,,,,,,,,67.7585669,0.008566900000005262,None,110.57558179999978,110.57558179999978,110.57558179999978,110.57558179999978,110.57558179999978,110.57558179999978,110.57558179999978,110.57558179999978,110.57558179999978,110.57558179999978,,008,P007,2025_Feb_01_1032,ConditionRich,2021.2.3,59.94661154763013,
68.0,68.75,20,0.75,Stimuli/P007/sun_btrxtfbwtggtrpfv.jpg,0,0,0.0,0,129,129,129,,,,,,,,,,,,,68.00789330000043,0.007893300000432646,None,110.82579020000048,110.82579020000048,110.82579020000048,110.82579020000048,110.82579020000048,110.82579020000048,110.82579020000048,110.82579020000048,110.82579020000048,110.82579020000048,,008,P007,2025_Feb_01_1032,ConditionRich,2021.2.3,59.94661154763013,
68.75,69.0,41,0.0,Stimuli/Blank.png,0,0,0.0,0,130,130,130,,,,,,,,,,,,,68.75967130000026,0.009671300000263727,None,111.57645800000046,111.57645800000046,111.57645800000046,111.57645800000046,111.57645800000046,111.57645800000046,111.57645800000046,111.57645800000046,111.57645800000046,111.57645800000046,,008,P007,2025_Feb_01_1032,ConditionRich,2021.2.3,59.94661154763013,
69.0,69.75,20,0.75,Stimuli/P007/sun_btrxtfbwtggtrpfv.jpg,0,0,0.0,0,131,131,131,,,,,,,,,,,,,69.0087368000004,0.00873680000040622,None,111.82667579999998,111.82667579999998,111.82667579999998,111.82667579999998,111.82667579999998,111.82667579999998,111.82667579999998,111.82667579999998,111.82667579999998,111.82667579999998,,008,P007,2025_Feb_01_1032,ConditionRich,2021.2.3,59.94661154763013,
69.75,70.0,41,0.0,Stimuli/Blank.png,0,0,0.0,0,132,132,132,,,,,,,,,,,,,69.75954100000035,0.00954100000035396,None,112.57734080000046,112.57734080000046,112.57734080000046,112.57734080000046,112.57734080000046,112.57734080000046,112.57734080000046,112.57734080000046,112.57734080000046,112.57734080000046,,008,P007,2025_Feb_01_1032,ConditionRich,2021.2.3,59.94661154763013,
70.0,70.75,20,0.75,Stimuli/P007/sun_btrxtfbwtggtrpfv.jpg,0,0,0.0,0,133,133,133,,,,,,,,,,,,,70.0126949000005,0.012694900000497,None,112.84424839999974,112.84424839999974,112.84424839999974,112.84424839999974,112.84424839999974,112.84424839999974,112.84424839999974,112.84424839999974,112.84424839999974,112.84424839999974,,008,P007,2025_Feb_01_1032,ConditionRich,2021.2.3,59.94661154763013,
70.75,71.0,41,0.0,Stimuli/Blank.png,0,0,0.0,0,134,134,134,,,,,,,,,,,,,70.77771070000017,0.02771070000017062,None,113.59491309999976,113.59491309999976,113.59491309999976,113.59491309999976,113.59491309999976,113.59491309999976,113.59491309999976,113.59491309999976,113.59491309999976,113.59491309999976,,008,P007,2025_Feb_01_1032,ConditionRich,2021.2.3,59.94661154763013,
71.0,71.75,20,0.75,Stimuli/P007/sun_btrxtfbwtggtrpfv.jpg,0,0,0.0,0,135,135,135,,,,,,,,,,,,,71.0127524999998,0.012752499999805877,None,113.84513239999978,113.84513239999978,113.84513239999978,113.84513239999978,113.84513239999978,113.84513239999978,113.84513239999978,113.84513239999978,113.84513239999978,113.84513239999978,,008,P007,2025_Feb_01_1032,ConditionRich,2021.2.3,59.94661154763013,
71.75,72.0,41,0.0,Stimuli/Blank.png,0,0,0.0,0,136,136,136,,,,,,,,,,,,,71.77852320000056,0.02852320000056352,None,114.59579730000041,114.59579730000041,114.59579730000041,114.59579730000041,114.59579730000041,114.59579730000041,114.59579730000041,114.59579730000041,114.59579730000041,114.59579730000041,,008,P007,2025_Feb_01_1032,ConditionRich,2021.2.3,59.94661154763013,
72.0,72.75,27,0.75,Stimuli/P007/things_fur_coat_04s.jpg,0,0,0.0,0,137,137,137,,,,,,,,,,,,,72.01240400000006,0.012404000000060478,None,114.82932960000016,114.82932960000016,114.82932960000016,114.82932960000016,114.82932960000016,114.82932960000016,114.82932960000016,114.82932960000016,114.82932960000016,114.82932960000016,,008,P007,2025_Feb_01_1032,ConditionRich,2021.2.3,59.94661154763013,
72.75,73.0,41,0.0,Stimuli/Blank.png,0,0,0.0,0,138,138,138,,,,,,,,,,,,,72.7632421999997,0.013242199999695003,None,115.58000510000056,115.58000510000056,115.58000510000056,115.58000510000056,115.58000510000056,115.58000510000056,115.58000510000056,115.58000510000056,115.58000510000056,115.58000510000056,,008,P007,2025_Feb_01_1032,ConditionRich,2021.2.3,59.94661154763013,
73.0,73.75,27,0.75,Stimuli/P007/things_fur_coat_04s.jpg,0,0,0.0,0,139,139,139,,,,,,,,,,,,,73.01372749999973,0.013727499999731663,None,115.84690360000059,115.84690360000059,115.84690360000059,115.84690360000059,115.84690360000059,115.84690360000059,115.84690360000059,115.84690360000059,115.84690360000059,115.84690360000059,,008,P007,2025_Feb_01_1032,ConditionRich,2021.2.3,59.94661154763013,
73.75,74.0,41,0.0,Stimuli/Blank.png,0,0,0.0,0,140,140,140,,,,,,,,,,,,,73.78050549999989,0.030505499999890162,None,116.59756500000003,116.59756500000003,116.59756500000003,116.59756500000003,116.59756500000003,116.59756500000003,116.59756500000003,116.59756500000003,116.59756500000003,116.59756500000003,,008,P007,2025_Feb_01_1032,ConditionRich,2021.2.3,59.94661154763013,
74.0,74.75,27,0.75,Stimuli/P007/things_fur_coat_04s.jpg,0,0,0.0,0,141,141,141,,,,,,,,,,,,,74.01375389999976,0.013753899999755959,None,116.8311007000002,116.8311007000002,116.8311007000002,116.8311007000002,116.8311007000002,116.8311007000002,116.8311007000002,116.8311007000002,116.8311007000002,116.8311007000002,,008,P007,2025_Feb_01_1032,ConditionRich,2021.2.3,59.94661154763013,
74.75,75.0,41,0.0,Stimuli/Blank.png,0,0,0.0,0,142,142,142,,,,,,,,,,,,,74.76499299999978,0.014992999999776657,None,117.58176660000026,117.58176660000026,117.58176660000026,117.58176660000026,117.58176660000026,117.58176660000026,117.58176660000026,117.58176660000026,117.58176660000026,117.58176660000026,,008,P007,2025_Feb_01_1032,ConditionRich,2021.2.3,59.94661154763013,
75.0,75.75,27,0.75,Stimuli/P007/things_fur_coat_04s.jpg,0,0,0.0,0,143,143,143,,,,,,,,,,,,,75.01415650000035,0.014156500000353844,None,117.83199719999993,117.83199719999993,117.83199719999993,117.83199719999993,117.83199719999993,117.83199719999993,117.83199719999993,117.83199719999993,117.83199719999993,117.83199719999993,,008,P007,2025_Feb_01_1032,ConditionRich,2021.2.3,59.94661154763013,
75.75,76.0,41,0.0,Stimuli/Blank.png,0,0,0.0,0,144,144,144,,,,,,,,,,,,,75.76765460000024,0.01765460000024177,None,118.5993623000004,118.5993623000004,118.5993623000004,118.5993623000004,118.5993623000004,118.5993623000004,118.5993623000004,118.5993623000004,118.5993623000004,118.5993623000004,,008,P007,2025_Feb_01_1032,ConditionRich,2021.2.3,59.94661154763013,
76.0,76.75,19,0.75,Stimuli/P007/sun_brpfgrmubnnjvfkw.jpg,0,0,0.0,0,145,145,145,,,,,,,,,,,,,76.01511029999983,0.015110299999832932,None,118.84957880000002,118.84957880000002,118.84957880000002,118.84957880000002,118.84957880000002,118.84957880000002,118.84957880000002,118.84957880000002,118.84957880000002,118.84957880000002,,008,P007,2025_Feb_01_1032,ConditionRich,2021.2.3,59.94661154763013,
76.75,77.0,41,0.0,Stimuli/Blank.png,0,0,0.0,0,146,146,146,,,,,,,,,,,,,76.76779170000009,0.017791700000088895,None,119.60022440000012,119.60022440000012,119.60022440000012,119.60022440000012,119.60022440000012,119.60022440000012,119.60022440000012,119.60022440000012,119.60022440000012,119.60022440000012,,008,P007,2025_Feb_01_1032,ConditionRich,2021.2.3,59.94661154763013,
77.0,77.75,19,0.75,Stimuli/P007/sun_brpfgrmubnnjvfkw.jpg,0,0,0.0,0,147,147,147,,,,,,,,,,,,,77.01811540000017,0.018115400000169757,None,119.8504810000004,119.8504810000004,119.8504810000004,119.8504810000004,119.8504810000004,119.8504810000004,119.8504810000004,119.8504810000004,119.8504810000004,119.8504810000004,,008,P007,2025_Feb_01_1032,ConditionRich,2021.2.3,59.94661154763013,
77.75,78.0,41,0.0,Stimuli/Blank.png,0,0,0.0,0,148,148,148,,,,,,,,,,,,,77.76730550000048,0.01730550000047515,None,120.58443609999995,120.58443609999995,120.58443609999995,120.58443609999995,120.58443609999995,120.58443609999995,120.58443609999995,120.58443609999995,120.58443609999995,120.58443609999995,,008,P007,2025_Feb_01_1032,ConditionRich,2021.2.3,59.94661154763013,
78.0,78.75,19,0.75,Stimuli/P007/sun_brpfgrmubnnjvfkw.jpg,0,0,0.0,0,149,149,149,,,,,,,,,,,,,78.0028054000004,0.00280540000039764,None,120.83464240000012,120.83464240000012,120.83464240000012,120.83464240000012,120.83464240000012,120.83464240000012,120.83464240000012,120.83464240000012,120.83464240000012,120.83464240000012,,008,P007,2025_Feb_01_1032,ConditionRich,2021.2.3,59.94661154763013,
78.75,79.0,41,0.0,Stimuli/Blank.png,0,0,0.0,0,150,150,150,,,,,,,,,,,,,78.7684491,0.018449099999997998,None,121.58531270000003,121.58531270000003,121.58531270000003,121.58531270000003,121.58531270000003,121.58531270000003,121.58531270000003,121.58531270000003,121.58531270000003,121.58531270000003,,008,P007,2025_Feb_01_1032,ConditionRich,2021.2.3,59.94661154763013,
79.0,79.75,19,0.75,Stimuli/P007/sun_brpfgrmubnnjvfkw.jpg,0,0,0.0,0,151,151,151,,,,,,,,,,,,,79.00381440000001,0.0038144000000102096,None,121.83555849999993,121.83555849999993,121.83555849999993,121.83555849999993,121.83555849999993,121.83555849999993,121.83555849999993,121.83555849999993,121.83555849999993,121.83555849999993,,008,P007,2025_Feb_01_1032,ConditionRich,2021.2.3,59.94661154763013,
79.75,80.0,41,0.0,Stimuli/Blank.png,0,0,0.0,0,152,152,152,,,,,,,,,,,,,79.76834680000047,0.018346800000472285,None,122.58619050000016,122.58619050000016,122.58619050000016,122.58619050000016,122.58619050000016,122.58619050000016,122.58619050000016,122.58619050000016,122.58619050000016,122.58619050000016,,008,P007,2025_Feb_01_1032,ConditionRich,2021.2.3,59.94661154763013,
80.0,80.75,2,0.75,Stimuli/P007/sun_ajyzloqaptmicnfr.jpg,0,0,0.0,0,153,153,153,,,,,,,,,,,,,80.00258370000029,0.002583700000286626,None,122.83641080000052,122.83641080000052,122.83641080000052,122.83641080000052,122.83641080000052,122.83641080000052,122.83641080000052,122.83641080000052,122.83641080000052,122.83641080000052,,008,P007,2025_Feb_01_1032,ConditionRich,2021.2.3,59.94661154763013,
80.75,81.0,41,0.0,Stimuli/Blank.png,0,0,0.0,0,154,154,154,,,,,,,,,,,,,80.76928020000014,0.019280200000139303,None,123.5870743000005,123.5870743000005,123.5870743000005,123.5870743000005,123.5870743000005,123.5870743000005,123.5870743000005,123.5870743000005,123.5870743000005,123.5870743000005,,008,P007,2025_Feb_01_1032,ConditionRich,2021.2.3,59.94661154763013,
81.0,81.75,2,0.75,Stimuli/P007/sun_ajyzloqaptmicnfr.jpg,0,0,0.0,0,155,155,155,,,,,,,,,,,,,81.00392460000057,0.003924600000573264,None,123.83730990000004,123.83730990000004,123.83730990000004,123.83730990000004,123.83730990000004,123.83730990000004,123.83730990000004,123.83730990000004,123.83730990000004,123.83730990000004,,008,P007,2025_Feb_01_1032,ConditionRich,2021.2.3,59.94661154763013,
81.75,82.0,41,0.0,Stimuli/Blank.png,0,0,0.0,0,156,156,156,,,,,,,,,,,,,81.77013420000003,0.020134200000029523,None,124.58796679999978,124.58796679999978,124.58796679999978,124.58796679999978,124.58796679999978,124.58796679999978,124.58796679999978,124.58796679999978,124.58796679999978,124.58796679999978,,008,P007,2025_Feb_01_1032,ConditionRich,2021.2.3,59.94661154763013,
82.0,82.75,2,0.75,Stimuli/P007/sun_ajyzloqaptmicnfr.jpg,0,0,0.0,0,157,157,157,,,,,,,,,,,,,82.00365409999995,0.003654099999948812,None,124.82150100000035,124.82150100000035,124.82150100000035,124.82150100000035,124.82150100000035,124.82150100000035,124.82150100000035,124.82150100000035,124.82150100000035,124.82150100000035,,008,P007,2025_Feb_01_1032,ConditionRich,2021.2.3,59.94661154763013,
82.75,83.0,41,0.0,Stimuli/Blank.png,0,0,0.0,0,158,158,158,,,,,,,,,,,,,82.75426169999992,0.004261699999915436,None,125.57216599999992,125.57216599999992,125.57216599999992,125.57216599999992,125.57216599999992,125.57216599999992,125.57216599999992,125.57216599999992,125.57216599999992,125.57216599999992,,008,P007,2025_Feb_01_1032,ConditionRich,2021.2.3,59.94661154763013,
83.0,83.75,2,0.75,Stimuli/P007/sun_ajyzloqaptmicnfr.jpg,0,0,0.0,0,159,159,159,,,,,,,,,,,,,83.0051856,0.005185600000004342,None,125.82239190000018,125.82239190000018,125.82239190000018,125.82239190000018,125.82239190000018,125.82239190000018,125.82239190000018,125.82239190000018,125.82239190000018,125.82239190000018,,008,P007,2025_Feb_01_1032,ConditionRich,2021.2.3,59.94661154763013,
83.75,84.0,41,0.0,Stimuli/Blank.png,0,0,0.0,0,160,160,160,,,,,,,,,,,,,83.7551069000001,0.0051069000001007225,None,126.57305240000005,126.57305240000005,126.57305240000005,126.57305240000005,126.57305240000005,126.57305240000005,126.57305240000005,126.57305240000005,126.57305240000005,126.57305240000005,,008,P007,2025_Feb_01_1032,ConditionRich,2021.2.3,59.94661154763013,
84.0,100.0,0,0.0,Stimuli/Blank.png,1,9,9.75,0,161,161,161,,,,,,,,,,,,,84.00543300000027,0.005433000000266475,2,126.82327750000059,126.82327750000059,126.82327750000059,126.82327750000059,126.82327750000059,126.82327750000059,135.81456359999993,136.54854760000035,126.82327750000059,126.82327750000059,9.338286600000174,008,P007,2025_Feb_01_1032,ConditionRich,2021.2.3,59.94661154763013,
100.0,100.75,15,0.75,Stimuli/P007/sun_bmeductqpfkygtww.jpg,0,0,0.0,0,162,162,162,,,,,,,,,,,,,100.00360300000011,0.0036030000001119333,None,142.8374558000005,142.8374558000005,142.8374558000005,142.8374558000005,142.8374558000005,142.8374558000005,142.8374558000005,142.8374558000005,142.8374558000005,142.8374558000005,,008,P007,2025_Feb_01_1032,ConditionRich,2021.2.3,59.94661154763013,
100.75,101.0,41,0.0,Stimuli/Blank.png,0,0,0.0,0,163,163,163,,,,,,,,,,,,,100.7702119000005,0.0202119000005041,None,143.5881070000005,143.5881070000005,143.5881070000005,143.5881070000005,143.5881070000005,143.5881070000005,143.5881070000005,143.5881070000005,143.5881070000005,143.5881070000005,,008,P007,2025_Feb_01_1032,ConditionRich,2021.2.3,59.94661154763013,
101.0,101.75,15,0.75,Stimuli/P007/sun_bmeductqpfkygtww.jpg,0,0,0.0,0,164,164,164,,,,,,,,,,,,,101.0042685999997,0.0042685999997047475,None,143.82164850000026,143.82164850000026,143.82164850000026,143.82164850000026,143.82164850000026,143.82164850000026,143.82164850000026,143.82164850000026,143.82164850000026,143.82164850000026,,008,P007,2025_Feb_01_1032,ConditionRich,2021.2.3,59.94661154763013,
101.75,102.0,41,0.0,Stimuli/Blank.png,0,0,0.0,0,165,165,165,,,,,,,,,,,,,101.75491010000042,0.004910100000415696,None,144.5723052000003,144.5723052000003,144.5723052000003,144.5723052000003,144.5723052000003,144.5723052000003,144.5723052000003,144.5723052000003,144.5723052000003,144.5723052000003,,008,P007,2025_Feb_01_1032,ConditionRich,2021.2.3,59.94661154763013,
102.0,102.75,15,0.75,Stimuli/P007/sun_bmeductqpfkygtww.jpg,0,0,0.0,0,166,166,166,,,,,,,,,,,,,102.00527469999997,0.005274699999972654,None,144.83923240000058,144.83923240000058,144.83923240000058,144.83923240000058,144.83923240000058,144.83923240000058,144.83923240000058,144.83923240000058,144.83923240000058,144.83923240000058,,008,P007,2025_Feb_01_1032,ConditionRich,2021.2.3,59.94661154763013,
102.75,103.0,41,0.0,Stimuli/Blank.png,0,0,0.0,0,167,167,167,,,,,,,,,,,,,102.77222679999977,0.022226799999771174,None,145.5898747000001,145.5898747000001,145.5898747000001,145.5898747000001,145.5898747000001,145.5898747000001,145.5898747000001,145.5898747000001,145.5898747000001,145.5898747000001,,008,P007,2025_Feb_01_1032,ConditionRich,2021.2.3,59.94661154763013,
103.0,103.75,15,0.75,Stimuli/P007/sun_bmeductqpfkygtww.jpg,0,0,0.0,0,168,168,168,,,,,,,,,,,,,103.00772020000022,0.007720200000221666,None,145.84009460000016,145.84009460000016,145.84009460000016,145.84009460000016,145.84009460000016,145.84009460000016,145.84009460000016,145.84009460000016,145.84009460000016,145.84009460000016,,008,P007,2025_Feb_01_1032,ConditionRich,2021.2.3,59.94661154763013,
103.75,104.0,41,0.0,Stimuli/Blank.png,0,0,0.0,0,169,169,169,,,,,,,,,,,,,103.77387939999971,0.023879399999714224,None,146.59076189999996,146.59076189999996,146.59076189999996,146.59076189999996,146.59076189999996,146.59076189999996,146.59076189999996,146.59076189999996,146.59076189999996,146.59076189999996,,008,P007,2025_Feb_01_1032,ConditionRich,2021.2.3,59.94661154763013,
104.0,104.75,18,0.75,Stimuli/P007/sun_borgfidyubrwsuuw.jpg,0,0,0.0,0,170,170,170,,,,,,,,,,,,,104.0072396000005,0.007239600000502833,None,146.82429909999973,146.82429909999973,146.82429909999973,146.82429909999973,146.82429909999973,146.82429909999973,146.82429909999973,146.82429909999973,146.82429909999973,146.82429909999973,,008,P007,2025_Feb_01_1032,ConditionRich,2021.2.3,59.94661154763013,
104.75,105.0,41,0.0,Stimuli/Blank.png,0,0,0.0,0,171,171,171,,,,,,,,,,,,,104.75724590000027,0.007245900000270922,None,147.57497609999973,147.57497609999973,147.57497609999973,147.57497609999973,147.57497609999973,147.57497609999973,147.57497609999973,147.57497609999973,147.57497609999973,147.57497609999973,,008,P007,2025_Feb_01_1032,ConditionRich,2021.2.3,59.94661154763013,
105.0,105.75,18,0.75,Stimuli/P007/sun_borgfidyubrwsuuw.jpg,0,0,0.0,0,172,172,172,,,,,,,,,,,,,105.00732119999975,0.007321199999751116,None,147.82518789999995,147.82518789999995,147.82518789999995,147.82518789999995,147.82518789999995,147.82518789999995,147.82518789999995,147.82518789999995,147.82518789999995,147.82518789999995,,008,P007,2025_Feb_01_1032,ConditionRich,2021.2.3,59.94661154763013,
105.75,106.0,41,0.0,Stimuli/Blank.png,0,0,0.0,0,173,173,173,,,,,,,,,,,,,105.75983840000026,0.009838400000262482,None,148.5758577000006,148.5758577000006,148.5758577000006,148.5758577000006,148.5758577000006,148.5758577000006,148.5758577000006,148.5758577000006,148.5758577000006,148.5758577000006,,008,P007,2025_Feb_01_1032,ConditionRich,2021.2.3,59.94661154763013,
106.0,106.75,18,0.75,Stimuli/P007/sun_borgfidyubrwsuuw.jpg,0,0,0.0,0,174,174,174,,,,,,,,,,,,,106.00833760000023,0.00833760000023176,None,148.82607319999988,148.82607319999988,148.82607319999988,148.82607319999988,148.82607319999988,148.82607319999988,148.82607319999988,148.82607319999988,148.82607319999988,148.82607319999988,,008,P007,2025_Feb_01_1032,ConditionRich,2021.2.3,59.94661154763013,
106.75,107.0,41,0.0,Stimuli/Blank.png,0,0,0.0,0,175,175,175,,,,,,,,,,,,,106.75878740000007,0.00878740000007383,None,149.57673520000026,149.57673520000026,149.57673520000026,149.57673520000026,149.57673520000026,149.57673520000026,149.57673520000026,149.57673520000026,149.57673520000026,149.57673520000026,,008,P007,2025_Feb_01_1032,ConditionRich,2021.2.3,59.94661154763013,
107.0,107.75,18,0.75,Stimuli/P007/sun_borgfidyubrwsuuw.jpg,0,0,0.0,0,176,176,176,,,,,,,,,,,,,107.00955630000044,0.009556300000440388,None,149.8269532000004,149.8269532000004,149.8269532000004,149.8269532000004,149.8269532000004,149.8269532000004,149.8269532000004,149.8269532000004,149.8269532000004,149.8269532000004,,008,P007,2025_Feb_01_1032,ConditionRich,2021.2.3,59.94661154763013,
107.75,108.0,41,0.0,Stimuli/Blank.png,0,0,0.0,0,177,177,177,,,,,,,,,,,,,107.76277410000057,0.012774100000569888,None,150.59431270000005,150.59431270000005,150.59431270000005,150.59431270000005,150.59431270000005,150.59431270000005,150.59431270000005,150.59431270000005,150.59431270000005,150.59431270000005,,008,P007,2025_Feb_01_1032,ConditionRich,2021.2.3,59.94661154763013,
108.0,108.75,8,0.75,Stimuli/P007/sun_bbnepvzvycqjjczs.jpg,0,0,0.0,0,178,178,178,,,,,,,,,,,,,108.0268057000003,0.026805700000295474,None,150.8445212000006,150.8445212000006,150.8445212000006,150.8445212000006,150.8445212000006,150.8445212000006,150.8445212000006,150.8445212000006,150.8445212000006,150.8445212000006,,008,P007,2025_Feb_01_1032,ConditionRich,2021.2.3,59.94661154763013,
108.75,109.0,41,0.0,Stimuli/Blank.png,0,0,0.0,0,179,179,179,,,,,,,,,,,,,108.76122430000032,0.011224300000321819,None,151.57852689999982,151.57852689999982,151.57852689999982,151.57852689999982,151.57852689999982,151.57852689999982,151.57852689999982,151.57852689999982,151.57852689999982,151.57852689999982,,008,P007,2025_Feb_01_1032,ConditionRich,2021.2.3,59.94661154763013,
109.0,109.75,8,0.75,Stimuli/P007/sun_bbnepvzvycqjjczs.jpg,0,0,0.0,0,180,180,180,,,,,,,,,,,,,109.01213160000043,0.012131600000429899,None,151.84543940000003,151.84543940000003,151.84543940000003,151.84543940000003,151.84543940000003,151.84543940000003,151.84543940000003,151.84543940000003,151.84543940000003,151.84543940000003,,008,P007,2025_Feb_01_1032,ConditionRich,2021.2.3,59.94661154763013,
109.75,110.0,41,0.0,Stimuli/Blank.png,0,0,0.0,0,181,181,181,,,,,,,,,,,,,109.77868930000022,0.02868930000022374,None,152.59607099999994,152.59607099999994,152.59607099999994,152.59607099999994,152.59607099999994,152.59607099999994,152.59607099999994,152.59607099999994,152.59607099999994,152.59607099999994,,008,P007,2025_Feb_01_1032,ConditionRich,2021.2.3,59.94661154763013,
110.0,110.75,8,0.75,Stimuli/P007/sun_bbnepvzvycqjjczs.jpg,0,0,0.0,0,182,182,182,,,,,,,,,,,,,110.01223570000002,0.012235700000019278,None,152.82961419999992,152.82961419999992,152.82961419999992,152.82961419999992,152.82961419999992,152.82961419999992,152.82961419999992,152.82961419999992,152.82961419999992,152.82961419999992,,008,P007,2025_Feb_01_1032,ConditionRich,2021.2.3,59.94661154763013,
110.75,111.0,41,0.0,Stimuli/Blank.png,0,0,0.0,0,183,183,183,,,,,,,,,,,,,110.76357290000033,0.013572900000326626,None,153.5802874000001,153.5802874000001,153.5802874000001,153.5802874000001,153.5802874000001,153.5802874000001,153.5802874000001,153.5802874000001,153.5802874000001,153.5802874000001,,008,P007,2025_Feb_01_1032,ConditionRich,2021.2.3,59.94661154763013,
111.0,111.75,8,0.75,Stimuli/P007/sun_bbnepvzvycqjjczs.jpg,1,0,0.75,0,184,184,184,,,,,,,,,,,,,111.01380140000037,0.013801400000374997,2,153.8472081,153.8472081,153.8472081,153.8472081,153.8472081,153.8472081,153.8472081,154.56447370000024,153.8472081,153.8472081,0.4293922000006205,008,P007,2025_Feb_01_1032,ConditionRich,2021.2.3,59.94661154763013,
111.75,112.0,41,0.0,Stimuli/Blank.png,0,0,0.0,0,185,185,185,,,,,,,,,,,,,111.7806558000002,0.03065580000020418,None,154.5979328000003,154.5979328000003,154.5979328000003,154.5979328000003,154.5979328000003,154.5979328000003,154.5979328000003,154.5979328000003,154.5979328000003,154.5979328000003,,008,P007,2025_Feb_01_1032,ConditionRich,2021.2.3,59.94661154763013,
112.0,112.75,9,0.75,Stimuli/P007/sun_bcsqogieozpyvuft.jpg,0,0,0.0,0,186,186,186,,,,,,,,,,,,,112.01344830000016,0.013448300000163727,None,154.83137780000015,154.83137780000015,154.83137780000015,154.83137780000015,154.83137780000015,154.83137780000015,154.83137780000015,154.83137780000015,154.83137780000015,154.83137780000015,,008,P007,2025_Feb_01_1032,ConditionRich,2021.2.3,59.94661154763013,
112.75,113.0,41,0.0,Stimuli/Blank.png,0,0,0.0,0,187,187,187,,,,,,,,,,,,,112.76469869999983,0.014698699999826204,None,155.58204209999985,155.58204209999985,155.58204209999985,155.58204209999985,155.58204209999985,155.58204209999985,155.58204209999985,155.58204209999985,155.58204209999985,155.58204209999985,,008,P007,2025_Feb_01_1032,ConditionRich,2021.2.3,59.94661154763013,
113.0,113.75,9,0.75,Stimuli/P007/sun_bcsqogieozpyvuft.jpg,0,0,0.0,0,188,188,188,,,,,,,,,,,,,113.01518589999978,0.015185899999778485,None,155.84895529999994,155.84895529999994,155.84895529999994,155.84895529999994,155.84895529999994,155.84895529999994,155.84895529999994,155.84895529999994,155.84895529999994,155.84895529999994,,008,P007,2025_Feb_01_1032,ConditionRich,2021.2.3,59.94661154763013,
113.75,114.0,41,0.0,Stimuli/Blank.png,0,0,0.0,0,189,189,189,,,,,,,,,,,,,113.76808129999972,0.018081299999721523,None,156.59961399999975,156.59961399999975,156.59961399999975,156.59961399999975,156.59961399999975,156.59961399999975,156.59961399999975,156.59961399999975,156.59961399999975,156.59961399999975,,008,P007,2025_Feb_01_1032,ConditionRich,2021.2.3,59.94661154763013,
114.0,114.75,9,0.75,Stimuli/P007/sun_bcsqogieozpyvuft.jpg,0,0,0.0,0,190,190,190,,,,,,,,,,,,,114.01564390000021,0.015643900000213762,None,156.84983400000056,156.84983400000056,156.84983400000056,156.84983400000056,156.84983400000056,156.84983400000056,156.84983400000056,156.84983400000056,156.84983400000056,156.84983400000056,,008,P007,2025_Feb_01_1032,ConditionRich,2021.2.3,59.94661154763013,
114.75,115.0,41,0.0,Stimuli/Blank.png,0,0,0.0,0,191,191,191,,,,,,,,,,,,,114.76793850000013,0.017938500000127533,None,157.60054070000024,157.60054070000024,157.60054070000024,157.60054070000024,157.60054070000024,157.60054070000024,157.60054070000024,157.60054070000024,157.60054070000024,157.60054070000024,,008,P007,2025_Feb_01_1032,ConditionRich,2021.2.3,59.94661154763013,
115.0,115.75,9,0.75,Stimuli/P007/sun_bcsqogieozpyvuft.jpg,0,0,0.0,0,192,192,192,,,,,,,,,,,,,115.01905859999988,0.019058599999880244,None,157.85071849999986,157.85071849999986,157.85071849999986,157.85071849999986,157.85071849999986,157.85071849999986,157.85071849999986,157.85071849999986,157.85071849999986,157.85071849999986,,008,P007,2025_Feb_01_1032,ConditionRich,2021.2.3,59.94661154763013,
115.75,116.0,41,0.0,Stimuli/Blank.png,0,0,0.0,0,193,193,193,,,,,,,,,,,,,115.76761110000007,0.01761110000006738,None,158.58470680000028,158.58470680000028,158.58470680000028,158.58470680000028,158.58470680000028,158.58470680000028,158.58470680000028,158.58470680000028,158.58470680000028,158.58470680000028,,008,P007,2025_Feb_01_1032,ConditionRich,2021.2.3,59.94661154763013,
116.0,116.75,24,0.75,Stimuli/P007/things_collar_04s.jpg,0,0,0.0,0,194,194,194,,,,,,,,,,,,,116.0011854000004,0.0011854000003950205,None,158.83488990000023,158.83488990000023,158.83488990000023,158.83488990000023,158.83488990000023,158.83488990000023,158.83488990000023,158.83488990000023,158.83488990000023,158.83488990000023,,008,P007,2025_Feb_01_1032,ConditionRich,2021.2.3,59.94661154763013,
116.75,117.0,41,0.0,Stimuli/Blank.png,0,0,0.0,0,195,195,195,,,,,,,,,,,,,116.76844290000008,0.018442900000081863,None,159.5855928000001,159.5855928000001,159.5855928000001,159.5855928000001,159.5855928000001,159.5855928000001,159.5855928000001,159.5855928000001,159.5855928000001,159.5855928000001,,008,P007,2025_Feb_01_1032,ConditionRich,2021.2.3,59.94661154763013,
117.0,117.75,24,0.75,Stimuli/P007/things_collar_04s.jpg,0,0,0.0,0,196,196,196,,,,,,,,,,,,,117.0039225999999,0.0039225999998961925,None,159.8358048,159.8358048,159.8358048,159.8358048,159.8358048,159.8358048,159.8358048,159.8358048,159.8358048,159.8358048,,008,P007,2025_Feb_01_1032,ConditionRich,2021.2.3,59.94661154763013,
117.75,118.0,41,0.0,Stimuli/Blank.png,0,0,0.0,0,197,197,197,,,,,,,,,,,,,117.76868530000047,0.018685300000470306,None,160.58646190000036,160.58646190000036,160.58646190000036,160.58646190000036,160.58646190000036,160.58646190000036,160.58646190000036,160.58646190000036,160.58646190000036,160.58646190000036,,008,P007,2025_Feb_01_1032,ConditionRich,2021.2.3,59.94661154763013,
118.0,118.75,24,0.75,Stimuli/P007/things_collar_04s.jpg,0,0,0.0,0,198,198,198,,,,,,,,,,,,,118.00226780000048,0.0022678000004816568,None,160.82001390000005,160.82001390000005,160.82001390000005,160.82001390000005,160.82001390000005,160.82001390000005,160.82001390000005,160.82001390000005,160.82001390000005,160.82001390000005,,008,P007,2025_Feb_01_1032,ConditionRich,2021.2.3,59.94661154763013,
118.75,119.0,41,0.0,Stimuli/Blank.png,0,0,0.0,0,199,199,199,,,,,,,,,,,,,118.75285470000017,0.002854700000170851,None,161.5706742000002,161.5706742000002,161.5706742000002,161.5706742000002,161.5706742000002,161.5706742000002,161.5706742000002,161.5706742000002,161.5706742000002,161.5706742000002,,008,P007,2025_Feb_01_1032,ConditionRich,2021.2.3,59.94661154763013,
119.0,119.75,24,0.75,Stimuli/P007/things_collar_04s.jpg,0,0,0.0,0,200,200,200,,,,,,,,,,,,,119.00437160000001,0.004371600000013132,None,161.83759250000003,161.83759250000003,161.83759250000003,161.83759250000003,161.83759250000003,161.83759250000003,161.83759250000003,161.83759250000003,161.83759250000003,161.83759250000003,,008,P007,2025_Feb_01_1032,ConditionRich,2021.2.3,59.94661154763013,
119.75,120.0,41,0.0,Stimuli/Blank.png,0,0,0.0,0,201,201,201,,,,,,,,,,,,,119.77287359999991,0.022873599999911676,None,162.60493550000047,162.60493550000047,162.60493550000047,162.60493550000047,162.60493550000047,162.60493550000047,162.60493550000047,162.60493550000047,162.60493550000047,162.60493550000047,,008,P007,2025_Feb_01_1032,ConditionRich,2021.2.3,59.94661154763013,
120.0,120.75,40,0.75,Stimuli/P007/things_woman_04s.jpg,0,0,0.0,0,202,202,202,,,,,,,,,,,,,120.02116870000009,0.021168700000089302,None,162.83845699999983,162.83845699999983,162.83845699999983,162.83845699999983,162.83845699999983,162.83845699999983,162.83845699999983,162.83845699999983,162.83845699999983,162.83845699999983,,008,P007,2025_Feb_01_1032,ConditionRich,2021.2.3,59.94661154763013,
120.75,121.0,41,0.0,Stimuli/Blank.png,0,0,0.0,0,203,203,203,,,,,,,,,,,,,120.75513030000002,0.005130300000018906,None,163.57244429999992,163.57244429999992,163.57244429999992,163.57244429999992,163.57244429999992,163.57244429999992,163.57244429999992,163.57244429999992,163.57244429999992,163.57244429999992,,008,P007,2025_Feb_01_1032,ConditionRich,2021.2.3,59.94661154763013,
121.0,121.75,40,0.75,Stimuli/P007/things_woman_04s.jpg,0,0,0.0,0,204,204,204,,,,,,,,,,,,,121.00769769999988,0.0076976999998805695,None,163.8393489,163.8393489,163.8393489,163.8393489,163.8393489,163.8393489,163.8393489,163.8393489,163.8393489,163.8393489,,008,P007,2025_Feb_01_1032,ConditionRich,2021.2.3,59.94661154763013,
121.75,122.0,41,0.0,Stimuli/Blank.png,0,0,0.0,0,205,205,205,,,,,,,,,,,,,121.77239290000034,0.022392900000340887,None,164.59001050000006,164.59001050000006,164.59001050000006,164.59001050000006,164.59001050000006,164.59001050000006,164.59001050000006,164.59001050000006,164.59001050000006,164.59001050000006,,008,P007,2025_Feb_01_1032,ConditionRich,2021.2.3,59.94661154763013,
122.0,122.75,40,0.75,Stimuli/P007/things_woman_04s.jpg,0,0,0.0,0,206,206,206,,,,,,,,,,,,,122.00691920000008,0.006919200000083947,None,164.8402261000001,164.8402261000001,164.8402261000001,164.8402261000001,164.8402261000001,164.8402261000001,164.8402261000001,164.8402261000001,164.8402261000001,164.8402261000001,,008,P007,2025_Feb_01_1032,ConditionRich,2021.2.3,59.94661154763013,
122.75,123.0,41,0.0,Stimuli/Blank.png,0,0,0.0,0,207,207,207,,,,,,,,,,,,,122.77433010000004,0.024330100000042876,None,165.59090170000036,165.59090170000036,165.59090170000036,165.59090170000036,165.59090170000036,165.59090170000036,165.59090170000036,165.59090170000036,165.59090170000036,165.59090170000036,,008,P007,2025_Feb_01_1032,ConditionRich,2021.2.3,59.94661154763013,
123.0,123.75,40,0.75,Stimuli/P007/things_woman_04s.jpg,0,0,0.0,0,208,208,208,,,,,,,,,,,,,123.00721229999999,0.007212299999991956,None,165.84111510000002,165.84111510000002,165.84111510000002,165.84111510000002,165.84111510000002,165.84111510000002,165.84111510000002,165.84111510000002,165.84111510000002,165.84111510000002,,008,P007,2025_Feb_01_1032,ConditionRich,2021.2.3,59.94661154763013,
123.75,124.0,41,0.0,Stimuli/Blank.png,0,0,0.0,0,209,209,209,,,,,,,,,,,,,123.77404920000026,0.024049200000263227,None,166.59178109999993,166.59178109999993,166.59178109999993,166.59178109999993,166.59178109999993,166.59178109999993,166.59178109999993,166.59178109999993,166.59178109999993,166.59178109999993,,008,P007,2025_Feb_01_1032,ConditionRich,2021.2.3,59.94661154763013,
124.0,124.75,4,0.75,Stimuli/P007/sun_awqukazlzsxaokai.jpg,0,0,0.0,0,210,210,210,,,,,,,,,,,,,124.00745170000027,0.007451700000274286,None,166.82531840000047,166.82531840000047,166.82531840000047,166.82531840000047,166.82531840000047,166.82531840000047,166.82531840000047,166.82531840000047,166.82531840000047,166.82531840000047,,008,P007,2025_Feb_01_1032,ConditionRich,2021.2.3,59.94661154763013,
124.75,125.0,41,0.0,Stimuli/Blank.png,0,0,0.0,0,211,211,211,,,,,,,,,,,,,124.75916049999978,0.009160499999779859,None,167.57599730000038,167.57599730000038,167.57599730000038,167.57599730000038,167.57599730000038,167.57599730000038,167.57599730000038,167.57599730000038,167.57599730000038,167.57599730000038,,008,P007,2025_Feb_01_1032,ConditionRich,2021.2.3,59.94661154763013,
125.0,125.75,4,0.75,Stimuli/P007/sun_awqukazlzsxaokai.jpg,0,0,0.0,0,212,212,212,,,,,,,,,,,,,125.00823690000016,0.00823690000015631,None,167.82620490000045,167.82620490000045,167.82620490000045,167.82620490000045,167.82620490000045,167.82620490000045,167.82620490000045,167.82620490000045,167.82620490000045,167.82620490000045,,008,P007,2025_Feb_01_1032,ConditionRich,2021.2.3,59.94661154763013,
125.75,126.0,41,0.0,Stimuli/Blank.png,0,0,0.0,0,213,213,213,,,,,,,,,,,,,125.75972290000027,0.009722900000269874,None,168.5768734000003,168.5768734000003,168.5768734000003,168.5768734000003,168.5768734000003,168.5768734000003,168.5768734000003,168.5768734000003,168.5768734000003,168.5768734000003,,008,P007,2025_Feb_01_1032,ConditionRich,2021.2.3,59.94661154763013,
126.0,126.75,4,0.75,Stimuli/P007/sun_awqukazlzsxaokai.jpg,0,0,0.0,0,214,214,214,,,,,,,,,,,,,126.00984530000005,0.009845300000051793,None,168.82709560000058,168.82709560000058,168.82709560000058,168.82709560000058,168.82709560000058,168.82709560000058,168.82709560000058,168.82709560000058,168.82709560000058,168.82709560000058,,008,P007,2025_Feb_01_1032,ConditionRich,2021.2.3,59.94661154763013,
126.75,127.0,41,0.0,Stimuli/Blank.png,0,0,0.0,0,215,215,215,,,,,,,,,,,,,126.76123189999998,0.011231899999984307,None,169.57777030000034,169.57777030000034,169.57777030000034,169.57777030000034,169.57777030000034,169.57777030000034,169.57777030000034,169.57777030000034,169.57777030000034,169.57777030000034,,008,P007,2025_Feb_01_1032,ConditionRich,2021.2.3,59.94661154763013,
127.0,127.75,4,0.75,Stimuli/P007/sun_awqukazlzsxaokai.jpg,0,0,0.0,0,216,216,216,,,,,,,,,,,,,127.01296019999972,0.012960199999724864,None,169.8446746999998,169.8446746999998,169.8446746999998,169.8446746999998,169.8446746999998,169.8446746999998,169.8446746999998,169.8446746999998,169.8446746999998,169.8446746999998,,008,P007,2025_Feb_01_1032,ConditionRich,2021.2.3,59.94661154763013,
127.75,128.0,41,0.0,Stimuli/Blank.png,0,0,0.0,0,217,217,217,,,,,,,,,,,,,127.77862929999992,0.028629299999920477,None,170.61202180000055,170.61202180000055,170.61202180000055,170.61202180000055,170.61202180000055,170.61202180000055,170.61202180000055,170.61202180000055,170.61202180000055,170.61202180000055,,008,P007,2025_Feb_01_1032,ConditionRich,2021.2.3,59.94661154763013,
128.0,128.75,25,0.75,Stimuli/P007/things_credit_card_04s.jpg,0,0,0.0,0,218,218,218,,,,,,,,,,,,,128.0276345000002,0.027634500000203843,None,170.8455469999999,170.8455469999999,170.8455469999999,170.8455469999999,170.8455469999999,170.8455469999999,170.8455469999999,170.8455469999999,170.8455469999999,170.8455469999999,,008,P007,2025_Feb_01_1032,ConditionRich,2021.2.3,59.94661154763013,
128.75,129.0,41,0.0,Stimuli/Blank.png,0,0,0.0,0,219,219,219,,,,,,,,,,,,,128.76272750000044,0.01272750000043743,None,171.57953400000042,171.57953400000042,171.57953400000042,171.57953400000042,171.57953400000042,171.57953400000042,171.57953400000042,171.57953400000042,171.57953400000042,171.57953400000042,,008,P007,2025_Feb_01_1032,ConditionRich,2021.2.3,59.94661154763013,
129.0,129.75,25,0.75,Stimuli/P007/things_credit_card_04s.jpg,0,0,0.0,0,220,220,220,,,,,,,,,,,,,129.01180079999995,0.011800799999946321,None,171.82974639999975,171.82974639999975,171.82974639999975,171.82974639999975,171.82974639999975,171.82974639999975,171.82974639999975,171.82974639999975,171.82974639999975,171.82974639999975,,008,P007,2025_Feb_01_1032,ConditionRich,2021.2.3,59.94661154763013,
129.75,130.0,41,0.0,Stimuli/Blank.png,0,0,0.0,0,221,221,221,,,,,,,,,,,,,129.76370380000026,0.013703800000257615,None,172.58041909999974,172.58041909999974,172.58041909999974,172.58041909999974,172.58041909999974,172.58041909999974,172.58041909999974,172.58041909999974,172.58041909999974,172.58041909999974,,008,P007,2025_Feb_01_1032,ConditionRich,2021.2.3,59.94661154763013,
130.0,130.75,25,0.75,Stimuli/P007/things_credit_card_04s.jpg,0,0,0.0,0,222,222,222,,,,,,,,,,,,,130.01277350000055,0.012773500000548665,None,172.8306437000001,172.8306437000001,172.8306437000001,172.8306437000001,172.8306437000001,172.8306437000001,172.8306437000001,172.8306437000001,172.8306437000001,172.8306437000001,,008,P007,2025_Feb_01_1032,ConditionRich,2021.2.3,59.94661154763013,
130.75,131.0,41,0.0,Stimuli/Blank.png,0,0,0.0,0,223,223,223,,,,,,,,,,,,,130.76374459999988,0.013744599999881757,None,173.58129350000036,173.58129350000036,173.58129350000036,173.58129350000036,173.58129350000036,173.58129350000036,173.58129350000036,173.58129350000036,173.58129350000036,173.58129350000036,,008,P007,2025_Feb_01_1032,ConditionRich,2021.2.3,59.94661154763013,
131.0,131.75,25,0.75,Stimuli/P007/things_credit_card_04s.jpg,0,0,0.0,0,224,224,224,,,,,,,,,,,,,131.01422470000034,0.014224700000340817,None,173.83151439999983,173.83151439999983,173.83151439999983,173.83151439999983,173.83151439999983,173.83151439999983,173.83151439999983,173.83151439999983,173.83151439999983,173.83151439999983,,008,P007,2025_Feb_01_1032,ConditionRich,2021.2.3,59.94661154763013,
131.75,132.0,41,0.0,Stimuli/Blank.png,0,0,0.0,0,225,225,225,,,,,,,,,,,,,131.76495990000058,0.014959900000576454,None,174.58217669999976,174.58217669999976,174.58217669999976,174.58217669999976,174.58217669999976,174.58217669999976,174.58217669999976,174.58217669999976,174.58217669999976,174.58217669999976,,008,P007,2025_Feb_01_1032,ConditionRich,2021.2.3,59.94661154763013,
132.0,132.75,22,0.75,Stimuli/P007/things_boar_04s.jpg,0,0,0.0,0,226,226,226,,,,,,,,,,,,,132.04800950000026,0.04800950000026205,None,174.86577060000036,174.86577060000036,174.86577060000036,174.86577060000036,174.86577060000036,174.86577060000036,174.86577060000036,174.86577060000036,174.86577060000036,174.86577060000036,,008,P007,2025_Feb_01_1032,ConditionRich,2021.2.3,59.94661154763013,
132.75,133.0,41,0.0,Stimuli/Blank.png,0,0,0.0,0,227,227,227,,,,,,,,,,,,,132.7681147000003,0.01811470000029658,None,175.59974990000046,175.59974990000046,175.59974990000046,175.59974990000046,175.59974990000046,175.59974990000046,175.59974990000046,175.59974990000046,175.59974990000046,175.59974990000046,,008,P007,2025_Feb_01_1032,ConditionRich,2021.2.3,59.94661154763013,
133.0,133.75,22,0.75,Stimuli/P007/things_boar_04s.jpg,0,0,0.0,0,228,228,228,,,,,,,,,,,,,133.01645650000046,0.016456500000458618,None,175.84995700000036,175.84995700000036,175.84995700000036,175.84995700000036,175.84995700000036,175.84995700000036,175.84995700000036,175.84995700000036,175.84995700000036,175.84995700000036,,008,P007,2025_Feb_01_1032,ConditionRich,2021.2.3,59.94661154763013,
133.75,134.0,41,0.0,Stimuli/Blank.png,0,0,0.0,0,229,229,229,,,,,,,,,,,,,133.76818249999997,0.01818249999996624,None,176.60063309999987,176.60063309999987,176.60063309999987,176.60063309999987,176.60063309999987,176.60063309999987,176.60063309999987,176.60063309999987,176.60063309999987,176.60063309999987,,008,P007,2025_Feb_01_1032,ConditionRich,2021.2.3,59.94661154763013,
134.0,134.75,22,0.75,Stimuli/P007/things_boar_04s.jpg,0,0,0.0,0,230,230,230,,,,,,,,,,,,,134.01908000000003,0.01908000000003085,None,176.85086039999987,176.85086039999987,176.85086039999987,176.85086039999987,176.85086039999987,176.85086039999987,176.85086039999987,176.85086039999987,176.85086039999987,176.85086039999987,,008,P007,2025_Feb_01_1032,ConditionRich,2021.2.3,59.94661154763013,
134.75,135.0,41,0.0,Stimuli/Blank.png,0,0,0.0,0,231,231,231,,,,,,,,,,,,,134.76787500000046,0.017875000000458385,None,177.6015478999998,177.6015478999998,177.6015478999998,177.6015478999998,177.6015478999998,177.6015478999998,177.6015478999998,177.6015478999998,177.6015478999998,177.6015478999998,,008,P007,2025_Feb_01_1032,ConditionRich,2021.2.3,59.94661154763013,
135.0,135.75,22,0.75,Stimuli/P007/things_boar_04s.jpg,0,0,0.0,0,232,232,232,,,,,,,,,,,,,135.01709680000022,0.017096800000217627,None,177.83505630000036,177.83505630000036,177.83505630000036,177.83505630000036,177.83505630000036,177.83505630000036,177.83505630000036,177.83505630000036,177.83505630000036,177.83505630000036,,008,P007,2025_Feb_01_1032,ConditionRich,2021.2.3,59.94661154763013,
135.75,136.0,41,0.0,Stimuli/Blank.png,0,0,0.0,0,233,233,233,,,,,,,,,,,,,135.75133559999995,0.0013355999999475898,None,178.5690749000005,178.5690749000005,178.5690749000005,178.5690749000005,178.5690749000005,178.5690749000005,178.5690749000005,178.5690749000005,178.5690749000005,178.5690749000005,,008,P007,2025_Feb_01_1032,ConditionRich,2021.2.3,59.94661154763013,
136.0,136.75,38,0.75,Stimuli/P007/things_rollerblade_04s.jpg,0,0,0.0,0,234,234,234,,,,,,,,,,,,,136.00356139999985,0.0035613999998531654,None,178.83596250000028,178.83596250000028,178.83596250000028,178.83596250000028,178.83596250000028,178.83596250000028,178.83596250000028,178.83596250000028,178.83596250000028,178.83596250000028,,008,P007,2025_Feb_01_1032,ConditionRich,2021.2.3,59.94661154763013,
136.75,137.0,41,0.0,Stimuli/Blank.png,0,0,0.0,0,235,235,235,,,,,,,,,,,,,136.76877270000023,0.018772700000226905,None,179.58663690000049,179.58663690000049,179.58663690000049,179.58663690000049,179.58663690000049,179.58663690000049,179.58663690000049,179.58663690000049,179.58663690000049,179.58663690000049,,008,P007,2025_Feb_01_1032,ConditionRich,2021.2.3,59.94661154763013,
137.0,137.75,38,0.75,Stimuli/P007/things_rollerblade_04s.jpg,0,0,0.0,0,236,236,236,,,,,,,,,,,,,137.00299919999998,0.002999199999976554,None,179.82015589999992,179.82015589999992,179.82015589999992,179.82015589999992,179.82015589999992,179.82015589999992,179.82015589999992,179.82015589999992,179.82015589999992,179.82015589999992,,008,P007,2025_Feb_01_1032,ConditionRich,2021.2.3,59.94661154763013,
137.75,138.0,41,0.0,Stimuli/Blank.png,0,0,0.0,0,237,237,237,,,,,,,,,,,,,137.75374660000034,0.0037466000003405497,None,180.57081209999978,180.57081209999978,180.57081209999978,180.57081209999978,180.57081209999978,180.57081209999978,180.57081209999978,180.57081209999978,180.57081209999978,180.57081209999978,,008,P007,2025_Feb_01_1032,ConditionRich,2021.2.3,59.94661154763013,
138.0,138.75,38,0.75,Stimuli/P007/things_rollerblade_04s.jpg,1,0,0.75,0,238,238,238,,,,,,,,,,,,,138.00469620000058,0.004696200000580575,2,180.83771530000013,180.83771530000013,180.83771530000013,180.83771530000013,180.83771530000013,180.83771530000013,180.83771530000013,181.5550075000001,180.83771530000013,180.83771530000013,0.4120141000003059,008,P007,2025_Feb_01_1032,ConditionRich,2021.2.3,59.94661154763013,
138.75,139.0,41,0.0,Stimuli/Blank.png,0,0,0.0,0,239,239,239,,,,,,,,,,,,,138.77308249999987,0.023082499999873107,None,181.6050939000006,181.6050939000006,181.6050939000006,181.6050939000006,181.6050939000006,181.6050939000006,181.6050939000006,181.6050939000006,181.6050939000006,181.6050939000006,,008,P007,2025_Feb_01_1032,ConditionRich,2021.2.3,59.94661154763013,
139.0,139.75,38,0.75,Stimuli/P007/things_rollerblade_04s.jpg,0,0,0.0,0,240,240,240,,,,,,,,,,,,,139.0236378999998,0.023637899999812362,None,181.85529210000004,181.85529210000004,181.85529210000004,181.85529210000004,181.85529210000004,181.85529210000004,181.85529210000004,181.85529210000004,181.85529210000004,181.85529210000004,,008,P007,2025_Feb_01_1032,ConditionRich,2021.2.3,59.94661154763013,
139.75,140.0,41,0.0,Stimuli/Blank.png,0,0,0.0,0,241,241,241,,,,,,,,,,,,,139.77328620000026,0.02328620000025694,None,182.58928040000046,182.58928040000046,182.58928040000046,182.58928040000046,182.58928040000046,182.58928040000046,182.58928040000046,182.58928040000046,182.58928040000046,182.58928040000046,,008,P007,2025_Feb_01_1032,ConditionRich,2021.2.3,59.94661154763013,
140.0,140.75,16,0.75,Stimuli/P007/sun_bnpggenxuowzsywq.jpg,0,0,0.0,0,242,242,242,,,,,,,,,,,,,140.0050514000004,0.005051400000411377,None,182.82280379999975,182.82280379999975,182.82280379999975,182.82280379999975,182.82280379999975,182.82280379999975,182.82280379999975,182.82280379999975,182.82280379999975,182.82280379999975,,008,P007,2025_Feb_01_1032,ConditionRich,2021.2.3,59.94661154763013,
140.75,141.0,41,0.0,Stimuli/Blank.png,0,0,0.0,0,243,243,243,,,,,,,,,,,,,140.7577529,0.007752900000014051,None,183.59015050000016,183.59015050000016,183.59015050000016,183.59015050000016,183.59015050000016,183.59015050000016,183.59015050000016,183.59015050000016,183.59015050000016,183.59015050000016,,008,P007,2025_Feb_01_1032,ConditionRich,2021.2.3,59.94661154763013,
141.0,141.75,16,0.75,Stimuli/P007/sun_bnpggenxuowzsywq.jpg,0,0,0.0,0,244,244,244,,,,,,,,,,,,,141.02348489999986,0.02348489999985759,None,183.8570765000004,183.8570765000004,183.8570765000004,183.8570765000004,183.8570765000004,183.8570765000004,183.8570765000004,183.8570765000004,183.8570765000004,183.8570765000004,,008,P007,2025_Feb_01_1032,ConditionRich,2021.2.3,59.94661154763013,
141.75,142.0,41,0.0,Stimuli/Blank.png,0,0,0.0,0,245,245,245,,,,,,,,,,,,,141.77410959999997,0.024109599999974307,None,184.59102950000033,184.59102950000033,184.59102950000033,184.59102950000033,184.59102950000033,184.59102950000033,184.59102950000033,184.59102950000033,184.59102950000033,184.59102950000033,,008,P007,2025_Feb_01_1032,ConditionRich,2021.2.3,59.94661154763013,
142.0,142.75,16,0.75,Stimuli/P007/sun_bnpggenxuowzsywq.jpg,0,0,0.0,0,246,246,246,,,,,,,,,,,,,142.0074211000001,0.007421100000101433,None,184.84124330000031,184.84124330000031,184.84124330000031,184.84124330000031,184.84124330000031,184.84124330000031,184.84124330000031,184.84124330000031,184.84124330000031,184.84124330000031,,008,P007,2025_Feb_01_1032,ConditionRich,2021.2.3,59.94661154763013,
142.75,143.0,41,0.0,Stimuli/Blank.png,0,0,0.0,0,247,247,247,,,,,,,,,,,,,142.77472170000055,0.024721700000554847,None,185.59195999999974,185.59195999999974,185.59195999999974,185.59195999999974,185.59195999999974,185.59195999999974,185.59195999999974,185.59195999999974,185.59195999999974,185.59195999999974,,008,P007,2025_Feb_01_1032,ConditionRich,2021.2.3,59.94661154763013,
143.0,143.75,16,0.75,Stimuli/P007/sun_bnpggenxuowzsywq.jpg,0,0,0.0,0,248,248,248,,,,,,,,,,,,,143.00804909999988,0.008049099999880127,None,185.8254596000006,185.8254596000006,185.8254596000006,185.8254596000006,185.8254596000006,185.8254596000006,185.8254596000006,185.8254596000006,185.8254596000006,185.8254596000006,,008,P007,2025_Feb_01_1032,ConditionRich,2021.2.3,59.94661154763013,
143.75,144.0,41,0.0,Stimuli/Blank.png,0,0,0.0,0,249,249,249,,,,,,,,,,,,,143.75897619999978,0.008976199999779055,None,186.5761237000006,186.5761237000006,186.5761237000006,186.5761237000006,186.5761237000006,186.5761237000006,186.5761237000006,186.5761237000006,186.5761237000006,186.5761237000006,,008,P007,2025_Feb_01_1032,ConditionRich,2021.2.3,59.94661154763013,
144.0,144.75,31,0.75,Stimuli/P007/things_jug_04s.jpg,1,0,0.75,0,250,250,250,,,,,,,,,,,,,144.00898729999972,0.008987299999716925,2,186.82634280000002,186.82634280000002,186.82634280000002,186.82634280000002,186.82634280000002,186.82634280000002,186.82634280000002,187.5603230000006,186.82634280000002,186.82634280000002,0.37927719999970577,008,P007,2025_Feb_01_1032,ConditionRich,2021.2.3,59.94661154763013,
144.75,145.0,41,0.0,Stimuli/Blank.png,0,0,0.0,0,251,251,251,,,,,,,,,,,,,144.75916179999967,0.009161799999674258,None,187.57700560000012,187.57700560000012,187.57700560000012,187.57700560000012,187.57700560000012,187.57700560000012,187.57700560000012,187.57700560000012,187.57700560000012,187.57700560000012,,008,P007,2025_Feb_01_1032,ConditionRich,2021.2.3,59.94661154763013,
145.0,145.75,31,0.75,Stimuli/P007/things_jug_04s.jpg,0,0,0.0,0,252,252,252,,,,,,,,,,,,,145.01051240000015,0.010512400000152411,None,187.84391630000027,187.84391630000027,187.84391630000027,187.84391630000027,187.84391630000027,187.84391630000027,187.84391630000027,187.84391630000027,187.84391630000027,187.84391630000027,,008,P007,2025_Feb_01_1032,ConditionRich,2021.2.3,59.94661154763013,
145.75,146.0,41,0.0,Stimuli/Blank.png,0,0,0.0,0,253,253,253,,,,,,,,,,,,,145.77683679999973,0.0268367999997281,None,188.59457550000025,188.59457550000025,188.59457550000025,188.59457550000025,188.59457550000025,188.59457550000025,188.59457550000025,188.59457550000025,188.59457550000025,188.59457550000025,,008,P007,2025_Feb_01_1032,ConditionRich,2021.2.3,59.94661154763013,
146.0,146.75,31,0.75,Stimuli/P007/things_jug_04s.jpg,0,0,0.0,0,254,254,254,,,,,,,,,,,,,146.01075450000008,0.010754500000075495,None,188.82808810000006,188.82808810000006,188.82808810000006,188.82808810000006,188.82808810000006,188.82808810000006,188.82808810000006,188.82808810000006,188.82808810000006,188.82808810000006,,008,P007,2025_Feb_01_1032,ConditionRich,2021.2.3,59.94661154763013,
146.75,147.0,41,0.0,Stimuli/Blank.png,0,0,0.0,0,255,255,255,,,,,,,,,,,,,146.76384770000004,0.013847700000042096,None,189.59546860000046,189.59546860000046,189.59546860000046,189.59546860000046,189.59546860000046,189.59546860000046,189.59546860000046,189.59546860000046,189.59546860000046,189.59546860000046,,008,P007,2025_Feb_01_1032,ConditionRich,2021.2.3,59.94661154763013,
147.0,147.75,31,0.75,Stimuli/P007/things_jug_04s.jpg,0,0,0.0,0,256,256,256,,,,,,,,,,,,,147.0278718999998,0.027871899999809102,None,189.8457558,189.8457558,189.8457558,189.8457558,189.8457558,189.8457558,189.8457558,189.8457558,189.8457558,189.8457558,,008,P007,2025_Feb_01_1032,ConditionRich,2021.2.3,59.94661154763013,
147.75,148.0,41,0.0,Stimuli/Blank.png,0,0,0.0,0,257,257,257,,,,,,,,,,,,,147.7624808999999,0.01248089999990043,None,190.5796707999998,190.5796707999998,190.5796707999998,190.5796707999998,190.5796707999998,190.5796707999998,190.5796707999998,190.5796707999998,190.5796707999998,190.5796707999998,,008,P007,2025_Feb_01_1032,ConditionRich,2021.2.3,59.94661154763013,
148.0,148.75,21,0.75,Stimuli/P007/things_baby_04s.jpg,0,0,0.0,0,258,258,258,,,,,,,,,,,,,148.01239600000008,0.012396000000080676,None,190.82986129999972,190.82986129999972,190.82986129999972,190.82986129999972,190.82986129999972,190.82986129999972,190.82986129999972,190.82986129999972,190.82986129999972,190.82986129999972,,008,P007,2025_Feb_01_1032,ConditionRich,2021.2.3,59.94661154763013,
148.75,149.0,41,0.0,Stimuli/Blank.png,0,0,0.0,0,259,259,259,,,,,,,,,,,,,148.7635240999998,0.013524099999813188,None,191.58055150000018,191.58055150000018,191.58055150000018,191.58055150000018,191.58055150000018,191.58055150000018,191.58055150000018,191.58055150000018,191.58055150000018,191.58055150000018,,008,P007,2025_Feb_01_1032,ConditionRich,2021.2.3,59.94661154763013,
149.0,149.75,21,0.75,Stimuli/P007/things_baby_04s.jpg,0,0,0.0,0,260,260,260,,,,,,,,,,,,,149.01284920000035,0.012849200000346173,None,191.8307666999999,191.8307666999999,191.8307666999999,191.8307666999999,191.8307666999999,191.8307666999999,191.8307666999999,191.8307666999999,191.8307666999999,191.8307666999999,,008,P007,2025_Feb_01_1032,ConditionRich,2021.2.3,59.94661154763013,
149.75,150.0,41,0.0,Stimuli/Blank.png,0,0,0.0,0,261,261,261,,,,,,,,,,,,,149.7636862999998,0.013686299999790208,None,192.58142730000054,192.58142730000054,192.58142730000054,192.58142730000054,192.58142730000054,192.58142730000054,192.58142730000054,192.58142730000054,192.58142730000054,192.58142730000054,,008,P007,2025_Feb_01_1032,ConditionRich,2021.2.3,59.94661154763013,
150.0,150.75,21,0.75,Stimuli/P007/things_baby_04s.jpg,0,0,0.0,0,262,262,262,,,,,,,,,,,,,150.01381949999995,0.013819499999954132,None,192.83165780000036,192.83165780000036,192.83165780000036,192.83165780000036,192.83165780000036,192.83165780000036,192.83165780000036,192.83165780000036,192.83165780000036,192.83165780000036,,008,P007,2025_Feb_01_1032,ConditionRich,2021.2.3,59.94661154763013,
