eventStartTime,eventEndTime,eventCond,imSize,imFile,responseEvent,fixRespStart,fixRespEnd,Events.thisRepN,Events.thisTrialN,Events.thisN,Events.thisIndex,Instructions.started,Instructions.stopped,participantReadyResponse.keys,participantReadyResponse.rt,participantReadyResponse.started,participantReadyResponse.stopped,startWaitforTrigger,triggerResponse.keys,triggerResponse.rt,triggerResponse.started,triggerResponse.stopped,globalTimer,actualStartTime,startTimingDiff,participantResponse.keys,participantResponse.started,participantResponse.stopped,image.started,image.stopped,fixationOutside.started,fixationOutside.stopped,fixationResponse.started,fixationResponse.stopped,fixationInside.started,fixationInside.stopped,participantResponse.rt,session,participant,date,expName,psychopyVersion,frameRate,
,,,,,,,,,,,,10.982412999999724,None,2,2.812507700000424,10.982412999999724,None,,,,,,,,,,,,,,,,,,,,,003,P008,2025_Feb_01_1134,ConditionRich,2021.2.3,59.92767927645296,
,,,,,,,,,,,,,,,,,,13.796156599999449,5,14.176713799999561,13.810298899999907,None,,,,,,,,,,,,,,,,003,P008,2025_Feb_01_1134,ConditionRich,2021.2.3,59.92767927645296,
0.0,4.0,0,0.0,Stimuli/Blank.png,0,0.0,0.0,0,0,0,0,,,,,,,,,,,,27.993149099998845,0.04918050000014773,0.04918050000014773,None,28.05628649999926,None,28.05628649999926,None,28.05628649999926,None,28.05628649999926,28.05628649999926,28.05628649999926,None,,003,P008,2025_Feb_01_1134,ConditionRich,2021.2.3,59.92767927645296,
4.0,4.75,7,0.75,Stimuli/P008/sun_babhwrqvnhanonuy.jpg,0,0.0,0.0,0,1,1,1,,,,,,,,,,,,,4.002623599999424,0.0026235999994241865,None,32.01010519999909,32.01010519999909,32.01010519999909,32.01010519999909,32.01010519999909,32.01010519999909,32.01010519999909,32.01010519999909,32.01010519999909,32.01010519999909,,003,P008,2025_Feb_01_1134,ConditionRich,2021.2.3,59.92767927645296,
4.75,8.0,41,0.0,Stimuli/Blank.png,0,0.0,0.0,0,2,2,2,,,,,,,,,,,,,4.753214099999241,0.003214099999240716,None,32.76076180000018,32.76076180000018,32.76076180000018,32.76076180000018,32.76076180000018,32.76076180000018,32.76076180000018,32.76076180000018,32.76076180000018,32.76076180000018,,003,P008,2025_Feb_01_1134,ConditionRich,2021.2.3,59.92767927645296,
8.0,8.75,2,0.75,Stimuli/P008/sun_ajyzloqaptmicnfr.jpg,0,0.0,0.0,0,3,3,3,,,,,,,,,,,,,8.00596349999978,0.005963499999779742,None,36.01335449999897,36.01335449999897,36.01335449999897,36.01335449999897,36.01335449999897,36.01335449999897,36.01335449999897,36.01335449999897,36.01335449999897,36.01335449999897,,003,P008,2025_Feb_01_1134,ConditionRich,2021.2.3,59.92767927645296,
8.75,12.0,41,0.0,Stimuli/Blank.png,0,0.0,0.0,0,4,4,4,,,,,,,,,,,,,8.757529900000009,0.007529900000008638,None,36.78068799999892,36.78068799999892,36.78068799999892,36.78068799999892,36.78068799999892,36.78068799999892,36.78068799999892,36.78068799999892,36.78068799999892,36.78068799999892,,003,P008,2025_Feb_01_1134,ConditionRich,2021.2.3,59.92767927645296,
12.0,12.75,10,0.75,Stimuli/P008/sun_bdekcgnlcicvgpvq.jpg,0,0.0,0.0,0,5,5,5,,,,,,,,,,,,,12.026955799999996,0.02695579999999609,None,40.05028329999914,40.05028329999914,40.05028329999914,40.05028329999914,40.05028329999914,40.05028329999914,40.05028329999914,40.05028329999914,40.05028329999914,40.05028329999914,,003,P008,2025_Feb_01_1134,ConditionRich,2021.2.3,59.92767927645296,
12.75,16.0,41,0.0,Stimuli/Blank.png,0,0.0,0.0,0,6,6,6,,,,,,,,,,,,,12.777294899999106,0.027294899999105837,None,40.78426959999888,40.78426959999888,40.78426959999888,40.78426959999888,40.78426959999888,40.78426959999888,40.78426959999888,40.78426959999888,40.78426959999888,40.78426959999888,,003,P008,2025_Feb_01_1134,ConditionRich,2021.2.3,59.92767927645296,
16.0,16.75,23,0.75,Stimuli/P008/things_bumper_04s.jpg,0,0.0,0.0,0,7,7,7,,,,,,,,,,,,,16.013419399998384,0.013419399998383597,None,44.020430299999134,44.020430299999134,44.020430299999134,44.020430299999134,44.020430299999134,44.020430299999134,44.020430299999134,44.020430299999134,44.020430299999134,44.020430299999134,,003,P008,2025_Feb_01_1134,ConditionRich,2021.2.3,59.92767927645296,
16.75,20.0,41,0.0,Stimuli/Blank.png,1,2.25,3.0,0,8,8,8,,,,,,,,,,,,,16.764302899999166,0.014302899999165675,2,44.771122500000274,44.771122500000274,44.771122500000274,44.771122500000274,44.771122500000274,44.771122500000274,47.006451999999626,47.75706999999966,44.771122500000274,44.771122500000274,2.6188380000003235,003,P008,2025_Feb_01_1134,ConditionRich,2021.2.3,59.92767927645296,
20.0,20.75,16,0.75,Stimuli/P008/sun_bnpggenxuowzsywq.jpg,0,0.0,0.0,0,9,9,9,,,,,,,,,,,,,20.00312649999978,0.003126499999780208,None,48.02393999999913,48.02393999999913,48.02393999999913,48.02393999999913,48.02393999999913,48.02393999999913,48.02393999999913,48.02393999999913,48.02393999999913,48.02393999999913,,003,P008,2025_Feb_01_1134,ConditionRich,2021.2.3,59.92767927645296,
20.75,24.0,41,0.0,Stimuli/Blank.png,0,0.0,0.0,0,10,10,10,,,,,,,,,,,,,20.76683090000006,0.016830900000059046,None,48.774634600000354,48.774634600000354,48.774634600000354,48.774634600000354,48.774634600000354,48.774634600000354,48.774634600000354,48.774634600000354,48.774634600000354,48.774634600000354,,003,P008,2025_Feb_01_1134,ConditionRich,2021.2.3,59.92767927645296,
24.0,24.75,11,0.75,Stimuli/P008/sun_bdsriuscubkvzrmt.jpg,0,0.0,0.0,0,11,11,11,,,,,,,,,,,,,24.00332669999989,0.0033266999998886604,None,52.01084439999977,52.01084439999977,52.01084439999977,52.01084439999977,52.01084439999977,52.01084439999977,52.01084439999977,52.01084439999977,52.01084439999977,52.01084439999977,,003,P008,2025_Feb_01_1134,ConditionRich,2021.2.3,59.92767927645296,
24.75,28.0,41,0.0,Stimuli/Blank.png,0,0.0,0.0,0,12,12,12,,,,,,,,,,,,,24.753635799999756,0.003635799999756273,None,52.761499500000355,52.761499500000355,52.761499500000355,52.761499500000355,52.761499500000355,52.761499500000355,52.761499500000355,52.761499500000355,52.761499500000355,52.761499500000355,,003,P008,2025_Feb_01_1134,ConditionRich,2021.2.3,59.92767927645296,
28.0,28.75,15,0.75,Stimuli/P008/sun_bmeductqpfkygtww.jpg,0,0.0,0.0,0,13,13,13,,,,,,,,,,,,,28.007445699999153,0.007445699999152566,None,56.01438159999998,56.01438159999998,56.01438159999998,56.01438159999998,56.01438159999998,56.01438159999998,56.01438159999998,56.01438159999998,56.01438159999998,56.01438159999998,,003,P008,2025_Feb_01_1134,ConditionRich,2021.2.3,59.92767927645296,
28.75,32.0,41,0.0,Stimuli/Blank.png,0,0.0,0.0,0,14,14,14,,,,,,,,,,,,,28.75725659999989,0.007256599999891478,None,56.76502520000031,56.76502520000031,56.76502520000031,56.76502520000031,56.76502520000031,56.76502520000031,56.76502520000031,56.76502520000031,56.76502520000031,56.76502520000031,,003,P008,2025_Feb_01_1134,ConditionRich,2021.2.3,59.92767927645296,
32.0,32.75,1,0.75,Stimuli/P008/sun_abrlrupzcrwpxqfc.jpg,0,0.0,0.0,0,15,15,15,,,,,,,,,,,,,32.01010589999896,0.010105899998961831,None,60.0179191999996,60.0179191999996,60.0179191999996,60.0179191999996,60.0179191999996,60.0179191999996,60.0179191999996,60.0179191999996,60.0179191999996,60.0179191999996,,003,P008,2025_Feb_01_1134,ConditionRich,2021.2.3,59.92767927645296,
32.75,36.0,41,0.0,Stimuli/Blank.png,1,1.25,2.0,0,16,16,16,,,,,,,,,,,,,32.761363899999196,0.011363899999196292,2,60.76865249999901,60.76865249999901,60.76865249999901,60.76865249999901,60.76865249999901,60.76865249999901,62.00304250000045,62.75364979999904,60.76865249999901,60.76865249999901,1.6762392000000546,003,P008,2025_Feb_01_1134,ConditionRich,2021.2.3,59.92767927645296,
36.0,36.75,19,0.75,Stimuli/P008/sun_brpfgrmubnnjvfkw.jpg,1,0.0,0.75,0,17,17,17,,,,,,,,,,,,,36.01416949999839,0.014169499998388346,2,64.02143260000048,64.02143260000048,64.02143260000048,64.02143260000048,64.02143260000048,64.02143260000048,64.02143260000048,64.7554039000006,64.02143260000048,64.02143260000048,0.48146919999999227,003,P008,2025_Feb_01_1134,ConditionRich,2021.2.3,59.92767927645296,
36.75,40.0,41,0.0,Stimuli/Blank.png,0,0.0,0.0,0,18,18,18,,,,,,,,,,,,,36.764824699999735,0.014824699999735458,None,64.77209910000056,64.77209910000056,64.77209910000056,64.77209910000056,64.77209910000056,64.77209910000056,64.77209910000056,64.77209910000056,64.77209910000056,64.77209910000056,,003,P008,2025_Feb_01_1134,ConditionRich,2021.2.3,59.92767927645296,
40.0,40.75,8,0.75,Stimuli/P008/sun_bbnepvzvycqjjczs.jpg,0,0.0,0.0,0,19,19,19,,,,,,,,,,,,,40.001207199999044,0.0012071999990439508,None,68.0082839000006,68.0082839000006,68.0082839000006,68.0082839000006,68.0082839000006,68.0082839000006,68.0082839000006,68.0082839000006,68.0082839000006,68.0082839000006,,003,P008,2025_Feb_01_1134,ConditionRich,2021.2.3,59.92767927645296,
40.75,44.0,41,0.0,Stimuli/Blank.png,0,0.0,0.0,0,20,20,20,,,,,,,,,,,,,40.75318030000017,0.0031803000001673354,None,68.75901449999947,68.75901449999947,68.75901449999947,68.75901449999947,68.75901449999947,68.75901449999947,68.75901449999947,68.75901449999947,68.75901449999947,68.75901449999947,,003,P008,2025_Feb_01_1134,ConditionRich,2021.2.3,59.92767927645296,
44.0,44.75,14,0.75,Stimuli/P008/sun_bkvjqgmploznrhxt.jpg,1,0.0,0.75,0,21,21,21,,,,,,,,,,,,,44.00648529999853,0.006485299998530536,2,72.02854250000019,72.02854250000019,72.02854250000019,72.02854250000019,72.02854250000019,72.02854250000019,72.02854250000019,72.76254870000048,72.02854250000019,72.02854250000019,0.40641150000010384,003,P008,2025_Feb_01_1134,ConditionRich,2021.2.3,59.92767927645296,
44.75,48.0,41,0.0,Stimuli/Blank.png,0,0.0,0.0,0,22,22,22,,,,,,,,,,,,,44.77219789999981,0.022197899999810033,None,72.77921529999912,72.77921529999912,72.77921529999912,72.77921529999912,72.77921529999912,72.77921529999912,72.77921529999912,72.77921529999912,72.77921529999912,72.77921529999912,,003,P008,2025_Feb_01_1134,ConditionRich,2021.2.3,59.92767927645296,
48.0,48.75,21,0.75,Stimuli/P008/things_baby_04s.jpg,0,0.0,0.0,0,23,23,23,,,,,,,,,,,,,48.00786699999844,0.007866999998441315,None,76.01543469999888,76.01543469999888,76.01543469999888,76.01543469999888,76.01543469999888,76.01543469999888,76.01543469999888,76.01543469999888,76.01543469999888,76.01543469999888,,003,P008,2025_Feb_01_1134,ConditionRich,2021.2.3,59.92767927645296,
48.75,52.0,41,0.0,Stimuli/Blank.png,0,0.0,0.0,0,24,24,24,,,,,,,,,,,,,48.758410899999944,0.008410899999944377,None,76.76613390000057,76.76613390000057,76.76613390000057,76.76613390000057,76.76613390000057,76.76613390000057,76.76613390000057,76.76613390000057,76.76613390000057,76.76613390000057,,003,P008,2025_Feb_01_1134,ConditionRich,2021.2.3,59.92767927645296,
52.0,52.75,22,0.75,Stimuli/P008/things_boar_04s.jpg,0,0.0,0.0,0,25,25,25,,,,,,,,,,,,,52.01160290000007,0.011602900000070804,None,80.01894379999976,80.01894379999976,80.01894379999976,80.01894379999976,80.01894379999976,80.01894379999976,80.01894379999976,80.01894379999976,80.01894379999976,80.01894379999976,,003,P008,2025_Feb_01_1134,ConditionRich,2021.2.3,59.92767927645296,
52.75,56.0,41,0.0,Stimuli/Blank.png,0,0.0,0.0,0,26,26,26,,,,,,,,,,,,,52.762044299999616,0.01204429999961576,None,80.7696063000003,80.7696063000003,80.7696063000003,80.7696063000003,80.7696063000003,80.7696063000003,80.7696063000003,80.7696063000003,80.7696063000003,80.7696063000003,,003,P008,2025_Feb_01_1134,ConditionRich,2021.2.3,59.92767927645296,
56.0,56.75,34,0.75,Stimuli/P008/things_moose_04s.jpg,0,0.0,0.0,0,27,27,27,,,,,,,,,,,,,56.01675280000018,0.01675280000017665,None,84.03917170000022,84.03917170000022,84.03917170000022,84.03917170000022,84.03917170000022,84.03917170000022,84.03917170000022,84.03917170000022,84.03917170000022,84.03917170000022,,003,P008,2025_Feb_01_1134,ConditionRich,2021.2.3,59.92767927645296,
56.75,60.0,41,0.0,Stimuli/Blank.png,0,0.0,0.0,0,28,28,28,,,,,,,,,,,,,56.76615759999913,0.0161575999991328,None,84.77315679999992,84.77315679999992,84.77315679999992,84.77315679999992,84.77315679999992,84.77315679999992,84.77315679999992,84.77315679999992,84.77315679999992,84.77315679999992,,003,P008,2025_Feb_01_1134,ConditionRich,2021.2.3,59.92767927645296,
60.0,60.75,38,0.75,Stimuli/P008/things_rollerblade_04s.jpg,0,0.0,0.0,0,29,29,29,,,,,,,,,,,,,60.00280569999995,0.0028056999999535037,None,88.02602289999959,88.02602289999959,88.02602289999959,88.02602289999959,88.02602289999959,88.02602289999959,88.02602289999959,88.02602289999959,88.02602289999959,88.02602289999959,,003,P008,2025_Feb_01_1134,ConditionRich,2021.2.3,59.92767927645296,
60.75,64.0,41,0.0,Stimuli/Blank.png,0,0.0,0.0,0,30,30,30,,,,,,,,,,,,,60.77168829999937,0.02168829999936861,None,88.79337469999882,88.79337469999882,88.79337469999882,88.79337469999882,88.79337469999882,88.79337469999882,88.79337469999882,88.79337469999882,88.79337469999882,88.79337469999882,,003,P008,2025_Feb_01_1134,ConditionRich,2021.2.3,59.92767927645296,
64.0,64.75,29,0.75,Stimuli/P008/things_hawk_04s.jpg,0,0.0,0.0,0,31,31,31,,,,,,,,,,,,,64.02261790000011,0.022617900000113877,None,92.02956359999916,92.02956359999916,92.02956359999916,92.02956359999916,92.02956359999916,92.02956359999916,92.02956359999916,92.02956359999916,92.02956359999916,92.02956359999916,,003,P008,2025_Feb_01_1134,ConditionRich,2021.2.3,59.92767927645296,
64.75,68.0,41,0.0,Stimuli/Blank.png,0,0.0,0.0,0,32,32,32,,,,,,,,,,,,,64.75596309999855,0.005963099998552934,None,92.76355089999925,92.76355089999925,92.76355089999925,92.76355089999925,92.76355089999925,92.76355089999925,92.76355089999925,92.76355089999925,92.76355089999925,92.76355089999925,,003,P008,2025_Feb_01_1134,ConditionRich,2021.2.3,59.92767927645296,
68.0,68.75,17,0.75,Stimuli/P008/sun_bnsxdhbsafbdyncy.jpg,0,0.0,0.0,0,33,33,33,,,,,,,,,,,,,68.01236129999961,0.01236129999961122,None,96.03313689999959,96.03313689999959,96.03313689999959,96.03313689999959,96.03313689999959,96.03313689999959,96.03313689999959,96.03313689999959,96.03313689999959,96.03313689999959,,003,P008,2025_Feb_01_1134,ConditionRich,2021.2.3,59.92767927645296,
68.75,72.0,41,0.0,Stimuli/Blank.png,0,0.0,0.0,0,34,34,34,,,,,,,,,,,,,68.77775139999903,0.02775139999903331,None,96.78379359999963,96.78379359999963,96.78379359999963,96.78379359999963,96.78379359999963,96.78379359999963,96.78379359999963,96.78379359999963,96.78379359999963,96.78379359999963,,003,P008,2025_Feb_01_1134,ConditionRich,2021.2.3,59.92767927645296,
72.0,72.75,27,0.75,Stimuli/P008/things_fur_coat_04s.jpg,0,0.0,0.0,0,35,35,35,,,,,,,,,,,,,72.01283519999924,0.01283519999924465,None,100.01996549999967,100.01996549999967,100.01996549999967,100.01996549999967,100.01996549999967,100.01996549999967,100.01996549999967,100.01996549999967,100.01996549999967,100.01996549999967,,003,P008,2025_Feb_01_1134,ConditionRich,2021.2.3,59.92767927645296,
72.75,76.0,41,0.0,Stimuli/Blank.png,0,0.0,0.0,0,36,36,36,,,,,,,,,,,,,72.76287289999891,0.012872899998910725,None,100.77063160000034,100.77063160000034,100.77063160000034,100.77063160000034,100.77063160000034,100.77063160000034,100.77063160000034,100.77063160000034,100.77063160000034,100.77063160000034,,003,P008,2025_Feb_01_1134,ConditionRich,2021.2.3,59.92767927645296,
76.0,76.75,37,0.75,Stimuli/P008/things_praying_mantis_04s.jpg,0,0.0,0.0,0,37,37,37,,,,,,,,,,,,,75.99908909999976,-0.0009109000002354151,None,104.02350739999929,104.02350739999929,104.02350739999929,104.02350739999929,104.02350739999929,104.02350739999929,104.02350739999929,104.02350739999929,104.02350739999929,104.02350739999929,,003,P008,2025_Feb_01_1134,ConditionRich,2021.2.3,59.92767927645296,
76.75,80.0,41,0.0,Stimuli/Blank.png,0,0.0,0.0,0,38,38,38,,,,,,,,,,,,,76.76792909999858,0.017929099998582387,None,104.79086049999933,104.79086049999933,104.79086049999933,104.79086049999933,104.79086049999933,104.79086049999933,104.79086049999933,104.79086049999933,104.79086049999933,104.79086049999933,,003,P008,2025_Feb_01_1134,ConditionRich,2021.2.3,59.92767927645296,
80.0,80.75,36,0.75,Stimuli/P008/things_platypus_04s.jpg,0,0.0,0.0,0,39,39,39,,,,,,,,,,,,,80.01934869999968,0.01934869999968214,None,108.04378039999938,108.04378039999938,108.04378039999938,108.04378039999938,108.04378039999938,108.04378039999938,108.04378039999938,108.04378039999938,108.04378039999938,108.04378039999938,,003,P008,2025_Feb_01_1134,ConditionRich,2021.2.3,59.92767927645296,
80.75,84.0,41,0.0,Stimuli/Blank.png,0,0.0,0.0,0,40,40,40,,,,,,,,,,,,,80.77091829999881,0.020918299998811563,None,108.77773069999967,108.77773069999967,108.77773069999967,108.77773069999967,108.77773069999967,108.77773069999967,108.77773069999967,108.77773069999967,108.77773069999967,108.77773069999967,,003,P008,2025_Feb_01_1134,ConditionRich,2021.2.3,59.92767927645296,
84.0,100.0,0,0.0,Stimuli/Blank.png,1,8.0,8.75,0,41,41,41,,,,,,,,,,,,,84.0065528999985,0.006552899998496287,2,112.01391179999882,112.01391179999882,112.01391179999882,112.01391179999882,112.01391179999882,112.01391179999882,120.00431539999954,120.7550142,112.01391179999882,112.01391179999882,8.309137899999769,003,P008,2025_Feb_01_1134,ConditionRich,2021.2.3,59.92767927645296,
100.0,100.75,33,0.75,Stimuli/P008/things_man_04s.jpg,0,0.0,0.0,0,42,42,42,,,,,,,,,,,,,100.0038483999997,0.003848399999696994,None,128.0113935999998,128.0113935999998,128.0113935999998,128.0113935999998,128.0113935999998,128.0113935999998,128.0113935999998,128.0113935999998,128.0113935999998,128.0113935999998,,003,P008,2025_Feb_01_1134,ConditionRich,2021.2.3,59.92767927645296,
100.75,104.0,41,0.0,Stimuli/Blank.png,1,2.25,3.0,0,43,43,43,,,,,,,,,,,,,100.75648860000001,0.006488600000011502,2,128.77874949999932,128.77874949999932,128.77874949999932,128.77874949999932,128.77874949999932,128.77874949999932,131.01404569999977,131.76472599999943,128.77874949999932,128.77874949999932,2.705307399999583,003,P008,2025_Feb_01_1134,ConditionRich,2021.2.3,59.92767927645296,
104.0,104.75,40,0.75,Stimuli/P008/things_woman_04s.jpg,0,0.0,0.0,0,44,44,44,,,,,,,,,,,,,104.02704799999992,0.027047999999922467,None,132.0483022999997,132.0483022999997,132.0483022999997,132.0483022999997,132.0483022999997,132.0483022999997,132.0483022999997,132.0483022999997,132.0483022999997,132.0483022999997,,003,P008,2025_Feb_01_1134,ConditionRich,2021.2.3,59.92767927645296,
104.75,108.0,41,0.0,Stimuli/Blank.png,0,0.0,0.0,0,45,45,45,,,,,,,,,,,,,104.77738809999937,0.027388099999370752,None,132.7989646999995,132.7989646999995,132.7989646999995,132.7989646999995,132.7989646999995,132.7989646999995,132.7989646999995,132.7989646999995,132.7989646999995,132.7989646999995,,003,P008,2025_Feb_01_1134,ConditionRich,2021.2.3,59.92767927645296,
108.0,108.75,3,0.75,Stimuli/P008/sun_aueftjhdwnvkbzlt.jpg,0,0.0,0.0,0,46,46,46,,,,,,,,,,,,,108.02742719999878,0.02742719999878318,None,136.03515179999886,136.03515179999886,136.03515179999886,136.03515179999886,136.03515179999886,136.03515179999886,136.03515179999886,136.03515179999886,136.03515179999886,136.03515179999886,,003,P008,2025_Feb_01_1134,ConditionRich,2021.2.3,59.92767927645296,
108.75,112.0,41,0.0,Stimuli/Blank.png,0,0.0,0.0,0,47,47,47,,,,,,,,,,,,,108.76242490000004,0.012424900000041816,None,136.78584090000004,136.78584090000004,136.78584090000004,136.78584090000004,136.78584090000004,136.78584090000004,136.78584090000004,136.78584090000004,136.78584090000004,136.78584090000004,,003,P008,2025_Feb_01_1134,ConditionRich,2021.2.3,59.92767927645296,
112.0,112.75,31,0.75,Stimuli/P008/things_jug_04s.jpg,0,0.0,0.0,0,48,48,48,,,,,,,,,,,,,112.03087219999907,0.030872199999066652,None,140.03869809999924,140.03869809999924,140.03869809999924,140.03869809999924,140.03869809999924,140.03869809999924,140.03869809999924,140.03869809999924,140.03869809999924,140.03869809999924,,003,P008,2025_Feb_01_1134,ConditionRich,2021.2.3,59.92767927645296,
112.75,116.0,41,0.0,Stimuli/Blank.png,0,0.0,0.0,0,49,49,49,,,,,,,,,,,,,112.76508839999951,0.015088399999513058,None,140.7727278000002,140.7727278000002,140.7727278000002,140.7727278000002,140.7727278000002,140.7727278000002,140.7727278000002,140.7727278000002,140.7727278000002,140.7727278000002,,003,P008,2025_Feb_01_1134,ConditionRich,2021.2.3,59.92767927645296,
116.0,116.75,13,0.75,Stimuli/P008/sun_bkhuvtsqontzwtbo.jpg,0,0.0,0.0,0,50,50,50,,,,,,,,,,,,,116.00248619999911,0.0024861999991117045,None,144.0255861000005,144.0255861000005,144.0255861000005,144.0255861000005,144.0255861000005,144.0255861000005,144.0255861000005,144.0255861000005,144.0255861000005,144.0255861000005,,003,P008,2025_Feb_01_1134,ConditionRich,2021.2.3,59.92767927645296,
116.75,120.0,41,0.0,Stimuli/Blank.png,0,0.0,0.0,0,51,51,51,,,,,,,,,,,,,116.76844789999996,0.018447899999955553,None,144.77622220000012,144.77622220000012,144.77622220000012,144.77622220000012,144.77622220000012,144.77622220000012,144.77622220000012,144.77622220000012,144.77622220000012,144.77622220000012,,003,P008,2025_Feb_01_1134,ConditionRich,2021.2.3,59.92767927645296,
120.0,120.75,5,0.75,Stimuli/P008/sun_ayzkwnqsoiycbncn.jpg,0,0.0,0.0,0,52,52,52,,,,,,,,,,,,,120.00555749999876,0.005557499998758431,None,148.0124152999997,148.0124152999997,148.0124152999997,148.0124152999997,148.0124152999997,148.0124152999997,148.0124152999997,148.0124152999997,148.0124152999997,148.0124152999997,,003,P008,2025_Feb_01_1134,ConditionRich,2021.2.3,59.92767927645296,
120.75,124.0,41,0.0,Stimuli/Blank.png,1,2.25,3.0,0,53,53,53,,,,,,,,,,,,,120.75603729999966,0.006037299999661627,2,148.76308459999927,148.76308459999927,148.76308459999927,148.76308459999927,148.76308459999927,148.76308459999927,150.99839149999934,151.74905299999955,148.76308459999927,148.76308459999927,2.6101283999996667,003,P008,2025_Feb_01_1134,ConditionRich,2021.2.3,59.92767927645296,
124.0,124.75,28,0.75,Stimuli/P008/things_girl_04s.jpg,0,0.0,0.0,0,54,54,54,,,,,,,,,,,,,124.00893619999988,0.008936199999880046,None,152.03266069999881,152.03266069999881,152.03266069999881,152.03266069999881,152.03266069999881,152.03266069999881,152.03266069999881,152.03266069999881,152.03266069999881,152.03266069999881,,003,P008,2025_Feb_01_1134,ConditionRich,2021.2.3,59.92767927645296,
124.75,128.0,41,0.0,Stimuli/Blank.png,0,0.0,0.0,0,55,55,55,,,,,,,,,,,,,124.77620659999957,0.026206599999568425,None,152.7833159999991,152.7833159999991,152.7833159999991,152.7833159999991,152.7833159999991,152.7833159999991,152.7833159999991,152.7833159999991,152.7833159999991,152.7833159999991,,003,P008,2025_Feb_01_1134,ConditionRich,2021.2.3,59.92767927645296,
128.0,128.75,26,0.75,Stimuli/P008/things_face_04s.jpg,0,0.0,0.0,0,56,56,56,,,,,,,,,,,,,128.0116539999999,0.011653999999907683,None,156.0195029000006,156.0195029000006,156.0195029000006,156.0195029000006,156.0195029000006,156.0195029000006,156.0195029000006,156.0195029000006,156.0195029000006,156.0195029000006,,003,P008,2025_Feb_01_1134,ConditionRich,2021.2.3,59.92767927645296,
128.75,132.0,41,0.0,Stimuli/Blank.png,0,0.0,0.0,0,57,57,57,,,,,,,,,,,,,128.7626369999998,0.01263699999981327,None,156.77015740000024,156.77015740000024,156.77015740000024,156.77015740000024,156.77015740000024,156.77015740000024,156.77015740000024,156.77015740000024,156.77015740000024,156.77015740000024,,003,P008,2025_Feb_01_1134,ConditionRich,2021.2.3,59.92767927645296,
132.0,132.75,25,0.75,Stimuli/P008/things_credit_card_04s.jpg,0,0.0,0.0,0,58,58,58,,,,,,,,,,,,,132.0164565999985,0.016456599998491583,None,160.03971760000059,160.03971760000059,160.03971760000059,160.03971760000059,160.03971760000059,160.03971760000059,160.03971760000059,160.03971760000059,160.03971760000059,160.03971760000059,,003,P008,2025_Feb_01_1134,ConditionRich,2021.2.3,59.92767927645296,
132.75,136.0,41,0.0,Stimuli/Blank.png,0,0.0,0.0,0,59,59,59,,,,,,,,,,,,,132.76653949999854,0.01653949999854376,None,160.77370879999944,160.77370879999944,160.77370879999944,160.77370879999944,160.77370879999944,160.77370879999944,160.77370879999944,160.77370879999944,160.77370879999944,160.77370879999944,,003,P008,2025_Feb_01_1134,ConditionRich,2021.2.3,59.92767927645296,
136.0,136.75,4,0.75,Stimuli/P008/sun_awqukazlzsxaokai.jpg,0,0.0,0.0,0,60,60,60,,,,,,,,,,,,,136.00278279999839,0.002782799998385599,None,164.00990499999898,164.00990499999898,164.00990499999898,164.00990499999898,164.00990499999898,164.00990499999898,164.00990499999898,164.00990499999898,164.00990499999898,164.00990499999898,,003,P008,2025_Feb_01_1134,ConditionRich,2021.2.3,59.92767927645296,
136.75,140.0,41,0.0,Stimuli/Blank.png,0,0.0,0.0,0,61,61,61,,,,,,,,,,,,,136.7535472999989,0.003547299998899689,None,164.76057570000012,164.76057570000012,164.76057570000012,164.76057570000012,164.76057570000012,164.76057570000012,164.76057570000012,164.76057570000012,164.76057570000012,164.76057570000012,,003,P008,2025_Feb_01_1134,ConditionRich,2021.2.3,59.92767927645296,
140.0,140.75,32,0.75,Stimuli/P008/things_maggot_04s.jpg,0,0.0,0.0,0,62,62,62,,,,,,,,,,,,,140.00656159999926,0.00656159999925876,None,168.01344380000046,168.01344380000046,168.01344380000046,168.01344380000046,168.01344380000046,168.01344380000046,168.01344380000046,168.01344380000046,168.01344380000046,168.01344380000046,,003,P008,2025_Feb_01_1134,ConditionRich,2021.2.3,59.92767927645296,
140.75,144.0,41,0.0,Stimuli/Blank.png,1,2.25,3.0,0,63,63,63,,,,,,,,,,,,,140.75715489999857,0.007154899998567998,2,168.76410609999948,168.76410609999948,168.76410609999948,168.76410609999948,168.76410609999948,168.76410609999948,170.99945970000044,171.75007369999912,168.76410609999948,168.76410609999948,2.6422620999983337,003,P008,2025_Feb_01_1134,ConditionRich,2021.2.3,59.92767927645296,
144.0,144.75,35,0.75,Stimuli/P008/things_pecan_04s.jpg,0,0.0,0.0,0,64,64,64,,,,,,,,,,,,,144.00929749999887,0.009297499998865533,None,172.03368959999898,172.03368959999898,172.03368959999898,172.03368959999898,172.03368959999898,172.03368959999898,172.03368959999898,172.03368959999898,172.03368959999898,172.03368959999898,,003,P008,2025_Feb_01_1134,ConditionRich,2021.2.3,59.92767927645296,
144.75,148.0,41,0.0,Stimuli/Blank.png,0,0.0,0.0,0,65,65,65,,,,,,,,,,,,,144.7774516999998,0.02745169999980135,None,172.8010264000004,172.8010264000004,172.8010264000004,172.8010264000004,172.8010264000004,172.8010264000004,172.8010264000004,172.8010264000004,172.8010264000004,172.8010264000004,,003,P008,2025_Feb_01_1134,ConditionRich,2021.2.3,59.92767927645296,
148.0,148.75,24,0.75,Stimuli/P008/things_collar_04s.jpg,0,0.0,0.0,0,66,66,66,,,,,,,,,,,,,148.03082499999982,0.030824999999822467,None,176.05413709999993,176.05413709999993,176.05413709999993,176.05413709999993,176.05413709999993,176.05413709999993,176.05413709999993,176.05413709999993,176.05413709999993,176.05413709999993,,003,P008,2025_Feb_01_1134,ConditionRich,2021.2.3,59.92767927645296,
148.75,152.0,41,0.0,Stimuli/Blank.png,0,0.0,0.0,0,67,67,67,,,,,,,,,,,,,148.78150429999914,0.03150429999914195,None,176.78787360000024,176.78787360000024,176.78787360000024,176.78787360000024,176.78787360000024,176.78787360000024,176.78787360000024,176.78787360000024,176.78787360000024,176.78787360000024,,003,P008,2025_Feb_01_1134,ConditionRich,2021.2.3,59.92767927645296,
152.0,152.75,12,0.75,Stimuli/P008/sun_bitpmyvulluuasab.jpg,0,0.0,0.0,0,68,68,68,,,,,,,,,,,,,152.0008444999985,0.0008444999984931201,None,180.02405849999923,180.02405849999923,180.02405849999923,180.02405849999923,180.02405849999923,180.02405849999923,180.02405849999923,180.02405849999923,180.02405849999923,180.02405849999923,,003,P008,2025_Feb_01_1134,ConditionRich,2021.2.3,59.92767927645296,
152.75,156.0,41,0.0,Stimuli/Blank.png,0,0.0,0.0,0,69,69,69,,,,,,,,,,,,,152.76718119999896,0.01718119999895862,None,180.77473309999914,180.77473309999914,180.77473309999914,180.77473309999914,180.77473309999914,180.77473309999914,180.77473309999914,180.77473309999914,180.77473309999914,180.77473309999914,,003,P008,2025_Feb_01_1134,ConditionRich,2021.2.3,59.92767927645296,
156.0,156.75,30,0.75,Stimuli/P008/things_jalapeno_04s.jpg,0,0.0,0.0,0,70,70,70,,,,,,,,,,,,,156.00345059999927,0.0034505999992688885,None,184.0276058999989,184.0276058999989,184.0276058999989,184.0276058999989,184.0276058999989,184.0276058999989,184.0276058999989,184.0276058999989,184.0276058999989,184.0276058999989,,003,P008,2025_Feb_01_1134,ConditionRich,2021.2.3,59.92767927645296,
156.75,160.0,41,0.0,Stimuli/Blank.png,0,0.0,0.0,0,71,71,71,,,,,,,,,,,,,156.7712832999987,0.021283299998685834,None,184.77827909999905,184.77827909999905,184.77827909999905,184.77827909999905,184.77827909999905,184.77827909999905,184.77827909999905,184.77827909999905,184.77827909999905,184.77827909999905,,003,P008,2025_Feb_01_1134,ConditionRich,2021.2.3,59.92767927645296,
160.0,160.75,18,0.75,Stimuli/P008/sun_borgfidyubrwsuuw.jpg,0,0.0,0.0,0,72,72,72,,,,,,,,,,,,,160.0076124999996,0.007612499999595457,None,188.03116989999944,188.03116989999944,188.03116989999944,188.03116989999944,188.03116989999944,188.03116989999944,188.03116989999944,188.03116989999944,188.03116989999944,188.03116989999944,,003,P008,2025_Feb_01_1134,ConditionRich,2021.2.3,59.92767927645296,
160.75,164.0,41,0.0,Stimuli/Blank.png,0,0.0,0.0,0,73,73,73,,,,,,,,,,,,,160.77481049999915,0.024810499999148306,None,188.78182919999927,188.78182919999927,188.78182919999927,188.78182919999927,188.78182919999927,188.78182919999927,188.78182919999927,188.78182919999927,188.78182919999927,188.78182919999927,,003,P008,2025_Feb_01_1134,ConditionRich,2021.2.3,59.92767927645296,
164.0,164.75,20,0.75,Stimuli/P008/sun_btrxtfbwtggtrpfv.jpg,1,0.0,0.75,0,74,74,74,,,,,,,,,,,,,164.0108634999997,0.01086349999968661,2,192.01801390000037,192.01801390000037,192.01801390000037,192.01801390000037,192.01801390000037,192.01801390000037,192.01801390000037,192.75203429999965,192.01801390000037,192.01801390000037,0.4543512999989616,003,P008,2025_Feb_01_1134,ConditionRich,2021.2.3,59.92767927645296,
164.75,168.0,41,0.0,Stimuli/Blank.png,0,0.0,0.0,0,75,75,75,,,,,,,,,,,,,164.76210809999975,0.012108099999750266,None,192.76868280000053,192.76868280000053,192.76868280000053,192.76868280000053,192.76868280000053,192.76868280000053,192.76868280000053,192.76868280000053,192.76868280000053,192.76868280000053,,003,P008,2025_Feb_01_1134,ConditionRich,2021.2.3,59.92767927645296,
168.0,168.75,39,0.75,Stimuli/P008/things_showerhead_04s.jpg,0,0.0,0.0,0,76,76,76,,,,,,,,,,,,,168.01400619999913,0.014006199999130331,None,196.02154709999922,196.02154709999922,196.02154709999922,196.02154709999922,196.02154709999922,196.02154709999922,196.02154709999922,196.02154709999922,196.02154709999922,196.02154709999922,,003,P008,2025_Feb_01_1134,ConditionRich,2021.2.3,59.92767927645296,
168.75,172.0,41,0.0,Stimuli/Blank.png,0,0.0,0.0,0,77,77,77,,,,,,,,,,,,,168.7662857999985,0.01628579999851354,None,196.7722202999994,196.7722202999994,196.7722202999994,196.7722202999994,196.7722202999994,196.7722202999994,196.7722202999994,196.7722202999994,196.7722202999994,196.7722202999994,,003,P008,2025_Feb_01_1134,ConditionRich,2021.2.3,59.92767927645296,
172.0,172.75,9,0.75,Stimuli/P008/sun_bcsqogieozpyvuft.jpg,0,0.0,0.0,0,78,78,78,,,,,,,,,,,,,172.00167729999885,0.001677299998846138,None,200.02509970000028,200.02509970000028,200.02509970000028,200.02509970000028,200.02509970000028,200.02509970000028,200.02509970000028,200.02509970000028,200.02509970000028,200.02509970000028,,003,P008,2025_Feb_01_1134,ConditionRich,2021.2.3,59.92767927645296,
172.75,176.0,41,0.0,Stimuli/Blank.png,0,0.0,0.0,0,79,79,79,,,,,,,,,,,,,172.7680961999995,0.018096199999490636,None,200.77575570000045,200.77575570000045,200.77575570000045,200.77575570000045,200.77575570000045,200.77575570000045,200.77575570000045,200.77575570000045,200.77575570000045,200.77575570000045,,003,P008,2025_Feb_01_1134,ConditionRich,2021.2.3,59.92767927645296,
176.0,176.75,6,0.75,Stimuli/P008/sun_azpjjfwsbjdjcopb.jpg,0,0.0,0.0,0,80,80,80,,,,,,,,,,,,,176.00686189999942,0.006861899999421439,None,204.0286285000002,204.0286285000002,204.0286285000002,204.0286285000002,204.0286285000002,204.0286285000002,204.0286285000002,204.0286285000002,204.0286285000002,204.0286285000002,,003,P008,2025_Feb_01_1134,ConditionRich,2021.2.3,59.92767927645296,
176.75,180.0,41,0.0,Stimuli/Blank.png,0,0.0,0.0,0,81,81,81,,,,,,,,,,,,,176.77217289999862,0.022172899998622597,None,204.77929740000036,204.77929740000036,204.77929740000036,204.77929740000036,204.77929740000036,204.77929740000036,204.77929740000036,204.77929740000036,204.77929740000036,204.77929740000036,,003,P008,2025_Feb_01_1134,ConditionRich,2021.2.3,59.92767927645296,
180.0,196.0,0,0.0,Stimuli/Blank.png,1,4.0,4.75,0,82,82,82,,,,,,,,,,,,,180.00854299999992,0.00854299999991781,2,208.0155039000001,208.0155039000001,208.0155039000001,208.0155039000001,208.0155039000001,208.0155039000001,212.0023356999991,212.75300249999964,208.0155039000001,208.0155039000001,4.367724899999303,003,P008,2025_Feb_01_1134,ConditionRich,2021.2.3,59.92767927645296,
196.0,196.75,32,0.75,Stimuli/P008/things_maggot_04s.jpg,0,0.0,0.0,0,83,83,83,,,,,,,,,,,,,196.00651629999993,0.006516299999930197,None,224.0296419999995,224.0296419999995,224.0296419999995,224.0296419999995,224.0296419999995,224.0296419999995,224.0296419999995,224.0296419999995,224.0296419999995,224.0296419999995,,003,P008,2025_Feb_01_1134,ConditionRich,2021.2.3,59.92767927645296,
196.75,200.0,41,0.0,Stimuli/Blank.png,0,0.0,0.0,0,84,84,84,,,,,,,,,,,,,196.77266879999843,0.022668799998427858,None,224.78031349999947,224.78031349999947,224.78031349999947,224.78031349999947,224.78031349999947,224.78031349999947,224.78031349999947,224.78031349999947,224.78031349999947,224.78031349999947,,003,P008,2025_Feb_01_1134,ConditionRich,2021.2.3,59.92767927645296,
200.0,200.75,1,0.75,Stimuli/P008/sun_abrlrupzcrwpxqfc.jpg,0,0.0,0.0,0,85,85,85,,,,,,,,,,,,,200.00878379999995,0.008783799999946496,None,228.01651889999994,228.01651889999994,228.01651889999994,228.01651889999994,228.01651889999994,228.01651889999994,228.01651889999994,228.01651889999994,228.01651889999994,228.01651889999994,,003,P008,2025_Feb_01_1134,ConditionRich,2021.2.3,59.92767927645296,
200.75,204.0,41,0.0,Stimuli/Blank.png,0,0.0,0.0,0,86,86,86,,,,,,,,,,,,,200.7617094999987,0.011709499998687534,None,228.7838628999998,228.7838628999998,228.7838628999998,228.7838628999998,228.7838628999998,228.7838628999998,228.7838628999998,228.7838628999998,228.7838628999998,228.7838628999998,,003,P008,2025_Feb_01_1134,ConditionRich,2021.2.3,59.92767927645296,
204.0,204.75,36,0.75,Stimuli/P008/things_platypus_04s.jpg,0,0.0,0.0,0,87,87,87,,,,,,,,,,,,,204.03258449999885,0.032584499998847605,None,232.05342360000031,232.05342360000031,232.05342360000031,232.05342360000031,232.05342360000031,232.05342360000031,232.05342360000031,232.05342360000031,232.05342360000031,232.05342360000031,,003,P008,2025_Feb_01_1134,ConditionRich,2021.2.3,59.92767927645296,
204.75,208.0,41,0.0,Stimuli/Blank.png,1,1.25,2.0,0,88,88,88,,,,,,,,,,,,,204.7632126999997,0.01321269999971264,2,232.77070490000006,232.77070490000006,232.77070490000006,232.77070490000006,232.77070490000006,232.77070490000006,234.00513180000053,234.75584530000015,232.77070490000006,232.77070490000006,1.7023883999991085,003,P008,2025_Feb_01_1134,ConditionRich,2021.2.3,59.92767927645296,
208.0,208.75,21,0.75,Stimuli/P008/things_baby_04s.jpg,0,0.0,0.0,0,89,89,89,,,,,,,,,,,,,208.00241069999902,0.0024106999990181066,None,236.0235918999988,236.0235918999988,236.0235918999988,236.0235918999988,236.0235918999988,236.0235918999988,236.0235918999988,236.0235918999988,236.0235918999988,236.0235918999988,,003,P008,2025_Feb_01_1134,ConditionRich,2021.2.3,59.92767927645296,
208.75,212.0,41,0.0,Stimuli/Blank.png,0,0.0,0.0,0,90,90,90,,,,,,,,,,,,,208.76748029999908,0.017480299999078852,None,236.77426299999934,236.77426299999934,236.77426299999934,236.77426299999934,236.77426299999934,236.77426299999934,236.77426299999934,236.77426299999934,236.77426299999934,236.77426299999934,,003,P008,2025_Feb_01_1134,ConditionRich,2021.2.3,59.92767927645296,
212.0,212.75,33,0.75,Stimuli/P008/things_man_04s.jpg,0,0.0,0.0,0,91,91,91,,,,,,,,,,,,,212.0034115999988,0.00341159999879892,None,240.01044509999883,240.01044509999883,240.01044509999883,240.01044509999883,240.01044509999883,240.01044509999883,240.01044509999883,240.01044509999883,240.01044509999883,240.01044509999883,,003,P008,2025_Feb_01_1134,ConditionRich,2021.2.3,59.92767927645296,
212.75,216.0,41,0.0,Stimuli/Blank.png,0,0.0,0.0,0,92,92,92,,,,,,,,,,,,,212.75357350000013,0.0035735000001295703,None,240.7611127,240.7611127,240.7611127,240.7611127,240.7611127,240.7611127,240.7611127,240.7611127,240.7611127,240.7611127,,003,P008,2025_Feb_01_1134,ConditionRich,2021.2.3,59.92767927645296,
216.0,216.75,25,0.75,Stimuli/P008/things_credit_card_04s.jpg,0,0.0,0.0,0,93,93,93,,,,,,,,,,,,,216.00781259999894,0.00781259999894246,None,244.03069399999913,244.03069399999913,244.03069399999913,244.03069399999913,244.03069399999913,244.03069399999913,244.03069399999913,244.03069399999913,244.03069399999913,244.03069399999913,,003,P008,2025_Feb_01_1134,ConditionRich,2021.2.3,59.92767927645296,
216.75,220.0,41,0.0,Stimuli/Blank.png,0,0.0,0.0,0,94,94,94,,,,,,,,,,,,,216.77350409999963,0.023504099999627215,None,244.78130649999912,244.78130649999912,244.78130649999912,244.78130649999912,244.78130649999912,244.78130649999912,244.78130649999912,244.78130649999912,244.78130649999912,244.78130649999912,,003,P008,2025_Feb_01_1134,ConditionRich,2021.2.3,59.92767927645296,
220.0,220.75,7,0.75,Stimuli/P008/sun_babhwrqvnhanonuy.jpg,0,0.0,0.0,0,95,95,95,,,,,,,,,,,,,220.0103726999987,0.010372699998697499,None,248.01753629999985,248.01753629999985,248.01753629999985,248.01753629999985,248.01753629999985,248.01753629999985,248.01753629999985,248.01753629999985,248.01753629999985,248.01753629999985,,003,P008,2025_Feb_01_1134,ConditionRich,2021.2.3,59.92767927645296,
220.75,224.0,41,0.0,Stimuli/Blank.png,0,0.0,0.0,0,96,96,96,,,,,,,,,,,,,220.76168979999966,0.011689799999658135,None,248.7682633000004,248.7682633000004,248.7682633000004,248.7682633000004,248.7682633000004,248.7682633000004,248.7682633000004,248.7682633000004,248.7682633000004,248.7682633000004,,003,P008,2025_Feb_01_1134,ConditionRich,2021.2.3,59.92767927645296,
224.0,224.75,19,0.75,Stimuli/P008/sun_brpfgrmubnnjvfkw.jpg,0,0.0,0.0,0,97,97,97,,,,,,,,,,,,,224.01644999999917,0.01644999999916763,None,252.0377585999995,252.0377585999995,252.0377585999995,252.0377585999995,252.0377585999995,252.0377585999995,252.0377585999995,252.0377585999995,252.0377585999995,252.0377585999995,,003,P008,2025_Feb_01_1134,ConditionRich,2021.2.3,59.92767927645296,
224.75,228.0,41,0.0,Stimuli/Blank.png,0,0.0,0.0,0,98,98,98,,,,,,,,,,,,,224.76691859999846,0.016918599998462014,None,252.78841680000005,252.78841680000005,252.78841680000005,252.78841680000005,252.78841680000005,252.78841680000005,252.78841680000005,252.78841680000005,252.78841680000005,252.78841680000005,,003,P008,2025_Feb_01_1134,ConditionRich,2021.2.3,59.92767927645296,
228.0,228.75,8,0.75,Stimuli/P008/sun_bbnepvzvycqjjczs.jpg,0,0.0,0.0,0,99,99,99,,,,,,,,,,,,,228.01795489999859,0.01795489999858546,None,256.04131039999993,256.04131039999993,256.04131039999993,256.04131039999993,256.04131039999993,256.04131039999993,256.04131039999993,256.04131039999993,256.04131039999993,256.04131039999993,,003,P008,2025_Feb_01_1134,ConditionRich,2021.2.3,59.92767927645296,
228.75,232.0,41,0.0,Stimuli/Blank.png,0,0.0,0.0,0,100,100,100,,,,,,,,,,,,,228.76762589999998,0.01762589999998454,None,256.7752734000005,256.7752734000005,256.7752734000005,256.7752734000005,256.7752734000005,256.7752734000005,256.7752734000005,256.7752734000005,256.7752734000005,256.7752734000005,,003,P008,2025_Feb_01_1134,ConditionRich,2021.2.3,59.92767927645296,
232.0,232.75,27,0.75,Stimuli/P008/things_fur_coat_04s.jpg,0,0.0,0.0,0,101,101,101,,,,,,,,,,,,,232.00374889999875,0.0037488999987544958,None,260.0114673999997,260.0114673999997,260.0114673999997,260.0114673999997,260.0114673999997,260.0114673999997,260.0114673999997,260.0114673999997,260.0114673999997,260.0114673999997,,003,P008,2025_Feb_01_1134,ConditionRich,2021.2.3,59.92767927645296,
232.75,236.0,41,0.0,Stimuli/Blank.png,0,0.0,0.0,0,102,102,102,,,,,,,,,,,,,232.75493359999928,0.004933599999276339,None,260.7622045999997,260.7622045999997,260.7622045999997,260.7622045999997,260.7622045999997,260.7622045999997,260.7622045999997,260.7622045999997,260.7622045999997,260.7622045999997,,003,P008,2025_Feb_01_1134,ConditionRich,2021.2.3,59.92767927645296,
236.0,236.75,35,0.75,Stimuli/P008/things_pecan_04s.jpg,0,0.0,0.0,0,103,103,103,,,,,,,,,,,,,236.0075358999984,0.007535899998401874,None,264.03168989999904,264.03168989999904,264.03168989999904,264.03168989999904,264.03168989999904,264.03168989999904,264.03168989999904,264.03168989999904,264.03168989999904,264.03168989999904,,003,P008,2025_Feb_01_1134,ConditionRich,2021.2.3,59.92767927645296,
236.75,240.0,41,0.0,Stimuli/Blank.png,1,1.25,2.0,0,104,104,104,,,,,,,,,,,,,236.77673199999845,0.026731999998446554,2,264.799040599999,264.799040599999,264.799040599999,264.799040599999,264.799040599999,264.799040599999,266.0334583999993,266.7842965999989,264.799040599999,264.799040599999,1.6551736000001256,003,P008,2025_Feb_01_1134,ConditionRich,2021.2.3,59.92767927645296,
240.0,240.75,28,0.75,Stimuli/P008/things_girl_04s.jpg,0,0.0,0.0,0,105,105,105,,,,,,,,,,,,,240.02751259999968,0.027512599999681697,None,268.03522990000056,268.03522990000056,268.03522990000056,268.03522990000056,268.03522990000056,268.03522990000056,268.03522990000056,268.03522990000056,268.03522990000056,268.03522990000056,,003,P008,2025_Feb_01_1134,ConditionRich,2021.2.3,59.92767927645296,
240.75,244.0,41,0.0,Stimuli/Blank.png,0,0.0,0.0,0,106,106,106,,,,,,,,,,,,,240.7627193999997,0.01271939999969618,None,268.7859222999996,268.7859222999996,268.7859222999996,268.7859222999996,268.7859222999996,268.7859222999996,268.7859222999996,268.7859222999996,268.7859222999996,268.7859222999996,,003,P008,2025_Feb_01_1134,ConditionRich,2021.2.3,59.92767927645296,
244.0,244.75,16,0.75,Stimuli/P008/sun_bnpggenxuowzsywq.jpg,0,0.0,0.0,0,107,107,107,,,,,,,,,,,,,244.03231269999924,0.03231269999923825,None,272.05545390000043,272.05545390000043,272.05545390000043,272.05545390000043,272.05545390000043,272.05545390000043,272.05545390000043,272.05545390000043,272.05545390000043,272.05545390000043,,003,P008,2025_Feb_01_1134,ConditionRich,2021.2.3,59.92767927645296,
244.75,248.0,41,0.0,Stimuli/Blank.png,1,0.25,1.0,0,108,108,108,,,,,,,,,,,,,244.76696099999936,0.01696099999935541,2,272.78945509999903,272.78945509999903,272.78945509999903,272.78945509999903,272.78945509999903,272.78945509999903,273.0229686999992,273.77363539999897,272.78945509999903,272.78945509999903,0.6466817000000447,003,P008,2025_Feb_01_1134,ConditionRich,2021.2.3,59.92767927645296,
248.0,248.75,23,0.75,Stimuli/P008/things_bumper_04s.jpg,0,0.0,0.0,0,109,109,109,,,,,,,,,,,,,248.01885619999848,0.018856199998481316,None,276.04232279999997,276.04232279999997,276.04232279999997,276.04232279999997,276.04232279999997,276.04232279999997,276.04232279999997,276.04232279999997,276.04232279999997,276.04232279999997,,003,P008,2025_Feb_01_1134,ConditionRich,2021.2.3,59.92767927645296,
248.75,252.0,41,0.0,Stimuli/Blank.png,1,2.25,3.0,0,110,110,110,,,,,,,,,,,,,248.76988619999975,0.019886199999746168,2,276.77631309999924,276.77631309999924,276.77631309999924,276.77631309999924,276.77631309999924,276.77631309999924,279.0116515999998,279.7622835000002,276.77631309999924,276.77631309999924,2.7418106000004627,003,P008,2025_Feb_01_1134,ConditionRich,2021.2.3,59.92767927645296,
252.0,252.75,18,0.75,Stimuli/P008/sun_borgfidyubrwsuuw.jpg,0,0.0,0.0,0,111,111,111,,,,,,,,,,,,,252.00527969999894,0.005279699998936849,None,280.01249199999984,280.01249199999984,280.01249199999984,280.01249199999984,280.01249199999984,280.01249199999984,280.01249199999984,280.01249199999984,280.01249199999984,280.01249199999984,,003,P008,2025_Feb_01_1134,ConditionRich,2021.2.3,59.92767927645296,
252.75,256.0,41,0.0,Stimuli/Blank.png,0,0.0,0.0,0,112,112,112,,,,,,,,,,,,,252.756082599999,0.00608259999899019,None,280.76315950000026,280.76315950000026,280.76315950000026,280.76315950000026,280.76315950000026,280.76315950000026,280.76315950000026,280.76315950000026,280.76315950000026,280.76315950000026,,003,P008,2025_Feb_01_1134,ConditionRich,2021.2.3,59.92767927645296,
256.0,256.75,39,0.75,Stimuli/P008/things_showerhead_04s.jpg,0,0.0,0.0,0,113,113,113,,,,,,,,,,,,,256.0100205999988,0.010020599998824764,None,284.03271029999996,284.03271029999996,284.03271029999996,284.03271029999996,284.03271029999996,284.03271029999996,284.03271029999996,284.03271029999996,284.03271029999996,284.03271029999996,,003,P008,2025_Feb_01_1134,ConditionRich,2021.2.3,59.92767927645296,
256.75,260.0,41,0.0,Stimuli/Blank.png,0,0.0,0.0,0,114,114,114,,,,,,,,,,,,,256.77720619999855,0.027206199998545344,None,284.7840811999995,284.7840811999995,284.7840811999995,284.7840811999995,284.7840811999995,284.7840811999995,284.7840811999995,284.7840811999995,284.7840811999995,284.7840811999995,,003,P008,2025_Feb_01_1134,ConditionRich,2021.2.3,59.92767927645296,
260.0,260.75,34,0.75,Stimuli/P008/things_moose_04s.jpg,0,0.0,0.0,0,115,115,115,,,,,,,,,,,,,260.0129815,0.012981500000023516,None,288.0195728999988,288.0195728999988,288.0195728999988,288.0195728999988,288.0195728999988,288.0195728999988,288.0195728999988,288.0195728999988,288.0195728999988,288.0195728999988,,003,P008,2025_Feb_01_1134,ConditionRich,2021.2.3,59.92767927645296,
260.75,264.0,41,0.0,Stimuli/Blank.png,0,0.0,0.0,0,116,116,116,,,,,,,,,,,,,260.7628230999999,0.01282309999987774,None,288.7702353000004,288.7702353000004,288.7702353000004,288.7702353000004,288.7702353000004,288.7702353000004,288.7702353000004,288.7702353000004,288.7702353000004,288.7702353000004,,003,P008,2025_Feb_01_1134,ConditionRich,2021.2.3,59.92767927645296,
264.0,264.75,10,0.75,Stimuli/P008/sun_bdekcgnlcicvgpvq.jpg,0,0.0,0.0,0,117,117,117,,,,,,,,,,,,,263.9987485999991,-0.0012514000009105075,None,292.02312170000005,292.02312170000005,292.02312170000005,292.02312170000005,292.02312170000005,292.02312170000005,292.02312170000005,292.02312170000005,292.02312170000005,292.02312170000005,,003,P008,2025_Feb_01_1134,ConditionRich,2021.2.3,59.92767927645296,
264.75,268.0,41,0.0,Stimuli/Blank.png,0,0.0,0.0,0,118,118,118,,,,,,,,,,,,,264.7659489999987,0.01594899999872723,None,292.7737796000001,292.7737796000001,292.7737796000001,292.7737796000001,292.7737796000001,292.7737796000001,292.7737796000001,292.7737796000001,292.7737796000001,292.7737796000001,,003,P008,2025_Feb_01_1134,ConditionRich,2021.2.3,59.92767927645296,
268.0,268.75,9,0.75,Stimuli/P008/sun_bcsqogieozpyvuft.jpg,0,0.0,0.0,0,119,119,119,,,,,,,,,,,,,268.0029426000001,0.002942600000096718,None,296.00997389999975,296.00997389999975,296.00997389999975,296.00997389999975,296.00997389999975,296.00997389999975,296.00997389999975,296.00997389999975,296.00997389999975,296.00997389999975,,003,P008,2025_Feb_01_1134,ConditionRich,2021.2.3,59.92767927645296,
268.75,272.0,41,0.0,Stimuli/Blank.png,0,0.0,0.0,0,120,120,120,,,,,,,,,,,,,268.7536052999985,0.0036052999985258793,None,296.7606173000004,296.7606173000004,296.7606173000004,296.7606173000004,296.7606173000004,296.7606173000004,296.7606173000004,296.7606173000004,296.7606173000004,296.7606173000004,,003,P008,2025_Feb_01_1134,ConditionRich,2021.2.3,59.92767927645296,
272.0,272.75,24,0.75,Stimuli/P008/things_collar_04s.jpg,0,0.0,0.0,0,121,121,121,,,,,,,,,,,,,272.0070730999996,0.007073099999615806,None,300.0301983999998,300.0301983999998,300.0301983999998,300.0301983999998,300.0301983999998,300.0301983999998,300.0301983999998,300.0301983999998,300.0301983999998,300.0301983999998,,003,P008,2025_Feb_01_1134,ConditionRich,2021.2.3,59.92767927645296,
272.75,276.0,41,0.0,Stimuli/Blank.png,0,0.0,0.0,0,122,122,122,,,,,,,,,,,,,272.77328899999884,0.023288999998840154,None,300.78086619999885,300.78086619999885,300.78086619999885,300.78086619999885,300.78086619999885,300.78086619999885,300.78086619999885,300.78086619999885,300.78086619999885,300.78086619999885,,003,P008,2025_Feb_01_1134,ConditionRich,2021.2.3,59.92767927645296,
276.0,292.0,0,0.0,Stimuli/Blank.png,1,7.0,7.75,0,123,123,123,,,,,,,,,,,,,276.01003729999866,0.010037299998657545,2,304.0170796000002,304.0170796000002,304.0170796000002,304.0170796000002,304.0170796000002,304.0170796000002,311.0066033000003,311.75726829999985,304.0170796000002,304.0170796000002,7.4222265999997035,003,P008,2025_Feb_01_1134,ConditionRich,2021.2.3,59.92767927645296,
292.0,292.75,38,0.75,Stimuli/P008/things_rollerblade_04s.jpg,0,0.0,0.0,0,124,124,124,,,,,,,,,,,,,292.00851539999894,0.008515399998941575,None,320.03121590000046,320.03121590000046,320.03121590000046,320.03121590000046,320.03121590000046,320.03121590000046,320.03121590000046,320.03121590000046,320.03121590000046,320.03121590000046,,003,P008,2025_Feb_01_1134,ConditionRich,2021.2.3,59.92767927645296,
292.75,296.0,41,0.0,Stimuli/Blank.png,0,0.0,0.0,0,125,125,125,,,,,,,,,,,,,292.77704339999946,0.027043399999456597,None,320.79857730000003,320.79857730000003,320.79857730000003,320.79857730000003,320.79857730000003,320.79857730000003,320.79857730000003,320.79857730000003,320.79857730000003,320.79857730000003,,003,P008,2025_Feb_01_1134,ConditionRich,2021.2.3,59.92767927645296,
296.0,296.75,6,0.75,Stimuli/P008/sun_azpjjfwsbjdjcopb.jpg,0,0.0,0.0,0,126,126,126,,,,,,,,,,,,,296.0276137000001,0.02761370000007446,None,324.03476169999885,324.03476169999885,324.03476169999885,324.03476169999885,324.03476169999885,324.03476169999885,324.03476169999885,324.03476169999885,324.03476169999885,324.03476169999885,,003,P008,2025_Feb_01_1134,ConditionRich,2021.2.3,59.92767927645296,
296.75,300.0,41,0.0,Stimuli/Blank.png,0,0.0,0.0,0,127,127,127,,,,,,,,,,,,,296.7619281999996,0.01192819999960193,None,324.76876699999957,324.76876699999957,324.76876699999957,324.76876699999957,324.76876699999957,324.76876699999957,324.76876699999957,324.76876699999957,324.76876699999957,324.76876699999957,,003,P008,2025_Feb_01_1134,ConditionRich,2021.2.3,59.92767927645296,
300.0,300.75,30,0.75,Stimuli/P008/things_jalapeno_04s.jpg,1,0.0,0.75,0,128,128,128,,,,,,,,,,,,,300.0139292999993,0.013929299999290379,2,328.0383134999993,328.0383134999993,328.0383134999993,328.0383134999993,328.0383134999993,328.0383134999993,328.0383134999993,328.7556977000004,328.0383134999993,328.0383134999993,0.5468875000005937,003,P008,2025_Feb_01_1134,ConditionRich,2021.2.3,59.92767927645296,
300.75,304.0,41,0.0,Stimuli/Blank.png,0,0.0,0.0,0,129,129,129,,,,,,,,,,,,,300.78190149999864,0.03190149999863934,None,328.7889751999992,328.7889751999992,328.7889751999992,328.7889751999992,328.7889751999992,328.7889751999992,328.7889751999992,328.7889751999992,328.7889751999992,328.7889751999992,,003,P008,2025_Feb_01_1134,ConditionRich,2021.2.3,59.92767927645296,
304.0,304.75,15,0.75,Stimuli/P008/sun_bmeductqpfkygtww.jpg,0,0.0,0.0,0,130,130,130,,,,,,,,,,,,,304.0013528999989,0.0013528999988920987,None,332.00848059999953,332.00848059999953,332.00848059999953,332.00848059999953,332.00848059999953,332.00848059999953,332.00848059999953,332.00848059999953,332.00848059999953,332.00848059999953,,003,P008,2025_Feb_01_1134,ConditionRich,2021.2.3,59.92767927645296,
304.75,308.0,41,0.0,Stimuli/Blank.png,0,0.0,0.0,0,131,131,131,,,,,,,,,,,,,304.752260199999,0.0022601999990001787,None,332.7591479999992,332.7591479999992,332.7591479999992,332.7591479999992,332.7591479999992,332.7591479999992,332.7591479999992,332.7591479999992,332.7591479999992,332.7591479999992,,003,P008,2025_Feb_01_1134,ConditionRich,2021.2.3,59.92767927645296,
308.0,308.75,40,0.75,Stimuli/P008/things_woman_04s.jpg,0,0.0,0.0,0,132,132,132,,,,,,,,,,,,,308.0045311999984,0.0045311999983823625,None,336.011993099999,336.011993099999,336.011993099999,336.011993099999,336.011993099999,336.011993099999,336.011993099999,336.011993099999,336.011993099999,336.011993099999,,003,P008,2025_Feb_01_1134,ConditionRich,2021.2.3,59.92767927645296,
308.75,312.0,41,0.0,Stimuli/Blank.png,1,0.25,1.0,0,133,133,133,,,,,,,,,,,,,308.7569801999998,0.00698019999981625,2,336.7793753999995,336.7793753999995,336.7793753999995,336.7793753999995,336.7793753999995,336.7793753999995,337.0129082000003,337.7635728000005,336.7793753999995,336.7793753999995,0.6489524000007805,003,P008,2025_Feb_01_1134,ConditionRich,2021.2.3,59.92767927645296,
312.0,312.75,14,0.75,Stimuli/P008/sun_bkvjqgmploznrhxt.jpg,0,0.0,0.0,0,134,134,134,,,,,,,,,,,,,312.02699849999954,0.026998499999535852,None,340.048945999999,340.048945999999,340.048945999999,340.048945999999,340.048945999999,340.048945999999,340.048945999999,340.048945999999,340.048945999999,340.048945999999,,003,P008,2025_Feb_01_1134,ConditionRich,2021.2.3,59.92767927645296,
312.75,316.0,41,0.0,Stimuli/Blank.png,0,0.0,0.0,0,135,135,135,,,,,,,,,,,,,312.775255999999,0.025255999998989864,None,340.7829495999995,340.7829495999995,340.7829495999995,340.7829495999995,340.7829495999995,340.7829495999995,340.7829495999995,340.7829495999995,340.7829495999995,340.7829495999995,,003,P008,2025_Feb_01_1134,ConditionRich,2021.2.3,59.92767927645296,
316.0,316.75,2,0.75,Stimuli/P008/sun_ajyzloqaptmicnfr.jpg,0,0.0,0.0,0,136,136,136,,,,,,,,,,,,,316.0113378999995,0.01133789999948931,None,344.01910560000033,344.01910560000033,344.01910560000033,344.01910560000033,344.01910560000033,344.01910560000033,344.01910560000033,344.01910560000033,344.01910560000033,344.01910560000033,,003,P008,2025_Feb_01_1134,ConditionRich,2021.2.3,59.92767927645296,
316.75,320.0,41,0.0,Stimuli/Blank.png,0,0.0,0.0,0,137,137,137,,,,,,,,,,,,,316.7622182999985,0.01221829999849433,None,344.76974229999905,344.76974229999905,344.76974229999905,344.76974229999905,344.76974229999905,344.76974229999905,344.76974229999905,344.76974229999905,344.76974229999905,344.76974229999905,,003,P008,2025_Feb_01_1134,ConditionRich,2021.2.3,59.92767927645296,
320.0,320.75,4,0.75,Stimuli/P008/sun_awqukazlzsxaokai.jpg,0,0.0,0.0,0,138,138,138,,,,,,,,,,,,,320.0160692999998,0.016069299999799114,None,348.03931209999973,348.03931209999973,348.03931209999973,348.03931209999973,348.03931209999973,348.03931209999973,348.03931209999973,348.03931209999973,348.03931209999973,348.03931209999973,,003,P008,2025_Feb_01_1134,ConditionRich,2021.2.3,59.92767927645296,
320.75,324.0,41,0.0,Stimuli/Blank.png,0,0.0,0.0,0,139,139,139,,,,,,,,,,,,,320.7668144999989,0.016814499998872634,None,348.7733153999998,348.7733153999998,348.7733153999998,348.7733153999998,348.7733153999998,348.7733153999998,348.7733153999998,348.7733153999998,348.7733153999998,348.7733153999998,,003,P008,2025_Feb_01_1134,ConditionRich,2021.2.3,59.92767927645296,
324.0,324.75,3,0.75,Stimuli/P008/sun_aueftjhdwnvkbzlt.jpg,0,0.0,0.0,0,140,140,140,,,,,,,,,,,,,324.00235259999863,0.002352599998630467,None,352.00949839999885,352.00949839999885,352.00949839999885,352.00949839999885,352.00949839999885,352.00949839999885,352.00949839999885,352.00949839999885,352.00949839999885,352.00949839999885,,003,P008,2025_Feb_01_1134,ConditionRich,2021.2.3,59.92767927645296,
324.75,328.0,41,0.0,Stimuli/Blank.png,0,0.0,0.0,0,141,141,141,,,,,,,,,,,,,324.75291729999844,0.002917299998443923,None,352.7602255999991,352.7602255999991,352.7602255999991,352.7602255999991,352.7602255999991,352.7602255999991,352.7602255999991,352.7602255999991,352.7602255999991,352.7602255999991,,003,P008,2025_Feb_01_1134,ConditionRich,2021.2.3,59.92767927645296,
328.0,328.75,5,0.75,Stimuli/P008/sun_ayzkwnqsoiycbncn.jpg,0,0.0,0.0,0,142,142,142,,,,,,,,,,,,,328.00624809999863,0.006248099998629186,None,356.02971760000037,356.02971760000037,356.02971760000037,356.02971760000037,356.02971760000037,356.02971760000037,356.02971760000037,356.02971760000037,356.02971760000037,356.02971760000037,,003,P008,2025_Feb_01_1134,ConditionRich,2021.2.3,59.92767927645296,
328.75,332.0,41,0.0,Stimuli/Blank.png,0,0.0,0.0,0,143,143,143,,,,,,,,,,,,,328.7736112999992,0.023611299999174662,None,356.78038749999905,356.78038749999905,356.78038749999905,356.78038749999905,356.78038749999905,356.78038749999905,356.78038749999905,356.78038749999905,356.78038749999905,356.78038749999905,,003,P008,2025_Feb_01_1134,ConditionRich,2021.2.3,59.92767927645296,
332.0,332.75,12,0.75,Stimuli/P008/sun_bitpmyvulluuasab.jpg,0,0.0,0.0,0,144,144,144,,,,,,,,,,,,,332.0089616999994,0.00896169999941776,None,360.0332794999995,360.0332794999995,360.0332794999995,360.0332794999995,360.0332794999995,360.0332794999995,360.0332794999995,360.0332794999995,360.0332794999995,360.0332794999995,,003,P008,2025_Feb_01_1134,ConditionRich,2021.2.3,59.92767927645296,
332.75,336.0,41,0.0,Stimuli/Blank.png,0,0.0,0.0,0,145,145,145,,,,,,,,,,,,,332.77682859999913,0.026828599999134894,None,360.78394730000036,360.78394730000036,360.78394730000036,360.78394730000036,360.78394730000036,360.78394730000036,360.78394730000036,360.78394730000036,360.78394730000036,360.78394730000036,,003,P008,2025_Feb_01_1134,ConditionRich,2021.2.3,59.92767927645296,
336.0,336.75,37,0.75,Stimuli/P008/things_praying_mantis_04s.jpg,0,0.0,0.0,0,146,146,146,,,,,,,,,,,,,336.01264159999846,0.012641599998460151,None,364.02013029999944,364.02013029999944,364.02013029999944,364.02013029999944,364.02013029999944,364.02013029999944,364.02013029999944,364.02013029999944,364.02013029999944,364.02013029999944,,003,P008,2025_Feb_01_1134,ConditionRich,2021.2.3,59.92767927645296,
336.75,340.0,41,0.0,Stimuli/Blank.png,0,0.0,0.0,0,147,147,147,,,,,,,,,,,,,336.76328250000006,0.013282500000059372,None,364.77079389999926,364.77079389999926,364.77079389999926,364.77079389999926,364.77079389999926,364.77079389999926,364.77079389999926,364.77079389999926,364.77079389999926,364.77079389999926,,003,P008,2025_Feb_01_1134,ConditionRich,2021.2.3,59.92767927645296,
340.0,340.75,22,0.75,Stimuli/P008/things_boar_04s.jpg,0,0.0,0.0,0,148,148,148,,,,,,,,,,,,,340.00287260000005,0.002872600000046077,None,368.0236922999993,368.0236922999993,368.0236922999993,368.0236922999993,368.0236922999993,368.0236922999993,368.0236922999993,368.0236922999993,368.0236922999993,368.0236922999993,,003,P008,2025_Feb_01_1134,ConditionRich,2021.2.3,59.92767927645296,
340.75,344.0,41,0.0,Stimuli/Blank.png,0,0.0,0.0,0,149,149,149,,,,,,,,,,,,,340.7680604999987,0.018060499998682644,None,368.79100499999913,368.79100499999913,368.79100499999913,368.79100499999913,368.79100499999913,368.79100499999913,368.79100499999913,368.79100499999913,368.79100499999913,368.79100499999913,,003,P008,2025_Feb_01_1134,ConditionRich,2021.2.3,59.92767927645296,
344.0,344.75,26,0.75,Stimuli/P008/things_face_04s.jpg,0,0.0,0.0,0,150,150,150,,,,,,,,,,,,,344.01944879999974,0.019448799999736366,None,372.0438654999998,372.0438654999998,372.0438654999998,372.0438654999998,372.0438654999998,372.0438654999998,372.0438654999998,372.0438654999998,372.0438654999998,372.0438654999998,,003,P008,2025_Feb_01_1134,ConditionRich,2021.2.3,59.92767927645296,
344.75,348.0,41,0.0,Stimuli/Blank.png,0,0.0,0.0,0,151,151,151,,,,,,,,,,,,,344.7728675999988,0.022867599998789956,None,372.7945562999994,372.7945562999994,372.7945562999994,372.7945562999994,372.7945562999994,372.7945562999994,372.7945562999994,372.7945562999994,372.7945562999994,372.7945562999994,,003,P008,2025_Feb_01_1134,ConditionRich,2021.2.3,59.92767927645296,
348.0,348.75,11,0.75,Stimuli/P008/sun_bdsriuscubkvzrmt.jpg,0,0.0,0.0,0,152,152,152,,,,,,,,,,,,,348.02363329999935,0.02363329999934649,None,376.04742989999977,376.04742989999977,376.04742989999977,376.04742989999977,376.04742989999977,376.04742989999977,376.04742989999977,376.04742989999977,376.04742989999977,376.04742989999977,,003,P008,2025_Feb_01_1134,ConditionRich,2021.2.3,59.92767927645296,
348.75,352.0,41,0.0,Stimuli/Blank.png,1,2.25,3.0,0,153,153,153,,,,,,,,,,,,,348.7750232999988,0.025023299998792936,2,376.7814244000001,376.7814244000001,376.7814244000001,376.7814244000001,376.7814244000001,376.7814244000001,379.0167590000001,379.76740659999996,376.7814244000001,376.7814244000001,2.7548502999998163,003,P008,2025_Feb_01_1134,ConditionRich,2021.2.3,59.92767927645296,
352.0,352.75,17,0.75,Stimuli/P008/sun_bnsxdhbsafbdyncy.jpg,1,0.0,0.75,0,154,154,154,,,,,,,,,,,,,352.01231779999944,0.01231779999943683,2,380.0342944999993,380.0342944999993,380.0342944999993,380.0342944999993,380.0342944999993,380.0342944999993,380.0342944999993,380.7682654,380.0342944999993,380.0342944999993,0.4769790999998804,003,P008,2025_Feb_01_1134,ConditionRich,2021.2.3,59.92767927645296,
352.75,356.0,41,0.0,Stimuli/Blank.png,0,0.0,0.0,0,155,155,155,,,,,,,,,,,,,352.77733459999945,0.027334599999448983,None,380.78495010000006,380.78495010000006,380.78495010000006,380.78495010000006,380.78495010000006,380.78495010000006,380.78495010000006,380.78495010000006,380.78495010000006,380.78495010000006,,003,P008,2025_Feb_01_1134,ConditionRich,2021.2.3,59.92767927645296,
356.0,356.75,29,0.75,Stimuli/P008/things_hawk_04s.jpg,0,0.0,0.0,0,156,156,156,,,,,,,,,,,,,356.01395579999917,0.01395579999916663,None,384.0211469999995,384.0211469999995,384.0211469999995,384.0211469999995,384.0211469999995,384.0211469999995,384.0211469999995,384.0211469999995,384.0211469999995,384.0211469999995,,003,P008,2025_Feb_01_1134,ConditionRich,2021.2.3,59.92767927645296,
356.75,360.0,41,0.0,Stimuli/Blank.png,0,0.0,0.0,0,157,157,157,,,,,,,,,,,,,356.76404790000015,0.014047900000150548,None,384.77187570000024,384.77187570000024,384.77187570000024,384.77187570000024,384.77187570000024,384.77187570000024,384.77187570000024,384.77187570000024,384.77187570000024,384.77187570000024,,003,P008,2025_Feb_01_1134,ConditionRich,2021.2.3,59.92767927645296,
360.0,360.75,13,0.75,Stimuli/P008/sun_bkhuvtsqontzwtbo.jpg,0,0.0,0.0,0,158,158,158,,,,,,,,,,,,,360.000953499999,0.0009534999990137294,None,388.02472080000007,388.02472080000007,388.02472080000007,388.02472080000007,388.02472080000007,388.02472080000007,388.02472080000007,388.02472080000007,388.02472080000007,388.02472080000007,,003,P008,2025_Feb_01_1134,ConditionRich,2021.2.3,59.92767927645296,
360.75,364.0,41,0.0,Stimuli/Blank.png,1,2.25,3.0,0,159,159,159,,,,,,,,,,,,,360.7676940000001,0.01769400000011956,2,388.7753498999991,388.7753498999991,388.7753498999991,388.7753498999991,388.7753498999991,388.7753498999991,391.01070140000047,391.76136550000047,388.7753498999991,388.7753498999991,2.6689970000006724,003,P008,2025_Feb_01_1134,ConditionRich,2021.2.3,59.92767927645296,
364.0,364.75,31,0.75,Stimuli/P008/things_jug_04s.jpg,0,0.0,0.0,0,160,160,160,,,,,,,,,,,,,364.00412329999926,0.004123299999264418,None,392.0282318999998,392.0282318999998,392.0282318999998,392.0282318999998,392.0282318999998,392.0282318999998,392.0282318999998,392.0282318999998,392.0282318999998,392.0282318999998,,003,P008,2025_Feb_01_1134,ConditionRich,2021.2.3,59.92767927645296,
364.75,368.0,41,0.0,Stimuli/Blank.png,0,0.0,0.0,0,161,161,161,,,,,,,,,,,,,364.7723133999989,0.022313399998893146,None,392.77889979999964,392.77889979999964,392.77889979999964,392.77889979999964,392.77889979999964,392.77889979999964,392.77889979999964,392.77889979999964,392.77889979999964,392.77889979999964,,003,P008,2025_Feb_01_1134,ConditionRich,2021.2.3,59.92767927645296,
368.0,368.75,20,0.75,Stimuli/P008/sun_btrxtfbwtggtrpfv.jpg,0,0.0,0.0,0,162,162,162,,,,,,,,,,,,,368.00813430000017,0.00813430000016524,None,396.03177529999994,396.03177529999994,396.03177529999994,396.03177529999994,396.03177529999994,396.03177529999994,396.03177529999994,396.03177529999994,396.03177529999994,396.03177529999994,,003,P008,2025_Feb_01_1134,ConditionRich,2021.2.3,59.92767927645296,
368.75,372.0,41,0.0,Stimuli/Blank.png,0,0.0,0.0,0,163,163,163,,,,,,,,,,,,,368.777116199999,0.027116199998999946,None,396.7991189000004,396.7991189000004,396.7991189000004,396.7991189000004,396.7991189000004,396.7991189000004,396.7991189000004,396.7991189000004,396.7991189000004,396.7991189000004,,003,P008,2025_Feb_01_1134,ConditionRich,2021.2.3,59.92767927645296,
372.0,388.0,0,0.0,Stimuli/Blank.png,1,1.0,1.75,0,164,164,164,,,,,,,,,,,,,372.0277049999986,0.027704999998604762,2,400.0353094000002,400.0353094000002,400.0353094000002,400.0353094000002,400.0353094000002,400.0353094000002,401.0195291,401.7701753000001,400.0353094000002,400.0353094000002,1.4730069999986881,003,P008,2025_Feb_01_1134,ConditionRich,2021.2.3,59.92767927645296,
