eventStartTime,eventEndTime,eventCond,imSize,imFile,responseEvent,fixRespStart,fixRespEnd,Events.thisRepN,Events.thisTrialN,Events.thisN,Events.thisIndex,Instructions.started,Instructions.stopped,participantReadyResponse.keys,participantReadyResponse.rt,participantReadyResponse.started,participantReadyResponse.stopped,startWaitforTrigger,triggerResponse.keys,triggerResponse.rt,triggerResponse.started,triggerResponse.stopped,globalTimer,actualStartTime,startTimingDiff,participantResponse.keys,participantResponse.rt,participantResponse.started,participantResponse.stopped,image.started,image.stopped,fixationOutside.started,fixationOutside.stopped,fixationResponse.started,fixationResponse.stopped,fixationInside.started,fixationInside.stopped,session,participant,date,expName,psychopyVersion,frameRate,
,,,,,,,,,,,,12.860039300001517,None,2,15.939435600001161,12.860039300001517,None,,,,,,,,,,,,,,,,,,,,,005,P008,2025_Feb_01_1155,ConditionRich,2021.2.3,59.94276664674373,
,,,,,,,,,,,,,,,,,,28.811250500000824,5,13.121433800000887,28.824030100000527,None,,,,,,,,,,,,,,,,005,P008,2025_Feb_01_1155,ConditionRich,2021.2.3,59.94276664674373,
0.0,4.0,0,0.0,Stimuli/Blank.png,0,0,0.0,0,0,0,0,,,,,,,,,,,,41.95640680000179,0.03565420000086306,0.03565420000086306,2,0.5557609000006778,42.00254010000026,None,42.00254010000026,None,42.00254010000026,None,42.00254010000026,42.00254010000026,42.00254010000026,None,005,P008,2025_Feb_01_1155,ConditionRich,2021.2.3,59.94276664674373,
4.0,7.75,10,0.75,Stimuli/P008/sun_bdekcgnlcicvgpvq.jpg,0,0,0.0,0,1,1,1,,,,,,,,,,,,,4.0023352000007435,0.002335200000743498,None,,45.97300910000013,45.97300910000013,45.97300910000013,45.97300910000013,45.97300910000013,45.97300910000013,45.97300910000013,45.97300910000013,45.97300910000013,45.97300910000013,005,P008,2025_Feb_01_1155,ConditionRich,2021.2.3,59.94276664674373,
7.75,8.0,41,0.0,Stimuli/Blank.png,0,0,0.0,0,2,2,2,,,,,,,,,,,,,7.755100600001242,0.005100600001242128,None,,49.72640460000002,49.72640460000002,49.72640460000002,49.72640460000002,49.72640460000002,49.72640460000002,49.72640460000002,49.72640460000002,49.72640460000002,49.72640460000002,005,P008,2025_Feb_01_1155,ConditionRich,2021.2.3,59.94276664674373,
8.0,11.75,24,0.75,Stimuli/P008/things_collar_04s.jpg,0,0,0.0,0,3,3,3,,,,,,,,,,,,,8.005334800000128,0.005334800000127871,None,,49.97626540000056,49.97626540000056,49.97626540000056,49.97626540000056,49.97626540000056,49.97626540000056,49.97626540000056,49.97626540000056,49.97626540000056,49.97626540000056,005,P008,2025_Feb_01_1155,ConditionRich,2021.2.3,59.94276664674373,
11.75,12.0,41,0.0,Stimuli/Blank.png,0,0,0.0,0,4,4,4,,,,,,,,,,,,,11.760191200000918,0.010191200000917888,None,,53.72958960000142,53.72958960000142,53.72958960000142,53.72958960000142,53.72958960000142,53.72958960000142,53.72958960000142,53.72958960000142,53.72958960000142,53.72958960000142,005,P008,2025_Feb_01_1155,ConditionRich,2021.2.3,59.94276664674373,
12.0,15.75,26,0.75,Stimuli/P008/things_face_04s.jpg,0,0,0.0,0,5,5,5,,,,,,,,,,,,,12.008688200001416,0.00868820000141568,None,,53.97981660000005,53.97981660000005,53.97981660000005,53.97981660000005,53.97981660000005,53.97981660000005,53.97981660000005,53.97981660000005,53.97981660000005,53.97981660000005,005,P008,2025_Feb_01_1155,ConditionRich,2021.2.3,59.94276664674373,
15.75,16.0,41,0.0,Stimuli/Blank.png,0,0,0.0,0,6,6,6,,,,,,,,,,,,,15.7643689000015,0.014368900001500151,None,,57.74983610000163,57.74983610000163,57.74983610000163,57.74983610000163,57.74983610000163,57.74983610000163,57.74983610000163,57.74983610000163,57.74983610000163,57.74983610000163,005,P008,2025_Feb_01_1155,ConditionRich,2021.2.3,59.94276664674373,
16.0,19.75,32,0.75,Stimuli/P008/things_maggot_04s.jpg,0,0,0.0,0,7,7,7,,,,,,,,,,,,,16.029839700000593,0.02983970000059344,None,,58.00002850000055,58.00002850000055,58.00002850000055,58.00002850000055,58.00002850000055,58.00002850000055,58.00002850000055,58.00002850000055,58.00002850000055,58.00002850000055,005,P008,2025_Feb_01_1155,ConditionRich,2021.2.3,59.94276664674373,
19.75,20.0,41,0.0,Stimuli/Blank.png,0,0,0.0,0,8,8,8,,,,,,,,,,,,,19.750080499999967,8.04999999672873e-05,None,,61.71999930000129,61.71999930000129,61.71999930000129,61.71999930000129,61.71999930000129,61.71999930000129,61.71999930000129,61.71999930000129,61.71999930000129,61.71999930000129,005,P008,2025_Feb_01_1155,ConditionRich,2021.2.3,59.94276664674373,
20.0,23.75,12,0.75,Stimuli/P008/sun_bitpmyvulluuasab.jpg,0,0,0.0,0,9,9,9,,,,,,,,,,,,,20.000107700001536,0.00010770000153570436,None,,61.986912200000006,61.986912200000006,61.986912200000006,61.986912200000006,61.986912200000006,61.986912200000006,61.986912200000006,61.986912200000006,61.986912200000006,61.986912200000006,005,P008,2025_Feb_01_1155,ConditionRich,2021.2.3,59.94276664674373,
23.75,24.0,41,0.0,Stimuli/Blank.png,0,0,0.0,0,10,10,10,,,,,,,,,,,,,23.770076200000403,0.020076200000403333,None,,65.74021170000015,65.74021170000015,65.74021170000015,65.74021170000015,65.74021170000015,65.74021170000015,65.74021170000015,65.74021170000015,65.74021170000015,65.74021170000015,005,P008,2025_Feb_01_1155,ConditionRich,2021.2.3,59.94276664674373,
24.0,27.75,6,0.75,Stimuli/P008/sun_azpjjfwsbjdjcopb.jpg,0,0,0.0,0,11,11,11,,,,,,,,,,,,,24.00320980000106,0.003209800001059193,None,,65.97376110000005,65.97376110000005,65.97376110000005,65.97376110000005,65.97376110000005,65.97376110000005,65.97376110000005,65.97376110000005,65.97376110000005,65.97376110000005,005,P008,2025_Feb_01_1155,ConditionRich,2021.2.3,59.94276664674373,
27.75,28.0,41,0.0,Stimuli/Blank.png,0,0,0.0,0,12,12,12,,,,,,,,,,,,,27.756005600000208,0.006005600000207778,None,,69.72708270000112,69.72708270000112,69.72708270000112,69.72708270000112,69.72708270000112,69.72708270000112,69.72708270000112,69.72708270000112,69.72708270000112,69.72708270000112,005,P008,2025_Feb_01_1155,ConditionRich,2021.2.3,59.94276664674373,
28.0,31.75,25,0.75,Stimuli/P008/things_credit_card_04s.jpg,0,0,0.0,0,13,13,13,,,,,,,,,,,,,28.006289000000834,0.0062890000008337665,None,,69.99398950000068,69.99398950000068,69.99398950000068,69.99398950000068,69.99398950000068,69.99398950000068,69.99398950000068,69.99398950000068,69.99398950000068,69.99398950000068,005,P008,2025_Feb_01_1155,ConditionRich,2021.2.3,59.94276664674373,
31.75,32.0,41,0.0,Stimuli/Blank.png,0,0,0.0,0,14,14,14,,,,,,,,,,,,,31.77626440000131,0.026264400001309696,None,,73.74729760000082,73.74729760000082,73.74729760000082,73.74729760000082,73.74729760000082,73.74729760000082,73.74729760000082,73.74729760000082,73.74729760000082,73.74729760000082,005,P008,2025_Feb_01_1155,ConditionRich,2021.2.3,59.94276664674373,
32.0,35.75,36,0.75,Stimuli/P008/things_platypus_04s.jpg,0,0,0.0,0,15,15,15,,,,,,,,,,,,,32.01100970000152,0.011009700001523015,None,,73.98083570000017,73.98083570000017,73.98083570000017,73.98083570000017,73.98083570000017,73.98083570000017,73.98083570000017,73.98083570000017,73.98083570000017,73.98083570000017,005,P008,2025_Feb_01_1155,ConditionRich,2021.2.3,59.94276664674373,
35.75,36.0,41,0.0,Stimuli/Blank.png,0,0,0.0,0,16,16,16,,,,,,,,,,,,,35.76352709999992,0.013527099999919301,None,,77.73416330000146,77.73416330000146,77.73416330000146,77.73416330000146,77.73416330000146,77.73416330000146,77.73416330000146,77.73416330000146,77.73416330000146,77.73416330000146,005,P008,2025_Feb_01_1155,ConditionRich,2021.2.3,59.94276664674373,
36.0,39.75,4,0.75,Stimuli/P008/sun_awqukazlzsxaokai.jpg,1,3,3.75,0,17,17,17,,,,,,,,,,,,,36.01417279999987,0.014172799999869312,2,3.6720320000003994,77.98435530000097,77.98435530000097,77.98435530000097,77.98435530000097,77.98435530000097,77.98435530000097,80.97035160000087,None,77.98435530000097,77.98435530000097,005,P008,2025_Feb_01_1155,ConditionRich,2021.2.3,59.94276664674373,
39.75,40.0,41,0.0,Stimuli/Blank.png,0,0,0.0,0,18,18,18,,,,,,,,,,,,,39.75035950000165,0.0003595000016503036,None,,81.72107910000159,81.72107910000159,81.72107910000159,81.72107910000159,81.72107910000159,81.72107910000159,81.72107910000159,81.72107910000159,81.72107910000159,81.72107910000159,005,P008,2025_Feb_01_1155,ConditionRich,2021.2.3,59.94276664674373,
40.0,43.75,15,0.75,Stimuli/P008/sun_bmeductqpfkygtww.jpg,0,0,0.0,0,19,19,19,,,,,,,,,,,,,40.00038610000047,0.00038610000046901405,None,,81.9712449000017,81.9712449000017,81.9712449000017,81.9712449000017,81.9712449000017,81.9712449000017,81.9712449000017,81.9712449000017,81.9712449000017,81.9712449000017,005,P008,2025_Feb_01_1155,ConditionRich,2021.2.3,59.94276664674373,
43.75,44.0,41,0.0,Stimuli/Blank.png,0,0,0.0,0,20,20,20,,,,,,,,,,,,,43.754232799999954,0.004232799999954295,None,,85.7245694000012,85.7245694000012,85.7245694000012,85.7245694000012,85.7245694000012,85.7245694000012,85.7245694000012,85.7245694000012,85.7245694000012,85.7245694000012,005,P008,2025_Feb_01_1155,ConditionRich,2021.2.3,59.94276664674373,
44.0,47.75,37,0.75,Stimuli/P008/things_praying_mantis_04s.jpg,0,0,0.0,0,21,21,21,,,,,,,,,,,,,44.003703000000314,0.003703000000314205,None,,85.97478640000008,85.97478640000008,85.97478640000008,85.97478640000008,85.97478640000008,85.97478640000008,85.97478640000008,85.97478640000008,85.97478640000008,85.97478640000008,005,P008,2025_Feb_01_1155,ConditionRich,2021.2.3,59.94276664674373,
47.75,48.0,41,0.0,Stimuli/Blank.png,0,0,0.0,0,22,22,22,,,,,,,,,,,,,47.75934750000124,0.009347500001240405,None,,89.74480640000002,89.74480640000002,89.74480640000002,89.74480640000002,89.74480640000002,89.74480640000002,89.74480640000002,89.74480640000002,89.74480640000002,89.74480640000002,005,P008,2025_Feb_01_1155,ConditionRich,2021.2.3,59.94276664674373,
48.0,51.75,13,0.75,Stimuli/P008/sun_bkhuvtsqontzwtbo.jpg,0,0,0.0,0,23,23,23,,,,,,,,,,,,,48.025005900000906,0.025005900000905967,None,,89.99500520000038,89.99500520000038,89.99500520000038,89.99500520000038,89.99500520000038,89.99500520000038,89.99500520000038,89.99500520000038,89.99500520000038,89.99500520000038,005,P008,2025_Feb_01_1155,ConditionRich,2021.2.3,59.94276664674373,
51.75,52.0,41,0.0,Stimuli/Blank.png,0,0,0.0,0,24,24,24,,,,,,,,,,,,,51.76151680000112,0.0115168000011181,None,,93.73165250000056,93.73165250000056,93.73165250000056,93.73165250000056,93.73165250000056,93.73165250000056,93.73165250000056,93.73165250000056,93.73165250000056,93.73165250000056,005,P008,2025_Feb_01_1155,ConditionRich,2021.2.3,59.94276664674373,
52.0,55.75,1,0.75,Stimuli/P008/sun_abrlrupzcrwpxqfc.jpg,1,0,0.75,0,25,25,25,,,,,,,,,,,,,52.01191490000019,0.011914900000192574,2,0.790762700000414,93.9818677000003,93.9818677000003,93.9818677000003,93.9818677000003,93.9818677000003,93.9818677000003,93.9818677000003,94.71584130000156,93.9818677000003,93.9818677000003,005,P008,2025_Feb_01_1155,ConditionRich,2021.2.3,59.94276664674373,
55.75,56.0,41,0.0,Stimuli/Blank.png,0,0,0.0,0,26,26,26,,,,,,,,,,,,,55.76420420000068,0.014204200000676792,None,,97.73518410000179,97.73518410000179,97.73518410000179,97.73518410000179,97.73518410000179,97.73518410000179,97.73518410000179,97.73518410000179,97.73518410000179,97.73518410000179,005,P008,2025_Feb_01_1155,ConditionRich,2021.2.3,59.94276664674373,
56.0,59.75,18,0.75,Stimuli/P008/sun_borgfidyubrwsuuw.jpg,0,0,0.0,0,27,27,27,,,,,,,,,,,,,56.01474210000015,0.014742100000148639,None,,97.98540540000067,97.98540540000067,97.98540540000067,97.98540540000067,97.98540540000067,97.98540540000067,97.98540540000067,97.98540540000067,97.98540540000067,97.98540540000067,005,P008,2025_Feb_01_1155,ConditionRich,2021.2.3,59.94276664674373,
59.75,60.0,41,0.0,Stimuli/Blank.png,0,0,0.0,0,28,28,28,,,,,,,,,,,,,59.751550200000565,0.0015502000005653827,None,,101.72211900000002,101.72211900000002,101.72211900000002,101.72211900000002,101.72211900000002,101.72211900000002,101.72211900000002,101.72211900000002,101.72211900000002,101.72211900000002,005,P008,2025_Feb_01_1155,ConditionRich,2021.2.3,59.94276664674373,
60.0,63.75,29,0.75,Stimuli/P008/things_hawk_04s.jpg,1,3,3.75,0,29,29,29,,,,,,,,,,,,,60.001397400001224,0.001397400001224014,2,3.539131900000939,101.97226610000143,101.97226610000143,101.97226610000143,101.97226610000143,101.97226610000143,101.97226610000143,104.95823970000129,105.70893340000111,101.97226610000143,101.97226610000143,005,P008,2025_Feb_01_1155,ConditionRich,2021.2.3,59.94276664674373,
63.75,64.0,41,0.0,Stimuli/Blank.png,0,0,0.0,0,30,30,30,,,,,,,,,,,,,63.75537590000022,0.005375900000217371,None,,105.74231540000073,105.74231540000073,105.74231540000073,105.74231540000073,105.74231540000073,105.74231540000073,105.74231540000073,105.74231540000073,105.74231540000073,105.74231540000073,005,P008,2025_Feb_01_1155,ConditionRich,2021.2.3,59.94276664674373,
64.0,67.75,38,0.75,Stimuli/P008/things_rollerblade_04s.jpg,0,0,0.0,0,31,31,31,,,,,,,,,,,,,64.02211669999997,0.02211669999996957,None,,105.99249000000054,105.99249000000054,105.99249000000054,105.99249000000054,105.99249000000054,105.99249000000054,105.99249000000054,105.99249000000054,105.99249000000054,105.99249000000054,005,P008,2025_Feb_01_1155,ConditionRich,2021.2.3,59.94276664674373,
67.75,68.0,41,0.0,Stimuli/Blank.png,0,0,0.0,0,32,32,32,,,,,,,,,,,,,67.75812600000063,0.008126000000629574,None,,109.72919040000124,109.72919040000124,109.72919040000124,109.72919040000124,109.72919040000124,109.72919040000124,109.72919040000124,109.72919040000124,109.72919040000124,109.72919040000124,005,P008,2025_Feb_01_1155,ConditionRich,2021.2.3,59.94276664674373,
68.0,71.75,34,0.75,Stimuli/P008/things_moose_04s.jpg,1,1,1.75,0,33,33,33,,,,,,,,,,,,,68.00992250000127,0.009922500001266599,2,1.4756046999991668,109.99603670000033,109.99603670000033,109.99603670000033,109.99603670000033,109.99603670000033,109.99603670000033,110.98023970000031,111.73090580000098,109.99603670000033,109.99603670000033,005,P008,2025_Feb_01_1155,ConditionRich,2021.2.3,59.94276664674373,
71.75,72.0,41,0.0,Stimuli/Blank.png,0,0,0.0,0,34,34,34,,,,,,,,,,,,,71.77910410000004,0.02910410000004049,None,,113.74936470000102,113.74936470000102,113.74936470000102,113.74936470000102,113.74936470000102,113.74936470000102,113.74936470000102,113.74936470000102,113.74936470000102,113.74936470000102,005,P008,2025_Feb_01_1155,ConditionRich,2021.2.3,59.94276664674373,
72.0,75.75,35,0.75,Stimuli/P008/things_pecan_04s.jpg,0,0,0.0,0,35,35,35,,,,,,,,,,,,,72.01578810000137,0.015788100001373095,None,,113.99960250000004,113.99960250000004,113.99960250000004,113.99960250000004,113.99960250000004,113.99960250000004,113.99960250000004,113.99960250000004,113.99960250000004,113.99960250000004,005,P008,2025_Feb_01_1155,ConditionRich,2021.2.3,59.94276664674373,
75.75,76.0,41,0.0,Stimuli/Blank.png,0,0,0.0,0,36,36,36,,,,,,,,,,,,,75.76559120000093,0.01559120000092662,None,,117.73619660000077,117.73619660000077,117.73619660000077,117.73619660000077,117.73619660000077,117.73619660000077,117.73619660000077,117.73619660000077,117.73619660000077,117.73619660000077,005,P008,2025_Feb_01_1155,ConditionRich,2021.2.3,59.94276664674373,
76.0,79.75,23,0.75,Stimuli/P008/things_bumper_04s.jpg,1,2,2.75,0,37,37,37,,,,,,,,,,,,,75.99999019999996,-9.800000043469481e-06,2,2.406947299999956,117.98644950000016,117.98644950000016,117.98644950000016,117.98644950000016,117.98644950000016,117.98644950000016,119.95484860000033,120.70550600000024,117.98644950000016,117.98644950000016,005,P008,2025_Feb_01_1155,ConditionRich,2021.2.3,59.94276664674373,
79.75,80.0,41,0.0,Stimuli/Blank.png,0,0,0.0,0,38,38,38,,,,,,,,,,,,,79.76932550000129,0.019325500001286855,None,,121.73976050000056,121.73976050000056,121.73976050000056,121.73976050000056,121.73976050000056,121.73976050000056,121.73976050000056,121.73976050000056,121.73976050000056,121.73976050000056,005,P008,2025_Feb_01_1155,ConditionRich,2021.2.3,59.94276664674373,
80.0,83.75,31,0.75,Stimuli/P008/things_jug_04s.jpg,0,0,0.0,0,39,39,39,,,,,,,,,,,,,80.0026893000013,0.0026893000012933044,None,,121.99000270000033,121.99000270000033,121.99000270000033,121.99000270000033,121.99000270000033,121.99000270000033,121.99000270000033,121.99000270000033,121.99000270000033,121.99000270000033,005,P008,2025_Feb_01_1155,ConditionRich,2021.2.3,59.94276664674373,
83.75,84.0,41,0.0,Stimuli/Blank.png,0,0,0.0,0,40,40,40,,,,,,,,,,,,,83.77393910000137,0.023939100001371116,None,,125.74333990000014,125.74333990000014,125.74333990000014,125.74333990000014,125.74333990000014,125.74333990000014,125.74333990000014,125.74333990000014,125.74333990000014,125.74333990000014,005,P008,2025_Feb_01_1155,ConditionRich,2021.2.3,59.94276664674373,
84.0,100.0,0,0.0,Stimuli/Blank.png,1,8,8.75,0,41,41,41,,,,,,,,,,,,,84.00582280000162,0.005822800001624273,2,8.366524400000344,125.97683880000113,125.97683880000113,125.97683880000113,125.97683880000113,125.97683880000113,125.97683880000113,133.96720330000062,134.71794190000037,125.97683880000113,125.97683880000113,005,P008,2025_Feb_01_1155,ConditionRich,2021.2.3,59.94276664674373,
100.0,103.75,7,0.75,Stimuli/P008/sun_babhwrqvnhanonuy.jpg,0,0,0.0,0,42,42,42,,,,,,,,,,,,,100.00432670000009,0.004326700000092387,None,,141.97429960000045,141.97429960000045,141.97429960000045,141.97429960000045,141.97429960000045,141.97429960000045,141.97429960000045,141.97429960000045,141.97429960000045,141.97429960000045,005,P008,2025_Feb_01_1155,ConditionRich,2021.2.3,59.94276664674373,
103.75,104.0,41,0.0,Stimuli/Blank.png,0,0,0.0,0,43,43,43,,,,,,,,,,,,,103.757305000001,0.007305000000997097,None,,145.7277651000004,145.7277651000004,145.7277651000004,145.7277651000004,145.7277651000004,145.7277651000004,145.7277651000004,145.7277651000004,145.7277651000004,145.7277651000004,005,P008,2025_Feb_01_1155,ConditionRich,2021.2.3,59.94276664674373,
104.0,107.75,17,0.75,Stimuli/P008/sun_bnsxdhbsafbdyncy.jpg,0,0,0.0,0,44,44,44,,,,,,,,,,,,,104.0072809000012,0.007280900001205737,None,,145.99456770000143,145.99456770000143,145.99456770000143,145.99456770000143,145.99456770000143,145.99456770000143,145.99456770000143,145.99456770000143,145.99456770000143,145.99456770000143,005,P008,2025_Feb_01_1155,ConditionRich,2021.2.3,59.94276664674373,
107.75,108.0,41,0.0,Stimuli/Blank.png,0,0,0.0,0,45,45,45,,,,,,,,,,,,,107.77683240000079,0.026832400000785128,None,,149.74788340000123,149.74788340000123,149.74788340000123,149.74788340000123,149.74788340000123,149.74788340000123,149.74788340000123,149.74788340000123,149.74788340000123,149.74788340000123,005,P008,2025_Feb_01_1155,ConditionRich,2021.2.3,59.94276664674373,
108.0,111.75,14,0.75,Stimuli/P008/sun_bkvjqgmploznrhxt.jpg,0,0,0.0,0,46,46,46,,,,,,,,,,,,,108.0106080000005,0.010608000000502216,None,,149.9814118000013,149.9814118000013,149.9814118000013,149.9814118000013,149.9814118000013,149.9814118000013,149.9814118000013,149.9814118000013,149.9814118000013,149.9814118000013,005,P008,2025_Feb_01_1155,ConditionRich,2021.2.3,59.94276664674373,
111.75,112.0,41,0.0,Stimuli/Blank.png,0,0,0.0,0,47,47,47,,,,,,,,,,,,,111.76381220000076,0.013812200000757002,None,,153.7347402000014,153.7347402000014,153.7347402000014,153.7347402000014,153.7347402000014,153.7347402000014,153.7347402000014,153.7347402000014,153.7347402000014,153.7347402000014,005,P008,2025_Feb_01_1155,ConditionRich,2021.2.3,59.94276664674373,
112.0,115.75,5,0.75,Stimuli/P008/sun_ayzkwnqsoiycbncn.jpg,1,0,0.75,0,48,48,48,,,,,,,,,,,,,112.01445109999986,0.014451099999860162,2,0.6004826000007597,153.98495400000138,153.98495400000138,153.98495400000138,153.98495400000138,153.98495400000138,153.98495400000138,153.98495400000138,154.71896890000062,153.98495400000138,153.98495400000138,005,P008,2025_Feb_01_1155,ConditionRich,2021.2.3,59.94276664674373,
115.75,116.0,41,0.0,Stimuli/Blank.png,0,0,0.0,0,49,49,49,,,,,,,,,,,,,115.75059460000011,0.0005946000001131324,None,,157.7215997000003,157.7215997000003,157.7215997000003,157.7215997000003,157.7215997000003,157.7215997000003,157.7215997000003,157.7215997000003,157.7215997000003,157.7215997000003,005,P008,2025_Feb_01_1155,ConditionRich,2021.2.3,59.94276664674373,
116.0,119.75,20,0.75,Stimuli/P008/sun_btrxtfbwtggtrpfv.jpg,1,3,3.75,0,50,50,50,,,,,,,,,,,,,116.0009140000002,0.0009140000001934823,2,3.5545619999993505,157.97179060000053,157.97179060000053,157.97179060000053,157.97179060000053,157.97179060000053,157.97179060000053,160.9578263000003,161.70848370000022,157.97179060000053,157.97179060000053,005,P008,2025_Feb_01_1155,ConditionRich,2021.2.3,59.94276664674373,
119.75,120.0,41,0.0,Stimuli/Blank.png,0,0,0.0,0,51,51,51,,,,,,,,,,,,,119.75531180000144,0.005311800001436495,None,,161.7251393000006,161.7251393000006,161.7251393000006,161.7251393000006,161.7251393000006,161.7251393000006,161.7251393000006,161.7251393000006,161.7251393000006,161.7251393000006,005,P008,2025_Feb_01_1155,ConditionRich,2021.2.3,59.94276664674373,
120.0,123.75,22,0.75,Stimuli/P008/things_boar_04s.jpg,0,0,0.0,0,52,52,52,,,,,,,,,,,,,120.00500439999996,0.005004399999961606,None,,161.99206120000053,161.99206120000053,161.99206120000053,161.99206120000053,161.99206120000053,161.99206120000053,161.99206120000053,161.99206120000053,161.99206120000053,161.99206120000053,005,P008,2025_Feb_01_1155,ConditionRich,2021.2.3,59.94276664674373,
123.75,124.0,41,0.0,Stimuli/Blank.png,0,0,0.0,0,53,53,53,,,,,,,,,,,,,123.77506640000138,0.025066400001378497,None,,165.7453656000016,165.7453656000016,165.7453656000016,165.7453656000016,165.7453656000016,165.7453656000016,165.7453656000016,165.7453656000016,165.7453656000016,165.7453656000016,005,P008,2025_Feb_01_1155,ConditionRich,2021.2.3,59.94276664674373,
124.0,127.75,16,0.75,Stimuli/P008/sun_bnpggenxuowzsywq.jpg,0,0,0.0,0,54,54,54,,,,,,,,,,,,,124.00872900000104,0.008729000001039822,None,,165.97889860000032,165.97889860000032,165.97889860000032,165.97889860000032,165.97889860000032,165.97889860000032,165.97889860000032,165.97889860000032,165.97889860000032,165.97889860000032,005,P008,2025_Feb_01_1155,ConditionRich,2021.2.3,59.94276664674373,
127.75,128.0,41,0.0,Stimuli/Blank.png,0,0,0.0,0,55,55,55,,,,,,,,,,,,,127.7612775000016,0.011277500001597218,None,,169.73222030000034,169.73222030000034,169.73222030000034,169.73222030000034,169.73222030000034,169.73222030000034,169.73222030000034,169.73222030000034,169.73222030000034,169.73222030000034,005,P008,2025_Feb_01_1155,ConditionRich,2021.2.3,59.94276664674373,
128.0,131.75,27,0.75,Stimuli/P008/things_fur_coat_04s.jpg,0,0,0.0,0,56,56,56,,,,,,,,,,,,,128.0123395999999,0.012339599999904749,None,,169.99912550000045,169.99912550000045,169.99912550000045,169.99912550000045,169.99912550000045,169.99912550000045,169.99912550000045,169.99912550000045,169.99912550000045,169.99912550000045,005,P008,2025_Feb_01_1155,ConditionRich,2021.2.3,59.94276664674373,
131.75,132.0,41,0.0,Stimuli/Blank.png,0,0,0.0,0,57,57,57,,,,,,,,,,,,,131.7815242000015,0.031524200001513236,None,,173.75244340000063,173.75244340000063,173.75244340000063,173.75244340000063,173.75244340000063,173.75244340000063,173.75244340000063,173.75244340000063,173.75244340000063,173.75244340000063,005,P008,2025_Feb_01_1155,ConditionRich,2021.2.3,59.94276664674373,
132.0,135.75,8,0.75,Stimuli/P008/sun_bbnepvzvycqjjczs.jpg,0,0,0.0,0,58,58,58,,,,,,,,,,,,,132.0149564000003,0.014956400000301073,None,,173.98598360000142,173.98598360000142,173.98598360000142,173.98598360000142,173.98598360000142,173.98598360000142,173.98598360000142,173.98598360000142,173.98598360000142,173.98598360000142,005,P008,2025_Feb_01_1155,ConditionRich,2021.2.3,59.94276664674373,
135.75,136.0,41,0.0,Stimuli/Blank.png,0,0,0.0,0,59,59,59,,,,,,,,,,,,,135.75225590000082,0.002255900000818656,None,,177.72262690000025,177.72262690000025,177.72262690000025,177.72262690000025,177.72262690000025,177.72262690000025,177.72262690000025,177.72262690000025,177.72262690000025,177.72262690000025,005,P008,2025_Feb_01_1155,ConditionRich,2021.2.3,59.94276664674373,
136.0,139.75,30,0.75,Stimuli/P008/things_jalapeno_04s.jpg,0,0,0.0,0,60,60,60,,,,,,,,,,,,,136.00192160000006,0.0019216000000596978,None,,177.98953430000074,177.98953430000074,177.98953430000074,177.98953430000074,177.98953430000074,177.98953430000074,177.98953430000074,177.98953430000074,177.98953430000074,177.98953430000074,005,P008,2025_Feb_01_1155,ConditionRich,2021.2.3,59.94276664674373,
139.75,140.0,41,0.0,Stimuli/Blank.png,0,0,0.0,0,61,61,61,,,,,,,,,,,,,139.77274620000026,0.022746200000256067,None,,181.7428576000002,181.7428576000002,181.7428576000002,181.7428576000002,181.7428576000002,181.7428576000002,181.7428576000002,181.7428576000002,181.7428576000002,181.7428576000002,005,P008,2025_Feb_01_1155,ConditionRich,2021.2.3,59.94276664674373,
140.0,143.75,19,0.75,Stimuli/P008/sun_brpfgrmubnnjvfkw.jpg,0,0,0.0,0,62,62,62,,,,,,,,,,,,,140.00559610000164,0.00559610000163957,None,,181.9763888000016,181.9763888000016,181.9763888000016,181.9763888000016,181.9763888000016,181.9763888000016,181.9763888000016,181.9763888000016,181.9763888000016,181.9763888000016,005,P008,2025_Feb_01_1155,ConditionRich,2021.2.3,59.94276664674373,
143.75,144.0,41,0.0,Stimuli/Blank.png,0,0,0.0,0,63,63,63,,,,,,,,,,,,,143.75943330000155,0.00943330000154674,None,,185.72970850000092,185.72970850000092,185.72970850000092,185.72970850000092,185.72970850000092,185.72970850000092,185.72970850000092,185.72970850000092,185.72970850000092,185.72970850000092,005,P008,2025_Feb_01_1155,ConditionRich,2021.2.3,59.94276664674373,
144.0,147.75,39,0.75,Stimuli/P008/things_showerhead_04s.jpg,1,0,0.75,0,64,64,64,,,,,,,,,,,,,144.0094861000016,0.009486100001595332,2,0.6164456000005885,185.97993380000116,185.97993380000116,185.97993380000116,185.97993380000116,185.97993380000116,185.97993380000116,185.97993380000116,186.71393620000163,185.97993380000116,185.97993380000116,005,P008,2025_Feb_01_1155,ConditionRich,2021.2.3,59.94276664674373,
147.75,148.0,41,0.0,Stimuli/Blank.png,0,0,0.0,0,65,65,65,,,,,,,,,,,,,147.76548550000007,0.015485500000067987,None,,189.7499452000011,189.7499452000011,189.7499452000011,189.7499452000011,189.7499452000011,189.7499452000011,189.7499452000011,189.7499452000011,189.7499452000011,189.7499452000011,005,P008,2025_Feb_01_1155,ConditionRich,2021.2.3,59.94276664674373,
148.0,151.75,33,0.75,Stimuli/P008/things_man_04s.jpg,0,0,0.0,0,66,66,66,,,,,,,,,,,,,148.0290782000011,0.029078200001094956,None,,190.00012140000035,190.00012140000035,190.00012140000035,190.00012140000035,190.00012140000035,190.00012140000035,190.00012140000035,190.00012140000035,190.00012140000035,190.00012140000035,005,P008,2025_Feb_01_1155,ConditionRich,2021.2.3,59.94276664674373,
151.75,152.0,41,0.0,Stimuli/Blank.png,0,0,0.0,0,67,67,67,,,,,,,,,,,,,151.75056190000032,0.0005619000003207475,None,,193.73682990000088,193.73682990000088,193.73682990000088,193.73682990000088,193.73682990000088,193.73682990000088,193.73682990000088,193.73682990000088,193.73682990000088,193.73682990000088,005,P008,2025_Feb_01_1155,ConditionRich,2021.2.3,59.94276664674373,
152.0,155.75,11,0.75,Stimuli/P008/sun_bdsriuscubkvzrmt.jpg,1,1,1.75,0,68,68,68,,,,,,,,,,,,,152.0159863000008,0.015986300000804476,2,1.6163689999993949,193.9870142000018,193.9870142000018,193.9870142000018,193.9870142000018,193.9870142000018,193.9870142000018,194.97126820000085,195.72188180000012,193.9870142000018,193.9870142000018,005,P008,2025_Feb_01_1155,ConditionRich,2021.2.3,59.94276664674373,
155.75,156.0,41,0.0,Stimuli/Blank.png,0,0,0.0,0,69,69,69,,,,,,,,,,,,,155.75507780000044,0.005077800000435673,None,,197.74030230000062,197.74030230000062,197.74030230000062,197.74030230000062,197.74030230000062,197.74030230000062,197.74030230000062,197.74030230000062,197.74030230000062,197.74030230000062,005,P008,2025_Feb_01_1155,ConditionRich,2021.2.3,59.94276664674373,
156.0,159.75,2,0.75,Stimuli/P008/sun_ajyzloqaptmicnfr.jpg,0,0,0.0,0,70,70,70,,,,,,,,,,,,,156.02031970000098,0.020319700000982266,None,,198.00723570000082,198.00723570000082,198.00723570000082,198.00723570000082,198.00723570000082,198.00723570000082,198.00723570000082,198.00723570000082,198.00723570000082,198.00723570000082,005,P008,2025_Feb_01_1155,ConditionRich,2021.2.3,59.94276664674373,
159.75,160.0,41,0.0,Stimuli/Blank.png,0,0,0.0,0,71,71,71,,,,,,,,,,,,,159.77566509999997,0.025665099999969243,None,,201.76057200000105,201.76057200000105,201.76057200000105,201.76057200000105,201.76057200000105,201.76057200000105,201.76057200000105,201.76057200000105,201.76057200000105,201.76057200000105,005,P008,2025_Feb_01_1155,ConditionRich,2021.2.3,59.94276664674373,
160.0,163.75,3,0.75,Stimuli/P008/sun_aueftjhdwnvkbzlt.jpg,1,1,1.75,0,72,72,72,,,,,,,,,,,,,160.02415680000013,0.024156800000127987,2,1.4196873999990203,202.0107955000003,202.0107955000003,202.0107955000003,202.0107955000003,202.0107955000003,202.0107955000003,202.97834730000068,203.72898580000037,202.0107955000003,202.0107955000003,005,P008,2025_Feb_01_1155,ConditionRich,2021.2.3,59.94276664674373,
163.75,164.0,41,0.0,Stimuli/Blank.png,0,0,0.0,0,73,73,73,,,,,,,,,,,,,163.77643960000023,0.026439600000230712,None,,205.7474112000018,205.7474112000018,205.7474112000018,205.7474112000018,205.7474112000018,205.7474112000018,205.7474112000018,205.7474112000018,205.7474112000018,205.7474112000018,005,P008,2025_Feb_01_1155,ConditionRich,2021.2.3,59.94276664674373,
164.0,167.75,21,0.75,Stimuli/P008/things_baby_04s.jpg,0,0,0.0,0,74,74,74,,,,,,,,,,,,,164.01053950000096,0.010539500000959379,None,,205.98095260000082,205.98095260000082,205.98095260000082,205.98095260000082,205.98095260000082,205.98095260000082,205.98095260000082,205.98095260000082,205.98095260000082,205.98095260000082,005,P008,2025_Feb_01_1155,ConditionRich,2021.2.3,59.94276664674373,
167.75,168.0,41,0.0,Stimuli/Blank.png,0,0,0.0,0,75,75,75,,,,,,,,,,,,,167.7633730000016,0.013373000001593027,None,,209.7344178000003,209.7344178000003,209.7344178000003,209.7344178000003,209.7344178000003,209.7344178000003,209.7344178000003,209.7344178000003,209.7344178000003,209.7344178000003,005,P008,2025_Feb_01_1155,ConditionRich,2021.2.3,59.94276664674373,
168.0,171.75,40,0.75,Stimuli/P008/things_woman_04s.jpg,0,0,0.0,0,76,76,76,,,,,,,,,,,,,168.01520119999986,0.015201199999864912,None,,210.001180700001,210.001180700001,210.001180700001,210.001180700001,210.001180700001,210.001180700001,210.001180700001,210.001180700001,210.001180700001,210.001180700001,005,P008,2025_Feb_01_1155,ConditionRich,2021.2.3,59.94276664674373,
171.75,172.0,41,0.0,Stimuli/Blank.png,0,0,0.0,0,77,77,77,,,,,,,,,,,,,171.76936879999994,0.019368799999938346,None,,213.7545364000016,213.7545364000016,213.7545364000016,213.7545364000016,213.7545364000016,213.7545364000016,213.7545364000016,213.7545364000016,213.7545364000016,213.7545364000016,005,P008,2025_Feb_01_1155,ConditionRich,2021.2.3,59.94276664674373,
172.0,175.75,9,0.75,Stimuli/P008/sun_bcsqogieozpyvuft.jpg,0,0,0.0,0,78,78,78,,,,,,,,,,,,,172.01983590000054,0.019835900000543916,None,,214.00472960000116,214.00472960000116,214.00472960000116,214.00472960000116,214.00472960000116,214.00472960000116,214.00472960000116,214.00472960000116,214.00472960000116,214.00472960000116,005,P008,2025_Feb_01_1155,ConditionRich,2021.2.3,59.94276664674373,
175.75,176.0,41,0.0,Stimuli/Blank.png,0,0,0.0,0,79,79,79,,,,,,,,,,,,,175.77040390000002,0.020403900000019348,None,,217.74135940000087,217.74135940000087,217.74135940000087,217.74135940000087,217.74135940000087,217.74135940000087,217.74135940000087,217.74135940000087,217.74135940000087,217.74135940000087,005,P008,2025_Feb_01_1155,ConditionRich,2021.2.3,59.94276664674373,
176.0,179.75,28,0.75,Stimuli/P008/things_girl_04s.jpg,0,0,0.0,0,80,80,80,,,,,,,,,,,,,176.00405070000124,0.0040507000012439676,None,,217.97487560000081,217.97487560000081,217.97487560000081,217.97487560000081,217.97487560000081,217.97487560000081,217.97487560000081,217.97487560000081,217.97487560000081,217.97487560000081,005,P008,2025_Feb_01_1155,ConditionRich,2021.2.3,59.94276664674373,
179.75,180.0,41,0.0,Stimuli/Blank.png,0,0,0.0,0,81,81,81,,,,,,,,,,,,,179.75715840000157,0.007158400001571863,None,,221.7282277000013,221.7282277000013,221.7282277000013,221.7282277000013,221.7282277000013,221.7282277000013,221.7282277000013,221.7282277000013,221.7282277000013,221.7282277000013,005,P008,2025_Feb_01_1155,ConditionRich,2021.2.3,59.94276664674373,
180.0,196.0,0,0.0,Stimuli/Blank.png,1,4,4.75,0,82,82,82,,,,,,,,,,,,,180.0094689000016,0.009468900001593283,2,4.616329300000871,221.99515340000107,221.99515340000107,221.99515340000107,221.99515340000107,221.99515340000107,221.99515340000107,225.96529960000044,226.71600590000162,221.99515340000107,221.99515340000107,005,P008,2025_Feb_01_1155,ConditionRich,2021.2.3,59.94276664674373,
196.0,199.75,1,0.75,Stimuli/P008/sun_abrlrupzcrwpxqfc.jpg,0,0,0.0,0,83,83,83,,,,,,,,,,,,,196.02232320000076,0.022323200000755605,None,,238.00929540000106,238.00929540000106,238.00929540000106,238.00929540000106,238.00929540000106,238.00929540000106,238.00929540000106,238.00929540000106,238.00929540000106,238.00929540000106,005,P008,2025_Feb_01_1155,ConditionRich,2021.2.3,59.94276664674373,
199.75,200.0,41,0.0,Stimuli/Blank.png,0,0,0.0,0,84,84,84,,,,,,,,,,,,,199.77520920000097,0.025209200000972487,None,,241.74594070000057,241.74594070000057,241.74594070000057,241.74594070000057,241.74594070000057,241.74594070000057,241.74594070000057,241.74594070000057,241.74594070000057,241.74594070000057,005,P008,2025_Feb_01_1155,ConditionRich,2021.2.3,59.94276664674373,
200.0,203.75,30,0.75,Stimuli/P008/things_jalapeno_04s.jpg,0,0,0.0,0,85,85,85,,,,,,,,,,,,,200.00930770000014,0.00930770000013581,None,,241.9961486000011,241.9961486000011,241.9961486000011,241.9961486000011,241.9961486000011,241.9961486000011,241.9961486000011,241.9961486000011,241.9961486000011,241.9961486000011,005,P008,2025_Feb_01_1155,ConditionRich,2021.2.3,59.94276664674373,
203.75,204.0,41,0.0,Stimuli/Blank.png,0,0,0.0,0,86,86,86,,,,,,,,,,,,,203.77839310000127,0.028393100001267157,None,,245.75033930000063,245.75033930000063,245.75033930000063,245.75033930000063,245.75033930000063,245.75033930000063,245.75033930000063,245.75033930000063,245.75033930000063,245.75033930000063,005,P008,2025_Feb_01_1155,ConditionRich,2021.2.3,59.94276664674373,
204.0,207.75,32,0.75,Stimuli/P008/things_maggot_04s.jpg,0,0,0.0,0,87,87,87,,,,,,,,,,,,,204.01465120000103,0.014651200001026154,None,,245.9998183000007,245.9998183000007,245.9998183000007,245.9998183000007,245.9998183000007,245.9998183000007,245.9998183000007,245.9998183000007,245.9998183000007,245.9998183000007,005,P008,2025_Feb_01_1155,ConditionRich,2021.2.3,59.94276664674373,
207.75,208.0,41,0.0,Stimuli/Blank.png,0,0,0.0,0,88,88,88,,,,,,,,,,,,,207.7658500000016,0.01585000000159198,None,,249.73632820000057,249.73632820000057,249.73632820000057,249.73632820000057,249.73632820000057,249.73632820000057,249.73632820000057,249.73632820000057,249.73632820000057,249.73632820000057,005,P008,2025_Feb_01_1155,ConditionRich,2021.2.3,59.94276664674373,
208.0,211.75,38,0.75,Stimuli/P008/things_rollerblade_04s.jpg,1,0,0.75,0,89,89,89,,,,,,,,,,,,,208.0001032,0.00010320000001229346,2,0.5159366999996564,249.9865647000006,249.9865647000006,249.9865647000006,249.9865647000006,249.9865647000006,249.9865647000006,249.9865647000006,250.70385610000085,249.9865647000006,249.9865647000006,005,P008,2025_Feb_01_1155,ConditionRich,2021.2.3,59.94276664674373,
211.75,212.0,41,0.0,Stimuli/Blank.png,0,0,0.0,0,90,90,90,,,,,,,,,,,,,211.77013070000066,0.020130700000663637,None,,253.73987830000078,253.73987830000078,253.73987830000078,253.73987830000078,253.73987830000078,253.73987830000078,253.73987830000078,253.73987830000078,253.73987830000078,253.73987830000078,005,P008,2025_Feb_01_1155,ConditionRich,2021.2.3,59.94276664674373,
212.0,215.75,21,0.75,Stimuli/P008/things_baby_04s.jpg,0,0,0.0,0,91,91,91,,,,,,,,,,,,,212.00484510000024,0.0048451000002387445,None,,253.9900963,253.9900963,253.9900963,253.9900963,253.9900963,253.9900963,253.9900963,253.9900963,253.9900963,253.9900963,005,P008,2025_Feb_01_1155,ConditionRich,2021.2.3,59.94276664674373,
215.75,216.0,41,0.0,Stimuli/Blank.png,0,0,0.0,0,92,92,92,,,,,,,,,,,,,215.7746943000002,0.024694300000192015,None,,257.76009050000175,257.76009050000175,257.76009050000175,257.76009050000175,257.76009050000175,257.76009050000175,257.76009050000175,257.76009050000175,257.76009050000175,257.76009050000175,005,P008,2025_Feb_01_1155,ConditionRich,2021.2.3,59.94276664674373,
216.0,219.75,35,0.75,Stimuli/P008/things_pecan_04s.jpg,1,2,2.75,0,93,93,93,,,,,,,,,,,,,216.0248829000011,0.024882900001102826,2,2.457468599999629,258.0103184000018,258.0103184000018,258.0103184000018,258.0103184000018,258.0103184000018,258.0103184000018,259.9954019000015,260.7460603000018,258.0103184000018,258.0103184000018,005,P008,2025_Feb_01_1155,ConditionRich,2021.2.3,59.94276664674373,
219.75,220.0,41,0.0,Stimuli/Blank.png,0,0,0.0,0,94,94,94,,,,,,,,,,,,,219.77678730000116,0.026787300001160474,None,,261.74695150000116,261.74695150000116,261.74695150000116,261.74695150000116,261.74695150000116,261.74695150000116,261.74695150000116,261.74695150000116,261.74695150000116,261.74695150000116,005,P008,2025_Feb_01_1155,ConditionRich,2021.2.3,59.94276664674373,
220.0,223.75,8,0.75,Stimuli/P008/sun_bbnepvzvycqjjczs.jpg,0,0,0.0,0,95,95,95,,,,,,,,,,,,,220.01050870000108,0.010508700001082616,None,,261.9971736000007,261.9971736000007,261.9971736000007,261.9971736000007,261.9971736000007,261.9971736000007,261.9971736000007,261.9971736000007,261.9971736000007,261.9971736000007,005,P008,2025_Feb_01_1155,ConditionRich,2021.2.3,59.94276664674373,
223.75,224.0,41,0.0,Stimuli/Blank.png,0,0,0.0,0,96,96,96,,,,,,,,,,,,,223.78047350000088,0.03047350000088045,None,,265.7505032000008,265.7505032000008,265.7505032000008,265.7505032000008,265.7505032000008,265.7505032000008,265.7505032000008,265.7505032000008,265.7505032000008,265.7505032000008,005,P008,2025_Feb_01_1155,ConditionRich,2021.2.3,59.94276664674373,
224.0,227.75,3,0.75,Stimuli/P008/sun_aueftjhdwnvkbzlt.jpg,0,0,0.0,0,97,97,97,,,,,,,,,,,,,224.01577010000074,0.01577010000073642,None,,266.00072290000026,266.00072290000026,266.00072290000026,266.00072290000026,266.00072290000026,266.00072290000026,266.00072290000026,266.00072290000026,266.00072290000026,266.00072290000026,005,P008,2025_Feb_01_1155,ConditionRich,2021.2.3,59.94276664674373,
227.75,228.0,41,0.0,Stimuli/Blank.png,0,0,0.0,0,98,98,98,,,,,,,,,,,,,227.76644320000014,0.016443200000139768,None,,269.7373709000003,269.7373709000003,269.7373709000003,269.7373709000003,269.7373709000003,269.7373709000003,269.7373709000003,269.7373709000003,269.7373709000003,269.7373709000003,005,P008,2025_Feb_01_1155,ConditionRich,2021.2.3,59.94276664674373,
228.0,231.75,28,0.75,Stimuli/P008/things_girl_04s.jpg,0,0,0.0,0,99,99,99,,,,,,,,,,,,,228.00100700000075,0.0010070000007544877,None,,269.9708917000007,269.9708917000007,269.9708917000007,269.9708917000007,269.9708917000007,269.9708917000007,269.9708917000007,269.9708917000007,269.9708917000007,269.9708917000007,005,P008,2025_Feb_01_1155,ConditionRich,2021.2.3,59.94276664674373,
231.75,232.0,41,0.0,Stimuli/Blank.png,0,0,0.0,0,100,100,100,,,,,,,,,,,,,231.75386660000004,0.003866600000037579,None,,273.7242356000006,273.7242356000006,273.7242356000006,273.7242356000006,273.7242356000006,273.7242356000006,273.7242356000006,273.7242356000006,273.7242356000006,273.7242356000006,005,P008,2025_Feb_01_1155,ConditionRich,2021.2.3,59.94276664674373,
232.0,235.75,16,0.75,Stimuli/P008/sun_bnpggenxuowzsywq.jpg,0,0,0.0,0,101,101,101,,,,,,,,,,,,,232.00412219999998,0.0041221999999834225,None,,273.9911376,273.9911376,273.9911376,273.9911376,273.9911376,273.9911376,273.9911376,273.9911376,273.9911376,273.9911376,005,P008,2025_Feb_01_1155,ConditionRich,2021.2.3,59.94276664674373,
235.75,236.0,41,0.0,Stimuli/Blank.png,0,0,0.0,0,102,102,102,,,,,,,,,,,,,235.77437480000117,0.024374800001169206,None,,277.74446810000154,277.74446810000154,277.74446810000154,277.74446810000154,277.74446810000154,277.74446810000154,277.74446810000154,277.74446810000154,277.74446810000154,277.74446810000154,005,P008,2025_Feb_01_1155,ConditionRich,2021.2.3,59.94276664674373,
236.0,239.75,23,0.75,Stimuli/P008/things_bumper_04s.jpg,0,0,0.0,0,103,103,103,,,,,,,,,,,,,236.00770830000147,0.00770830000146816,None,,277.99468180000076,277.99468180000076,277.99468180000076,277.99468180000076,277.99468180000076,277.99468180000076,277.99468180000076,277.99468180000076,277.99468180000076,277.99468180000076,005,P008,2025_Feb_01_1155,ConditionRich,2021.2.3,59.94276664674373,
239.75,240.0,41,0.0,Stimuli/Blank.png,0,0,0.0,0,104,104,104,,,,,,,,,,,,,239.77980690000004,0.029806900000039604,None,,281.7646713000013,281.7646713000013,281.7646713000013,281.7646713000013,281.7646713000013,281.7646713000013,281.7646713000013,281.7646713000013,281.7646713000013,281.7646713000013,005,P008,2025_Feb_01_1155,ConditionRich,2021.2.3,59.94276664674373,
240.0,243.75,20,0.75,Stimuli/P008/sun_btrxtfbwtggtrpfv.jpg,0,0,0.0,0,105,105,105,,,,,,,,,,,,,240.027151100001,0.0271511000009923,None,,282.01489240000046,282.01489240000046,282.01489240000046,282.01489240000046,282.01489240000046,282.01489240000046,282.01489240000046,282.01489240000046,282.01489240000046,282.01489240000046,005,P008,2025_Feb_01_1155,ConditionRich,2021.2.3,59.94276664674373,
243.75,244.0,41,0.0,Stimuli/Blank.png,0,0,0.0,0,106,106,106,,,,,,,,,,,,,243.78128920000017,0.03128920000017388,None,,285.7515183000014,285.7515183000014,285.7515183000014,285.7515183000014,285.7515183000014,285.7515183000014,285.7515183000014,285.7515183000014,285.7515183000014,285.7515183000014,005,P008,2025_Feb_01_1155,ConditionRich,2021.2.3,59.94276664674373,
244.0,247.75,5,0.75,Stimuli/P008/sun_ayzkwnqsoiycbncn.jpg,0,0,0.0,0,107,107,107,,,,,,,,,,,,,244.01489540000148,0.014895400001478265,None,,285.9850653000012,285.9850653000012,285.9850653000012,285.9850653000012,285.9850653000012,285.9850653000012,285.9850653000012,285.9850653000012,285.9850653000012,285.9850653000012,005,P008,2025_Feb_01_1155,ConditionRich,2021.2.3,59.94276664674373,
247.75,248.0,41,0.0,Stimuli/Blank.png,0,0,0.0,0,108,108,108,,,,,,,,,,,,,247.75097410000126,0.0009741000012581935,None,,289.721700600001,289.721700600001,289.721700600001,289.721700600001,289.721700600001,289.721700600001,289.721700600001,289.721700600001,289.721700600001,289.721700600001,005,P008,2025_Feb_01_1155,ConditionRich,2021.2.3,59.94276664674373,
248.0,251.75,12,0.75,Stimuli/P008/sun_bitpmyvulluuasab.jpg,0,0,0.0,0,109,109,109,,,,,,,,,,,,,248.00140640000063,0.001406400000632857,None,,289.97192150000046,289.97192150000046,289.97192150000046,289.97192150000046,289.97192150000046,289.97192150000046,289.97192150000046,289.97192150000046,289.97192150000046,289.97192150000046,005,P008,2025_Feb_01_1155,ConditionRich,2021.2.3,59.94276664674373,
251.75,252.0,41,0.0,Stimuli/Blank.png,0,0,0.0,0,110,110,110,,,,,,,,,,,,,251.75512789999993,0.005127899999934016,None,,293.72524740000154,293.72524740000154,293.72524740000154,293.72524740000154,293.72524740000154,293.72524740000154,293.72524740000154,293.72524740000154,293.72524740000154,293.72524740000154,005,P008,2025_Feb_01_1155,ConditionRich,2021.2.3,59.94276664674373,
252.0,255.75,29,0.75,Stimuli/P008/things_hawk_04s.jpg,0,0,0.0,0,111,111,111,,,,,,,,,,,,,252.00505840000005,0.005058400000052643,None,,293.9754653,293.9754653,293.9754653,293.9754653,293.9754653,293.9754653,293.9754653,293.9754653,293.9754653,293.9754653,005,P008,2025_Feb_01_1155,ConditionRich,2021.2.3,59.94276664674373,
255.75,256.0,41,0.0,Stimuli/Blank.png,0,0,0.0,0,112,112,112,,,,,,,,,,,,,255.7599717000012,0.009971700001187855,None,,297.74547040000107,297.74547040000107,297.74547040000107,297.74547040000107,297.74547040000107,297.74547040000107,297.74547040000107,297.74547040000107,297.74547040000107,297.74547040000107,005,P008,2025_Feb_01_1155,ConditionRich,2021.2.3,59.94276664674373,
256.0,259.75,40,0.75,Stimuli/P008/things_woman_04s.jpg,1,1,1.75,0,113,113,113,,,,,,,,,,,,,256.02613030000066,0.02613030000065919,2,1.432278199999928,298.0123643000006,298.0123643000006,298.0123643000006,298.0123643000006,298.0123643000006,298.0123643000006,298.9798969000003,299.73055230000136,298.0123643000006,298.0123643000006,005,P008,2025_Feb_01_1155,ConditionRich,2021.2.3,59.94276664674373,
259.75,260.0,41,0.0,Stimuli/Blank.png,0,0,0.0,0,114,114,114,,,,,,,,,,,,,259.7801321000006,0.03013210000062827,None,,301.7656975000009,301.7656975000009,301.7656975000009,301.7656975000009,301.7656975000009,301.7656975000009,301.7656975000009,301.7656975000009,301.7656975000009,301.7656975000009,005,P008,2025_Feb_01_1155,ConditionRich,2021.2.3,59.94276664674373,
260.0,263.75,14,0.75,Stimuli/P008/sun_bkvjqgmploznrhxt.jpg,1,3,3.75,0,115,115,115,,,,,,,,,,,,,260.0295049000015,0.029504900001484202,2,3.461468600000444,301.9992310000016,305.71921360000124,301.9992310000016,305.71921360000124,301.9992310000016,305.71921360000124,304.9852124000008,None,301.9992310000016,305.71921360000124,005,P008,2025_Feb_01_1155,ConditionRich,2021.2.3,59.94276664674373,
263.75,264.0,41,0.0,Stimuli/Blank.png,0,0,0.0,0,116,116,116,,,,,,,,,,,,,263.76651780000066,0.01651780000065628,None,,305.73587730000145,None,305.73587730000145,None,305.73587730000145,None,305.73587730000145,305.73587730000145,305.73587730000145,None,005,P008,2025_Feb_01_1155,ConditionRich,2021.2.3,59.94276664674373,
264.0,267.75,24,0.75,Stimuli/P008/things_collar_04s.jpg,0,0,0.0,0,117,117,117,,,,,,,,,,,,,263.99867580000137,-0.0013241999986348674,None,,305.9694102000012,305.9694102000012,305.9694102000012,305.9694102000012,305.9694102000012,305.9694102000012,305.9694102000012,305.9694102000012,305.9694102000012,305.9694102000012,005,P008,2025_Feb_01_1155,ConditionRich,2021.2.3,59.94276664674373,
267.75,268.0,41,0.0,Stimuli/Blank.png,0,0,0.0,0,118,118,118,,,,,,,,,,,,,267.7517183,0.001718299999993178,None,,309.72272970000085,309.72272970000085,309.72272970000085,309.72272970000085,309.72272970000085,309.72272970000085,309.72272970000085,309.72272970000085,309.72272970000085,309.72272970000085,005,P008,2025_Feb_01_1155,ConditionRich,2021.2.3,59.94276664674373,
268.0,271.75,33,0.75,Stimuli/P008/things_man_04s.jpg,0,0,0.0,0,119,119,119,,,,,,,,,,,,,268.00476030000027,0.004760300000270945,None,,309.98964010000054,309.98964010000054,309.98964010000054,309.98964010000054,309.98964010000054,309.98964010000054,309.98964010000054,309.98964010000054,309.98964010000054,309.98964010000054,005,P008,2025_Feb_01_1155,ConditionRich,2021.2.3,59.94276664674373,
271.75,272.0,41,0.0,Stimuli/Blank.png,0,0,0.0,0,120,120,120,,,,,,,,,,,,,271.7728393000016,0.022839300001578522,None,,313.74298590000035,313.74298590000035,313.74298590000035,313.74298590000035,313.74298590000035,313.74298590000035,313.74298590000035,313.74298590000035,313.74298590000035,313.74298590000035,005,P008,2025_Feb_01_1155,ConditionRich,2021.2.3,59.94276664674373,
272.0,275.75,18,0.75,Stimuli/P008/sun_borgfidyubrwsuuw.jpg,0,0,0.0,0,121,121,121,,,,,,,,,,,,,272.0060473000012,0.006047300001227995,None,,313.9931991000012,313.9931991000012,313.9931991000012,313.9931991000012,313.9931991000012,313.9931991000012,313.9931991000012,313.9931991000012,313.9931991000012,313.9931991000012,005,P008,2025_Feb_01_1155,ConditionRich,2021.2.3,59.94276664674373,
275.75,276.0,41,0.0,Stimuli/Blank.png,0,0,0.0,0,122,122,122,,,,,,,,,,,,,275.7762520000015,0.026252000001477427,None,,317.7464977000018,317.7464977000018,317.7464977000018,317.7464977000018,317.7464977000018,317.7464977000018,317.7464977000018,317.7464977000018,317.7464977000018,317.7464977000018,005,P008,2025_Feb_01_1155,ConditionRich,2021.2.3,59.94276664674373,
276.0,292.0,0,0.0,Stimuli/Blank.png,1,12,12.75,0,123,123,123,,,,,,,,,,,,,276.0105455000012,0.010545500001171604,2,12.634597100000974,317.9800526000017,317.9800526000017,317.9800526000017,317.9800526000017,317.9800526000017,317.9800526000017,329.97400500000003,330.72464410000066,317.9800526000017,317.9800526000017,005,P008,2025_Feb_01_1155,ConditionRich,2021.2.3,59.94276664674373,
292.0,295.75,39,0.75,Stimuli/P008/things_showerhead_04s.jpg,0,0,0.0,0,124,124,124,,,,,,,,,,,,,292.00650190000124,0.0065019000012398465,None,,333.9942469000016,333.9942469000016,333.9942469000016,333.9942469000016,333.9942469000016,333.9942469000016,333.9942469000016,333.9942469000016,333.9942469000016,333.9942469000016,005,P008,2025_Feb_01_1155,ConditionRich,2021.2.3,59.94276664674373,
295.75,296.0,41,0.0,Stimuli/Blank.png,0,0,0.0,0,125,125,125,,,,,,,,,,,,,295.7766371000016,0.026637100001607905,None,,337.7475198000011,337.7475198000011,337.7475198000011,337.7475198000011,337.7475198000011,337.7475198000011,337.7475198000011,337.7475198000011,337.7475198000011,337.7475198000011,005,P008,2025_Feb_01_1155,ConditionRich,2021.2.3,59.94276664674373,
296.0,299.75,2,0.75,Stimuli/P008/sun_ajyzloqaptmicnfr.jpg,1,0,0.75,0,126,126,126,,,,,,,,,,,,,296.01020960000096,0.010209600000962382,2,0.5127979999997478,337.9810608000007,337.9810608000007,337.9810608000007,337.9810608000007,337.9810608000007,337.9810608000007,337.9810608000007,338.7150414000007,337.9810608000007,337.9810608000007,005,P008,2025_Feb_01_1155,ConditionRich,2021.2.3,59.94276664674373,
299.75,300.0,41,0.0,Stimuli/Blank.png,0,0,0.0,0,127,127,127,,,,,,,,,,,,,299.7642140000007,0.014214000000720262,None,,341.7343929000017,341.7343929000017,341.7343929000017,341.7343929000017,341.7343929000017,341.7343929000017,341.7343929000017,341.7343929000017,341.7343929000017,341.7343929000017,005,P008,2025_Feb_01_1155,ConditionRich,2021.2.3,59.94276664674373,
300.0,303.75,6,0.75,Stimuli/P008/sun_azpjjfwsbjdjcopb.jpg,1,1,1.75,0,128,128,128,,,,,,,,,,,,,300.01489279999987,0.014892799999870476,2,1.467325500001607,342.00129950000155,342.00129950000155,342.00129950000155,342.00129950000155,342.00129950000155,342.00129950000155,342.9688073000016,343.71945900000173,342.00129950000155,342.00129950000155,005,P008,2025_Feb_01_1155,ConditionRich,2021.2.3,59.94276664674373,
303.75,304.0,41,0.0,Stimuli/Blank.png,0,0,0.0,0,129,129,129,,,,,,,,,,,,,303.76698600000054,0.016986000000542845,None,,345.7379269000012,345.7379269000012,345.7379269000012,345.7379269000012,345.7379269000012,345.7379269000012,345.7379269000012,345.7379269000012,345.7379269000012,345.7379269000012,005,P008,2025_Feb_01_1155,ConditionRich,2021.2.3,59.94276664674373,
304.0,307.75,11,0.75,Stimuli/P008/sun_bdsriuscubkvzrmt.jpg,0,0,0.0,0,130,130,130,,,,,,,,,,,,,304.0014801000016,0.001480100001572282,None,,345.97146390000125,345.97146390000125,345.97146390000125,345.97146390000125,345.97146390000125,345.97146390000125,345.97146390000125,345.97146390000125,345.97146390000125,345.97146390000125,005,P008,2025_Feb_01_1155,ConditionRich,2021.2.3,59.94276664674373,
307.75,308.0,41,0.0,Stimuli/Blank.png,0,0,0.0,0,131,131,131,,,,,,,,,,,,,307.75470570000107,0.00470570000106818,None,,349.7247935000014,349.7247935000014,349.7247935000014,349.7247935000014,349.7247935000014,349.7247935000014,349.7247935000014,349.7247935000014,349.7247935000014,349.7247935000014,005,P008,2025_Feb_01_1155,ConditionRich,2021.2.3,59.94276664674373,
308.0,311.75,22,0.75,Stimuli/P008/things_boar_04s.jpg,0,0,0.0,0,132,132,132,,,,,,,,,,,,,308.00410420000117,0.0041042000011657365,None,,349.9750031000003,349.9750031000003,349.9750031000003,349.9750031000003,349.9750031000003,349.9750031000003,349.9750031000003,349.9750031000003,349.9750031000003,349.9750031000003,005,P008,2025_Feb_01_1155,ConditionRich,2021.2.3,59.94276664674373,
311.75,312.0,41,0.0,Stimuli/Blank.png,0,0,0.0,0,133,133,133,,,,,,,,,,,,,311.757253400001,0.0072534000009909505,None,,353.7283260000004,353.7283260000004,353.7283260000004,353.7283260000004,353.7283260000004,353.7283260000004,353.7283260000004,353.7283260000004,353.7283260000004,353.7283260000004,005,P008,2025_Feb_01_1155,ConditionRich,2021.2.3,59.94276664674373,
312.0,315.75,10,0.75,Stimuli/P008/sun_bdekcgnlcicvgpvq.jpg,0,0,0.0,0,134,134,134,,,,,,,,,,,,,312.01019989999986,0.010199899999861373,None,,353.99523300000146,353.99523300000146,353.99523300000146,353.99523300000146,353.99523300000146,353.99523300000146,353.99523300000146,353.99523300000146,353.99523300000146,353.99523300000146,005,P008,2025_Feb_01_1155,ConditionRich,2021.2.3,59.94276664674373,
315.75,316.0,41,0.0,Stimuli/Blank.png,0,0,0.0,0,135,135,135,,,,,,,,,,,,,315.77907960000084,0.02907960000084131,None,,357.74856100000034,357.74856100000034,357.74856100000034,357.74856100000034,357.74856100000034,357.74856100000034,357.74856100000034,357.74856100000034,357.74856100000034,357.74856100000034,005,P008,2025_Feb_01_1155,ConditionRich,2021.2.3,59.94276664674373,
316.0,319.75,4,0.75,Stimuli/P008/sun_awqukazlzsxaokai.jpg,1,1,1.75,0,136,136,136,,,,,,,,,,,,,316.0121349000001,0.012134900000091875,2,1.45646940000006,357.98209410000163,357.98209410000163,357.98209410000163,357.98209410000163,357.98209410000163,357.98209410000163,358.9663369000009,359.71698670000114,357.98209410000163,357.98209410000163,005,P008,2025_Feb_01_1155,ConditionRich,2021.2.3,59.94276664674373,
319.75,320.0,41,0.0,Stimuli/Blank.png,0,0,0.0,0,137,137,137,,,,,,,,,,,,,319.7655552000015,0.015555200001472258,None,,361.73542070000076,361.73542070000076,361.73542070000076,361.73542070000076,361.73542070000076,361.73542070000076,361.73542070000076,361.73542070000076,361.73542070000076,361.73542070000076,005,P008,2025_Feb_01_1155,ConditionRich,2021.2.3,59.94276664674373,
320.0,323.75,37,0.75,Stimuli/P008/things_praying_mantis_04s.jpg,0,0,0.0,0,138,138,138,,,,,,,,,,,,,319.99839900000006,-0.001600999999936903,None,,361.9689567000005,361.9689567000005,361.9689567000005,361.9689567000005,361.9689567000005,361.9689567000005,361.9689567000005,361.9689567000005,361.9689567000005,361.9689567000005,005,P008,2025_Feb_01_1155,ConditionRich,2021.2.3,59.94276664674373,
323.75,324.0,41,0.0,Stimuli/Blank.png,0,0,0.0,0,139,139,139,,,,,,,,,,,,,323.7513736000001,0.0013736000000790227,None,,365.72226410000076,365.72226410000076,365.72226410000076,365.72226410000076,365.72226410000076,365.72226410000076,365.72226410000076,365.72226410000076,365.72226410000076,365.72226410000076,005,P008,2025_Feb_01_1155,ConditionRich,2021.2.3,59.94276664674373,
324.0,327.75,7,0.75,Stimuli/P008/sun_babhwrqvnhanonuy.jpg,0,0,0.0,0,140,140,140,,,,,,,,,,,,,324.00217860000157,0.002178600001570885,None,,365.9891781000006,365.9891781000006,365.9891781000006,365.9891781000006,365.9891781000006,365.9891781000006,365.9891781000006,365.9891781000006,365.9891781000006,365.9891781000006,005,P008,2025_Feb_01_1155,ConditionRich,2021.2.3,59.94276664674373,
327.75,328.0,41,0.0,Stimuli/Blank.png,0,0,0.0,0,141,141,141,,,,,,,,,,,,,327.7731479000013,0.023147900001276867,None,,369.74251600000025,369.74251600000025,369.74251600000025,369.74251600000025,369.74251600000025,369.74251600000025,369.74251600000025,369.74251600000025,369.74251600000025,369.74251600000025,005,P008,2025_Feb_01_1155,ConditionRich,2021.2.3,59.94276664674373,
328.0,331.75,27,0.75,Stimuli/P008/things_fur_coat_04s.jpg,0,0,0.0,0,142,142,142,,,,,,,,,,,,,328.00593030000164,0.005930300001637079,None,,369.99274160000095,369.99274160000095,369.99274160000095,369.99274160000095,369.99274160000095,369.99274160000095,369.99274160000095,369.99274160000095,369.99274160000095,369.99274160000095,005,P008,2025_Feb_01_1155,ConditionRich,2021.2.3,59.94276664674373,
331.75,332.0,41,0.0,Stimuli/Blank.png,0,0,0.0,0,143,143,143,,,,,,,,,,,,,331.77556340000046,0.025563400000464753,None,,373.74603580000075,373.74603580000075,373.74603580000075,373.74603580000075,373.74603580000075,373.74603580000075,373.74603580000075,373.74603580000075,373.74603580000075,373.74603580000075,005,P008,2025_Feb_01_1155,ConditionRich,2021.2.3,59.94276664674373,
332.0,335.75,19,0.75,Stimuli/P008/sun_brpfgrmubnnjvfkw.jpg,0,0,0.0,0,144,144,144,,,,,,,,,,,,,332.0085407000006,0.00854070000059437,None,,373.97957000000133,373.97957000000133,373.97957000000133,373.97957000000133,373.97957000000133,373.97957000000133,373.97957000000133,373.97957000000133,373.97957000000133,373.97957000000133,005,P008,2025_Feb_01_1155,ConditionRich,2021.2.3,59.94276664674373,
335.75,336.0,41,0.0,Stimuli/Blank.png,0,0,0.0,0,145,145,145,,,,,,,,,,,,,335.7618633000002,0.011863300000186427,None,,377.7328933000008,377.7328933000008,377.7328933000008,377.7328933000008,377.7328933000008,377.7328933000008,377.7328933000008,377.7328933000008,377.7328933000008,377.7328933000008,005,P008,2025_Feb_01_1155,ConditionRich,2021.2.3,59.94276664674373,
336.0,339.75,34,0.75,Stimuli/P008/things_moose_04s.jpg,0,0,0.0,0,146,146,146,,,,,,,,,,,,,336.0129700000016,0.012970000001587323,None,,377.9997929000001,377.9997929000001,377.9997929000001,377.9997929000001,377.9997929000001,377.9997929000001,377.9997929000001,377.9997929000001,377.9997929000001,377.9997929000001,005,P008,2025_Feb_01_1155,ConditionRich,2021.2.3,59.94276664674373,
339.75,340.0,41,0.0,Stimuli/Blank.png,0,0,0.0,0,147,147,147,,,,,,,,,,,,,339.76594280000063,0.015942800000630086,None,,381.7364340000004,381.7364340000004,381.7364340000004,381.7364340000004,381.7364340000004,381.7364340000004,381.7364340000004,381.7364340000004,381.7364340000004,381.7364340000004,005,P008,2025_Feb_01_1155,ConditionRich,2021.2.3,59.94276664674373,
340.0,343.75,31,0.75,Stimuli/P008/things_jug_04s.jpg,0,0,0.0,0,148,148,148,,,,,,,,,,,,,339.9993368000014,-0.0006631999985984294,None,,381.96997080000074,381.96997080000074,381.96997080000074,381.96997080000074,381.96997080000074,381.96997080000074,381.96997080000074,381.96997080000074,381.96997080000074,381.96997080000074,005,P008,2025_Feb_01_1155,ConditionRich,2021.2.3,59.94276664674373,
343.75,344.0,41,0.0,Stimuli/Blank.png,0,0,0.0,0,149,149,149,,,,,,,,,,,,,343.75478640000074,0.004786400000739377,None,,385.7399841000006,385.7399841000006,385.7399841000006,385.7399841000006,385.7399841000006,385.7399841000006,385.7399841000006,385.7399841000006,385.7399841000006,385.7399841000006,005,P008,2025_Feb_01_1155,ConditionRich,2021.2.3,59.94276664674373,
344.0,347.75,26,0.75,Stimuli/P008/things_face_04s.jpg,0,0,0.0,0,150,150,150,,,,,,,,,,,,,344.01990040000055,0.0199004000005516,None,,385.99020140000175,385.99020140000175,385.99020140000175,385.99020140000175,385.99020140000175,385.99020140000175,385.99020140000175,385.99020140000175,385.99020140000175,385.99020140000175,005,P008,2025_Feb_01_1155,ConditionRich,2021.2.3,59.94276664674373,
347.75,348.0,41,0.0,Stimuli/Blank.png,0,0,0.0,0,151,151,151,,,,,,,,,,,,,347.75701389999995,0.007013899999947171,None,,389.72683880000113,389.72683880000113,389.72683880000113,389.72683880000113,389.72683880000113,389.72683880000113,389.72683880000113,389.72683880000113,389.72683880000113,389.72683880000113,005,P008,2025_Feb_01_1155,ConditionRich,2021.2.3,59.94276664674373,
348.0,351.75,25,0.75,Stimuli/P008/things_credit_card_04s.jpg,0,0,0.0,0,152,152,152,,,,,,,,,,,,,348.0062603000006,0.006260300000576535,None,,389.9770636000012,389.9770636000012,389.9770636000012,389.9770636000012,389.9770636000012,389.9770636000012,389.9770636000012,389.9770636000012,389.9770636000012,389.9770636000012,005,P008,2025_Feb_01_1155,ConditionRich,2021.2.3,59.94276664674373,
351.75,352.0,41,0.0,Stimuli/Blank.png,0,0,0.0,0,153,153,153,,,,,,,,,,,,,351.7603867000016,0.01038670000161801,None,,393.73038650000126,393.73038650000126,393.73038650000126,393.73038650000126,393.73038650000126,393.73038650000126,393.73038650000126,393.73038650000126,393.73038650000126,393.73038650000126,005,P008,2025_Feb_01_1155,ConditionRich,2021.2.3,59.94276664674373,
352.0,355.75,9,0.75,Stimuli/P008/sun_bcsqogieozpyvuft.jpg,0,0,0.0,0,154,154,154,,,,,,,,,,,,,352.0107614000008,0.010761400000774302,None,,393.99730770000133,393.99730770000133,393.99730770000133,393.99730770000133,393.99730770000133,393.99730770000133,393.99730770000133,393.99730770000133,393.99730770000133,393.99730770000133,005,P008,2025_Feb_01_1155,ConditionRich,2021.2.3,59.94276664674373,
355.75,356.0,41,0.0,Stimuli/Blank.png,0,0,0.0,0,155,155,155,,,,,,,,,,,,,355.7804027000002,0.030402700000195182,None,,397.75059480000164,397.75059480000164,397.75059480000164,397.75059480000164,397.75059480000164,397.75059480000164,397.75059480000164,397.75059480000164,397.75059480000164,397.75059480000164,005,P008,2025_Feb_01_1155,ConditionRich,2021.2.3,59.94276664674373,
356.0,359.75,36,0.75,Stimuli/P008/things_platypus_04s.jpg,0,0,0.0,0,156,156,156,,,,,,,,,,,,,356.014766100001,0.01476610000099754,None,,398.0008383000004,398.0008383000004,398.0008383000004,398.0008383000004,398.0008383000004,398.0008383000004,398.0008383000004,398.0008383000004,398.0008383000004,398.0008383000004,005,P008,2025_Feb_01_1155,ConditionRich,2021.2.3,59.94276664674373,
359.75,360.0,41,0.0,Stimuli/Blank.png,0,0,0.0,0,157,157,157,,,,,,,,,,,,,359.76720640000167,0.017206400001668953,None,,401.73752950000016,401.73752950000016,401.73752950000016,401.73752950000016,401.73752950000016,401.73752950000016,401.73752950000016,401.73752950000016,401.73752950000016,401.73752950000016,005,P008,2025_Feb_01_1155,ConditionRich,2021.2.3,59.94276664674373,
360.0,363.75,17,0.75,Stimuli/P008/sun_bnsxdhbsafbdyncy.jpg,1,2,2.75,0,158,158,158,,,,,,,,,,,,,360.0010478000004,0.0010478000003786292,2,2.437994500000059,401.98768030000065,401.98768030000065,401.98768030000065,401.98768030000065,401.98768030000065,401.98768030000065,403.9560924000016,404.7067754000018,401.98768030000065,401.98768030000065,005,P008,2025_Feb_01_1155,ConditionRich,2021.2.3,59.94276664674373,
363.75,364.0,41,0.0,Stimuli/Blank.png,0,0,0.0,0,159,159,159,,,,,,,,,,,,,363.76998170000115,0.019981700001153513,None,,405.7410021000014,405.7410021000014,405.7410021000014,405.7410021000014,405.7410021000014,405.7410021000014,405.7410021000014,405.7410021000014,405.7410021000014,405.7410021000014,005,P008,2025_Feb_01_1155,ConditionRich,2021.2.3,59.94276664674373,
364.0,367.75,15,0.75,Stimuli/P008/sun_bmeductqpfkygtww.jpg,0,0,0.0,0,160,160,160,,,,,,,,,,,,,364.0045893000006,0.004589300000588992,None,,405.9745406000002,405.9745406000002,405.9745406000002,405.9745406000002,405.9745406000002,405.9745406000002,405.9745406000002,405.9745406000002,405.9745406000002,405.9745406000002,005,P008,2025_Feb_01_1155,ConditionRich,2021.2.3,59.94276664674373,
367.75,368.0,41,0.0,Stimuli/Blank.png,0,0,0.0,0,161,161,161,,,,,,,,,,,,,367.75675860000047,0.006758600000466686,None,,409.7279300000009,409.7279300000009,409.7279300000009,409.7279300000009,409.7279300000009,409.7279300000009,409.7279300000009,409.7279300000009,409.7279300000009,409.7279300000009,005,P008,2025_Feb_01_1155,ConditionRich,2021.2.3,59.94276664674373,
368.0,371.75,13,0.75,Stimuli/P008/sun_bkhuvtsqontzwtbo.jpg,1,1,1.75,0,162,162,162,,,,,,,,,,,,,368.01012600000104,0.010126000001037028,2,1.4359619000006205,409.9947778000005,409.9947778000005,409.9947778000005,409.9947778000005,409.9947778000005,409.9947778000005,410.97899360000156,411.7296262000018,409.9947778000005,409.9947778000005,005,P008,2025_Feb_01_1155,ConditionRich,2021.2.3,59.94276664674373,
371.75,372.0,41,0.0,Stimuli/Blank.png,0,0,0.0,0,163,163,163,,,,,,,,,,,,,371.7798562000007,0.02985620000072231,None,,413.76478710000083,413.76478710000083,413.76478710000083,413.76478710000083,413.76478710000083,413.76478710000083,413.76478710000083,413.76478710000083,413.76478710000083,413.76478710000083,005,P008,2025_Feb_01_1155,ConditionRich,2021.2.3,59.94276664674373,
372.0,388.0,0,0.0,Stimuli/Blank.png,1,8,8.75,0,164,164,164,,,,,,,,,,,,,372.0272746999999,0.02727469999990717,2,8.34025339999971,413.998369500001,413.998369500001,413.998369500001,413.998369500001,413.998369500001,413.998369500001,421.98872010000014,422.7394002000001,413.998369500001,413.998369500001,005,P008,2025_Feb_01_1155,ConditionRich,2021.2.3,59.94276664674373,
