eventStartTime,eventEndTime,eventCond,imSize,imFile,responseEvent,fixRespStart,fixRespEnd,Events.thisRepN,Events.thisTrialN,Events.thisN,Events.thisIndex,Instructions.started,Instructions.stopped,participantReadyResponse.keys,participantReadyResponse.rt,participantReadyResponse.started,participantReadyResponse.stopped,startWaitforTrigger,triggerResponse.keys,triggerResponse.rt,triggerResponse.started,triggerResponse.stopped,globalTimer,actualStartTime,startTimingDiff,participantResponse.keys,participantResponse.started,participantResponse.stopped,image.started,image.stopped,fixationOutside.started,fixationOutside.stopped,fixationResponse.started,fixationResponse.stopped,fixationInside.started,fixationInside.stopped,participantResponse.rt,session,participant,date,expName,psychopyVersion,frameRate,
,,,,,,,,,,,,11.649155200000678,None,2,0.5746913000002678,11.649155200000678,None,,,,,,,,,,,,,,,,,,,,,001,P008,2025_Feb_01_1120,ConditionRich,2021.2.3,59.92556046878695,
,,,,,,,,,,,,,,,,,,12.234792999999627,5,15.658829399999377,12.247860900000887,None,,,,,,,,,,,,,,,,001,P008,2025_Feb_01_1120,ConditionRich,2021.2.3,59.92556046878695,
0.0,4.0,0,0.0,Stimuli/Blank.png,0,0,0.0,0,0,0,0,,,,,,,,,,,,27.915196100000685,0.04990139999972598,0.04990139999972598,None,27.978471399999762,None,27.978471399999762,None,27.978471399999762,None,27.978471399999762,27.978471399999762,27.978471399999762,None,,001,P008,2025_Feb_01_1120,ConditionRich,2021.2.3,59.92556046878695,
4.0,4.75,21,0.75,Stimuli/P008/things_baby_04s.jpg,0,0,0.0,0,1,1,1,,,,,,,,,,,,,4.004009799999039,0.004009799999039387,None,31.94897300000048,31.94897300000048,31.94897300000048,31.94897300000048,31.94897300000048,31.94897300000048,31.94897300000048,31.94897300000048,31.94897300000048,31.94897300000048,,001,P008,2025_Feb_01_1120,ConditionRich,2021.2.3,59.92556046878695,
4.75,5.0,41,0.0,Stimuli/Blank.png,0,0,0.0,0,2,2,2,,,,,,,,,,,,,4.770388599999933,0.02038859999993292,None,32.699600300000384,32.699600300000384,32.699600300000384,32.699600300000384,32.699600300000384,32.699600300000384,32.699600300000384,32.699600300000384,32.699600300000384,32.699600300000384,,001,P008,2025_Feb_01_1120,ConditionRich,2021.2.3,59.92556046878695,
5.0,5.75,21,0.75,Stimuli/P008/things_baby_04s.jpg,0,0,0.0,0,3,3,3,,,,,,,,,,,,,5.004318599998442,0.004318599998441641,None,32.94955149999987,32.94955149999987,32.94955149999987,32.94955149999987,32.94955149999987,32.94955149999987,32.94955149999987,32.94955149999987,32.94955149999987,32.94955149999987,,001,P008,2025_Feb_01_1120,ConditionRich,2021.2.3,59.92556046878695,
5.75,6.0,41,0.0,Stimuli/Blank.png,0,0,0.0,0,4,4,4,,,,,,,,,,,,,5.77038469999934,0.020384699999340228,None,33.700203300000794,33.700203300000794,33.700203300000794,33.700203300000794,33.700203300000794,33.700203300000794,33.700203300000794,33.700203300000794,33.700203300000794,33.700203300000794,,001,P008,2025_Feb_01_1120,ConditionRich,2021.2.3,59.92556046878695,
6.0,6.75,21,0.75,Stimuli/P008/things_baby_04s.jpg,0,0,0.0,0,5,5,5,,,,,,,,,,,,,6.004779499999131,0.004779499999131076,None,33.93374380000023,33.93374380000023,33.93374380000023,33.93374380000023,33.93374380000023,33.93374380000023,33.93374380000023,33.93374380000023,33.93374380000023,33.93374380000023,,001,P008,2025_Feb_01_1120,ConditionRich,2021.2.3,59.92556046878695,
6.75,7.0,41,0.0,Stimuli/Blank.png,0,0,0.0,0,6,6,6,,,,,,,,,,,,,6.754802800000107,0.004802800000106799,None,34.68440620000001,34.68440620000001,34.68440620000001,34.68440620000001,34.68440620000001,34.68440620000001,34.68440620000001,34.68440620000001,34.68440620000001,34.68440620000001,,001,P008,2025_Feb_01_1120,ConditionRich,2021.2.3,59.92556046878695,
7.0,7.75,21,0.75,Stimuli/P008/things_baby_04s.jpg,0,0,0.0,0,7,7,7,,,,,,,,,,,,,7.005609199999526,0.005609199999526027,None,34.93463560000055,34.93463560000055,34.93463560000055,34.93463560000055,34.93463560000055,34.93463560000055,34.93463560000055,34.93463560000055,34.93463560000055,34.93463560000055,,001,P008,2025_Feb_01_1120,ConditionRich,2021.2.3,59.92556046878695,
7.75,8.0,41,0.0,Stimuli/Blank.png,0,0,0.0,0,8,8,8,,,,,,,,,,,,,7.755570499999521,0.005570499999521417,None,35.68529490000037,35.68529490000037,35.68529490000037,35.68529490000037,35.68529490000037,35.68529490000037,35.68529490000037,35.68529490000037,35.68529490000037,35.68529490000037,,001,P008,2025_Feb_01_1120,ConditionRich,2021.2.3,59.92556046878695,
8.0,8.75,15,0.75,Stimuli/P008/sun_bmeductqpfkygtww.jpg,0,0,0.0,0,9,9,9,,,,,,,,,,,,,8.00626849999935,0.006268499999350752,None,35.95223950000036,35.95223950000036,35.95223950000036,35.95223950000036,35.95223950000036,35.95223950000036,35.95223950000036,35.95223950000036,35.95223950000036,35.95223950000036,,001,P008,2025_Feb_01_1120,ConditionRich,2021.2.3,59.92556046878695,
8.75,9.0,41,0.0,Stimuli/Blank.png,0,0,0.0,0,10,10,10,,,,,,,,,,,,,8.77434699999867,0.02434699999867007,None,36.70286529999976,36.70286529999976,36.70286529999976,36.70286529999976,36.70286529999976,36.70286529999976,36.70286529999976,36.70286529999976,36.70286529999976,36.70286529999976,,001,P008,2025_Feb_01_1120,ConditionRich,2021.2.3,59.92556046878695,
9.0,9.75,15,0.75,Stimuli/P008/sun_bmeductqpfkygtww.jpg,0,0,0.0,0,11,11,11,,,,,,,,,,,,,9.007625299998836,0.007625299998835544,None,36.953082600000926,36.953082600000926,36.953082600000926,36.953082600000926,36.953082600000926,36.953082600000926,36.953082600000926,36.953082600000926,36.953082600000926,36.953082600000926,,001,P008,2025_Feb_01_1120,ConditionRich,2021.2.3,59.92556046878695,
9.75,10.0,41,0.0,Stimuli/Blank.png,0,0,0.0,0,12,12,12,,,,,,,,,,,,,9.776232199999868,0.02623219999986759,None,37.720441700001174,37.720441700001174,37.720441700001174,37.720441700001174,37.720441700001174,37.720441700001174,37.720441700001174,37.720441700001174,37.720441700001174,37.720441700001174,,001,P008,2025_Feb_01_1120,ConditionRich,2021.2.3,59.92556046878695,
10.0,10.75,15,0.75,Stimuli/P008/sun_bmeductqpfkygtww.jpg,1,0,0.75,0,13,13,13,,,,,,,,,,,,,10.024621900000056,0.024621900000056485,2,37.953963699999804,37.953963699999804,37.953963699999804,37.953963699999804,37.953963699999804,37.953963699999804,37.953963699999804,None,37.953963699999804,37.953963699999804,0.5079540999995515,001,P008,2025_Feb_01_1120,ConditionRich,2021.2.3,59.92556046878695,
10.75,11.0,41,0.0,Stimuli/Blank.png,0,0,0.0,0,14,14,14,,,,,,,,,,,,,10.759348800000225,0.00934880000022531,None,38.68795660000069,38.68795660000069,38.68795660000069,38.68795660000069,38.68795660000069,38.68795660000069,38.68795660000069,38.68795660000069,38.68795660000069,38.68795660000069,,001,P008,2025_Feb_01_1120,ConditionRich,2021.2.3,59.92556046878695,
11.0,11.75,15,0.75,Stimuli/P008/sun_bmeductqpfkygtww.jpg,0,0,0.0,0,15,15,15,,,,,,,,,,,,,11.009766999999556,0.009766999999555992,None,38.954880799999955,38.954880799999955,38.954880799999955,38.954880799999955,38.954880799999955,38.954880799999955,38.954880799999955,38.954880799999955,38.954880799999955,38.954880799999955,,001,P008,2025_Feb_01_1120,ConditionRich,2021.2.3,59.92556046878695,
11.75,12.0,41,0.0,Stimuli/Blank.png,0,0,0.0,0,16,16,16,,,,,,,,,,,,,11.776470899998458,0.026470899998457753,None,39.70552309999948,39.70552309999948,39.70552309999948,39.70552309999948,39.70552309999948,39.70552309999948,39.70552309999948,39.70552309999948,39.70552309999948,39.70552309999948,,001,P008,2025_Feb_01_1120,ConditionRich,2021.2.3,59.92556046878695,
12.0,12.75,1,0.75,Stimuli/P008/sun_abrlrupzcrwpxqfc.jpg,0,0,0.0,0,17,17,17,,,,,,,,,,,,,12.009876299998723,0.00987629999872297,None,39.972425800000565,39.972425800000565,39.972425800000565,39.972425800000565,39.972425800000565,39.972425800000565,39.972425800000565,39.972425800000565,39.972425800000565,39.972425800000565,,001,P008,2025_Feb_01_1120,ConditionRich,2021.2.3,59.92556046878695,
12.75,13.0,41,0.0,Stimuli/Blank.png,0,0,0.0,0,18,18,18,,,,,,,,,,,,,12.793394700000135,0.043394700000135344,None,40.72309099999984,40.72309099999984,40.72309099999984,40.72309099999984,40.72309099999984,40.72309099999984,40.72309099999984,40.72309099999984,40.72309099999984,40.72309099999984,,001,P008,2025_Feb_01_1120,ConditionRich,2021.2.3,59.92556046878695,
13.0,13.75,1,0.75,Stimuli/P008/sun_abrlrupzcrwpxqfc.jpg,0,0,0.0,0,19,19,19,,,,,,,,,,,,,13.010233099999823,0.010233099999823025,None,40.939938900000925,40.939938900000925,40.939938900000925,40.939938900000925,40.939938900000925,40.939938900000925,40.939938900000925,40.939938900000925,40.939938900000925,40.939938900000925,,001,P008,2025_Feb_01_1120,ConditionRich,2021.2.3,59.92556046878695,
13.75,14.0,41,0.0,Stimuli/Blank.png,0,0,0.0,0,20,20,20,,,,,,,,,,,,,13.761276299999736,0.011276299999735784,None,41.69066720000046,41.69066720000046,41.69066720000046,41.69066720000046,41.69066720000046,41.69066720000046,41.69066720000046,41.69066720000046,41.69066720000046,41.69066720000046,,001,P008,2025_Feb_01_1120,ConditionRich,2021.2.3,59.92556046878695,
14.0,14.75,1,0.75,Stimuli/P008/sun_abrlrupzcrwpxqfc.jpg,0,0,0.0,0,21,21,21,,,,,,,,,,,,,14.011784199999965,0.011784199999965494,None,41.957517000000735,41.957517000000735,41.957517000000735,41.957517000000735,41.957517000000735,41.957517000000735,41.957517000000735,41.957517000000735,41.957517000000735,41.957517000000735,,001,P008,2025_Feb_01_1120,ConditionRich,2021.2.3,59.92556046878695,
14.75,15.0,41,0.0,Stimuli/Blank.png,0,0,0.0,0,22,22,22,,,,,,,,,,,,,14.778618700000152,0.028618700000151875,None,42.70817050000005,42.70817050000005,42.70817050000005,42.70817050000005,42.70817050000005,42.70817050000005,42.70817050000005,42.70817050000005,42.70817050000005,42.70817050000005,,001,P008,2025_Feb_01_1120,ConditionRich,2021.2.3,59.92556046878695,
15.0,15.75,1,0.75,Stimuli/P008/sun_abrlrupzcrwpxqfc.jpg,0,0,0.0,0,23,23,23,,,,,,,,,,,,,15.01334449999922,0.013344499999220716,None,42.95838420000109,42.95838420000109,42.95838420000109,42.95838420000109,42.95838420000109,42.95838420000109,42.95838420000109,42.95838420000109,42.95838420000109,42.95838420000109,,001,P008,2025_Feb_01_1120,ConditionRich,2021.2.3,59.92556046878695,
15.75,16.0,41,0.0,Stimuli/Blank.png,0,0,0.0,0,24,24,24,,,,,,,,,,,,,15.779951200000141,0.029951200000141398,None,43.70905649999986,43.70905649999986,43.70905649999986,43.70905649999986,43.70905649999986,43.70905649999986,43.70905649999986,43.70905649999986,43.70905649999986,43.70905649999986,,001,P008,2025_Feb_01_1120,ConditionRich,2021.2.3,59.92556046878695,
16.0,16.75,25,0.75,Stimuli/P008/things_credit_card_04s.jpg,0,0,0.0,0,25,25,25,,,,,,,,,,,,,16.012804799998776,0.012804799998775707,None,43.95929109999997,43.95929109999997,43.95929109999997,43.95929109999997,43.95929109999997,43.95929109999997,43.95929109999997,43.95929109999997,43.95929109999997,43.95929109999997,,001,P008,2025_Feb_01_1120,ConditionRich,2021.2.3,59.92556046878695,
16.75,17.0,41,0.0,Stimuli/Blank.png,0,0,0.0,0,26,26,26,,,,,,,,,,,,,16.780811799999356,0.03081179999935557,None,44.7099431000006,44.7099431000006,44.7099431000006,44.7099431000006,44.7099431000006,44.7099431000006,44.7099431000006,44.7099431000006,44.7099431000006,44.7099431000006,,001,P008,2025_Feb_01_1120,ConditionRich,2021.2.3,59.92556046878695,
17.0,17.75,25,0.75,Stimuli/P008/things_credit_card_04s.jpg,0,0,0.0,0,27,27,27,,,,,,,,,,,,,17.01403879999998,0.014038799999980256,None,44.94347580000067,44.94347580000067,44.94347580000067,44.94347580000067,44.94347580000067,44.94347580000067,44.94347580000067,44.94347580000067,44.94347580000067,44.94347580000067,,001,P008,2025_Feb_01_1120,ConditionRich,2021.2.3,59.92556046878695,
17.75,18.0,41,0.0,Stimuli/Blank.png,0,0,0.0,0,28,28,28,,,,,,,,,,,,,17.764429599999858,0.0144295999998576,None,45.694148500000665,45.694148500000665,45.694148500000665,45.694148500000665,45.694148500000665,45.694148500000665,45.694148500000665,45.694148500000665,45.694148500000665,45.694148500000665,,001,P008,2025_Feb_01_1120,ConditionRich,2021.2.3,59.92556046878695,
18.0,18.75,25,0.75,Stimuli/P008/things_credit_card_04s.jpg,1,0,0.75,0,29,29,29,,,,,,,,,,,,,18.01543589999892,0.015435899998919922,2,45.94437000000107,45.94437000000107,45.94437000000107,45.94437000000107,45.94437000000107,45.94437000000107,45.94437000000107,None,45.94437000000107,45.94437000000107,0.3935414000006858,001,P008,2025_Feb_01_1120,ConditionRich,2021.2.3,59.92556046878695,
18.75,19.0,41,0.0,Stimuli/Blank.png,0,0,0.0,0,30,30,30,,,,,,,,,,,,,18.749548899999354,-0.00045110000064596534,None,46.67834640000001,46.67834640000001,46.67834640000001,46.67834640000001,46.67834640000001,46.67834640000001,46.67834640000001,46.67834640000001,46.67834640000001,46.67834640000001,,001,P008,2025_Feb_01_1120,ConditionRich,2021.2.3,59.92556046878695,
19.0,19.75,25,0.75,Stimuli/P008/things_credit_card_04s.jpg,0,0,0.0,0,31,31,31,,,,,,,,,,,,,18.998916599999575,-0.001083400000425172,None,46.92858640000122,46.92858640000122,46.92858640000122,46.92858640000122,46.92858640000122,46.92858640000122,46.92858640000122,46.92858640000122,46.92858640000122,46.92858640000122,,001,P008,2025_Feb_01_1120,ConditionRich,2021.2.3,59.92556046878695,
19.75,20.0,41,0.0,Stimuli/Blank.png,0,0,0.0,0,32,32,32,,,,,,,,,,,,,19.750133899999128,0.00013389999912760686,None,47.67961860000105,47.67961860000105,47.67961860000105,47.67961860000105,47.67961860000105,47.67961860000105,47.67961860000105,47.67961860000105,47.67961860000105,47.67961860000105,,001,P008,2025_Feb_01_1120,ConditionRich,2021.2.3,59.92556046878695,
20.0,20.75,23,0.75,Stimuli/P008/things_bumper_04s.jpg,0,0,0.0,0,33,33,33,,,,,,,,,,,,,19.999827899999218,-0.00017210000078193843,None,47.96289539999998,47.96289539999998,47.96289539999998,47.96289539999998,47.96289539999998,47.96289539999998,47.96289539999998,47.96289539999998,47.96289539999998,47.96289539999998,,001,P008,2025_Feb_01_1120,ConditionRich,2021.2.3,59.92556046878695,
20.75,21.0,41,0.0,Stimuli/Blank.png,0,0,0.0,0,34,34,34,,,,,,,,,,,,,20.784397399998852,0.03439739999885205,None,48.71348840000064,48.71348840000064,48.71348840000064,48.71348840000064,48.71348840000064,48.71348840000064,48.71348840000064,48.71348840000064,48.71348840000064,48.71348840000064,,001,P008,2025_Feb_01_1120,ConditionRich,2021.2.3,59.92556046878695,
21.0,21.75,23,0.75,Stimuli/P008/things_bumper_04s.jpg,0,0,0.0,0,35,35,35,,,,,,,,,,,,,21.001210999998875,0.0012109999988751952,None,48.93033959999957,48.93033959999957,48.93033959999957,48.93033959999957,48.93033959999957,48.93033959999957,48.93033959999957,48.93033959999957,48.93033959999957,48.93033959999957,,001,P008,2025_Feb_01_1120,ConditionRich,2021.2.3,59.92556046878695,
21.75,22.0,41,0.0,Stimuli/Blank.png,0,0,0.0,0,36,36,36,,,,,,,,,,,,,21.751252799998838,0.0012527999988378724,None,49.680980200000704,49.680980200000704,49.680980200000704,49.680980200000704,49.680980200000704,49.680980200000704,49.680980200000704,49.680980200000704,49.680980200000704,49.680980200000704,,001,P008,2025_Feb_01_1120,ConditionRich,2021.2.3,59.92556046878695,
22.0,22.75,23,0.75,Stimuli/P008/things_bumper_04s.jpg,0,0,0.0,0,37,37,37,,,,,,,,,,,,,22.00241509999978,0.002415099999780068,None,49.94790769999963,49.94790769999963,49.94790769999963,49.94790769999963,49.94790769999963,49.94790769999963,49.94790769999963,49.94790769999963,49.94790769999963,49.94790769999963,,001,P008,2025_Feb_01_1120,ConditionRich,2021.2.3,59.92556046878695,
22.75,23.0,41,0.0,Stimuli/Blank.png,0,0,0.0,0,38,38,38,,,,,,,,,,,,,22.76868529999956,0.01868529999956081,None,50.69857400000001,50.69857400000001,50.69857400000001,50.69857400000001,50.69857400000001,50.69857400000001,50.69857400000001,50.69857400000001,50.69857400000001,50.69857400000001,,001,P008,2025_Feb_01_1120,ConditionRich,2021.2.3,59.92556046878695,
23.0,23.75,23,0.75,Stimuli/P008/things_bumper_04s.jpg,0,0,0.0,0,39,39,39,,,,,,,,,,,,,23.00445589999981,0.004455899999811663,None,50.94879580000088,50.94879580000088,50.94879580000088,50.94879580000088,50.94879580000088,50.94879580000088,50.94879580000088,50.94879580000088,50.94879580000088,50.94879580000088,,001,P008,2025_Feb_01_1120,ConditionRich,2021.2.3,59.92556046878695,
23.75,24.0,41,0.0,Stimuli/Blank.png,0,0,0.0,0,40,40,40,,,,,,,,,,,,,23.770237599999746,0.020237599999745726,None,51.69945759999973,51.69945759999973,51.69945759999973,51.69945759999973,51.69945759999973,51.69945759999973,51.69945759999973,51.69945759999973,51.69945759999973,51.69945759999973,,001,P008,2025_Feb_01_1120,ConditionRich,2021.2.3,59.92556046878695,
24.0,24.75,9,0.75,Stimuli/P008/sun_bcsqogieozpyvuft.jpg,0,0,0.0,0,41,41,41,,,,,,,,,,,,,24.003446199998507,0.003446199998506927,None,51.94968230000086,51.94968230000086,51.94968230000086,51.94968230000086,51.94968230000086,51.94968230000086,51.94968230000086,51.94968230000086,51.94968230000086,51.94968230000086,,001,P008,2025_Feb_01_1120,ConditionRich,2021.2.3,59.92556046878695,
24.75,25.0,41,0.0,Stimuli/Blank.png,0,0,0.0,0,42,42,42,,,,,,,,,,,,,24.77123930000016,0.021239300000161165,None,52.70040719999997,52.70040719999997,52.70040719999997,52.70040719999997,52.70040719999997,52.70040719999997,52.70040719999997,52.70040719999997,52.70040719999997,52.70040719999997,,001,P008,2025_Feb_01_1120,ConditionRich,2021.2.3,59.92556046878695,
25.0,25.75,9,0.75,Stimuli/P008/sun_bcsqogieozpyvuft.jpg,0,0,0.0,0,43,43,43,,,,,,,,,,,,,25.00419299999885,0.0041929999988497,None,52.933884000000035,52.933884000000035,52.933884000000035,52.933884000000035,52.933884000000035,52.933884000000035,52.933884000000035,52.933884000000035,52.933884000000035,52.933884000000035,,001,P008,2025_Feb_01_1120,ConditionRich,2021.2.3,59.92556046878695,
25.75,26.0,41,0.0,Stimuli/Blank.png,0,0,0.0,0,44,44,44,,,,,,,,,,,,,25.755599099999017,0.005599099999017199,None,53.68454940000083,53.68454940000083,53.68454940000083,53.68454940000083,53.68454940000083,53.68454940000083,53.68454940000083,53.68454940000083,53.68454940000083,53.68454940000083,,001,P008,2025_Feb_01_1120,ConditionRich,2021.2.3,59.92556046878695,
26.0,26.75,9,0.75,Stimuli/P008/sun_bcsqogieozpyvuft.jpg,0,0,0.0,0,45,45,45,,,,,,,,,,,,,26.00563709999915,0.0056370999991486315,None,53.934729399999924,53.934729399999924,53.934729399999924,53.934729399999924,53.934729399999924,53.934729399999924,53.934729399999924,53.934729399999924,53.934729399999924,53.934729399999924,,001,P008,2025_Feb_01_1120,ConditionRich,2021.2.3,59.92556046878695,
26.75,27.0,41,0.0,Stimuli/Blank.png,0,0,0.0,0,46,46,46,,,,,,,,,,,,,26.756412499998987,0.006412499998987187,None,54.68550479999976,54.68550479999976,54.68550479999976,54.68550479999976,54.68550479999976,54.68550479999976,54.68550479999976,54.68550479999976,54.68550479999976,54.68550479999976,,001,P008,2025_Feb_01_1120,ConditionRich,2021.2.3,59.92556046878695,
27.0,27.75,9,0.75,Stimuli/P008/sun_bcsqogieozpyvuft.jpg,0,0,0.0,0,47,47,47,,,,,,,,,,,,,27.006505899998956,0.006505899998956011,None,54.95234080000046,54.95234080000046,54.95234080000046,54.95234080000046,54.95234080000046,54.95234080000046,54.95234080000046,54.95234080000046,54.95234080000046,54.95234080000046,,001,P008,2025_Feb_01_1120,ConditionRich,2021.2.3,59.92556046878695,
27.75,28.0,41,0.0,Stimuli/Blank.png,0,0,0.0,0,48,48,48,,,,,,,,,,,,,27.77349779999895,0.02349779999894963,None,55.70299859999977,55.70299859999977,55.70299859999977,55.70299859999977,55.70299859999977,55.70299859999977,55.70299859999977,55.70299859999977,55.70299859999977,55.70299859999977,,001,P008,2025_Feb_01_1120,ConditionRich,2021.2.3,59.92556046878695,
28.0,28.75,2,0.75,Stimuli/P008/sun_ajyzloqaptmicnfr.jpg,0,0,0.0,0,49,49,49,,,,,,,,,,,,,28.00723509999989,0.0072350999998889165,None,55.96993040000052,55.96993040000052,55.96993040000052,55.96993040000052,55.96993040000052,55.96993040000052,55.96993040000052,55.96993040000052,55.96993040000052,55.96993040000052,,001,P008,2025_Feb_01_1120,ConditionRich,2021.2.3,59.92556046878695,
28.75,29.0,41,0.0,Stimuli/Blank.png,0,0,0.0,0,50,50,50,,,,,,,,,,,,,28.790962099999888,0.04096209999988787,None,56.720560300000216,56.720560300000216,56.720560300000216,56.720560300000216,56.720560300000216,56.720560300000216,56.720560300000216,56.720560300000216,56.720560300000216,56.720560300000216,,001,P008,2025_Feb_01_1120,ConditionRich,2021.2.3,59.92556046878695,
29.0,29.75,2,0.75,Stimuli/P008/sun_ajyzloqaptmicnfr.jpg,0,0,0.0,0,51,51,51,,,,,,,,,,,,,29.008433299999524,0.008433299999524024,None,56.9540990000005,56.9540990000005,56.9540990000005,56.9540990000005,56.9540990000005,56.9540990000005,56.9540990000005,56.9540990000005,56.9540990000005,56.9540990000005,,001,P008,2025_Feb_01_1120,ConditionRich,2021.2.3,59.92556046878695,
29.75,30.0,41,0.0,Stimuli/Blank.png,0,0,0.0,0,52,52,52,,,,,,,,,,,,,29.774959799999124,0.02495979999912379,None,57.704795300000114,57.704795300000114,57.704795300000114,57.704795300000114,57.704795300000114,57.704795300000114,57.704795300000114,57.704795300000114,57.704795300000114,57.704795300000114,,001,P008,2025_Feb_01_1120,ConditionRich,2021.2.3,59.92556046878695,
30.0,30.75,2,0.75,Stimuli/P008/sun_ajyzloqaptmicnfr.jpg,0,0,0.0,0,53,53,53,,,,,,,,,,,,,30.00927909999882,0.009279099998821039,None,57.93831450000107,57.93831450000107,57.93831450000107,57.93831450000107,57.93831450000107,57.93831450000107,57.93831450000107,57.93831450000107,57.93831450000107,57.93831450000107,,001,P008,2025_Feb_01_1120,ConditionRich,2021.2.3,59.92556046878695,
30.75,31.0,41,0.0,Stimuli/Blank.png,0,0,0.0,0,54,54,54,,,,,,,,,,,,,30.759959699998944,0.009959699998944416,None,58.68897950000064,58.68897950000064,58.68897950000064,58.68897950000064,58.68897950000064,58.68897950000064,58.68897950000064,58.68897950000064,58.68897950000064,58.68897950000064,,001,P008,2025_Feb_01_1120,ConditionRich,2021.2.3,59.92556046878695,
31.0,31.75,2,0.75,Stimuli/P008/sun_ajyzloqaptmicnfr.jpg,0,0,0.0,0,55,55,55,,,,,,,,,,,,,31.009510199999568,0.009510199999567703,None,58.939197600000625,58.939197600000625,58.939197600000625,58.939197600000625,58.939197600000625,58.939197600000625,58.939197600000625,58.939197600000625,58.939197600000625,58.939197600000625,,001,P008,2025_Feb_01_1120,ConditionRich,2021.2.3,59.92556046878695,
31.75,32.0,41,0.0,Stimuli/Blank.png,0,0,0.0,0,56,56,56,,,,,,,,,,,,,31.759978999998566,0.009978999998565996,None,59.68985729999986,59.68985729999986,59.68985729999986,59.68985729999986,59.68985729999986,59.68985729999986,59.68985729999986,59.68985729999986,59.68985729999986,59.68985729999986,,001,P008,2025_Feb_01_1120,ConditionRich,2021.2.3,59.92556046878695,
32.0,32.75,6,0.75,Stimuli/P008/sun_azpjjfwsbjdjcopb.jpg,0,0,0.0,0,57,57,57,,,,,,,,,,,,,32.01026959999945,0.010269599999446655,None,59.97345590000077,59.97345590000077,59.97345590000077,59.97345590000077,59.97345590000077,59.97345590000077,59.97345590000077,59.97345590000077,59.97345590000077,59.97345590000077,,001,P008,2025_Feb_01_1120,ConditionRich,2021.2.3,59.92556046878695,
32.75,33.0,41,0.0,Stimuli/Blank.png,0,0,0.0,0,58,58,58,,,,,,,,,,,,,32.7948593000001,0.0448593000000983,None,60.724118800000724,60.724118800000724,60.724118800000724,60.724118800000724,60.724118800000724,60.724118800000724,60.724118800000724,60.724118800000724,60.724118800000724,60.724118800000724,,001,P008,2025_Feb_01_1120,ConditionRich,2021.2.3,59.92556046878695,
33.0,33.75,6,0.75,Stimuli/P008/sun_azpjjfwsbjdjcopb.jpg,0,0,0.0,0,59,59,59,,,,,,,,,,,,,33.01132929999949,0.011329299999488285,None,60.94096189999982,60.94096189999982,60.94096189999982,60.94096189999982,60.94096189999982,60.94096189999982,60.94096189999982,60.94096189999982,60.94096189999982,60.94096189999982,,001,P008,2025_Feb_01_1120,ConditionRich,2021.2.3,59.92556046878695,
33.75,34.0,41,0.0,Stimuli/Blank.png,0,0,0.0,0,60,60,60,,,,,,,,,,,,,33.76516709999851,0.015167099998507183,None,61.708323500000915,61.708323500000915,61.708323500000915,61.708323500000915,61.708323500000915,61.708323500000915,61.708323500000915,61.708323500000915,61.708323500000915,61.708323500000915,,001,P008,2025_Feb_01_1120,ConditionRich,2021.2.3,59.92556046878695,
34.0,34.75,6,0.75,Stimuli/P008/sun_azpjjfwsbjdjcopb.jpg,0,0,0.0,0,61,61,61,,,,,,,,,,,,,34.02969809999922,0.029698099999222904,None,61.95853290000014,61.95853290000014,61.95853290000014,61.95853290000014,61.95853290000014,61.95853290000014,61.95853290000014,61.95853290000014,61.95853290000014,61.95853290000014,,001,P008,2025_Feb_01_1120,ConditionRich,2021.2.3,59.92556046878695,
34.75,35.0,41,0.0,Stimuli/Blank.png,0,0,0.0,0,62,62,62,,,,,,,,,,,,,34.762828299999455,0.01282829999945534,None,62.69251559999975,62.69251559999975,62.69251559999975,62.69251559999975,62.69251559999975,62.69251559999975,62.69251559999975,62.69251559999975,62.69251559999975,62.69251559999975,,001,P008,2025_Feb_01_1120,ConditionRich,2021.2.3,59.92556046878695,
35.0,35.75,6,0.75,Stimuli/P008/sun_azpjjfwsbjdjcopb.jpg,0,0,0.0,0,63,63,63,,,,,,,,,,,,,35.01444099999935,0.014440999999351334,None,62.95952810000017,62.95952810000017,62.95952810000017,62.95952810000017,62.95952810000017,62.95952810000017,62.95952810000017,62.95952810000017,62.95952810000017,62.95952810000017,,001,P008,2025_Feb_01_1120,ConditionRich,2021.2.3,59.92556046878695,
35.75,36.0,41,0.0,Stimuli/Blank.png,0,0,0.0,0,64,64,64,,,,,,,,,,,,,35.78102529999887,0.03102529999887338,None,63.71008439999969,63.71008439999969,63.71008439999969,63.71008439999969,63.71008439999969,63.71008439999969,63.71008439999969,63.71008439999969,63.71008439999969,63.71008439999969,,001,P008,2025_Feb_01_1120,ConditionRich,2021.2.3,59.92556046878695,
36.0,36.75,37,0.75,Stimuli/P008/things_praying_mantis_04s.jpg,0,0,0.0,0,65,65,65,,,,,,,,,,,,,36.01391109999895,0.013911099998949794,None,63.96030350000001,63.96030350000001,63.96030350000001,63.96030350000001,63.96030350000001,63.96030350000001,63.96030350000001,63.96030350000001,63.96030350000001,63.96030350000001,,001,P008,2025_Feb_01_1120,ConditionRich,2021.2.3,59.92556046878695,
36.75,37.0,41,0.0,Stimuli/Blank.png,0,0,0.0,0,66,66,66,,,,,,,,,,,,,36.78106669999943,0.031066699999428238,None,64.7109672000006,64.7109672000006,64.7109672000006,64.7109672000006,64.7109672000006,64.7109672000006,64.7109672000006,64.7109672000006,64.7109672000006,64.7109672000006,,001,P008,2025_Feb_01_1120,ConditionRich,2021.2.3,59.92556046878695,
37.0,37.75,37,0.75,Stimuli/P008/things_praying_mantis_04s.jpg,0,0,0.0,0,67,67,67,,,,,,,,,,,,,37.015425399999,0.015425399999003275,None,64.94451920000029,64.94451920000029,64.94451920000029,64.94451920000029,64.94451920000029,64.94451920000029,64.94451920000029,64.94451920000029,64.94451920000029,64.94451920000029,,001,P008,2025_Feb_01_1120,ConditionRich,2021.2.3,59.92556046878695,
37.75,38.0,41,0.0,Stimuli/Blank.png,0,0,0.0,0,68,68,68,,,,,,,,,,,,,37.749930299998596,-6.970000140427146e-05,None,65.67849700000079,65.67849700000079,65.67849700000079,65.67849700000079,65.67849700000079,65.67849700000079,65.67849700000079,65.67849700000079,65.67849700000079,65.67849700000079,,001,P008,2025_Feb_01_1120,ConditionRich,2021.2.3,59.92556046878695,
38.0,38.75,37,0.75,Stimuli/P008/things_praying_mantis_04s.jpg,0,0,0.0,0,69,69,69,,,,,,,,,,,,,37.99912880000011,-0.0008711999998922693,None,65.92884480000066,65.92884480000066,65.92884480000066,65.92884480000066,65.92884480000066,65.92884480000066,65.92884480000066,65.92884480000066,65.92884480000066,65.92884480000066,,001,P008,2025_Feb_01_1120,ConditionRich,2021.2.3,59.92556046878695,
38.75,39.0,41,0.0,Stimuli/Blank.png,0,0,0.0,0,70,70,70,,,,,,,,,,,,,38.750065399999585,6.539999958476983e-05,None,66.67937879999954,66.67937879999954,66.67937879999954,66.67937879999954,66.67937879999954,66.67937879999954,66.67937879999954,66.67937879999954,66.67937879999954,66.67937879999954,,001,P008,2025_Feb_01_1120,ConditionRich,2021.2.3,59.92556046878695,
39.0,39.75,37,0.75,Stimuli/P008/things_praying_mantis_04s.jpg,0,0,0.0,0,71,71,71,,,,,,,,,,,,,39.00027469999986,0.0002746999998635147,None,66.92959280000105,66.92959280000105,66.92959280000105,66.92959280000105,66.92959280000105,66.92959280000105,66.92959280000105,66.92959280000105,66.92959280000105,66.92959280000105,,001,P008,2025_Feb_01_1120,ConditionRich,2021.2.3,59.92556046878695,
39.75,40.0,41,0.0,Stimuli/Blank.png,0,0,0.0,0,72,72,72,,,,,,,,,,,,,39.75057669999842,0.000576699998418917,None,67.68025760000091,67.68025760000091,67.68025760000091,67.68025760000091,67.68025760000091,67.68025760000091,67.68025760000091,67.68025760000091,67.68025760000091,67.68025760000091,,001,P008,2025_Feb_01_1120,ConditionRich,2021.2.3,59.92556046878695,
40.0,40.75,28,0.75,Stimuli/P008/things_girl_04s.jpg,0,0,0.0,0,73,73,73,,,,,,,,,,,,,40.00070239999877,0.0007023999987723073,None,67.93043790000047,67.93043790000047,67.93043790000047,67.93043790000047,67.93043790000047,67.93043790000047,67.93043790000047,67.93043790000047,67.93043790000047,67.93043790000047,,001,P008,2025_Feb_01_1120,ConditionRich,2021.2.3,59.92556046878695,
40.75,41.0,41,0.0,Stimuli/Blank.png,0,0,0.0,0,74,74,74,,,,,,,,,,,,,40.75433489999887,0.004334899998866604,None,68.69784310000068,68.69784310000068,68.69784310000068,68.69784310000068,68.69784310000068,68.69784310000068,68.69784310000068,68.69784310000068,68.69784310000068,68.69784310000068,,001,P008,2025_Feb_01_1120,ConditionRich,2021.2.3,59.92556046878695,
41.0,41.75,28,0.75,Stimuli/P008/things_girl_04s.jpg,0,0,0.0,0,75,75,75,,,,,,,,,,,,,41.01870699999927,0.018706999999267282,None,68.94807960000071,68.94807960000071,68.94807960000071,68.94807960000071,68.94807960000071,68.94807960000071,68.94807960000071,68.94807960000071,68.94807960000071,68.94807960000071,,001,P008,2025_Feb_01_1120,ConditionRich,2021.2.3,59.92556046878695,
41.75,42.0,41,0.0,Stimuli/Blank.png,0,0,0.0,0,76,76,76,,,,,,,,,,,,,41.755115199999636,0.005115199999636388,None,69.69871330000024,69.69871330000024,69.69871330000024,69.69871330000024,69.69871330000024,69.69871330000024,69.69871330000024,69.69871330000024,69.69871330000024,69.69871330000024,,001,P008,2025_Feb_01_1120,ConditionRich,2021.2.3,59.92556046878695,
42.0,42.75,28,0.75,Stimuli/P008/things_girl_04s.jpg,0,0,0.0,0,77,77,77,,,,,,,,,,,,,42.019816699999865,0.019816699999864795,None,69.9489293000006,69.9489293000006,69.9489293000006,69.9489293000006,69.9489293000006,69.9489293000006,69.9489293000006,69.9489293000006,69.9489293000006,69.9489293000006,,001,P008,2025_Feb_01_1120,ConditionRich,2021.2.3,59.92556046878695,
42.75,43.0,41,0.0,Stimuli/Blank.png,0,0,0.0,0,78,78,78,,,,,,,,,,,,,42.75362529999984,0.0036252999998396263,None,70.6829146,70.6829146,70.6829146,70.6829146,70.6829146,70.6829146,70.6829146,70.6829146,70.6829146,70.6829146,,001,P008,2025_Feb_01_1120,ConditionRich,2021.2.3,59.92556046878695,
43.0,43.75,28,0.75,Stimuli/P008/things_girl_04s.jpg,0,0,0.0,0,79,79,79,,,,,,,,,,,,,43.00397419999899,0.0039741999989928445,None,70.93311360000007,70.93311360000007,70.93311360000007,70.93311360000007,70.93311360000007,70.93311360000007,70.93311360000007,70.93311360000007,70.93311360000007,70.93311360000007,,001,P008,2025_Feb_01_1120,ConditionRich,2021.2.3,59.92556046878695,
43.75,44.0,41,0.0,Stimuli/Blank.png,0,0,0.0,0,80,80,80,,,,,,,,,,,,,43.754816599999685,0.0048165999996854225,None,71.68380570000045,71.68380570000045,71.68380570000045,71.68380570000045,71.68380570000045,71.68380570000045,71.68380570000045,71.68380570000045,71.68380570000045,71.68380570000045,,001,P008,2025_Feb_01_1120,ConditionRich,2021.2.3,59.92556046878695,
44.0,44.75,31,0.75,Stimuli/P008/things_jug_04s.jpg,0,0,0.0,0,81,81,81,,,,,,,,,,,,,44.00497659999928,0.004976599999281461,None,71.95069180000064,71.95069180000064,71.95069180000064,71.95069180000064,71.95069180000064,71.95069180000064,71.95069180000064,71.95069180000064,71.95069180000064,71.95069180000064,,001,P008,2025_Feb_01_1120,ConditionRich,2021.2.3,59.92556046878695,
44.75,45.0,41,0.0,Stimuli/Blank.png,0,0,0.0,0,82,82,82,,,,,,,,,,,,,44.774137899999914,0.024137899999914225,None,72.71805680000034,72.71805680000034,72.71805680000034,72.71805680000034,72.71805680000034,72.71805680000034,72.71805680000034,72.71805680000034,72.71805680000034,72.71805680000034,,001,P008,2025_Feb_01_1120,ConditionRich,2021.2.3,59.92556046878695,
45.0,45.75,31,0.75,Stimuli/P008/things_jug_04s.jpg,0,0,0.0,0,83,83,83,,,,,,,,,,,,,45.02396159999989,0.023961599999893224,None,72.96828180000011,72.96828180000011,72.96828180000011,72.96828180000011,72.96828180000011,72.96828180000011,72.96828180000011,72.96828180000011,72.96828180000011,72.96828180000011,,001,P008,2025_Feb_01_1120,ConditionRich,2021.2.3,59.92556046878695,
45.75,46.0,41,0.0,Stimuli/Blank.png,0,0,0.0,0,84,84,84,,,,,,,,,,,,,45.774401699998634,0.024401699998634285,None,73.7189326000007,73.7189326000007,73.7189326000007,73.7189326000007,73.7189326000007,73.7189326000007,73.7189326000007,73.7189326000007,73.7189326000007,73.7189326000007,,001,P008,2025_Feb_01_1120,ConditionRich,2021.2.3,59.92556046878695,
46.0,46.75,31,0.75,Stimuli/P008/things_jug_04s.jpg,0,0,0.0,0,85,85,85,,,,,,,,,,,,,46.02426939999896,0.024269399998956942,None,73.9524865000003,73.9524865000003,73.9524865000003,73.9524865000003,73.9524865000003,73.9524865000003,73.9524865000003,73.9524865000003,73.9524865000003,73.9524865000003,,001,P008,2025_Feb_01_1120,ConditionRich,2021.2.3,59.92556046878695,
46.75,47.0,41,0.0,Stimuli/Blank.png,0,0,0.0,0,86,86,86,,,,,,,,,,,,,46.75925180000013,0.009251800000129151,None,74.70313700000042,74.70313700000042,74.70313700000042,74.70313700000042,74.70313700000042,74.70313700000042,74.70313700000042,74.70313700000042,74.70313700000042,74.70313700000042,,001,P008,2025_Feb_01_1120,ConditionRich,2021.2.3,59.92556046878695,
47.0,47.75,31,0.75,Stimuli/P008/things_jug_04s.jpg,0,0,0.0,0,87,87,87,,,,,,,,,,,,,47.02479519999906,0.02479519999906188,None,74.97003930000028,74.97003930000028,74.97003930000028,74.97003930000028,74.97003930000028,74.97003930000028,74.97003930000028,74.97003930000028,74.97003930000028,74.97003930000028,,001,P008,2025_Feb_01_1120,ConditionRich,2021.2.3,59.92556046878695,
47.75,48.0,41,0.0,Stimuli/Blank.png,0,0,0.0,0,88,88,88,,,,,,,,,,,,,47.77561499999865,0.02561499999865191,None,75.72072479999952,75.72072479999952,75.72072479999952,75.72072479999952,75.72072479999952,75.72072479999952,75.72072479999952,75.72072479999952,75.72072479999952,75.72072479999952,,001,P008,2025_Feb_01_1120,ConditionRich,2021.2.3,59.92556046878695,
48.0,48.75,19,0.75,Stimuli/P008/sun_brpfgrmubnnjvfkw.jpg,0,0,0.0,0,89,89,89,,,,,,,,,,,,,48.024503299999196,0.024503299999196315,None,75.9709358,75.9709358,75.9709358,75.9709358,75.9709358,75.9709358,75.9709358,75.9709358,75.9709358,75.9709358,,001,P008,2025_Feb_01_1120,ConditionRich,2021.2.3,59.92556046878695,
48.75,49.0,41,0.0,Stimuli/Blank.png,0,0,0.0,0,90,90,90,,,,,,,,,,,,,48.77504919999956,0.02504919999955746,None,76.70490539999992,76.70490539999992,76.70490539999992,76.70490539999992,76.70490539999992,76.70490539999992,76.70490539999992,76.70490539999992,76.70490539999992,76.70490539999992,,001,P008,2025_Feb_01_1120,ConditionRich,2021.2.3,59.92556046878695,
49.0,49.75,19,0.75,Stimuli/P008/sun_brpfgrmubnnjvfkw.jpg,0,0,0.0,0,91,91,91,,,,,,,,,,,,,49.00877149999906,0.008771499999056687,None,76.93844089999948,76.93844089999948,76.93844089999948,76.93844089999948,76.93844089999948,76.93844089999948,76.93844089999948,76.93844089999948,76.93844089999948,76.93844089999948,,001,P008,2025_Feb_01_1120,ConditionRich,2021.2.3,59.92556046878695,
49.75,50.0,41,0.0,Stimuli/Blank.png,0,0,0.0,0,92,92,92,,,,,,,,,,,,,49.76001079999878,0.010010799998781295,None,77.68911140000091,77.68911140000091,77.68911140000091,77.68911140000091,77.68911140000091,77.68911140000091,77.68911140000091,77.68911140000091,77.68911140000091,77.68911140000091,,001,P008,2025_Feb_01_1120,ConditionRich,2021.2.3,59.92556046878695,
50.0,50.75,19,0.75,Stimuli/P008/sun_brpfgrmubnnjvfkw.jpg,0,0,0.0,0,93,93,93,,,,,,,,,,,,,50.00980029999846,0.009800299998460105,None,77.93932669999958,77.93932669999958,77.93932669999958,77.93932669999958,77.93932669999958,77.93932669999958,77.93932669999958,77.93932669999958,77.93932669999958,77.93932669999958,,001,P008,2025_Feb_01_1120,ConditionRich,2021.2.3,59.92556046878695,
50.75,51.0,41,0.0,Stimuli/Blank.png,0,0,0.0,0,94,94,94,,,,,,,,,,,,,50.760123099998964,0.01012309999896388,None,78.68998880000072,78.68998880000072,78.68998880000072,78.68998880000072,78.68998880000072,78.68998880000072,78.68998880000072,78.68998880000072,78.68998880000072,78.68998880000072,,001,P008,2025_Feb_01_1120,ConditionRich,2021.2.3,59.92556046878695,
51.0,51.75,19,0.75,Stimuli/P008/sun_brpfgrmubnnjvfkw.jpg,0,0,0.0,0,95,95,95,,,,,,,,,,,,,51.010930699998426,0.010930699998425553,None,78.95690970000032,78.95690970000032,78.95690970000032,78.95690970000032,78.95690970000032,78.95690970000032,78.95690970000032,78.95690970000032,78.95690970000032,78.95690970000032,,001,P008,2025_Feb_01_1120,ConditionRich,2021.2.3,59.92556046878695,
51.75,52.0,41,0.0,Stimuli/Blank.png,0,0,0.0,0,96,96,96,,,,,,,,,,,,,51.778477899999416,0.028477899999415968,None,79.70755910000116,79.70755910000116,79.70755910000116,79.70755910000116,79.70755910000116,79.70755910000116,79.70755910000116,79.70755910000116,79.70755910000116,79.70755910000116,,001,P008,2025_Feb_01_1120,ConditionRich,2021.2.3,59.92556046878695,
52.0,52.75,18,0.75,Stimuli/P008/sun_borgfidyubrwsuuw.jpg,0,0,0.0,0,97,97,97,,,,,,,,,,,,,52.01262659999884,0.012626599998839083,None,79.95780469999954,79.95780469999954,79.95780469999954,79.95780469999954,79.95780469999954,79.95780469999954,79.95780469999954,79.95780469999954,79.95780469999954,79.95780469999954,,001,P008,2025_Feb_01_1120,ConditionRich,2021.2.3,59.92556046878695,
52.75,53.0,41,0.0,Stimuli/Blank.png,0,0,0.0,0,98,98,98,,,,,,,,,,,,,52.7800600999999,0.030060099999900558,None,80.70845530000042,80.70845530000042,80.70845530000042,80.70845530000042,80.70845530000042,80.70845530000042,80.70845530000042,80.70845530000042,80.70845530000042,80.70845530000042,,001,P008,2025_Feb_01_1120,ConditionRich,2021.2.3,59.92556046878695,
53.0,53.75,18,0.75,Stimuli/P008/sun_borgfidyubrwsuuw.jpg,0,0,0.0,0,99,99,99,,,,,,,,,,,,,53.01508619999913,0.015086199999132077,None,80.95868669999982,80.95868669999982,80.95868669999982,80.95868669999982,80.95868669999982,80.95868669999982,80.95868669999982,80.95868669999982,80.95868669999982,80.95868669999982,,001,P008,2025_Feb_01_1120,ConditionRich,2021.2.3,59.92556046878695,
53.75,54.0,41,0.0,Stimuli/Blank.png,0,0,0.0,0,100,100,100,,,,,,,,,,,,,53.76336649999939,0.013366499999392545,None,81.69265489999998,81.69265489999998,81.69265489999998,81.69265489999998,81.69265489999998,81.69265489999998,81.69265489999998,81.69265489999998,81.69265489999998,81.69265489999998,,001,P008,2025_Feb_01_1120,ConditionRich,2021.2.3,59.92556046878695,
54.0,54.75,18,0.75,Stimuli/P008/sun_borgfidyubrwsuuw.jpg,0,0,0.0,0,101,101,101,,,,,,,,,,,,,54.01338169999872,0.013381699998717522,None,81.9428695000006,81.9428695000006,81.9428695000006,81.9428695000006,81.9428695000006,81.9428695000006,81.9428695000006,81.9428695000006,81.9428695000006,81.9428695000006,,001,P008,2025_Feb_01_1120,ConditionRich,2021.2.3,59.92556046878695,
54.75,55.0,41,0.0,Stimuli/Blank.png,0,0,0.0,0,102,102,102,,,,,,,,,,,,,54.76480039999842,0.014800399998421199,None,82.69354980000026,82.69354980000026,82.69354980000026,82.69354980000026,82.69354980000026,82.69354980000026,82.69354980000026,82.69354980000026,82.69354980000026,82.69354980000026,,001,P008,2025_Feb_01_1120,ConditionRich,2021.2.3,59.92556046878695,
55.0,55.75,18,0.75,Stimuli/P008/sun_borgfidyubrwsuuw.jpg,0,0,0.0,0,103,103,103,,,,,,,,,,,,,55.01464510000005,0.01464510000005248,None,82.94375840000066,82.94375840000066,82.94375840000066,82.94375840000066,82.94375840000066,82.94375840000066,82.94375840000066,82.94375840000066,82.94375840000066,82.94375840000066,,001,P008,2025_Feb_01_1120,ConditionRich,2021.2.3,59.92556046878695,
55.75,56.0,41,0.0,Stimuli/Blank.png,0,0,0.0,0,104,104,104,,,,,,,,,,,,,55.765415799998664,0.015415799998663715,None,83.69441350000125,83.69441350000125,83.69441350000125,83.69441350000125,83.69441350000125,83.69441350000125,83.69441350000125,83.69441350000125,83.69441350000125,83.69441350000125,,001,P008,2025_Feb_01_1120,ConditionRich,2021.2.3,59.92556046878695,
56.0,56.75,35,0.75,Stimuli/P008/things_pecan_04s.jpg,0,0,0.0,0,105,105,105,,,,,,,,,,,,,55.99887750000016,-0.0011224999998376006,None,83.96146919999956,83.96146919999956,83.96146919999956,83.96146919999956,83.96146919999956,83.96146919999956,83.96146919999956,83.96146919999956,83.96146919999956,83.96146919999956,,001,P008,2025_Feb_01_1120,ConditionRich,2021.2.3,59.92556046878695,
56.75,57.0,41,0.0,Stimuli/Blank.png,0,0,0.0,0,106,106,106,,,,,,,,,,,,,56.784394399999655,0.034394399999655434,None,84.72868250000101,84.72868250000101,84.72868250000101,84.72868250000101,84.72868250000101,84.72868250000101,84.72868250000101,84.72868250000101,84.72868250000101,84.72868250000101,,001,P008,2025_Feb_01_1120,ConditionRich,2021.2.3,59.92556046878695,
57.0,57.75,35,0.75,Stimuli/P008/things_pecan_04s.jpg,0,0,0.0,0,107,107,107,,,,,,,,,,,,,57.016261899998426,0.016261899998426088,None,84.94553190000079,84.94553190000079,84.94553190000079,84.94553190000079,84.94553190000079,84.94553190000079,84.94553190000079,84.94553190000079,84.94553190000079,84.94553190000079,,001,P008,2025_Feb_01_1120,ConditionRich,2021.2.3,59.92556046878695,
57.75,58.0,41,0.0,Stimuli/Blank.png,0,0,0.0,0,108,108,108,,,,,,,,,,,,,57.75043699999878,0.0004369999987829942,None,85.67951670000002,85.67951670000002,85.67951670000002,85.67951670000002,85.67951670000002,85.67951670000002,85.67951670000002,85.67951670000002,85.67951670000002,85.67951670000002,,001,P008,2025_Feb_01_1120,ConditionRich,2021.2.3,59.92556046878695,
58.0,58.75,35,0.75,Stimuli/P008/things_pecan_04s.jpg,0,0,0.0,0,109,109,109,,,,,,,,,,,,,58.00039800000013,0.000398000000132015,None,85.92973069999971,85.92973069999971,85.92973069999971,85.92973069999971,85.92973069999971,85.92973069999971,85.92973069999971,85.92973069999971,85.92973069999971,85.92973069999971,,001,P008,2025_Feb_01_1120,ConditionRich,2021.2.3,59.92556046878695,
58.75,59.0,41,0.0,Stimuli/Blank.png,0,0,0.0,0,110,110,110,,,,,,,,,,,,,58.750663099999656,0.0006630999996559694,None,86.6803987000003,86.6803987000003,86.6803987000003,86.6803987000003,86.6803987000003,86.6803987000003,86.6803987000003,86.6803987000003,86.6803987000003,86.6803987000003,,001,P008,2025_Feb_01_1120,ConditionRich,2021.2.3,59.92556046878695,
59.0,59.75,35,0.75,Stimuli/P008/things_pecan_04s.jpg,0,0,0.0,0,111,111,111,,,,,,,,,,,,,59.001324299999396,0.0013242999993963167,None,86.94731219999994,86.94731219999994,86.94731219999994,86.94731219999994,86.94731219999994,86.94731219999994,86.94731219999994,86.94731219999994,86.94731219999994,86.94731219999994,,001,P008,2025_Feb_01_1120,ConditionRich,2021.2.3,59.92556046878695,
59.75,60.0,41,0.0,Stimuli/Blank.png,0,0,0.0,0,112,112,112,,,,,,,,,,,,,59.768840900000214,0.018840900000213878,None,87.69797690000087,87.69797690000087,87.69797690000087,87.69797690000087,87.69797690000087,87.69797690000087,87.69797690000087,87.69797690000087,87.69797690000087,87.69797690000087,,001,P008,2025_Feb_01_1120,ConditionRich,2021.2.3,59.92556046878695,
60.0,60.75,14,0.75,Stimuli/P008/sun_bkvjqgmploznrhxt.jpg,0,0,0.0,0,113,113,113,,,,,,,,,,,,,60.00444759999846,0.004447599998457008,None,87.94814450000013,87.94814450000013,87.94814450000013,87.94814450000013,87.94814450000013,87.94814450000013,87.94814450000013,87.94814450000013,87.94814450000013,87.94814450000013,,001,P008,2025_Feb_01_1120,ConditionRich,2021.2.3,59.92556046878695,
60.75,61.0,41,0.0,Stimuli/Blank.png,0,0,0.0,0,114,114,114,,,,,,,,,,,,,60.771242699998766,0.021242699998765602,None,88.7155199000008,88.7155199000008,88.7155199000008,88.7155199000008,88.7155199000008,88.7155199000008,88.7155199000008,88.7155199000008,88.7155199000008,88.7155199000008,,001,P008,2025_Feb_01_1120,ConditionRich,2021.2.3,59.92556046878695,
61.0,61.75,14,0.75,Stimuli/P008/sun_bkvjqgmploznrhxt.jpg,0,0,0.0,0,115,115,115,,,,,,,,,,,,,61.020049599999766,0.020049599999765633,None,88.9490853999996,88.9490853999996,88.9490853999996,88.9490853999996,88.9490853999996,88.9490853999996,88.9490853999996,88.9490853999996,88.9490853999996,88.9490853999996,,001,P008,2025_Feb_01_1120,ConditionRich,2021.2.3,59.92556046878695,
61.75,62.0,41,0.0,Stimuli/Blank.png,0,0,0.0,0,116,116,116,,,,,,,,,,,,,61.75385479999932,0.003854799999317038,None,89.68309360000057,89.68309360000057,89.68309360000057,89.68309360000057,89.68309360000057,89.68309360000057,89.68309360000057,89.68309360000057,89.68309360000057,89.68309360000057,,001,P008,2025_Feb_01_1120,ConditionRich,2021.2.3,59.92556046878695,
62.0,62.75,14,0.75,Stimuli/P008/sun_bkvjqgmploznrhxt.jpg,0,0,0.0,0,117,117,117,,,,,,,,,,,,,62.00416309999855,0.004163099998550024,None,89.93323260000034,89.93323260000034,89.93323260000034,89.93323260000034,89.93323260000034,89.93323260000034,89.93323260000034,89.93323260000034,89.93323260000034,89.93323260000034,,001,P008,2025_Feb_01_1120,ConditionRich,2021.2.3,59.92556046878695,
62.75,63.0,41,0.0,Stimuli/Blank.png,0,0,0.0,0,118,118,118,,,,,,,,,,,,,62.75479399999858,0.004793999998582876,None,90.6839342000003,90.6839342000003,90.6839342000003,90.6839342000003,90.6839342000003,90.6839342000003,90.6839342000003,90.6839342000003,90.6839342000003,90.6839342000003,,001,P008,2025_Feb_01_1120,ConditionRich,2021.2.3,59.92556046878695,
63.0,63.75,14,0.75,Stimuli/P008/sun_bkvjqgmploznrhxt.jpg,1,0,0.75,0,119,119,119,,,,,,,,,,,,,63.004314499999964,0.004314499999964028,2,90.93415260000074,90.93415260000074,90.93415260000074,90.93415260000074,90.93415260000074,90.93415260000074,90.93415260000074,91.66813300000103,90.93415260000074,90.93415260000074,0.4756405000007362,001,P008,2025_Feb_01_1120,ConditionRich,2021.2.3,59.92556046878695,
63.75,64.0,41,0.0,Stimuli/Blank.png,0,0,0.0,0,120,120,120,,,,,,,,,,,,,63.754963999999745,0.004963999999745283,None,91.68479630000002,91.68479630000002,91.68479630000002,91.68479630000002,91.68479630000002,91.68479630000002,91.68479630000002,91.68479630000002,91.68479630000002,91.68479630000002,,001,P008,2025_Feb_01_1120,ConditionRich,2021.2.3,59.92556046878695,
64.0,64.75,27,0.75,Stimuli/P008/things_fur_coat_04s.jpg,0,0,0.0,0,121,121,121,,,,,,,,,,,,,64.00628179999876,0.006281799998760107,None,91.95171500000106,91.95171500000106,91.95171500000106,91.95171500000106,91.95171500000106,91.95171500000106,91.95171500000106,91.95171500000106,91.95171500000106,91.95171500000106,,001,P008,2025_Feb_01_1120,ConditionRich,2021.2.3,59.92556046878695,
64.75,65.0,41,0.0,Stimuli/Blank.png,0,0,0.0,0,122,122,122,,,,,,,,,,,,,64.7746105999995,0.02461059999950521,None,92.71907079999983,92.71907079999983,92.71907079999983,92.71907079999983,92.71907079999983,92.71907079999983,92.71907079999983,92.71907079999983,92.71907079999983,92.71907079999983,,001,P008,2025_Feb_01_1120,ConditionRich,2021.2.3,59.92556046878695,
65.0,65.75,27,0.75,Stimuli/P008/things_fur_coat_04s.jpg,0,0,0.0,0,123,123,123,,,,,,,,,,,,,65.02358399999866,0.023583999998663785,None,92.95261370000117,92.95261370000117,92.95261370000117,92.95261370000117,92.95261370000117,92.95261370000117,92.95261370000117,92.95261370000117,92.95261370000117,92.95261370000117,,001,P008,2025_Feb_01_1120,ConditionRich,2021.2.3,59.92556046878695,
65.75,66.0,41,0.0,Stimuli/Blank.png,0,0,0.0,0,124,124,124,,,,,,,,,,,,,65.75679080000009,0.006790800000089803,None,93.68659909999951,93.68659909999951,93.68659909999951,93.68659909999951,93.68659909999951,93.68659909999951,93.68659909999951,93.68659909999951,93.68659909999951,93.68659909999951,,001,P008,2025_Feb_01_1120,ConditionRich,2021.2.3,59.92556046878695,
66.0,66.75,27,0.75,Stimuli/P008/things_fur_coat_04s.jpg,0,0,0.0,0,125,125,125,,,,,,,,,,,,,66.00984299999982,0.009842999999818858,None,93.95350010000038,93.95350010000038,93.95350010000038,93.95350010000038,93.95350010000038,93.95350010000038,93.95350010000038,93.95350010000038,93.95350010000038,93.95350010000038,,001,P008,2025_Feb_01_1120,ConditionRich,2021.2.3,59.92556046878695,
66.75,67.0,41,0.0,Stimuli/Blank.png,0,0,0.0,0,126,126,126,,,,,,,,,,,,,66.77463849999913,0.024638499999127816,None,94.70415859999957,94.70415859999957,94.70415859999957,94.70415859999957,94.70415859999957,94.70415859999957,94.70415859999957,94.70415859999957,94.70415859999957,94.70415859999957,,001,P008,2025_Feb_01_1120,ConditionRich,2021.2.3,59.92556046878695,
67.0,67.75,27,0.75,Stimuli/P008/things_fur_coat_04s.jpg,0,0,0.0,0,127,127,127,,,,,,,,,,,,,67.00873209999918,0.0087320999991789,None,94.95438420000028,94.95438420000028,94.95438420000028,94.95438420000028,94.95438420000028,94.95438420000028,94.95438420000028,94.95438420000028,94.95438420000028,94.95438420000028,,001,P008,2025_Feb_01_1120,ConditionRich,2021.2.3,59.92556046878695,
67.75,68.0,41,0.0,Stimuli/Blank.png,0,0,0.0,0,128,128,128,,,,,,,,,,,,,67.7753593999987,0.025359399998706067,None,95.70505279999998,95.70505279999998,95.70505279999998,95.70505279999998,95.70505279999998,95.70505279999998,95.70505279999998,95.70505279999998,95.70505279999998,95.70505279999998,,001,P008,2025_Feb_01_1120,ConditionRich,2021.2.3,59.92556046878695,
68.0,68.75,16,0.75,Stimuli/P008/sun_bnpggenxuowzsywq.jpg,1,0,0.75,0,129,129,129,,,,,,,,,,,,,68.00955350000004,0.009553500000038184,2,95.9385956999995,95.9385956999995,95.9385956999995,95.9385956999995,95.9385956999995,95.9385956999995,95.9385956999995,96.67256380000072,95.9385956999995,95.9385956999995,0.3831313000009686,001,P008,2025_Feb_01_1120,ConditionRich,2021.2.3,59.92556046878695,
68.75,69.0,41,0.0,Stimuli/Blank.png,0,0,0.0,0,130,130,130,,,,,,,,,,,,,68.76033019999886,0.010330199998861644,None,96.68924069999957,96.68924069999957,96.68924069999957,96.68924069999957,96.68924069999957,96.68924069999957,96.68924069999957,96.68924069999957,96.68924069999957,96.68924069999957,,001,P008,2025_Feb_01_1120,ConditionRich,2021.2.3,59.92556046878695,
69.0,69.75,16,0.75,Stimuli/P008/sun_bnpggenxuowzsywq.jpg,0,0,0.0,0,131,131,131,,,,,,,,,,,,,69.00979099999859,0.009790999998585903,None,96.93947200000002,96.93947200000002,96.93947200000002,96.93947200000002,96.93947200000002,96.93947200000002,96.93947200000002,96.93947200000002,96.93947200000002,96.93947200000002,,001,P008,2025_Feb_01_1120,ConditionRich,2021.2.3,59.92556046878695,
69.75,70.0,41,0.0,Stimuli/Blank.png,0,0,0.0,0,132,132,132,,,,,,,,,,,,,69.76130369999919,0.01130369999918912,None,97.69013300000006,97.69013300000006,97.69013300000006,97.69013300000006,97.69013300000006,97.69013300000006,97.69013300000006,97.69013300000006,97.69013300000006,97.69013300000006,,001,P008,2025_Feb_01_1120,ConditionRich,2021.2.3,59.92556046878695,
70.0,70.75,16,0.75,Stimuli/P008/sun_bnpggenxuowzsywq.jpg,0,0,0.0,0,133,133,133,,,,,,,,,,,,,70.01159369999914,0.011593699999139062,None,97.94035710000026,97.94035710000026,97.94035710000026,97.94035710000026,97.94035710000026,97.94035710000026,97.94035710000026,97.94035710000026,97.94035710000026,97.94035710000026,,001,P008,2025_Feb_01_1120,ConditionRich,2021.2.3,59.92556046878695,
70.75,71.0,41,0.0,Stimuli/Blank.png,0,0,0.0,0,134,134,134,,,,,,,,,,,,,70.76141879999886,0.011418799998864415,None,98.69101630000114,98.69101630000114,98.69101630000114,98.69101630000114,98.69101630000114,98.69101630000114,98.69101630000114,98.69101630000114,98.69101630000114,98.69101630000114,,001,P008,2025_Feb_01_1120,ConditionRich,2021.2.3,59.92556046878695,
71.0,71.75,16,0.75,Stimuli/P008/sun_bnpggenxuowzsywq.jpg,0,0,0.0,0,135,135,135,,,,,,,,,,,,,71.01138349999928,0.01138349999928323,None,98.94123480000053,98.94123480000053,98.94123480000053,98.94123480000053,98.94123480000053,98.94123480000053,98.94123480000053,98.94123480000053,98.94123480000053,98.94123480000053,,001,P008,2025_Feb_01_1120,ConditionRich,2021.2.3,59.92556046878695,
71.75,72.0,41,0.0,Stimuli/Blank.png,0,0,0.0,0,136,136,136,,,,,,,,,,,,,71.76420599999983,0.014205999999830965,None,99.70859530000052,99.70859530000052,99.70859530000052,99.70859530000052,99.70859530000052,99.70859530000052,99.70859530000052,99.70859530000052,99.70859530000052,99.70859530000052,,001,P008,2025_Feb_01_1120,ConditionRich,2021.2.3,59.92556046878695,
72.0,72.75,26,0.75,Stimuli/P008/things_face_04s.jpg,0,0,0.0,0,137,137,137,,,,,,,,,,,,,72.02897719999964,0.028977199999644654,None,99.99219699999958,99.99219699999958,99.99219699999958,99.99219699999958,99.99219699999958,99.99219699999958,99.99219699999958,99.99219699999958,99.99219699999958,99.99219699999958,,001,P008,2025_Feb_01_1120,ConditionRich,2021.2.3,59.92556046878695,
72.75,73.0,41,0.0,Stimuli/Blank.png,0,0,0.0,0,138,138,138,,,,,,,,,,,,,72.79650729999958,0.04650729999957548,None,100.72615480000059,100.72615480000059,100.72615480000059,100.72615480000059,100.72615480000059,100.72615480000059,100.72615480000059,100.72615480000059,100.72615480000059,100.72615480000059,,001,P008,2025_Feb_01_1120,ConditionRich,2021.2.3,59.92556046878695,
73.0,73.75,26,0.75,Stimuli/P008/things_face_04s.jpg,0,0,0.0,0,139,139,139,,,,,,,,,,,,,73.01373049999893,0.01373049999892828,None,100.94301070000074,100.94301070000074,100.94301070000074,100.94301070000074,100.94301070000074,100.94301070000074,100.94301070000074,100.94301070000074,100.94301070000074,100.94301070000074,,001,P008,2025_Feb_01_1120,ConditionRich,2021.2.3,59.92556046878695,
73.75,74.0,41,0.0,Stimuli/Blank.png,0,0,0.0,0,140,140,140,,,,,,,,,,,,,73.76400599999943,0.014005999999426422,None,101.69367620000048,101.69367620000048,101.69367620000048,101.69367620000048,101.69367620000048,101.69367620000048,101.69367620000048,101.69367620000048,101.69367620000048,101.69367620000048,,001,P008,2025_Feb_01_1120,ConditionRich,2021.2.3,59.92556046878695,
74.0,74.75,26,0.75,Stimuli/P008/things_face_04s.jpg,0,0,0.0,0,141,141,141,,,,,,,,,,,,,74.01521299999877,0.015212999998766463,None,101.94390190000013,101.94390190000013,101.94390190000013,101.94390190000013,101.94390190000013,101.94390190000013,101.94390190000013,101.94390190000013,101.94390190000013,101.94390190000013,,001,P008,2025_Feb_01_1120,ConditionRich,2021.2.3,59.92556046878695,
74.75,75.0,41,0.0,Stimuli/Blank.png,0,0,0.0,0,142,142,142,,,,,,,,,,,,,74.74874869999985,-0.0012513000001490582,None,102.67789210000046,102.67789210000046,102.67789210000046,102.67789210000046,102.67789210000046,102.67789210000046,102.67789210000046,102.67789210000046,102.67789210000046,102.67789210000046,,001,P008,2025_Feb_01_1120,ConditionRich,2021.2.3,59.92556046878695,
75.0,75.75,26,0.75,Stimuli/P008/things_face_04s.jpg,0,0,0.0,0,143,143,143,,,,,,,,,,,,,75.01491639999949,0.014916399999492569,None,102.94478139999956,102.94478139999956,102.94478139999956,102.94478139999956,102.94478139999956,102.94478139999956,102.94478139999956,102.94478139999956,102.94478139999956,102.94478139999956,,001,P008,2025_Feb_01_1120,ConditionRich,2021.2.3,59.92556046878695,
75.75,76.0,41,0.0,Stimuli/Blank.png,0,0,0.0,0,144,144,144,,,,,,,,,,,,,75.7664077999998,0.016407799999797135,None,103.69544990000031,103.69544990000031,103.69544990000031,103.69544990000031,103.69544990000031,103.69544990000031,103.69544990000031,103.69544990000031,103.69544990000031,103.69544990000031,,001,P008,2025_Feb_01_1120,ConditionRich,2021.2.3,59.92556046878695,
76.0,76.75,30,0.75,Stimuli/P008/things_jalapeno_04s.jpg,0,0,0.0,0,145,145,145,,,,,,,,,,,,,76.00108849999924,0.0010884999992413213,None,103.96231220000118,103.96231220000118,103.96231220000118,103.96231220000118,103.96231220000118,103.96231220000118,103.96231220000118,103.96231220000118,103.96231220000118,103.96231220000118,,001,P008,2025_Feb_01_1120,ConditionRich,2021.2.3,59.92556046878695,
76.75,77.0,41,0.0,Stimuli/Blank.png,0,0,0.0,0,146,146,146,,,,,,,,,,,,,76.7839512999999,0.033951299999898765,None,104.7130132000002,104.7130132000002,104.7130132000002,104.7130132000002,104.7130132000002,104.7130132000002,104.7130132000002,104.7130132000002,104.7130132000002,104.7130132000002,,001,P008,2025_Feb_01_1120,ConditionRich,2021.2.3,59.92556046878695,
77.0,77.75,30,0.75,Stimuli/P008/things_jalapeno_04s.jpg,0,0,0.0,0,147,147,147,,,,,,,,,,,,,77.00085209999997,0.0008520999999745982,None,104.92987119999998,104.92987119999998,104.92987119999998,104.92987119999998,104.92987119999998,104.92987119999998,104.92987119999998,104.92987119999998,104.92987119999998,104.92987119999998,,001,P008,2025_Feb_01_1120,ConditionRich,2021.2.3,59.92556046878695,
77.75,78.0,41,0.0,Stimuli/Blank.png,0,0,0.0,0,148,148,148,,,,,,,,,,,,,77.75107399999979,0.001073999999789521,None,105.68050620000031,105.68050620000031,105.68050620000031,105.68050620000031,105.68050620000031,105.68050620000031,105.68050620000031,105.68050620000031,105.68050620000031,105.68050620000031,,001,P008,2025_Feb_01_1120,ConditionRich,2021.2.3,59.92556046878695,
78.0,78.75,30,0.75,Stimuli/P008/things_jalapeno_04s.jpg,0,0,0.0,0,149,149,149,,,,,,,,,,,,,78.00109299999895,0.0010929999989457428,None,105.93072670000038,105.93072670000038,105.93072670000038,105.93072670000038,105.93072670000038,105.93072670000038,105.93072670000038,105.93072670000038,105.93072670000038,105.93072670000038,,001,P008,2025_Feb_01_1120,ConditionRich,2021.2.3,59.92556046878695,
78.75,79.0,41,0.0,Stimuli/Blank.png,0,0,0.0,0,150,150,150,,,,,,,,,,,,,78.75163040000007,0.0016304000000673113,None,106.68141470000046,106.68141470000046,106.68141470000046,106.68141470000046,106.68141470000046,106.68141470000046,106.68141470000046,106.68141470000046,106.68141470000046,106.68141470000046,,001,P008,2025_Feb_01_1120,ConditionRich,2021.2.3,59.92556046878695,
79.0,79.75,30,0.75,Stimuli/P008/things_jalapeno_04s.jpg,0,0,0.0,0,151,151,151,,,,,,,,,,,,,79.00396399999954,0.0039639999995415565,None,106.94832140000108,106.94832140000108,106.94832140000108,106.94832140000108,106.94832140000108,106.94832140000108,106.94832140000108,106.94832140000108,106.94832140000108,106.94832140000108,,001,P008,2025_Feb_01_1120,ConditionRich,2021.2.3,59.92556046878695,
79.75,80.0,41,0.0,Stimuli/Blank.png,0,0,0.0,0,152,152,152,,,,,,,,,,,,,79.76989379999941,0.019893799999408657,None,107.69898970000031,107.69898970000031,107.69898970000031,107.69898970000031,107.69898970000031,107.69898970000031,107.69898970000031,107.69898970000031,107.69898970000031,107.69898970000031,,001,P008,2025_Feb_01_1120,ConditionRich,2021.2.3,59.92556046878695,
80.0,80.75,11,0.75,Stimuli/P008/sun_bdsriuscubkvzrmt.jpg,0,0,0.0,0,153,153,153,,,,,,,,,,,,,80.00344069999846,0.0034406999984639697,None,107.96585950000008,107.96585950000008,107.96585950000008,107.96585950000008,107.96585950000008,107.96585950000008,107.96585950000008,107.96585950000008,107.96585950000008,107.96585950000008,,001,P008,2025_Feb_01_1120,ConditionRich,2021.2.3,59.92556046878695,
80.75,81.0,41,0.0,Stimuli/Blank.png,0,0,0.0,0,154,154,154,,,,,,,,,,,,,80.78913199999988,0.03913199999988137,None,108.73323979999986,108.73323979999986,108.73323979999986,108.73323979999986,108.73323979999986,108.73323979999986,108.73323979999986,108.73323979999986,108.73323979999986,108.73323979999986,,001,P008,2025_Feb_01_1120,ConditionRich,2021.2.3,59.92556046878695,
81.0,81.75,11,0.75,Stimuli/P008/sun_bdsriuscubkvzrmt.jpg,0,0,0.0,0,155,155,155,,,,,,,,,,,,,81.02101719999882,0.021017199998823344,None,108.95009100000061,108.95009100000061,108.95009100000061,108.95009100000061,108.95009100000061,108.95009100000061,108.95009100000061,108.95009100000061,108.95009100000061,108.95009100000061,,001,P008,2025_Feb_01_1120,ConditionRich,2021.2.3,59.92556046878695,
81.75,82.0,41,0.0,Stimuli/Blank.png,0,0,0.0,0,156,156,156,,,,,,,,,,,,,81.75490759999957,0.0049075999995693564,None,109.68407330000082,109.68407330000082,109.68407330000082,109.68407330000082,109.68407330000082,109.68407330000082,109.68407330000082,109.68407330000082,109.68407330000082,109.68407330000082,,001,P008,2025_Feb_01_1120,ConditionRich,2021.2.3,59.92556046878695,
82.0,82.75,11,0.75,Stimuli/P008/sun_bdsriuscubkvzrmt.jpg,0,0,0.0,0,157,157,157,,,,,,,,,,,,,82.0052457999991,0.005245799999102019,None,109.9342914000008,109.9342914000008,109.9342914000008,109.9342914000008,109.9342914000008,109.9342914000008,109.9342914000008,109.9342914000008,109.9342914000008,109.9342914000008,,001,P008,2025_Feb_01_1120,ConditionRich,2021.2.3,59.92556046878695,
82.75,83.0,41,0.0,Stimuli/Blank.png,0,0,0.0,0,158,158,158,,,,,,,,,,,,,82.7558173999987,0.005817399998704786,None,110.68495540000004,110.68495540000004,110.68495540000004,110.68495540000004,110.68495540000004,110.68495540000004,110.68495540000004,110.68495540000004,110.68495540000004,110.68495540000004,,001,P008,2025_Feb_01_1120,ConditionRich,2021.2.3,59.92556046878695,
83.0,83.75,11,0.75,Stimuli/P008/sun_bdsriuscubkvzrmt.jpg,0,0,0.0,0,159,159,159,,,,,,,,,,,,,83.00578510000014,0.0057851000001392094,None,110.93518790000053,110.93518790000053,110.93518790000053,110.93518790000053,110.93518790000053,110.93518790000053,110.93518790000053,110.93518790000053,110.93518790000053,110.93518790000053,,001,P008,2025_Feb_01_1120,ConditionRich,2021.2.3,59.92556046878695,
83.75,84.0,41,0.0,Stimuli/Blank.png,0,0,0.0,0,160,160,160,,,,,,,,,,,,,83.75715870000022,0.007158700000218232,None,111.6858626000012,111.6858626000012,111.6858626000012,111.6858626000012,111.6858626000012,111.6858626000012,111.6858626000012,111.6858626000012,111.6858626000012,111.6858626000012,,001,P008,2025_Feb_01_1120,ConditionRich,2021.2.3,59.92556046878695,
84.0,100.0,0,0.0,Stimuli/Blank.png,1,9,9.75,0,161,161,161,,,,,,,,,,,,,84.00899429999845,0.008994299998448696,2,111.95280830000047,111.95280830000047,111.95280830000047,111.95280830000047,111.95280830000047,111.95280830000047,120.9273462000001,121.67800830000124,111.95280830000047,111.95280830000047,9.502162400000088,001,P008,2025_Feb_01_1120,ConditionRich,2021.2.3,59.92556046878695,
100.0,100.75,29,0.75,Stimuli/P008/things_hawk_04s.jpg,0,0,0.0,0,162,162,162,,,,,,,,,,,,,100.02066439999908,0.020664399999077432,None,127.96692450000046,127.96692450000046,127.96692450000046,127.96692450000046,127.96692450000046,127.96692450000046,127.96692450000046,127.96692450000046,127.96692450000046,127.96692450000046,,001,P008,2025_Feb_01_1120,ConditionRich,2021.2.3,59.92556046878695,
100.75,101.0,41,0.0,Stimuli/Blank.png,0,0,0.0,0,163,163,163,,,,,,,,,,,,,100.77160360000016,0.02160360000016226,None,128.70088810000016,128.70088810000016,128.70088810000016,128.70088810000016,128.70088810000016,128.70088810000016,128.70088810000016,128.70088810000016,128.70088810000016,128.70088810000016,,001,P008,2025_Feb_01_1120,ConditionRich,2021.2.3,59.92556046878695,
101.0,101.75,29,0.75,Stimuli/P008/things_hawk_04s.jpg,0,0,0.0,0,164,164,164,,,,,,,,,,,,,101.00579829999879,0.005798299998787115,None,128.95113200000014,128.95113200000014,128.95113200000014,128.95113200000014,128.95113200000014,128.95113200000014,128.95113200000014,128.95113200000014,128.95113200000014,128.95113200000014,,001,P008,2025_Feb_01_1120,ConditionRich,2021.2.3,59.92556046878695,
101.75,102.0,41,0.0,Stimuli/Blank.png,0,0,0.0,0,165,165,165,,,,,,,,,,,,,101.77351649999946,0.023516499999459484,None,129.7017818000004,129.7017818000004,129.7017818000004,129.7017818000004,129.7017818000004,129.7017818000004,129.7017818000004,129.7017818000004,129.7017818000004,129.7017818000004,,001,P008,2025_Feb_01_1120,ConditionRich,2021.2.3,59.92556046878695,
102.0,102.75,29,0.75,Stimuli/P008/things_hawk_04s.jpg,0,0,0.0,0,166,166,166,,,,,,,,,,,,,102.00548919999892,0.005489199998919503,None,129.9353205999996,129.9353205999996,129.9353205999996,129.9353205999996,129.9353205999996,129.9353205999996,129.9353205999996,129.9353205999996,129.9353205999996,129.9353205999996,,001,P008,2025_Feb_01_1120,ConditionRich,2021.2.3,59.92556046878695,
102.75,103.0,41,0.0,Stimuli/Blank.png,0,0,0.0,0,167,167,167,,,,,,,,,,,,,102.75612889999866,0.006128899998657289,None,130.68598620000012,130.68598620000012,130.68598620000012,130.68598620000012,130.68598620000012,130.68598620000012,130.68598620000012,130.68598620000012,130.68598620000012,130.68598620000012,,001,P008,2025_Feb_01_1120,ConditionRich,2021.2.3,59.92556046878695,
103.0,103.75,29,0.75,Stimuli/P008/things_hawk_04s.jpg,1,0,0.75,0,168,168,168,,,,,,,,,,,,,103.0098700999988,0.009870099998806836,2,130.95288960000107,130.95288960000107,130.95288960000107,130.95288960000107,130.95288960000107,130.95288960000107,130.95288960000107,131.68686669999988,130.95288960000107,130.95288960000107,0.38586580000082904,001,P008,2025_Feb_01_1120,ConditionRich,2021.2.3,59.92556046878695,
103.75,104.0,41,0.0,Stimuli/Blank.png,0,0,0.0,0,169,169,169,,,,,,,,,,,,,103.77383909999844,0.02383909999844036,None,131.70353930000056,131.70353930000056,131.70353930000056,131.70353930000056,131.70353930000056,131.70353930000056,131.70353930000056,131.70353930000056,131.70353930000056,131.70353930000056,,001,P008,2025_Feb_01_1120,ConditionRich,2021.2.3,59.92556046878695,
104.0,104.75,5,0.75,Stimuli/P008/sun_ayzkwnqsoiycbncn.jpg,0,0,0.0,0,170,170,170,,,,,,,,,,,,,104.00871449999977,0.008714499999769032,None,131.95376990000113,131.95376990000113,131.95376990000113,131.95376990000113,131.95376990000113,131.95376990000113,131.95376990000113,131.95376990000113,131.95376990000113,131.95376990000113,,001,P008,2025_Feb_01_1120,ConditionRich,2021.2.3,59.92556046878695,
104.75,105.0,41,0.0,Stimuli/Blank.png,0,0,0.0,0,171,171,171,,,,,,,,,,,,,104.77457519999916,0.024575199999162578,None,132.70442720000028,132.70442720000028,132.70442720000028,132.70442720000028,132.70442720000028,132.70442720000028,132.70442720000028,132.70442720000028,132.70442720000028,132.70442720000028,,001,P008,2025_Feb_01_1120,ConditionRich,2021.2.3,59.92556046878695,
105.0,105.75,5,0.75,Stimuli/P008/sun_ayzkwnqsoiycbncn.jpg,0,0,0.0,0,172,172,172,,,,,,,,,,,,,105.00888049999958,0.008880499999577296,None,132.93797500000073,132.93797500000073,132.93797500000073,132.93797500000073,132.93797500000073,132.93797500000073,132.93797500000073,132.93797500000073,132.93797500000073,132.93797500000073,,001,P008,2025_Feb_01_1120,ConditionRich,2021.2.3,59.92556046878695,
105.75,106.0,41,0.0,Stimuli/Blank.png,0,0,0.0,0,173,173,173,,,,,,,,,,,,,105.7598741999991,0.009874199999103439,None,133.68863989999954,133.68863989999954,133.68863989999954,133.68863989999954,133.68863989999954,133.68863989999954,133.68863989999954,133.68863989999954,133.68863989999954,133.68863989999954,,001,P008,2025_Feb_01_1120,ConditionRich,2021.2.3,59.92556046878695,
106.0,106.75,5,0.75,Stimuli/P008/sun_ayzkwnqsoiycbncn.jpg,0,0,0.0,0,174,174,174,,,,,,,,,,,,,106.00985049999872,0.009850499998719897,None,133.93885620000037,133.93885620000037,133.93885620000037,133.93885620000037,133.93885620000037,133.93885620000037,133.93885620000037,133.93885620000037,133.93885620000037,133.93885620000037,,001,P008,2025_Feb_01_1120,ConditionRich,2021.2.3,59.92556046878695,
106.75,107.0,41,0.0,Stimuli/Blank.png,0,0,0.0,0,175,175,175,,,,,,,,,,,,,106.75991339999928,0.009913399999277317,None,134.68952460000037,134.68952460000037,134.68952460000037,134.68952460000037,134.68952460000037,134.68952460000037,134.68952460000037,134.68952460000037,134.68952460000037,134.68952460000037,,001,P008,2025_Feb_01_1120,ConditionRich,2021.2.3,59.92556046878695,
107.0,107.75,5,0.75,Stimuli/P008/sun_ayzkwnqsoiycbncn.jpg,1,0,0.75,0,176,176,176,,,,,,,,,,,,,107.01017649999994,0.01017649999994319,2,134.93975330000103,134.93975330000103,134.93975330000103,134.93975330000103,134.93975330000103,134.93975330000103,134.93975330000103,135.6737267999997,134.93975330000103,134.93975330000103,0.3894662000002427,001,P008,2025_Feb_01_1120,ConditionRich,2021.2.3,59.92556046878695,
107.75,108.0,41,0.0,Stimuli/Blank.png,0,0,0.0,0,177,177,177,,,,,,,,,,,,,107.76079329999993,0.01079329999993206,None,135.6904099000003,135.6904099000003,135.6904099000003,135.6904099000003,135.6904099000003,135.6904099000003,135.6904099000003,135.6904099000003,135.6904099000003,135.6904099000003,,001,P008,2025_Feb_01_1120,ConditionRich,2021.2.3,59.92556046878695,
108.0,108.75,8,0.75,Stimuli/P008/sun_bbnepvzvycqjjczs.jpg,0,0,0.0,0,178,178,178,,,,,,,,,,,,,108.01134719999936,0.011347199999363511,None,135.9741541000003,135.9741541000003,135.9741541000003,135.9741541000003,135.9741541000003,135.9741541000003,135.9741541000003,135.9741541000003,135.9741541000003,135.9741541000003,,001,P008,2025_Feb_01_1120,ConditionRich,2021.2.3,59.92556046878695,
108.75,109.0,41,0.0,Stimuli/Blank.png,0,0,0.0,0,179,179,179,,,,,,,,,,,,,108.79541979999885,0.045419799998853705,None,136.7246511000012,136.7246511000012,136.7246511000012,136.7246511000012,136.7246511000012,136.7246511000012,136.7246511000012,136.7246511000012,136.7246511000012,136.7246511000012,,001,P008,2025_Feb_01_1120,ConditionRich,2021.2.3,59.92556046878695,
109.0,109.75,8,0.75,Stimuli/P008/sun_bbnepvzvycqjjczs.jpg,0,0,0.0,0,180,180,180,,,,,,,,,,,,,109.01443159999872,0.014431599998715683,None,136.95819830000073,136.95819830000073,136.95819830000073,136.95819830000073,136.95819830000073,136.95819830000073,136.95819830000073,136.95819830000073,136.95819830000073,136.95819830000073,,001,P008,2025_Feb_01_1120,ConditionRich,2021.2.3,59.92556046878695,
109.75,110.0,41,0.0,Stimuli/Blank.png,0,0,0.0,0,181,181,181,,,,,,,,,,,,,109.78005349999876,0.030053499998757616,None,137.7255855000003,137.7255855000003,137.7255855000003,137.7255855000003,137.7255855000003,137.7255855000003,137.7255855000003,137.7255855000003,137.7255855000003,137.7255855000003,,001,P008,2025_Feb_01_1120,ConditionRich,2021.2.3,59.92556046878695,
110.0,110.75,8,0.75,Stimuli/P008/sun_bbnepvzvycqjjczs.jpg,0,0,0.0,0,182,182,182,,,,,,,,,,,,,110.02925189999951,0.02925189999950817,None,137.95909010000105,137.95909010000105,137.95909010000105,137.95909010000105,137.95909010000105,137.95909010000105,137.95909010000105,137.95909010000105,137.95909010000105,137.95909010000105,,001,P008,2025_Feb_01_1120,ConditionRich,2021.2.3,59.92556046878695,
110.75,111.0,41,0.0,Stimuli/Blank.png,0,0,0.0,0,183,183,183,,,,,,,,,,,,,110.7639012999989,0.013901299998906325,None,138.69309890000113,138.69309890000113,138.69309890000113,138.69309890000113,138.69309890000113,138.69309890000113,138.69309890000113,138.69309890000113,138.69309890000113,138.69309890000113,,001,P008,2025_Feb_01_1120,ConditionRich,2021.2.3,59.92556046878695,
111.0,111.75,8,0.75,Stimuli/P008/sun_bbnepvzvycqjjczs.jpg,0,0,0.0,0,184,184,184,,,,,,,,,,,,,111.01492719999987,0.014927199999874574,None,138.95996750000086,138.95996750000086,138.95996750000086,138.95996750000086,138.95996750000086,138.95996750000086,138.95996750000086,138.95996750000086,138.95996750000086,138.95996750000086,,001,P008,2025_Feb_01_1120,ConditionRich,2021.2.3,59.92556046878695,
111.75,112.0,41,0.0,Stimuli/Blank.png,0,0,0.0,0,185,185,185,,,,,,,,,,,,,111.78154739999991,0.03154739999990852,None,139.71062689999962,139.71062689999962,139.71062689999962,139.71062689999962,139.71062689999962,139.71062689999962,139.71062689999962,139.71062689999962,139.71062689999962,139.71062689999962,,001,P008,2025_Feb_01_1120,ConditionRich,2021.2.3,59.92556046878695,
112.0,112.75,39,0.75,Stimuli/P008/things_showerhead_04s.jpg,0,0,0.0,0,186,186,186,,,,,,,,,,,,,112.01437389999955,0.014373899999554851,None,139.96087980000084,139.96087980000084,139.96087980000084,139.96087980000084,139.96087980000084,139.96087980000084,139.96087980000084,139.96087980000084,139.96087980000084,139.96087980000084,,001,P008,2025_Feb_01_1120,ConditionRich,2021.2.3,59.92556046878695,
112.75,113.0,41,0.0,Stimuli/Blank.png,0,0,0.0,0,187,187,187,,,,,,,,,,,,,112.78237719999925,0.03237719999924593,None,140.71151950000058,140.71151950000058,140.71151950000058,140.71151950000058,140.71151950000058,140.71151950000058,140.71151950000058,140.71151950000058,140.71151950000058,140.71151950000058,,001,P008,2025_Feb_01_1120,ConditionRich,2021.2.3,59.92556046878695,
113.0,113.75,39,0.75,Stimuli/P008/things_showerhead_04s.jpg,0,0,0.0,0,188,188,188,,,,,,,,,,,,,112.9998758999991,-0.00012410000090312678,None,140.9450740000011,140.9450740000011,140.9450740000011,140.9450740000011,140.9450740000011,140.9450740000011,140.9450740000011,140.9450740000011,140.9450740000011,140.9450740000011,,001,P008,2025_Feb_01_1120,ConditionRich,2021.2.3,59.92556046878695,
113.75,114.0,41,0.0,Stimuli/Blank.png,0,0,0.0,0,189,189,189,,,,,,,,,,,,,113.7675763999996,0.017576399999597925,None,141.6957325000003,141.6957325000003,141.6957325000003,141.6957325000003,141.6957325000003,141.6957325000003,141.6957325000003,141.6957325000003,141.6957325000003,141.6957325000003,,001,P008,2025_Feb_01_1120,ConditionRich,2021.2.3,59.92556046878695,
114.0,114.75,39,0.75,Stimuli/P008/things_showerhead_04s.jpg,0,0,0.0,0,190,190,190,,,,,,,,,,,,,114.00034069999856,0.0003406999985600123,None,141.92925710000054,141.92925710000054,141.92925710000054,141.92925710000054,141.92925710000054,141.92925710000054,141.92925710000054,141.92925710000054,141.92925710000054,141.92925710000054,,001,P008,2025_Feb_01_1120,ConditionRich,2021.2.3,59.92556046878695,
114.75,115.0,41,0.0,Stimuli/Blank.png,0,0,0.0,0,191,191,191,,,,,,,,,,,,,114.75049930000023,0.0004993000002286863,None,142.6799361000012,142.6799361000012,142.6799361000012,142.6799361000012,142.6799361000012,142.6799361000012,142.6799361000012,142.6799361000012,142.6799361000012,142.6799361000012,,001,P008,2025_Feb_01_1120,ConditionRich,2021.2.3,59.92556046878695,
115.0,115.75,39,0.75,Stimuli/P008/things_showerhead_04s.jpg,0,0,0.0,0,192,192,192,,,,,,,,,,,,,115.00129799999922,0.0012979999992239755,None,142.93014609999955,142.93014609999955,142.93014609999955,142.93014609999955,142.93014609999955,142.93014609999955,142.93014609999955,142.93014609999955,142.93014609999955,142.93014609999955,,001,P008,2025_Feb_01_1120,ConditionRich,2021.2.3,59.92556046878695,
115.75,116.0,41,0.0,Stimuli/Blank.png,0,0,0.0,0,193,193,193,,,,,,,,,,,,,115.75171489999957,0.0017148999995697523,None,143.68080379999992,143.68080379999992,143.68080379999992,143.68080379999992,143.68080379999992,143.68080379999992,143.68080379999992,143.68080379999992,143.68080379999992,143.68080379999992,,001,P008,2025_Feb_01_1120,ConditionRich,2021.2.3,59.92556046878695,
116.0,116.75,3,0.75,Stimuli/P008/sun_aueftjhdwnvkbzlt.jpg,0,0,0.0,0,194,194,194,,,,,,,,,,,,,116.00201559999914,0.0020155999991402496,None,143.93099190000066,143.93099190000066,143.93099190000066,143.93099190000066,143.93099190000066,143.93099190000066,143.93099190000066,143.93099190000066,143.93099190000066,143.93099190000066,,001,P008,2025_Feb_01_1120,ConditionRich,2021.2.3,59.92556046878695,
116.75,117.0,41,0.0,Stimuli/Blank.png,0,0,0.0,0,195,195,195,,,,,,,,,,,,,116.75398630000018,0.003986300000178744,None,144.69842000000062,144.69842000000062,144.69842000000062,144.69842000000062,144.69842000000062,144.69842000000062,144.69842000000062,144.69842000000062,144.69842000000062,144.69842000000062,,001,P008,2025_Feb_01_1120,ConditionRich,2021.2.3,59.92556046878695,
117.0,117.75,3,0.75,Stimuli/P008/sun_aueftjhdwnvkbzlt.jpg,0,0,0.0,0,196,196,196,,,,,,,,,,,,,117.01880979999987,0.018809799999871757,None,144.94860210000115,144.94860210000115,144.94860210000115,144.94860210000115,144.94860210000115,144.94860210000115,144.94860210000115,144.94860210000115,144.94860210000115,144.94860210000115,,001,P008,2025_Feb_01_1120,ConditionRich,2021.2.3,59.92556046878695,
117.75,118.0,41,0.0,Stimuli/Blank.png,0,0,0.0,0,197,197,197,,,,,,,,,,,,,117.75287740000022,0.0028774000002158573,None,145.68257810000068,145.68257810000068,145.68257810000068,145.68257810000068,145.68257810000068,145.68257810000068,145.68257810000068,145.68257810000068,145.68257810000068,145.68257810000068,,001,P008,2025_Feb_01_1120,ConditionRich,2021.2.3,59.92556046878695,
118.0,118.75,3,0.75,Stimuli/P008/sun_aueftjhdwnvkbzlt.jpg,0,0,0.0,0,198,198,198,,,,,,,,,,,,,118.00366789999862,0.0036678999986179406,None,145.93280740000046,145.93280740000046,145.93280740000046,145.93280740000046,145.93280740000046,145.93280740000046,145.93280740000046,145.93280740000046,145.93280740000046,145.93280740000046,,001,P008,2025_Feb_01_1120,ConditionRich,2021.2.3,59.92556046878695,
118.75,119.0,41,0.0,Stimuli/Blank.png,0,0,0.0,0,199,199,199,,,,,,,,,,,,,118.75559449999855,0.005594499998551328,None,146.68349080000007,146.68349080000007,146.68349080000007,146.68349080000007,146.68349080000007,146.68349080000007,146.68349080000007,146.68349080000007,146.68349080000007,146.68349080000007,,001,P008,2025_Feb_01_1120,ConditionRich,2021.2.3,59.92556046878695,
119.0,119.75,3,0.75,Stimuli/P008/sun_aueftjhdwnvkbzlt.jpg,0,0,0.0,0,200,200,200,,,,,,,,,,,,,119.00527340000008,0.005273400000078254,None,146.93368800000098,146.93368800000098,146.93368800000098,146.93368800000098,146.93368800000098,146.93368800000098,146.93368800000098,146.93368800000098,146.93368800000098,146.93368800000098,,001,P008,2025_Feb_01_1120,ConditionRich,2021.2.3,59.92556046878695,
119.75,120.0,41,0.0,Stimuli/Blank.png,0,0,0.0,0,201,201,201,,,,,,,,,,,,,119.75511659999938,0.005116599999382743,None,147.6843495000012,147.6843495000012,147.6843495000012,147.6843495000012,147.6843495000012,147.6843495000012,147.6843495000012,147.6843495000012,147.6843495000012,147.6843495000012,,001,P008,2025_Feb_01_1120,ConditionRich,2021.2.3,59.92556046878695,
120.0,120.75,20,0.75,Stimuli/P008/sun_btrxtfbwtggtrpfv.jpg,0,0,0.0,0,202,202,202,,,,,,,,,,,,,120.00475679999909,0.00475679999908607,None,147.9512646000003,147.9512646000003,147.9512646000003,147.9512646000003,147.9512646000003,147.9512646000003,147.9512646000003,147.9512646000003,147.9512646000003,147.9512646000003,,001,P008,2025_Feb_01_1120,ConditionRich,2021.2.3,59.92556046878695,
120.75,121.0,41,0.0,Stimuli/Blank.png,0,0,0.0,0,203,203,203,,,,,,,,,,,,,120.77434179999909,0.024341799999092473,None,148.71861619999981,148.71861619999981,148.71861619999981,148.71861619999981,148.71861619999981,148.71861619999981,148.71861619999981,148.71861619999981,148.71861619999981,148.71861619999981,,001,P008,2025_Feb_01_1120,ConditionRich,2021.2.3,59.92556046878695,
121.0,121.75,20,0.75,Stimuli/P008/sun_btrxtfbwtggtrpfv.jpg,0,0,0.0,0,204,204,204,,,,,,,,,,,,,121.02511259999847,0.025112599998465157,None,148.96882910000022,148.96882910000022,148.96882910000022,148.96882910000022,148.96882910000022,148.96882910000022,148.96882910000022,148.96882910000022,148.96882910000022,148.96882910000022,,001,P008,2025_Feb_01_1120,ConditionRich,2021.2.3,59.92556046878695,
121.75,122.0,41,0.0,Stimuli/Blank.png,0,0,0.0,0,205,205,205,,,,,,,,,,,,,121.77392549999968,0.023925499999677413,None,149.70280810000077,149.70280810000077,149.70280810000077,149.70280810000077,149.70280810000077,149.70280810000077,149.70280810000077,149.70280810000077,149.70280810000077,149.70280810000077,,001,P008,2025_Feb_01_1120,ConditionRich,2021.2.3,59.92556046878695,
122.0,122.75,20,0.75,Stimuli/P008/sun_btrxtfbwtggtrpfv.jpg,0,0,0.0,0,206,206,206,,,,,,,,,,,,,122.00673029999962,0.006730299999617273,None,149.93634670000029,149.93634670000029,149.93634670000029,149.93634670000029,149.93634670000029,149.93634670000029,149.93634670000029,149.93634670000029,149.93634670000029,149.93634670000029,,001,P008,2025_Feb_01_1120,ConditionRich,2021.2.3,59.92556046878695,
122.75,123.0,41,0.0,Stimuli/Blank.png,0,0,0.0,0,207,207,207,,,,,,,,,,,,,122.75943860000007,0.009438600000066799,None,150.70369240000036,150.70369240000036,150.70369240000036,150.70369240000036,150.70369240000036,150.70369240000036,150.70369240000036,150.70369240000036,150.70369240000036,150.70369240000036,,001,P008,2025_Feb_01_1120,ConditionRich,2021.2.3,59.92556046878695,
123.0,123.75,20,0.75,Stimuli/P008/sun_btrxtfbwtggtrpfv.jpg,0,0,0.0,0,208,208,208,,,,,,,,,,,,,123.02478609999889,0.024786099998891586,None,150.95394119999946,150.95394119999946,150.95394119999946,150.95394119999946,150.95394119999946,150.95394119999946,150.95394119999946,150.95394119999946,150.95394119999946,150.95394119999946,,001,P008,2025_Feb_01_1120,ConditionRich,2021.2.3,59.92556046878695,
123.75,124.0,41,0.0,Stimuli/Blank.png,0,0,0.0,0,209,209,209,,,,,,,,,,,,,123.75868549999905,0.008685499999046442,None,151.6878944,151.6878944,151.6878944,151.6878944,151.6878944,151.6878944,151.6878944,151.6878944,151.6878944,151.6878944,,001,P008,2025_Feb_01_1120,ConditionRich,2021.2.3,59.92556046878695,
124.0,124.75,7,0.75,Stimuli/P008/sun_babhwrqvnhanonuy.jpg,0,0,0.0,0,210,210,210,,,,,,,,,,,,,124.00895349999882,0.008953499998824554,None,151.971486800001,151.971486800001,151.971486800001,151.971486800001,151.971486800001,151.971486800001,151.971486800001,151.971486800001,151.971486800001,151.971486800001,,001,P008,2025_Feb_01_1120,ConditionRich,2021.2.3,59.92556046878695,
124.75,125.0,41,0.0,Stimuli/Blank.png,0,0,0.0,0,211,211,211,,,,,,,,,,,,,124.79444340000009,0.04444340000009106,None,152.7388203999999,152.7388203999999,152.7388203999999,152.7388203999999,152.7388203999999,152.7388203999999,152.7388203999999,152.7388203999999,152.7388203999999,152.7388203999999,,001,P008,2025_Feb_01_1120,ConditionRich,2021.2.3,59.92556046878695,
125.0,125.75,7,0.75,Stimuli/P008/sun_babhwrqvnhanonuy.jpg,0,0,0.0,0,212,212,212,,,,,,,,,,,,,125.02663190000021,0.026631900000211317,None,152.97236189999967,152.97236189999967,152.97236189999967,152.97236189999967,152.97236189999967,152.97236189999967,152.97236189999967,152.97236189999967,152.97236189999967,152.97236189999967,,001,P008,2025_Feb_01_1120,ConditionRich,2021.2.3,59.92556046878695,
125.75,126.0,41,0.0,Stimuli/Blank.png,0,0,0.0,0,213,213,213,,,,,,,,,,,,,125.77655819999927,0.026558199999271892,None,153.7063419999995,153.7063419999995,153.7063419999995,153.7063419999995,153.7063419999995,153.7063419999995,153.7063419999995,153.7063419999995,153.7063419999995,153.7063419999995,,001,P008,2025_Feb_01_1120,ConditionRich,2021.2.3,59.92556046878695,
126.0,126.75,7,0.75,Stimuli/P008/sun_babhwrqvnhanonuy.jpg,0,0,0.0,0,214,214,214,,,,,,,,,,,,,126.01078289999896,0.010782899998957873,None,153.93988089999948,153.93988089999948,153.93988089999948,153.93988089999948,153.93988089999948,153.93988089999948,153.93988089999948,153.93988089999948,153.93988089999948,153.93988089999948,,001,P008,2025_Feb_01_1120,ConditionRich,2021.2.3,59.92556046878695,
126.75,127.0,41,0.0,Stimuli/Blank.png,0,0,0.0,0,215,215,215,,,,,,,,,,,,,126.7613569999994,0.01135699999940698,None,154.6905611000002,154.6905611000002,154.6905611000002,154.6905611000002,154.6905611000002,154.6905611000002,154.6905611000002,154.6905611000002,154.6905611000002,154.6905611000002,,001,P008,2025_Feb_01_1120,ConditionRich,2021.2.3,59.92556046878695,
127.0,127.75,7,0.75,Stimuli/P008/sun_babhwrqvnhanonuy.jpg,0,0,0.0,0,216,216,216,,,,,,,,,,,,,127.0117739999987,0.011773999998695217,None,154.94077149999976,154.94077149999976,154.94077149999976,154.94077149999976,154.94077149999976,154.94077149999976,154.94077149999976,154.94077149999976,154.94077149999976,154.94077149999976,,001,P008,2025_Feb_01_1120,ConditionRich,2021.2.3,59.92556046878695,
127.75,128.0,41,0.0,Stimuli/Blank.png,0,0,0.0,0,217,217,217,,,,,,,,,,,,,127.7623894999997,0.012389499999699183,None,155.6914687999997,155.6914687999997,155.6914687999997,155.6914687999997,155.6914687999997,155.6914687999997,155.6914687999997,155.6914687999997,155.6914687999997,155.6914687999997,,001,P008,2025_Feb_01_1120,ConditionRich,2021.2.3,59.92556046878695,
128.0,128.75,24,0.75,Stimuli/P008/things_collar_04s.jpg,0,0,0.0,0,218,218,218,,,,,,,,,,,,,128.0127481999989,0.01274819999889587,None,155.97502870000062,155.97502870000062,155.97502870000062,155.97502870000062,155.97502870000062,155.97502870000062,155.97502870000062,155.97502870000062,155.97502870000062,155.97502870000062,,001,P008,2025_Feb_01_1120,ConditionRich,2021.2.3,59.92556046878695,
128.75,129.0,41,0.0,Stimuli/Blank.png,0,0,0.0,0,219,219,219,,,,,,,,,,,,,128.7961596999994,0.04615969999940717,None,156.72579100000075,156.72579100000075,156.72579100000075,156.72579100000075,156.72579100000075,156.72579100000075,156.72579100000075,156.72579100000075,156.72579100000075,156.72579100000075,,001,P008,2025_Feb_01_1120,ConditionRich,2021.2.3,59.92556046878695,
129.0,129.75,24,0.75,Stimuli/P008/things_collar_04s.jpg,0,0,0.0,0,220,220,220,,,,,,,,,,,,,129.01401009999972,0.014010099999723025,None,156.9425508000004,156.9425508000004,156.9425508000004,156.9425508000004,156.9425508000004,156.9425508000004,156.9425508000004,156.9425508000004,156.9425508000004,156.9425508000004,,001,P008,2025_Feb_01_1120,ConditionRich,2021.2.3,59.92556046878695,
129.75,130.0,41,0.0,Stimuli/Blank.png,0,0,0.0,0,221,221,221,,,,,,,,,,,,,129.76348289999987,0.013482899999871734,None,157.6932068999995,157.6932068999995,157.6932068999995,157.6932068999995,157.6932068999995,157.6932068999995,157.6932068999995,157.6932068999995,157.6932068999995,157.6932068999995,,001,P008,2025_Feb_01_1120,ConditionRich,2021.2.3,59.92556046878695,
130.0,130.75,24,0.75,Stimuli/P008/things_collar_04s.jpg,0,0,0.0,0,222,222,222,,,,,,,,,,,,,130.01405039999918,0.014050399999177898,None,157.94342300000062,157.94342300000062,157.94342300000062,157.94342300000062,157.94342300000062,157.94342300000062,157.94342300000062,157.94342300000062,157.94342300000062,157.94342300000062,,001,P008,2025_Feb_01_1120,ConditionRich,2021.2.3,59.92556046878695,
130.75,131.0,41,0.0,Stimuli/Blank.png,0,0,0.0,0,223,223,223,,,,,,,,,,,,,130.76583629999914,0.015836299999136827,None,158.71078699999998,158.71078699999998,158.71078699999998,158.71078699999998,158.71078699999998,158.71078699999998,158.71078699999998,158.71078699999998,158.71078699999998,158.71078699999998,,001,P008,2025_Feb_01_1120,ConditionRich,2021.2.3,59.92556046878695,
131.0,131.75,24,0.75,Stimuli/P008/things_collar_04s.jpg,0,0,0.0,0,224,224,224,,,,,,,,,,,,,131.01543219999985,0.015432199999850127,None,158.94430860000102,158.94430860000102,158.94430860000102,158.94430860000102,158.94430860000102,158.94430860000102,158.94430860000102,158.94430860000102,158.94430860000102,158.94430860000102,,001,P008,2025_Feb_01_1120,ConditionRich,2021.2.3,59.92556046878695,
131.75,132.0,41,0.0,Stimuli/Blank.png,0,0,0.0,0,225,225,225,,,,,,,,,,,,,131.74868029999925,-0.0013197000007494353,None,159.67829270000038,159.67829270000038,159.67829270000038,159.67829270000038,159.67829270000038,159.67829270000038,159.67829270000038,159.67829270000038,159.67829270000038,159.67829270000038,,001,P008,2025_Feb_01_1120,ConditionRich,2021.2.3,59.92556046878695,
132.0,132.75,4,0.75,Stimuli/P008/sun_awqukazlzsxaokai.jpg,0,0,0.0,0,226,226,226,,,,,,,,,,,,,132.01539330000014,0.015393300000141608,None,159.96189400000003,159.96189400000003,159.96189400000003,159.96189400000003,159.96189400000003,159.96189400000003,159.96189400000003,159.96189400000003,159.96189400000003,159.96189400000003,,001,P008,2025_Feb_01_1120,ConditionRich,2021.2.3,59.92556046878695,
132.75,133.0,41,0.0,Stimuli/Blank.png,0,0,0.0,0,227,227,227,,,,,,,,,,,,,132.7661412999987,0.016141299998707836,None,160.69586890000028,160.69586890000028,160.69586890000028,160.69586890000028,160.69586890000028,160.69586890000028,160.69586890000028,160.69586890000028,160.69586890000028,160.69586890000028,,001,P008,2025_Feb_01_1120,ConditionRich,2021.2.3,59.92556046878695,
133.0,133.75,4,0.75,Stimuli/P008/sun_awqukazlzsxaokai.jpg,0,0,0.0,0,228,228,228,,,,,,,,,,,,,133.0002788999991,0.00027889999910257757,None,160.9294000000009,160.9294000000009,160.9294000000009,160.9294000000009,160.9294000000009,160.9294000000009,160.9294000000009,160.9294000000009,160.9294000000009,160.9294000000009,,001,P008,2025_Feb_01_1120,ConditionRich,2021.2.3,59.92556046878695,
133.75,134.0,41,0.0,Stimuli/Blank.png,0,0,0.0,0,229,229,229,,,,,,,,,,,,,133.75080989999879,0.000809899998785113,None,161.6800991,161.6800991,161.6800991,161.6800991,161.6800991,161.6800991,161.6800991,161.6800991,161.6800991,161.6800991,,001,P008,2025_Feb_01_1120,ConditionRich,2021.2.3,59.92556046878695,
134.0,134.75,4,0.75,Stimuli/P008/sun_awqukazlzsxaokai.jpg,0,0,0.0,0,230,230,230,,,,,,,,,,,,,134.00099880000016,0.0009988000001612818,None,161.93024490000062,161.93024490000062,161.93024490000062,161.93024490000062,161.93024490000062,161.93024490000062,161.93024490000062,161.93024490000062,161.93024490000062,161.93024490000062,,001,P008,2025_Feb_01_1120,ConditionRich,2021.2.3,59.92556046878695,
134.75,135.0,41,0.0,Stimuli/Blank.png,0,0,0.0,0,231,231,231,,,,,,,,,,,,,134.75410899999952,0.004108999999516527,None,162.6976426000001,162.6976426000001,162.6976426000001,162.6976426000001,162.6976426000001,162.6976426000001,162.6976426000001,162.6976426000001,162.6976426000001,162.6976426000001,,001,P008,2025_Feb_01_1120,ConditionRich,2021.2.3,59.92556046878695,
135.0,135.75,4,0.75,Stimuli/P008/sun_awqukazlzsxaokai.jpg,0,0,0.0,0,232,232,232,,,,,,,,,,,,,135.0187950999989,0.018795099998897058,None,162.94785279999996,162.94785279999996,162.94785279999996,162.94785279999996,162.94785279999996,162.94785279999996,162.94785279999996,162.94785279999996,162.94785279999996,162.94785279999996,,001,P008,2025_Feb_01_1120,ConditionRich,2021.2.3,59.92556046878695,
135.75,136.0,41,0.0,Stimuli/Blank.png,0,0,0.0,0,233,233,233,,,,,,,,,,,,,135.75416629999927,0.00416629999926954,None,163.69852100000026,163.69852100000026,163.69852100000026,163.69852100000026,163.69852100000026,163.69852100000026,163.69852100000026,163.69852100000026,163.69852100000026,163.69852100000026,,001,P008,2025_Feb_01_1120,ConditionRich,2021.2.3,59.92556046878695,
136.0,136.75,34,0.75,Stimuli/P008/things_moose_04s.jpg,0,0,0.0,0,234,234,234,,,,,,,,,,,,,136.01948769999944,0.019487699999444885,None,163.96546760000092,163.96546760000092,163.96546760000092,163.96546760000092,163.96546760000092,163.96546760000092,163.96546760000092,163.96546760000092,163.96546760000092,163.96546760000092,,001,P008,2025_Feb_01_1120,ConditionRich,2021.2.3,59.92556046878695,
136.75,137.0,41,0.0,Stimuli/Blank.png,0,0,0.0,0,235,235,235,,,,,,,,,,,,,136.77041259999896,0.020412599998962833,None,164.6994035000007,164.6994035000007,164.6994035000007,164.6994035000007,164.6994035000007,164.6994035000007,164.6994035000007,164.6994035000007,164.6994035000007,164.6994035000007,,001,P008,2025_Feb_01_1120,ConditionRich,2021.2.3,59.92556046878695,
137.0,137.75,34,0.75,Stimuli/P008/things_moose_04s.jpg,0,0,0.0,0,236,236,236,,,,,,,,,,,,,137.00430009999945,0.004300099999454687,None,164.94963910000115,164.94963910000115,164.94963910000115,164.94963910000115,164.94963910000115,164.94963910000115,164.94963910000115,164.94963910000115,164.94963910000115,164.94963910000115,,001,P008,2025_Feb_01_1120,ConditionRich,2021.2.3,59.92556046878695,
137.75,138.0,41,0.0,Stimuli/Blank.png,0,0,0.0,0,237,237,237,,,,,,,,,,,,,137.77056509999966,0.020565099999657832,None,165.7002895000005,165.7002895000005,165.7002895000005,165.7002895000005,165.7002895000005,165.7002895000005,165.7002895000005,165.7002895000005,165.7002895000005,165.7002895000005,,001,P008,2025_Feb_01_1120,ConditionRich,2021.2.3,59.92556046878695,
138.0,138.75,34,0.75,Stimuli/P008/things_moose_04s.jpg,0,0,0.0,0,238,238,238,,,,,,,,,,,,,138.00406499999917,0.004064999999172869,None,165.93382320000092,165.93382320000092,165.93382320000092,165.93382320000092,165.93382320000092,165.93382320000092,165.93382320000092,165.93382320000092,165.93382320000092,165.93382320000092,,001,P008,2025_Feb_01_1120,ConditionRich,2021.2.3,59.92556046878695,
138.75,139.0,41,0.0,Stimuli/Blank.png,0,0,0.0,0,239,239,239,,,,,,,,,,,,,138.75548589999926,0.005485899999257526,None,166.68449069999951,166.68449069999951,166.68449069999951,166.68449069999951,166.68449069999951,166.68449069999951,166.68449069999951,166.68449069999951,166.68449069999951,166.68449069999951,,001,P008,2025_Feb_01_1120,ConditionRich,2021.2.3,59.92556046878695,
139.0,139.75,34,0.75,Stimuli/P008/things_moose_04s.jpg,0,0,0.0,0,240,240,240,,,,,,,,,,,,,139.0057782999993,0.005778299999292358,None,166.93471880000106,166.93471880000106,166.93471880000106,166.93471880000106,166.93471880000106,166.93471880000106,166.93471880000106,166.93471880000106,166.93471880000106,166.93471880000106,,001,P008,2025_Feb_01_1120,ConditionRich,2021.2.3,59.92556046878695,
139.75,140.0,41,0.0,Stimuli/Blank.png,0,0,0.0,0,241,241,241,,,,,,,,,,,,,139.75561299999936,0.005612999999357271,None,167.68538500000068,167.68538500000068,167.68538500000068,167.68538500000068,167.68538500000068,167.68538500000068,167.68538500000068,167.68538500000068,167.68538500000068,167.68538500000068,,001,P008,2025_Feb_01_1120,ConditionRich,2021.2.3,59.92556046878695,
140.0,140.75,36,0.75,Stimuli/P008/things_platypus_04s.jpg,0,0,0.0,0,242,242,242,,,,,,,,,,,,,140.005769899999,0.005769899998995243,None,167.95227429999977,167.95227429999977,167.95227429999977,167.95227429999977,167.95227429999977,167.95227429999977,167.95227429999977,167.95227429999977,167.95227429999977,167.95227429999977,,001,P008,2025_Feb_01_1120,ConditionRich,2021.2.3,59.92556046878695,
140.75,141.0,41,0.0,Stimuli/Blank.png,0,0,0.0,0,243,243,243,,,,,,,,,,,,,140.77386469999874,0.023864699998739525,None,168.70294860000104,168.70294860000104,168.70294860000104,168.70294860000104,168.70294860000104,168.70294860000104,168.70294860000104,168.70294860000104,168.70294860000104,168.70294860000104,,001,P008,2025_Feb_01_1120,ConditionRich,2021.2.3,59.92556046878695,
141.0,141.75,36,0.75,Stimuli/P008/things_platypus_04s.jpg,0,0,0.0,0,244,244,244,,,,,,,,,,,,,141.00735910000003,0.007359100000030594,None,168.95315690000098,168.95315690000098,168.95315690000098,168.95315690000098,168.95315690000098,168.95315690000098,168.95315690000098,168.95315690000098,168.95315690000098,168.95315690000098,,001,P008,2025_Feb_01_1120,ConditionRich,2021.2.3,59.92556046878695,
141.75,142.0,41,0.0,Stimuli/Blank.png,0,0,0.0,0,245,245,245,,,,,,,,,,,,,141.7747443999997,0.02474439999969036,None,169.7038346999998,169.7038346999998,169.7038346999998,169.7038346999998,169.7038346999998,169.7038346999998,169.7038346999998,169.7038346999998,169.7038346999998,169.7038346999998,,001,P008,2025_Feb_01_1120,ConditionRich,2021.2.3,59.92556046878695,
142.0,142.75,36,0.75,Stimuli/P008/things_platypus_04s.jpg,0,0,0.0,0,246,246,246,,,,,,,,,,,,,142.0079842999985,0.00798429999849759,None,169.9373730999996,169.9373730999996,169.9373730999996,169.9373730999996,169.9373730999996,169.9373730999996,169.9373730999996,169.9373730999996,169.9373730999996,169.9373730999996,,001,P008,2025_Feb_01_1120,ConditionRich,2021.2.3,59.92556046878695,
142.75,143.0,41,0.0,Stimuli/Blank.png,0,0,0.0,0,247,247,247,,,,,,,,,,,,,142.75834309999846,0.008343099998455727,None,170.68803280000066,170.68803280000066,170.68803280000066,170.68803280000066,170.68803280000066,170.68803280000066,170.68803280000066,170.68803280000066,170.68803280000066,170.68803280000066,,001,P008,2025_Feb_01_1120,ConditionRich,2021.2.3,59.92556046878695,
143.0,143.75,36,0.75,Stimuli/P008/things_platypus_04s.jpg,0,0,0.0,0,248,248,248,,,,,,,,,,,,,143.00987919999898,0.009879199998977128,None,170.93826190000073,170.93826190000073,170.93826190000073,170.93826190000073,170.93826190000073,170.93826190000073,170.93826190000073,170.93826190000073,170.93826190000073,170.93826190000073,,001,P008,2025_Feb_01_1120,ConditionRich,2021.2.3,59.92556046878695,
143.75,144.0,41,0.0,Stimuli/Blank.png,0,0,0.0,0,249,249,249,,,,,,,,,,,,,143.7601115999987,0.010111599998708698,None,171.70561590000034,171.70561590000034,171.70561590000034,171.70561590000034,171.70561590000034,171.70561590000034,171.70561590000034,171.70561590000034,171.70561590000034,171.70561590000034,,001,P008,2025_Feb_01_1120,ConditionRich,2021.2.3,59.92556046878695,
144.0,144.75,17,0.75,Stimuli/P008/sun_bnsxdhbsafbdyncy.jpg,0,0,0.0,0,250,250,250,,,,,,,,,,,,,144.02755590000015,0.027555900000152178,None,171.9725042000009,171.9725042000009,171.9725042000009,171.9725042000009,171.9725042000009,171.9725042000009,171.9725042000009,171.9725042000009,171.9725042000009,171.9725042000009,,001,P008,2025_Feb_01_1120,ConditionRich,2021.2.3,59.92556046878695,
144.75,145.0,41,0.0,Stimuli/Blank.png,0,0,0.0,0,251,251,251,,,,,,,,,,,,,144.77661420000004,0.02661420000004,None,172.706547400001,172.706547400001,172.706547400001,172.706547400001,172.706547400001,172.706547400001,172.706547400001,172.706547400001,172.706547400001,172.706547400001,,001,P008,2025_Feb_01_1120,ConditionRich,2021.2.3,59.92556046878695,
145.0,145.75,17,0.75,Stimuli/P008/sun_bnsxdhbsafbdyncy.jpg,0,0,0.0,0,252,252,252,,,,,,,,,,,,,145.01016459999846,0.010164599998461199,None,172.94002589999945,172.94002589999945,172.94002589999945,172.94002589999945,172.94002589999945,172.94002589999945,172.94002589999945,172.94002589999945,172.94002589999945,172.94002589999945,,001,P008,2025_Feb_01_1120,ConditionRich,2021.2.3,59.92556046878695,
145.75,146.0,41,0.0,Stimuli/Blank.png,0,0,0.0,0,253,253,253,,,,,,,,,,,,,145.76084009999977,0.010840099999768427,None,173.69068900000093,173.69068900000093,173.69068900000093,173.69068900000093,173.69068900000093,173.69068900000093,173.69068900000093,173.69068900000093,173.69068900000093,173.69068900000093,,001,P008,2025_Feb_01_1120,ConditionRich,2021.2.3,59.92556046878695,
146.0,146.75,17,0.75,Stimuli/P008/sun_bnsxdhbsafbdyncy.jpg,0,0,0.0,0,254,254,254,,,,,,,,,,,,,146.01171889999932,0.011718899999323185,None,173.95761350000066,173.95761350000066,173.95761350000066,173.95761350000066,173.95761350000066,173.95761350000066,173.95761350000066,173.95761350000066,173.95761350000066,173.95761350000066,,001,P008,2025_Feb_01_1120,ConditionRich,2021.2.3,59.92556046878695,
146.75,147.0,41,0.0,Stimuli/Blank.png,0,0,0.0,0,255,255,255,,,,,,,,,,,,,146.7790272000002,0.029027200000200537,None,174.70875180000075,174.70875180000075,174.70875180000075,174.70875180000075,174.70875180000075,174.70875180000075,174.70875180000075,174.70875180000075,174.70875180000075,174.70875180000075,,001,P008,2025_Feb_01_1120,ConditionRich,2021.2.3,59.92556046878695,
147.0,147.75,17,0.75,Stimuli/P008/sun_bnsxdhbsafbdyncy.jpg,0,0,0.0,0,256,256,256,,,,,,,,,,,,,147.01351539999996,0.01351539999996021,None,174.95849500000077,174.95849500000077,174.95849500000077,174.95849500000077,174.95849500000077,174.95849500000077,174.95849500000077,174.95849500000077,174.95849500000077,174.95849500000077,,001,P008,2025_Feb_01_1120,ConditionRich,2021.2.3,59.92556046878695,
147.75,148.0,41,0.0,Stimuli/Blank.png,0,0,0.0,0,257,257,257,,,,,,,,,,,,,147.7801144999994,0.030114499999399413,None,175.70914070000072,175.70914070000072,175.70914070000072,175.70914070000072,175.70914070000072,175.70914070000072,175.70914070000072,175.70914070000072,175.70914070000072,175.70914070000072,,001,P008,2025_Feb_01_1120,ConditionRich,2021.2.3,59.92556046878695,
148.0,148.75,13,0.75,Stimuli/P008/sun_bkhuvtsqontzwtbo.jpg,0,0,0.0,0,258,258,258,,,,,,,,,,,,,148.01364349999858,0.0136434999985795,None,175.95937249999952,175.95937249999952,175.95937249999952,175.95937249999952,175.95937249999952,175.95937249999952,175.95937249999952,175.95937249999952,175.95937249999952,175.95937249999952,,001,P008,2025_Feb_01_1120,ConditionRich,2021.2.3,59.92556046878695,
148.75,149.0,41,0.0,Stimuli/Blank.png,0,0,0.0,0,259,259,259,,,,,,,,,,,,,148.7807660999988,0.0307660999988002,None,176.71001930000057,176.71001930000057,176.71001930000057,176.71001930000057,176.71001930000057,176.71001930000057,176.71001930000057,176.71001930000057,176.71001930000057,176.71001930000057,,001,P008,2025_Feb_01_1120,ConditionRich,2021.2.3,59.92556046878695,
149.0,149.75,13,0.75,Stimuli/P008/sun_bkhuvtsqontzwtbo.jpg,1,0,0.75,0,260,260,260,,,,,,,,,,,,,149.01441819999854,0.014418199998544878,2,176.94356510000034,176.94356510000034,176.94356510000034,176.94356510000034,176.94356510000034,176.94356510000034,176.94356510000034,177.67763130000094,176.94356510000034,176.94356510000034,0.5774336000013136,001,P008,2025_Feb_01_1120,ConditionRich,2021.2.3,59.92556046878695,
149.75,150.0,41,0.0,Stimuli/Blank.png,0,0,0.0,0,261,261,261,,,,,,,,,,,,,149.7666234999997,0.016623499999695923,None,177.71090800000093,177.71090800000093,177.71090800000093,177.71090800000093,177.71090800000093,177.71090800000093,177.71090800000093,177.71090800000093,177.71090800000093,177.71090800000093,,001,P008,2025_Feb_01_1120,ConditionRich,2021.2.3,59.92556046878695,
150.0,150.75,13,0.75,Stimuli/P008/sun_bkhuvtsqontzwtbo.jpg,0,0,0.0,0,262,262,262,,,,,,,,,,,,,150.01505889999862,0.0150588999986212,None,177.9444454000004,177.9444454000004,177.9444454000004,177.9444454000004,177.9444454000004,177.9444454000004,177.9444454000004,177.9444454000004,177.9444454000004,177.9444454000004,,001,P008,2025_Feb_01_1120,ConditionRich,2021.2.3,59.92556046878695,
