eventStartTime,eventEndTime,eventCond,imSize,imFile,responseEvent,fixRespStart,fixRespEnd,Events.thisRepN,Events.thisTrialN,Events.thisN,Events.thisIndex,Instructions.started,Instructions.stopped,participantReadyResponse.keys,participantReadyResponse.rt,participantReadyResponse.started,participantReadyResponse.stopped,startWaitforTrigger,triggerResponse.keys,triggerResponse.rt,triggerResponse.started,triggerResponse.stopped,globalTimer,actualStartTime,startTimingDiff,participantResponse.keys,participantResponse.started,participantResponse.stopped,image.started,image.stopped,fixationOutside.started,fixationOutside.stopped,fixationResponse.started,fixationResponse.stopped,fixationInside.started,fixationInside.stopped,participantResponse.rt,session,participant,date,expName,psychopyVersion,frameRate,
,,,,,,,,,,,,11.86251699999957,None,2,14.954384599999685,11.86251699999957,None,,,,,,,,,,,,,,,,,,,,,004,P008,2025_Feb_01_1147,ConditionRich,2021.2.3,59.932204689692014,
,,,,,,,,,,,,,,,,,,26.826566099998672,5,13.82667390000097,26.83911629999966,None,,,,,,,,,,,,,,,,004,P008,2025_Feb_01_1147,ConditionRich,2021.2.3,59.932204689692014,
0.0,4.0,0,0.0,Stimuli/Blank.png,0,0,0.0,0,0,0,0,,,,,,,,,,,,40.67165860000023,0.04875259999971604,0.04875259999971604,None,40.73468630000025,None,40.73468630000025,None,40.73468630000025,None,40.73468630000025,40.73468630000025,40.73468630000025,None,,004,P008,2025_Feb_01_1147,ConditionRich,2021.2.3,59.932204689692014,
4.0,4.75,27,0.75,Stimuli/P008/things_fur_coat_04s.jpg,0,0,0.0,0,1,1,1,,,,,,,,,,,,,4.004151700000875,0.00415170000087528,None,44.688485099999525,44.688485099999525,44.688485099999525,44.688485099999525,44.688485099999525,44.688485099999525,44.688485099999525,44.688485099999525,44.688485099999525,44.688485099999525,,004,P008,2025_Feb_01_1147,ConditionRich,2021.2.3,59.932204689692014,
4.75,5.0,41,0.0,Stimuli/Blank.png,0,0,0.0,0,2,2,2,,,,,,,,,,,,,4.753797800000029,0.0037978000000293832,None,45.43916849999914,45.43916849999914,45.43916849999914,45.43916849999914,45.43916849999914,45.43916849999914,45.43916849999914,45.43916849999914,45.43916849999914,45.43916849999914,,004,P008,2025_Feb_01_1147,ConditionRich,2021.2.3,59.932204689692014,
5.0,5.75,27,0.75,Stimuli/P008/things_fur_coat_04s.jpg,0,0,0.0,0,3,3,3,,,,,,,,,,,,,5.003532800001267,0.003532800001266878,None,45.68908849999934,45.68908849999934,45.68908849999934,45.68908849999934,45.68908849999934,45.68908849999934,45.68908849999934,45.68908849999934,45.68908849999934,45.68908849999934,,004,P008,2025_Feb_01_1147,ConditionRich,2021.2.3,59.932204689692014,
5.75,6.0,41,0.0,Stimuli/Blank.png,0,0,0.0,0,4,4,4,,,,,,,,,,,,,5.755433500000436,0.0054335000004357425,None,46.45642819999921,46.45642819999921,46.45642819999921,46.45642819999921,46.45642819999921,46.45642819999921,46.45642819999921,46.45642819999921,46.45642819999921,46.45642819999921,,004,P008,2025_Feb_01_1147,ConditionRich,2021.2.3,59.932204689692014,
6.0,6.75,27,0.75,Stimuli/P008/things_fur_coat_04s.jpg,0,0,0.0,0,5,5,5,,,,,,,,,,,,,6.020665400001235,0.020665400001234957,None,46.70684280000023,46.70684280000023,46.70684280000023,46.70684280000023,46.70684280000023,46.70684280000023,46.70684280000023,46.70684280000023,46.70684280000023,46.70684280000023,,004,P008,2025_Feb_01_1147,ConditionRich,2021.2.3,59.932204689692014,
6.75,7.0,41,0.0,Stimuli/Blank.png,0,0,0.0,0,6,6,6,,,,,,,,,,,,,6.754956500000844,0.004956500000844244,None,47.44063409999944,47.44063409999944,47.44063409999944,47.44063409999944,47.44063409999944,47.44063409999944,47.44063409999944,47.44063409999944,47.44063409999944,47.44063409999944,,004,P008,2025_Feb_01_1147,ConditionRich,2021.2.3,59.932204689692014,
7.0,7.75,27,0.75,Stimuli/P008/things_fur_coat_04s.jpg,0,0,0.0,0,7,7,7,,,,,,,,,,,,,7.005060700001195,0.005060700001195073,None,47.69084639999892,47.69084639999892,47.69084639999892,47.69084639999892,47.69084639999892,47.69084639999892,47.69084639999892,47.69084639999892,47.69084639999892,47.69084639999892,,004,P008,2025_Feb_01_1147,ConditionRich,2021.2.3,59.932204689692014,
7.75,8.0,41,0.0,Stimuli/Blank.png,0,0,0.0,0,8,8,8,,,,,,,,,,,,,7.756353200000376,0.006353200000376091,None,48.44151099999908,48.44151099999908,48.44151099999908,48.44151099999908,48.44151099999908,48.44151099999908,48.44151099999908,48.44151099999908,48.44151099999908,48.44151099999908,,004,P008,2025_Feb_01_1147,ConditionRich,2021.2.3,59.932204689692014,
8.0,8.75,30,0.75,Stimuli/P008/things_jalapeno_04s.jpg,0,0,0.0,0,9,9,9,,,,,,,,,,,,,8.006002899999658,0.006002899999657529,None,48.691734899999574,48.691734899999574,48.691734899999574,48.691734899999574,48.691734899999574,48.691734899999574,48.691734899999574,48.691734899999574,48.691734899999574,48.691734899999574,,004,P008,2025_Feb_01_1147,ConditionRich,2021.2.3,59.932204689692014,
8.75,9.0,41,0.0,Stimuli/Blank.png,0,0,0.0,0,10,10,10,,,,,,,,,,,,,8.756770800000595,0.006770800000595045,None,49.442395599999145,49.442395599999145,49.442395599999145,49.442395599999145,49.442395599999145,49.442395599999145,49.442395599999145,49.442395599999145,49.442395599999145,49.442395599999145,,004,P008,2025_Feb_01_1147,ConditionRich,2021.2.3,59.932204689692014,
9.0,9.75,30,0.75,Stimuli/P008/things_jalapeno_04s.jpg,0,0,0.0,0,11,11,11,,,,,,,,,,,,,9.00659850000011,0.006598500000109198,None,49.692610799998874,49.692610799998874,49.692610799998874,49.692610799998874,49.692610799998874,49.692610799998874,49.692610799998874,49.692610799998874,49.692610799998874,49.692610799998874,,004,P008,2025_Feb_01_1147,ConditionRich,2021.2.3,59.932204689692014,
9.75,10.0,41,0.0,Stimuli/Blank.png,0,0,0.0,0,12,12,12,,,,,,,,,,,,,9.757625700000062,0.007625700000062352,None,50.443363399999726,50.443363399999726,50.443363399999726,50.443363399999726,50.443363399999726,50.443363399999726,50.443363399999726,50.443363399999726,50.443363399999726,50.443363399999726,,004,P008,2025_Feb_01_1147,ConditionRich,2021.2.3,59.932204689692014,
10.0,10.75,30,0.75,Stimuli/P008/things_jalapeno_04s.jpg,0,0,0.0,0,13,13,13,,,,,,,,,,,,,10.007430200001181,0.00743020000118122,None,50.71017269999902,50.71017269999902,50.71017269999902,50.71017269999902,50.71017269999902,50.71017269999902,50.71017269999902,50.71017269999902,50.71017269999902,50.71017269999902,,004,P008,2025_Feb_01_1147,ConditionRich,2021.2.3,59.932204689692014,
10.75,11.0,41,0.0,Stimuli/Blank.png,0,0,0.0,0,14,14,14,,,,,,,,,,,,,10.77528170000005,0.025281700000050478,None,51.4608475999994,51.4608475999994,51.4608475999994,51.4608475999994,51.4608475999994,51.4608475999994,51.4608475999994,51.4608475999994,51.4608475999994,51.4608475999994,,004,P008,2025_Feb_01_1147,ConditionRich,2021.2.3,59.932204689692014,
11.0,11.75,30,0.75,Stimuli/P008/things_jalapeno_04s.jpg,0,0,0.0,0,15,15,15,,,,,,,,,,,,,11.00809130000016,0.008091300000160118,None,51.71108549999917,51.71108549999917,51.71108549999917,51.71108549999917,51.71108549999917,51.71108549999917,51.71108549999917,51.71108549999917,51.71108549999917,51.71108549999917,,004,P008,2025_Feb_01_1147,ConditionRich,2021.2.3,59.932204689692014,
11.75,12.0,41,0.0,Stimuli/Blank.png,0,0,0.0,0,16,16,16,,,,,,,,,,,,,11.77618860000075,0.02618860000075074,None,52.46173060000001,52.46173060000001,52.46173060000001,52.46173060000001,52.46173060000001,52.46173060000001,52.46173060000001,52.46173060000001,52.46173060000001,52.46173060000001,,004,P008,2025_Feb_01_1147,ConditionRich,2021.2.3,59.932204689692014,
12.0,12.75,31,0.75,Stimuli/P008/things_jug_04s.jpg,0,0,0.0,0,17,17,17,,,,,,,,,,,,,12.009853900000962,0.009853900000962312,None,52.69527339999877,52.69527339999877,52.69527339999877,52.69527339999877,52.69527339999877,52.69527339999877,52.69527339999877,52.69527339999877,52.69527339999877,52.69527339999877,,004,P008,2025_Feb_01_1147,ConditionRich,2021.2.3,59.932204689692014,
12.75,13.0,41,0.0,Stimuli/Blank.png,0,0,0.0,0,18,18,18,,,,,,,,,,,,,12.76031409999996,0.01031409999995958,None,53.44594309999957,53.44594309999957,53.44594309999957,53.44594309999957,53.44594309999957,53.44594309999957,53.44594309999957,53.44594309999957,53.44594309999957,53.44594309999957,,004,P008,2025_Feb_01_1147,ConditionRich,2021.2.3,59.932204689692014,
13.0,13.75,31,0.75,Stimuli/P008/things_jug_04s.jpg,0,0,0.0,0,19,19,19,,,,,,,,,,,,,13.01049950000015,0.010499500000150874,None,53.696159199998874,53.696159199998874,53.696159199998874,53.696159199998874,53.696159199998874,53.696159199998874,53.696159199998874,53.696159199998874,53.696159199998874,53.696159199998874,,004,P008,2025_Feb_01_1147,ConditionRich,2021.2.3,59.932204689692014,
13.75,14.0,41,0.0,Stimuli/Blank.png,0,0,0.0,0,20,20,20,,,,,,,,,,,,,13.761920900000405,0.0119209000004048,None,54.46351940000022,54.46351940000022,54.46351940000022,54.46351940000022,54.46351940000022,54.46351940000022,54.46351940000022,54.46351940000022,54.46351940000022,54.46351940000022,,004,P008,2025_Feb_01_1147,ConditionRich,2021.2.3,59.932204689692014,
14.0,14.75,31,0.75,Stimuli/P008/things_jug_04s.jpg,1,0,0.75,0,21,21,21,,,,,,,,,,,,,14.02807969999958,0.028079699999580043,2,54.7137230999997,54.7137230999997,54.7137230999997,54.7137230999997,54.7137230999997,54.7137230999997,54.7137230999997,None,54.7137230999997,54.7137230999997,0.48401170000033744,004,P008,2025_Feb_01_1147,ConditionRich,2021.2.3,59.932204689692014,
14.75,15.0,41,0.0,Stimuli/Blank.png,0,0,0.0,0,22,22,22,,,,,,,,,,,,,14.761701499999617,0.011701499999617226,None,55.44770459999927,55.44770459999927,55.44770459999927,55.44770459999927,55.44770459999927,55.44770459999927,55.44770459999927,55.44770459999927,55.44770459999927,55.44770459999927,,004,P008,2025_Feb_01_1147,ConditionRich,2021.2.3,59.932204689692014,
15.0,15.75,31,0.75,Stimuli/P008/things_jug_04s.jpg,0,0,0.0,0,23,23,23,,,,,,,,,,,,,15.012764600000082,0.012764600000082282,None,55.697928100000354,55.697928100000354,55.697928100000354,55.697928100000354,55.697928100000354,55.697928100000354,55.697928100000354,55.697928100000354,55.697928100000354,55.697928100000354,,004,P008,2025_Feb_01_1147,ConditionRich,2021.2.3,59.932204689692014,
15.75,16.0,41,0.0,Stimuli/Blank.png,0,0,0.0,0,24,24,24,,,,,,,,,,,,,15.763123200000337,0.01312320000033651,None,56.448662999999215,56.448662999999215,56.448662999999215,56.448662999999215,56.448662999999215,56.448662999999215,56.448662999999215,56.448662999999215,56.448662999999215,56.448662999999215,,004,P008,2025_Feb_01_1147,ConditionRich,2021.2.3,59.932204689692014,
16.0,16.75,40,0.75,Stimuli/P008/things_woman_04s.jpg,0,0,0.0,0,25,25,25,,,,,,,,,,,,,16.01316709999992,0.013167099999918719,None,56.7155101999997,56.7155101999997,56.7155101999997,56.7155101999997,56.7155101999997,56.7155101999997,56.7155101999997,56.7155101999997,56.7155101999997,56.7155101999997,,004,P008,2025_Feb_01_1147,ConditionRich,2021.2.3,59.932204689692014,
16.75,17.0,41,0.0,Stimuli/Blank.png,0,0,0.0,0,26,26,26,,,,,,,,,,,,,16.78101609999976,0.031016099999760627,None,57.466167499998846,57.466167499998846,57.466167499998846,57.466167499998846,57.466167499998846,57.466167499998846,57.466167499998846,57.466167499998846,57.466167499998846,57.466167499998846,,004,P008,2025_Feb_01_1147,ConditionRich,2021.2.3,59.932204689692014,
17.0,17.75,40,0.75,Stimuli/P008/things_woman_04s.jpg,0,0,0.0,0,27,27,27,,,,,,,,,,,,,17.015698299999713,0.015698299999712617,None,57.71638890000031,57.71638890000031,57.71638890000031,57.71638890000031,57.71638890000031,57.71638890000031,57.71638890000031,57.71638890000031,57.71638890000031,57.71638890000031,,004,P008,2025_Feb_01_1147,ConditionRich,2021.2.3,59.932204689692014,
17.75,18.0,41,0.0,Stimuli/Blank.png,0,0,0.0,0,28,28,28,,,,,,,,,,,,,17.76476350000121,0.01476350000120874,None,58.45036849999997,58.45036849999997,58.45036849999997,58.45036849999997,58.45036849999997,58.45036849999997,58.45036849999997,58.45036849999997,58.45036849999997,58.45036849999997,,004,P008,2025_Feb_01_1147,ConditionRich,2021.2.3,59.932204689692014,
18.0,18.75,40,0.75,Stimuli/P008/things_woman_04s.jpg,0,0,0.0,0,29,29,29,,,,,,,,,,,,,18.015107200000784,0.01510720000078436,None,58.70057999999881,58.70057999999881,58.70057999999881,58.70057999999881,58.70057999999881,58.70057999999881,58.70057999999881,58.70057999999881,58.70057999999881,58.70057999999881,,004,P008,2025_Feb_01_1147,ConditionRich,2021.2.3,59.932204689692014,
18.75,19.0,41,0.0,Stimuli/Blank.png,0,0,0.0,0,30,30,30,,,,,,,,,,,,,18.750755900000513,0.0007559000005130656,None,59.4512524999991,59.4512524999991,59.4512524999991,59.4512524999991,59.4512524999991,59.4512524999991,59.4512524999991,59.4512524999991,59.4512524999991,59.4512524999991,,004,P008,2025_Feb_01_1147,ConditionRich,2021.2.3,59.932204689692014,
19.0,19.75,40,0.75,Stimuli/P008/things_woman_04s.jpg,0,0,0.0,0,31,31,31,,,,,,,,,,,,,19.01631070000076,0.016310700000758516,None,59.71814610000001,59.71814610000001,59.71814610000001,59.71814610000001,59.71814610000001,59.71814610000001,59.71814610000001,59.71814610000001,59.71814610000001,59.71814610000001,,004,P008,2025_Feb_01_1147,ConditionRich,2021.2.3,59.932204689692014,
19.75,20.0,41,0.0,Stimuli/Blank.png,0,0,0.0,0,32,32,32,,,,,,,,,,,,,19.76669050000055,0.016690500000549946,None,60.452180499998576,60.452180499998576,60.452180499998576,60.452180499998576,60.452180499998576,60.452180499998576,60.452180499998576,60.452180499998576,60.452180499998576,60.452180499998576,,004,P008,2025_Feb_01_1147,ConditionRich,2021.2.3,59.932204689692014,
20.0,20.75,3,0.75,Stimuli/P008/sun_aueftjhdwnvkbzlt.jpg,0,0,0.0,0,33,33,33,,,,,,,,,,,,,19.999974100001054,-2.5899998945533298e-05,None,60.685631999998805,60.685631999998805,60.685631999998805,60.685631999998805,60.685631999998805,60.685631999998805,60.685631999998805,60.685631999998805,60.685631999998805,60.685631999998805,,004,P008,2025_Feb_01_1147,ConditionRich,2021.2.3,59.932204689692014,
20.75,21.0,41,0.0,Stimuli/Blank.png,0,0,0.0,0,34,34,34,,,,,,,,,,,,,20.751297599999816,0.001297599999816157,None,61.43634259999999,61.43634259999999,61.43634259999999,61.43634259999999,61.43634259999999,61.43634259999999,61.43634259999999,61.43634259999999,61.43634259999999,61.43634259999999,,004,P008,2025_Feb_01_1147,ConditionRich,2021.2.3,59.932204689692014,
21.0,21.75,3,0.75,Stimuli/P008/sun_aueftjhdwnvkbzlt.jpg,0,0,0.0,0,35,35,35,,,,,,,,,,,,,21.000836000001073,0.0008360000010725344,None,61.68655959999887,61.68655959999887,61.68655959999887,61.68655959999887,61.68655959999887,61.68655959999887,61.68655959999887,61.68655959999887,61.68655959999887,61.68655959999887,,004,P008,2025_Feb_01_1147,ConditionRich,2021.2.3,59.932204689692014,
21.75,22.0,41,0.0,Stimuli/Blank.png,0,0,0.0,0,36,36,36,,,,,,,,,,,,,21.75107190000017,0.0010719000001699897,None,62.437233200000264,62.437233200000264,62.437233200000264,62.437233200000264,62.437233200000264,62.437233200000264,62.437233200000264,62.437233200000264,62.437233200000264,62.437233200000264,,004,P008,2025_Feb_01_1147,ConditionRich,2021.2.3,59.932204689692014,
22.0,22.75,3,0.75,Stimuli/P008/sun_aueftjhdwnvkbzlt.jpg,0,0,0.0,0,37,37,37,,,,,,,,,,,,,22.001320900000792,0.0013209000007918803,None,62.68743689999974,62.68743689999974,62.68743689999974,62.68743689999974,62.68743689999974,62.68743689999974,62.68743689999974,62.68743689999974,62.68743689999974,62.68743689999974,,004,P008,2025_Feb_01_1147,ConditionRich,2021.2.3,59.932204689692014,
22.75,23.0,41,0.0,Stimuli/Blank.png,0,0,0.0,0,38,38,38,,,,,,,,,,,,,22.752512500001103,0.002512500001103035,None,63.438111699999354,63.438111699999354,63.438111699999354,63.438111699999354,63.438111699999354,63.438111699999354,63.438111699999354,63.438111699999354,63.438111699999354,63.438111699999354,,004,P008,2025_Feb_01_1147,ConditionRich,2021.2.3,59.932204689692014,
23.0,23.75,3,0.75,Stimuli/P008/sun_aueftjhdwnvkbzlt.jpg,0,0,0.0,0,39,39,39,,,,,,,,,,,,,23.00277570000071,0.0027757000007113675,None,63.688329099999464,63.688329099999464,63.688329099999464,63.688329099999464,63.688329099999464,63.688329099999464,63.688329099999464,63.688329099999464,63.688329099999464,63.688329099999464,,004,P008,2025_Feb_01_1147,ConditionRich,2021.2.3,59.932204689692014,
23.75,24.0,41,0.0,Stimuli/Blank.png,0,0,0.0,0,40,40,40,,,,,,,,,,,,,23.755691800000932,0.005691800000931835,None,64.45568359999925,64.45568359999925,64.45568359999925,64.45568359999925,64.45568359999925,64.45568359999925,64.45568359999925,64.45568359999925,64.45568359999925,64.45568359999925,,004,P008,2025_Feb_01_1147,ConditionRich,2021.2.3,59.932204689692014,
24.0,24.75,37,0.75,Stimuli/P008/things_praying_mantis_04s.jpg,0,0,0.0,0,41,41,41,,,,,,,,,,,,,24.0212489000005,0.021248900000500726,None,64.70645119999972,64.70645119999972,64.70645119999972,64.70645119999972,64.70645119999972,64.70645119999972,64.70645119999972,64.70645119999972,64.70645119999972,64.70645119999972,,004,P008,2025_Feb_01_1147,ConditionRich,2021.2.3,59.932204689692014,
24.75,25.0,41,0.0,Stimuli/Blank.png,0,0,0.0,0,42,42,42,,,,,,,,,,,,,24.75596089999999,0.005960899999990943,None,65.4565662999994,65.4565662999994,65.4565662999994,65.4565662999994,65.4565662999994,65.4565662999994,65.4565662999994,65.4565662999994,65.4565662999994,65.4565662999994,,004,P008,2025_Feb_01_1147,ConditionRich,2021.2.3,59.932204689692014,
25.0,25.75,37,0.75,Stimuli/P008/things_praying_mantis_04s.jpg,0,0,0.0,0,43,43,43,,,,,,,,,,,,,25.021939300000668,0.021939300000667572,None,65.72348129999955,65.72348129999955,65.72348129999955,65.72348129999955,65.72348129999955,65.72348129999955,65.72348129999955,65.72348129999955,65.72348129999955,65.72348129999955,,004,P008,2025_Feb_01_1147,ConditionRich,2021.2.3,59.932204689692014,
25.75,26.0,41,0.0,Stimuli/Blank.png,0,0,0.0,0,44,44,44,,,,,,,,,,,,,25.771308499999577,0.02130849999957718,None,66.45744539999941,66.45744539999941,66.45744539999941,66.45744539999941,66.45744539999941,66.45744539999941,66.45744539999941,66.45744539999941,66.45744539999941,66.45744539999941,,004,P008,2025_Feb_01_1147,ConditionRich,2021.2.3,59.932204689692014,
26.0,26.75,37,0.75,Stimuli/P008/things_praying_mantis_04s.jpg,0,0,0.0,0,45,45,45,,,,,,,,,,,,,26.006005900000673,0.006005900000673137,None,66.70770599999923,66.70770599999923,66.70770599999923,66.70770599999923,66.70770599999923,66.70770599999923,66.70770599999923,66.70770599999923,66.70770599999923,66.70770599999923,,004,P008,2025_Feb_01_1147,ConditionRich,2021.2.3,59.932204689692014,
26.75,27.0,41,0.0,Stimuli/Blank.png,0,0,0.0,0,46,46,46,,,,,,,,,,,,,26.772224899999856,0.022224899999855552,None,67.45832949999931,67.45832949999931,67.45832949999931,67.45832949999931,67.45832949999931,67.45832949999931,67.45832949999931,67.45832949999931,67.45832949999931,67.45832949999931,,004,P008,2025_Feb_01_1147,ConditionRich,2021.2.3,59.932204689692014,
27.0,27.75,37,0.75,Stimuli/P008/things_praying_mantis_04s.jpg,0,0,0.0,0,47,47,47,,,,,,,,,,,,,27.00648050000018,0.006480500000179745,None,67.69187330000022,67.69187330000022,67.69187330000022,67.69187330000022,67.69187330000022,67.69187330000022,67.69187330000022,67.69187330000022,67.69187330000022,67.69187330000022,,004,P008,2025_Feb_01_1147,ConditionRich,2021.2.3,59.932204689692014,
27.75,28.0,41,0.0,Stimuli/Blank.png,0,0,0.0,0,48,48,48,,,,,,,,,,,,,27.756341800000882,0.006341800000882358,None,68.44253599999865,68.44253599999865,68.44253599999865,68.44253599999865,68.44253599999865,68.44253599999865,68.44253599999865,68.44253599999865,68.44253599999865,68.44253599999865,,004,P008,2025_Feb_01_1147,ConditionRich,2021.2.3,59.932204689692014,
28.0,28.75,39,0.75,Stimuli/P008/things_showerhead_04s.jpg,0,0,0.0,0,49,49,49,,,,,,,,,,,,,28.007034800000838,0.007034800000838004,None,68.69275799999923,68.69275799999923,68.69275799999923,68.69275799999923,68.69275799999923,68.69275799999923,68.69275799999923,68.69275799999923,68.69275799999923,68.69275799999923,,004,P008,2025_Feb_01_1147,ConditionRich,2021.2.3,59.932204689692014,
28.75,29.0,41,0.0,Stimuli/Blank.png,0,0,0.0,0,50,50,50,,,,,,,,,,,,,28.7579781000004,0.007978100000400445,None,69.44341189999977,69.44341189999977,69.44341189999977,69.44341189999977,69.44341189999977,69.44341189999977,69.44341189999977,69.44341189999977,69.44341189999977,69.44341189999977,,004,P008,2025_Feb_01_1147,ConditionRich,2021.2.3,59.932204689692014,
29.0,29.75,39,0.75,Stimuli/P008/things_showerhead_04s.jpg,0,0,0.0,0,51,51,51,,,,,,,,,,,,,29.007790800000294,0.00779080000029353,None,69.71035349999875,69.71035349999875,69.71035349999875,69.71035349999875,69.71035349999875,69.71035349999875,69.71035349999875,69.71035349999875,69.71035349999875,69.71035349999875,,004,P008,2025_Feb_01_1147,ConditionRich,2021.2.3,59.932204689692014,
29.75,30.0,41,0.0,Stimuli/Blank.png,0,0,0.0,0,52,52,52,,,,,,,,,,,,,29.775121599999693,0.02512159999969299,None,70.46098259999962,70.46098259999962,70.46098259999962,70.46098259999962,70.46098259999962,70.46098259999962,70.46098259999962,70.46098259999962,70.46098259999962,70.46098259999962,,004,P008,2025_Feb_01_1147,ConditionRich,2021.2.3,59.932204689692014,
30.0,30.75,39,0.75,Stimuli/P008/things_showerhead_04s.jpg,1,0,0.75,0,53,53,53,,,,,,,,,,,,,30.009122000001298,0.009122000001298147,2,70.71119539999927,70.71119539999927,70.71119539999927,70.71119539999927,70.71119539999927,70.71119539999927,70.71119539999927,71.42850219999855,70.71119539999927,70.71119539999927,0.44452839999939897,004,P008,2025_Feb_01_1147,ConditionRich,2021.2.3,59.932204689692014,
30.75,31.0,41,0.0,Stimuli/Blank.png,0,0,0.0,0,54,54,54,,,,,,,,,,,,,30.777155400000993,0.027155400000992813,None,71.46189149999918,71.46189149999918,71.46189149999918,71.46189149999918,71.46189149999918,71.46189149999918,71.46189149999918,71.46189149999918,71.46189149999918,71.46189149999918,,004,P008,2025_Feb_01_1147,ConditionRich,2021.2.3,59.932204689692014,
31.0,31.75,39,0.75,Stimuli/P008/things_showerhead_04s.jpg,0,0,0.0,0,55,55,55,,,,,,,,,,,,,31.00981789999969,0.009817899999688962,None,71.71211609999955,71.71211609999955,71.71211609999955,71.71211609999955,71.71211609999955,71.71211609999955,71.71211609999955,71.71211609999955,71.71211609999955,71.71211609999955,,004,P008,2025_Feb_01_1147,ConditionRich,2021.2.3,59.932204689692014,
31.75,32.0,41,0.0,Stimuli/Blank.png,0,0,0.0,0,56,56,56,,,,,,,,,,,,,31.77718350000032,0.027183500000319327,None,72.4627529999998,72.4627529999998,72.4627529999998,72.4627529999998,72.4627529999998,72.4627529999998,72.4627529999998,72.4627529999998,72.4627529999998,72.4627529999998,,004,P008,2025_Feb_01_1147,ConditionRich,2021.2.3,59.932204689692014,
32.0,32.75,9,0.75,Stimuli/P008/sun_bcsqogieozpyvuft.jpg,0,0,0.0,0,57,57,57,,,,,,,,,,,,,32.011430100001235,0.011430100001234678,None,72.69629259999965,72.69629259999965,72.69629259999965,72.69629259999965,72.69629259999965,72.69629259999965,72.69629259999965,72.69629259999965,72.69629259999965,72.69629259999965,,004,P008,2025_Feb_01_1147,ConditionRich,2021.2.3,59.932204689692014,
32.75,33.0,41,0.0,Stimuli/Blank.png,0,0,0.0,0,58,58,58,,,,,,,,,,,,,32.76072039999963,0.010720399999627261,None,73.4469551000002,73.4469551000002,73.4469551000002,73.4469551000002,73.4469551000002,73.4469551000002,73.4469551000002,73.4469551000002,73.4469551000002,73.4469551000002,,004,P008,2025_Feb_01_1147,ConditionRich,2021.2.3,59.932204689692014,
33.0,33.75,9,0.75,Stimuli/P008/sun_bcsqogieozpyvuft.jpg,0,0,0.0,0,59,59,59,,,,,,,,,,,,,33.01104620000115,0.011046200001146644,None,73.69717739999942,73.69717739999942,73.69717739999942,73.69717739999942,73.69717739999942,73.69717739999942,73.69717739999942,73.69717739999942,73.69717739999942,73.69717739999942,,004,P008,2025_Feb_01_1147,ConditionRich,2021.2.3,59.932204689692014,
33.75,34.0,41,0.0,Stimuli/Blank.png,0,0,0.0,0,60,60,60,,,,,,,,,,,,,33.76238360000025,0.012383600000248407,None,74.44783909999933,74.44783909999933,74.44783909999933,74.44783909999933,74.44783909999933,74.44783909999933,74.44783909999933,74.44783909999933,74.44783909999933,74.44783909999933,,004,P008,2025_Feb_01_1147,ConditionRich,2021.2.3,59.932204689692014,
34.0,34.75,9,0.75,Stimuli/P008/sun_bcsqogieozpyvuft.jpg,0,0,0.0,0,61,61,61,,,,,,,,,,,,,34.01232540000092,0.012325400000918307,None,74.69806939999944,74.69806939999944,74.69806939999944,74.69806939999944,74.69806939999944,74.69806939999944,74.69806939999944,74.69806939999944,74.69806939999944,74.69806939999944,,004,P008,2025_Feb_01_1147,ConditionRich,2021.2.3,59.932204689692014,
34.75,35.0,41,0.0,Stimuli/Blank.png,0,0,0.0,0,62,62,62,,,,,,,,,,,,,34.763228800000434,0.013228800000433694,None,75.44873299999927,75.44873299999927,75.44873299999927,75.44873299999927,75.44873299999927,75.44873299999927,75.44873299999927,75.44873299999927,75.44873299999927,75.44873299999927,,004,P008,2025_Feb_01_1147,ConditionRich,2021.2.3,59.932204689692014,
35.0,35.75,9,0.75,Stimuli/P008/sun_bcsqogieozpyvuft.jpg,0,0,0.0,0,63,63,63,,,,,,,,,,,,,35.01581400000032,0.01581400000031863,None,75.71564369999942,75.71564369999942,75.71564369999942,75.71564369999942,75.71564369999942,75.71564369999942,75.71564369999942,75.71564369999942,75.71564369999942,75.71564369999942,,004,P008,2025_Feb_01_1147,ConditionRich,2021.2.3,59.932204689692014,
35.75,36.0,41,0.0,Stimuli/Blank.png,0,0,0.0,0,64,64,64,,,,,,,,,,,,,35.76561969999966,0.015619699999660952,None,76.46630069999992,76.46630069999992,76.46630069999992,76.46630069999992,76.46630069999992,76.46630069999992,76.46630069999992,76.46630069999992,76.46630069999992,76.46630069999992,,004,P008,2025_Feb_01_1147,ConditionRich,2021.2.3,59.932204689692014,
36.0,36.75,16,0.75,Stimuli/P008/sun_bnpggenxuowzsywq.jpg,0,0,0.0,0,65,65,65,,,,,,,,,,,,,36.0138764000003,0.013876400000299327,None,76.69983289999982,76.69983289999982,76.69983289999982,76.69983289999982,76.69983289999982,76.69983289999982,76.69983289999982,76.69983289999982,76.69983289999982,76.69983289999982,,004,P008,2025_Feb_01_1147,ConditionRich,2021.2.3,59.932204689692014,
36.75,37.0,41,0.0,Stimuli/Blank.png,0,0,0.0,0,66,66,66,,,,,,,,,,,,,36.76487050000105,0.014870500001052278,None,77.45050639999863,77.45050639999863,77.45050639999863,77.45050639999863,77.45050639999863,77.45050639999863,77.45050639999863,77.45050639999863,77.45050639999863,77.45050639999863,,004,P008,2025_Feb_01_1147,ConditionRich,2021.2.3,59.932204689692014,
37.0,37.75,16,0.75,Stimuli/P008/sun_bnpggenxuowzsywq.jpg,0,0,0.0,0,67,67,67,,,,,,,,,,,,,37.01519300000109,0.015193000001090695,None,77.7173731999992,77.7173731999992,77.7173731999992,77.7173731999992,77.7173731999992,77.7173731999992,77.7173731999992,77.7173731999992,77.7173731999992,77.7173731999992,,004,P008,2025_Feb_01_1147,ConditionRich,2021.2.3,59.932204689692014,
37.75,38.0,41,0.0,Stimuli/Blank.png,0,0,0.0,0,68,68,68,,,,,,,,,,,,,37.76522160000059,0.015221600000586477,None,78.45139339999878,78.45139339999878,78.45139339999878,78.45139339999878,78.45139339999878,78.45139339999878,78.45139339999878,78.45139339999878,78.45139339999878,78.45139339999878,,004,P008,2025_Feb_01_1147,ConditionRich,2021.2.3,59.932204689692014,
38.0,38.75,16,0.75,Stimuli/P008/sun_bnpggenxuowzsywq.jpg,1,0,0.75,0,69,69,69,,,,,,,,,,,,,38.01566930000081,0.015669300000809017,2,78.70160469999973,78.70160469999973,78.70160469999973,78.70160469999973,78.70160469999973,78.70160469999973,78.70160469999973,None,78.70160469999973,78.70160469999973,0.4312529999988328,004,P008,2025_Feb_01_1147,ConditionRich,2021.2.3,59.932204689692014,
38.75,39.0,41,0.0,Stimuli/Blank.png,0,0,0.0,0,70,70,70,,,,,,,,,,,,,38.75102450000122,0.0010245000012218952,None,79.43559269999969,79.43559269999969,79.43559269999969,79.43559269999969,79.43559269999969,79.43559269999969,79.43559269999969,79.43559269999969,79.43559269999969,79.43559269999969,,004,P008,2025_Feb_01_1147,ConditionRich,2021.2.3,59.932204689692014,
39.0,39.75,16,0.75,Stimuli/P008/sun_bnpggenxuowzsywq.jpg,0,0,0.0,0,71,71,71,,,,,,,,,,,,,39.000207000000955,0.00020700000095530413,None,79.70249390000026,79.70249390000026,79.70249390000026,79.70249390000026,79.70249390000026,79.70249390000026,79.70249390000026,79.70249390000026,79.70249390000026,79.70249390000026,,004,P008,2025_Feb_01_1147,ConditionRich,2021.2.3,59.932204689692014,
39.75,40.0,41,0.0,Stimuli/Blank.png,0,0,0.0,0,72,72,72,,,,,,,,,,,,,39.76744040000085,0.017440400000850786,None,80.45315899999878,80.45315899999878,80.45315899999878,80.45315899999878,80.45315899999878,80.45315899999878,80.45315899999878,80.45315899999878,80.45315899999878,80.45315899999878,,004,P008,2025_Feb_01_1147,ConditionRich,2021.2.3,59.932204689692014,
40.0,40.75,32,0.75,Stimuli/P008/things_maggot_04s.jpg,0,0,0.0,0,73,73,73,,,,,,,,,,,,,40.00054319999981,0.000543199999810895,None,80.68665940000028,80.68665940000028,80.68665940000028,80.68665940000028,80.68665940000028,80.68665940000028,80.68665940000028,80.68665940000028,80.68665940000028,80.68665940000028,,004,P008,2025_Feb_01_1147,ConditionRich,2021.2.3,59.932204689692014,
40.75,41.0,41,0.0,Stimuli/Blank.png,0,0,0.0,0,74,74,74,,,,,,,,,,,,,40.751032600001054,0.0010326000010536518,None,81.4373586999991,81.4373586999991,81.4373586999991,81.4373586999991,81.4373586999991,81.4373586999991,81.4373586999991,81.4373586999991,81.4373586999991,81.4373586999991,,004,P008,2025_Feb_01_1147,ConditionRich,2021.2.3,59.932204689692014,
41.0,41.75,32,0.75,Stimuli/P008/things_maggot_04s.jpg,0,0,0.0,0,75,75,75,,,,,,,,,,,,,41.00139730000046,0.0013973000004625646,None,81.68759399999908,81.68759399999908,81.68759399999908,81.68759399999908,81.68759399999908,81.68759399999908,81.68759399999908,81.68759399999908,81.68759399999908,81.68759399999908,,004,P008,2025_Feb_01_1147,ConditionRich,2021.2.3,59.932204689692014,
41.75,42.0,41,0.0,Stimuli/Blank.png,0,0,0.0,0,76,76,76,,,,,,,,,,,,,41.75208360000033,0.002083600000332808,None,82.43824459999996,82.43824459999996,82.43824459999996,82.43824459999996,82.43824459999996,82.43824459999996,82.43824459999996,82.43824459999996,82.43824459999996,82.43824459999996,,004,P008,2025_Feb_01_1147,ConditionRich,2021.2.3,59.932204689692014,
42.0,42.75,32,0.75,Stimuli/P008/things_maggot_04s.jpg,0,0,0.0,0,77,77,77,,,,,,,,,,,,,42.00232760000108,0.0023276000010810094,None,82.70514529999855,82.70514529999855,82.70514529999855,82.70514529999855,82.70514529999855,82.70514529999855,82.70514529999855,82.70514529999855,82.70514529999855,82.70514529999855,,004,P008,2025_Feb_01_1147,ConditionRich,2021.2.3,59.932204689692014,
42.75,43.0,41,0.0,Stimuli/Blank.png,0,0,0.0,0,78,78,78,,,,,,,,,,,,,42.77045680000083,0.02045680000082939,None,83.45580829999926,83.45580829999926,83.45580829999926,83.45580829999926,83.45580829999926,83.45580829999926,83.45580829999926,83.45580829999926,83.45580829999926,83.45580829999926,,004,P008,2025_Feb_01_1147,ConditionRich,2021.2.3,59.932204689692014,
43.0,43.75,32,0.75,Stimuli/P008/things_maggot_04s.jpg,0,0,0.0,0,79,79,79,,,,,,,,,,,,,43.00474779999968,0.004747799999677227,None,83.70604249999997,83.70604249999997,83.70604249999997,83.70604249999997,83.70604249999997,83.70604249999997,83.70604249999997,83.70604249999997,83.70604249999997,83.70604249999997,,004,P008,2025_Feb_01_1147,ConditionRich,2021.2.3,59.932204689692014,
43.75,44.0,41,0.0,Stimuli/Blank.png,0,0,0.0,0,80,80,80,,,,,,,,,,,,,43.771228300000075,0.02122830000007525,None,84.4566990000003,84.4566990000003,84.4566990000003,84.4566990000003,84.4566990000003,84.4566990000003,84.4566990000003,84.4566990000003,84.4566990000003,84.4566990000003,,004,P008,2025_Feb_01_1147,ConditionRich,2021.2.3,59.932204689692014,
44.0,44.75,17,0.75,Stimuli/P008/sun_bnsxdhbsafbdyncy.jpg,0,0,0.0,0,81,81,81,,,,,,,,,,,,,44.00616690000061,0.006166900000607711,None,84.70691649999935,84.70691649999935,84.70691649999935,84.70691649999935,84.70691649999935,84.70691649999935,84.70691649999935,84.70691649999935,84.70691649999935,84.70691649999935,,004,P008,2025_Feb_01_1147,ConditionRich,2021.2.3,59.932204689692014,
44.75,45.0,41,0.0,Stimuli/Blank.png,0,0,0.0,0,82,82,82,,,,,,,,,,,,,44.77129640000021,0.02129640000021027,None,85.45758299999943,85.45758299999943,85.45758299999943,85.45758299999943,85.45758299999943,85.45758299999943,85.45758299999943,85.45758299999943,85.45758299999943,85.45758299999943,,004,P008,2025_Feb_01_1147,ConditionRich,2021.2.3,59.932204689692014,
45.0,45.75,17,0.75,Stimuli/P008/sun_bnsxdhbsafbdyncy.jpg,0,0,0.0,0,83,83,83,,,,,,,,,,,,,45.00629079999999,0.006290799999987939,None,85.70784339999955,85.70784339999955,85.70784339999955,85.70784339999955,85.70784339999955,85.70784339999955,85.70784339999955,85.70784339999955,85.70784339999955,85.70784339999955,,004,P008,2025_Feb_01_1147,ConditionRich,2021.2.3,59.932204689692014,
45.75,46.0,41,0.0,Stimuli/Blank.png,0,0,0.0,0,84,84,84,,,,,,,,,,,,,45.772866299999805,0.02286629999980505,None,86.45846539999911,86.45846539999911,86.45846539999911,86.45846539999911,86.45846539999911,86.45846539999911,86.45846539999911,86.45846539999911,86.45846539999911,86.45846539999911,,004,P008,2025_Feb_01_1147,ConditionRich,2021.2.3,59.932204689692014,
46.0,46.75,17,0.75,Stimuli/P008/sun_bnsxdhbsafbdyncy.jpg,0,0,0.0,0,85,85,85,,,,,,,,,,,,,46.00631600000088,0.006316000000879285,None,86.69197840000015,86.69197840000015,86.69197840000015,86.69197840000015,86.69197840000015,86.69197840000015,86.69197840000015,86.69197840000015,86.69197840000015,86.69197840000015,,004,P008,2025_Feb_01_1147,ConditionRich,2021.2.3,59.932204689692014,
46.75,47.0,41,0.0,Stimuli/Blank.png,0,0,0.0,0,86,86,86,,,,,,,,,,,,,46.75662730000113,0.006627300001127878,None,87.44266590000007,87.44266590000007,87.44266590000007,87.44266590000007,87.44266590000007,87.44266590000007,87.44266590000007,87.44266590000007,87.44266590000007,87.44266590000007,,004,P008,2025_Feb_01_1147,ConditionRich,2021.2.3,59.932204689692014,
47.0,47.75,17,0.75,Stimuli/P008/sun_bnsxdhbsafbdyncy.jpg,1,0,0.75,0,87,87,87,,,,,,,,,,,,,47.00672579999991,0.0067257999999128515,2,87.69288849999975,87.69288849999975,87.69288849999975,87.69288849999975,87.69288849999975,87.69288849999975,87.69288849999975,88.42689429999882,87.69288849999975,87.69288849999975,0.4518826000003173,004,P008,2025_Feb_01_1147,ConditionRich,2021.2.3,59.932204689692014,
47.75,48.0,41,0.0,Stimuli/Blank.png,0,0,0.0,0,88,88,88,,,,,,,,,,,,,47.757633400000486,0.00763340000048629,None,88.46024860000034,88.46024860000034,88.46024860000034,88.46024860000034,88.46024860000034,88.46024860000034,88.46024860000034,88.46024860000034,88.46024860000034,88.46024860000034,,004,P008,2025_Feb_01_1147,ConditionRich,2021.2.3,59.932204689692014,
48.0,48.75,20,0.75,Stimuli/P008/sun_btrxtfbwtggtrpfv.jpg,0,0,0.0,0,89,89,89,,,,,,,,,,,,,48.02496489999976,0.024964899999758927,None,88.72715939999944,88.72715939999944,88.72715939999944,88.72715939999944,88.72715939999944,88.72715939999944,88.72715939999944,88.72715939999944,88.72715939999944,88.72715939999944,,004,P008,2025_Feb_01_1147,ConditionRich,2021.2.3,59.932204689692014,
48.75,49.0,41,0.0,Stimuli/Blank.png,0,0,0.0,0,90,90,90,,,,,,,,,,,,,48.77487050000127,0.024870500001270557,None,89.46112569999968,89.46112569999968,89.46112569999968,89.46112569999968,89.46112569999968,89.46112569999968,89.46112569999968,89.46112569999968,89.46112569999968,89.46112569999968,,004,P008,2025_Feb_01_1147,ConditionRich,2021.2.3,59.932204689692014,
49.0,49.75,20,0.75,Stimuli/P008/sun_btrxtfbwtggtrpfv.jpg,0,0,0.0,0,91,91,91,,,,,,,,,,,,,49.01094910000029,0.010949100000289036,None,89.71134609999899,89.71134609999899,89.71134609999899,89.71134609999899,89.71134609999899,89.71134609999899,89.71134609999899,89.71134609999899,89.71134609999899,89.71134609999899,,004,P008,2025_Feb_01_1147,ConditionRich,2021.2.3,59.932204689692014,
49.75,50.0,41,0.0,Stimuli/Blank.png,0,0,0.0,0,92,92,92,,,,,,,,,,,,,49.77647520000028,0.026475200000277255,None,90.46202780000021,90.46202780000021,90.46202780000021,90.46202780000021,90.46202780000021,90.46202780000021,90.46202780000021,90.46202780000021,90.46202780000021,90.46202780000021,,004,P008,2025_Feb_01_1147,ConditionRich,2021.2.3,59.932204689692014,
50.0,50.75,20,0.75,Stimuli/P008/sun_btrxtfbwtggtrpfv.jpg,0,0,0.0,0,93,93,93,,,,,,,,,,,,,50.009922299999744,0.0099222999997437,None,90.6955483999991,90.6955483999991,90.6955483999991,90.6955483999991,90.6955483999991,90.6955483999991,90.6955483999991,90.6955483999991,90.6955483999991,90.6955483999991,,004,P008,2025_Feb_01_1147,ConditionRich,2021.2.3,59.932204689692014,
50.75,51.0,41,0.0,Stimuli/Blank.png,0,0,0.0,0,94,94,94,,,,,,,,,,,,,50.760052200001155,0.010052200001155143,None,91.44620829999985,91.44620829999985,91.44620829999985,91.44620829999985,91.44620829999985,91.44620829999985,91.44620829999985,91.44620829999985,91.44620829999985,91.44620829999985,,004,P008,2025_Feb_01_1147,ConditionRich,2021.2.3,59.932204689692014,
51.0,51.75,20,0.75,Stimuli/P008/sun_btrxtfbwtggtrpfv.jpg,0,0,0.0,0,95,95,95,,,,,,,,,,,,,51.010901300000114,0.010901300000114134,None,91.71312669999861,91.71312669999861,91.71312669999861,91.71312669999861,91.71312669999861,91.71312669999861,91.71312669999861,91.71312669999861,91.71312669999861,91.71312669999861,,004,P008,2025_Feb_01_1147,ConditionRich,2021.2.3,59.932204689692014,
51.75,52.0,41,0.0,Stimuli/Blank.png,0,0,0.0,0,96,96,96,,,,,,,,,,,,,51.77762260000054,0.027622600000540842,None,92.46377140000004,92.46377140000004,92.46377140000004,92.46377140000004,92.46377140000004,92.46377140000004,92.46377140000004,92.46377140000004,92.46377140000004,92.46377140000004,,004,P008,2025_Feb_01_1147,ConditionRich,2021.2.3,59.932204689692014,
52.0,52.75,19,0.75,Stimuli/P008/sun_brpfgrmubnnjvfkw.jpg,0,0,0.0,0,97,97,97,,,,,,,,,,,,,52.01140060000034,0.01140060000034282,None,92.69732039999872,92.69732039999872,92.69732039999872,92.69732039999872,92.69732039999872,92.69732039999872,92.69732039999872,92.69732039999872,92.69732039999872,92.69732039999872,,004,P008,2025_Feb_01_1147,ConditionRich,2021.2.3,59.932204689692014,
52.75,53.0,41,0.0,Stimuli/Blank.png,0,0,0.0,0,98,98,98,,,,,,,,,,,,,52.762660600001254,0.012660600001254352,None,93.44797719999951,93.44797719999951,93.44797719999951,93.44797719999951,93.44797719999951,93.44797719999951,93.44797719999951,93.44797719999951,93.44797719999951,93.44797719999951,,004,P008,2025_Feb_01_1147,ConditionRich,2021.2.3,59.932204689692014,
53.0,53.75,19,0.75,Stimuli/P008/sun_brpfgrmubnnjvfkw.jpg,0,0,0.0,0,99,99,99,,,,,,,,,,,,,53.01204040000084,0.012040400000842055,None,93.69820640000034,93.69820640000034,93.69820640000034,93.69820640000034,93.69820640000034,93.69820640000034,93.69820640000034,93.69820640000034,93.69820640000034,93.69820640000034,,004,P008,2025_Feb_01_1147,ConditionRich,2021.2.3,59.932204689692014,
53.75,54.0,41,0.0,Stimuli/Blank.png,0,0,0.0,0,100,100,100,,,,,,,,,,,,,53.76269440000033,0.012694400000327732,None,94.44886349999979,94.44886349999979,94.44886349999979,94.44886349999979,94.44886349999979,94.44886349999979,94.44886349999979,94.44886349999979,94.44886349999979,94.44886349999979,,004,P008,2025_Feb_01_1147,ConditionRich,2021.2.3,59.932204689692014,
54.0,54.75,19,0.75,Stimuli/P008/sun_brpfgrmubnnjvfkw.jpg,0,0,0.0,0,101,101,101,,,,,,,,,,,,,54.01577829999951,0.015778299999510637,None,94.71577419999994,94.71577419999994,94.71577419999994,94.71577419999994,94.71577419999994,94.71577419999994,94.71577419999994,94.71577419999994,94.71577419999994,94.71577419999994,,004,P008,2025_Feb_01_1147,ConditionRich,2021.2.3,59.932204689692014,
54.75,55.0,41,0.0,Stimuli/Blank.png,0,0,0.0,0,102,102,102,,,,,,,,,,,,,54.765015299999504,0.01501529999950435,None,95.4497696999988,95.4497696999988,95.4497696999988,95.4497696999988,95.4497696999988,95.4497696999988,95.4497696999988,95.4497696999988,95.4497696999988,95.4497696999988,,004,P008,2025_Feb_01_1147,ConditionRich,2021.2.3,59.932204689692014,
55.0,55.75,19,0.75,Stimuli/P008/sun_brpfgrmubnnjvfkw.jpg,0,0,0.0,0,103,103,103,,,,,,,,,,,,,55.015634400000636,0.01563440000063565,None,95.71665799999937,95.71665799999937,95.71665799999937,95.71665799999937,95.71665799999937,95.71665799999937,95.71665799999937,95.71665799999937,95.71665799999937,95.71665799999937,,004,P008,2025_Feb_01_1147,ConditionRich,2021.2.3,59.932204689692014,
55.75,56.0,41,0.0,Stimuli/Blank.png,0,0,0.0,0,104,104,104,,,,,,,,,,,,,55.76504250000107,0.015042500001072767,None,96.45063929999924,96.45063929999924,96.45063929999924,96.45063929999924,96.45063929999924,96.45063929999924,96.45063929999924,96.45063929999924,96.45063929999924,96.45063929999924,,004,P008,2025_Feb_01_1147,ConditionRich,2021.2.3,59.932204689692014,
56.0,56.75,11,0.75,Stimuli/P008/sun_bdsriuscubkvzrmt.jpg,0,0,0.0,0,105,105,105,,,,,,,,,,,,,56.0163117000011,0.01631170000109705,None,96.71754469999905,96.71754469999905,96.71754469999905,96.71754469999905,96.71754469999905,96.71754469999905,96.71754469999905,96.71754469999905,96.71754469999905,96.71754469999905,,004,P008,2025_Feb_01_1147,ConditionRich,2021.2.3,59.932204689692014,
56.75,57.0,41,0.0,Stimuli/Blank.png,0,0,0.0,0,106,106,106,,,,,,,,,,,,,56.76595950000046,0.015959500000462867,None,97.45152499999858,97.45152499999858,97.45152499999858,97.45152499999858,97.45152499999858,97.45152499999858,97.45152499999858,97.45152499999858,97.45152499999858,97.45152499999858,,004,P008,2025_Feb_01_1147,ConditionRich,2021.2.3,59.932204689692014,
57.0,57.75,11,0.75,Stimuli/P008/sun_bdsriuscubkvzrmt.jpg,0,0,0.0,0,107,107,107,,,,,,,,,,,,,57.00091070000053,0.0009107000005315058,None,97.70176100000026,97.70176100000026,97.70176100000026,97.70176100000026,97.70176100000026,97.70176100000026,97.70176100000026,97.70176100000026,97.70176100000026,97.70176100000026,,004,P008,2025_Feb_01_1147,ConditionRich,2021.2.3,59.932204689692014,
57.75,58.0,41,0.0,Stimuli/Blank.png,0,0,0.0,0,108,108,108,,,,,,,,,,,,,57.766903300000195,0.016903300000194577,None,98.45240639999975,98.45240639999975,98.45240639999975,98.45240639999975,98.45240639999975,98.45240639999975,98.45240639999975,98.45240639999975,98.45240639999975,98.45240639999975,,004,P008,2025_Feb_01_1147,ConditionRich,2021.2.3,59.932204689692014,
58.0,58.75,11,0.75,Stimuli/P008/sun_bdsriuscubkvzrmt.jpg,0,0,0.0,0,109,109,109,,,,,,,,,,,,,58.00001189999966,1.1899999663000926e-05,None,98.68592639999952,98.68592639999952,98.68592639999952,98.68592639999952,98.68592639999952,98.68592639999952,98.68592639999952,98.68592639999952,98.68592639999952,98.68592639999952,,004,P008,2025_Feb_01_1147,ConditionRich,2021.2.3,59.932204689692014,
58.75,59.0,41,0.0,Stimuli/Blank.png,0,0,0.0,0,110,110,110,,,,,,,,,,,,,58.75169690000075,0.0016969000007520663,None,99.4533094999988,99.4533094999988,99.4533094999988,99.4533094999988,99.4533094999988,99.4533094999988,99.4533094999988,99.4533094999988,99.4533094999988,99.4533094999988,,004,P008,2025_Feb_01_1147,ConditionRich,2021.2.3,59.932204689692014,
59.0,59.75,11,0.75,Stimuli/P008/sun_bdsriuscubkvzrmt.jpg,0,0,0.0,0,111,111,111,,,,,,,,,,,,,59.01735560000088,0.017355600000882987,None,99.72020349999912,99.72020349999912,99.72020349999912,99.72020349999912,99.72020349999912,99.72020349999912,99.72020349999912,99.72020349999912,99.72020349999912,99.72020349999912,,004,P008,2025_Feb_01_1147,ConditionRich,2021.2.3,59.932204689692014,
59.75,60.0,41,0.0,Stimuli/Blank.png,0,0,0.0,0,112,112,112,,,,,,,,,,,,,59.77045850000104,0.020458500001041102,None,100.47087379999903,100.47087379999903,100.47087379999903,100.47087379999903,100.47087379999903,100.47087379999903,100.47087379999903,100.47087379999903,100.47087379999903,100.47087379999903,,004,P008,2025_Feb_01_1147,ConditionRich,2021.2.3,59.932204689692014,
60.0,60.75,21,0.75,Stimuli/P008/things_baby_04s.jpg,0,0,0.0,0,113,113,113,,,,,,,,,,,,,60.01835250000113,0.018352500001128647,None,100.70440069999859,100.70440069999859,100.70440069999859,100.70440069999859,100.70440069999859,100.70440069999859,100.70440069999859,100.70440069999859,100.70440069999859,100.70440069999859,,004,P008,2025_Feb_01_1147,ConditionRich,2021.2.3,59.932204689692014,
60.75,61.0,41,0.0,Stimuli/Blank.png,0,0,0.0,0,114,114,114,,,,,,,,,,,,,60.75287510000089,0.0028751000008924166,None,101.43847370000003,101.43847370000003,101.43847370000003,101.43847370000003,101.43847370000003,101.43847370000003,101.43847370000003,101.43847370000003,101.43847370000003,101.43847370000003,,004,P008,2025_Feb_01_1147,ConditionRich,2021.2.3,59.932204689692014,
61.0,61.75,21,0.75,Stimuli/P008/things_baby_04s.jpg,0,0,0.0,0,115,115,115,,,,,,,,,,,,,61.00241670000105,0.002416700001049321,None,101.70529170000009,101.70529170000009,101.70529170000009,101.70529170000009,101.70529170000009,101.70529170000009,101.70529170000009,101.70529170000009,101.70529170000009,101.70529170000009,,004,P008,2025_Feb_01_1147,ConditionRich,2021.2.3,59.932204689692014,
61.75,62.0,41,0.0,Stimuli/Blank.png,0,0,0.0,0,116,116,116,,,,,,,,,,,,,61.77035120000073,0.020351200000732206,None,102.45595440000034,102.45595440000034,102.45595440000034,102.45595440000034,102.45595440000034,102.45595440000034,102.45595440000034,102.45595440000034,102.45595440000034,102.45595440000034,,004,P008,2025_Feb_01_1147,ConditionRich,2021.2.3,59.932204689692014,
62.0,62.75,21,0.75,Stimuli/P008/things_baby_04s.jpg,0,0,0.0,0,117,117,117,,,,,,,,,,,,,62.00349649999953,0.0034964999995281687,None,102.70616829999926,102.70616829999926,102.70616829999926,102.70616829999926,102.70616829999926,102.70616829999926,102.70616829999926,102.70616829999926,102.70616829999926,102.70616829999926,,004,P008,2025_Feb_01_1147,ConditionRich,2021.2.3,59.932204689692014,
62.75,63.0,41,0.0,Stimuli/Blank.png,0,0,0.0,0,118,118,118,,,,,,,,,,,,,62.77144179999959,0.02144179999959306,None,103.45683119999921,103.45683119999921,103.45683119999921,103.45683119999921,103.45683119999921,103.45683119999921,103.45683119999921,103.45683119999921,103.45683119999921,103.45683119999921,,004,P008,2025_Feb_01_1147,ConditionRich,2021.2.3,59.932204689692014,
63.0,63.75,21,0.75,Stimuli/P008/things_baby_04s.jpg,0,0,0.0,0,119,119,119,,,,,,,,,,,,,63.00688749999972,0.006887499999720603,None,103.70706059999975,103.70706059999975,103.70706059999975,103.70706059999975,103.70706059999975,103.70706059999975,103.70706059999975,103.70706059999975,103.70706059999975,103.70706059999975,,004,P008,2025_Feb_01_1147,ConditionRich,2021.2.3,59.932204689692014,
63.75,64.0,41,0.0,Stimuli/Blank.png,0,0,0.0,0,120,120,120,,,,,,,,,,,,,63.772245199999816,0.022245199999815668,None,104.45771479999894,104.45771479999894,104.45771479999894,104.45771479999894,104.45771479999894,104.45771479999894,104.45771479999894,104.45771479999894,104.45771479999894,104.45771479999894,,004,P008,2025_Feb_01_1147,ConditionRich,2021.2.3,59.932204689692014,
64.0,64.75,14,0.75,Stimuli/P008/sun_bkvjqgmploznrhxt.jpg,0,0,0.0,0,121,121,121,,,,,,,,,,,,,64.00607719999971,0.006077199999708682,None,104.70794039999964,104.70794039999964,104.70794039999964,104.70794039999964,104.70794039999964,104.70794039999964,104.70794039999964,104.70794039999964,104.70794039999964,104.70794039999964,,004,P008,2025_Feb_01_1147,ConditionRich,2021.2.3,59.932204689692014,
64.75,65.0,41,0.0,Stimuli/Blank.png,0,0,0.0,0,122,122,122,,,,,,,,,,,,,64.77242450000085,0.022424500000852277,None,105.45860149999862,105.45860149999862,105.45860149999862,105.45860149999862,105.45860149999862,105.45860149999862,105.45860149999862,105.45860149999862,105.45860149999862,105.45860149999862,,004,P008,2025_Feb_01_1147,ConditionRich,2021.2.3,59.932204689692014,
65.0,65.75,14,0.75,Stimuli/P008/sun_bkvjqgmploznrhxt.jpg,1,0,0.75,0,123,123,123,,,,,,,,,,,,,65.00630040000033,0.0063004000003275,2,105.6921397999995,105.6921397999995,105.6921397999995,105.6921397999995,105.6921397999995,105.6921397999995,105.6921397999995,106.42613720000008,105.6921397999995,105.6921397999995,0.5105982999994012,004,P008,2025_Feb_01_1147,ConditionRich,2021.2.3,59.932204689692014,
65.75,66.0,41,0.0,Stimuli/Blank.png,0,0,0.0,0,124,124,124,,,,,,,,,,,,,65.7567252000008,0.006725200000801124,None,106.44277890000012,106.44277890000012,106.44277890000012,106.44277890000012,106.44277890000012,106.44277890000012,106.44277890000012,106.44277890000012,106.44277890000012,106.44277890000012,,004,P008,2025_Feb_01_1147,ConditionRich,2021.2.3,59.932204689692014,
66.0,66.75,14,0.75,Stimuli/P008/sun_bkvjqgmploznrhxt.jpg,0,0,0.0,0,125,125,125,,,,,,,,,,,,,66.00773990000016,0.00773990000016056,None,106.70975259999977,106.70975259999977,106.70975259999977,106.70975259999977,106.70975259999977,106.70975259999977,106.70975259999977,106.70975259999977,106.70975259999977,106.70975259999977,,004,P008,2025_Feb_01_1147,ConditionRich,2021.2.3,59.932204689692014,
66.75,67.0,41,0.0,Stimuli/Blank.png,0,0,0.0,0,126,126,126,,,,,,,,,,,,,66.77699969999958,0.026999699999578297,None,107.47706519999883,107.47706519999883,107.47706519999883,107.47706519999883,107.47706519999883,107.47706519999883,107.47706519999883,107.47706519999883,107.47706519999883,107.47706519999883,,004,P008,2025_Feb_01_1147,ConditionRich,2021.2.3,59.932204689692014,
67.0,67.75,14,0.75,Stimuli/P008/sun_bkvjqgmploznrhxt.jpg,0,0,0.0,0,127,127,127,,,,,,,,,,,,,67.02503530000104,0.025035300001036376,None,107.71059299999979,107.71059299999979,107.71059299999979,107.71059299999979,107.71059299999979,107.71059299999979,107.71059299999979,107.71059299999979,107.71059299999979,107.71059299999979,,004,P008,2025_Feb_01_1147,ConditionRich,2021.2.3,59.932204689692014,
67.75,68.0,41,0.0,Stimuli/Blank.png,0,0,0.0,0,128,128,128,,,,,,,,,,,,,67.76011889999972,0.010118899999724817,None,108.4445926999997,108.4445926999997,108.4445926999997,108.4445926999997,108.4445926999997,108.4445926999997,108.4445926999997,108.4445926999997,108.4445926999997,108.4445926999997,,004,P008,2025_Feb_01_1147,ConditionRich,2021.2.3,59.932204689692014,
68.0,68.75,34,0.75,Stimuli/P008/things_moose_04s.jpg,0,0,0.0,0,129,129,129,,,,,,,,,,,,,68.00853930000085,0.008539300000848016,None,108.71149960000002,108.71149960000002,108.71149960000002,108.71149960000002,108.71149960000002,108.71149960000002,108.71149960000002,108.71149960000002,108.71149960000002,108.71149960000002,,004,P008,2025_Feb_01_1147,ConditionRich,2021.2.3,59.932204689692014,
68.75,69.0,41,0.0,Stimuli/Blank.png,0,0,0.0,0,130,130,130,,,,,,,,,,,,,68.77658540000084,0.02658540000084031,None,109.46215180000036,109.46215180000036,109.46215180000036,109.46215180000036,109.46215180000036,109.46215180000036,109.46215180000036,109.46215180000036,109.46215180000036,109.46215180000036,,004,P008,2025_Feb_01_1147,ConditionRich,2021.2.3,59.932204689692014,
69.0,69.75,34,0.75,Stimuli/P008/things_moose_04s.jpg,0,0,0.0,0,131,131,131,,,,,,,,,,,,,69.01164989999961,0.01164989999961108,None,109.71236689999932,109.71236689999932,109.71236689999932,109.71236689999932,109.71236689999932,109.71236689999932,109.71236689999932,109.71236689999932,109.71236689999932,109.71236689999932,,004,P008,2025_Feb_01_1147,ConditionRich,2021.2.3,59.932204689692014,
69.75,70.0,41,0.0,Stimuli/Blank.png,0,0,0.0,0,132,132,132,,,,,,,,,,,,,69.77683150000121,0.026831500001208042,None,110.46303230000012,110.46303230000012,110.46303230000012,110.46303230000012,110.46303230000012,110.46303230000012,110.46303230000012,110.46303230000012,110.46303230000012,110.46303230000012,,004,P008,2025_Feb_01_1147,ConditionRich,2021.2.3,59.932204689692014,
70.0,70.75,34,0.75,Stimuli/P008/things_moose_04s.jpg,0,0,0.0,0,133,133,133,,,,,,,,,,,,,70.01105219999954,0.01105219999953988,None,110.69657050000023,110.69657050000023,110.69657050000023,110.69657050000023,110.69657050000023,110.69657050000023,110.69657050000023,110.69657050000023,110.69657050000023,110.69657050000023,,004,P008,2025_Feb_01_1147,ConditionRich,2021.2.3,59.932204689692014,
70.75,71.0,41,0.0,Stimuli/Blank.png,0,0,0.0,0,134,134,134,,,,,,,,,,,,,70.76171470000008,0.011714700000084122,None,111.44724649999989,111.44724649999989,111.44724649999989,111.44724649999989,111.44724649999989,111.44724649999989,111.44724649999989,111.44724649999989,111.44724649999989,111.44724649999989,,004,P008,2025_Feb_01_1147,ConditionRich,2021.2.3,59.932204689692014,
71.0,71.75,34,0.75,Stimuli/P008/things_moose_04s.jpg,0,0,0.0,0,135,135,135,,,,,,,,,,,,,71.0112463000005,0.011246300000493648,None,111.69745489999877,111.69745489999877,111.69745489999877,111.69745489999877,111.69745489999877,111.69745489999877,111.69745489999877,111.69745489999877,111.69745489999877,111.69745489999877,,004,P008,2025_Feb_01_1147,ConditionRich,2021.2.3,59.932204689692014,
71.75,72.0,41,0.0,Stimuli/Blank.png,0,0,0.0,0,136,136,136,,,,,,,,,,,,,71.76183440000023,0.011834400000225287,None,112.44811729999856,112.44811729999856,112.44811729999856,112.44811729999856,112.44811729999856,112.44811729999856,112.44811729999856,112.44811729999856,112.44811729999856,112.44811729999856,,004,P008,2025_Feb_01_1147,ConditionRich,2021.2.3,59.932204689692014,
72.0,72.75,29,0.75,Stimuli/P008/things_hawk_04s.jpg,0,0,0.0,0,137,137,137,,,,,,,,,,,,,72.0129076000012,0.012907600001199171,None,112.69834309999897,112.69834309999897,112.69834309999897,112.69834309999897,112.69834309999897,112.69834309999897,112.69834309999897,112.69834309999897,112.69834309999897,112.69834309999897,,004,P008,2025_Feb_01_1147,ConditionRich,2021.2.3,59.932204689692014,
72.75,73.0,41,0.0,Stimuli/Blank.png,0,0,0.0,0,138,138,138,,,,,,,,,,,,,72.76327200000014,0.013272000000142725,None,113.44912180000028,113.44912180000028,113.44912180000028,113.44912180000028,113.44912180000028,113.44912180000028,113.44912180000028,113.44912180000028,113.44912180000028,113.44912180000028,,004,P008,2025_Feb_01_1147,ConditionRich,2021.2.3,59.932204689692014,
73.0,73.75,29,0.75,Stimuli/P008/things_hawk_04s.jpg,0,0,0.0,0,139,139,139,,,,,,,,,,,,,73.01612510000086,0.016125100000863313,None,113.71591409999928,113.71591409999928,113.71591409999928,113.71591409999928,113.71591409999928,113.71591409999928,113.71591409999928,113.71591409999928,113.71591409999928,113.71591409999928,,004,P008,2025_Feb_01_1147,ConditionRich,2021.2.3,59.932204689692014,
73.75,74.0,41,0.0,Stimuli/Blank.png,0,0,0.0,0,140,140,140,,,,,,,,,,,,,73.76434520000112,0.01434520000111661,None,114.44989239999995,114.44989239999995,114.44989239999995,114.44989239999995,114.44989239999995,114.44989239999995,114.44989239999995,114.44989239999995,114.44989239999995,114.44989239999995,,004,P008,2025_Feb_01_1147,ConditionRich,2021.2.3,59.932204689692014,
74.0,74.75,29,0.75,Stimuli/P008/things_hawk_04s.jpg,0,0,0.0,0,141,141,141,,,,,,,,,,,,,74.0138207,0.013820699999996577,None,114.70011079999858,114.70011079999858,114.70011079999858,114.70011079999858,114.70011079999858,114.70011079999858,114.70011079999858,114.70011079999858,114.70011079999858,114.70011079999858,,004,P008,2025_Feb_01_1147,ConditionRich,2021.2.3,59.932204689692014,
74.75,75.0,41,0.0,Stimuli/Blank.png,0,0,0.0,0,142,142,142,,,,,,,,,,,,,74.76568489999954,0.015684899999541813,None,115.45078560000002,115.45078560000002,115.45078560000002,115.45078560000002,115.45078560000002,115.45078560000002,115.45078560000002,115.45078560000002,115.45078560000002,115.45078560000002,,004,P008,2025_Feb_01_1147,ConditionRich,2021.2.3,59.932204689692014,
75.0,75.75,29,0.75,Stimuli/P008/things_hawk_04s.jpg,0,0,0.0,0,143,143,143,,,,,,,,,,,,,74.99900669999988,-0.0009933000001183245,None,115.68432539999958,115.68432539999958,115.68432539999958,115.68432539999958,115.68432539999958,115.68432539999958,115.68432539999958,115.68432539999958,115.68432539999958,115.68432539999958,,004,P008,2025_Feb_01_1147,ConditionRich,2021.2.3,59.932204689692014,
75.75,76.0,41,0.0,Stimuli/Blank.png,0,0,0.0,0,144,144,144,,,,,,,,,,,,,75.75171349999982,0.001713499999823398,None,116.45166640000025,116.45166640000025,116.45166640000025,116.45166640000025,116.45166640000025,116.45166640000025,116.45166640000025,116.45166640000025,116.45166640000025,116.45166640000025,,004,P008,2025_Feb_01_1147,ConditionRich,2021.2.3,59.932204689692014,
76.0,76.75,1,0.75,Stimuli/P008/sun_abrlrupzcrwpxqfc.jpg,0,0,0.0,0,145,145,145,,,,,,,,,,,,,76.01640109999971,0.016401099999711732,None,116.71859310000036,116.71859310000036,116.71859310000036,116.71859310000036,116.71859310000036,116.71859310000036,116.71859310000036,116.71859310000036,116.71859310000036,116.71859310000036,,004,P008,2025_Feb_01_1147,ConditionRich,2021.2.3,59.932204689692014,
76.75,77.0,41,0.0,Stimuli/Blank.png,0,0,0.0,0,146,146,146,,,,,,,,,,,,,76.76747220000107,0.017472200001066085,None,117.45255919999909,117.45255919999909,117.45255919999909,117.45255919999909,117.45255919999909,117.45255919999909,117.45255919999909,117.45255919999909,117.45255919999909,117.45255919999909,,004,P008,2025_Feb_01_1147,ConditionRich,2021.2.3,59.932204689692014,
77.0,77.75,1,0.75,Stimuli/P008/sun_abrlrupzcrwpxqfc.jpg,0,0,0.0,0,147,147,147,,,,,,,,,,,,,77.00007000000005,7.000000005064066e-05,None,117.6860848999986,117.6860848999986,117.6860848999986,117.6860848999986,117.6860848999986,117.6860848999986,117.6860848999986,117.6860848999986,117.6860848999986,117.6860848999986,,004,P008,2025_Feb_01_1147,ConditionRich,2021.2.3,59.932204689692014,
77.75,78.0,41,0.0,Stimuli/Blank.png,0,0,0.0,0,148,148,148,,,,,,,,,,,,,77.75152200000048,0.0015220000004774192,None,118.43675350000012,118.43675350000012,118.43675350000012,118.43675350000012,118.43675350000012,118.43675350000012,118.43675350000012,118.43675350000012,118.43675350000012,118.43675350000012,,004,P008,2025_Feb_01_1147,ConditionRich,2021.2.3,59.932204689692014,
78.0,78.75,1,0.75,Stimuli/P008/sun_abrlrupzcrwpxqfc.jpg,0,0,0.0,0,149,149,149,,,,,,,,,,,,,78.00139210000088,0.001392100000884966,None,118.7036551000001,118.7036551000001,118.7036551000001,118.7036551000001,118.7036551000001,118.7036551000001,118.7036551000001,118.7036551000001,118.7036551000001,118.7036551000001,,004,P008,2025_Feb_01_1147,ConditionRich,2021.2.3,59.932204689692014,
78.75,79.0,41,0.0,Stimuli/Blank.png,0,0,0.0,0,150,150,150,,,,,,,,,,,,,78.77074490000086,0.02074490000086371,None,119.47104269999909,119.47104269999909,119.47104269999909,119.47104269999909,119.47104269999909,119.47104269999909,119.47104269999909,119.47104269999909,119.47104269999909,119.47104269999909,,004,P008,2025_Feb_01_1147,ConditionRich,2021.2.3,59.932204689692014,
79.0,79.75,1,0.75,Stimuli/P008/sun_abrlrupzcrwpxqfc.jpg,0,0,0.0,0,151,151,151,,,,,,,,,,,,,79.0182732000012,0.018273200001203804,None,119.7212342999992,119.7212342999992,119.7212342999992,119.7212342999992,119.7212342999992,119.7212342999992,119.7212342999992,119.7212342999992,119.7212342999992,119.7212342999992,,004,P008,2025_Feb_01_1147,ConditionRich,2021.2.3,59.932204689692014,
79.75,80.0,41,0.0,Stimuli/Blank.png,0,0,0.0,0,152,152,152,,,,,,,,,,,,,79.76990579999983,0.019905799999833107,None,120.45521709999957,120.45521709999957,120.45521709999957,120.45521709999957,120.45521709999957,120.45521709999957,120.45521709999957,120.45521709999957,120.45521709999957,120.45521709999957,,004,P008,2025_Feb_01_1147,ConditionRich,2021.2.3,59.932204689692014,
80.0,80.75,4,0.75,Stimuli/P008/sun_awqukazlzsxaokai.jpg,0,0,0.0,0,153,153,153,,,,,,,,,,,,,80.00313350000033,0.0031335000003309688,None,120.68870919999972,120.68870919999972,120.68870919999972,120.68870919999972,120.68870919999972,120.68870919999972,120.68870919999972,120.68870919999972,120.68870919999972,120.68870919999972,,004,P008,2025_Feb_01_1147,ConditionRich,2021.2.3,59.932204689692014,
80.75,81.0,41,0.0,Stimuli/Blank.png,0,0,0.0,0,154,154,154,,,,,,,,,,,,,80.75393640000038,0.00393640000038431,None,121.43941280000035,121.43941280000035,121.43941280000035,121.43941280000035,121.43941280000035,121.43941280000035,121.43941280000035,121.43941280000035,121.43941280000035,121.43941280000035,,004,P008,2025_Feb_01_1147,ConditionRich,2021.2.3,59.932204689692014,
81.0,81.75,4,0.75,Stimuli/P008/sun_awqukazlzsxaokai.jpg,0,0,0.0,0,155,155,155,,,,,,,,,,,,,81.00505590000103,0.005055900001025293,None,121.70632809999915,121.70632809999915,121.70632809999915,121.70632809999915,121.70632809999915,121.70632809999915,121.70632809999915,121.70632809999915,121.70632809999915,121.70632809999915,,004,P008,2025_Feb_01_1147,ConditionRich,2021.2.3,59.932204689692014,
81.75,82.0,41,0.0,Stimuli/Blank.png,0,0,0.0,0,156,156,156,,,,,,,,,,,,,81.77071109999997,0.02071109999997134,None,122.45694539999931,122.45694539999931,122.45694539999931,122.45694539999931,122.45694539999931,122.45694539999931,122.45694539999931,122.45694539999931,122.45694539999931,122.45694539999931,,004,P008,2025_Feb_01_1147,ConditionRich,2021.2.3,59.932204689692014,
82.0,82.75,4,0.75,Stimuli/P008/sun_awqukazlzsxaokai.jpg,0,0,0.0,0,157,157,157,,,,,,,,,,,,,82.0049465000011,0.004946500001096865,None,122.70719859999917,122.70719859999917,122.70719859999917,122.70719859999917,122.70719859999917,122.70719859999917,122.70719859999917,122.70719859999917,122.70719859999917,122.70719859999917,,004,P008,2025_Feb_01_1147,ConditionRich,2021.2.3,59.932204689692014,
82.75,83.0,41,0.0,Stimuli/Blank.png,0,0,0.0,0,158,158,158,,,,,,,,,,,,,82.77169500000127,0.021695000001273,None,123.45787259999997,123.45787259999997,123.45787259999997,123.45787259999997,123.45787259999997,123.45787259999997,123.45787259999997,123.45787259999997,123.45787259999997,123.45787259999997,,004,P008,2025_Feb_01_1147,ConditionRich,2021.2.3,59.932204689692014,
83.0,83.75,4,0.75,Stimuli/P008/sun_awqukazlzsxaokai.jpg,0,0,0.0,0,159,159,159,,,,,,,,,,,,,83.00610480000068,0.006104800000684918,None,123.70809889999873,123.70809889999873,123.70809889999873,123.70809889999873,123.70809889999873,123.70809889999873,123.70809889999873,123.70809889999873,123.70809889999873,123.70809889999873,,004,P008,2025_Feb_01_1147,ConditionRich,2021.2.3,59.932204689692014,
83.75,84.0,41,0.0,Stimuli/Blank.png,0,0,0.0,0,160,160,160,,,,,,,,,,,,,83.77257190000091,0.022571900000912137,None,124.45874459999868,124.45874459999868,124.45874459999868,124.45874459999868,124.45874459999868,124.45874459999868,124.45874459999868,124.45874459999868,124.45874459999868,124.45874459999868,,004,P008,2025_Feb_01_1147,ConditionRich,2021.2.3,59.932204689692014,
84.0,100.0,0,0.0,Stimuli/Blank.png,1,1,1.75,0,161,161,161,,,,,,,,,,,,,84.00619809999989,0.0061980999998922925,2,124.69228010000006,124.69228010000006,124.69228010000006,124.69228010000006,124.69228010000006,124.69228010000006,125.67648649999865,126.4271966999986,124.69228010000006,124.69228010000006,1.5599246000001585,004,P008,2025_Feb_01_1147,ConditionRich,2021.2.3,59.932204689692014,
100.0,100.75,18,0.75,Stimuli/P008/sun_borgfidyubrwsuuw.jpg,0,0,0.0,0,162,162,162,,,,,,,,,,,,,100.00424650000059,0.0042465000005904585,None,140.68972759999997,140.68972759999997,140.68972759999997,140.68972759999997,140.68972759999997,140.68972759999997,140.68972759999997,140.68972759999997,140.68972759999997,140.68972759999997,,004,P008,2025_Feb_01_1147,ConditionRich,2021.2.3,59.932204689692014,
100.75,101.0,41,0.0,Stimuli/Blank.png,0,0,0.0,0,163,163,163,,,,,,,,,,,,,100.75685840000006,0.006858400000055553,None,141.45711899999878,141.45711899999878,141.45711899999878,141.45711899999878,141.45711899999878,141.45711899999878,141.45711899999878,141.45711899999878,141.45711899999878,141.45711899999878,,004,P008,2025_Feb_01_1147,ConditionRich,2021.2.3,59.932204689692014,
101.0,101.75,18,0.75,Stimuli/P008/sun_borgfidyubrwsuuw.jpg,0,0,0.0,0,164,164,164,,,,,,,,,,,,,101.02122190000046,0.021221900000455207,None,141.70733259999906,141.70733259999906,141.70733259999906,141.70733259999906,141.70733259999906,141.70733259999906,141.70733259999906,141.70733259999906,141.70733259999906,141.70733259999906,,004,P008,2025_Feb_01_1147,ConditionRich,2021.2.3,59.932204689692014,
101.75,102.0,41,0.0,Stimuli/Blank.png,0,0,0.0,0,165,165,165,,,,,,,,,,,,,101.7558055999998,0.005805599999803235,None,142.44131989999914,142.44131989999914,142.44131989999914,142.44131989999914,142.44131989999914,142.44131989999914,142.44131989999914,142.44131989999914,142.44131989999914,142.44131989999914,,004,P008,2025_Feb_01_1147,ConditionRich,2021.2.3,59.932204689692014,
102.0,102.75,18,0.75,Stimuli/P008/sun_borgfidyubrwsuuw.jpg,0,0,0.0,0,166,166,166,,,,,,,,,,,,,102.00621040000078,0.006210400000782101,None,142.70826750000015,142.70826750000015,142.70826750000015,142.70826750000015,142.70826750000015,142.70826750000015,142.70826750000015,142.70826750000015,142.70826750000015,142.70826750000015,,004,P008,2025_Feb_01_1147,ConditionRich,2021.2.3,59.932204689692014,
102.75,103.0,41,0.0,Stimuli/Blank.png,0,0,0.0,0,167,167,167,,,,,,,,,,,,,102.77569740000035,0.02569740000035381,None,143.47556619999887,143.47556619999887,143.47556619999887,143.47556619999887,143.47556619999887,143.47556619999887,143.47556619999887,143.47556619999887,143.47556619999887,143.47556619999887,,004,P008,2025_Feb_01_1147,ConditionRich,2021.2.3,59.932204689692014,
103.0,103.75,18,0.75,Stimuli/P008/sun_borgfidyubrwsuuw.jpg,0,0,0.0,0,168,168,168,,,,,,,,,,,,,103.02281089999997,0.02281089999996766,None,143.7091163999994,143.7091163999994,143.7091163999994,143.7091163999994,143.7091163999994,143.7091163999994,143.7091163999994,143.7091163999994,143.7091163999994,143.7091163999994,,004,P008,2025_Feb_01_1147,ConditionRich,2021.2.3,59.932204689692014,
103.75,104.0,41,0.0,Stimuli/Blank.png,0,0,0.0,0,169,169,169,,,,,,,,,,,,,103.75762490000125,0.007624900001246715,None,144.44309199999952,144.44309199999952,144.44309199999952,144.44309199999952,144.44309199999952,144.44309199999952,144.44309199999952,144.44309199999952,144.44309199999952,144.44309199999952,,004,P008,2025_Feb_01_1147,ConditionRich,2021.2.3,59.932204689692014,
104.0,104.75,25,0.75,Stimuli/P008/things_credit_card_04s.jpg,0,0,0.0,0,170,170,170,,,,,,,,,,,,,104.00799639999968,0.00799639999968349,None,144.70999889999985,144.70999889999985,144.70999889999985,144.70999889999985,144.70999889999985,144.70999889999985,144.70999889999985,144.70999889999985,144.70999889999985,144.70999889999985,,004,P008,2025_Feb_01_1147,ConditionRich,2021.2.3,59.932204689692014,
104.75,105.0,41,0.0,Stimuli/Blank.png,0,0,0.0,0,171,171,171,,,,,,,,,,,,,104.77531830000044,0.025318300000435556,None,145.460660499999,145.460660499999,145.460660499999,145.460660499999,145.460660499999,145.460660499999,145.460660499999,145.460660499999,145.460660499999,145.460660499999,,004,P008,2025_Feb_01_1147,ConditionRich,2021.2.3,59.932204689692014,
105.0,105.75,25,0.75,Stimuli/P008/things_credit_card_04s.jpg,0,0,0.0,0,172,172,172,,,,,,,,,,,,,105.00832340000125,0.008323400001245318,None,145.71087739999894,145.71087739999894,145.71087739999894,145.71087739999894,145.71087739999894,145.71087739999894,145.71087739999894,145.71087739999894,145.71087739999894,145.71087739999894,,004,P008,2025_Feb_01_1147,ConditionRich,2021.2.3,59.932204689692014,
105.75,106.0,41,0.0,Stimuli/Blank.png,0,0,0.0,0,173,173,173,,,,,,,,,,,,,105.77685620000011,0.02685620000011113,None,146.4782293999997,146.4782293999997,146.4782293999997,146.4782293999997,146.4782293999997,146.4782293999997,146.4782293999997,146.4782293999997,146.4782293999997,146.4782293999997,,004,P008,2025_Feb_01_1147,ConditionRich,2021.2.3,59.932204689692014,
106.0,106.75,25,0.75,Stimuli/P008/things_credit_card_04s.jpg,0,0,0.0,0,174,174,174,,,,,,,,,,,,,106.02630370000043,0.026303700000426034,None,146.72848559999875,146.72848559999875,146.72848559999875,146.72848559999875,146.72848559999875,146.72848559999875,146.72848559999875,146.72848559999875,146.72848559999875,146.72848559999875,,004,P008,2025_Feb_01_1147,ConditionRich,2021.2.3,59.932204689692014,
106.75,107.0,41,0.0,Stimuli/Blank.png,0,0,0.0,0,175,175,175,,,,,,,,,,,,,106.77699270000085,0.026992700000846526,None,147.46242859999984,147.46242859999984,147.46242859999984,147.46242859999984,147.46242859999984,147.46242859999984,147.46242859999984,147.46242859999984,147.46242859999984,147.46242859999984,,004,P008,2025_Feb_01_1147,ConditionRich,2021.2.3,59.932204689692014,
107.0,107.75,25,0.75,Stimuli/P008/things_credit_card_04s.jpg,0,0,0.0,0,176,176,176,,,,,,,,,,,,,107.01024909999978,0.01024909999978263,None,147.6959697000002,147.6959697000002,147.6959697000002,147.6959697000002,147.6959697000002,147.6959697000002,147.6959697000002,147.6959697000002,147.6959697000002,147.6959697000002,,004,P008,2025_Feb_01_1147,ConditionRich,2021.2.3,59.932204689692014,
107.75,108.0,41,0.0,Stimuli/Blank.png,0,0,0.0,0,177,177,177,,,,,,,,,,,,,107.76032180000038,0.010321800000383519,None,148.44662939999944,148.44662939999944,148.44662939999944,148.44662939999944,148.44662939999944,148.44662939999944,148.44662939999944,148.44662939999944,148.44662939999944,148.44662939999944,,004,P008,2025_Feb_01_1147,ConditionRich,2021.2.3,59.932204689692014,
108.0,108.75,2,0.75,Stimuli/P008/sun_ajyzloqaptmicnfr.jpg,0,0,0.0,0,178,178,178,,,,,,,,,,,,,108.01161470000079,0.011614700000791345,None,148.69685329999993,148.69685329999993,148.69685329999993,148.69685329999993,148.69685329999993,148.69685329999993,148.69685329999993,148.69685329999993,148.69685329999993,148.69685329999993,,004,P008,2025_Feb_01_1147,ConditionRich,2021.2.3,59.932204689692014,
108.75,109.0,41,0.0,Stimuli/Blank.png,0,0,0.0,0,179,179,179,,,,,,,,,,,,,108.76133630000004,0.011336300000039046,None,149.44751670000005,149.44751670000005,149.44751670000005,149.44751670000005,149.44751670000005,149.44751670000005,149.44751670000005,149.44751670000005,149.44751670000005,149.44751670000005,,004,P008,2025_Feb_01_1147,ConditionRich,2021.2.3,59.932204689692014,
109.0,109.75,2,0.75,Stimuli/P008/sun_ajyzloqaptmicnfr.jpg,0,0,0.0,0,180,180,180,,,,,,,,,,,,,109.01141980000102,0.01141980000102194,None,149.69773299999906,149.69773299999906,149.69773299999906,149.69773299999906,149.69773299999906,149.69773299999906,149.69773299999906,149.69773299999906,149.69773299999906,149.69773299999906,,004,P008,2025_Feb_01_1147,ConditionRich,2021.2.3,59.932204689692014,
109.75,110.0,41,0.0,Stimuli/Blank.png,0,0,0.0,0,181,181,181,,,,,,,,,,,,,109.76326800000061,0.013268000000607572,None,150.4485042999986,150.4485042999986,150.4485042999986,150.4485042999986,150.4485042999986,150.4485042999986,150.4485042999986,150.4485042999986,150.4485042999986,150.4485042999986,,004,P008,2025_Feb_01_1147,ConditionRich,2021.2.3,59.932204689692014,
110.0,110.75,2,0.75,Stimuli/P008/sun_ajyzloqaptmicnfr.jpg,0,0,0.0,0,182,182,182,,,,,,,,,,,,,110.01232660000096,0.012326600000960752,None,150.698617,150.698617,150.698617,150.698617,150.698617,150.698617,150.698617,150.698617,150.698617,150.698617,,004,P008,2025_Feb_01_1147,ConditionRich,2021.2.3,59.932204689692014,
110.75,111.0,41,0.0,Stimuli/Blank.png,0,0,0.0,0,183,183,183,,,,,,,,,,,,,110.7657102000012,0.015710200001194607,None,151.46597250000013,151.46597250000013,151.46597250000013,151.46597250000013,151.46597250000013,151.46597250000013,151.46597250000013,151.46597250000013,151.46597250000013,151.46597250000013,,004,P008,2025_Feb_01_1147,ConditionRich,2021.2.3,59.932204689692014,
111.0,111.75,2,0.75,Stimuli/P008/sun_ajyzloqaptmicnfr.jpg,0,0,0.0,0,184,184,184,,,,,,,,,,,,,111.0157790000012,0.015779000001202803,None,151.7161987999989,151.7161987999989,151.7161987999989,151.7161987999989,151.7161987999989,151.7161987999989,151.7161987999989,151.7161987999989,151.7161987999989,151.7161987999989,,004,P008,2025_Feb_01_1147,ConditionRich,2021.2.3,59.932204689692014,
111.75,112.0,41,0.0,Stimuli/Blank.png,0,0,0.0,0,185,185,185,,,,,,,,,,,,,111.76697550000063,0.016975500000626198,None,152.4668555999997,152.4668555999997,152.4668555999997,152.4668555999997,152.4668555999997,152.4668555999997,152.4668555999997,152.4668555999997,152.4668555999997,152.4668555999997,,004,P008,2025_Feb_01_1147,ConditionRich,2021.2.3,59.932204689692014,
112.0,112.75,33,0.75,Stimuli/P008/things_man_04s.jpg,1,0,0.75,0,186,186,186,,,,,,,,,,,,,112.01501970000027,0.015019700000266312,2,152.70039410000027,152.70039410000027,152.70039410000027,152.70039410000027,152.70039410000027,152.70039410000027,152.70039410000027,None,152.70039410000027,152.70039410000027,0.5674945000009757,004,P008,2025_Feb_01_1147,ConditionRich,2021.2.3,59.932204689692014,
112.75,113.0,41,0.0,Stimuli/Blank.png,0,0,0.0,0,187,187,187,,,,,,,,,,,,,112.74872359999972,-0.0012764000002789544,None,153.43435959999988,153.43435959999988,153.43435959999988,153.43435959999988,153.43435959999988,153.43435959999988,153.43435959999988,153.43435959999988,153.43435959999988,153.43435959999988,,004,P008,2025_Feb_01_1147,ConditionRich,2021.2.3,59.932204689692014,
113.0,113.75,33,0.75,Stimuli/P008/things_man_04s.jpg,0,0,0.0,0,188,188,188,,,,,,,,,,,,,113.0153091000011,0.015309100001104525,None,153.70127909999974,153.70127909999974,153.70127909999974,153.70127909999974,153.70127909999974,153.70127909999974,153.70127909999974,153.70127909999974,153.70127909999974,153.70127909999974,,004,P008,2025_Feb_01_1147,ConditionRich,2021.2.3,59.932204689692014,
113.75,114.0,41,0.0,Stimuli/Blank.png,0,0,0.0,0,189,189,189,,,,,,,,,,,,,113.75095800000054,0.0009580000005371403,None,154.45196249999935,154.45196249999935,154.45196249999935,154.45196249999935,154.45196249999935,154.45196249999935,154.45196249999935,154.45196249999935,154.45196249999935,154.45196249999935,,004,P008,2025_Feb_01_1147,ConditionRich,2021.2.3,59.932204689692014,
114.0,114.75,33,0.75,Stimuli/P008/things_man_04s.jpg,0,0,0.0,0,190,190,190,,,,,,,,,,,,,114.01650960000006,0.016509600000063074,None,154.71884990000035,154.71884990000035,154.71884990000035,154.71884990000035,154.71884990000035,154.71884990000035,154.71884990000035,154.71884990000035,154.71884990000035,154.71884990000035,,004,P008,2025_Feb_01_1147,ConditionRich,2021.2.3,59.932204689692014,
114.75,115.0,41,0.0,Stimuli/Blank.png,0,0,0.0,0,191,191,191,,,,,,,,,,,,,114.76719570000023,0.017195700000229408,None,155.45328439999867,155.45328439999867,155.45328439999867,155.45328439999867,155.45328439999867,155.45328439999867,155.45328439999867,155.45328439999867,155.45328439999867,155.45328439999867,,004,P008,2025_Feb_01_1147,ConditionRich,2021.2.3,59.932204689692014,
115.0,115.75,33,0.75,Stimuli/P008/things_man_04s.jpg,0,0,0.0,0,192,192,192,,,,,,,,,,,,,115.00009080000018,9.080000018002465e-05,None,155.6864069000003,155.6864069000003,155.6864069000003,155.6864069000003,155.6864069000003,155.6864069000003,155.6864069000003,155.6864069000003,155.6864069000003,155.6864069000003,,004,P008,2025_Feb_01_1147,ConditionRich,2021.2.3,59.932204689692014,
115.75,116.0,41,0.0,Stimuli/Blank.png,0,0,0.0,0,193,193,193,,,,,,,,,,,,,115.75142950000009,0.0014295000000856817,None,156.43703399999868,156.43703399999868,156.43703399999868,156.43703399999868,156.43703399999868,156.43703399999868,156.43703399999868,156.43703399999868,156.43703399999868,156.43703399999868,,004,P008,2025_Feb_01_1147,ConditionRich,2021.2.3,59.932204689692014,
116.0,116.75,38,0.75,Stimuli/P008/things_rollerblade_04s.jpg,0,0,0.0,0,194,194,194,,,,,,,,,,,,,116.00169290000122,0.0016929000012169126,None,156.70392639999955,156.70392639999955,156.70392639999955,156.70392639999955,156.70392639999955,156.70392639999955,156.70392639999955,156.70392639999955,156.70392639999955,156.70392639999955,,004,P008,2025_Feb_01_1147,ConditionRich,2021.2.3,59.932204689692014,
116.75,117.0,41,0.0,Stimuli/Blank.png,0,0,0.0,0,195,195,195,,,,,,,,,,,,,116.76832439999998,0.018324399999983143,None,157.45459109999865,157.45459109999865,157.45459109999865,157.45459109999865,157.45459109999865,157.45459109999865,157.45459109999865,157.45459109999865,157.45459109999865,157.45459109999865,,004,P008,2025_Feb_01_1147,ConditionRich,2021.2.3,59.932204689692014,
117.0,117.75,38,0.75,Stimuli/P008/things_rollerblade_04s.jpg,1,0,0.75,0,196,196,196,,,,,,,,,,,,,117.00186220000069,0.001862200000687153,2,157.6881373999986,157.6881373999986,157.6881373999986,157.6881373999986,157.6881373999986,157.6881373999986,157.6881373999986,158.42211769999994,157.6881373999986,157.6881373999986,0.45297410000057425,004,P008,2025_Feb_01_1147,ConditionRich,2021.2.3,59.932204689692014,
117.75,118.0,41,0.0,Stimuli/Blank.png,0,0,0.0,0,197,197,197,,,,,,,,,,,,,117.75291319999997,0.0029131999999663094,None,158.4388603999996,158.4388603999996,158.4388603999996,158.4388603999996,158.4388603999996,158.4388603999996,158.4388603999996,158.4388603999996,158.4388603999996,158.4388603999996,,004,P008,2025_Feb_01_1147,ConditionRich,2021.2.3,59.932204689692014,
118.0,118.75,38,0.75,Stimuli/P008/things_rollerblade_04s.jpg,0,0,0.0,0,198,198,198,,,,,,,,,,,,,118.0035098999997,0.0035098999996989733,None,158.705706499999,158.705706499999,158.705706499999,158.705706499999,158.705706499999,158.705706499999,158.705706499999,158.705706499999,158.705706499999,158.705706499999,,004,P008,2025_Feb_01_1147,ConditionRich,2021.2.3,59.932204689692014,
118.75,119.0,41,0.0,Stimuli/Blank.png,0,0,0.0,0,199,199,199,,,,,,,,,,,,,118.77018529999987,0.020185299999866402,None,159.45637290000013,159.45637290000013,159.45637290000013,159.45637290000013,159.45637290000013,159.45637290000013,159.45637290000013,159.45637290000013,159.45637290000013,159.45637290000013,,004,P008,2025_Feb_01_1147,ConditionRich,2021.2.3,59.932204689692014,
119.0,119.75,38,0.75,Stimuli/P008/things_rollerblade_04s.jpg,0,0,0.0,0,200,200,200,,,,,,,,,,,,,119.00597770000059,0.005977700000585173,None,159.70661409999957,159.70661409999957,159.70661409999957,159.70661409999957,159.70661409999957,159.70661409999957,159.70661409999957,159.70661409999957,159.70661409999957,159.70661409999957,,004,P008,2025_Feb_01_1147,ConditionRich,2021.2.3,59.932204689692014,
119.75,120.0,41,0.0,Stimuli/Blank.png,0,0,0.0,0,201,201,201,,,,,,,,,,,,,119.77139720000014,0.021397200000137673,None,160.45725719999973,160.45725719999973,160.45725719999973,160.45725719999973,160.45725719999973,160.45725719999973,160.45725719999973,160.45725719999973,160.45725719999973,160.45725719999973,,004,P008,2025_Feb_01_1147,ConditionRich,2021.2.3,59.932204689692014,
120.0,120.75,22,0.75,Stimuli/P008/things_boar_04s.jpg,0,0,0.0,0,202,202,202,,,,,,,,,,,,,120.00524829999995,0.005248299999948358,None,160.70747429999938,160.70747429999938,160.70747429999938,160.70747429999938,160.70747429999938,160.70747429999938,160.70747429999938,160.70747429999938,160.70747429999938,160.70747429999938,,004,P008,2025_Feb_01_1147,ConditionRich,2021.2.3,59.932204689692014,
120.75,121.0,41,0.0,Stimuli/Blank.png,0,0,0.0,0,203,203,203,,,,,,,,,,,,,120.77202810000017,0.022028100000170525,None,161.45814450000034,161.45814450000034,161.45814450000034,161.45814450000034,161.45814450000034,161.45814450000034,161.45814450000034,161.45814450000034,161.45814450000034,161.45814450000034,,004,P008,2025_Feb_01_1147,ConditionRich,2021.2.3,59.932204689692014,
121.0,121.75,22,0.75,Stimuli/P008/things_boar_04s.jpg,0,0,0.0,0,204,204,204,,,,,,,,,,,,,121.00619999999981,0.006199999999807915,None,161.70838410000033,161.70838410000033,161.70838410000033,161.70838410000033,161.70838410000033,161.70838410000033,161.70838410000033,161.70838410000033,161.70838410000033,161.70838410000033,,004,P008,2025_Feb_01_1147,ConditionRich,2021.2.3,59.932204689692014,
121.75,122.0,41,0.0,Stimuli/Blank.png,0,0,0.0,0,205,205,205,,,,,,,,,,,,,121.77282730000115,0.02282730000115407,None,162.45901799999956,162.45901799999956,162.45901799999956,162.45901799999956,162.45901799999956,162.45901799999956,162.45901799999956,162.45901799999956,162.45901799999956,162.45901799999956,,004,P008,2025_Feb_01_1147,ConditionRich,2021.2.3,59.932204689692014,
122.0,122.75,22,0.75,Stimuli/P008/things_boar_04s.jpg,0,0,0.0,0,206,206,206,,,,,,,,,,,,,122.00701740000113,0.007017400001132046,None,162.692536999999,162.692536999999,162.692536999999,162.692536999999,162.692536999999,162.692536999999,162.692536999999,162.692536999999,162.692536999999,162.692536999999,,004,P008,2025_Feb_01_1147,ConditionRich,2021.2.3,59.932204689692014,
122.75,123.0,41,0.0,Stimuli/Blank.png,0,0,0.0,0,207,207,207,,,,,,,,,,,,,122.75708310000118,0.007083100001182174,None,163.44322269999975,163.44322269999975,163.44322269999975,163.44322269999975,163.44322269999975,163.44322269999975,163.44322269999975,163.44322269999975,163.44322269999975,163.44322269999975,,004,P008,2025_Feb_01_1147,ConditionRich,2021.2.3,59.932204689692014,
123.0,123.75,22,0.75,Stimuli/P008/things_boar_04s.jpg,0,0,0.0,0,208,208,208,,,,,,,,,,,,,123.0073052000007,0.0073052000007010065,None,163.69344669999919,163.69344669999919,163.69344669999919,163.69344669999919,163.69344669999919,163.69344669999919,163.69344669999919,163.69344669999919,163.69344669999919,163.69344669999919,,004,P008,2025_Feb_01_1147,ConditionRich,2021.2.3,59.932204689692014,
123.75,124.0,41,0.0,Stimuli/Blank.png,0,0,0.0,0,209,209,209,,,,,,,,,,,,,123.75781370000004,0.007813700000042445,None,164.44410699999935,164.44410699999935,164.44410699999935,164.44410699999935,164.44410699999935,164.44410699999935,164.44410699999935,164.44410699999935,164.44410699999935,164.44410699999935,,004,P008,2025_Feb_01_1147,ConditionRich,2021.2.3,59.932204689692014,
124.0,124.75,7,0.75,Stimuli/P008/sun_babhwrqvnhanonuy.jpg,0,0,0.0,0,210,210,210,,,,,,,,,,,,,124.00850209999953,0.00850209999953222,None,164.71102839999912,164.71102839999912,164.71102839999912,164.71102839999912,164.71102839999912,164.71102839999912,164.71102839999912,164.71102839999912,164.71102839999912,164.71102839999912,,004,P008,2025_Feb_01_1147,ConditionRich,2021.2.3,59.932204689692014,
124.75,125.0,41,0.0,Stimuli/Blank.png,0,0,0.0,0,211,211,211,,,,,,,,,,,,,124.77597750000132,0.02597750000131782,None,165.46167849999983,165.46167849999983,165.46167849999983,165.46167849999983,165.46167849999983,165.46167849999983,165.46167849999983,165.46167849999983,165.46167849999983,165.46167849999983,,004,P008,2025_Feb_01_1147,ConditionRich,2021.2.3,59.932204689692014,
125.0,125.75,7,0.75,Stimuli/P008/sun_babhwrqvnhanonuy.jpg,0,0,0.0,0,212,212,212,,,,,,,,,,,,,125.01090769999973,0.010907699999734177,None,165.7119150999988,165.7119150999988,165.7119150999988,165.7119150999988,165.7119150999988,165.7119150999988,165.7119150999988,165.7119150999988,165.7119150999988,165.7119150999988,,004,P008,2025_Feb_01_1147,ConditionRich,2021.2.3,59.932204689692014,
125.75,126.0,41,0.0,Stimuli/Blank.png,0,0,0.0,0,213,213,213,,,,,,,,,,,,,125.77720560000125,0.027205600001252606,None,166.4625724999987,166.4625724999987,166.4625724999987,166.4625724999987,166.4625724999987,166.4625724999987,166.4625724999987,166.4625724999987,166.4625724999987,166.4625724999987,,004,P008,2025_Feb_01_1147,ConditionRich,2021.2.3,59.932204689692014,
126.0,126.75,7,0.75,Stimuli/P008/sun_babhwrqvnhanonuy.jpg,0,0,0.0,0,214,214,214,,,,,,,,,,,,,126.01119110000036,0.011191100000360166,None,166.7128045999998,166.7128045999998,166.7128045999998,166.7128045999998,166.7128045999998,166.7128045999998,166.7128045999998,166.7128045999998,166.7128045999998,166.7128045999998,,004,P008,2025_Feb_01_1147,ConditionRich,2021.2.3,59.932204689692014,
126.75,127.0,41,0.0,Stimuli/Blank.png,0,0,0.0,0,215,215,215,,,,,,,,,,,,,126.77797880000071,0.02797880000071018,None,167.4634473999995,167.4634473999995,167.4634473999995,167.4634473999995,167.4634473999995,167.4634473999995,167.4634473999995,167.4634473999995,167.4634473999995,167.4634473999995,,004,P008,2025_Feb_01_1147,ConditionRich,2021.2.3,59.932204689692014,
127.0,127.75,7,0.75,Stimuli/P008/sun_babhwrqvnhanonuy.jpg,0,0,0.0,0,216,216,216,,,,,,,,,,,,,127.01151190000019,0.01151190000018687,None,167.7136630999994,167.7136630999994,167.7136630999994,167.7136630999994,167.7136630999994,167.7136630999994,167.7136630999994,167.7136630999994,167.7136630999994,167.7136630999994,,004,P008,2025_Feb_01_1147,ConditionRich,2021.2.3,59.932204689692014,
127.75,128.0,41,0.0,Stimuli/Blank.png,0,0,0.0,0,217,217,217,,,,,,,,,,,,,127.77804130000004,0.028041300000040792,None,168.46449589999975,168.46449589999975,168.46449589999975,168.46449589999975,168.46449589999975,168.46449589999975,168.46449589999975,168.46449589999975,168.46449589999975,168.46449589999975,,004,P008,2025_Feb_01_1147,ConditionRich,2021.2.3,59.932204689692014,
128.0,128.75,24,0.75,Stimuli/P008/things_collar_04s.jpg,0,0,0.0,0,218,218,218,,,,,,,,,,,,,128.01156810000066,0.011568100000658887,None,168.69787600000018,168.69787600000018,168.69787600000018,168.69787600000018,168.69787600000018,168.69787600000018,168.69787600000018,168.69787600000018,168.69787600000018,168.69787600000018,,004,P008,2025_Feb_01_1147,ConditionRich,2021.2.3,59.932204689692014,
128.75,129.0,41,0.0,Stimuli/Blank.png,0,0,0.0,0,219,219,219,,,,,,,,,,,,,128.76219219999984,0.012192199999844888,None,169.44854189999933,169.44854189999933,169.44854189999933,169.44854189999933,169.44854189999933,169.44854189999933,169.44854189999933,169.44854189999933,169.44854189999933,169.44854189999933,,004,P008,2025_Feb_01_1147,ConditionRich,2021.2.3,59.932204689692014,
129.0,129.75,24,0.75,Stimuli/P008/things_collar_04s.jpg,0,0,0.0,0,220,220,220,,,,,,,,,,,,,129.01333850000083,0.01333850000082748,None,169.7154413999997,169.7154413999997,169.7154413999997,169.7154413999997,169.7154413999997,169.7154413999997,169.7154413999997,169.7154413999997,169.7154413999997,169.7154413999997,,004,P008,2025_Feb_01_1147,ConditionRich,2021.2.3,59.932204689692014,
129.75,130.0,41,0.0,Stimuli/Blank.png,0,0,0.0,0,221,221,221,,,,,,,,,,,,,129.78064500000073,0.03064500000073167,None,170.4661004999998,170.4661004999998,170.4661004999998,170.4661004999998,170.4661004999998,170.4661004999998,170.4661004999998,170.4661004999998,170.4661004999998,170.4661004999998,,004,P008,2025_Feb_01_1147,ConditionRich,2021.2.3,59.932204689692014,
130.0,130.75,24,0.75,Stimuli/P008/things_collar_04s.jpg,0,0,0.0,0,222,222,222,,,,,,,,,,,,,130.01394129999971,0.013941299999714829,None,170.7163375,170.7163375,170.7163375,170.7163375,170.7163375,170.7163375,170.7163375,170.7163375,170.7163375,170.7163375,,004,P008,2025_Feb_01_1147,ConditionRich,2021.2.3,59.932204689692014,
130.75,131.0,41,0.0,Stimuli/Blank.png,0,0,0.0,0,223,223,223,,,,,,,,,,,,,130.78152410000075,0.03152410000075179,None,171.48368870000013,171.48368870000013,171.48368870000013,171.48368870000013,171.48368870000013,171.48368870000013,171.48368870000013,171.48368870000013,171.48368870000013,171.48368870000013,,004,P008,2025_Feb_01_1147,ConditionRich,2021.2.3,59.932204689692014,
131.0,131.75,24,0.75,Stimuli/P008/things_collar_04s.jpg,0,0,0.0,0,224,224,224,,,,,,,,,,,,,131.03103060000103,0.031030600001031416,None,171.7172111,171.7172111,171.7172111,171.7172111,171.7172111,171.7172111,171.7172111,171.7172111,171.7172111,171.7172111,,004,P008,2025_Feb_01_1147,ConditionRich,2021.2.3,59.932204689692014,
131.75,132.0,41,0.0,Stimuli/Blank.png,0,0,0.0,0,225,225,225,,,,,,,,,,,,,131.7655816000006,0.01558160000058706,None,172.45120229999884,172.45120229999884,172.45120229999884,172.45120229999884,172.45120229999884,172.45120229999884,172.45120229999884,172.45120229999884,172.45120229999884,172.45120229999884,,004,P008,2025_Feb_01_1147,ConditionRich,2021.2.3,59.932204689692014,
132.0,132.75,13,0.75,Stimuli/P008/sun_bkhuvtsqontzwtbo.jpg,0,0,0.0,0,226,226,226,,,,,,,,,,,,,132.0008560999995,0.0008560999995097518,None,172.70142399999895,172.70142399999895,172.70142399999895,172.70142399999895,172.70142399999895,172.70142399999895,172.70142399999895,172.70142399999895,172.70142399999895,172.70142399999895,,004,P008,2025_Feb_01_1147,ConditionRich,2021.2.3,59.932204689692014,
132.75,133.0,41,0.0,Stimuli/Blank.png,0,0,0.0,0,227,227,227,,,,,,,,,,,,,132.76656170000024,0.01656170000023849,None,173.45208549999916,173.45208549999916,173.45208549999916,173.45208549999916,173.45208549999916,173.45208549999916,173.45208549999916,173.45208549999916,173.45208549999916,173.45208549999916,,004,P008,2025_Feb_01_1147,ConditionRich,2021.2.3,59.932204689692014,
133.0,133.75,13,0.75,Stimuli/P008/sun_bkhuvtsqontzwtbo.jpg,0,0,0.0,0,228,228,228,,,,,,,,,,,,,133.00001510000038,1.5100000382517464e-05,None,173.68578519999937,173.68578519999937,173.68578519999937,173.68578519999937,173.68578519999937,173.68578519999937,173.68578519999937,173.68578519999937,173.68578519999937,173.68578519999937,,004,P008,2025_Feb_01_1147,ConditionRich,2021.2.3,59.932204689692014,
133.75,134.0,41,0.0,Stimuli/Blank.png,0,0,0.0,0,229,229,229,,,,,,,,,,,,,133.75143600000047,0.0014360000004671747,None,174.43629279999914,174.43629279999914,174.43629279999914,174.43629279999914,174.43629279999914,174.43629279999914,174.43629279999914,174.43629279999914,174.43629279999914,174.43629279999914,,004,P008,2025_Feb_01_1147,ConditionRich,2021.2.3,59.932204689692014,
134.0,134.75,13,0.75,Stimuli/P008/sun_bkhuvtsqontzwtbo.jpg,0,0,0.0,0,230,230,230,,,,,,,,,,,,,134.00171070000033,0.0017107000003306894,None,174.70319449999988,174.70319449999988,174.70319449999988,174.70319449999988,174.70319449999988,174.70319449999988,174.70319449999988,174.70319449999988,174.70319449999988,174.70319449999988,,004,P008,2025_Feb_01_1147,ConditionRich,2021.2.3,59.932204689692014,
134.75,135.0,41,0.0,Stimuli/Blank.png,0,0,0.0,0,231,231,231,,,,,,,,,,,,,134.7680042000011,0.018004200001087156,None,175.4538483999986,175.4538483999986,175.4538483999986,175.4538483999986,175.4538483999986,175.4538483999986,175.4538483999986,175.4538483999986,175.4538483999986,175.4538483999986,,004,P008,2025_Feb_01_1147,ConditionRich,2021.2.3,59.932204689692014,
135.0,135.75,13,0.75,Stimuli/P008/sun_bkhuvtsqontzwtbo.jpg,0,0,0.0,0,232,232,232,,,,,,,,,,,,,135.00213040000017,0.0021304000001691747,None,175.68738889999986,175.68738889999986,175.68738889999986,175.68738889999986,175.68738889999986,175.68738889999986,175.68738889999986,175.68738889999986,175.68738889999986,175.68738889999986,,004,P008,2025_Feb_01_1147,ConditionRich,2021.2.3,59.932204689692014,
135.75,136.0,41,0.0,Stimuli/Blank.png,0,0,0.0,0,233,233,233,,,,,,,,,,,,,135.75306749999982,0.0030674999998154817,None,176.4380626000002,176.4380626000002,176.4380626000002,176.4380626000002,176.4380626000002,176.4380626000002,176.4380626000002,176.4380626000002,176.4380626000002,176.4380626000002,,004,P008,2025_Feb_01_1147,ConditionRich,2021.2.3,59.932204689692014,
136.0,136.75,10,0.75,Stimuli/P008/sun_bdekcgnlcicvgpvq.jpg,0,0,0.0,0,234,234,234,,,,,,,,,,,,,136.00284900000042,0.0028490000004239846,None,176.7049195999989,176.7049195999989,176.7049195999989,176.7049195999989,176.7049195999989,176.7049195999989,176.7049195999989,176.7049195999989,176.7049195999989,176.7049195999989,,004,P008,2025_Feb_01_1147,ConditionRich,2021.2.3,59.932204689692014,
136.75,137.0,41,0.0,Stimuli/Blank.png,0,0,0.0,0,235,235,235,,,,,,,,,,,,,136.77214900000035,0.022149000000354135,None,177.47230990000025,177.47230990000025,177.47230990000025,177.47230990000025,177.47230990000025,177.47230990000025,177.47230990000025,177.47230990000025,177.47230990000025,177.47230990000025,,004,P008,2025_Feb_01_1147,ConditionRich,2021.2.3,59.932204689692014,
137.0,137.75,10,0.75,Stimuli/P008/sun_bdekcgnlcicvgpvq.jpg,0,0,0.0,0,236,236,236,,,,,,,,,,,,,137.02041280000049,0.02041280000048573,None,177.72251999999935,177.72251999999935,177.72251999999935,177.72251999999935,177.72251999999935,177.72251999999935,177.72251999999935,177.72251999999935,177.72251999999935,177.72251999999935,,004,P008,2025_Feb_01_1147,ConditionRich,2021.2.3,59.932204689692014,
137.75,138.0,41,0.0,Stimuli/Blank.png,0,0,0.0,0,237,237,237,,,,,,,,,,,,,137.77119610000045,0.021196100000452134,None,178.45652169999994,178.45652169999994,178.45652169999994,178.45652169999994,178.45652169999994,178.45652169999994,178.45652169999994,178.45652169999994,178.45652169999994,178.45652169999994,,004,P008,2025_Feb_01_1147,ConditionRich,2021.2.3,59.932204689692014,
138.0,138.75,10,0.75,Stimuli/P008/sun_bdekcgnlcicvgpvq.jpg,0,0,0.0,0,238,238,238,,,,,,,,,,,,,138.00509700000111,0.005097000001114793,None,178.70672469999954,178.70672469999954,178.70672469999954,178.70672469999954,178.70672469999954,178.70672469999954,178.70672469999954,178.70672469999954,178.70672469999954,178.70672469999954,,004,P008,2025_Feb_01_1147,ConditionRich,2021.2.3,59.932204689692014,
138.75,139.0,41,0.0,Stimuli/Blank.png,0,0,0.0,0,239,239,239,,,,,,,,,,,,,138.77177830000073,0.021778300000732997,None,179.45739259999937,179.45739259999937,179.45739259999937,179.45739259999937,179.45739259999937,179.45739259999937,179.45739259999937,179.45739259999937,179.45739259999937,179.45739259999937,,004,P008,2025_Feb_01_1147,ConditionRich,2021.2.3,59.932204689692014,
139.0,139.75,10,0.75,Stimuli/P008/sun_bdekcgnlcicvgpvq.jpg,0,0,0.0,0,240,240,240,,,,,,,,,,,,,139.0057357000005,0.0057357000005140435,None,179.7076133999999,179.7076133999999,179.7076133999999,179.7076133999999,179.7076133999999,179.7076133999999,179.7076133999999,179.7076133999999,179.7076133999999,179.7076133999999,,004,P008,2025_Feb_01_1147,ConditionRich,2021.2.3,59.932204689692014,
139.75,140.0,41,0.0,Stimuli/Blank.png,0,0,0.0,0,241,241,241,,,,,,,,,,,,,139.772681800001,0.022681800001009833,None,180.45828869999968,180.45828869999968,180.45828869999968,180.45828869999968,180.45828869999968,180.45828869999968,180.45828869999968,180.45828869999968,180.45828869999968,180.45828869999968,,004,P008,2025_Feb_01_1147,ConditionRich,2021.2.3,59.932204689692014,
140.0,140.75,36,0.75,Stimuli/P008/things_platypus_04s.jpg,0,0,0.0,0,242,242,242,,,,,,,,,,,,,140.00647720000052,0.006477200000517769,None,180.69181519999984,180.69181519999984,180.69181519999984,180.69181519999984,180.69181519999984,180.69181519999984,180.69181519999984,180.69181519999984,180.69181519999984,180.69181519999984,,004,P008,2025_Feb_01_1147,ConditionRich,2021.2.3,59.932204689692014,
140.75,141.0,41,0.0,Stimuli/Blank.png,0,0,0.0,0,243,243,243,,,,,,,,,,,,,140.75651730000027,0.006517300000268733,None,181.44247600000017,181.44247600000017,181.44247600000017,181.44247600000017,181.44247600000017,181.44247600000017,181.44247600000017,181.44247600000017,181.44247600000017,181.44247600000017,,004,P008,2025_Feb_01_1147,ConditionRich,2021.2.3,59.932204689692014,
141.0,141.75,36,0.75,Stimuli/P008/things_platypus_04s.jpg,0,0,0.0,0,244,244,244,,,,,,,,,,,,,141.0075764000012,0.0075764000011986354,None,181.70938579999893,181.70938579999893,181.70938579999893,181.70938579999893,181.70938579999893,181.70938579999893,181.70938579999893,181.70938579999893,181.70938579999893,181.70938579999893,,004,P008,2025_Feb_01_1147,ConditionRich,2021.2.3,59.932204689692014,
141.75,142.0,41,0.0,Stimuli/Blank.png,0,0,0.0,0,245,245,245,,,,,,,,,,,,,141.7759683000004,0.02596830000038608,None,182.47673880000002,182.47673880000002,182.47673880000002,182.47673880000002,182.47673880000002,182.47673880000002,182.47673880000002,182.47673880000002,182.47673880000002,182.47673880000002,,004,P008,2025_Feb_01_1147,ConditionRich,2021.2.3,59.932204689692014,
142.0,142.75,36,0.75,Stimuli/P008/things_platypus_04s.jpg,0,0,0.0,0,246,246,246,,,,,,,,,,,,,142.02549630000067,0.02549630000066827,None,182.72694619999857,182.72694619999857,182.72694619999857,182.72694619999857,182.72694619999857,182.72694619999857,182.72694619999857,182.72694619999857,182.72694619999857,182.72694619999857,,004,P008,2025_Feb_01_1147,ConditionRich,2021.2.3,59.932204689692014,
142.75,143.0,41,0.0,Stimuli/Blank.png,0,0,0.0,0,247,247,247,,,,,,,,,,,,,142.7754275999996,0.025427599999602535,None,183.46094110000013,183.46094110000013,183.46094110000013,183.46094110000013,183.46094110000013,183.46094110000013,183.46094110000013,183.46094110000013,183.46094110000013,183.46094110000013,,004,P008,2025_Feb_01_1147,ConditionRich,2021.2.3,59.932204689692014,
143.0,143.75,36,0.75,Stimuli/P008/things_platypus_04s.jpg,0,0,0.0,0,248,248,248,,,,,,,,,,,,,143.01073280000128,0.01073280000127852,None,183.71115879999888,183.71115879999888,183.71115879999888,183.71115879999888,183.71115879999888,183.71115879999888,183.71115879999888,183.71115879999888,183.71115879999888,183.71115879999888,,004,P008,2025_Feb_01_1147,ConditionRich,2021.2.3,59.932204689692014,
143.75,144.0,41,0.0,Stimuli/Blank.png,0,0,0.0,0,249,249,249,,,,,,,,,,,,,143.77628080000068,0.026280800000677118,None,184.46182399999998,184.46182399999998,184.46182399999998,184.46182399999998,184.46182399999998,184.46182399999998,184.46182399999998,184.46182399999998,184.46182399999998,184.46182399999998,,004,P008,2025_Feb_01_1147,ConditionRich,2021.2.3,59.932204689692014,
144.0,144.75,8,0.75,Stimuli/P008/sun_bbnepvzvycqjjczs.jpg,0,0,0.0,0,250,250,250,,,,,,,,,,,,,144.0110870999997,0.011087099999713246,None,184.7120550999989,184.7120550999989,184.7120550999989,184.7120550999989,184.7120550999989,184.7120550999989,184.7120550999989,184.7120550999989,184.7120550999989,184.7120550999989,,004,P008,2025_Feb_01_1147,ConditionRich,2021.2.3,59.932204689692014,
144.75,145.0,41,0.0,Stimuli/Blank.png,0,0,0.0,0,251,251,251,,,,,,,,,,,,,144.77657030000046,0.02657030000045779,None,185.4626970999998,185.4626970999998,185.4626970999998,185.4626970999998,185.4626970999998,185.4626970999998,185.4626970999998,185.4626970999998,185.4626970999998,185.4626970999998,,004,P008,2025_Feb_01_1147,ConditionRich,2021.2.3,59.932204689692014,
145.0,145.75,8,0.75,Stimuli/P008/sun_bbnepvzvycqjjczs.jpg,0,0,0.0,0,252,252,252,,,,,,,,,,,,,145.0113218000006,0.011321800000587245,None,185.71297269999923,185.71297269999923,185.71297269999923,185.71297269999923,185.71297269999923,185.71297269999923,185.71297269999923,185.71297269999923,185.71297269999923,185.71297269999923,,004,P008,2025_Feb_01_1147,ConditionRich,2021.2.3,59.932204689692014,
145.75,146.0,41,0.0,Stimuli/Blank.png,0,0,0.0,0,253,253,253,,,,,,,,,,,,,145.77798930000063,0.027989300000626827,None,186.4636663000001,186.4636663000001,186.4636663000001,186.4636663000001,186.4636663000001,186.4636663000001,186.4636663000001,186.4636663000001,186.4636663000001,186.4636663000001,,004,P008,2025_Feb_01_1147,ConditionRich,2021.2.3,59.932204689692014,
146.0,146.75,8,0.75,Stimuli/P008/sun_bbnepvzvycqjjczs.jpg,0,0,0.0,0,254,254,254,,,,,,,,,,,,,146.01149319999968,0.011493199999677017,None,186.71384769999895,186.71384769999895,186.71384769999895,186.71384769999895,186.71384769999895,186.71384769999895,186.71384769999895,186.71384769999895,186.71384769999895,186.71384769999895,,004,P008,2025_Feb_01_1147,ConditionRich,2021.2.3,59.932204689692014,
146.75,147.0,41,0.0,Stimuli/Blank.png,0,0,0.0,0,255,255,255,,,,,,,,,,,,,146.78118410000025,0.031184100000245962,None,187.4811592999995,187.4811592999995,187.4811592999995,187.4811592999995,187.4811592999995,187.4811592999995,187.4811592999995,187.4811592999995,187.4811592999995,187.4811592999995,,004,P008,2025_Feb_01_1147,ConditionRich,2021.2.3,59.932204689692014,
147.0,147.75,8,0.75,Stimuli/P008/sun_bbnepvzvycqjjczs.jpg,0,0,0.0,0,256,256,256,,,,,,,,,,,,,147.02832789999957,0.028327899999567308,None,187.73139929999888,187.73139929999888,187.73139929999888,187.73139929999888,187.73139929999888,187.73139929999888,187.73139929999888,187.73139929999888,187.73139929999888,187.73139929999888,,004,P008,2025_Feb_01_1147,ConditionRich,2021.2.3,59.932204689692014,
147.75,148.0,41,0.0,Stimuli/Blank.png,0,0,0.0,0,257,257,257,,,,,,,,,,,,,147.78203890000077,0.03203890000077081,None,188.48204619999888,188.48204619999888,188.48204619999888,188.48204619999888,188.48204619999888,188.48204619999888,188.48204619999888,188.48204619999888,188.48204619999888,188.48204619999888,,004,P008,2025_Feb_01_1147,ConditionRich,2021.2.3,59.932204689692014,
148.0,148.75,5,0.75,Stimuli/P008/sun_ayzkwnqsoiycbncn.jpg,0,0,0.0,0,258,258,258,,,,,,,,,,,,,148.03135680000014,0.03135680000013963,None,188.73228199999903,188.73228199999903,188.73228199999903,188.73228199999903,188.73228199999903,188.73228199999903,188.73228199999903,188.73228199999903,188.73228199999903,188.73228199999903,,004,P008,2025_Feb_01_1147,ConditionRich,2021.2.3,59.932204689692014,
148.75,149.0,41,0.0,Stimuli/Blank.png,0,0,0.0,0,259,259,259,,,,,,,,,,,,,148.78013199999987,0.03013199999986682,None,189.46623159999945,189.46623159999945,189.46623159999945,189.46623159999945,189.46623159999945,189.46623159999945,189.46623159999945,189.46623159999945,189.46623159999945,189.46623159999945,,004,P008,2025_Feb_01_1147,ConditionRich,2021.2.3,59.932204689692014,
149.0,149.75,5,0.75,Stimuli/P008/sun_ayzkwnqsoiycbncn.jpg,0,0,0.0,0,260,260,260,,,,,,,,,,,,,149.01560170000084,0.015601700000843266,None,189.71647069999926,189.71647069999926,189.71647069999926,189.71647069999926,189.71647069999926,189.71647069999926,189.71647069999926,189.71647069999926,189.71647069999926,189.71647069999926,,004,P008,2025_Feb_01_1147,ConditionRich,2021.2.3,59.932204689692014,
