eventStartTime,eventEndTime,eventCond,imSize,imFile,responseEvent,fixRespStart,fixRespEnd,Events.thisRepN,Events.thisTrialN,Events.thisN,Events.thisIndex,Instructions.started,Instructions.stopped,participantReadyResponse.keys,participantReadyResponse.rt,participantReadyResponse.started,participantReadyResponse.stopped,startWaitforTrigger,triggerResponse.keys,triggerResponse.rt,triggerResponse.started,triggerResponse.stopped,globalTimer,actualStartTime,startTimingDiff,participantResponse.keys,participantResponse.started,participantResponse.stopped,image.started,image.stopped,fixationOutside.started,fixationOutside.stopped,fixationResponse.started,fixationResponse.stopped,fixationInside.started,fixationInside.stopped,participantResponse.rt,session,participant,date,expName,psychopyVersion,frameRate,
,,,,,,,,,,,,12.218889199999467,None,2,14.652338300000338,12.218889199999467,None,,,,,,,,,,,,,,,,,,,,,007,P008,2025_Feb_01_1216,ConditionRich,2021.2.3,59.93838334156256,
,,,,,,,,,,,,,,,,,,26.878173299999617,5,13.548054499999125,26.891276299998935,None,,,,,,,,,,,,,,,,007,P008,2025_Feb_01_1216,ConditionRich,2021.2.3,59.93838334156256,
0.0,4.0,0,0.0,Stimuli/Blank.png,0,0,0.0,0,0,0,0,,,,,,,,,,,,40.4562150999991,0.05707389999952284,0.05707389999952284,None,40.53664559999925,None,40.53664559999925,None,40.53664559999925,None,40.53664559999925,40.53664559999925,40.53664559999925,None,,007,P008,2025_Feb_01_1216,ConditionRich,2021.2.3,59.93838334156256,
4.0,4.75,12,0.75,Stimuli/P008/sun_bitpmyvulluuasab.jpg,0,0,0.0,0,1,1,1,,,,,,,,,,,,,4.02169049999975,0.02169049999974959,None,44.50712079999903,44.50712079999903,44.50712079999903,44.50712079999903,44.50712079999903,44.50712079999903,44.50712079999903,44.50712079999903,44.50712079999903,44.50712079999903,,007,P008,2025_Feb_01_1216,ConditionRich,2021.2.3,59.93838334156256,
4.75,5.0,41,0.0,Stimuli/Blank.png,0,0,0.0,0,2,2,2,,,,,,,,,,,,,4.7700746999998955,0.02007469999989553,None,45.241128099998605,45.241128099998605,45.241128099998605,45.241128099998605,45.241128099998605,45.241128099998605,45.241128099998605,45.241128099998605,45.241128099998605,45.241128099998605,,007,P008,2025_Feb_01_1216,ConditionRich,2021.2.3,59.93838334156256,
5.0,5.75,12,0.75,Stimuli/P008/sun_bitpmyvulluuasab.jpg,0,0,0.0,0,3,3,3,,,,,,,,,,,,,5.004230099999404,0.004230099999404047,None,45.49104629999965,45.49104629999965,45.49104629999965,45.49104629999965,45.49104629999965,45.49104629999965,45.49104629999965,45.49104629999965,45.49104629999965,45.49104629999965,,007,P008,2025_Feb_01_1216,ConditionRich,2021.2.3,59.93838334156256,
5.75,6.0,41,0.0,Stimuli/Blank.png,0,0,0.0,0,4,4,4,,,,,,,,,,,,,5.773574999999255,0.023574999999254942,None,46.25837039999897,46.25837039999897,46.25837039999897,46.25837039999897,46.25837039999897,46.25837039999897,46.25837039999897,46.25837039999897,46.25837039999897,46.25837039999897,,007,P008,2025_Feb_01_1216,ConditionRich,2021.2.3,59.93838334156256,
6.0,6.75,12,0.75,Stimuli/P008/sun_bitpmyvulluuasab.jpg,0,0,0.0,0,5,5,5,,,,,,,,,,,,,6.021906999998464,0.021906999998464016,None,46.491908899999544,46.491908899999544,46.491908899999544,46.491908899999544,46.491908899999544,46.491908899999544,46.491908899999544,46.491908899999544,46.491908899999544,46.491908899999544,,007,P008,2025_Feb_01_1216,ConditionRich,2021.2.3,59.93838334156256,
6.75,7.0,41,0.0,Stimuli/Blank.png,0,0,0.0,0,6,6,6,,,,,,,,,,,,,6.7556839999997464,0.005683999999746447,None,47.225903700000345,47.225903700000345,47.225903700000345,47.225903700000345,47.225903700000345,47.225903700000345,47.225903700000345,47.225903700000345,47.225903700000345,47.225903700000345,,007,P008,2025_Feb_01_1216,ConditionRich,2021.2.3,59.93838334156256,
7.0,7.75,12,0.75,Stimuli/P008/sun_bitpmyvulluuasab.jpg,0,0,0.0,0,7,7,7,,,,,,,,,,,,,7.008399199999985,0.008399199999985285,None,47.49279749999914,47.49279749999914,47.49279749999914,47.49279749999914,47.49279749999914,47.49279749999914,47.49279749999914,47.49279749999914,47.49279749999914,47.49279749999914,,007,P008,2025_Feb_01_1216,ConditionRich,2021.2.3,59.93838334156256,
7.75,8.0,41,0.0,Stimuli/Blank.png,0,0,0.0,0,8,8,8,,,,,,,,,,,,,7.774177999999665,0.02417799999966519,None,48.24346119999973,48.24346119999973,48.24346119999973,48.24346119999973,48.24346119999973,48.24346119999973,48.24346119999973,48.24346119999973,48.24346119999973,48.24346119999973,,007,P008,2025_Feb_01_1216,ConditionRich,2021.2.3,59.93838334156256,
8.0,8.75,15,0.75,Stimuli/P008/sun_bmeductqpfkygtww.jpg,0,0,0.0,0,9,9,9,,,,,,,,,,,,,8.006548399998792,0.006548399998791865,None,48.47699359999933,48.47699359999933,48.47699359999933,48.47699359999933,48.47699359999933,48.47699359999933,48.47699359999933,48.47699359999933,48.47699359999933,48.47699359999933,,007,P008,2025_Feb_01_1216,ConditionRich,2021.2.3,59.93838334156256,
8.75,9.0,41,0.0,Stimuli/Blank.png,0,0,0.0,0,10,10,10,,,,,,,,,,,,,8.75989589999881,0.00989589999880991,None,49.244347599998946,49.244347599998946,49.244347599998946,49.244347599998946,49.244347599998946,49.244347599998946,49.244347599998946,49.244347599998946,49.244347599998946,49.244347599998946,,007,P008,2025_Feb_01_1216,ConditionRich,2021.2.3,59.93838334156256,
9.0,9.75,15,0.75,Stimuli/P008/sun_bmeductqpfkygtww.jpg,0,0,0.0,0,11,11,11,,,,,,,,,,,,,9.024431799998638,0.02443179999863787,None,49.49456479999935,49.49456479999935,49.49456479999935,49.49456479999935,49.49456479999935,49.49456479999935,49.49456479999935,49.49456479999935,49.49456479999935,49.49456479999935,,007,P008,2025_Feb_01_1216,ConditionRich,2021.2.3,59.93838334156256,
9.75,10.0,41,0.0,Stimuli/Blank.png,0,0,0.0,0,12,12,12,,,,,,,,,,,,,9.759356099999422,0.00935609999942244,None,50.2285555999988,50.2285555999988,50.2285555999988,50.2285555999988,50.2285555999988,50.2285555999988,50.2285555999988,50.2285555999988,50.2285555999988,50.2285555999988,,007,P008,2025_Feb_01_1216,ConditionRich,2021.2.3,59.93838334156256,
10.0,10.75,15,0.75,Stimuli/P008/sun_bmeductqpfkygtww.jpg,1,0,0.75,0,13,13,13,,,,,,,,,,,,,10.00794549999955,0.00794549999955052,2,50.4787680999998,50.4787680999998,50.4787680999998,50.4787680999998,50.4787680999998,50.4787680999998,50.4787680999998,51.21279359999971,50.4787680999998,50.4787680999998,0.4542929999988701,007,P008,2025_Feb_01_1216,ConditionRich,2021.2.3,59.93838334156256,
10.75,11.0,41,0.0,Stimuli/Blank.png,0,0,0.0,0,14,14,14,,,,,,,,,,,,,10.759791699998459,0.00979169999845908,None,51.24613019999924,51.24613019999924,51.24613019999924,51.24613019999924,51.24613019999924,51.24613019999924,51.24613019999924,51.24613019999924,51.24613019999924,51.24613019999924,,007,P008,2025_Feb_01_1216,ConditionRich,2021.2.3,59.93838334156256,
11.0,11.75,15,0.75,Stimuli/P008/sun_bmeductqpfkygtww.jpg,0,0,0.0,0,15,15,15,,,,,,,,,,,,,11.028303199998845,0.02830319999884523,None,51.51303949999965,51.51303949999965,51.51303949999965,51.51303949999965,51.51303949999965,51.51303949999965,51.51303949999965,51.51303949999965,51.51303949999965,51.51303949999965,,007,P008,2025_Feb_01_1216,ConditionRich,2021.2.3,59.93838334156256,
11.75,12.0,41,0.0,Stimuli/Blank.png,0,0,0.0,0,16,16,16,,,,,,,,,,,,,11.776316299999962,0.02631629999996221,None,52.24700490000032,52.24700490000032,52.24700490000032,52.24700490000032,52.24700490000032,52.24700490000032,52.24700490000032,52.24700490000032,52.24700490000032,52.24700490000032,,007,P008,2025_Feb_01_1216,ConditionRich,2021.2.3,59.93838334156256,
12.0,12.75,31,0.75,Stimuli/P008/things_jug_04s.jpg,0,0,0.0,0,17,17,17,,,,,,,,,,,,,12.009878399998343,0.009878399998342502,None,52.48054439999942,52.48054439999942,52.48054439999942,52.48054439999942,52.48054439999942,52.48054439999942,52.48054439999942,52.48054439999942,52.48054439999942,52.48054439999942,,007,P008,2025_Feb_01_1216,ConditionRich,2021.2.3,59.93838334156256,
12.75,13.0,41,0.0,Stimuli/Blank.png,0,0,0.0,0,18,18,18,,,,,,,,,,,,,12.760330199998862,0.010330199998861644,None,53.23120240000026,53.23120240000026,53.23120240000026,53.23120240000026,53.23120240000026,53.23120240000026,53.23120240000026,53.23120240000026,53.23120240000026,53.23120240000026,,007,P008,2025_Feb_01_1216,ConditionRich,2021.2.3,59.93838334156256,
13.0,13.75,31,0.75,Stimuli/P008/things_jug_04s.jpg,0,0,0.0,0,19,19,19,,,,,,,,,,,,,13.011148699999467,0.011148699999466771,None,53.49810989999969,53.49810989999969,53.49810989999969,53.49810989999969,53.49810989999969,53.49810989999969,53.49810989999969,53.49810989999969,53.49810989999969,53.49810989999969,,007,P008,2025_Feb_01_1216,ConditionRich,2021.2.3,59.93838334156256,
13.75,14.0,41,0.0,Stimuli/Blank.png,0,0,0.0,0,20,20,20,,,,,,,,,,,,,13.779142599998522,0.0291425999985222,None,54.248778199998924,54.248778199998924,54.248778199998924,54.248778199998924,54.248778199998924,54.248778199998924,54.248778199998924,54.248778199998924,54.248778199998924,54.248778199998924,,007,P008,2025_Feb_01_1216,ConditionRich,2021.2.3,59.93838334156256,
14.0,14.75,31,0.75,Stimuli/P008/things_jug_04s.jpg,0,0,0.0,0,21,21,21,,,,,,,,,,,,,14.01202159999957,0.012021599999570753,None,54.48231359999954,54.48231359999954,54.48231359999954,54.48231359999954,54.48231359999954,54.48231359999954,54.48231359999954,54.48231359999954,54.48231359999954,54.48231359999954,,007,P008,2025_Feb_01_1216,ConditionRich,2021.2.3,59.93838334156256,
14.75,15.0,41,0.0,Stimuli/Blank.png,0,0,0.0,0,22,22,22,,,,,,,,,,,,,14.762863399999333,0.012863399999332614,None,55.232976600000256,55.232976600000256,55.232976600000256,55.232976600000256,55.232976600000256,55.232976600000256,55.232976600000256,55.232976600000256,55.232976600000256,55.232976600000256,,007,P008,2025_Feb_01_1216,ConditionRich,2021.2.3,59.93838334156256,
15.0,15.75,31,0.75,Stimuli/P008/things_jug_04s.jpg,0,0,0.0,0,23,23,23,,,,,,,,,,,,,15.01302880000003,0.01302880000002915,None,55.49987089999922,55.49987089999922,55.49987089999922,55.49987089999922,55.49987089999922,55.49987089999922,55.49987089999922,55.49987089999922,55.49987089999922,55.49987089999922,,007,P008,2025_Feb_01_1216,ConditionRich,2021.2.3,59.93838334156256,
15.75,16.0,41,0.0,Stimuli/Blank.png,0,0,0.0,0,24,24,24,,,,,,,,,,,,,15.779683299999306,0.029683299999305746,None,56.25054040000032,56.25054040000032,56.25054040000032,56.25054040000032,56.25054040000032,56.25054040000032,56.25054040000032,56.25054040000032,56.25054040000032,56.25054040000032,,007,P008,2025_Feb_01_1216,ConditionRich,2021.2.3,59.93838334156256,
16.0,16.75,32,0.75,Stimuli/P008/things_maggot_04s.jpg,0,0,0.0,0,25,25,25,,,,,,,,,,,,,16.013871299999664,0.013871299999664188,None,56.48408319999908,56.48408319999908,56.48408319999908,56.48408319999908,56.48408319999908,56.48408319999908,56.48408319999908,56.48408319999908,56.48408319999908,56.48408319999908,,007,P008,2025_Feb_01_1216,ConditionRich,2021.2.3,59.93838334156256,
16.75,17.0,41,0.0,Stimuli/Blank.png,0,0,0.0,0,26,26,26,,,,,,,,,,,,,16.764565599998605,0.014565599998604739,None,57.23474199999873,57.23474199999873,57.23474199999873,57.23474199999873,57.23474199999873,57.23474199999873,57.23474199999873,57.23474199999873,57.23474199999873,57.23474199999873,,007,P008,2025_Feb_01_1216,ConditionRich,2021.2.3,59.93838334156256,
17.0,17.75,32,0.75,Stimuli/P008/things_maggot_04s.jpg,1,0,0.75,0,27,27,27,,,,,,,,,,,,,17.014817699999185,0.014817699999184697,2,57.48497489999863,57.48497489999863,57.48497489999863,57.48497489999863,57.48497489999863,57.48497489999863,57.48497489999863,58.2189486999996,57.48497489999863,57.48497489999863,0.3730990000003658,007,P008,2025_Feb_01_1216,ConditionRich,2021.2.3,59.93838334156256,
17.75,18.0,41,0.0,Stimuli/Blank.png,0,0,0.0,0,28,28,28,,,,,,,,,,,,,17.76540810000006,0.015408100000058766,None,58.23562219999985,58.23562219999985,58.23562219999985,58.23562219999985,58.23562219999985,58.23562219999985,58.23562219999985,58.23562219999985,58.23562219999985,58.23562219999985,,007,P008,2025_Feb_01_1216,ConditionRich,2021.2.3,59.93838334156256,
18.0,18.75,32,0.75,Stimuli/P008/things_maggot_04s.jpg,0,0,0.0,0,29,29,29,,,,,,,,,,,,,18.015037199998915,0.01503719999891473,None,58.48585639999874,58.48585639999874,58.48585639999874,58.48585639999874,58.48585639999874,58.48585639999874,58.48585639999874,58.48585639999874,58.48585639999874,58.48585639999874,,007,P008,2025_Feb_01_1216,ConditionRich,2021.2.3,59.93838334156256,
18.75,19.0,41,0.0,Stimuli/Blank.png,0,0,0.0,0,30,30,30,,,,,,,,,,,,,18.74966889999996,-0.0003311000000394415,None,59.220460299999104,59.220460299999104,59.220460299999104,59.220460299999104,59.220460299999104,59.220460299999104,59.220460299999104,59.220460299999104,59.220460299999104,59.220460299999104,,007,P008,2025_Feb_01_1216,ConditionRich,2021.2.3,59.93838334156256,
19.0,19.75,32,0.75,Stimuli/P008/things_maggot_04s.jpg,0,0,0.0,0,31,31,31,,,,,,,,,,,,,18.999241499999698,-0.0007585000003018649,None,59.47009059999982,59.47009059999982,59.47009059999982,59.47009059999982,59.47009059999982,59.47009059999982,59.47009059999982,59.47009059999982,59.47009059999982,59.47009059999982,,007,P008,2025_Feb_01_1216,ConditionRich,2021.2.3,59.93838334156256,
19.75,20.0,41,0.0,Stimuli/Blank.png,0,0,0.0,0,32,32,32,,,,,,,,,,,,,19.750545999999304,0.0005459999993036035,None,60.22072440000011,60.22072440000011,60.22072440000011,60.22072440000011,60.22072440000011,60.22072440000011,60.22072440000011,60.22072440000011,60.22072440000011,60.22072440000011,,007,P008,2025_Feb_01_1216,ConditionRich,2021.2.3,59.93838334156256,
20.0,20.75,38,0.75,Stimuli/P008/things_rollerblade_04s.jpg,0,0,0.0,0,33,33,33,,,,,,,,,,,,,20.00025049999931,0.0002504999993107049,None,60.48763820000022,60.48763820000022,60.48763820000022,60.48763820000022,60.48763820000022,60.48763820000022,60.48763820000022,60.48763820000022,60.48763820000022,60.48763820000022,,007,P008,2025_Feb_01_1216,ConditionRich,2021.2.3,59.93838334156256,
20.75,21.0,41,0.0,Stimuli/Blank.png,0,0,0.0,0,34,34,34,,,,,,,,,,,,,20.768975499999215,0.018975499999214662,None,61.23829259999911,61.23829259999911,61.23829259999911,61.23829259999911,61.23829259999911,61.23829259999911,61.23829259999911,61.23829259999911,61.23829259999911,61.23829259999911,,007,P008,2025_Feb_01_1216,ConditionRich,2021.2.3,59.93838334156256,
21.0,21.75,38,0.75,Stimuli/P008/things_rollerblade_04s.jpg,0,0,0.0,0,35,35,35,,,,,,,,,,,,,21.003722799998286,0.0037227999982860638,None,61.48851850000028,61.48851850000028,61.48851850000028,61.48851850000028,61.48851850000028,61.48851850000028,61.48851850000028,61.48851850000028,61.48851850000028,61.48851850000028,,007,P008,2025_Feb_01_1216,ConditionRich,2021.2.3,59.93838334156256,
21.75,22.0,41,0.0,Stimuli/Blank.png,0,0,0.0,0,36,36,36,,,,,,,,,,,,,21.769463499998892,0.019463499998892075,None,62.239181899998584,62.239181899998584,62.239181899998584,62.239181899998584,62.239181899998584,62.239181899998584,62.239181899998584,62.239181899998584,62.239181899998584,62.239181899998584,,007,P008,2025_Feb_01_1216,ConditionRich,2021.2.3,59.93838334156256,
22.0,22.75,38,0.75,Stimuli/P008/things_rollerblade_04s.jpg,0,0,0.0,0,37,37,37,,,,,,,,,,,,,22.003905399998985,0.003905399998984649,None,62.48940819999916,62.48940819999916,62.48940819999916,62.48940819999916,62.48940819999916,62.48940819999916,62.48940819999916,62.48940819999916,62.48940819999916,62.48940819999916,,007,P008,2025_Feb_01_1216,ConditionRich,2021.2.3,59.93838334156256,
22.75,23.0,41,0.0,Stimuli/Blank.png,0,0,0.0,0,38,38,38,,,,,,,,,,,,,22.769402099998842,0.01940209999884246,None,63.24006009999903,63.24006009999903,63.24006009999903,63.24006009999903,63.24006009999903,63.24006009999903,63.24006009999903,63.24006009999903,63.24006009999903,63.24006009999903,,007,P008,2025_Feb_01_1216,ConditionRich,2021.2.3,59.93838334156256,
23.0,23.75,38,0.75,Stimuli/P008/things_rollerblade_04s.jpg,0,0,0.0,0,39,39,39,,,,,,,,,,,,,23.004253199998857,0.004253199998856871,None,63.49028009999893,63.49028009999893,63.49028009999893,63.49028009999893,63.49028009999893,63.49028009999893,63.49028009999893,63.49028009999893,63.49028009999893,63.49028009999893,,007,P008,2025_Feb_01_1216,ConditionRich,2021.2.3,59.93838334156256,
23.75,24.0,41,0.0,Stimuli/Blank.png,0,0,0.0,0,40,40,40,,,,,,,,,,,,,23.770828199998505,0.020828199998504715,None,64.24094779999905,64.24094779999905,64.24094779999905,64.24094779999905,64.24094779999905,64.24094779999905,64.24094779999905,64.24094779999905,64.24094779999905,64.24094779999905,,007,P008,2025_Feb_01_1216,ConditionRich,2021.2.3,59.93838334156256,
24.0,24.75,7,0.75,Stimuli/P008/sun_babhwrqvnhanonuy.jpg,0,0,0.0,0,41,41,41,,,,,,,,,,,,,24.00368829999934,0.003688299999339506,None,64.47448489999988,64.47448489999988,64.47448489999988,64.47448489999988,64.47448489999988,64.47448489999988,64.47448489999988,64.47448489999988,64.47448489999988,64.47448489999988,,007,P008,2025_Feb_01_1216,ConditionRich,2021.2.3,59.93838334156256,
24.75,25.0,41,0.0,Stimuli/Blank.png,0,0,0.0,0,42,42,42,,,,,,,,,,,,,24.754573399999572,0.004573399999571848,None,65.22511789999953,65.22511789999953,65.22511789999953,65.22511789999953,65.22511789999953,65.22511789999953,65.22511789999953,65.22511789999953,65.22511789999953,65.22511789999953,,007,P008,2025_Feb_01_1216,ConditionRich,2021.2.3,59.93838334156256,
25.0,25.75,7,0.75,Stimuli/P008/sun_babhwrqvnhanonuy.jpg,0,0,0.0,0,43,43,43,,,,,,,,,,,,,25.00549839999985,0.0054983999998512445,None,65.49207039999965,65.49207039999965,65.49207039999965,65.49207039999965,65.49207039999965,65.49207039999965,65.49207039999965,65.49207039999965,65.49207039999965,65.49207039999965,,007,P008,2025_Feb_01_1216,ConditionRich,2021.2.3,59.93838334156256,
25.75,26.0,41,0.0,Stimuli/Blank.png,0,0,0.0,0,44,44,44,,,,,,,,,,,,,25.774033699999563,0.024033699999563396,None,66.25940449999871,66.25940449999871,66.25940449999871,66.25940449999871,66.25940449999871,66.25940449999871,66.25940449999871,66.25940449999871,66.25940449999871,66.25940449999871,,007,P008,2025_Feb_01_1216,ConditionRich,2021.2.3,59.93838334156256,
26.0,26.75,7,0.75,Stimuli/P008/sun_babhwrqvnhanonuy.jpg,1,0,0.75,0,45,45,45,,,,,,,,,,,,,26.022873799998706,0.02287379999870609,2,66.50963520000005,66.50963520000005,66.50963520000005,66.50963520000005,66.50963520000005,66.50963520000005,66.50963520000005,67.22701369999959,66.50963520000005,66.50963520000005,0.4244866000008187,007,P008,2025_Feb_01_1216,ConditionRich,2021.2.3,59.93838334156256,
26.75,27.0,41,0.0,Stimuli/Blank.png,0,0,0.0,0,46,46,46,,,,,,,,,,,,,26.77482019999843,0.024820199998430326,None,67.24361200000021,67.24361200000021,67.24361200000021,67.24361200000021,67.24361200000021,67.24361200000021,67.24361200000021,67.24361200000021,67.24361200000021,67.24361200000021,,007,P008,2025_Feb_01_1216,ConditionRich,2021.2.3,59.93838334156256,
27.0,27.75,7,0.75,Stimuli/P008/sun_babhwrqvnhanonuy.jpg,0,0,0.0,0,47,47,47,,,,,,,,,,,,,27.009589599998435,0.009589599998435006,None,67.49382329999935,67.49382329999935,67.49382329999935,67.49382329999935,67.49382329999935,67.49382329999935,67.49382329999935,67.49382329999935,67.49382329999935,67.49382329999935,,007,P008,2025_Feb_01_1216,ConditionRich,2021.2.3,59.93838334156256,
27.75,28.0,41,0.0,Stimuli/Blank.png,0,0,0.0,0,48,48,48,,,,,,,,,,,,,27.774220299999797,0.024220299999797135,None,68.24453379999977,68.24453379999977,68.24453379999977,68.24453379999977,68.24453379999977,68.24453379999977,68.24453379999977,68.24453379999977,68.24453379999977,68.24453379999977,,007,P008,2025_Feb_01_1216,ConditionRich,2021.2.3,59.93838334156256,
28.0,28.75,11,0.75,Stimuli/P008/sun_bdsriuscubkvzrmt.jpg,0,0,0.0,0,49,49,49,,,,,,,,,,,,,28.008383099999264,0.008383099999264232,None,68.47802640000009,68.47802640000009,68.47802640000009,68.47802640000009,68.47802640000009,68.47802640000009,68.47802640000009,68.47802640000009,68.47802640000009,68.47802640000009,,007,P008,2025_Feb_01_1216,ConditionRich,2021.2.3,59.93838334156256,
28.75,29.0,41,0.0,Stimuli/Blank.png,0,0,0.0,0,50,50,50,,,,,,,,,,,,,28.75783919999958,0.00783919999958016,None,69.22869340000034,69.22869340000034,69.22869340000034,69.22869340000034,69.22869340000034,69.22869340000034,69.22869340000034,69.22869340000034,69.22869340000034,69.22869340000034,,007,P008,2025_Feb_01_1216,ConditionRich,2021.2.3,59.93838334156256,
29.0,29.75,11,0.75,Stimuli/P008/sun_bdsriuscubkvzrmt.jpg,0,0,0.0,0,51,51,51,,,,,,,,,,,,,29.00873379999939,0.008733799999390612,None,69.47891960000015,69.47891960000015,69.47891960000015,69.47891960000015,69.47891960000015,69.47891960000015,69.47891960000015,69.47891960000015,69.47891960000015,69.47891960000015,,007,P008,2025_Feb_01_1216,ConditionRich,2021.2.3,59.93838334156256,
29.75,30.0,41,0.0,Stimuli/Blank.png,0,0,0.0,0,52,52,52,,,,,,,,,,,,,29.759552199999234,0.00955219999923429,None,70.22957270000006,70.22957270000006,70.22957270000006,70.22957270000006,70.22957270000006,70.22957270000006,70.22957270000006,70.22957270000006,70.22957270000006,70.22957270000006,,007,P008,2025_Feb_01_1216,ConditionRich,2021.2.3,59.93838334156256,
30.0,30.75,11,0.75,Stimuli/P008/sun_bdsriuscubkvzrmt.jpg,0,0,0.0,0,53,53,53,,,,,,,,,,,,,30.009709099998872,0.009709099998872261,None,70.4797927999989,70.4797927999989,70.4797927999989,70.4797927999989,70.4797927999989,70.4797927999989,70.4797927999989,70.4797927999989,70.4797927999989,70.4797927999989,,007,P008,2025_Feb_01_1216,ConditionRich,2021.2.3,59.93838334156256,
30.75,31.0,41,0.0,Stimuli/Blank.png,0,0,0.0,0,54,54,54,,,,,,,,,,,,,30.759744099999807,0.009744099999807077,None,71.23043429999962,71.23043429999962,71.23043429999962,71.23043429999962,71.23043429999962,71.23043429999962,71.23043429999962,71.23043429999962,71.23043429999962,71.23043429999962,,007,P008,2025_Feb_01_1216,ConditionRich,2021.2.3,59.93838334156256,
31.0,31.75,11,0.75,Stimuli/P008/sun_bdsriuscubkvzrmt.jpg,0,0,0.0,0,55,55,55,,,,,,,,,,,,,31.010827599999175,0.010827599999174709,None,71.49736269999994,71.49736269999994,71.49736269999994,71.49736269999994,71.49736269999994,71.49736269999994,71.49736269999994,71.49736269999994,71.49736269999994,71.49736269999994,,007,P008,2025_Feb_01_1216,ConditionRich,2021.2.3,59.93838334156256,
31.75,32.0,41,0.0,Stimuli/Blank.png,0,0,0.0,0,56,56,56,,,,,,,,,,,,,31.77805889999945,0.02805889999945066,None,72.24805790000028,72.24805790000028,72.24805790000028,72.24805790000028,72.24805790000028,72.24805790000028,72.24805790000028,72.24805790000028,72.24805790000028,72.24805790000028,,007,P008,2025_Feb_01_1216,ConditionRich,2021.2.3,59.93838334156256,
32.0,32.75,24,0.75,Stimuli/P008/things_collar_04s.jpg,0,0,0.0,0,57,57,57,,,,,,,,,,,,,32.011534199999005,0.011534199999005068,None,72.48156190000009,72.48156190000009,72.48156190000009,72.48156190000009,72.48156190000009,72.48156190000009,72.48156190000009,72.48156190000009,72.48156190000009,72.48156190000009,,007,P008,2025_Feb_01_1216,ConditionRich,2021.2.3,59.93838334156256,
32.75,33.0,41,0.0,Stimuli/Blank.png,0,0,0.0,0,58,58,58,,,,,,,,,,,,,32.76365749999968,0.013657499999681022,None,73.24893089999932,73.24893089999932,73.24893089999932,73.24893089999932,73.24893089999932,73.24893089999932,73.24893089999932,73.24893089999932,73.24893089999932,73.24893089999932,,007,P008,2025_Feb_01_1216,ConditionRich,2021.2.3,59.93838334156256,
33.0,33.75,24,0.75,Stimuli/P008/things_collar_04s.jpg,0,0,0.0,0,59,59,59,,,,,,,,,,,,,33.02941329999885,0.02941329999885056,None,73.49912889999905,73.49912889999905,73.49912889999905,73.49912889999905,73.49912889999905,73.49912889999905,73.49912889999905,73.49912889999905,73.49912889999905,73.49912889999905,,007,P008,2025_Feb_01_1216,ConditionRich,2021.2.3,59.93838334156256,
33.75,34.0,41,0.0,Stimuli/Blank.png,0,0,0.0,0,60,60,60,,,,,,,,,,,,,33.7632227999984,0.013222799998402479,None,74.23312470000019,74.23312470000019,74.23312470000019,74.23312470000019,74.23312470000019,74.23312470000019,74.23312470000019,74.23312470000019,74.23312470000019,74.23312470000019,,007,P008,2025_Feb_01_1216,ConditionRich,2021.2.3,59.93838334156256,
34.0,34.75,24,0.75,Stimuli/P008/things_collar_04s.jpg,0,0,0.0,0,61,61,61,,,,,,,,,,,,,34.01265339999918,0.012653399999180692,None,74.48333719999937,74.48333719999937,74.48333719999937,74.48333719999937,74.48333719999937,74.48333719999937,74.48333719999937,74.48333719999937,74.48333719999937,74.48333719999937,,007,P008,2025_Feb_01_1216,ConditionRich,2021.2.3,59.93838334156256,
34.75,35.0,41,0.0,Stimuli/Blank.png,0,0,0.0,0,62,62,62,,,,,,,,,,,,,34.76388749999933,0.013887499999327702,None,75.23400579999907,75.23400579999907,75.23400579999907,75.23400579999907,75.23400579999907,75.23400579999907,75.23400579999907,75.23400579999907,75.23400579999907,75.23400579999907,,007,P008,2025_Feb_01_1216,ConditionRich,2021.2.3,59.93838334156256,
35.0,35.75,24,0.75,Stimuli/P008/things_collar_04s.jpg,0,0,0.0,0,63,63,63,,,,,,,,,,,,,35.01413069999944,0.014130699999441276,None,75.50091809999867,75.50091809999867,75.50091809999867,75.50091809999867,75.50091809999867,75.50091809999867,75.50091809999867,75.50091809999867,75.50091809999867,75.50091809999867,,007,P008,2025_Feb_01_1216,ConditionRich,2021.2.3,59.93838334156256,
35.75,36.0,41,0.0,Stimuli/Blank.png,0,0,0.0,0,64,64,64,,,,,,,,,,,,,35.78339549999873,0.0333954999987327,None,76.26824789999955,76.26824789999955,76.26824789999955,76.26824789999955,76.26824789999955,76.26824789999955,76.26824789999955,76.26824789999955,76.26824789999955,76.26824789999955,,007,P008,2025_Feb_01_1216,ConditionRich,2021.2.3,59.93838334156256,
36.0,36.75,34,0.75,Stimuli/P008/things_moose_04s.jpg,0,0,0.0,0,65,65,65,,,,,,,,,,,,,36.01502429999891,0.015024299998913193,None,76.48511150000013,76.48511150000013,76.48511150000013,76.48511150000013,76.48511150000013,76.48511150000013,76.48511150000013,76.48511150000013,76.48511150000013,76.48511150000013,,007,P008,2025_Feb_01_1216,ConditionRich,2021.2.3,59.93838334156256,
36.75,37.0,41,0.0,Stimuli/Blank.png,0,0,0.0,0,66,66,66,,,,,,,,,,,,,36.749241799998345,-0.0007582000016554957,None,77.23579509999945,77.23579509999945,77.23579509999945,77.23579509999945,77.23579509999945,77.23579509999945,77.23579509999945,77.23579509999945,77.23579509999945,77.23579509999945,,007,P008,2025_Feb_01_1216,ConditionRich,2021.2.3,59.93838334156256,
37.0,37.75,34,0.75,Stimuli/P008/things_moose_04s.jpg,0,0,0.0,0,67,67,67,,,,,,,,,,,,,37.01560900000004,0.015609000000040396,None,77.50279549999868,77.50279549999868,77.50279549999868,77.50279549999868,77.50279549999868,77.50279549999868,77.50279549999868,77.50279549999868,77.50279549999868,77.50279549999868,,007,P008,2025_Feb_01_1216,ConditionRich,2021.2.3,59.93838334156256,
37.75,38.0,41,0.0,Stimuli/Blank.png,0,0,0.0,0,68,68,68,,,,,,,,,,,,,37.768306799998754,0.018306799998754286,None,78.25335180000002,78.25335180000002,78.25335180000002,78.25335180000002,78.25335180000002,78.25335180000002,78.25335180000002,78.25335180000002,78.25335180000002,78.25335180000002,,007,P008,2025_Feb_01_1216,ConditionRich,2021.2.3,59.93838334156256,
38.0,38.75,34,0.75,Stimuli/P008/things_moose_04s.jpg,0,0,0.0,0,69,69,69,,,,,,,,,,,,,38.0160821999998,0.01608219999980065,None,78.48687979999886,78.48687979999886,78.48687979999886,78.48687979999886,78.48687979999886,78.48687979999886,78.48687979999886,78.48687979999886,78.48687979999886,78.48687979999886,,007,P008,2025_Feb_01_1216,ConditionRich,2021.2.3,59.93838334156256,
38.75,39.0,41,0.0,Stimuli/Blank.png,0,0,0.0,0,70,70,70,,,,,,,,,,,,,38.750178099999175,0.00017809999917517416,None,79.22085559999869,79.22085559999869,79.22085559999869,79.22085559999869,79.22085559999869,79.22085559999869,79.22085559999869,79.22085559999869,79.22085559999869,79.22085559999869,,007,P008,2025_Feb_01_1216,ConditionRich,2021.2.3,59.93838334156256,
39.0,39.75,34,0.75,Stimuli/P008/things_moose_04s.jpg,0,0,0.0,0,71,71,71,,,,,,,,,,,,,39.0002201999996,0.00022019999960321002,None,79.48777239999981,79.48777239999981,79.48777239999981,79.48777239999981,79.48777239999981,79.48777239999981,79.48777239999981,79.48777239999981,79.48777239999981,79.48777239999981,,007,P008,2025_Feb_01_1216,ConditionRich,2021.2.3,59.93838334156256,
39.75,40.0,41,0.0,Stimuli/Blank.png,0,0,0.0,0,72,72,72,,,,,,,,,,,,,39.76813549999861,0.018135499998606974,None,80.23842799999875,80.23842799999875,80.23842799999875,80.23842799999875,80.23842799999875,80.23842799999875,80.23842799999875,80.23842799999875,80.23842799999875,80.23842799999875,,007,P008,2025_Feb_01_1216,ConditionRich,2021.2.3,59.93838334156256,
40.0,40.75,4,0.75,Stimuli/P008/sun_awqukazlzsxaokai.jpg,0,0,0.0,0,73,73,73,,,,,,,,,,,,,40.00181169999996,0.001811699999962002,None,80.48864929999945,80.48864929999945,80.48864929999945,80.48864929999945,80.48864929999945,80.48864929999945,80.48864929999945,80.48864929999945,80.48864929999945,80.48864929999945,,007,P008,2025_Feb_01_1216,ConditionRich,2021.2.3,59.93838334156256,
40.75,41.0,41,0.0,Stimuli/Blank.png,0,0,0.0,0,74,74,74,,,,,,,,,,,,,40.770115699999224,0.02011569999922358,None,81.25602119999894,81.25602119999894,81.25602119999894,81.25602119999894,81.25602119999894,81.25602119999894,81.25602119999894,81.25602119999894,81.25602119999894,81.25602119999894,,007,P008,2025_Feb_01_1216,ConditionRich,2021.2.3,59.93838334156256,
41.0,41.75,4,0.75,Stimuli/P008/sun_awqukazlzsxaokai.jpg,0,0,0.0,0,75,75,75,,,,,,,,,,,,,41.019539599999916,0.01953959999991639,None,81.48952889999964,81.48952889999964,81.48952889999964,81.48952889999964,81.48952889999964,81.48952889999964,81.48952889999964,81.48952889999964,81.48952889999964,81.48952889999964,,007,P008,2025_Feb_01_1216,ConditionRich,2021.2.3,59.93838334156256,
41.75,42.0,41,0.0,Stimuli/Blank.png,0,0,0.0,0,76,76,76,,,,,,,,,,,,,41.75325299999895,0.0032529999989492353,None,82.22351619999972,82.22351619999972,82.22351619999972,82.22351619999972,82.22351619999972,82.22351619999972,82.22351619999972,82.22351619999972,82.22351619999972,82.22351619999972,,007,P008,2025_Feb_01_1216,ConditionRich,2021.2.3,59.93838334156256,
42.0,42.75,4,0.75,Stimuli/P008/sun_awqukazlzsxaokai.jpg,0,0,0.0,0,77,77,77,,,,,,,,,,,,,42.00370599999951,0.003705999999510823,None,82.47373349999907,82.47373349999907,82.47373349999907,82.47373349999907,82.47373349999907,82.47373349999907,82.47373349999907,82.47373349999907,82.47373349999907,82.47373349999907,,007,P008,2025_Feb_01_1216,ConditionRich,2021.2.3,59.93838334156256,
42.75,43.0,41,0.0,Stimuli/Blank.png,0,0,0.0,0,78,78,78,,,,,,,,,,,,,42.75440029999845,0.0044002999984513735,None,83.22440370000004,83.22440370000004,83.22440370000004,83.22440370000004,83.22440370000004,83.22440370000004,83.22440370000004,83.22440370000004,83.22440370000004,83.22440370000004,,007,P008,2025_Feb_01_1216,ConditionRich,2021.2.3,59.93838334156256,
43.0,43.75,4,0.75,Stimuli/P008/sun_awqukazlzsxaokai.jpg,0,0,0.0,0,79,79,79,,,,,,,,,,,,,43.00392049999937,0.003920499999367166,None,83.47462439999981,83.47462439999981,83.47462439999981,83.47462439999981,83.47462439999981,83.47462439999981,83.47462439999981,83.47462439999981,83.47462439999981,83.47462439999981,,007,P008,2025_Feb_01_1216,ConditionRich,2021.2.3,59.93838334156256,
43.75,44.0,41,0.0,Stimuli/Blank.png,0,0,0.0,0,80,80,80,,,,,,,,,,,,,43.75545469999997,0.005454699999972945,None,84.22528869999951,84.22528869999951,84.22528869999951,84.22528869999951,84.22528869999951,84.22528869999951,84.22528869999951,84.22528869999951,84.22528869999951,84.22528869999951,,007,P008,2025_Feb_01_1216,ConditionRich,2021.2.3,59.93838334156256,
44.0,44.75,19,0.75,Stimuli/P008/sun_brpfgrmubnnjvfkw.jpg,1,0,0.75,0,81,81,81,,,,,,,,,,,,,44.00547249999909,0.005472499999086722,2,84.49220549999882,84.49220549999882,84.49220549999882,84.49220549999882,84.49220549999882,84.49220549999882,84.49220549999882,85.20948089999911,84.49220549999882,84.49220549999882,0.408952900001168,007,P008,2025_Feb_01_1216,ConditionRich,2021.2.3,59.93838334156256,
44.75,45.0,41,0.0,Stimuli/Blank.png,0,0,0.0,0,82,82,82,,,,,,,,,,,,,44.773284499999136,0.023284499999135733,None,85.24285810000038,85.24285810000038,85.24285810000038,85.24285810000038,85.24285810000038,85.24285810000038,85.24285810000038,85.24285810000038,85.24285810000038,85.24285810000038,,007,P008,2025_Feb_01_1216,ConditionRich,2021.2.3,59.93838334156256,
45.0,45.75,19,0.75,Stimuli/P008/sun_brpfgrmubnnjvfkw.jpg,0,0,0.0,0,83,83,83,,,,,,,,,,,,,45.00609559999975,0.006095599999753176,None,85.47639100000015,85.47639100000015,85.47639100000015,85.47639100000015,85.47639100000015,85.47639100000015,85.47639100000015,85.47639100000015,85.47639100000015,85.47639100000015,,007,P008,2025_Feb_01_1216,ConditionRich,2021.2.3,59.93838334156256,
45.75,46.0,41,0.0,Stimuli/Blank.png,0,0,0.0,0,84,84,84,,,,,,,,,,,,,45.75850899999932,0.008508999999321532,None,86.24373849999938,86.24373849999938,86.24373849999938,86.24373849999938,86.24373849999938,86.24373849999938,86.24373849999938,86.24373849999938,86.24373849999938,86.24373849999938,,007,P008,2025_Feb_01_1216,ConditionRich,2021.2.3,59.93838334156256,
46.0,46.75,19,0.75,Stimuli/P008/sun_brpfgrmubnnjvfkw.jpg,0,0,0.0,0,85,85,85,,,,,,,,,,,,,46.02397889999884,0.023978899998837733,None,86.49396089999937,86.49396089999937,86.49396089999937,86.49396089999937,86.49396089999937,86.49396089999937,86.49396089999937,86.49396089999937,86.49396089999937,86.49396089999937,,007,P008,2025_Feb_01_1216,ConditionRich,2021.2.3,59.93838334156256,
46.75,47.0,41,0.0,Stimuli/Blank.png,0,0,0.0,0,86,86,86,,,,,,,,,,,,,46.757998600000064,0.00799860000006447,None,87.22795339999902,87.22795339999902,87.22795339999902,87.22795339999902,87.22795339999902,87.22795339999902,87.22795339999902,87.22795339999902,87.22795339999902,87.22795339999902,,007,P008,2025_Feb_01_1216,ConditionRich,2021.2.3,59.93838334156256,
47.0,47.75,19,0.75,Stimuli/P008/sun_brpfgrmubnnjvfkw.jpg,0,0,0.0,0,87,87,87,,,,,,,,,,,,,47.00806409999859,0.0080640999985917,None,87.49484630000006,87.49484630000006,87.49484630000006,87.49484630000006,87.49484630000006,87.49484630000006,87.49484630000006,87.49484630000006,87.49484630000006,87.49484630000006,,007,P008,2025_Feb_01_1216,ConditionRich,2021.2.3,59.93838334156256,
47.75,48.0,41,0.0,Stimuli/Blank.png,0,0,0.0,0,88,88,88,,,,,,,,,,,,,47.77535579999858,0.025355799998578732,None,88.245497599999,88.245497599999,88.245497599999,88.245497599999,88.245497599999,88.245497599999,88.245497599999,88.245497599999,88.245497599999,88.245497599999,,007,P008,2025_Feb_01_1216,ConditionRich,2021.2.3,59.93838334156256,
48.0,48.75,26,0.75,Stimuli/P008/things_face_04s.jpg,0,0,0.0,0,89,89,89,,,,,,,,,,,,,48.008211200000005,0.008211200000005192,None,88.47905480000009,88.47905480000009,88.47905480000009,88.47905480000009,88.47905480000009,88.47905480000009,88.47905480000009,88.47905480000009,88.47905480000009,88.47905480000009,,007,P008,2025_Feb_01_1216,ConditionRich,2021.2.3,59.93838334156256,
48.75,49.0,41,0.0,Stimuli/Blank.png,0,0,0.0,0,90,90,90,,,,,,,,,,,,,48.75886360000004,0.008863600000040606,None,89.22974819999945,89.22974819999945,89.22974819999945,89.22974819999945,89.22974819999945,89.22974819999945,89.22974819999945,89.22974819999945,89.22974819999945,89.22974819999945,,007,P008,2025_Feb_01_1216,ConditionRich,2021.2.3,59.93838334156256,
49.0,49.75,26,0.75,Stimuli/P008/things_face_04s.jpg,0,0,0.0,0,91,91,91,,,,,,,,,,,,,49.00972389999879,0.00972389999878942,None,89.47993499999939,89.47993499999939,89.47993499999939,89.47993499999939,89.47993499999939,89.47993499999939,89.47993499999939,89.47993499999939,89.47993499999939,89.47993499999939,,007,P008,2025_Feb_01_1216,ConditionRich,2021.2.3,59.93838334156256,
49.75,50.0,41,0.0,Stimuli/Blank.png,0,0,0.0,0,92,92,92,,,,,,,,,,,,,49.75982609999846,0.009826099998463178,None,90.23059379999904,90.23059379999904,90.23059379999904,90.23059379999904,90.23059379999904,90.23059379999904,90.23059379999904,90.23059379999904,90.23059379999904,90.23059379999904,,007,P008,2025_Feb_01_1216,ConditionRich,2021.2.3,59.93838334156256,
50.0,50.75,26,0.75,Stimuli/P008/things_face_04s.jpg,0,0,0.0,0,93,93,93,,,,,,,,,,,,,50.0106324999997,0.010632499999701395,None,90.49751689999903,90.49751689999903,90.49751689999903,90.49751689999903,90.49751689999903,90.49751689999903,90.49751689999903,90.49751689999903,90.49751689999903,90.49751689999903,,007,P008,2025_Feb_01_1216,ConditionRich,2021.2.3,59.93838334156256,
50.75,51.0,41,0.0,Stimuli/Blank.png,0,0,0.0,0,94,94,94,,,,,,,,,,,,,50.77821069999845,0.028210699998453492,None,91.24817559999974,91.24817559999974,91.24817559999974,91.24817559999974,91.24817559999974,91.24817559999974,91.24817559999974,91.24817559999974,91.24817559999974,91.24817559999974,,007,P008,2025_Feb_01_1216,ConditionRich,2021.2.3,59.93838334156256,
51.0,51.75,26,0.75,Stimuli/P008/things_face_04s.jpg,0,0,0.0,0,95,95,95,,,,,,,,,,,,,51.01395319999938,0.01395319999937783,None,91.49838540000019,91.49838540000019,91.49838540000019,91.49838540000019,91.49838540000019,91.49838540000019,91.49838540000019,91.49838540000019,91.49838540000019,91.49838540000019,,007,P008,2025_Feb_01_1216,ConditionRich,2021.2.3,59.93838334156256,
51.75,52.0,41,0.0,Stimuli/Blank.png,0,0,0.0,0,96,96,96,,,,,,,,,,,,,51.77895929999977,0.028959299999769428,None,92.24906219999866,92.24906219999866,92.24906219999866,92.24906219999866,92.24906219999866,92.24906219999866,92.24906219999866,92.24906219999866,92.24906219999866,92.24906219999866,,007,P008,2025_Feb_01_1216,ConditionRich,2021.2.3,59.93838334156256,
52.0,52.75,29,0.75,Stimuli/P008/things_hawk_04s.jpg,0,0,0.0,0,97,97,97,,,,,,,,,,,,,52.01484779999919,0.014847799999188283,None,92.4992743999992,92.4992743999992,92.4992743999992,92.4992743999992,92.4992743999992,92.4992743999992,92.4992743999992,92.4992743999992,92.4992743999992,92.4992743999992,,007,P008,2025_Feb_01_1216,ConditionRich,2021.2.3,59.93838334156256,
52.75,53.0,41,0.0,Stimuli/Blank.png,0,0,0.0,0,98,98,98,,,,,,,,,,,,,52.77902929999982,0.02902929999982007,None,93.2499329000002,93.2499329000002,93.2499329000002,93.2499329000002,93.2499329000002,93.2499329000002,93.2499329000002,93.2499329000002,93.2499329000002,93.2499329000002,,007,P008,2025_Feb_01_1216,ConditionRich,2021.2.3,59.93838334156256,
53.0,53.75,29,0.75,Stimuli/P008/things_hawk_04s.jpg,0,0,0.0,0,99,99,99,,,,,,,,,,,,,53.01310249999915,0.013102499999149586,None,93.48349450000023,93.48349450000023,93.48349450000023,93.48349450000023,93.48349450000023,93.48349450000023,93.48349450000023,93.48349450000023,93.48349450000023,93.48349450000023,,007,P008,2025_Feb_01_1216,ConditionRich,2021.2.3,59.93838334156256,
53.75,54.0,41,0.0,Stimuli/Blank.png,0,0,0.0,0,100,100,100,,,,,,,,,,,,,53.765247699999236,0.01524769999923592,None,94.23415240000031,94.23415240000031,94.23415240000031,94.23415240000031,94.23415240000031,94.23415240000031,94.23415240000031,94.23415240000031,94.23415240000031,94.23415240000031,,007,P008,2025_Feb_01_1216,ConditionRich,2021.2.3,59.93838334156256,
54.0,54.75,29,0.75,Stimuli/P008/things_hawk_04s.jpg,0,0,0.0,0,101,101,101,,,,,,,,,,,,,54.01362219999828,0.013622199998280848,None,94.48436889999903,94.48436889999903,94.48436889999903,94.48436889999903,94.48436889999903,94.48436889999903,94.48436889999903,94.48436889999903,94.48436889999903,94.48436889999903,,007,P008,2025_Feb_01_1216,ConditionRich,2021.2.3,59.93838334156256,
54.75,55.0,41,0.0,Stimuli/Blank.png,0,0,0.0,0,102,102,102,,,,,,,,,,,,,54.76457239999945,0.01457239999945159,None,95.23503319999872,95.23503319999872,95.23503319999872,95.23503319999872,95.23503319999872,95.23503319999872,95.23503319999872,95.23503319999872,95.23503319999872,95.23503319999872,,007,P008,2025_Feb_01_1216,ConditionRich,2021.2.3,59.93838334156256,
55.0,55.75,29,0.75,Stimuli/P008/things_hawk_04s.jpg,0,0,0.0,0,103,103,103,,,,,,,,,,,,,55.016141099999004,0.016141099999003927,None,95.50206029999936,95.50206029999936,95.50206029999936,95.50206029999936,95.50206029999936,95.50206029999936,95.50206029999936,95.50206029999936,95.50206029999936,95.50206029999936,,007,P008,2025_Feb_01_1216,ConditionRich,2021.2.3,59.93838334156256,
55.75,56.0,41,0.0,Stimuli/Blank.png,0,0,0.0,0,104,104,104,,,,,,,,,,,,,55.76506599999993,0.01506599999993341,None,96.23590890000014,96.23590890000014,96.23590890000014,96.23590890000014,96.23590890000014,96.23590890000014,96.23590890000014,96.23590890000014,96.23590890000014,96.23590890000014,,007,P008,2025_Feb_01_1216,ConditionRich,2021.2.3,59.93838334156256,
56.0,56.75,9,0.75,Stimuli/P008/sun_bcsqogieozpyvuft.jpg,0,0,0.0,0,105,105,105,,,,,,,,,,,,,56.017240299999685,0.017240299999684794,None,96.50280529999873,96.50280529999873,96.50280529999873,96.50280529999873,96.50280529999873,96.50280529999873,96.50280529999873,96.50280529999873,96.50280529999873,96.50280529999873,,007,P008,2025_Feb_01_1216,ConditionRich,2021.2.3,59.93838334156256,
56.75,57.0,41,0.0,Stimuli/Blank.png,0,0,0.0,0,106,106,106,,,,,,,,,,,,,56.766839699999764,0.01683969999976398,None,97.23680260000037,97.23680260000037,97.23680260000037,97.23680260000037,97.23680260000037,97.23680260000037,97.23680260000037,97.23680260000037,97.23680260000037,97.23680260000037,,007,P008,2025_Feb_01_1216,ConditionRich,2021.2.3,59.93838334156256,
57.0,57.75,9,0.75,Stimuli/P008/sun_bcsqogieozpyvuft.jpg,1,0,0.75,0,107,107,107,,,,,,,,,,,,,57.00017369999841,0.0001736999984132126,2,97.4869820999993,97.4869820999993,97.4869820999993,97.4869820999993,97.4869820999993,97.4869820999993,97.4869820999993,98.20432069999879,97.4869820999993,97.4869820999993,0.39622140000028594,007,P008,2025_Feb_01_1216,ConditionRich,2021.2.3,59.93838334156256,
57.75,58.0,41,0.0,Stimuli/Blank.png,0,0,0.0,0,108,108,108,,,,,,,,,,,,,57.769093599999906,0.019093599999905564,None,98.25436319999972,98.25436319999972,98.25436319999972,98.25436319999972,98.25436319999972,98.25436319999972,98.25436319999972,98.25436319999972,98.25436319999972,98.25436319999972,,007,P008,2025_Feb_01_1216,ConditionRich,2021.2.3,59.93838334156256,
58.0,58.75,9,0.75,Stimuli/P008/sun_bcsqogieozpyvuft.jpg,0,0,0.0,0,109,109,109,,,,,,,,,,,,,58.01798289999897,0.017982899998969515,None,98.50458389999949,98.50458389999949,98.50458389999949,98.50458389999949,98.50458389999949,98.50458389999949,98.50458389999949,98.50458389999949,98.50458389999949,98.50458389999949,,007,P008,2025_Feb_01_1216,ConditionRich,2021.2.3,59.93838334156256,
58.75,59.0,41,0.0,Stimuli/Blank.png,0,0,0.0,0,110,110,110,,,,,,,,,,,,,58.768059099998936,0.01805909999893629,None,99.23856239999986,99.23856239999986,99.23856239999986,99.23856239999986,99.23856239999986,99.23856239999986,99.23856239999986,99.23856239999986,99.23856239999986,99.23856239999986,,007,P008,2025_Feb_01_1216,ConditionRich,2021.2.3,59.93838334156256,
59.0,59.75,9,0.75,Stimuli/P008/sun_bcsqogieozpyvuft.jpg,0,0,0.0,0,111,111,111,,,,,,,,,,,,,59.003594099998736,0.0035940999987360556,None,99.48879639999905,99.48879639999905,99.48879639999905,99.48879639999905,99.48879639999905,99.48879639999905,99.48879639999905,99.48879639999905,99.48879639999905,99.48879639999905,,007,P008,2025_Feb_01_1216,ConditionRich,2021.2.3,59.93838334156256,
59.75,60.0,41,0.0,Stimuli/Blank.png,0,0,0.0,0,112,112,112,,,,,,,,,,,,,59.76944379999986,0.019443799999862676,None,100.23945889999959,100.23945889999959,100.23945889999959,100.23945889999959,100.23945889999959,100.23945889999959,100.23945889999959,100.23945889999959,100.23945889999959,100.23945889999959,,007,P008,2025_Feb_01_1216,ConditionRich,2021.2.3,59.93838334156256,
60.0,60.75,5,0.75,Stimuli/P008/sun_ayzkwnqsoiycbncn.jpg,0,0,0.0,0,113,113,113,,,,,,,,,,,,,60.002750199999355,0.0027501999993546633,None,100.47298889999911,100.47298889999911,100.47298889999911,100.47298889999911,100.47298889999911,100.47298889999911,100.47298889999911,100.47298889999911,100.47298889999911,100.47298889999911,,007,P008,2025_Feb_01_1216,ConditionRich,2021.2.3,59.93838334156256,
60.75,61.0,41,0.0,Stimuli/Blank.png,0,0,0.0,0,114,114,114,,,,,,,,,,,,,60.754504099999394,0.004504099999394384,None,101.22366039999906,101.22366039999906,101.22366039999906,101.22366039999906,101.22366039999906,101.22366039999906,101.22366039999906,101.22366039999906,101.22366039999906,101.22366039999906,,007,P008,2025_Feb_01_1216,ConditionRich,2021.2.3,59.93838334156256,
61.0,61.75,5,0.75,Stimuli/P008/sun_ayzkwnqsoiycbncn.jpg,0,0,0.0,0,115,115,115,,,,,,,,,,,,,61.004060899998876,0.004060899998876266,None,101.49057079999875,101.49057079999875,101.49057079999875,101.49057079999875,101.49057079999875,101.49057079999875,101.49057079999875,101.49057079999875,101.49057079999875,101.49057079999875,,007,P008,2025_Feb_01_1216,ConditionRich,2021.2.3,59.93838334156256,
61.75,62.0,41,0.0,Stimuli/Blank.png,0,0,0.0,0,116,116,116,,,,,,,,,,,,,61.77113079999981,0.021130799999809824,None,102.24129129999892,102.24129129999892,102.24129129999892,102.24129129999892,102.24129129999892,102.24129129999892,102.24129129999892,102.24129129999892,102.24129129999892,102.24129129999892,,007,P008,2025_Feb_01_1216,ConditionRich,2021.2.3,59.93838334156256,
62.0,62.75,5,0.75,Stimuli/P008/sun_ayzkwnqsoiycbncn.jpg,0,0,0.0,0,117,117,117,,,,,,,,,,,,,62.0042756999992,0.004275699999197968,None,102.47476929999902,102.47476929999902,102.47476929999902,102.47476929999902,102.47476929999902,102.47476929999902,102.47476929999902,102.47476929999902,102.47476929999902,102.47476929999902,,007,P008,2025_Feb_01_1216,ConditionRich,2021.2.3,59.93838334156256,
62.75,63.0,41,0.0,Stimuli/Blank.png,0,0,0.0,0,118,118,118,,,,,,,,,,,,,62.75557519999893,0.005575199998929747,None,103.22540189999927,103.22540189999927,103.22540189999927,103.22540189999927,103.22540189999927,103.22540189999927,103.22540189999927,103.22540189999927,103.22540189999927,103.22540189999927,,007,P008,2025_Feb_01_1216,ConditionRich,2021.2.3,59.93838334156256,
63.0,63.75,5,0.75,Stimuli/P008/sun_ayzkwnqsoiycbncn.jpg,0,0,0.0,0,119,119,119,,,,,,,,,,,,,63.0049229999986,0.004922999998598243,None,103.47563959999934,103.47563959999934,103.47563959999934,103.47563959999934,103.47563959999934,103.47563959999934,103.47563959999934,103.47563959999934,103.47563959999934,103.47563959999934,,007,P008,2025_Feb_01_1216,ConditionRich,2021.2.3,59.93838334156256,
63.75,64.0,41,0.0,Stimuli/Blank.png,0,0,0.0,0,120,120,120,,,,,,,,,,,,,63.7563029999983,0.0063029999982973095,None,104.22629649999908,104.22629649999908,104.22629649999908,104.22629649999908,104.22629649999908,104.22629649999908,104.22629649999908,104.22629649999908,104.22629649999908,104.22629649999908,,007,P008,2025_Feb_01_1216,ConditionRich,2021.2.3,59.93838334156256,
64.0,64.75,14,0.75,Stimuli/P008/sun_bkvjqgmploznrhxt.jpg,0,0,0.0,0,121,121,121,,,,,,,,,,,,,64.00847559999966,0.00847559999965597,None,104.49321439999949,104.49321439999949,104.49321439999949,104.49321439999949,104.49321439999949,104.49321439999949,104.49321439999949,104.49321439999949,104.49321439999949,104.49321439999949,,007,P008,2025_Feb_01_1216,ConditionRich,2021.2.3,59.93838334156256,
64.75,65.0,41,0.0,Stimuli/Blank.png,0,0,0.0,0,122,122,122,,,,,,,,,,,,,64.77411549999852,0.024115499998515588,None,105.24388849999923,105.24388849999923,105.24388849999923,105.24388849999923,105.24388849999923,105.24388849999923,105.24388849999923,105.24388849999923,105.24388849999923,105.24388849999923,,007,P008,2025_Feb_01_1216,ConditionRich,2021.2.3,59.93838334156256,
65.0,65.75,14,0.75,Stimuli/P008/sun_bkvjqgmploznrhxt.jpg,0,0,0.0,0,123,123,123,,,,,,,,,,,,,65.00871869999901,0.008718699999008095,None,105.49410199999875,105.49410199999875,105.49410199999875,105.49410199999875,105.49410199999875,105.49410199999875,105.49410199999875,105.49410199999875,105.49410199999875,105.49410199999875,,007,P008,2025_Feb_01_1216,ConditionRich,2021.2.3,59.93838334156256,
65.75,66.0,41,0.0,Stimuli/Blank.png,0,0,0.0,0,124,124,124,,,,,,,,,,,,,65.77486209999915,0.024862099999154452,None,106.2447615000001,106.2447615000001,106.2447615000001,106.2447615000001,106.2447615000001,106.2447615000001,106.2447615000001,106.2447615000001,106.2447615000001,106.2447615000001,,007,P008,2025_Feb_01_1216,ConditionRich,2021.2.3,59.93838334156256,
66.0,66.75,14,0.75,Stimuli/P008/sun_bkvjqgmploznrhxt.jpg,0,0,0.0,0,125,125,125,,,,,,,,,,,,,66.00853639999877,0.008536399998774868,None,106.47831579999911,106.47831579999911,106.47831579999911,106.47831579999911,106.47831579999911,106.47831579999911,106.47831579999911,106.47831579999911,106.47831579999911,106.47831579999911,,007,P008,2025_Feb_01_1216,ConditionRich,2021.2.3,59.93838334156256,
66.75,67.0,41,0.0,Stimuli/Blank.png,0,0,0.0,0,126,126,126,,,,,,,,,,,,,66.75880059999872,0.008800599998721736,None,107.22897029999876,107.22897029999876,107.22897029999876,107.22897029999876,107.22897029999876,107.22897029999876,107.22897029999876,107.22897029999876,107.22897029999876,107.22897029999876,,007,P008,2025_Feb_01_1216,ConditionRich,2021.2.3,59.93838334156256,
67.0,67.75,14,0.75,Stimuli/P008/sun_bkvjqgmploznrhxt.jpg,0,0,0.0,0,127,127,127,,,,,,,,,,,,,67.00982789999944,0.00982789999943634,None,107.49589559999913,107.49589559999913,107.49589559999913,107.49589559999913,107.49589559999913,107.49589559999913,107.49589559999913,107.49589559999913,107.49589559999913,107.49589559999913,,007,P008,2025_Feb_01_1216,ConditionRich,2021.2.3,59.93838334156256,
67.75,68.0,41,0.0,Stimuli/Blank.png,0,0,0.0,0,128,128,128,,,,,,,,,,,,,67.77564239999992,0.025642399999924237,None,108.24653229999967,108.24653229999967,108.24653229999967,108.24653229999967,108.24653229999967,108.24653229999967,108.24653229999967,108.24653229999967,108.24653229999967,108.24653229999967,,007,P008,2025_Feb_01_1216,ConditionRich,2021.2.3,59.93838334156256,
68.0,68.75,18,0.75,Stimuli/P008/sun_borgfidyubrwsuuw.jpg,0,0,0.0,0,129,129,129,,,,,,,,,,,,,68.00926459999937,0.009264599999369239,None,108.48007119999966,108.48007119999966,108.48007119999966,108.48007119999966,108.48007119999966,108.48007119999966,108.48007119999966,108.48007119999966,108.48007119999966,108.48007119999966,,007,P008,2025_Feb_01_1216,ConditionRich,2021.2.3,59.93838334156256,
68.75,69.0,41,0.0,Stimuli/Blank.png,0,0,0.0,0,130,130,130,,,,,,,,,,,,,68.76088449999952,0.010884499999519903,None,109.23085569999967,109.23085569999967,109.23085569999967,109.23085569999967,109.23085569999967,109.23085569999967,109.23085569999967,109.23085569999967,109.23085569999967,109.23085569999967,,007,P008,2025_Feb_01_1216,ConditionRich,2021.2.3,59.93838334156256,
69.0,69.75,18,0.75,Stimuli/P008/sun_borgfidyubrwsuuw.jpg,0,0,0.0,0,131,131,131,,,,,,,,,,,,,69.0111909999996,0.011190999999598716,None,109.48095999999896,109.48095999999896,109.48095999999896,109.48095999999896,109.48095999999896,109.48095999999896,109.48095999999896,109.48095999999896,109.48095999999896,109.48095999999896,,007,P008,2025_Feb_01_1216,ConditionRich,2021.2.3,59.93838334156256,
69.75,70.0,41,0.0,Stimuli/Blank.png,0,0,0.0,0,132,132,132,,,,,,,,,,,,,69.76075899999887,0.010758999998870422,None,110.2316265999998,110.2316265999998,110.2316265999998,110.2316265999998,110.2316265999998,110.2316265999998,110.2316265999998,110.2316265999998,110.2316265999998,110.2316265999998,,007,P008,2025_Feb_01_1216,ConditionRich,2021.2.3,59.93838334156256,
70.0,70.75,18,0.75,Stimuli/P008/sun_borgfidyubrwsuuw.jpg,0,0,0.0,0,133,133,133,,,,,,,,,,,,,70.01093079999919,0.010930799999187002,None,110.49855079999907,110.49855079999907,110.49855079999907,110.49855079999907,110.49855079999907,110.49855079999907,110.49855079999907,110.49855079999907,110.49855079999907,110.49855079999907,,007,P008,2025_Feb_01_1216,ConditionRich,2021.2.3,59.93838334156256,
70.75,71.0,41,0.0,Stimuli/Blank.png,0,0,0.0,0,134,134,134,,,,,,,,,,,,,70.77909689999979,0.02909689999978582,None,111.2492043000002,111.2492043000002,111.2492043000002,111.2492043000002,111.2492043000002,111.2492043000002,111.2492043000002,111.2492043000002,111.2492043000002,111.2492043000002,,007,P008,2025_Feb_01_1216,ConditionRich,2021.2.3,59.93838334156256,
71.0,71.75,18,0.75,Stimuli/P008/sun_borgfidyubrwsuuw.jpg,0,0,0.0,0,135,135,135,,,,,,,,,,,,,71.01396979999845,0.013969799998449162,None,111.49942249999913,111.49942249999913,111.49942249999913,111.49942249999913,111.49942249999913,111.49942249999913,111.49942249999913,111.49942249999913,111.49942249999913,111.49942249999913,,007,P008,2025_Feb_01_1216,ConditionRich,2021.2.3,59.93838334156256,
71.75,72.0,41,0.0,Stimuli/Blank.png,0,0,0.0,0,136,136,136,,,,,,,,,,,,,71.77975530000003,0.029755300000033458,None,112.25007310000001,112.25007310000001,112.25007310000001,112.25007310000001,112.25007310000001,112.25007310000001,112.25007310000001,112.25007310000001,112.25007310000001,112.25007310000001,,007,P008,2025_Feb_01_1216,ConditionRich,2021.2.3,59.93838334156256,
72.0,72.75,22,0.75,Stimuli/P008/things_boar_04s.jpg,0,0,0.0,0,137,137,137,,,,,,,,,,,,,72.01292029999968,0.012920299999677809,None,112.48360990000037,112.48360990000037,112.48360990000037,112.48360990000037,112.48360990000037,112.48360990000037,112.48360990000037,112.48360990000037,112.48360990000037,112.48360990000037,,007,P008,2025_Feb_01_1216,ConditionRich,2021.2.3,59.93838334156256,
72.75,73.0,41,0.0,Stimuli/Blank.png,0,0,0.0,0,138,138,138,,,,,,,,,,,,,72.76427199999853,0.014271999998527463,None,113.23428579999927,113.23428579999927,113.23428579999927,113.23428579999927,113.23428579999927,113.23428579999927,113.23428579999927,113.23428579999927,113.23428579999927,113.23428579999927,,007,P008,2025_Feb_01_1216,ConditionRich,2021.2.3,59.93838334156256,
73.0,73.75,22,0.75,Stimuli/P008/things_boar_04s.jpg,0,0,0.0,0,139,139,139,,,,,,,,,,,,,73.01452059999974,0.014520599999741535,None,113.48450500000035,113.48450500000035,113.48450500000035,113.48450500000035,113.48450500000035,113.48450500000035,113.48450500000035,113.48450500000035,113.48450500000035,113.48450500000035,,007,P008,2025_Feb_01_1216,ConditionRich,2021.2.3,59.93838334156256,
73.75,74.0,41,0.0,Stimuli/Blank.png,0,0,0.0,0,140,140,140,,,,,,,,,,,,,73.76445299999978,0.014452999999775784,None,114.23516109999946,114.23516109999946,114.23516109999946,114.23516109999946,114.23516109999946,114.23516109999946,114.23516109999946,114.23516109999946,114.23516109999946,114.23516109999946,,007,P008,2025_Feb_01_1216,ConditionRich,2021.2.3,59.93838334156256,
74.0,74.75,22,0.75,Stimuli/P008/things_boar_04s.jpg,0,0,0.0,0,141,141,141,,,,,,,,,,,,,74.01506530000006,0.015065300000060233,None,114.48538609999923,114.48538609999923,114.48538609999923,114.48538609999923,114.48538609999923,114.48538609999923,114.48538609999923,114.48538609999923,114.48538609999923,114.48538609999923,,007,P008,2025_Feb_01_1216,ConditionRich,2021.2.3,59.93838334156256,
74.75,75.0,41,0.0,Stimuli/Blank.png,0,0,0.0,0,142,142,142,,,,,,,,,,,,,74.74919119999868,-0.0008088000013231067,None,115.21937569999864,115.21937569999864,115.21937569999864,115.21937569999864,115.21937569999864,115.21937569999864,115.21937569999864,115.21937569999864,115.21937569999864,115.21937569999864,,007,P008,2025_Feb_01_1216,ConditionRich,2021.2.3,59.93838334156256,
75.0,75.75,22,0.75,Stimuli/P008/things_boar_04s.jpg,0,0,0.0,0,143,143,143,,,,,,,,,,,,,74.99894459999996,-0.001055400000041118,None,115.4695800999998,115.4695800999998,115.4695800999998,115.4695800999998,115.4695800999998,115.4695800999998,115.4695800999998,115.4695800999998,115.4695800999998,115.4695800999998,,007,P008,2025_Feb_01_1216,ConditionRich,2021.2.3,59.93838334156256,
75.75,76.0,41,0.0,Stimuli/Blank.png,0,0,0.0,0,144,144,144,,,,,,,,,,,,,75.75013339999896,0.00013339999895833898,None,116.22024979999878,116.22024979999878,116.22024979999878,116.22024979999878,116.22024979999878,116.22024979999878,116.22024979999878,116.22024979999878,116.22024979999878,116.22024979999878,,007,P008,2025_Feb_01_1216,ConditionRich,2021.2.3,59.93838334156256,
76.0,76.75,40,0.75,Stimuli/P008/things_woman_04s.jpg,0,0,0.0,0,145,145,145,,,,,,,,,,,,,76.00031089999902,0.00031089999902178533,None,116.48716950000016,116.48716950000016,116.48716950000016,116.48716950000016,116.48716950000016,116.48716950000016,116.48716950000016,116.48716950000016,116.48716950000016,116.48716950000016,,007,P008,2025_Feb_01_1216,ConditionRich,2021.2.3,59.93838334156256,
76.75,77.0,41,0.0,Stimuli/Blank.png,0,0,0.0,0,146,146,146,,,,,,,,,,,,,76.76908219999859,0.01908219999859284,None,117.25452509999923,117.25452509999923,117.25452509999923,117.25452509999923,117.25452509999923,117.25452509999923,117.25452509999923,117.25452509999923,117.25452509999923,117.25452509999923,,007,P008,2025_Feb_01_1216,ConditionRich,2021.2.3,59.93838334156256,
77.0,77.75,40,0.75,Stimuli/P008/things_woman_04s.jpg,0,0,0.0,0,147,147,147,,,,,,,,,,,,,77.0179406999996,0.01794069999959902,None,117.50471110000035,117.50471110000035,117.50471110000035,117.50471110000035,117.50471110000035,117.50471110000035,117.50471110000035,117.50471110000035,117.50471110000035,117.50471110000035,,007,P008,2025_Feb_01_1216,ConditionRich,2021.2.3,59.93838334156256,
77.75,78.0,41,0.0,Stimuli/Blank.png,0,0,0.0,0,148,148,148,,,,,,,,,,,,,77.76941859999897,0.01941859999897133,None,118.23870609999904,118.23870609999904,118.23870609999904,118.23870609999904,118.23870609999904,118.23870609999904,118.23870609999904,118.23870609999904,118.23870609999904,118.23870609999904,,007,P008,2025_Feb_01_1216,ConditionRich,2021.2.3,59.93838334156256,
78.0,78.75,40,0.75,Stimuli/P008/things_woman_04s.jpg,0,0,0.0,0,149,149,149,,,,,,,,,,,,,78.00142459999915,0.0014245999991544522,None,118.48892259999957,118.48892259999957,118.48892259999957,118.48892259999957,118.48892259999957,118.48892259999957,118.48892259999957,118.48892259999957,118.48892259999957,118.48892259999957,,007,P008,2025_Feb_01_1216,ConditionRich,2021.2.3,59.93838334156256,
78.75,79.0,41,0.0,Stimuli/Blank.png,0,0,0.0,0,150,150,150,,,,,,,,,,,,,78.76966149999862,0.019661499998619547,None,119.23959459999969,119.23959459999969,119.23959459999969,119.23959459999969,119.23959459999969,119.23959459999969,119.23959459999969,119.23959459999969,119.23959459999969,119.23959459999969,,007,P008,2025_Feb_01_1216,ConditionRich,2021.2.3,59.93838334156256,
79.0,79.75,40,0.75,Stimuli/P008/things_woman_04s.jpg,0,0,0.0,0,151,151,151,,,,,,,,,,,,,79.00234549999914,0.002345499999137246,None,119.47313589999976,119.47313589999976,119.47313589999976,119.47313589999976,119.47313589999976,119.47313589999976,119.47313589999976,119.47313589999976,119.47313589999976,119.47313589999976,,007,P008,2025_Feb_01_1216,ConditionRich,2021.2.3,59.93838334156256,
79.75,80.0,41,0.0,Stimuli/Blank.png,0,0,0.0,0,152,152,152,,,,,,,,,,,,,79.75320699999975,0.003206999999747495,None,120.22381229999883,120.22381229999883,120.22381229999883,120.22381229999883,120.22381229999883,120.22381229999883,120.22381229999883,120.22381229999883,120.22381229999883,120.22381229999883,,007,P008,2025_Feb_01_1216,ConditionRich,2021.2.3,59.93838334156256,
80.0,80.75,13,0.75,Stimuli/P008/sun_bkhuvtsqontzwtbo.jpg,0,0,0.0,0,153,153,153,,,,,,,,,,,,,80.00353229999928,0.003532299999278621,None,120.47400910000033,120.47400910000033,120.47400910000033,120.47400910000033,120.47400910000033,120.47400910000033,120.47400910000033,120.47400910000033,120.47400910000033,120.47400910000033,,007,P008,2025_Feb_01_1216,ConditionRich,2021.2.3,59.93838334156256,
80.75,81.0,41,0.0,Stimuli/Blank.png,0,0,0.0,0,154,154,154,,,,,,,,,,,,,80.75386419999995,0.003864199999952689,None,121.22468560000016,121.22468560000016,121.22468560000016,121.22468560000016,121.22468560000016,121.22468560000016,121.22468560000016,121.22468560000016,121.22468560000016,121.22468560000016,,007,P008,2025_Feb_01_1216,ConditionRich,2021.2.3,59.93838334156256,
81.0,81.75,13,0.75,Stimuli/P008/sun_bkhuvtsqontzwtbo.jpg,0,0,0.0,0,155,155,155,,,,,,,,,,,,,81.00487969999995,0.004879699999946752,None,121.49160449999908,121.49160449999908,121.49160449999908,121.49160449999908,121.49160449999908,121.49160449999908,121.49160449999908,121.49160449999908,121.49160449999908,121.49160449999908,,007,P008,2025_Feb_01_1216,ConditionRich,2021.2.3,59.93838334156256,
81.75,82.0,41,0.0,Stimuli/Blank.png,0,0,0.0,0,156,156,156,,,,,,,,,,,,,81.77385629999844,0.02385629999844241,None,122.2589310000003,122.2589310000003,122.2589310000003,122.2589310000003,122.2589310000003,122.2589310000003,122.2589310000003,122.2589310000003,122.2589310000003,122.2589310000003,,007,P008,2025_Feb_01_1216,ConditionRich,2021.2.3,59.93838334156256,
82.0,82.75,13,0.75,Stimuli/P008/sun_bkhuvtsqontzwtbo.jpg,0,0,0.0,0,157,157,157,,,,,,,,,,,,,82.0238348999992,0.023834899999201298,None,122.50915199999872,122.50915199999872,122.50915199999872,122.50915199999872,122.50915199999872,122.50915199999872,122.50915199999872,122.50915199999872,122.50915199999872,122.50915199999872,,007,P008,2025_Feb_01_1216,ConditionRich,2021.2.3,59.93838334156256,
82.75,83.0,41,0.0,Stimuli/Blank.png,0,0,0.0,0,158,158,158,,,,,,,,,,,,,82.77290719999837,0.022907199998371652,None,123.24312519999876,123.24312519999876,123.24312519999876,123.24312519999876,123.24312519999876,123.24312519999876,123.24312519999876,123.24312519999876,123.24312519999876,123.24312519999876,,007,P008,2025_Feb_01_1216,ConditionRich,2021.2.3,59.93838334156256,
83.0,83.75,13,0.75,Stimuli/P008/sun_bkhuvtsqontzwtbo.jpg,0,0,0.0,0,159,159,159,,,,,,,,,,,,,83.00916979999965,0.00916979999965406,None,123.49336539999967,123.49336539999967,123.49336539999967,123.49336539999967,123.49336539999967,123.49336539999967,123.49336539999967,123.49336539999967,123.49336539999967,123.49336539999967,,007,P008,2025_Feb_01_1216,ConditionRich,2021.2.3,59.93838334156256,
83.75,84.0,41,0.0,Stimuli/Blank.png,0,0,0.0,0,160,160,160,,,,,,,,,,,,,83.77430179999828,0.02430179999828397,None,124.24401989999933,124.24401989999933,124.24401989999933,124.24401989999933,124.24401989999933,124.24401989999933,124.24401989999933,124.24401989999933,124.24401989999933,124.24401989999933,,007,P008,2025_Feb_01_1216,ConditionRich,2021.2.3,59.93838334156256,
84.0,100.0,0,0.0,Stimuli/Blank.png,1,1,1.75,0,161,161,161,,,,,,,,,,,,,84.00901720000002,0.0090172000000166,2,124.49424960000033,124.49424960000033,124.49424960000033,124.49424960000033,124.49424960000033,124.49424960000033,125.478432599999,126.22911569999997,124.49424960000033,124.49424960000033,1.3041792000003625,007,P008,2025_Feb_01_1216,ConditionRich,2021.2.3,59.93838334156256,
100.0,100.75,10,0.75,Stimuli/P008/sun_bdekcgnlcicvgpvq.jpg,0,0,0.0,0,162,162,162,,,,,,,,,,,,,100.0238094999986,0.023809499998606043,None,140.50840629999948,140.50840629999948,140.50840629999948,140.50840629999948,140.50840629999948,140.50840629999948,140.50840629999948,140.50840629999948,140.50840629999948,140.50840629999948,,007,P008,2025_Feb_01_1216,ConditionRich,2021.2.3,59.93838334156256,
100.75,101.0,41,0.0,Stimuli/Blank.png,0,0,0.0,0,163,163,163,,,,,,,,,,,,,100.7721281999984,0.022128199998405762,None,141.24242570000024,141.24242570000024,141.24242570000024,141.24242570000024,141.24242570000024,141.24242570000024,141.24242570000024,141.24242570000024,141.24242570000024,141.24242570000024,,007,P008,2025_Feb_01_1216,ConditionRich,2021.2.3,59.93838334156256,
101.0,101.75,10,0.75,Stimuli/P008/sun_bdekcgnlcicvgpvq.jpg,0,0,0.0,0,164,164,164,,,,,,,,,,,,,101.00606699999844,0.006066999998438405,None,141.4759482999998,141.4759482999998,141.4759482999998,141.4759482999998,141.4759482999998,141.4759482999998,141.4759482999998,141.4759482999998,141.4759482999998,141.4759482999998,,007,P008,2025_Feb_01_1216,ConditionRich,2021.2.3,59.93838334156256,
101.75,102.0,41,0.0,Stimuli/Blank.png,0,0,0.0,0,165,165,165,,,,,,,,,,,,,101.75571929999933,0.005719299999327632,None,142.22658349999983,142.22658349999983,142.22658349999983,142.22658349999983,142.22658349999983,142.22658349999983,142.22658349999983,142.22658349999983,142.22658349999983,142.22658349999983,,007,P008,2025_Feb_01_1216,ConditionRich,2021.2.3,59.93838334156256,
102.0,102.75,10,0.75,Stimuli/P008/sun_bdekcgnlcicvgpvq.jpg,0,0,0.0,0,166,166,166,,,,,,,,,,,,,102.0066883999989,0.006688399998893146,None,142.47680919999948,142.47680919999948,142.47680919999948,142.47680919999948,142.47680919999948,142.47680919999948,142.47680919999948,142.47680919999948,142.47680919999948,142.47680919999948,,007,P008,2025_Feb_01_1216,ConditionRich,2021.2.3,59.93838334156256,
102.75,103.0,41,0.0,Stimuli/Blank.png,0,0,0.0,0,167,167,167,,,,,,,,,,,,,102.75976579999951,0.009765799999513547,None,143.24415500000032,143.24415500000032,143.24415500000032,143.24415500000032,143.24415500000032,143.24415500000032,143.24415500000032,143.24415500000032,143.24415500000032,143.24415500000032,,007,P008,2025_Feb_01_1216,ConditionRich,2021.2.3,59.93838334156256,
103.0,103.75,10,0.75,Stimuli/P008/sun_bdekcgnlcicvgpvq.jpg,0,0,0.0,0,168,168,168,,,,,,,,,,,,,103.02435650000007,0.02435650000006717,None,143.5110593999998,143.5110593999998,143.5110593999998,143.5110593999998,143.5110593999998,143.5110593999998,143.5110593999998,143.5110593999998,143.5110593999998,143.5110593999998,,007,P008,2025_Feb_01_1216,ConditionRich,2021.2.3,59.93838334156256,
103.75,104.0,41,0.0,Stimuli/Blank.png,0,0,0.0,0,169,169,169,,,,,,,,,,,,,103.77517509999961,0.02517509999961476,None,144.2450401999995,144.2450401999995,144.2450401999995,144.2450401999995,144.2450401999995,144.2450401999995,144.2450401999995,144.2450401999995,144.2450401999995,144.2450401999995,,007,P008,2025_Feb_01_1216,ConditionRich,2021.2.3,59.93838334156256,
104.0,104.75,21,0.75,Stimuli/P008/things_baby_04s.jpg,0,0,0.0,0,170,170,170,,,,,,,,,,,,,104.00797129999955,0.007971299999553594,None,144.47859470000003,144.47859470000003,144.47859470000003,144.47859470000003,144.47859470000003,144.47859470000003,144.47859470000003,144.47859470000003,144.47859470000003,144.47859470000003,,007,P008,2025_Feb_01_1216,ConditionRich,2021.2.3,59.93838334156256,
104.75,105.0,41,0.0,Stimuli/Blank.png,0,0,0.0,0,171,171,171,,,,,,,,,,,,,104.7597354999998,0.009735499999806052,None,145.2459474999996,145.2459474999996,145.2459474999996,145.2459474999996,145.2459474999996,145.2459474999996,145.2459474999996,145.2459474999996,145.2459474999996,145.2459474999996,,007,P008,2025_Feb_01_1216,ConditionRich,2021.2.3,59.93838334156256,
105.0,105.75,21,0.75,Stimuli/P008/things_baby_04s.jpg,0,0,0.0,0,172,172,172,,,,,,,,,,,,,105.02557629999865,0.0255762999986473,None,145.4961463999989,145.4961463999989,145.4961463999989,145.4961463999989,145.4961463999989,145.4961463999989,145.4961463999989,145.4961463999989,145.4961463999989,145.4961463999989,,007,P008,2025_Feb_01_1216,ConditionRich,2021.2.3,59.93838334156256,
105.75,106.0,41,0.0,Stimuli/Blank.png,0,0,0.0,0,173,173,173,,,,,,,,,,,,,105.75931579999997,0.009315799999967567,None,146.23014129999865,146.23014129999865,146.23014129999865,146.23014129999865,146.23014129999865,146.23014129999865,146.23014129999865,146.23014129999865,146.23014129999865,146.23014129999865,,007,P008,2025_Feb_01_1216,ConditionRich,2021.2.3,59.93838334156256,
106.0,106.75,21,0.75,Stimuli/P008/things_baby_04s.jpg,0,0,0.0,0,174,174,174,,,,,,,,,,,,,106.00952839999991,0.009528399999908288,None,146.4803541000001,146.4803541000001,146.4803541000001,146.4803541000001,146.4803541000001,146.4803541000001,146.4803541000001,146.4803541000001,146.4803541000001,146.4803541000001,,007,P008,2025_Feb_01_1216,ConditionRich,2021.2.3,59.93838334156256,
106.75,107.0,41,0.0,Stimuli/Blank.png,0,0,0.0,0,175,175,175,,,,,,,,,,,,,106.7603139999992,0.010313999999198131,None,147.23101329999918,147.23101329999918,147.23101329999918,147.23101329999918,147.23101329999918,147.23101329999918,147.23101329999918,147.23101329999918,147.23101329999918,147.23101329999918,,007,P008,2025_Feb_01_1216,ConditionRich,2021.2.3,59.93838334156256,
107.0,107.75,21,0.75,Stimuli/P008/things_baby_04s.jpg,0,0,0.0,0,176,176,176,,,,,,,,,,,,,107.01083719999951,0.010837199999514269,None,147.49793119999958,147.49793119999958,147.49793119999958,147.49793119999958,147.49793119999958,147.49793119999958,147.49793119999958,147.49793119999958,147.49793119999958,147.49793119999958,,007,P008,2025_Feb_01_1216,ConditionRich,2021.2.3,59.93838334156256,
107.75,108.0,41,0.0,Stimuli/Blank.png,0,0,0.0,0,177,177,177,,,,,,,,,,,,,107.77908039999966,0.029080399999656947,None,148.24860590000026,148.24860590000026,148.24860590000026,148.24860590000026,148.24860590000026,148.24860590000026,148.24860590000026,148.24860590000026,148.24860590000026,148.24860590000026,,007,P008,2025_Feb_01_1216,ConditionRich,2021.2.3,59.93838334156256,
108.0,108.75,27,0.75,Stimuli/P008/things_fur_coat_04s.jpg,0,0,0.0,0,178,178,178,,,,,,,,,,,,,108.01228459999948,0.012284599999475176,None,148.48211830000037,148.48211830000037,148.48211830000037,148.48211830000037,148.48211830000037,148.48211830000037,148.48211830000037,148.48211830000037,148.48211830000037,148.48211830000037,,007,P008,2025_Feb_01_1216,ConditionRich,2021.2.3,59.93838334156256,
108.75,109.0,41,0.0,Stimuli/Blank.png,0,0,0.0,0,179,179,179,,,,,,,,,,,,,108.76461149999886,0.01461149999886402,None,149.24943899999926,149.24943899999926,149.24943899999926,149.24943899999926,149.24943899999926,149.24943899999926,149.24943899999926,149.24943899999926,149.24943899999926,149.24943899999926,,007,P008,2025_Feb_01_1216,ConditionRich,2021.2.3,59.93838334156256,
109.0,109.75,27,0.75,Stimuli/P008/things_fur_coat_04s.jpg,0,0,0.0,0,180,180,180,,,,,,,,,,,,,109.02955859999929,0.02955859999929089,None,149.49968699999954,149.49968699999954,149.49968699999954,149.49968699999954,149.49968699999954,149.49968699999954,149.49968699999954,149.49968699999954,149.49968699999954,149.49968699999954,,007,P008,2025_Feb_01_1216,ConditionRich,2021.2.3,59.93838334156256,
109.75,110.0,41,0.0,Stimuli/Blank.png,0,0,0.0,0,181,181,181,,,,,,,,,,,,,109.76450149999982,0.014501499999823864,None,150.25037890000021,150.25037890000021,150.25037890000021,150.25037890000021,150.25037890000021,150.25037890000021,150.25037890000021,150.25037890000021,150.25037890000021,150.25037890000021,,007,P008,2025_Feb_01_1216,ConditionRich,2021.2.3,59.93838334156256,
110.0,110.75,27,0.75,Stimuli/P008/things_fur_coat_04s.jpg,0,0,0.0,0,182,182,182,,,,,,,,,,,,,110.02971019999859,0.029710199998589815,None,150.5172566000001,150.5172566000001,150.5172566000001,150.5172566000001,150.5172566000001,150.5172566000001,150.5172566000001,150.5172566000001,150.5172566000001,150.5172566000001,,007,P008,2025_Feb_01_1216,ConditionRich,2021.2.3,59.93838334156256,
110.75,111.0,41,0.0,Stimuli/Blank.png,0,0,0.0,0,183,183,183,,,,,,,,,,,,,110.78038169999854,0.0303816999985429,None,151.25123340000027,151.25123340000027,151.25123340000027,151.25123340000027,151.25123340000027,151.25123340000027,151.25123340000027,151.25123340000027,151.25123340000027,151.25123340000027,,007,P008,2025_Feb_01_1216,ConditionRich,2021.2.3,59.93838334156256,
111.0,111.75,27,0.75,Stimuli/P008/things_fur_coat_04s.jpg,0,0,0.0,0,184,184,184,,,,,,,,,,,,,111.0141756999983,0.01417569999830448,None,151.48477149999962,151.48477149999962,151.48477149999962,151.48477149999962,151.48477149999962,151.48477149999962,151.48477149999962,151.48477149999962,151.48477149999962,151.48477149999962,,007,P008,2025_Feb_01_1216,ConditionRich,2021.2.3,59.93838334156256,
111.75,112.0,41,0.0,Stimuli/Blank.png,0,0,0.0,0,185,185,185,,,,,,,,,,,,,111.76468019999993,0.014680199999929755,None,152.23544629999924,152.23544629999924,152.23544629999924,152.23544629999924,152.23544629999924,152.23544629999924,152.23544629999924,152.23544629999924,152.23544629999924,152.23544629999924,,007,P008,2025_Feb_01_1216,ConditionRich,2021.2.3,59.93838334156256,
112.0,112.75,36,0.75,Stimuli/P008/things_platypus_04s.jpg,0,0,0.0,0,186,186,186,,,,,,,,,,,,,112.01513779999914,0.015137799999138224,None,152.48565909999888,152.48565909999888,152.48565909999888,152.48565909999888,152.48565909999888,152.48565909999888,152.48565909999888,152.48565909999888,152.48565909999888,152.48565909999888,,007,P008,2025_Feb_01_1216,ConditionRich,2021.2.3,59.93838334156256,
112.75,113.0,41,0.0,Stimuli/Blank.png,0,0,0.0,0,187,187,187,,,,,,,,,,,,,112.74893459999839,-0.001065400001607486,None,153.21964409999964,153.21964409999964,153.21964409999964,153.21964409999964,153.21964409999964,153.21964409999964,153.21964409999964,153.21964409999964,153.21964409999964,153.21964409999964,,007,P008,2025_Feb_01_1216,ConditionRich,2021.2.3,59.93838334156256,
113.0,113.75,36,0.75,Stimuli/P008/things_platypus_04s.jpg,1,0,0.75,0,188,188,188,,,,,,,,,,,,,112.99922969999898,-0.0007703000010224059,2,153.46986939999988,153.46986939999988,153.46986939999988,153.46986939999988,153.46986939999988,153.46986939999988,153.46986939999988,154.20385389999865,153.46986939999988,153.46986939999988,0.5585080000000744,007,P008,2025_Feb_01_1216,ConditionRich,2021.2.3,59.93838334156256,
113.75,114.0,41,0.0,Stimuli/Blank.png,0,0,0.0,0,189,189,189,,,,,,,,,,,,,113.75046379999912,0.00046379999912460335,None,154.22052689999873,154.22052689999873,154.22052689999873,154.22052689999873,154.22052689999873,154.22052689999873,154.22052689999873,154.22052689999873,154.22052689999873,154.22052689999873,,007,P008,2025_Feb_01_1216,ConditionRich,2021.2.3,59.93838334156256,
114.0,114.75,36,0.75,Stimuli/P008/things_platypus_04s.jpg,0,0,0.0,0,190,190,190,,,,,,,,,,,,,113.99995499999932,-4.5000000682193786e-05,None,154.47075359999872,154.47075359999872,154.47075359999872,154.47075359999872,154.47075359999872,154.47075359999872,154.47075359999872,154.47075359999872,154.47075359999872,154.47075359999872,,007,P008,2025_Feb_01_1216,ConditionRich,2021.2.3,59.93838334156256,
114.75,115.0,41,0.0,Stimuli/Blank.png,0,0,0.0,0,191,191,191,,,,,,,,,,,,,114.75099709999995,0.0009970999999495689,None,155.2214881,155.2214881,155.2214881,155.2214881,155.2214881,155.2214881,155.2214881,155.2214881,155.2214881,155.2214881,,007,P008,2025_Feb_01_1216,ConditionRich,2021.2.3,59.93838334156256,
115.0,115.75,36,0.75,Stimuli/P008/things_platypus_04s.jpg,0,0,0.0,0,192,192,192,,,,,,,,,,,,,115.00370999999905,0.0037099999990459764,None,155.48832260000017,155.48832260000017,155.48832260000017,155.48832260000017,155.48832260000017,155.48832260000017,155.48832260000017,155.48832260000017,155.48832260000017,155.48832260000017,,007,P008,2025_Feb_01_1216,ConditionRich,2021.2.3,59.93838334156256,
115.75,116.0,41,0.0,Stimuli/Blank.png,0,0,0.0,0,193,193,193,,,,,,,,,,,,,115.76828089999981,0.018280899999808753,None,156.23897899999974,156.23897899999974,156.23897899999974,156.23897899999974,156.23897899999974,156.23897899999974,156.23897899999974,156.23897899999974,156.23897899999974,156.23897899999974,,007,P008,2025_Feb_01_1216,ConditionRich,2021.2.3,59.93838334156256,
116.0,116.75,23,0.75,Stimuli/P008/things_bumper_04s.jpg,1,0,0.75,0,194,194,194,,,,,,,,,,,,,116.00371089999862,0.003710899998623063,2,156.48920809999981,156.48920809999981,156.48920809999981,156.48920809999981,156.48920809999981,156.48920809999981,156.48920809999981,157.22319259999858,156.48920809999981,156.48920809999981,0.5850002999995922,007,P008,2025_Feb_01_1216,ConditionRich,2021.2.3,59.93838334156256,
116.75,117.0,41,0.0,Stimuli/Blank.png,0,0,0.0,0,195,195,195,,,,,,,,,,,,,116.76921979999861,0.019219799998609233,None,157.23987060000036,157.23987060000036,157.23987060000036,157.23987060000036,157.23987060000036,157.23987060000036,157.23987060000036,157.23987060000036,157.23987060000036,157.23987060000036,,007,P008,2025_Feb_01_1216,ConditionRich,2021.2.3,59.93838334156256,
117.0,117.75,23,0.75,Stimuli/P008/things_bumper_04s.jpg,0,0,0.0,0,196,196,196,,,,,,,,,,,,,117.00321399999848,0.0032139999984792667,None,157.47340110000005,157.47340110000005,157.47340110000005,157.47340110000005,157.47340110000005,157.47340110000005,157.47340110000005,157.47340110000005,157.47340110000005,157.47340110000005,,007,P008,2025_Feb_01_1216,ConditionRich,2021.2.3,59.93838334156256,
117.75,118.0,41,0.0,Stimuli/Blank.png,0,0,0.0,0,197,197,197,,,,,,,,,,,,,117.75399259999904,0.003992599999037338,None,158.2240898,158.2240898,158.2240898,158.2240898,158.2240898,158.2240898,158.2240898,158.2240898,158.2240898,158.2240898,,007,P008,2025_Feb_01_1216,ConditionRich,2021.2.3,59.93838334156256,
118.0,118.75,23,0.75,Stimuli/P008/things_bumper_04s.jpg,0,0,0.0,0,198,198,198,,,,,,,,,,,,,118.0035986999992,0.0035986999992019264,None,158.47429449999981,158.47429449999981,158.47429449999981,158.47429449999981,158.47429449999981,158.47429449999981,158.47429449999981,158.47429449999981,158.47429449999981,158.47429449999981,,007,P008,2025_Feb_01_1216,ConditionRich,2021.2.3,59.93838334156256,
118.75,119.0,41,0.0,Stimuli/Blank.png,0,0,0.0,0,199,199,199,,,,,,,,,,,,,118.75476039999921,0.004760399999213405,None,159.22495419999905,159.22495419999905,159.22495419999905,159.22495419999905,159.22495419999905,159.22495419999905,159.22495419999905,159.22495419999905,159.22495419999905,159.22495419999905,,007,P008,2025_Feb_01_1216,ConditionRich,2021.2.3,59.93838334156256,
119.0,119.75,23,0.75,Stimuli/P008/things_bumper_04s.jpg,0,0,0.0,0,200,200,200,,,,,,,,,,,,,119.00485329999901,0.004853299999012961,None,159.47518089999903,159.47518089999903,159.47518089999903,159.47518089999903,159.47518089999903,159.47518089999903,159.47518089999903,159.47518089999903,159.47518089999903,159.47518089999903,,007,P008,2025_Feb_01_1216,ConditionRich,2021.2.3,59.93838334156256,
119.75,120.0,41,0.0,Stimuli/Blank.png,0,0,0.0,0,201,201,201,,,,,,,,,,,,,119.75587439999981,0.0058743999998114305,None,160.2258366999995,160.2258366999995,160.2258366999995,160.2258366999995,160.2258366999995,160.2258366999995,160.2258366999995,160.2258366999995,160.2258366999995,160.2258366999995,,007,P008,2025_Feb_01_1216,ConditionRich,2021.2.3,59.93838334156256,
120.0,120.75,3,0.75,Stimuli/P008/sun_aueftjhdwnvkbzlt.jpg,0,0,0.0,0,202,202,202,,,,,,,,,,,,,120.00592469999901,0.005924699999013683,None,160.49275639999905,160.49275639999905,160.49275639999905,160.49275639999905,160.49275639999905,160.49275639999905,160.49275639999905,160.49275639999905,160.49275639999905,160.49275639999905,,007,P008,2025_Feb_01_1216,ConditionRich,2021.2.3,59.93838334156256,
120.75,121.0,41,0.0,Stimuli/Blank.png,0,0,0.0,0,203,203,203,,,,,,,,,,,,,120.77315299999827,0.023152999998274026,None,161.2434075000001,161.2434075000001,161.2434075000001,161.2434075000001,161.2434075000001,161.2434075000001,161.2434075000001,161.2434075000001,161.2434075000001,161.2434075000001,,007,P008,2025_Feb_01_1216,ConditionRich,2021.2.3,59.93838334156256,
121.0,121.75,3,0.75,Stimuli/P008/sun_aueftjhdwnvkbzlt.jpg,0,0,0.0,0,204,204,204,,,,,,,,,,,,,121.00687509999989,0.006875099999888334,None,161.49359989999903,161.49359989999903,161.49359989999903,161.49359989999903,161.49359989999903,161.49359989999903,161.49359989999903,161.49359989999903,161.49359989999903,161.49359989999903,,007,P008,2025_Feb_01_1216,ConditionRich,2021.2.3,59.93838334156256,
121.75,122.0,41,0.0,Stimuli/Blank.png,0,0,0.0,0,205,205,205,,,,,,,,,,,,,121.77365129999998,0.023651299999983166,None,162.24429389999932,162.24429389999932,162.24429389999932,162.24429389999932,162.24429389999932,162.24429389999932,162.24429389999932,162.24429389999932,162.24429389999932,162.24429389999932,,007,P008,2025_Feb_01_1216,ConditionRich,2021.2.3,59.93838334156256,
122.0,122.75,3,0.75,Stimuli/P008/sun_aueftjhdwnvkbzlt.jpg,0,0,0.0,0,206,206,206,,,,,,,,,,,,,122.00778309999987,0.0077830999998695916,None,162.47784259999935,162.47784259999935,162.47784259999935,162.47784259999935,162.47784259999935,162.47784259999935,162.47784259999935,162.47784259999935,162.47784259999935,162.47784259999935,,007,P008,2025_Feb_01_1216,ConditionRich,2021.2.3,59.93838334156256,
122.75,123.0,41,0.0,Stimuli/Blank.png,0,0,0.0,0,207,207,207,,,,,,,,,,,,,122.75807199999872,0.008071999998719548,None,163.22849359999964,163.22849359999964,163.22849359999964,163.22849359999964,163.22849359999964,163.22849359999964,163.22849359999964,163.22849359999964,163.22849359999964,163.22849359999964,,007,P008,2025_Feb_01_1216,ConditionRich,2021.2.3,59.93838334156256,
123.0,123.75,3,0.75,Stimuli/P008/sun_aueftjhdwnvkbzlt.jpg,0,0,0.0,0,208,208,208,,,,,,,,,,,,,123.00784979999844,0.007849799998439266,None,163.47872189999907,163.47872189999907,163.47872189999907,163.47872189999907,163.47872189999907,163.47872189999907,163.47872189999907,163.47872189999907,163.47872189999907,163.47872189999907,,007,P008,2025_Feb_01_1216,ConditionRich,2021.2.3,59.93838334156256,
123.75,124.0,41,0.0,Stimuli/Blank.png,0,0,0.0,0,209,209,209,,,,,,,,,,,,,123.75868249999985,0.008682499999849824,None,164.22938160000012,164.22938160000012,164.22938160000012,164.22938160000012,164.22938160000012,164.22938160000012,164.22938160000012,164.22938160000012,164.22938160000012,164.22938160000012,,007,P008,2025_Feb_01_1216,ConditionRich,2021.2.3,59.93838334156256,
124.0,124.75,33,0.75,Stimuli/P008/things_man_04s.jpg,0,0,0.0,0,210,210,210,,,,,,,,,,,,,124.0093356999987,0.009335699998700875,None,164.4796022999999,164.4796022999999,164.4796022999999,164.4796022999999,164.4796022999999,164.4796022999999,164.4796022999999,164.4796022999999,164.4796022999999,164.4796022999999,,007,P008,2025_Feb_01_1216,ConditionRich,2021.2.3,59.93838334156256,
124.75,125.0,41,0.0,Stimuli/Blank.png,0,0,0.0,0,211,211,211,,,,,,,,,,,,,124.75959209999928,0.009592099999281345,None,165.23027029999866,165.23027029999866,165.23027029999866,165.23027029999866,165.23027029999866,165.23027029999866,165.23027029999866,165.23027029999866,165.23027029999866,165.23027029999866,,007,P008,2025_Feb_01_1216,ConditionRich,2021.2.3,59.93838334156256,
125.0,125.75,33,0.75,Stimuli/P008/things_man_04s.jpg,0,0,0.0,0,212,212,212,,,,,,,,,,,,,125.00958729999911,0.009587299999111565,None,165.48048589999962,165.48048589999962,165.48048589999962,165.48048589999962,165.48048589999962,165.48048589999962,165.48048589999962,165.48048589999962,165.48048589999962,165.48048589999962,,007,P008,2025_Feb_01_1216,ConditionRich,2021.2.3,59.93838334156256,
125.75,126.0,41,0.0,Stimuli/Blank.png,0,0,0.0,0,213,213,213,,,,,,,,,,,,,125.760445599999,0.010445599999002297,None,166.23115139999936,166.23115139999936,166.23115139999936,166.23115139999936,166.23115139999936,166.23115139999936,166.23115139999936,166.23115139999936,166.23115139999936,166.23115139999936,,007,P008,2025_Feb_01_1216,ConditionRich,2021.2.3,59.93838334156256,
126.0,126.75,33,0.75,Stimuli/P008/things_man_04s.jpg,0,0,0.0,0,214,214,214,,,,,,,,,,,,,126.01070529999924,0.010705299999244744,None,166.48137169999973,166.48137169999973,166.48137169999973,166.48137169999973,166.48137169999973,166.48137169999973,166.48137169999973,166.48137169999973,166.48137169999973,166.48137169999973,,007,P008,2025_Feb_01_1216,ConditionRich,2021.2.3,59.93838334156256,
126.75,127.0,41,0.0,Stimuli/Blank.png,0,0,0.0,0,215,215,215,,,,,,,,,,,,,126.76356209999904,0.013562099999035127,None,167.24878999999964,167.24878999999964,167.24878999999964,167.24878999999964,167.24878999999964,167.24878999999964,167.24878999999964,167.24878999999964,167.24878999999964,167.24878999999964,,007,P008,2025_Feb_01_1216,ConditionRich,2021.2.3,59.93838334156256,
127.0,127.75,33,0.75,Stimuli/P008/things_man_04s.jpg,0,0,0.0,0,216,216,216,,,,,,,,,,,,,127.02918379999937,0.02918379999937315,None,167.51562609999928,167.51562609999928,167.51562609999928,167.51562609999928,167.51562609999928,167.51562609999928,167.51562609999928,167.51562609999928,167.51562609999928,167.51562609999928,,007,P008,2025_Feb_01_1216,ConditionRich,2021.2.3,59.93838334156256,
127.75,128.0,41,0.0,Stimuli/Blank.png,0,0,0.0,0,217,217,217,,,,,,,,,,,,,127.77896439999859,0.028964399998585577,None,168.24966080000013,168.24966080000013,168.24966080000013,168.24966080000013,168.24966080000013,168.24966080000013,168.24966080000013,168.24966080000013,168.24966080000013,168.24966080000013,,007,P008,2025_Feb_01_1216,ConditionRich,2021.2.3,59.93838334156256,
128.0,128.75,2,0.75,Stimuli/P008/sun_ajyzloqaptmicnfr.jpg,0,0,0.0,0,218,218,218,,,,,,,,,,,,,128.01309459999902,0.013094599999021739,None,168.49979779999921,168.49979779999921,168.49979779999921,168.49979779999921,168.49979779999921,168.49979779999921,168.49979779999921,168.49979779999921,168.49979779999921,168.49979779999921,,007,P008,2025_Feb_01_1216,ConditionRich,2021.2.3,59.93838334156256,
128.75,129.0,41,0.0,Stimuli/Blank.png,0,0,0.0,0,219,219,219,,,,,,,,,,,,,128.77981849999924,0.029818499999237247,None,169.25048359999892,169.25048359999892,169.25048359999892,169.25048359999892,169.25048359999892,169.25048359999892,169.25048359999892,169.25048359999892,169.25048359999892,169.25048359999892,,007,P008,2025_Feb_01_1216,ConditionRich,2021.2.3,59.93838334156256,
129.0,129.75,2,0.75,Stimuli/P008/sun_ajyzloqaptmicnfr.jpg,0,0,0.0,0,220,220,220,,,,,,,,,,,,,129.013946699999,0.013946699998996337,None,169.484033499999,169.484033499999,169.484033499999,169.484033499999,169.484033499999,169.484033499999,169.484033499999,169.484033499999,169.484033499999,169.484033499999,,007,P008,2025_Feb_01_1216,ConditionRich,2021.2.3,59.93838334156256,
129.75,130.0,41,0.0,Stimuli/Blank.png,0,0,0.0,0,221,221,221,,,,,,,,,,,,,129.76486359999944,0.014863599999443977,None,170.23468909999974,170.23468909999974,170.23468909999974,170.23468909999974,170.23468909999974,170.23468909999974,170.23468909999974,170.23468909999974,170.23468909999974,170.23468909999974,,007,P008,2025_Feb_01_1216,ConditionRich,2021.2.3,59.93838334156256,
130.0,130.75,2,0.75,Stimuli/P008/sun_ajyzloqaptmicnfr.jpg,0,0,0.0,0,222,222,222,,,,,,,,,,,,,130.01479889999973,0.014798899999732384,None,170.484912599999,170.484912599999,170.484912599999,170.484912599999,170.484912599999,170.484912599999,170.484912599999,170.484912599999,170.484912599999,170.484912599999,,007,P008,2025_Feb_01_1216,ConditionRich,2021.2.3,59.93838334156256,
130.75,131.0,41,0.0,Stimuli/Blank.png,0,0,0.0,0,223,223,223,,,,,,,,,,,,,130.7655724999986,0.015572499998597777,None,171.23566029999893,171.23566029999893,171.23566029999893,171.23566029999893,171.23566029999893,171.23566029999893,171.23566029999893,171.23566029999893,171.23566029999893,171.23566029999893,,007,P008,2025_Feb_01_1216,ConditionRich,2021.2.3,59.93838334156256,
131.0,131.75,2,0.75,Stimuli/P008/sun_ajyzloqaptmicnfr.jpg,0,0,0.0,0,224,224,224,,,,,,,,,,,,,130.99843809999948,-0.0015619000005244743,None,171.46912049999992,171.46912049999992,171.46912049999992,171.46912049999992,171.46912049999992,171.46912049999992,171.46912049999992,171.46912049999992,171.46912049999992,171.46912049999992,,007,P008,2025_Feb_01_1216,ConditionRich,2021.2.3,59.93838334156256,
131.75,132.0,41,0.0,Stimuli/Blank.png,0,0,0.0,0,225,225,225,,,,,,,,,,,,,131.74908419999883,-0.0009158000011666445,None,172.21976019999966,172.21976019999966,172.21976019999966,172.21976019999966,172.21976019999966,172.21976019999966,172.21976019999966,172.21976019999966,172.21976019999966,172.21976019999966,,007,P008,2025_Feb_01_1216,ConditionRich,2021.2.3,59.93838334156256,
132.0,132.75,30,0.75,Stimuli/P008/things_jalapeno_04s.jpg,0,0,0.0,0,226,226,226,,,,,,,,,,,,,132.0001575999995,0.00015759999951114878,None,172.48670449999918,172.48670449999918,172.48670449999918,172.48670449999918,172.48670449999918,172.48670449999918,172.48670449999918,172.48670449999918,172.48670449999918,172.48670449999918,,007,P008,2025_Feb_01_1216,ConditionRich,2021.2.3,59.93838334156256,
132.75,133.0,41,0.0,Stimuli/Blank.png,0,0,0.0,0,227,227,227,,,,,,,,,,,,,132.76904159999867,0.01904159999867261,None,173.25403349999942,173.25403349999942,173.25403349999942,173.25403349999942,173.25403349999942,173.25403349999942,173.25403349999942,173.25403349999942,173.25403349999942,173.25403349999942,,007,P008,2025_Feb_01_1216,ConditionRich,2021.2.3,59.93838334156256,
133.0,133.75,30,0.75,Stimuli/P008/things_jalapeno_04s.jpg,0,0,0.0,0,228,228,228,,,,,,,,,,,,,133.01884079999945,0.01884079999945243,None,173.50426779999907,173.50426779999907,173.50426779999907,173.50426779999907,173.50426779999907,173.50426779999907,173.50426779999907,173.50426779999907,173.50426779999907,173.50426779999907,,007,P008,2025_Feb_01_1216,ConditionRich,2021.2.3,59.93838334156256,
133.75,134.0,41,0.0,Stimuli/Blank.png,0,0,0.0,0,229,229,229,,,,,,,,,,,,,133.76815039999929,0.018150399999285582,None,174.23824029999923,174.23824029999923,174.23824029999923,174.23824029999923,174.23824029999923,174.23824029999923,174.23824029999923,174.23824029999923,174.23824029999923,174.23824029999923,,007,P008,2025_Feb_01_1216,ConditionRich,2021.2.3,59.93838334156256,
134.0,134.75,30,0.75,Stimuli/P008/things_jalapeno_04s.jpg,0,0,0.0,0,230,230,230,,,,,,,,,,,,,134.00095839999994,0.0009583999999449588,None,174.48847159999968,174.48847159999968,174.48847159999968,174.48847159999968,174.48847159999968,174.48847159999968,174.48847159999968,174.48847159999968,174.48847159999968,174.48847159999968,,007,P008,2025_Feb_01_1216,ConditionRich,2021.2.3,59.93838334156256,
134.75,135.0,41,0.0,Stimuli/Blank.png,0,0,0.0,0,231,231,231,,,,,,,,,,,,,134.76838150000003,0.018381500000032247,None,175.23911489999955,175.23911489999955,175.23911489999955,175.23911489999955,175.23911489999955,175.23911489999955,175.23911489999955,175.23911489999955,175.23911489999955,175.23911489999955,,007,P008,2025_Feb_01_1216,ConditionRich,2021.2.3,59.93838334156256,
135.0,135.75,30,0.75,Stimuli/P008/things_jalapeno_04s.jpg,0,0,0.0,0,232,232,232,,,,,,,,,,,,,135.00460739999835,0.004607399998349138,None,175.48935899999924,175.48935899999924,175.48935899999924,175.48935899999924,175.48935899999924,175.48935899999924,175.48935899999924,175.48935899999924,175.48935899999924,175.48935899999924,,007,P008,2025_Feb_01_1216,ConditionRich,2021.2.3,59.93838334156256,
135.75,136.0,41,0.0,Stimuli/Blank.png,0,0,0.0,0,233,233,233,,,,,,,,,,,,,135.76927989999967,0.019279899999673944,None,176.24000559999877,176.24000559999877,176.24000559999877,176.24000559999877,176.24000559999877,176.24000559999877,176.24000559999877,176.24000559999877,176.24000559999877,176.24000559999877,,007,P008,2025_Feb_01_1216,ConditionRich,2021.2.3,59.93838334156256,
136.0,136.75,35,0.75,Stimuli/P008/things_pecan_04s.jpg,0,0,0.0,0,234,234,234,,,,,,,,,,,,,136.00339170000007,0.0033917000000656117,None,176.47354629999973,176.47354629999973,176.47354629999973,176.47354629999973,176.47354629999973,176.47354629999973,176.47354629999973,176.47354629999973,176.47354629999973,176.47354629999973,,007,P008,2025_Feb_01_1216,ConditionRich,2021.2.3,59.93838334156256,
136.75,137.0,41,0.0,Stimuli/Blank.png,0,0,0.0,0,235,235,235,,,,,,,,,,,,,136.75494849999995,0.004948499999954947,None,177.2408959000004,177.2408959000004,177.2408959000004,177.2408959000004,177.2408959000004,177.2408959000004,177.2408959000004,177.2408959000004,177.2408959000004,177.2408959000004,,007,P008,2025_Feb_01_1216,ConditionRich,2021.2.3,59.93838334156256,
137.0,137.75,35,0.75,Stimuli/P008/things_pecan_04s.jpg,0,0,0.0,0,236,236,236,,,,,,,,,,,,,137.02080529999876,0.0208052999987558,None,177.5078053999987,177.5078053999987,177.5078053999987,177.5078053999987,177.5078053999987,177.5078053999987,177.5078053999987,177.5078053999987,177.5078053999987,177.5078053999987,,007,P008,2025_Feb_01_1216,ConditionRich,2021.2.3,59.93838334156256,
137.75,138.0,41,0.0,Stimuli/Blank.png,0,0,0.0,0,237,237,237,,,,,,,,,,,,,137.7735776999998,0.02357769999980519,None,178.25846209999872,178.25846209999872,178.25846209999872,178.25846209999872,178.25846209999872,178.25846209999872,178.25846209999872,178.25846209999872,178.25846209999872,178.25846209999872,,007,P008,2025_Feb_01_1216,ConditionRich,2021.2.3,59.93838334156256,
138.0,138.75,35,0.75,Stimuli/P008/things_pecan_04s.jpg,0,0,0.0,0,238,238,238,,,,,,,,,,,,,138.0237382999985,0.023738299998512957,None,178.50868470000023,178.50868470000023,178.50868470000023,178.50868470000023,178.50868470000023,178.50868470000023,178.50868470000023,178.50868470000023,178.50868470000023,178.50868470000023,,007,P008,2025_Feb_01_1216,ConditionRich,2021.2.3,59.93838334156256,
138.75,139.0,41,0.0,Stimuli/Blank.png,0,0,0.0,0,239,239,239,,,,,,,,,,,,,138.77459159999853,0.02459159999853,None,179.25934810000035,179.25934810000035,179.25934810000035,179.25934810000035,179.25934810000035,179.25934810000035,179.25934810000035,179.25934810000035,179.25934810000035,179.25934810000035,,007,P008,2025_Feb_01_1216,ConditionRich,2021.2.3,59.93838334156256,
139.0,139.75,35,0.75,Stimuli/P008/things_pecan_04s.jpg,0,0,0.0,0,240,240,240,,,,,,,,,,,,,139.02534259999993,0.025342599999930826,None,179.50956469999983,179.50956469999983,179.50956469999983,179.50956469999983,179.50956469999983,179.50956469999983,179.50956469999983,179.50956469999983,179.50956469999983,179.50956469999983,,007,P008,2025_Feb_01_1216,ConditionRich,2021.2.3,59.93838334156256,
139.75,140.0,41,0.0,Stimuli/Blank.png,0,0,0.0,0,241,241,241,,,,,,,,,,,,,139.77355119999993,0.02355119999992894,None,180.24356009999974,180.24356009999974,180.24356009999974,180.24356009999974,180.24356009999974,180.24356009999974,180.24356009999974,180.24356009999974,180.24356009999974,180.24356009999974,,007,P008,2025_Feb_01_1216,ConditionRich,2021.2.3,59.93838334156256,
140.0,140.75,25,0.75,Stimuli/P008/things_credit_card_04s.jpg,1,0,0.75,0,242,242,242,,,,,,,,,,,,,140.00717499999882,0.007174999998824205,2,180.49377269999968,180.49377269999968,180.49377269999968,180.49377269999968,180.49377269999968,180.49377269999968,180.49377269999968,181.2110718999993,180.49377269999968,180.49377269999968,0.6304403000012826,007,P008,2025_Feb_01_1216,ConditionRich,2021.2.3,59.93838334156256,
140.75,141.0,41,0.0,Stimuli/Blank.png,0,0,0.0,0,243,243,243,,,,,,,,,,,,,140.77460549999887,0.024605499998870073,None,181.26113599999917,181.26113599999917,181.26113599999917,181.26113599999917,181.26113599999917,181.26113599999917,181.26113599999917,181.26113599999917,181.26113599999917,181.26113599999917,,007,P008,2025_Feb_01_1216,ConditionRich,2021.2.3,59.93838334156256,
141.0,141.75,25,0.75,Stimuli/P008/things_credit_card_04s.jpg,0,0,0.0,0,244,244,244,,,,,,,,,,,,,141.02393080000002,0.02393080000001646,None,181.49465719999898,181.49465719999898,181.49465719999898,181.49465719999898,181.49465719999898,181.49465719999898,181.49465719999898,181.49465719999898,181.49465719999898,181.49465719999898,,007,P008,2025_Feb_01_1216,ConditionRich,2021.2.3,59.93838334156256,
141.75,142.0,41,0.0,Stimuli/Blank.png,0,0,0.0,0,245,245,245,,,,,,,,,,,,,141.7584782999984,0.008478299998387229,None,182.2286456999991,182.2286456999991,182.2286456999991,182.2286456999991,182.2286456999991,182.2286456999991,182.2286456999991,182.2286456999991,182.2286456999991,182.2286456999991,,007,P008,2025_Feb_01_1216,ConditionRich,2021.2.3,59.93838334156256,
142.0,142.75,25,0.75,Stimuli/P008/things_credit_card_04s.jpg,0,0,0.0,0,246,246,246,,,,,,,,,,,,,142.00924849999865,0.009248499998648185,None,182.4955833999993,182.4955833999993,182.4955833999993,182.4955833999993,182.4955833999993,182.4955833999993,182.4955833999993,182.4955833999993,182.4955833999993,182.4955833999993,,007,P008,2025_Feb_01_1216,ConditionRich,2021.2.3,59.93838334156256,
142.75,143.0,41,0.0,Stimuli/Blank.png,0,0,0.0,0,247,247,247,,,,,,,,,,,,,142.7753192,0.025319200000012643,None,183.24620399999912,183.24620399999912,183.24620399999912,183.24620399999912,183.24620399999912,183.24620399999912,183.24620399999912,183.24620399999912,183.24620399999912,183.24620399999912,,007,P008,2025_Feb_01_1216,ConditionRich,2021.2.3,59.93838334156256,
143.0,143.75,25,0.75,Stimuli/P008/things_credit_card_04s.jpg,0,0,0.0,0,248,248,248,,,,,,,,,,,,,143.0098786999988,0.00987869999880786,None,183.4797426999994,183.4797426999994,183.4797426999994,183.4797426999994,183.4797426999994,183.4797426999994,183.4797426999994,183.4797426999994,183.4797426999994,183.4797426999994,,007,P008,2025_Feb_01_1216,ConditionRich,2021.2.3,59.93838334156256,
143.75,144.0,41,0.0,Stimuli/Blank.png,0,0,0.0,0,249,249,249,,,,,,,,,,,,,143.76024229999894,0.010242299998935778,None,184.23041529999864,184.23041529999864,184.23041529999864,184.23041529999864,184.23041529999864,184.23041529999864,184.23041529999864,184.23041529999864,184.23041529999864,184.23041529999864,,007,P008,2025_Feb_01_1216,ConditionRich,2021.2.3,59.93838334156256,
144.0,144.75,37,0.75,Stimuli/P008/things_praying_mantis_04s.jpg,0,0,0.0,0,250,250,250,,,,,,,,,,,,,144.01055539999834,0.010555399998338544,None,184.48062759999993,184.48062759999993,184.48062759999993,184.48062759999993,184.48062759999993,184.48062759999993,184.48062759999993,184.48062759999993,184.48062759999993,184.48062759999993,,007,P008,2025_Feb_01_1216,ConditionRich,2021.2.3,59.93838334156256,
144.75,145.0,41,0.0,Stimuli/Blank.png,0,0,0.0,0,251,251,251,,,,,,,,,,,,,144.76196569999956,0.011965699999564094,None,185.2313035999996,185.2313035999996,185.2313035999996,185.2313035999996,185.2313035999996,185.2313035999996,185.2313035999996,185.2313035999996,185.2313035999996,185.2313035999996,,007,P008,2025_Feb_01_1216,ConditionRich,2021.2.3,59.93838334156256,
145.0,145.75,37,0.75,Stimuli/P008/things_praying_mantis_04s.jpg,0,0,0.0,0,252,252,252,,,,,,,,,,,,,145.01361769999858,0.013617699998576427,None,185.49820539999928,185.49820539999928,185.49820539999928,185.49820539999928,185.49820539999928,185.49820539999928,185.49820539999928,185.49820539999928,185.49820539999928,185.49820539999928,,007,P008,2025_Feb_01_1216,ConditionRich,2021.2.3,59.93838334156256,
145.75,146.0,41,0.0,Stimuli/Blank.png,0,0,0.0,0,253,253,253,,,,,,,,,,,,,145.77890579999985,0.02890579999984766,None,186.2490386999998,186.2490386999998,186.2490386999998,186.2490386999998,186.2490386999998,186.2490386999998,186.2490386999998,186.2490386999998,186.2490386999998,186.2490386999998,,007,P008,2025_Feb_01_1216,ConditionRich,2021.2.3,59.93838334156256,
146.0,146.75,37,0.75,Stimuli/P008/things_praying_mantis_04s.jpg,0,0,0.0,0,254,254,254,,,,,,,,,,,,,146.01204719999987,0.012047199999869918,None,186.4990815000001,186.4990815000001,186.4990815000001,186.4990815000001,186.4990815000001,186.4990815000001,186.4990815000001,186.4990815000001,186.4990815000001,186.4990815000001,,007,P008,2025_Feb_01_1216,ConditionRich,2021.2.3,59.93838334156256,
146.75,147.0,41,0.0,Stimuli/Blank.png,0,0,0.0,0,255,255,255,,,,,,,,,,,,,146.77894109999943,0.028941099999428843,None,187.2497547999992,187.2497547999992,187.2497547999992,187.2497547999992,187.2497547999992,187.2497547999992,187.2497547999992,187.2497547999992,187.2497547999992,187.2497547999992,,007,P008,2025_Feb_01_1216,ConditionRich,2021.2.3,59.93838334156256,
147.0,147.75,37,0.75,Stimuli/P008/things_praying_mantis_04s.jpg,0,0,0.0,0,256,256,256,,,,,,,,,,,,,147.01341150000007,0.013411500000074739,None,187.4999614999997,187.4999614999997,187.4999614999997,187.4999614999997,187.4999614999997,187.4999614999997,187.4999614999997,187.4999614999997,187.4999614999997,187.4999614999997,,007,P008,2025_Feb_01_1216,ConditionRich,2021.2.3,59.93838334156256,
147.75,148.0,41,0.0,Stimuli/Blank.png,0,0,0.0,0,257,257,257,,,,,,,,,,,,,147.77977349999856,0.029773499998555053,None,188.25063129999944,188.25063129999944,188.25063129999944,188.25063129999944,188.25063129999944,188.25063129999944,188.25063129999944,188.25063129999944,188.25063129999944,188.25063129999944,,007,P008,2025_Feb_01_1216,ConditionRich,2021.2.3,59.93838334156256,
148.0,148.75,6,0.75,Stimuli/P008/sun_azpjjfwsbjdjcopb.jpg,0,0,0.0,0,258,258,258,,,,,,,,,,,,,148.01351669999895,0.013516699998945114,None,188.48414669999875,188.48414669999875,188.48414669999875,188.48414669999875,188.48414669999875,188.48414669999875,188.48414669999875,188.48414669999875,188.48414669999875,188.48414669999875,,007,P008,2025_Feb_01_1216,ConditionRich,2021.2.3,59.93838334156256,
148.75,149.0,41,0.0,Stimuli/Blank.png,0,0,0.0,0,259,259,259,,,,,,,,,,,,,148.76480769999944,0.014807699999437318,None,189.23483399999895,189.23483399999895,189.23483399999895,189.23483399999895,189.23483399999895,189.23483399999895,189.23483399999895,189.23483399999895,189.23483399999895,189.23483399999895,,007,P008,2025_Feb_01_1216,ConditionRich,2021.2.3,59.93838334156256,
149.0,149.75,6,0.75,Stimuli/P008/sun_azpjjfwsbjdjcopb.jpg,0,0,0.0,0,260,260,260,,,,,,,,,,,,,149.01489889999903,0.014898899999025161,None,189.48505560000012,189.48505560000012,189.48505560000012,189.48505560000012,189.48505560000012,189.48505560000012,189.48505560000012,189.48505560000012,189.48505560000012,189.48505560000012,,007,P008,2025_Feb_01_1216,ConditionRich,2021.2.3,59.93838334156256,
149.75,150.0,41,0.0,Stimuli/Blank.png,0,0,0.0,0,261,261,261,,,,,,,,,,,,,149.76513009999871,0.015130099998714286,None,190.23571749999974,190.23571749999974,190.23571749999974,190.23571749999974,190.23571749999974,190.23571749999974,190.23571749999974,190.23571749999974,190.23571749999974,190.23571749999974,,007,P008,2025_Feb_01_1216,ConditionRich,2021.2.3,59.93838334156256,
