eventStartTime,eventEndTime,eventCond,imSize,imFile,responseEvent,fixRespStart,fixRespEnd,Events.thisRepN,Events.thisTrialN,Events.thisN,Events.thisIndex,Instructions.started,Instructions.stopped,participantReadyResponse.keys,participantReadyResponse.rt,participantReadyResponse.started,participantReadyResponse.stopped,startWaitforTrigger,triggerResponse.keys,triggerResponse.rt,triggerResponse.started,triggerResponse.stopped,globalTimer,actualStartTime,startTimingDiff,participantResponse.keys,participantResponse.started,participantResponse.stopped,image.started,image.stopped,fixationOutside.started,fixationOutside.stopped,fixationResponse.started,fixationResponse.stopped,fixationInside.started,fixationInside.stopped,participantResponse.rt,session,participant,date,expName,psychopyVersion,frameRate,
,,,,,,,,,,,,14.289420200000677,None,2,12.141250000000582,14.289420200000677,None,,,,,,,,,,,,,,,,,,,,,006,P008,2025_Feb_01_1202,ConditionRich,2021.2.3,59.94506634140613,
,,,,,,,,,,,,,,,,,,26.437863000001016,5,13.35214470000028,26.45157880000079,None,,,,,,,,,,,,,,,,006,P008,2025_Feb_01_1202,ConditionRich,2021.2.3,59.94506634140613,
0.0,4.0,0,0.0,Stimuli/Blank.png,0,0.0,0.0,0,0,0,0,,,,,,,,,,,,39.81736369999999,0.032792100000733626,0.032792100000733626,None,39.86340250000103,None,39.86340250000103,None,39.86340250000103,None,39.86340250000103,39.86340250000103,39.86340250000103,None,,006,P008,2025_Feb_01_1202,ConditionRich,2021.2.3,59.94506634140613,
4.0,4.75,13,0.75,Stimuli/P008/sun_bkhuvtsqontzwtbo.jpg,0,0.0,0.0,0,1,1,1,,,,,,,,,,,,,4.0033746999997675,0.003374699999767472,None,43.85058209999988,43.85058209999988,43.85058209999988,43.85058209999988,43.85058209999988,43.85058209999988,43.85058209999988,43.85058209999988,43.85058209999988,43.85058209999988,,006,P008,2025_Feb_01_1202,ConditionRich,2021.2.3,59.94506634140613,
4.75,8.0,41,0.0,Stimuli/Blank.png,0,0.0,0.0,0,2,2,2,,,,,,,,,,,,,4.769668500000989,0.019668500000989297,None,44.60148020000088,44.60148020000088,44.60148020000088,44.60148020000088,44.60148020000088,44.60148020000088,44.60148020000088,44.60148020000088,44.60148020000088,44.60148020000088,,006,P008,2025_Feb_01_1202,ConditionRich,2021.2.3,59.94506634140613,
8.0,8.75,22,0.75,Stimuli/P008/things_boar_04s.jpg,0,0.0,0.0,0,3,3,3,,,,,,,,,,,,,8.005139800001416,0.005139800001416006,None,47.83712120000018,47.83712120000018,47.83712120000018,47.83712120000018,47.83712120000018,47.83712120000018,47.83712120000018,47.83712120000018,47.83712120000018,47.83712120000018,,006,P008,2025_Feb_01_1202,ConditionRich,2021.2.3,59.94506634140613,
8.75,12.0,41,0.0,Stimuli/Blank.png,1,1.25,2.0,0,4,4,4,,,,,,,,,,,,,8.758072500000708,0.008072500000707805,2,48.60449410000001,48.60449410000001,48.60449410000001,48.60449410000001,48.60449410000001,48.60449410000001,49.83889190000082,50.589555600001404,48.60449410000001,48.60449410000001,1.6052739000006113,006,P008,2025_Feb_01_1202,ConditionRich,2021.2.3,59.94506634140613,
12.0,12.75,14,0.75,Stimuli/P008/sun_bkvjqgmploznrhxt.jpg,0,0.0,0.0,0,5,5,5,,,,,,,,,,,,,12.028281500000958,0.02828150000095775,None,51.87402950000069,51.87402950000069,51.87402950000069,51.87402950000069,51.87402950000069,51.87402950000069,51.87402950000069,51.87402950000069,51.87402950000069,51.87402950000069,,006,P008,2025_Feb_01_1202,ConditionRich,2021.2.3,59.94506634140613,
12.75,16.0,41,0.0,Stimuli/Blank.png,0,0.0,0.0,0,6,6,6,,,,,,,,,,,,,12.77902240000003,0.029022400000030757,None,52.62469670000064,52.62469670000064,52.62469670000064,52.62469670000064,52.62469670000064,52.62469670000064,52.62469670000064,52.62469670000064,52.62469670000064,52.62469670000064,,006,P008,2025_Feb_01_1202,ConditionRich,2021.2.3,59.94506634140613,
16.0,16.75,24,0.75,Stimuli/P008/things_collar_04s.jpg,0,0.0,0.0,0,7,7,7,,,,,,,,,,,,,16.02985869999975,0.02985869999974966,None,55.86088519999976,55.86088519999976,55.86088519999976,55.86088519999976,55.86088519999976,55.86088519999976,55.86088519999976,55.86088519999976,55.86088519999976,55.86088519999976,,006,P008,2025_Feb_01_1202,ConditionRich,2021.2.3,59.94506634140613,
16.75,20.0,41,0.0,Stimuli/Blank.png,1,1.25,2.0,0,8,8,8,,,,,,,,,,,,,16.76378730000033,0.013787300000331015,2,56.59487570000056,56.59487570000056,56.59487570000056,56.59487570000056,56.59487570000056,56.59487570000056,57.82930790000137,58.579953500000556,56.59487570000056,56.59487570000056,1.6479569000002812,006,P008,2025_Feb_01_1202,ConditionRich,2021.2.3,59.94506634140613,
20.0,20.75,3,0.75,Stimuli/P008/sun_aueftjhdwnvkbzlt.jpg,0,0.0,0.0,0,9,9,9,,,,,,,,,,,,,19.99984680000125,-0.00015319999874918722,None,59.84777740000027,59.84777740000027,59.84777740000027,59.84777740000027,59.84777740000027,59.84777740000027,59.84777740000027,59.84777740000027,59.84777740000027,59.84777740000027,,006,P008,2025_Feb_01_1202,ConditionRich,2021.2.3,59.94506634140613,
20.75,24.0,41,0.0,Stimuli/Blank.png,1,2.25,3.0,0,10,10,10,,,,,,,,,,,,,20.768416000000798,0.018416000000797794,2,60.598427800001446,60.598427800001446,60.598427800001446,60.598427800001446,60.598427800001446,60.598427800001446,62.83373879999999,63.58438449999994,60.598427800001446,60.598427800001446,2.617274099999122,006,P008,2025_Feb_01_1202,ConditionRich,2021.2.3,59.94506634140613,
24.0,24.75,12,0.75,Stimuli/P008/sun_bitpmyvulluuasab.jpg,0,0.0,0.0,0,11,11,11,,,,,,,,,,,,,24.002767400001176,0.0027674000011757016,None,63.83461020000141,63.83461020000141,63.83461020000141,63.83461020000141,63.83461020000141,63.83461020000141,63.83461020000141,63.83461020000141,63.83461020000141,63.83461020000141,,006,P008,2025_Feb_01_1202,ConditionRich,2021.2.3,59.94506634140613,
24.75,28.0,41,0.0,Stimuli/Blank.png,1,0.25,1.0,0,12,12,12,,,,,,,,,,,,,24.75342140000066,0.0034214000006613787,2,64.58527660000073,64.58527660000073,64.58527660000073,64.58527660000073,64.58527660000073,64.58527660000073,64.81882450000012,65.56947110000146,64.58527660000073,64.58527660000073,0.6194704999998066,006,P008,2025_Feb_01_1202,ConditionRich,2021.2.3,59.94506634140613,
28.0,28.75,11,0.75,Stimuli/P008/sun_bdsriuscubkvzrmt.jpg,0,0.0,0.0,0,13,13,13,,,,,,,,,,,,,28.008544000000256,0.008544000000256347,None,67.85483720000047,67.85483720000047,67.85483720000047,67.85483720000047,67.85483720000047,67.85483720000047,67.85483720000047,67.85483720000047,67.85483720000047,67.85483720000047,,006,P008,2025_Feb_01_1202,ConditionRich,2021.2.3,59.94506634140613,
28.75,32.0,41,0.0,Stimuli/Blank.png,0,0.0,0.0,0,14,14,14,,,,,,,,,,,,,28.77447790000042,0.02447790000042005,None,68.60549170000013,68.60549170000013,68.60549170000013,68.60549170000013,68.60549170000013,68.60549170000013,68.60549170000013,68.60549170000013,68.60549170000013,68.60549170000013,,006,P008,2025_Feb_01_1202,ConditionRich,2021.2.3,59.94506634140613,
32.0,32.75,33,0.75,Stimuli/P008/things_man_04s.jpg,0,0.0,0.0,0,15,15,15,,,,,,,,,,,,,32.009750500001246,0.00975050000124611,None,71.84180519999973,71.84180519999973,71.84180519999973,71.84180519999973,71.84180519999973,71.84180519999973,71.84180519999973,71.84180519999973,71.84180519999973,71.84180519999973,,006,P008,2025_Feb_01_1202,ConditionRich,2021.2.3,59.94506634140613,
32.75,36.0,41,0.0,Stimuli/Blank.png,0,0.0,0.0,0,16,16,16,,,,,,,,,,,,,32.76288540000132,0.012885400001323433,None,72.60904330000085,72.60904330000085,72.60904330000085,72.60904330000085,72.60904330000085,72.60904330000085,72.60904330000085,72.60904330000085,72.60904330000085,72.60904330000085,,006,P008,2025_Feb_01_1202,ConditionRich,2021.2.3,59.94506634140613,
36.0,36.75,28,0.75,Stimuli/P008/things_girl_04s.jpg,0,0.0,0.0,0,17,17,17,,,,,,,,,,,,,36.013961700000436,0.013961700000436394,None,75.84523179999997,75.84523179999997,75.84523179999997,75.84523179999997,75.84523179999997,75.84523179999997,75.84523179999997,75.84523179999997,75.84523179999997,75.84523179999997,,006,P008,2025_Feb_01_1202,ConditionRich,2021.2.3,59.94506634140613,
36.75,40.0,41,0.0,Stimuli/Blank.png,0,0.0,0.0,0,18,18,18,,,,,,,,,,,,,36.76403930000015,0.014039300000149524,None,76.59590070000013,76.59590070000013,76.59590070000013,76.59590070000013,76.59590070000013,76.59590070000013,76.59590070000013,76.59590070000013,76.59590070000013,76.59590070000013,,006,P008,2025_Feb_01_1202,ConditionRich,2021.2.3,59.94506634140613,
40.0,40.75,23,0.75,Stimuli/P008/things_bumper_04s.jpg,0,0.0,0.0,0,19,19,19,,,,,,,,,,,,,40.000513000000865,0.0005130000008648494,None,79.83209160000115,79.83209160000115,79.83209160000115,79.83209160000115,79.83209160000115,79.83209160000115,79.83209160000115,79.83209160000115,79.83209160000115,79.83209160000115,,006,P008,2025_Feb_01_1202,ConditionRich,2021.2.3,59.94506634140613,
40.75,44.0,41,0.0,Stimuli/Blank.png,0,0.0,0.0,0,20,20,20,,,,,,,,,,,,,40.75301740000032,0.0030174000003171386,None,80.59948030000123,80.59948030000123,80.59948030000123,80.59948030000123,80.59948030000123,80.59948030000123,80.59948030000123,80.59948030000123,80.59948030000123,80.59948030000123,,006,P008,2025_Feb_01_1202,ConditionRich,2021.2.3,59.94506634140613,
44.0,44.75,26,0.75,Stimuli/P008/things_face_04s.jpg,0,0.0,0.0,0,21,21,21,,,,,,,,,,,,,44.02329070000087,0.023290700000870856,None,83.86900810000043,83.86900810000043,83.86900810000043,83.86900810000043,83.86900810000043,83.86900810000043,83.86900810000043,83.86900810000043,83.86900810000043,83.86900810000043,,006,P008,2025_Feb_01_1202,ConditionRich,2021.2.3,59.94506634140613,
44.75,48.0,41,0.0,Stimuli/Blank.png,0,0.0,0.0,0,22,22,22,,,,,,,,,,,,,44.77174120000018,0.02174120000017865,None,84.60302779999984,84.60302779999984,84.60302779999984,84.60302779999984,84.60302779999984,84.60302779999984,84.60302779999984,84.60302779999984,84.60302779999984,84.60302779999984,,006,P008,2025_Feb_01_1202,ConditionRich,2021.2.3,59.94506634140613,
48.0,48.75,7,0.75,Stimuli/P008/sun_babhwrqvnhanonuy.jpg,0,0.0,0.0,0,23,23,23,,,,,,,,,,,,,48.00736860000143,0.007368600001427694,None,87.83916780000072,87.83916780000072,87.83916780000072,87.83916780000072,87.83916780000072,87.83916780000072,87.83916780000072,87.83916780000072,87.83916780000072,87.83916780000072,,006,P008,2025_Feb_01_1202,ConditionRich,2021.2.3,59.94506634140613,
48.75,52.0,41,0.0,Stimuli/Blank.png,1,1.25,2.0,0,24,24,24,,,,,,,,,,,,,48.758656600000904,0.008656600000904291,2,88.58983740000076,88.58983740000076,88.58983740000076,88.58983740000076,88.58983740000076,88.58983740000076,89.82440260000112,90.57493520000025,88.58983740000076,88.58983740000076,1.6729019000013068,006,P008,2025_Feb_01_1202,ConditionRich,2021.2.3,59.94506634140613,
52.0,52.75,19,0.75,Stimuli/P008/sun_brpfgrmubnnjvfkw.jpg,0,0.0,0.0,0,25,25,25,,,,,,,,,,,,,52.01126570000088,0.011265700000876677,None,91.84271369999988,91.84271369999988,91.84271369999988,91.84271369999988,91.84271369999988,91.84271369999988,91.84271369999988,91.84271369999988,91.84271369999988,91.84271369999988,,006,P008,2025_Feb_01_1202,ConditionRich,2021.2.3,59.94506634140613,
52.75,56.0,41,0.0,Stimuli/Blank.png,0,0.0,0.0,0,26,26,26,,,,,,,,,,,,,52.76355800000056,0.013558000000557513,None,92.61006930000076,92.61006930000076,92.61006930000076,92.61006930000076,92.61006930000076,92.61006930000076,92.61006930000076,92.61006930000076,92.61006930000076,92.61006930000076,,006,P008,2025_Feb_01_1202,ConditionRich,2021.2.3,59.94506634140613,
56.0,56.75,16,0.75,Stimuli/P008/sun_bnpggenxuowzsywq.jpg,0,0.0,0.0,0,27,27,27,,,,,,,,,,,,,56.01430260000052,0.014302600000519305,None,95.84625570000026,95.84625570000026,95.84625570000026,95.84625570000026,95.84625570000026,95.84625570000026,95.84625570000026,95.84625570000026,95.84625570000026,95.84625570000026,,006,P008,2025_Feb_01_1202,ConditionRich,2021.2.3,59.94506634140613,
56.75,60.0,41,0.0,Stimuli/Blank.png,0,0.0,0.0,0,28,28,28,,,,,,,,,,,,,56.767936800000825,0.017936800000825315,2,96.6136101000011,96.6136101000011,96.6136101000011,96.6136101000011,96.6136101000011,96.6136101000011,96.6136101000011,96.6136101000011,96.6136101000011,96.6136101000011,2.185336799999277,006,P008,2025_Feb_01_1202,ConditionRich,2021.2.3,59.94506634140613,
60.0,60.75,40,0.75,Stimuli/P008/things_woman_04s.jpg,0,0.0,0.0,0,29,29,29,,,,,,,,,,,,,60.018466600000465,0.018466600000465405,None,99.84979930000009,99.84979930000009,99.84979930000009,99.84979930000009,99.84979930000009,99.84979930000009,99.84979930000009,99.84979930000009,99.84979930000009,99.84979930000009,,006,P008,2025_Feb_01_1202,ConditionRich,2021.2.3,59.94506634140613,
60.75,64.0,41,0.0,Stimuli/Blank.png,0,0.0,0.0,0,30,30,30,,,,,,,,,,,,,60.75244200000088,0.0024420000008831266,None,100.58379010000135,100.58379010000135,100.58379010000135,100.58379010000135,100.58379010000135,100.58379010000135,100.58379010000135,100.58379010000135,100.58379010000135,100.58379010000135,,006,P008,2025_Feb_01_1202,ConditionRich,2021.2.3,59.94506634140613,
64.0,64.75,38,0.75,Stimuli/P008/things_rollerblade_04s.jpg,0,0.0,0.0,0,31,31,31,,,,,,,,,,,,,64.00488810000024,0.004888100000243867,None,103.83666730000004,103.83666730000004,103.83666730000004,103.83666730000004,103.83666730000004,103.83666730000004,103.83666730000004,103.83666730000004,103.83666730000004,103.83666730000004,,006,P008,2025_Feb_01_1202,ConditionRich,2021.2.3,59.94506634140613,
64.75,68.0,41,0.0,Stimuli/Blank.png,0,0.0,0.0,0,32,32,32,,,,,,,,,,,,,64.75556640000104,0.005566400001043803,None,104.58732779999991,104.58732779999991,104.58732779999991,104.58732779999991,104.58732779999991,104.58732779999991,104.58732779999991,104.58732779999991,104.58732779999991,104.58732779999991,,006,P008,2025_Feb_01_1202,ConditionRich,2021.2.3,59.94506634140613,
68.0,68.75,20,0.75,Stimuli/P008/sun_btrxtfbwtggtrpfv.jpg,0,0.0,0.0,0,33,33,33,,,,,,,,,,,,,68.00892829999975,0.008928299999752198,None,107.84076290000121,107.84076290000121,107.84076290000121,107.84076290000121,107.84076290000121,107.84076290000121,107.84076290000121,107.84076290000121,107.84076290000121,107.84076290000121,,006,P008,2025_Feb_01_1202,ConditionRich,2021.2.3,59.94506634140613,
68.75,72.0,41,0.0,Stimuli/Blank.png,0,0.0,0.0,0,34,34,34,,,,,,,,,,,,,68.75971540000137,0.009715400001368835,None,108.59086670000033,108.59086670000033,108.59086670000033,108.59086670000033,108.59086670000033,108.59086670000033,108.59086670000033,108.59086670000033,108.59086670000033,108.59086670000033,,006,P008,2025_Feb_01_1202,ConditionRich,2021.2.3,59.94506634140613,
72.0,72.75,36,0.75,Stimuli/P008/things_platypus_04s.jpg,0,0.0,0.0,0,35,35,35,,,,,,,,,,,,,72.0118110000003,0.011811000000307104,None,111.84373940000114,111.84373940000114,111.84373940000114,111.84373940000114,111.84373940000114,111.84373940000114,111.84373940000114,111.84373940000114,111.84373940000114,111.84373940000114,,006,P008,2025_Feb_01_1202,ConditionRich,2021.2.3,59.94506634140613,
72.75,76.0,41,0.0,Stimuli/Blank.png,0,0.0,0.0,0,36,36,36,,,,,,,,,,,,,72.76238569999987,0.012385699999867938,None,112.59441060000063,112.59441060000063,112.59441060000063,112.59441060000063,112.59441060000063,112.59441060000063,112.59441060000063,112.59441060000063,112.59441060000063,112.59441060000063,,006,P008,2025_Feb_01_1202,ConditionRich,2021.2.3,59.94506634140613,
76.0,76.75,17,0.75,Stimuli/P008/sun_bnsxdhbsafbdyncy.jpg,0,0.0,0.0,0,37,37,37,,,,,,,,,,,,,76.01894379999976,0.018943799999760813,None,115.8639789000008,115.8639789000008,115.8639789000008,115.8639789000008,115.8639789000008,115.8639789000008,115.8639789000008,115.8639789000008,115.8639789000008,115.8639789000008,,006,P008,2025_Feb_01_1202,ConditionRich,2021.2.3,59.94506634140613,
76.75,80.0,41,0.0,Stimuli/Blank.png,0,0.0,0.0,0,38,38,38,,,,,,,,,,,,,76.76671119999992,0.01671119999991788,None,116.59795250000025,116.59795250000025,116.59795250000025,116.59795250000025,116.59795250000025,116.59795250000025,116.59795250000025,116.59795250000025,116.59795250000025,116.59795250000025,,006,P008,2025_Feb_01_1202,ConditionRich,2021.2.3,59.94506634140613,
80.0,80.75,18,0.75,Stimuli/P008/sun_borgfidyubrwsuuw.jpg,0,0.0,0.0,0,39,39,39,,,,,,,,,,,,,80.00253909999992,0.0025390999999217456,None,119.83413889999974,119.83413889999974,119.83413889999974,119.83413889999974,119.83413889999974,119.83413889999974,119.83413889999974,119.83413889999974,119.83413889999974,119.83413889999974,,006,P008,2025_Feb_01_1202,ConditionRich,2021.2.3,59.94506634140613,
80.75,84.0,41,0.0,Stimuli/Blank.png,0,0.0,0.0,0,40,40,40,,,,,,,,,,,,,80.753557,0.0035570000000006985,None,120.58481010000105,120.58481010000105,120.58481010000105,120.58481010000105,120.58481010000105,120.58481010000105,120.58481010000105,120.58481010000105,120.58481010000105,120.58481010000105,,006,P008,2025_Feb_01_1202,ConditionRich,2021.2.3,59.94506634140613,
84.0,100.0,0,0.0,Stimuli/Blank.png,1,12.0,12.75,0,41,41,41,,,,,,,,,,,,,84.0063996000008,0.006399600000804639,2,123.83772090000093,123.83772090000093,123.83772090000093,123.83772090000093,123.83772090000093,123.83772090000093,135.83162319999974,136.5823063000007,123.83772090000093,123.83772090000093,12.451071600000432,006,P008,2025_Feb_01_1202,ConditionRich,2021.2.3,59.94506634140613,
100.0,100.75,1,0.75,Stimuli/P008/sun_abrlrupzcrwpxqfc.jpg,1,0.0,0.75,0,42,42,42,,,,,,,,,,,,,100.00380380000024,0.0038038000002416084,2,139.83516390000113,139.83516390000113,139.83516390000113,139.83516390000113,139.83516390000113,139.83516390000113,139.83516390000113,140.56914060000054,139.83516390000113,139.83516390000113,0.6197083999995812,006,P008,2025_Feb_01_1202,ConditionRich,2021.2.3,59.94506634140613,
100.75,104.0,41,0.0,Stimuli/Blank.png,0,0.0,0.0,0,43,43,43,,,,,,,,,,,,,100.75462660000085,0.004626600000847247,None,140.58583569999973,140.58583569999973,140.58583569999973,140.58583569999973,140.58583569999973,140.58583569999973,140.58583569999973,140.58583569999973,140.58583569999973,140.58583569999973,,006,P008,2025_Feb_01_1202,ConditionRich,2021.2.3,59.94506634140613,
104.0,104.75,37,0.75,Stimuli/P008/things_praying_mantis_04s.jpg,0,0.0,0.0,0,44,44,44,,,,,,,,,,,,,104.00700890000007,0.007008900000073481,None,143.83870399999978,143.83870399999978,143.83870399999978,143.83870399999978,143.83870399999978,143.83870399999978,143.83870399999978,143.83870399999978,143.83870399999978,143.83870399999978,,006,P008,2025_Feb_01_1202,ConditionRich,2021.2.3,59.94506634140613,
104.75,108.0,41,0.0,Stimuli/Blank.png,0,0.0,0.0,0,45,45,45,,,,,,,,,,,,,104.75755589999972,0.007555899999715621,None,144.58937530000003,144.58937530000003,144.58937530000003,144.58937530000003,144.58937530000003,144.58937530000003,144.58937530000003,144.58937530000003,144.58937530000003,144.58937530000003,,006,P008,2025_Feb_01_1202,ConditionRich,2021.2.3,59.94506634140613,
108.0,108.75,25,0.75,Stimuli/P008/things_credit_card_04s.jpg,0,0.0,0.0,0,46,46,46,,,,,,,,,,,,,108.01423910000085,0.014239100000850158,None,147.8589430000011,147.8589430000011,147.8589430000011,147.8589430000011,147.8589430000011,147.8589430000011,147.8589430000011,147.8589430000011,147.8589430000011,147.8589430000011,,006,P008,2025_Feb_01_1202,ConditionRich,2021.2.3,59.94506634140613,
108.75,112.0,41,0.0,Stimuli/Blank.png,0,0.0,0.0,0,47,47,47,,,,,,,,,,,,,108.77870650000114,0.028706500001135282,None,148.60960010000053,148.60960010000053,148.60960010000053,148.60960010000053,148.60960010000053,148.60960010000053,148.60960010000053,148.60960010000053,148.60960010000053,148.60960010000053,,006,P008,2025_Feb_01_1202,ConditionRich,2021.2.3,59.94506634140613,
112.0,112.75,31,0.75,Stimuli/P008/things_jug_04s.jpg,0,0.0,0.0,0,48,48,48,,,,,,,,,,,,,112.01397750000069,0.013977500000692089,None,151.84579630000007,151.84579630000007,151.84579630000007,151.84579630000007,151.84579630000007,151.84579630000007,151.84579630000007,151.84579630000007,151.84579630000007,151.84579630000007,,006,P008,2025_Feb_01_1202,ConditionRich,2021.2.3,59.94506634140613,
112.75,116.0,41,0.0,Stimuli/Blank.png,0,0.0,0.0,0,49,49,49,,,,,,,,,,,,,112.76458880000064,0.014588800000638003,None,152.5964694000013,152.5964694000013,152.5964694000013,152.5964694000013,152.5964694000013,152.5964694000013,152.5964694000013,152.5964694000013,152.5964694000013,152.5964694000013,,006,P008,2025_Feb_01_1202,ConditionRich,2021.2.3,59.94506634140613,
116.0,116.75,29,0.75,Stimuli/P008/things_hawk_04s.jpg,0,0.0,0.0,0,50,50,50,,,,,,,,,,,,,116.00120570000036,0.0012057000003551366,None,155.84934539999995,155.84934539999995,155.84934539999995,155.84934539999995,155.84934539999995,155.84934539999995,155.84934539999995,155.84934539999995,155.84934539999995,155.84934539999995,,006,P008,2025_Feb_01_1202,ConditionRich,2021.2.3,59.94506634140613,
116.75,120.0,41,0.0,Stimuli/Blank.png,0,0.0,0.0,0,51,51,51,,,,,,,,,,,,,116.76877100000092,0.018771000000924687,None,156.60000300000138,156.60000300000138,156.60000300000138,156.60000300000138,156.60000300000138,156.60000300000138,156.60000300000138,156.60000300000138,156.60000300000138,156.60000300000138,,006,P008,2025_Feb_01_1202,ConditionRich,2021.2.3,59.94506634140613,
120.0,120.75,35,0.75,Stimuli/P008/things_pecan_04s.jpg,0,0.0,0.0,0,52,52,52,,,,,,,,,,,,,120.00432569999975,0.0043256999997538514,None,159.85287340000104,159.85287340000104,159.85287340000104,159.85287340000104,159.85287340000104,159.85287340000104,159.85287340000104,159.85287340000104,159.85287340000104,159.85287340000104,,006,P008,2025_Feb_01_1202,ConditionRich,2021.2.3,59.94506634140613,
120.75,124.0,41,0.0,Stimuli/Blank.png,0,0.0,0.0,0,53,53,53,,,,,,,,,,,,,120.7728543000012,0.02285430000119959,None,160.6035178000002,160.6035178000002,160.6035178000002,160.6035178000002,160.6035178000002,160.6035178000002,160.6035178000002,160.6035178000002,160.6035178000002,160.6035178000002,,006,P008,2025_Feb_01_1202,ConditionRich,2021.2.3,59.94506634140613,
124.0,124.75,27,0.75,Stimuli/P008/things_fur_coat_04s.jpg,0,0.0,0.0,0,54,54,54,,,,,,,,,,,,,124.00838160000058,0.008381600000575418,None,163.83973660000083,163.83973660000083,163.83973660000083,163.83973660000083,163.83973660000083,163.83973660000083,163.83973660000083,163.83973660000083,163.83973660000083,163.83973660000083,,006,P008,2025_Feb_01_1202,ConditionRich,2021.2.3,59.94506634140613,
124.75,128.0,41,0.0,Stimuli/Blank.png,0,0.0,0.0,0,55,55,55,,,,,,,,,,,,,124.75880040000084,0.008800400000836817,None,164.5903956000002,164.5903956000002,164.5903956000002,164.5903956000002,164.5903956000002,164.5903956000002,164.5903956000002,164.5903956000002,164.5903956000002,164.5903956000002,,006,P008,2025_Feb_01_1202,ConditionRich,2021.2.3,59.94506634140613,
128.0,128.75,2,0.75,Stimuli/P008/sun_ajyzloqaptmicnfr.jpg,0,0.0,0.0,0,56,56,56,,,,,,,,,,,,,128.01189870000053,0.011898700000529061,None,167.8432775000001,167.8432775000001,167.8432775000001,167.8432775000001,167.8432775000001,167.8432775000001,167.8432775000001,167.8432775000001,167.8432775000001,167.8432775000001,,006,P008,2025_Feb_01_1202,ConditionRich,2021.2.3,59.94506634140613,
128.75,132.0,41,0.0,Stimuli/Blank.png,1,1.25,2.0,0,57,57,57,,,,,,,,,,,,,128.7627639000002,0.012763900000209105,2,168.59394210000028,168.59394210000028,168.59394210000028,168.59394210000028,168.59394210000028,168.59394210000028,169.8283177000012,170.57903729999998,168.59394210000028,168.59394210000028,1.6828960999991978,006,P008,2025_Feb_01_1202,ConditionRich,2021.2.3,59.94506634140613,
132.0,132.75,34,0.75,Stimuli/P008/things_moose_04s.jpg,0,0.0,0.0,0,58,58,58,,,,,,,,,,,,,132.0149108000005,0.014910800000507152,None,171.84681079999973,171.84681079999973,171.84681079999973,171.84681079999973,171.84681079999973,171.84681079999973,171.84681079999973,171.84681079999973,171.84681079999973,171.84681079999973,,006,P008,2025_Feb_01_1202,ConditionRich,2021.2.3,59.94506634140613,
132.75,136.0,41,0.0,Stimuli/Blank.png,0,0.0,0.0,0,59,59,59,,,,,,,,,,,,,132.76791220000086,0.017912200000864686,None,172.61417020000044,172.61417020000044,172.61417020000044,172.61417020000044,172.61417020000044,172.61417020000044,172.61417020000044,172.61417020000044,172.61417020000044,172.61417020000044,,006,P008,2025_Feb_01_1202,ConditionRich,2021.2.3,59.94506634140613,
136.0,136.75,6,0.75,Stimuli/P008/sun_azpjjfwsbjdjcopb.jpg,0,0.0,0.0,0,60,60,60,,,,,,,,,,,,,136.0194616000008,0.019461600000795443,None,175.85035740000058,175.85035740000058,175.85035740000058,175.85035740000058,175.85035740000058,175.85035740000058,175.85035740000058,175.85035740000058,175.85035740000058,175.85035740000058,,006,P008,2025_Feb_01_1202,ConditionRich,2021.2.3,59.94506634140613,
136.75,140.0,41,0.0,Stimuli/Blank.png,1,1.25,2.0,0,61,61,61,,,,,,,,,,,,,136.75376649999998,0.0037664999999833526,2,176.58434390000002,176.58434390000002,176.58434390000002,176.58434390000002,176.58434390000002,176.58434390000002,177.81876480000028,178.56942479999998,176.58434390000002,176.58434390000002,1.6324896000005538,006,P008,2025_Feb_01_1202,ConditionRich,2021.2.3,59.94506634140613,
140.0,140.75,39,0.75,Stimuli/P008/things_showerhead_04s.jpg,0,0.0,0.0,0,62,62,62,,,,,,,,,,,,,140.00524600000062,0.0052460000006249174,None,179.8372190000009,179.8372190000009,179.8372190000009,179.8372190000009,179.8372190000009,179.8372190000009,179.8372190000009,179.8372190000009,179.8372190000009,179.8372190000009,,006,P008,2025_Feb_01_1202,ConditionRich,2021.2.3,59.94506634140613,
140.75,144.0,41,0.0,Stimuli/Blank.png,0,0.0,0.0,0,63,63,63,,,,,,,,,,,,,140.75829160000103,0.00829160000103002,None,180.6046148000005,180.6046148000005,180.6046148000005,180.6046148000005,180.6046148000005,180.6046148000005,180.6046148000005,180.6046148000005,180.6046148000005,180.6046148000005,,006,P008,2025_Feb_01_1202,ConditionRich,2021.2.3,59.94506634140613,
144.0,144.75,32,0.75,Stimuli/P008/things_maggot_04s.jpg,0,0.0,0.0,0,64,64,64,,,,,,,,,,,,,144.02550200000042,0.025502000000415137,None,183.87413170000036,183.87413170000036,183.87413170000036,183.87413170000036,183.87413170000036,183.87413170000036,183.87413170000036,183.87413170000036,183.87413170000036,183.87413170000036,,006,P008,2025_Feb_01_1202,ConditionRich,2021.2.3,59.94506634140613,
144.75,148.0,41,0.0,Stimuli/Blank.png,0,0.0,0.0,0,65,65,65,,,,,,,,,,,,,144.77686650000032,0.026866500000323867,None,184.6081525999998,184.6081525999998,184.6081525999998,184.6081525999998,184.6081525999998,184.6081525999998,184.6081525999998,184.6081525999998,184.6081525999998,184.6081525999998,,006,P008,2025_Feb_01_1202,ConditionRich,2021.2.3,59.94506634140613,
148.0,148.75,15,0.75,Stimuli/P008/sun_bmeductqpfkygtww.jpg,0,0.0,0.0,0,66,66,66,,,,,,,,,,,,,148.0138605000011,0.013860500001101173,None,187.86097660000087,187.86097660000087,187.86097660000087,187.86097660000087,187.86097660000087,187.86097660000087,187.86097660000087,187.86097660000087,187.86097660000087,187.86097660000087,,006,P008,2025_Feb_01_1202,ConditionRich,2021.2.3,59.94506634140613,
148.75,152.0,41,0.0,Stimuli/Blank.png,0,0.0,0.0,0,67,67,67,,,,,,,,,,,,,148.78028319999976,0.030283199999757926,None,188.61164199999985,188.61164199999985,188.61164199999985,188.61164199999985,188.61164199999985,188.61164199999985,188.61164199999985,188.61164199999985,188.61164199999985,188.61164199999985,,006,P008,2025_Feb_01_1202,ConditionRich,2021.2.3,59.94506634140613,
152.0,152.75,9,0.75,Stimuli/P008/sun_bcsqogieozpyvuft.jpg,0,0.0,0.0,0,68,68,68,,,,,,,,,,,,,151.99935480000022,-0.0006451999997807434,None,191.8478386000006,191.8478386000006,191.8478386000006,191.8478386000006,191.8478386000006,191.8478386000006,191.8478386000006,191.8478386000006,191.8478386000006,191.8478386000006,,006,P008,2025_Feb_01_1202,ConditionRich,2021.2.3,59.94506634140613,
152.75,156.0,41,0.0,Stimuli/Blank.png,0,0.0,0.0,0,69,69,69,,,,,,,,,,,,,152.76797129999977,0.017971299999771873,None,192.59853190000103,192.59853190000103,192.59853190000103,192.59853190000103,192.59853190000103,192.59853190000103,192.59853190000103,192.59853190000103,192.59853190000103,192.59853190000103,,006,P008,2025_Feb_01_1202,ConditionRich,2021.2.3,59.94506634140613,
156.0,156.75,21,0.75,Stimuli/P008/things_baby_04s.jpg,0,0.0,0.0,0,70,70,70,,,,,,,,,,,,,156.00274660000105,0.0027466000010463176,None,195.83470470000066,195.83470470000066,195.83470470000066,195.83470470000066,195.83470470000066,195.83470470000066,195.83470470000066,195.83470470000066,195.83470470000066,195.83470470000066,,006,P008,2025_Feb_01_1202,ConditionRich,2021.2.3,59.94506634140613,
156.75,160.0,41,0.0,Stimuli/Blank.png,0,0.0,0.0,0,71,71,71,,,,,,,,,,,,,156.75350720000097,0.003507200000967714,None,196.58536860000095,196.58536860000095,196.58536860000095,196.58536860000095,196.58536860000095,196.58536860000095,196.58536860000095,196.58536860000095,196.58536860000095,196.58536860000095,,006,P008,2025_Feb_01_1202,ConditionRich,2021.2.3,59.94506634140613,
160.0,160.75,10,0.75,Stimuli/P008/sun_bdekcgnlcicvgpvq.jpg,0,0.0,0.0,0,72,72,72,,,,,,,,,,,,,160.00893410000026,0.008934100000260514,None,199.85492750000049,199.85492750000049,199.85492750000049,199.85492750000049,199.85492750000049,199.85492750000049,199.85492750000049,199.85492750000049,199.85492750000049,199.85492750000049,,006,P008,2025_Feb_01_1202,ConditionRich,2021.2.3,59.94506634140613,
160.75,164.0,41,0.0,Stimuli/Blank.png,0,0.0,0.0,0,73,73,73,,,,,,,,,,,,,160.77357790000133,0.02357790000132809,None,200.60558480000145,200.60558480000145,200.60558480000145,200.60558480000145,200.60558480000145,200.60558480000145,200.60558480000145,200.60558480000145,200.60558480000145,200.60558480000145,,006,P008,2025_Feb_01_1202,ConditionRich,2021.2.3,59.94506634140613,
164.0,164.75,5,0.75,Stimuli/P008/sun_ayzkwnqsoiycbncn.jpg,0,0.0,0.0,0,74,74,74,,,,,,,,,,,,,164.00984560000143,0.009845600001426646,None,203.84178410000095,203.84178410000095,203.84178410000095,203.84178410000095,203.84178410000095,203.84178410000095,203.84178410000095,203.84178410000095,203.84178410000095,203.84178410000095,,006,P008,2025_Feb_01_1202,ConditionRich,2021.2.3,59.94506634140613,
164.75,168.0,41,0.0,Stimuli/Blank.png,0,0.0,0.0,0,75,75,75,,,,,,,,,,,,,164.76109859999997,0.011098599999968428,None,204.5924782000002,204.5924782000002,204.5924782000002,204.5924782000002,204.5924782000002,204.5924782000002,204.5924782000002,204.5924782000002,204.5924782000002,204.5924782000002,,006,P008,2025_Feb_01_1202,ConditionRich,2021.2.3,59.94506634140613,
168.0,168.75,30,0.75,Stimuli/P008/things_jalapeno_04s.jpg,1,0.0,0.75,0,76,76,76,,,,,,,,,,,,,168.01476430000002,0.014764300000024377,2,207.8620116000002,207.8620116000002,207.8620116000002,207.8620116000002,207.8620116000002,207.8620116000002,207.8620116000002,208.57930900000065,207.8620116000002,207.8620116000002,0.47610530000019935,006,P008,2025_Feb_01_1202,ConditionRich,2021.2.3,59.94506634140613,
168.75,172.0,41,0.0,Stimuli/Blank.png,0,0.0,0.0,0,77,77,77,,,,,,,,,,,,,168.78352670000095,0.03352670000094804,None,208.62935260000086,208.62935260000086,208.62935260000086,208.62935260000086,208.62935260000086,208.62935260000086,208.62935260000086,208.62935260000086,208.62935260000086,208.62935260000086,,006,P008,2025_Feb_01_1202,ConditionRich,2021.2.3,59.94506634140613,
172.0,172.75,4,0.75,Stimuli/P008/sun_awqukazlzsxaokai.jpg,0,0.0,0.0,0,78,78,78,,,,,,,,,,,,,172.01770450000004,0.017704500000036205,None,211.8488809999999,211.8488809999999,211.8488809999999,211.8488809999999,211.8488809999999,211.8488809999999,211.8488809999999,211.8488809999999,211.8488809999999,211.8488809999999,,006,P008,2025_Feb_01_1202,ConditionRich,2021.2.3,59.94506634140613,
172.75,176.0,41,0.0,Stimuli/Blank.png,1,2.25,3.0,0,79,79,79,,,,,,,,,,,,,172.75340099999994,0.0034009999999398133,2,212.59954260000086,212.59954260000086,212.59954260000086,212.59954260000086,212.59954260000086,212.59954260000086,214.83480800000143,215.58556190000127,212.59954260000086,212.59954260000086,2.6693302000003314,006,P008,2025_Feb_01_1202,ConditionRich,2021.2.3,59.94506634140613,
176.0,176.75,8,0.75,Stimuli/P008/sun_bbnepvzvycqjjczs.jpg,0,0.0,0.0,0,80,80,80,,,,,,,,,,,,,176.02361530000053,0.023615300000528805,None,215.8690989000006,215.8690989000006,215.8690989000006,215.8690989000006,215.8690989000006,215.8690989000006,215.8690989000006,215.8690989000006,215.8690989000006,215.8690989000006,,006,P008,2025_Feb_01_1202,ConditionRich,2021.2.3,59.94506634140613,
176.75,180.0,41,0.0,Stimuli/Blank.png,0,0.0,0.0,0,81,81,81,,,,,,,,,,,,,176.77321110000048,0.023211100000480656,None,216.61976230000073,216.61976230000073,216.61976230000073,216.61976230000073,216.61976230000073,216.61976230000073,216.61976230000073,216.61976230000073,216.61976230000073,216.61976230000073,,006,P008,2025_Feb_01_1202,ConditionRich,2021.2.3,59.94506634140613,
180.0,196.0,0,0.0,Stimuli/Blank.png,1,7.0,7.75,0,82,82,82,,,,,,,,,,,,,180.02431249999972,0.024312499999723514,2,219.85594710000078,219.85594710000078,219.85594710000078,219.85594710000078,219.85594710000078,219.85594710000078,226.84548220000033,227.59616370000003,219.85594710000078,219.85594710000078,7.4059340999992855,006,P008,2025_Feb_01_1202,ConditionRich,2021.2.3,59.94506634140613,
196.0,196.75,37,0.75,Stimuli/P008/things_praying_mantis_04s.jpg,0,0.0,0.0,0,83,83,83,,,,,,,,,,,,,196.00501160000022,0.005011600000216276,None,235.83674820000124,235.83674820000124,235.83674820000124,235.83674820000124,235.83674820000124,235.83674820000124,235.83674820000124,235.83674820000124,235.83674820000124,235.83674820000124,,006,P008,2025_Feb_01_1202,ConditionRich,2021.2.3,59.94506634140613,
196.75,200.0,41,0.0,Stimuli/Blank.png,0,0.0,0.0,0,84,84,84,,,,,,,,,,,,,196.7584751000013,0.008475100001305691,None,236.60410480000064,236.60410480000064,236.60410480000064,236.60410480000064,236.60410480000064,236.60410480000064,236.60410480000064,236.60410480000064,236.60410480000064,236.60410480000064,,006,P008,2025_Feb_01_1202,ConditionRich,2021.2.3,59.94506634140613,
200.0,200.75,39,0.75,Stimuli/P008/things_showerhead_04s.jpg,0,0.0,0.0,0,85,85,85,,,,,,,,,,,,,200.02564859999984,0.02564859999984037,None,239.87365180000052,239.87365180000052,239.87365180000052,239.87365180000052,239.87365180000052,239.87365180000052,239.87365180000052,239.87365180000052,239.87365180000052,239.87365180000052,,006,P008,2025_Feb_01_1202,ConditionRich,2021.2.3,59.94506634140613,
200.75,204.0,41,0.0,Stimuli/Blank.png,0,0.0,0.0,0,86,86,86,,,,,,,,,,,,,200.7755685000011,0.025568500001099892,None,240.60770090000005,240.60770090000005,240.60770090000005,240.60770090000005,240.60770090000005,240.60770090000005,240.60770090000005,240.60770090000005,240.60770090000005,240.60770090000005,,006,P008,2025_Feb_01_1202,ConditionRich,2021.2.3,59.94506634140613,
204.0,204.75,16,0.75,Stimuli/P008/sun_bnpggenxuowzsywq.jpg,0,0.0,0.0,0,87,87,87,,,,,,,,,,,,,204.01351590000013,0.013515900000129477,None,243.8605058000012,243.8605058000012,243.8605058000012,243.8605058000012,243.8605058000012,243.8605058000012,243.8605058000012,243.8605058000012,243.8605058000012,243.8605058000012,,006,P008,2025_Feb_01_1202,ConditionRich,2021.2.3,59.94506634140613,
204.75,208.0,41,0.0,Stimuli/Blank.png,0,0.0,0.0,0,88,88,88,,,,,,,,,,,,,204.77989870000056,0.029898700000558165,None,244.61117390000072,244.61117390000072,244.61117390000072,244.61117390000072,244.61117390000072,244.61117390000072,244.61117390000072,244.61117390000072,244.61117390000072,244.61117390000072,,006,P008,2025_Feb_01_1202,ConditionRich,2021.2.3,59.94506634140613,
208.0,208.75,21,0.75,Stimuli/P008/things_baby_04s.jpg,0,0.0,0.0,0,89,89,89,,,,,,,,,,,,,207.99888009999995,-0.0011199000000488013,None,247.83070300000145,247.83070300000145,247.83070300000145,247.83070300000145,247.83070300000145,247.83070300000145,247.83070300000145,247.83070300000145,247.83070300000145,247.83070300000145,,006,P008,2025_Feb_01_1202,ConditionRich,2021.2.3,59.94506634140613,
208.75,212.0,41,0.0,Stimuli/Blank.png,1,1.25,2.0,0,90,90,90,,,,,,,,,,,,,208.75006920000124,6.920000123500358e-05,2,248.5813444000014,248.5813444000014,248.5813444000014,248.5813444000014,248.5813444000014,248.5813444000014,249.81582720000006,250.5664783000011,248.5813444000014,248.5813444000014,1.6075343999982579,006,P008,2025_Feb_01_1202,ConditionRich,2021.2.3,59.94506634140613,
212.0,212.75,40,0.75,Stimuli/P008/things_woman_04s.jpg,0,0.0,0.0,0,91,91,91,,,,,,,,,,,,,212.0027356999999,0.002735699999902863,None,251.83422090000022,251.83422090000022,251.83422090000022,251.83422090000022,251.83422090000022,251.83422090000022,251.83422090000022,251.83422090000022,251.83422090000022,251.83422090000022,,006,P008,2025_Feb_01_1202,ConditionRich,2021.2.3,59.94506634140613,
212.75,216.0,41,0.0,Stimuli/Blank.png,0,0.0,0.0,0,92,92,92,,,,,,,,,,,,,212.7543065000009,0.00430650000089372,None,252.58489900000131,252.58489900000131,252.58489900000131,252.58489900000131,252.58489900000131,252.58489900000131,252.58489900000131,252.58489900000131,252.58489900000131,252.58489900000131,,006,P008,2025_Feb_01_1202,ConditionRich,2021.2.3,59.94506634140613,
216.0,216.75,22,0.75,Stimuli/P008/things_boar_04s.jpg,0,0.0,0.0,0,93,93,93,,,,,,,,,,,,,216.0057680000009,0.00576800000089861,None,255.85446349999984,255.85446349999984,255.85446349999984,255.85446349999984,255.85446349999984,255.85446349999984,255.85446349999984,255.85446349999984,255.85446349999984,255.85446349999984,,006,P008,2025_Feb_01_1202,ConditionRich,2021.2.3,59.94506634140613,
216.75,220.0,41,0.0,Stimuli/Blank.png,0,0.0,0.0,0,94,94,94,,,,,,,,,,,,,216.7739161999998,0.02391619999980321,None,256.60512110000127,256.60512110000127,256.60512110000127,256.60512110000127,256.60512110000127,256.60512110000127,256.60512110000127,256.60512110000127,256.60512110000127,256.60512110000127,,006,P008,2025_Feb_01_1202,ConditionRich,2021.2.3,59.94506634140613,
220.0,220.75,38,0.75,Stimuli/P008/things_rollerblade_04s.jpg,1,0.0,0.75,0,95,95,95,,,,,,,,,,,,,220.00952570000118,0.009525700001177029,2,259.84130520000144,259.84130520000144,259.84130520000144,259.84130520000144,259.84130520000144,259.84130520000144,259.84130520000144,260.5753390000009,259.84130520000144,259.84130520000144,0.3706426000007923,006,P008,2025_Feb_01_1202,ConditionRich,2021.2.3,59.94506634140613,
220.75,224.0,41,0.0,Stimuli/Blank.png,0,0.0,0.0,0,96,96,96,,,,,,,,,,,,,220.76102449999962,0.011024499999621185,None,260.5919853000014,260.5919853000014,260.5919853000014,260.5919853000014,260.5919853000014,260.5919853000014,260.5919853000014,260.5919853000014,260.5919853000014,260.5919853000014,,006,P008,2025_Feb_01_1202,ConditionRich,2021.2.3,59.94506634140613,
224.0,224.75,30,0.75,Stimuli/P008/things_jalapeno_04s.jpg,0,0.0,0.0,0,97,97,97,,,,,,,,,,,,,224.0128851999998,0.012885199999800534,None,263.84484970000085,263.84484970000085,263.84484970000085,263.84484970000085,263.84484970000085,263.84484970000085,263.84484970000085,263.84484970000085,263.84484970000085,263.84484970000085,,006,P008,2025_Feb_01_1202,ConditionRich,2021.2.3,59.94506634140613,
224.75,228.0,41,0.0,Stimuli/Blank.png,0,0.0,0.0,0,98,98,98,,,,,,,,,,,,,224.76366990000133,0.01366990000133228,None,264.59551810000085,264.59551810000085,264.59551810000085,264.59551810000085,264.59551810000085,264.59551810000085,264.59551810000085,264.59551810000085,264.59551810000085,264.59551810000085,,006,P008,2025_Feb_01_1202,ConditionRich,2021.2.3,59.94506634140613,
228.0,228.75,5,0.75,Stimuli/P008/sun_ayzkwnqsoiycbncn.jpg,0,0.0,0.0,0,99,99,99,,,,,,,,,,,,,227.9999571999997,-4.2800000301213004e-05,None,267.83171200000106,267.83171200000106,267.83171200000106,267.83171200000106,267.83171200000106,267.83171200000106,267.83171200000106,267.83171200000106,267.83171200000106,267.83171200000106,,006,P008,2025_Feb_01_1202,ConditionRich,2021.2.3,59.94506634140613,
228.75,232.0,41,0.0,Stimuli/Blank.png,0,0.0,0.0,0,100,100,100,,,,,,,,,,,,,228.7532422000004,0.0032422000003862195,None,268.59906610000144,268.59906610000144,268.59906610000144,268.59906610000144,268.59906610000144,268.59906610000144,268.59906610000144,268.59906610000144,268.59906610000144,268.59906610000144,,006,P008,2025_Feb_01_1202,ConditionRich,2021.2.3,59.94506634140613,
232.0,232.75,6,0.75,Stimuli/P008/sun_azpjjfwsbjdjcopb.jpg,0,0.0,0.0,0,101,101,101,,,,,,,,,,,,,232.02018390000012,0.020183900000120047,None,271.86862440000004,271.86862440000004,271.86862440000004,271.86862440000004,271.86862440000004,271.86862440000004,271.86862440000004,271.86862440000004,271.86862440000004,271.86862440000004,,006,P008,2025_Feb_01_1202,ConditionRich,2021.2.3,59.94506634140613,
232.75,236.0,41,0.0,Stimuli/Blank.png,0,0.0,0.0,0,102,102,102,,,,,,,,,,,,,232.77081610000096,0.020816100000956794,None,272.6025952,272.6025952,272.6025952,272.6025952,272.6025952,272.6025952,272.6025952,272.6025952,272.6025952,272.6025952,,006,P008,2025_Feb_01_1202,ConditionRich,2021.2.3,59.94506634140613,
236.0,236.75,3,0.75,Stimuli/P008/sun_aueftjhdwnvkbzlt.jpg,0,0.0,0.0,0,103,103,103,,,,,,,,,,,,,236.00680680000005,0.006806800000049407,None,275.83879479999996,275.83879479999996,275.83879479999996,275.83879479999996,275.83879479999996,275.83879479999996,275.83879479999996,275.83879479999996,275.83879479999996,275.83879479999996,,006,P008,2025_Feb_01_1202,ConditionRich,2021.2.3,59.94506634140613,
236.75,240.0,41,0.0,Stimuli/Blank.png,0,0.0,0.0,0,104,104,104,,,,,,,,,,,,,236.7585368,0.008536800000001676,None,276.58945790000143,276.58945790000143,276.58945790000143,276.58945790000143,276.58945790000143,276.58945790000143,276.58945790000143,276.58945790000143,276.58945790000143,276.58945790000143,,006,P008,2025_Feb_01_1202,ConditionRich,2021.2.3,59.94506634140613,
240.0,240.75,13,0.75,Stimuli/P008/sun_bkhuvtsqontzwtbo.jpg,0,0.0,0.0,0,105,105,105,,,,,,,,,,,,,240.01036940000085,0.010369400000854512,None,279.8589928000001,279.8589928000001,279.8589928000001,279.8589928000001,279.8589928000001,279.8589928000001,279.8589928000001,279.8589928000001,279.8589928000001,279.8589928000001,,006,P008,2025_Feb_01_1202,ConditionRich,2021.2.3,59.94506634140613,
240.75,244.0,41,0.0,Stimuli/Blank.png,0,0.0,0.0,0,106,106,106,,,,,,,,,,,,,240.77910340000017,0.029103400000167312,None,280.6263648000004,280.6263648000004,280.6263648000004,280.6263648000004,280.6263648000004,280.6263648000004,280.6263648000004,280.6263648000004,280.6263648000004,280.6263648000004,,006,P008,2025_Feb_01_1202,ConditionRich,2021.2.3,59.94506634140613,
244.0,244.75,7,0.75,Stimuli/P008/sun_babhwrqvnhanonuy.jpg,0,0.0,0.0,0,107,107,107,,,,,,,,,,,,,244.03328940000029,0.03328940000028524,None,283.8792422000006,283.8792422000006,283.8792422000006,283.8792422000006,283.8792422000006,283.8792422000006,283.8792422000006,283.8792422000006,283.8792422000006,283.8792422000006,,006,P008,2025_Feb_01_1202,ConditionRich,2021.2.3,59.94506634140613,
244.75,248.0,41,0.0,Stimuli/Blank.png,0,0.0,0.0,0,108,108,108,,,,,,,,,,,,,244.76467450000018,0.014674500000182888,None,284.5965389000012,284.5965389000012,284.5965389000012,284.5965389000012,284.5965389000012,284.5965389000012,284.5965389000012,284.5965389000012,284.5965389000012,284.5965389000012,,006,P008,2025_Feb_01_1202,ConditionRich,2021.2.3,59.94506634140613,
248.0,248.75,29,0.75,Stimuli/P008/things_hawk_04s.jpg,0,0.0,0.0,0,109,109,109,,,,,,,,,,,,,248.0035598000013,0.0035598000013123965,None,287.84942779999983,287.84942779999983,287.84942779999983,287.84942779999983,287.84942779999983,287.84942779999983,287.84942779999983,287.84942779999983,287.84942779999983,287.84942779999983,,006,P008,2025_Feb_01_1202,ConditionRich,2021.2.3,59.94506634140613,
248.75,252.0,41,0.0,Stimuli/Blank.png,1,2.25,3.0,0,110,110,110,,,,,,,,,,,,,248.76874800000041,0.018748000000414322,2,288.60007940000105,288.60007940000105,288.60007940000105,288.60007940000105,288.60007940000105,288.60007940000105,290.8353831000004,291.58611230000133,288.60007940000105,288.60007940000105,2.6288322000000335,006,P008,2025_Feb_01_1202,ConditionRich,2021.2.3,59.94506634140613,
252.0,252.75,23,0.75,Stimuli/P008/things_bumper_04s.jpg,0,0.0,0.0,0,111,111,111,,,,,,,,,,,,,252.00558939999974,0.005589399999735178,None,291.8529613999999,291.8529613999999,291.8529613999999,291.8529613999999,291.8529613999999,291.8529613999999,291.8529613999999,291.8529613999999,291.8529613999999,291.8529613999999,,006,P008,2025_Feb_01_1202,ConditionRich,2021.2.3,59.94506634140613,
252.75,256.0,41,0.0,Stimuli/Blank.png,0,0.0,0.0,0,112,112,112,,,,,,,,,,,,,252.77276110000093,0.022761100000934675,None,292.6036287000006,292.6036287000006,292.6036287000006,292.6036287000006,292.6036287000006,292.6036287000006,292.6036287000006,292.6036287000006,292.6036287000006,292.6036287000006,,006,P008,2025_Feb_01_1202,ConditionRich,2021.2.3,59.94506634140613,
256.0,256.75,28,0.75,Stimuli/P008/things_girl_04s.jpg,0,0.0,0.0,0,113,113,113,,,,,,,,,,,,,256.00881070000105,0.008810700001049554,None,295.8398221000007,295.8398221000007,295.8398221000007,295.8398221000007,295.8398221000007,295.8398221000007,295.8398221000007,295.8398221000007,295.8398221000007,295.8398221000007,,006,P008,2025_Feb_01_1202,ConditionRich,2021.2.3,59.94506634140613,
256.75,260.0,41,0.0,Stimuli/Blank.png,0,0.0,0.0,0,114,114,114,,,,,,,,,,,,,256.75949820000096,0.009498200000962242,None,296.59049080000113,296.59049080000113,296.59049080000113,296.59049080000113,296.59049080000113,296.59049080000113,296.59049080000113,296.59049080000113,296.59049080000113,296.59049080000113,,006,P008,2025_Feb_01_1202,ConditionRich,2021.2.3,59.94506634140613,
260.0,260.75,20,0.75,Stimuli/P008/sun_btrxtfbwtggtrpfv.jpg,0,0.0,0.0,0,115,115,115,,,,,,,,,,,,,260.01348210000106,0.013482100001056097,None,299.86004500000126,299.86004500000126,299.86004500000126,299.86004500000126,299.86004500000126,299.86004500000126,299.86004500000126,299.86004500000126,299.86004500000126,299.86004500000126,,006,P008,2025_Feb_01_1202,ConditionRich,2021.2.3,59.94506634140613,
260.75,264.0,41,0.0,Stimuli/Blank.png,1,1.25,2.0,0,116,116,116,,,,,,,,,,,,,260.77898500000083,0.02898500000083004,2,300.6106999000003,300.6106999000003,300.6106999000003,300.6106999000003,300.6106999000003,300.6106999000003,301.84512800000084,302.59580690000075,300.6106999000003,300.6106999000003,1.637528299999758,006,P008,2025_Feb_01_1202,ConditionRich,2021.2.3,59.94506634140613,
264.0,264.75,14,0.75,Stimuli/P008/sun_bkvjqgmploznrhxt.jpg,0,0.0,0.0,0,117,117,117,,,,,,,,,,,,,264.0155061000005,0.015506100000493461,None,303.86358980000114,303.86358980000114,303.86358980000114,303.86358980000114,303.86358980000114,303.86358980000114,303.86358980000114,303.86358980000114,303.86358980000114,303.86358980000114,,006,P008,2025_Feb_01_1202,ConditionRich,2021.2.3,59.94506634140613,
264.75,268.0,41,0.0,Stimuli/Blank.png,0,0.0,0.0,0,118,118,118,,,,,,,,,,,,,264.7682524000011,0.01825240000107442,None,304.6143712000012,304.6143712000012,304.6143712000012,304.6143712000012,304.6143712000012,304.6143712000012,304.6143712000012,304.6143712000012,304.6143712000012,304.6143712000012,,006,P008,2025_Feb_01_1202,ConditionRich,2021.2.3,59.94506634140613,
268.0,268.75,26,0.75,Stimuli/P008/things_face_04s.jpg,0,0.0,0.0,0,119,119,119,,,,,,,,,,,,,268.01919030000136,0.019190300001355354,None,307.8504451000008,307.8504451000008,307.8504451000008,307.8504451000008,307.8504451000008,307.8504451000008,307.8504451000008,307.8504451000008,307.8504451000008,307.8504451000008,,006,P008,2025_Feb_01_1202,ConditionRich,2021.2.3,59.94506634140613,
268.75,272.0,41,0.0,Stimuli/Blank.png,0,0.0,0.0,0,120,120,120,,,,,,,,,,,,,268.75305950000075,0.0030595000007451745,None,308.584423100001,308.584423100001,308.584423100001,308.584423100001,308.584423100001,308.584423100001,308.584423100001,308.584423100001,308.584423100001,308.584423100001,,006,P008,2025_Feb_01_1202,ConditionRich,2021.2.3,59.94506634140613,
272.0,272.75,8,0.75,Stimuli/P008/sun_bbnepvzvycqjjczs.jpg,0,0.0,0.0,0,121,121,121,,,,,,,,,,,,,272.0061303000002,0.006130300000222633,None,311.8539821000013,311.8539821000013,311.8539821000013,311.8539821000013,311.8539821000013,311.8539821000013,311.8539821000013,311.8539821000013,311.8539821000013,311.8539821000013,,006,P008,2025_Feb_01_1202,ConditionRich,2021.2.3,59.94506634140613,
272.75,276.0,41,0.0,Stimuli/Blank.png,0,0.0,0.0,0,122,122,122,,,,,,,,,,,,,272.77389270000094,0.02389270000094257,None,312.6046514000009,312.6046514000009,312.6046514000009,312.6046514000009,312.6046514000009,312.6046514000009,312.6046514000009,312.6046514000009,312.6046514000009,312.6046514000009,,006,P008,2025_Feb_01_1202,ConditionRich,2021.2.3,59.94506634140613,
276.0,292.0,0,0.0,Stimuli/Blank.png,1,6.0,6.75,0,123,123,123,,,,,,,,,,,,,276.0095104000011,0.009510400001090602,2,315.840851500001,315.840851500001,315.840851500001,315.840851500001,315.840851500001,315.840851500001,321.8294695000004,322.58012860000053,315.840851500001,315.840851500001,6.365284199999223,006,P008,2025_Feb_01_1202,ConditionRich,2021.2.3,59.94506634140613,
292.0,292.75,34,0.75,Stimuli/P008/things_moose_04s.jpg,0,0.0,0.0,0,124,124,124,,,,,,,,,,,,,292.008542900001,0.00854290000097535,None,331.8550169000009,331.8550169000009,331.8550169000009,331.8550169000009,331.8550169000009,331.8550169000009,331.8550169000009,331.8550169000009,331.8550169000009,331.8550169000009,,006,P008,2025_Feb_01_1202,ConditionRich,2021.2.3,59.94506634140613,
292.75,296.0,41,0.0,Stimuli/Blank.png,0,0.0,0.0,0,125,125,125,,,,,,,,,,,,,292.7745587999998,0.024558799999795156,None,332.60566970000036,332.60566970000036,332.60566970000036,332.60566970000036,332.60566970000036,332.60566970000036,332.60566970000036,332.60566970000036,332.60566970000036,332.60566970000036,,006,P008,2025_Feb_01_1202,ConditionRich,2021.2.3,59.94506634140613,
296.0,296.75,2,0.75,Stimuli/P008/sun_ajyzloqaptmicnfr.jpg,1,0.0,0.75,0,126,126,126,,,,,,,,,,,,,296.01064150000093,0.010641500000929227,2,335.85857750000105,335.85857750000105,335.85857750000105,335.85857750000105,335.85857750000105,335.85857750000105,335.85857750000105,336.5758403,335.85857750000105,335.85857750000105,0.4275841999988188,006,P008,2025_Feb_01_1202,ConditionRich,2021.2.3,59.94506634140613,
296.75,300.0,41,0.0,Stimuli/Blank.png,0,0.0,0.0,0,127,127,127,,,,,,,,,,,,,296.7784451000007,0.028445100000681123,None,336.6092122000009,336.6092122000009,336.6092122000009,336.6092122000009,336.6092122000009,336.6092122000009,336.6092122000009,336.6092122000009,336.6092122000009,336.6092122000009,,006,P008,2025_Feb_01_1202,ConditionRich,2021.2.3,59.94506634140613,
300.0,300.75,36,0.75,Stimuli/P008/things_platypus_04s.jpg,0,0.0,0.0,0,128,128,128,,,,,,,,,,,,,300.0140323000014,0.014032300001417752,None,339.84541160000117,339.84541160000117,339.84541160000117,339.84541160000117,339.84541160000117,339.84541160000117,339.84541160000117,339.84541160000117,339.84541160000117,339.84541160000117,,006,P008,2025_Feb_01_1202,ConditionRich,2021.2.3,59.94506634140613,
300.75,304.0,41,0.0,Stimuli/Blank.png,0,0.0,0.0,0,129,129,129,,,,,,,,,,,,,300.76420510000025,0.014205100000253879,None,340.5960637999997,340.5960637999997,340.5960637999997,340.5960637999997,340.5960637999997,340.5960637999997,340.5960637999997,340.5960637999997,340.5960637999997,340.5960637999997,,006,P008,2025_Feb_01_1202,ConditionRich,2021.2.3,59.94506634140613,
304.0,304.75,4,0.75,Stimuli/P008/sun_awqukazlzsxaokai.jpg,0,0.0,0.0,0,130,130,130,,,,,,,,,,,,,304.0009717000012,0.0009717000011733035,None,343.8324033000008,343.8324033000008,343.8324033000008,343.8324033000008,343.8324033000008,343.8324033000008,343.8324033000008,343.8324033000008,343.8324033000008,343.8324033000008,,006,P008,2025_Feb_01_1202,ConditionRich,2021.2.3,59.94506634140613,
304.75,308.0,41,0.0,Stimuli/Blank.png,0,0.0,0.0,0,131,131,131,,,,,,,,,,,,,304.7533658000011,0.0033658000011200784,None,344.5996329999998,344.5996329999998,344.5996329999998,344.5996329999998,344.5996329999998,344.5996329999998,344.5996329999998,344.5996329999998,344.5996329999998,344.5996329999998,,006,P008,2025_Feb_01_1202,ConditionRich,2021.2.3,59.94506634140613,
308.0,308.75,31,0.75,Stimuli/P008/things_jug_04s.jpg,0,0.0,0.0,0,132,132,132,,,,,,,,,,,,,308.0234521000002,0.02345210000021325,None,347.86917189999986,347.86917189999986,347.86917189999986,347.86917189999986,347.86917189999986,347.86917189999986,347.86917189999986,347.86917189999986,347.86917189999986,347.86917189999986,,006,P008,2025_Feb_01_1202,ConditionRich,2021.2.3,59.94506634140613,
308.75,312.0,41,0.0,Stimuli/Blank.png,1,0.25,1.0,0,133,133,133,,,,,,,,,,,,,308.7732923000003,0.02329230000032112,2,348.61983789999977,348.61983789999977,348.61983789999977,348.61983789999977,348.61983789999977,348.61983789999977,348.85339270000077,349.60405979999996,348.61983789999977,348.61983789999977,0.647088800000347,006,P008,2025_Feb_01_1202,ConditionRich,2021.2.3,59.94506634140613,
312.0,312.75,19,0.75,Stimuli/P008/sun_brpfgrmubnnjvfkw.jpg,0,0.0,0.0,0,134,134,134,,,,,,,,,,,,,312.0250465000008,0.0250465000008262,None,351.8727233999998,351.8727233999998,351.8727233999998,351.8727233999998,351.8727233999998,351.8727233999998,351.8727233999998,351.8727233999998,351.8727233999998,351.8727233999998,,006,P008,2025_Feb_01_1202,ConditionRich,2021.2.3,59.94506634140613,
312.75,316.0,41,0.0,Stimuli/Blank.png,1,2.25,3.0,0,135,135,135,,,,,,,,,,,,,312.7747149000006,0.02471490000061749,2,352.6066950000004,352.6066950000004,352.6066950000004,352.6066950000004,352.6066950000004,352.6066950000004,354.8420474000013,355.5927029000013,352.6066950000004,352.6066950000004,2.6043150999994396,006,P008,2025_Feb_01_1202,ConditionRich,2021.2.3,59.94506634140613,
316.0,316.75,15,0.75,Stimuli/P008/sun_bmeductqpfkygtww.jpg,0,0.0,0.0,0,136,136,136,,,,,,,,,,,,,316.0125063000014,0.01250630000140518,None,355.8595813000011,355.8595813000011,355.8595813000011,355.8595813000011,355.8595813000011,355.8595813000011,355.8595813000011,355.8595813000011,355.8595813000011,355.8595813000011,,006,P008,2025_Feb_01_1202,ConditionRich,2021.2.3,59.94506634140613,
316.75,320.0,41,0.0,Stimuli/Blank.png,0,0.0,0.0,0,137,137,137,,,,,,,,,,,,,316.77901850000126,0.029018500001257053,None,356.6102372000005,356.6102372000005,356.6102372000005,356.6102372000005,356.6102372000005,356.6102372000005,356.6102372000005,356.6102372000005,356.6102372000005,356.6102372000005,,006,P008,2025_Feb_01_1202,ConditionRich,2021.2.3,59.94506634140613,
320.0,320.75,25,0.75,Stimuli/P008/things_credit_card_04s.jpg,0,0.0,0.0,0,138,138,138,,,,,,,,,,,,,320.01529370000026,0.01529370000025665,None,359.8464294000005,359.8464294000005,359.8464294000005,359.8464294000005,359.8464294000005,359.8464294000005,359.8464294000005,359.8464294000005,359.8464294000005,359.8464294000005,,006,P008,2025_Feb_01_1202,ConditionRich,2021.2.3,59.94506634140613,
320.75,324.0,41,0.0,Stimuli/Blank.png,1,1.25,2.0,0,139,139,139,,,,,,,,,,,,,320.74903500000073,-0.0009649999992689118,2,360.58039030000145,360.58039030000145,360.58039030000145,360.58039030000145,360.58039030000145,360.58039030000145,361.81562870000016,362.56554920000053,360.58039030000145,360.58039030000145,1.7716425999988132,006,P008,2025_Feb_01_1202,ConditionRich,2021.2.3,59.94506634140613,
324.0,324.75,17,0.75,Stimuli/P008/sun_bnsxdhbsafbdyncy.jpg,0,0.0,0.0,0,140,140,140,,,,,,,,,,,,,324.0037183000004,0.0037183000004006317,None,363.8499683000009,363.8499683000009,363.8499683000009,363.8499683000009,363.8499683000009,363.8499683000009,363.8499683000009,363.8499683000009,363.8499683000009,363.8499683000009,,006,P008,2025_Feb_01_1202,ConditionRich,2021.2.3,59.94506634140613,
324.75,328.0,41,0.0,Stimuli/Blank.png,0,0.0,0.0,0,141,141,141,,,,,,,,,,,,,324.7689588000012,0.01895880000120087,None,364.6006311000001,364.6006311000001,364.6006311000001,364.6006311000001,364.6006311000001,364.6006311000001,364.6006311000001,364.6006311000001,364.6006311000001,364.6006311000001,,006,P008,2025_Feb_01_1202,ConditionRich,2021.2.3,59.94506634140613,
328.0,328.75,18,0.75,Stimuli/P008/sun_borgfidyubrwsuuw.jpg,0,0.0,0.0,0,142,142,142,,,,,,,,,,,,,328.0049665000006,0.004966500000591623,None,367.8368274000004,367.8368274000004,367.8368274000004,367.8368274000004,367.8368274000004,367.8368274000004,367.8368274000004,367.8368274000004,367.8368274000004,367.8368274000004,,006,P008,2025_Feb_01_1202,ConditionRich,2021.2.3,59.94506634140613,
328.75,332.0,41,0.0,Stimuli/Blank.png,0,0.0,0.0,0,143,143,143,,,,,,,,,,,,,328.7565439000009,0.006543900000906433,None,368.58750920000057,368.58750920000057,368.58750920000057,368.58750920000057,368.58750920000057,368.58750920000057,368.58750920000057,368.58750920000057,368.58750920000057,368.58750920000057,,006,P008,2025_Feb_01_1202,ConditionRich,2021.2.3,59.94506634140613,
332.0,332.75,11,0.75,Stimuli/P008/sun_bdsriuscubkvzrmt.jpg,0,0.0,0.0,0,144,144,144,,,,,,,,,,,,,332.0084643000009,0.008464300000923686,None,371.84037290000015,371.84037290000015,371.84037290000015,371.84037290000015,371.84037290000015,371.84037290000015,371.84037290000015,371.84037290000015,371.84037290000015,371.84037290000015,,006,P008,2025_Feb_01_1202,ConditionRich,2021.2.3,59.94506634140613,
332.75,336.0,41,0.0,Stimuli/Blank.png,0,0.0,0.0,0,145,145,145,,,,,,,,,,,,,332.7591745999998,0.00917459999982384,None,372.5910313000004,372.5910313000004,372.5910313000004,372.5910313000004,372.5910313000004,372.5910313000004,372.5910313000004,372.5910313000004,372.5910313000004,372.5910313000004,,006,P008,2025_Feb_01_1202,ConditionRich,2021.2.3,59.94506634140613,
336.0,336.75,24,0.75,Stimuli/P008/things_collar_04s.jpg,0,0.0,0.0,0,146,146,146,,,,,,,,,,,,,336.0131529999999,0.013152999999874737,None,375.86058720000074,375.86058720000074,375.86058720000074,375.86058720000074,375.86058720000074,375.86058720000074,375.86058720000074,375.86058720000074,375.86058720000074,375.86058720000074,,006,P008,2025_Feb_01_1202,ConditionRich,2021.2.3,59.94506634140613,
336.75,340.0,41,0.0,Stimuli/Blank.png,0,0.0,0.0,0,147,147,147,,,,,,,,,,,,,336.77942299999995,0.02942299999995157,None,376.6112525000008,376.6112525000008,376.6112525000008,376.6112525000008,376.6112525000008,376.6112525000008,376.6112525000008,376.6112525000008,376.6112525000008,376.6112525000008,,006,P008,2025_Feb_01_1202,ConditionRich,2021.2.3,59.94506634140613,
340.0,340.75,1,0.75,Stimuli/P008/sun_abrlrupzcrwpxqfc.jpg,0,0.0,0.0,0,148,148,148,,,,,,,,,,,,,340.01820770000086,0.018207700000857585,None,379.8642056000008,379.8642056000008,379.8642056000008,379.8642056000008,379.8642056000008,379.8642056000008,379.8642056000008,379.8642056000008,379.8642056000008,379.8642056000008,,006,P008,2025_Feb_01_1202,ConditionRich,2021.2.3,59.94506634140613,
340.75,344.0,41,0.0,Stimuli/Blank.png,0,0.0,0.0,0,149,149,149,,,,,,,,,,,,,340.7675220000001,0.01752200000009907,None,380.5981210000009,380.5981210000009,380.5981210000009,380.5981210000009,380.5981210000009,380.5981210000009,380.5981210000009,380.5981210000009,380.5981210000009,380.5981210000009,,006,P008,2025_Feb_01_1202,ConditionRich,2021.2.3,59.94506634140613,
344.0,344.75,12,0.75,Stimuli/P008/sun_bitpmyvulluuasab.jpg,0,0.0,0.0,0,150,150,150,,,,,,,,,,,,,344.0025819000002,0.0025819000002229586,None,383.8343104000014,383.8343104000014,383.8343104000014,383.8343104000014,383.8343104000014,383.8343104000014,383.8343104000014,383.8343104000014,383.8343104000014,383.8343104000014,,006,P008,2025_Feb_01_1202,ConditionRich,2021.2.3,59.94506634140613,
344.75,348.0,41,0.0,Stimuli/Blank.png,0,0.0,0.0,0,151,151,151,,,,,,,,,,,,,344.75313149999965,0.0031314999996538972,None,384.5849706000008,384.5849706000008,384.5849706000008,384.5849706000008,384.5849706000008,384.5849706000008,384.5849706000008,384.5849706000008,384.5849706000008,384.5849706000008,,006,P008,2025_Feb_01_1202,ConditionRich,2021.2.3,59.94506634140613,
348.0,348.75,32,0.75,Stimuli/P008/things_maggot_04s.jpg,0,0.0,0.0,0,152,152,152,,,,,,,,,,,,,348.00658210000074,0.006582100000741775,None,387.8378474000001,387.8378474000001,387.8378474000001,387.8378474000001,387.8378474000001,387.8378474000001,387.8378474000001,387.8378474000001,387.8378474000001,387.8378474000001,,006,P008,2025_Feb_01_1202,ConditionRich,2021.2.3,59.94506634140613,
348.75,352.0,41,0.0,Stimuli/Blank.png,0,0.0,0.0,0,153,153,153,,,,,,,,,,,,,348.7595663000011,0.009566300001097261,None,388.6052027000005,388.6052027000005,388.6052027000005,388.6052027000005,388.6052027000005,388.6052027000005,388.6052027000005,388.6052027000005,388.6052027000005,388.6052027000005,,006,P008,2025_Feb_01_1202,ConditionRich,2021.2.3,59.94506634140613,
352.0,352.75,9,0.75,Stimuli/P008/sun_bcsqogieozpyvuft.jpg,0,0.0,0.0,0,154,154,154,,,,,,,,,,,,,352.0291508999999,0.029150899999876856,None,391.8747964000013,391.8747964000013,391.8747964000013,391.8747964000013,391.8747964000013,391.8747964000013,391.8747964000013,391.8747964000013,391.8747964000013,391.8747964000013,,006,P008,2025_Feb_01_1202,ConditionRich,2021.2.3,59.94506634140613,
352.75,356.0,41,0.0,Stimuli/Blank.png,0,0.0,0.0,0,155,155,155,,,,,,,,,,,,,352.7777836000005,0.027783600000475417,None,392.60875000000124,392.60875000000124,392.60875000000124,392.60875000000124,392.60875000000124,392.60875000000124,392.60875000000124,392.60875000000124,392.60875000000124,392.60875000000124,,006,P008,2025_Feb_01_1202,ConditionRich,2021.2.3,59.94506634140613,
356.0,356.75,33,0.75,Stimuli/P008/things_man_04s.jpg,1,0.0,0.75,0,156,156,156,,,,,,,,,,,,,356.0136889000005,0.013688900000488502,2,395.8616560999999,395.8616560999999,395.8616560999999,395.8616560999999,395.8616560999999,395.8616560999999,395.8616560999999,396.5789100000002,395.8616560999999,395.8616560999999,0.5026732999995147,006,P008,2025_Feb_01_1202,ConditionRich,2021.2.3,59.94506634140613,
356.75,360.0,41,0.0,Stimuli/Blank.png,0,0.0,0.0,0,157,157,157,,,,,,,,,,,,,356.78340580000076,0.03340580000076443,None,396.6289718000007,396.6289718000007,396.6289718000007,396.6289718000007,396.6289718000007,396.6289718000007,396.6289718000007,396.6289718000007,396.6289718000007,396.6289718000007,,006,P008,2025_Feb_01_1202,ConditionRich,2021.2.3,59.94506634140613,
360.0,360.75,10,0.75,Stimuli/P008/sun_bdekcgnlcicvgpvq.jpg,0,0.0,0.0,0,158,158,158,,,,,,,,,,,,,360.01932670000133,0.0193267000013293,None,399.86515750000035,399.86515750000035,399.86515750000035,399.86515750000035,399.86515750000035,399.86515750000035,399.86515750000035,399.86515750000035,399.86515750000035,399.86515750000035,,006,P008,2025_Feb_01_1202,ConditionRich,2021.2.3,59.94506634140613,
360.75,364.0,41,0.0,Stimuli/Blank.png,0,0.0,0.0,0,159,159,159,,,,,,,,,,,,,360.76785329999984,0.01785329999984242,None,400.5991462000002,400.5991462000002,400.5991462000002,400.5991462000002,400.5991462000002,400.5991462000002,400.5991462000002,400.5991462000002,400.5991462000002,400.5991462000002,,006,P008,2025_Feb_01_1202,ConditionRich,2021.2.3,59.94506634140613,
364.0,364.75,27,0.75,Stimuli/P008/things_fur_coat_04s.jpg,0,0.0,0.0,0,160,160,160,,,,,,,,,,,,,364.00410809999994,0.004108099999939441,None,403.8353576999998,403.8353576999998,403.8353576999998,403.8353576999998,403.8353576999998,403.8353576999998,403.8353576999998,403.8353576999998,403.8353576999998,403.8353576999998,,006,P008,2025_Feb_01_1202,ConditionRich,2021.2.3,59.94506634140613,
364.75,368.0,41,0.0,Stimuli/Blank.png,0,0.0,0.0,0,161,161,161,,,,,,,,,,,,,364.7547319000005,0.004731900000479072,None,404.5859951000002,404.5859951000002,404.5859951000002,404.5859951000002,404.5859951000002,404.5859951000002,404.5859951000002,404.5859951000002,404.5859951000002,404.5859951000002,,006,P008,2025_Feb_01_1202,ConditionRich,2021.2.3,59.94506634140613,
368.0,368.75,35,0.75,Stimuli/P008/things_pecan_04s.jpg,0,0.0,0.0,0,162,162,162,,,,,,,,,,,,,368.00771669999995,0.007716699999946286,None,407.83888000000115,407.83888000000115,407.83888000000115,407.83888000000115,407.83888000000115,407.83888000000115,407.83888000000115,407.83888000000115,407.83888000000115,407.83888000000115,,006,P008,2025_Feb_01_1202,ConditionRich,2021.2.3,59.94506634140613,
368.75,372.0,41,0.0,Stimuli/Blank.png,0,0.0,0.0,0,163,163,163,,,,,,,,,,,,,368.7588968,0.008896800000002258,None,408.5895502000003,408.5895502000003,408.5895502000003,408.5895502000003,408.5895502000003,408.5895502000003,408.5895502000003,408.5895502000003,408.5895502000003,408.5895502000003,,006,P008,2025_Feb_01_1202,ConditionRich,2021.2.3,59.94506634140613,
372.0,388.0,0,0.0,Stimuli/Blank.png,1,11.0,11.75,0,164,164,164,,,,,,,,,,,,,372.01357579999967,0.01357579999967129,2,411.85909640000136,411.85909640000136,411.85909640000136,411.85909640000136,411.85909640000136,411.85909640000136,422.83546150000075,423.5861743000005,411.85909640000136,411.85909640000136,11.406980099998691,006,P008,2025_Feb_01_1202,ConditionRich,2021.2.3,59.94506634140613,
