eventStartTime,eventEndTime,eventCond,imSize,imFile,responseEvent,fixRespStart,fixRespEnd,Events.thisRepN,Events.thisTrialN,Events.thisN,Events.thisIndex,Instructions.started,Instructions.stopped,participantReadyResponse.keys,participantReadyResponse.rt,participantReadyResponse.started,participantReadyResponse.stopped,startWaitforTrigger,triggerResponse.keys,triggerResponse.rt,triggerResponse.started,triggerResponse.stopped,globalTimer,actualStartTime,startTimingDiff,participantResponse.keys,participantResponse.started,participantResponse.stopped,image.started,image.stopped,fixationOutside.started,fixationOutside.stopped,fixationResponse.started,fixationResponse.stopped,fixationInside.started,fixationInside.stopped,participantResponse.rt,session,participant,date,expName,psychopyVersion,frameRate,
,,,,,,,,,,,,11.418759300000602,None,2,20.08696289999898,11.418759300000602,None,,,,,,,,,,,,,,,,,,,,,009,P008,2025_Feb_01_1231,ConditionRich,2021.2.3,59.929726402533156,
,,,,,,,,,,,,,,,,,,31.5111420000012,5,13.690483500000482,31.523246200000358,None,,,,,,,,,,,,,,,,009,P008,2025_Feb_01_1231,ConditionRich,2021.2.3,59.929726402533156,
0.0,4.0,0,0.0,Stimuli/Blank.png,0,0.0,0.0,0,0,0,0,,,,,,,,,,,,45.2221124000007,0.047127499999987776,0.047127499999987776,None,45.28542580000067,None,45.28542580000067,None,45.28542580000067,None,45.28542580000067,45.28542580000067,45.28542580000067,None,,009,P008,2025_Feb_01_1231,ConditionRich,2021.2.3,59.929726402533156,
4.0,4.75,15,0.75,Stimuli/P008/sun_bmeductqpfkygtww.jpg,0,0.0,0.0,0,1,1,1,,,,,,,,,,,,,4.004098800000065,0.004098800000065239,None,49.25591330000134,49.25591330000134,49.25591330000134,49.25591330000134,49.25591330000134,49.25591330000134,49.25591330000134,49.25591330000134,49.25591330000134,49.25591330000134,,009,P008,2025_Feb_01_1231,ConditionRich,2021.2.3,59.929726402533156,
4.75,8.0,41,0.0,Stimuli/Blank.png,0,0.0,0.0,0,2,2,2,,,,,,,,,,,,,4.7723645999994915,0.022364599999491475,None,50.023285600000236,50.023285600000236,50.023285600000236,50.023285600000236,50.023285600000236,50.023285600000236,50.023285600000236,50.023285600000236,50.023285600000236,50.023285600000236,,009,P008,2025_Feb_01_1231,ConditionRich,2021.2.3,59.929726402533156,
8.0,8.75,16,0.75,Stimuli/P008/sun_bnpggenxuowzsywq.jpg,0,0.0,0.0,0,3,3,3,,,,,,,,,,,,,8.022947299999942,0.022947299999941606,None,53.25914569999986,53.25914569999986,53.25914569999986,53.25914569999986,53.25914569999986,53.25914569999986,53.25914569999986,53.25914569999986,53.25914569999986,53.25914569999986,,009,P008,2025_Feb_01_1231,ConditionRich,2021.2.3,59.929726402533156,
8.75,12.0,41,0.0,Stimuli/Blank.png,1,2.25,3.0,0,4,4,4,,,,,,,,,,,,,8.756734900000083,0.006734900000083144,2,53.99312910000117,53.99312910000117,53.99312910000117,53.99312910000117,53.99312910000117,53.99312910000117,56.228434700000435,56.97913030000018,53.99312910000117,53.99312910000117,2.8786433999994188,009,P008,2025_Feb_01_1231,ConditionRich,2021.2.3,59.929726402533156,
12.0,12.75,1,0.75,Stimuli/P008/sun_abrlrupzcrwpxqfc.jpg,0,0.0,0.0,0,5,5,5,,,,,,,,,,,,,12.012523900000815,0.012523900000815047,None,57.26269030000003,57.26269030000003,57.26269030000003,57.26269030000003,57.26269030000003,57.26269030000003,57.26269030000003,57.26269030000003,57.26269030000003,57.26269030000003,,009,P008,2025_Feb_01_1231,ConditionRich,2021.2.3,59.929726402533156,
12.75,16.0,41,0.0,Stimuli/Blank.png,0,0.0,0.0,0,6,6,6,,,,,,,,,,,,,12.776635300000635,0.026635300000634743,None,58.013349599999856,58.013349599999856,58.013349599999856,58.013349599999856,58.013349599999856,58.013349599999856,58.013349599999856,58.013349599999856,58.013349599999856,58.013349599999856,,009,P008,2025_Feb_01_1231,ConditionRich,2021.2.3,59.929726402533156,
16.0,16.75,13,0.75,Stimuli/P008/sun_bkhuvtsqontzwtbo.jpg,0,0.0,0.0,0,7,7,7,,,,,,,,,,,,,16.013315899999725,0.013315899999724934,None,61.24954590000016,61.24954590000016,61.24954590000016,61.24954590000016,61.24954590000016,61.24954590000016,61.24954590000016,61.24954590000016,61.24954590000016,61.24954590000016,,009,P008,2025_Feb_01_1231,ConditionRich,2021.2.3,59.929726402533156,
16.75,20.0,41,0.0,Stimuli/Blank.png,0,0.0,0.0,0,8,8,8,,,,,,,,,,,,,16.764346300000398,0.014346300000397605,None,62.00020730000142,62.00020730000142,62.00020730000142,62.00020730000142,62.00020730000142,62.00020730000142,62.00020730000142,62.00020730000142,62.00020730000142,62.00020730000142,,009,P008,2025_Feb_01_1231,ConditionRich,2021.2.3,59.929726402533156,
20.0,20.75,39,0.75,Stimuli/P008/things_showerhead_04s.jpg,0,0.0,0.0,0,9,9,9,,,,,,,,,,,,,20.00245410000025,0.002454100000250037,None,65.25309770000058,65.25309770000058,65.25309770000058,65.25309770000058,65.25309770000058,65.25309770000058,65.25309770000058,65.25309770000058,65.25309770000058,65.25309770000058,,009,P008,2025_Feb_01_1231,ConditionRich,2021.2.3,59.929726402533156,
20.75,24.0,41,0.0,Stimuli/Blank.png,0,0.0,0.0,0,10,10,10,,,,,,,,,,,,,20.767760400000043,0.017760400000042864,None,66.0037725000002,66.0037725000002,66.0037725000002,66.0037725000002,66.0037725000002,66.0037725000002,66.0037725000002,66.0037725000002,66.0037725000002,66.0037725000002,,009,P008,2025_Feb_01_1231,ConditionRich,2021.2.3,59.929726402533156,
24.0,24.75,18,0.75,Stimuli/P008/sun_borgfidyubrwsuuw.jpg,0,0.0,0.0,0,11,11,11,,,,,,,,,,,,,24.004134599999816,0.004134599999815691,None,69.2399191000004,69.2399191000004,69.2399191000004,69.2399191000004,69.2399191000004,69.2399191000004,69.2399191000004,69.2399191000004,69.2399191000004,69.2399191000004,,009,P008,2025_Feb_01_1231,ConditionRich,2021.2.3,59.929726402533156,
24.75,28.0,41,0.0,Stimuli/Blank.png,0,0.0,0.0,0,12,12,12,,,,,,,,,,,,,24.754593199999363,0.004593199999362696,None,69.9906117999999,69.9906117999999,69.9906117999999,69.9906117999999,69.9906117999999,69.9906117999999,69.9906117999999,69.9906117999999,69.9906117999999,69.9906117999999,,009,P008,2025_Feb_01_1231,ConditionRich,2021.2.3,59.929726402533156,
28.0,28.75,25,0.75,Stimuli/P008/things_credit_card_04s.jpg,0,0.0,0.0,0,13,13,13,,,,,,,,,,,,,28.007315500000914,0.007315500000913744,None,73.24348610000015,73.24348610000015,73.24348610000015,73.24348610000015,73.24348610000015,73.24348610000015,73.24348610000015,73.24348610000015,73.24348610000015,73.24348610000015,,009,P008,2025_Feb_01_1231,ConditionRich,2021.2.3,59.929726402533156,
28.75,32.0,41,0.0,Stimuli/Blank.png,1,2.25,3.0,0,14,14,14,,,,,,,,,,,,,28.758123600000545,0.008123600000544684,2,73.99415070000032,73.99415070000032,73.99415070000032,73.99415070000032,73.99415070000032,73.99415070000032,76.2295094000001,76.98016670000106,73.99415070000032,73.99415070000032,2.7276066999984323,009,P008,2025_Feb_01_1231,ConditionRich,2021.2.3,59.929726402533156,
32.0,32.75,23,0.75,Stimuli/P008/things_bumper_04s.jpg,0,0.0,0.0,0,15,15,15,,,,,,,,,,,,,32.01104060000034,0.011040600000342238,None,77.24703120000049,77.24703120000049,77.24703120000049,77.24703120000049,77.24703120000049,77.24703120000049,77.24703120000049,77.24703120000049,77.24703120000049,77.24703120000049,,009,P008,2025_Feb_01_1231,ConditionRich,2021.2.3,59.929726402533156,
32.75,36.0,41,0.0,Stimuli/Blank.png,0,0.0,0.0,0,16,16,16,,,,,,,,,,,,,32.76172410000072,0.011724100000719773,None,77.99769949999973,77.99769949999973,77.99769949999973,77.99769949999973,77.99769949999973,77.99769949999973,77.99769949999973,77.99769949999973,77.99769949999973,77.99769949999973,,009,P008,2025_Feb_01_1231,ConditionRich,2021.2.3,59.929726402533156,
36.0,36.75,29,0.75,Stimuli/P008/things_hawk_04s.jpg,0,0.0,0.0,0,17,17,17,,,,,,,,,,,,,36.014295999999376,0.014295999999376363,None,81.2672601000013,81.2672601000013,81.2672601000013,81.2672601000013,81.2672601000013,81.2672601000013,81.2672601000013,81.2672601000013,81.2672601000013,81.2672601000013,,009,P008,2025_Feb_01_1231,ConditionRich,2021.2.3,59.929726402533156,
36.75,40.0,41,0.0,Stimuli/Blank.png,0,0.0,0.0,0,18,18,18,,,,,,,,,,,,,36.78192780000063,0.03192780000063067,None,82.01792449999994,82.01792449999994,82.01792449999994,82.01792449999994,82.01792449999994,82.01792449999994,82.01792449999994,82.01792449999994,82.01792449999994,82.01792449999994,,009,P008,2025_Feb_01_1231,ConditionRich,2021.2.3,59.929726402533156,
40.0,40.75,21,0.75,Stimuli/P008/things_baby_04s.jpg,0,0.0,0.0,0,19,19,19,,,,,,,,,,,,,40.00351090000004,0.003510900000037509,None,85.25408760000028,85.25408760000028,85.25408760000028,85.25408760000028,85.25408760000028,85.25408760000028,85.25408760000028,85.25408760000028,85.25408760000028,85.25408760000028,,009,P008,2025_Feb_01_1231,ConditionRich,2021.2.3,59.929726402533156,
40.75,44.0,41,0.0,Stimuli/Blank.png,0,0.0,0.0,0,20,20,20,,,,,,,,,,,,,40.7680689000008,0.01806890000079875,None,86.00478850000036,86.00478850000036,86.00478850000036,86.00478850000036,86.00478850000036,86.00478850000036,86.00478850000036,86.00478850000036,86.00478850000036,86.00478850000036,,009,P008,2025_Feb_01_1231,ConditionRich,2021.2.3,59.929726402533156,
44.0,44.75,36,0.75,Stimuli/P008/things_platypus_04s.jpg,0,0.0,0.0,0,21,21,21,,,,,,,,,,,,,44.00433890000022,0.004338900000220747,None,89.25761960000091,89.25761960000091,89.25761960000091,89.25761960000091,89.25761960000091,89.25761960000091,89.25761960000091,89.25761960000091,89.25761960000091,89.25761960000091,,009,P008,2025_Feb_01_1231,ConditionRich,2021.2.3,59.929726402533156,
44.75,48.0,41,0.0,Stimuli/Blank.png,0,0.0,0.0,0,22,22,22,,,,,,,,,,,,,44.77318589999959,0.02318589999958931,None,90.00832919999993,90.00832919999993,90.00832919999993,90.00832919999993,90.00832919999993,90.00832919999993,90.00832919999993,90.00832919999993,90.00832919999993,90.00832919999993,,009,P008,2025_Feb_01_1231,ConditionRich,2021.2.3,59.929726402533156,
48.0,48.75,20,0.75,Stimuli/P008/sun_btrxtfbwtggtrpfv.jpg,0,0.0,0.0,0,23,23,23,,,,,,,,,,,,,48.00778700000046,0.007787000000462285,None,93.24451200000112,93.24451200000112,93.24451200000112,93.24451200000112,93.24451200000112,93.24451200000112,93.24451200000112,93.24451200000112,93.24451200000112,93.24451200000112,,009,P008,2025_Feb_01_1231,ConditionRich,2021.2.3,59.929726402533156,
48.75,52.0,41,0.0,Stimuli/Blank.png,0,0.0,0.0,0,24,24,24,,,,,,,,,,,,,48.759574699999575,0.009574699999575387,None,93.99525020000146,93.99525020000146,93.99525020000146,93.99525020000146,93.99525020000146,93.99525020000146,93.99525020000146,93.99525020000146,93.99525020000146,93.99525020000146,,009,P008,2025_Feb_01_1231,ConditionRich,2021.2.3,59.929726402533156,
52.0,52.75,10,0.75,Stimuli/P008/sun_bdekcgnlcicvgpvq.jpg,0,0.0,0.0,0,25,25,25,,,,,,,,,,,,,52.01212289999967,0.012122899999667425,None,97.24806820000049,97.24806820000049,97.24806820000049,97.24806820000049,97.24806820000049,97.24806820000049,97.24806820000049,97.24806820000049,97.24806820000049,97.24806820000049,,009,P008,2025_Feb_01_1231,ConditionRich,2021.2.3,59.929726402533156,
52.75,56.0,41,0.0,Stimuli/Blank.png,0,0.0,0.0,0,26,26,26,,,,,,,,,,,,,52.76264470000024,0.012644700000237208,None,97.99873780000053,97.99873780000053,97.99873780000053,97.99873780000053,97.99873780000053,97.99873780000053,97.99873780000053,97.99873780000053,97.99873780000053,97.99873780000053,,009,P008,2025_Feb_01_1231,ConditionRich,2021.2.3,59.929726402533156,
56.0,56.75,8,0.75,Stimuli/P008/sun_bbnepvzvycqjjczs.jpg,0,0.0,0.0,0,27,27,27,,,,,,,,,,,,,56.014927300000636,0.014927300000636023,None,101.26831080000011,101.26831080000011,101.26831080000011,101.26831080000011,101.26831080000011,101.26831080000011,101.26831080000011,101.26831080000011,101.26831080000011,101.26831080000011,,009,P008,2025_Feb_01_1231,ConditionRich,2021.2.3,59.929726402533156,
56.75,60.0,41,0.0,Stimuli/Blank.png,0,0.0,0.0,0,28,28,28,,,,,,,,,,,,,56.782917700000326,0.03291770000032557,None,102.01894670000001,102.01894670000001,102.01894670000001,102.01894670000001,102.01894670000001,102.01894670000001,102.01894670000001,102.01894670000001,102.01894670000001,102.01894670000001,,009,P008,2025_Feb_01_1231,ConditionRich,2021.2.3,59.929726402533156,
60.0,60.75,5,0.75,Stimuli/P008/sun_ayzkwnqsoiycbncn.jpg,0,0.0,0.0,0,29,29,29,,,,,,,,,,,,,60.002446399999826,0.002446399999826099,None,105.2384191000001,105.2384191000001,105.2384191000001,105.2384191000001,105.2384191000001,105.2384191000001,105.2384191000001,105.2384191000001,105.2384191000001,105.2384191000001,,009,P008,2025_Feb_01_1231,ConditionRich,2021.2.3,59.929726402533156,
60.75,64.0,41,0.0,Stimuli/Blank.png,0,0.0,0.0,0,30,30,30,,,,,,,,,,,,,60.754284599999664,0.004284599999664351,None,106.00582100000065,106.00582100000065,106.00582100000065,106.00582100000065,106.00582100000065,106.00582100000065,106.00582100000065,106.00582100000065,106.00582100000065,106.00582100000065,,009,P008,2025_Feb_01_1231,ConditionRich,2021.2.3,59.929726402533156,
64.0,64.75,27,0.75,Stimuli/P008/things_fur_coat_04s.jpg,1,0.0,0.75,0,31,31,31,,,,,,,,,,,,,64.02216939999926,0.02216939999925671,2,109.25868080000146,109.25868080000146,109.25868080000146,109.25868080000146,109.25868080000146,109.25868080000146,109.25868080000146,None,109.25868080000146,109.25868080000146,0.6511931999993976,009,P008,2025_Feb_01_1231,ConditionRich,2021.2.3,59.929726402533156,
64.75,68.0,41,0.0,Stimuli/Blank.png,0,0.0,0.0,0,32,32,32,,,,,,,,,,,,,64.7573940000002,0.00739400000020396,None,109.9926630000009,109.9926630000009,109.9926630000009,109.9926630000009,109.9926630000009,109.9926630000009,109.9926630000009,109.9926630000009,109.9926630000009,109.9926630000009,,009,P008,2025_Feb_01_1231,ConditionRich,2021.2.3,59.929726402533156,
68.0,68.75,12,0.75,Stimuli/P008/sun_bitpmyvulluuasab.jpg,0,0.0,0.0,0,33,33,33,,,,,,,,,,,,,68.00894719999997,0.00894719999996596,None,113.24554429999989,113.24554429999989,113.24554429999989,113.24554429999989,113.24554429999989,113.24554429999989,113.24554429999989,113.24554429999989,113.24554429999989,113.24554429999989,,009,P008,2025_Feb_01_1231,ConditionRich,2021.2.3,59.929726402533156,
68.75,72.0,41,0.0,Stimuli/Blank.png,0,0.0,0.0,0,34,34,34,,,,,,,,,,,,,68.75945320000028,0.009453200000280049,None,113.99620040000082,113.99620040000082,113.99620040000082,113.99620040000082,113.99620040000082,113.99620040000082,113.99620040000082,113.99620040000082,113.99620040000082,113.99620040000082,,009,P008,2025_Feb_01_1231,ConditionRich,2021.2.3,59.929726402533156,
72.0,72.75,30,0.75,Stimuli/P008/things_jalapeno_04s.jpg,0,0.0,0.0,0,35,35,35,,,,,,,,,,,,,72.01269219999995,0.012692199999946752,None,117.24947990000146,117.24947990000146,117.24947990000146,117.24947990000146,117.24947990000146,117.24947990000146,117.24947990000146,117.24947990000146,117.24947990000146,117.24947990000146,,009,P008,2025_Feb_01_1231,ConditionRich,2021.2.3,59.929726402533156,
72.75,76.0,41,0.0,Stimuli/Blank.png,1,0.25,1.0,0,36,36,36,,,,,,,,,,,,,72.76315710000017,0.01315710000017134,2,117.99974339999972,117.99974339999972,117.99974339999972,117.99974339999972,117.99974339999972,117.99974339999972,118.23328670000046,118.98394590000134,117.99974339999972,117.99974339999972,0.669083300001148,009,P008,2025_Feb_01_1231,ConditionRich,2021.2.3,59.929726402533156,
76.0,76.75,6,0.75,Stimuli/P008/sun_azpjjfwsbjdjcopb.jpg,0,0.0,0.0,0,37,37,37,,,,,,,,,,,,,76.00023529999999,0.00023529999998572748,None,121.25258120000035,121.25258120000035,121.25258120000035,121.25258120000035,121.25258120000035,121.25258120000035,121.25258120000035,121.25258120000035,121.25258120000035,121.25258120000035,,009,P008,2025_Feb_01_1231,ConditionRich,2021.2.3,59.929726402533156,
76.75,80.0,41,0.0,Stimuli/Blank.png,0,0.0,0.0,0,38,38,38,,,,,,,,,,,,,76.7672834999994,0.017283499999393825,None,122.0032839000014,122.0032839000014,122.0032839000014,122.0032839000014,122.0032839000014,122.0032839000014,122.0032839000014,122.0032839000014,122.0032839000014,122.0032839000014,,009,P008,2025_Feb_01_1231,ConditionRich,2021.2.3,59.929726402533156,
80.0,80.75,37,0.75,Stimuli/P008/things_praying_mantis_04s.jpg,0,0.0,0.0,0,39,39,39,,,,,,,,,,,,,80.00382239999999,0.0038223999999900116,None,125.23944099999972,125.23944099999972,125.23944099999972,125.23944099999972,125.23944099999972,125.23944099999972,125.23944099999972,125.23944099999972,125.23944099999972,125.23944099999972,,009,P008,2025_Feb_01_1231,ConditionRich,2021.2.3,59.929726402533156,
80.75,84.0,41,0.0,Stimuli/Blank.png,0,0.0,0.0,0,40,40,40,,,,,,,,,,,,,80.75344050000058,0.00344050000057905,None,125.99013900000136,125.99013900000136,125.99013900000136,125.99013900000136,125.99013900000136,125.99013900000136,125.99013900000136,125.99013900000136,125.99013900000136,125.99013900000136,,009,P008,2025_Feb_01_1231,ConditionRich,2021.2.3,59.929726402533156,
84.0,100.0,0,0.0,Stimuli/Blank.png,1,8.0,8.75,0,41,41,41,,,,,,,,,,,,,84.00663340000028,0.006633400000282563,2,129.24300910000056,129.24300910000056,129.24300910000056,129.24300910000056,129.24300910000056,129.24300910000056,137.2334350000001,137.98407550000047,129.24300910000056,129.24300910000056,8.35912350000035,009,P008,2025_Feb_01_1231,ConditionRich,2021.2.3,59.929726402533156,
100.0,100.75,11,0.75,Stimuli/P008/sun_bdsriuscubkvzrmt.jpg,0,0.0,0.0,0,42,42,42,,,,,,,,,,,,,100.00407129999985,0.004071299999850453,None,145.2571869000003,145.2571869000003,145.2571869000003,145.2571869000003,145.2571869000003,145.2571869000003,145.2571869000003,145.2571869000003,145.2571869000003,145.2571869000003,,009,P008,2025_Feb_01_1231,ConditionRich,2021.2.3,59.929726402533156,
100.75,104.0,41,0.0,Stimuli/Blank.png,0,0.0,0.0,0,43,43,43,,,,,,,,,,,,,100.7728246000006,0.022824600000603823,None,146.00785280000127,146.00785280000127,146.00785280000127,146.00785280000127,146.00785280000127,146.00785280000127,146.00785280000127,146.00785280000127,146.00785280000127,146.00785280000127,,009,P008,2025_Feb_01_1231,ConditionRich,2021.2.3,59.929726402533156,
104.0,104.75,34,0.75,Stimuli/P008/things_moose_04s.jpg,0,0.0,0.0,0,44,44,44,,,,,,,,,,,,,104.00746959999924,0.0074695999992400175,None,149.24404620000132,149.24404620000132,149.24404620000132,149.24404620000132,149.24404620000132,149.24404620000132,149.24404620000132,149.24404620000132,149.24404620000132,149.24404620000132,,009,P008,2025_Feb_01_1231,ConditionRich,2021.2.3,59.929726402533156,
104.75,108.0,41,0.0,Stimuli/Blank.png,0,0.0,0.0,0,45,45,45,,,,,,,,,,,,,104.75837649999994,0.008376499999940279,None,149.9947090000005,149.9947090000005,149.9947090000005,149.9947090000005,149.9947090000005,149.9947090000005,149.9947090000005,149.9947090000005,149.9947090000005,149.9947090000005,,009,P008,2025_Feb_01_1231,ConditionRich,2021.2.3,59.929726402533156,
108.0,108.75,14,0.75,Stimuli/P008/sun_bkvjqgmploznrhxt.jpg,0,0.0,0.0,0,46,46,46,,,,,,,,,,,,,108.01150869999947,0.011508699999467353,None,153.24759249999988,153.24759249999988,153.24759249999988,153.24759249999988,153.24759249999988,153.24759249999988,153.24759249999988,153.24759249999988,153.24759249999988,153.24759249999988,,009,P008,2025_Feb_01_1231,ConditionRich,2021.2.3,59.929726402533156,
108.75,112.0,41,0.0,Stimuli/Blank.png,0,0.0,0.0,0,47,47,47,,,,,,,,,,,,,108.76283750000039,0.012837500000387081,None,153.9982568000014,153.9982568000014,153.9982568000014,153.9982568000014,153.9982568000014,153.9982568000014,153.9982568000014,153.9982568000014,153.9982568000014,153.9982568000014,,009,P008,2025_Feb_01_1231,ConditionRich,2021.2.3,59.929726402533156,
112.0,112.75,35,0.75,Stimuli/P008/things_pecan_04s.jpg,0,0.0,0.0,0,48,48,48,,,,,,,,,,,,,111.99846160000016,-0.0015383999998448417,None,157.23440610000034,157.23440610000034,157.23440610000034,157.23440610000034,157.23440610000034,157.23440610000034,157.23440610000034,157.23440610000034,157.23440610000034,157.23440610000034,,009,P008,2025_Feb_01_1231,ConditionRich,2021.2.3,59.929726402533156,
112.75,116.0,41,0.0,Stimuli/Blank.png,0,0.0,0.0,0,49,49,49,,,,,,,,,,,,,112.74863229999937,-0.001367700000628247,None,157.98510610000085,157.98510610000085,157.98510610000085,157.98510610000085,157.98510610000085,157.98510610000085,157.98510610000085,157.98510610000085,157.98510610000085,157.98510610000085,,009,P008,2025_Feb_01_1231,ConditionRich,2021.2.3,59.929726402533156,
116.0,116.75,4,0.75,Stimuli/P008/sun_awqukazlzsxaokai.jpg,0,0.0,0.0,0,50,50,50,,,,,,,,,,,,,116.00198660000024,0.001986600000236649,None,161.2546643000005,161.2546643000005,161.2546643000005,161.2546643000005,161.2546643000005,161.2546643000005,161.2546643000005,161.2546643000005,161.2546643000005,161.2546643000005,,009,P008,2025_Feb_01_1231,ConditionRich,2021.2.3,59.929726402533156,
116.75,120.0,41,0.0,Stimuli/Blank.png,0,0.0,0.0,0,51,51,51,,,,,,,,,,,,,116.76874549999957,0.018745499999567983,None,162.00533069999983,162.00533069999983,162.00533069999983,162.00533069999983,162.00533069999983,162.00533069999983,162.00533069999983,162.00533069999983,162.00533069999983,162.00533069999983,,009,P008,2025_Feb_01_1231,ConditionRich,2021.2.3,59.929726402533156,
120.0,120.75,24,0.75,Stimuli/P008/things_collar_04s.jpg,0,0.0,0.0,0,52,52,52,,,,,,,,,,,,,120.00555859999986,0.005558599999858416,None,165.25821780000115,165.25821780000115,165.25821780000115,165.25821780000115,165.25821780000115,165.25821780000115,165.25821780000115,165.25821780000115,165.25821780000115,165.25821780000115,,009,P008,2025_Feb_01_1231,ConditionRich,2021.2.3,59.929726402533156,
120.75,124.0,41,0.0,Stimuli/Blank.png,0,0.0,0.0,0,53,53,53,,,,,,,,,,,,,120.77383310000005,0.023833100000047125,None,166.0088495,166.0088495,166.0088495,166.0088495,166.0088495,166.0088495,166.0088495,166.0088495,166.0088495,166.0088495,,009,P008,2025_Feb_01_1231,ConditionRich,2021.2.3,59.929726402533156,
124.0,124.75,3,0.75,Stimuli/P008/sun_aueftjhdwnvkbzlt.jpg,0,0.0,0.0,0,54,54,54,,,,,,,,,,,,,124.00877559999935,0.00877559999935329,None,169.24507319999975,169.24507319999975,169.24507319999975,169.24507319999975,169.24507319999975,169.24507319999975,169.24507319999975,169.24507319999975,169.24507319999975,169.24507319999975,,009,P008,2025_Feb_01_1231,ConditionRich,2021.2.3,59.929726402533156,
124.75,128.0,41,0.0,Stimuli/Blank.png,0,0.0,0.0,0,55,55,55,,,,,,,,,,,,,124.76006869999947,0.010068699999465025,None,169.99581209999997,169.99581209999997,169.99581209999997,169.99581209999997,169.99581209999997,169.99581209999997,169.99581209999997,169.99581209999997,169.99581209999997,169.99581209999997,,009,P008,2025_Feb_01_1231,ConditionRich,2021.2.3,59.929726402533156,
128.0,128.75,9,0.75,Stimuli/P008/sun_bcsqogieozpyvuft.jpg,0,0.0,0.0,0,56,56,56,,,,,,,,,,,,,128.01324600000044,0.013246000000435743,None,173.2653160000009,173.2653160000009,173.2653160000009,173.2653160000009,173.2653160000009,173.2653160000009,173.2653160000009,173.2653160000009,173.2653160000009,173.2653160000009,,009,P008,2025_Feb_01_1231,ConditionRich,2021.2.3,59.929726402533156,
128.75,132.0,41,0.0,Stimuli/Blank.png,0,0.0,0.0,0,57,57,57,,,,,,,,,,,,,128.77920079999967,0.02920079999967129,None,174.01595760000055,174.01595760000055,174.01595760000055,174.01595760000055,174.01595760000055,174.01595760000055,174.01595760000055,174.01595760000055,174.01595760000055,174.01595760000055,,009,P008,2025_Feb_01_1231,ConditionRich,2021.2.3,59.929726402533156,
132.0,132.75,32,0.75,Stimuli/P008/things_maggot_04s.jpg,0,0.0,0.0,0,58,58,58,,,,,,,,,,,,,132.01630459999978,0.01630459999978484,None,177.25215460000072,177.25215460000072,177.25215460000072,177.25215460000072,177.25215460000072,177.25215460000072,177.25215460000072,177.25215460000072,177.25215460000072,177.25215460000072,,009,P008,2025_Feb_01_1231,ConditionRich,2021.2.3,59.929726402533156,
132.75,136.0,41,0.0,Stimuli/Blank.png,0,0.0,0.0,0,59,59,59,,,,,,,,,,,,,132.75031929999932,0.0003192999993189005,None,177.9862172000012,177.9862172000012,177.9862172000012,177.9862172000012,177.9862172000012,177.9862172000012,177.9862172000012,177.9862172000012,177.9862172000012,177.9862172000012,,009,P008,2025_Feb_01_1231,ConditionRich,2021.2.3,59.929726402533156,
136.0,136.75,38,0.75,Stimuli/P008/things_rollerblade_04s.jpg,0,0.0,0.0,0,60,60,60,,,,,,,,,,,,,136.00398700000005,0.003987000000051921,None,181.2556543999999,181.2556543999999,181.2556543999999,181.2556543999999,181.2556543999999,181.2556543999999,181.2556543999999,181.2556543999999,181.2556543999999,181.2556543999999,,009,P008,2025_Feb_01_1231,ConditionRich,2021.2.3,59.929726402533156,
136.75,140.0,41,0.0,Stimuli/Blank.png,0,0.0,0.0,0,61,61,61,,,,,,,,,,,,,136.77057550000063,0.02057550000063202,None,182.00636760000089,182.00636760000089,182.00636760000089,182.00636760000089,182.00636760000089,182.00636760000089,182.00636760000089,182.00636760000089,182.00636760000089,182.00636760000089,,009,P008,2025_Feb_01_1231,ConditionRich,2021.2.3,59.929726402533156,
140.0,140.75,22,0.75,Stimuli/P008/things_boar_04s.jpg,0,0.0,0.0,0,62,62,62,,,,,,,,,,,,,140.00654199999917,0.006541999999171821,None,185.24255540000013,185.24255540000013,185.24255540000013,185.24255540000013,185.24255540000013,185.24255540000013,185.24255540000013,185.24255540000013,185.24255540000013,185.24255540000013,,009,P008,2025_Feb_01_1231,ConditionRich,2021.2.3,59.929726402533156,
140.75,144.0,41,0.0,Stimuli/Blank.png,0,0.0,0.0,0,63,63,63,,,,,,,,,,,,,140.75693390000015,0.006933900000149151,None,185.99320940000143,185.99320940000143,185.99320940000143,185.99320940000143,185.99320940000143,185.99320940000143,185.99320940000143,185.99320940000143,185.99320940000143,185.99320940000143,,009,P008,2025_Feb_01_1231,ConditionRich,2021.2.3,59.929726402533156,
144.0,144.75,31,0.75,Stimuli/P008/things_jug_04s.jpg,0,0.0,0.0,0,64,64,64,,,,,,,,,,,,,144.01085090000015,0.010850900000150432,None,189.24612820000038,189.24612820000038,189.24612820000038,189.24612820000038,189.24612820000038,189.24612820000038,189.24612820000038,189.24612820000038,189.24612820000038,189.24612820000038,,009,P008,2025_Feb_01_1231,ConditionRich,2021.2.3,59.929726402533156,
144.75,148.0,41,0.0,Stimuli/Blank.png,0,0.0,0.0,0,65,65,65,,,,,,,,,,,,,144.76244360000055,0.012443600000551669,None,190.01352380000026,190.01352380000026,190.01352380000026,190.01352380000026,190.01352380000026,190.01352380000026,190.01352380000026,190.01352380000026,190.01352380000026,190.01352380000026,,009,P008,2025_Feb_01_1231,ConditionRich,2021.2.3,59.929726402533156,
148.0,148.75,33,0.75,Stimuli/P008/things_man_04s.jpg,0,0.0,0.0,0,66,66,66,,,,,,,,,,,,,148.02981010000076,0.02981010000075912,None,193.28300200000012,193.28300200000012,193.28300200000012,193.28300200000012,193.28300200000012,193.28300200000012,193.28300200000012,193.28300200000012,193.28300200000012,193.28300200000012,,009,P008,2025_Feb_01_1231,ConditionRich,2021.2.3,59.929726402533156,
148.75,152.0,41,0.0,Stimuli/Blank.png,0,0.0,0.0,0,67,67,67,,,,,,,,,,,,,148.78253070000028,0.03253070000027947,None,194.03368190000037,194.03368190000037,194.03368190000037,194.03368190000037,194.03368190000037,194.03368190000037,194.03368190000037,194.03368190000037,194.03368190000037,194.03368190000037,,009,P008,2025_Feb_01_1231,ConditionRich,2021.2.3,59.929726402533156,
152.0,152.75,17,0.75,Stimuli/P008/sun_bnsxdhbsafbdyncy.jpg,0,0.0,0.0,0,68,68,68,,,,,,,,,,,,,152.01736739999978,0.01736739999978454,None,197.25315190000038,197.25315190000038,197.25315190000038,197.25315190000038,197.25315190000038,197.25315190000038,197.25315190000038,197.25315190000038,197.25315190000038,197.25315190000038,,009,P008,2025_Feb_01_1231,ConditionRich,2021.2.3,59.929726402533156,
152.75,156.0,41,0.0,Stimuli/Blank.png,0,0.0,0.0,0,69,69,69,,,,,,,,,,,,,152.75112470000022,0.0011247000002185814,None,197.98715230000016,197.98715230000016,197.98715230000016,197.98715230000016,197.98715230000016,197.98715230000016,197.98715230000016,197.98715230000016,197.98715230000016,197.98715230000016,,009,P008,2025_Feb_01_1231,ConditionRich,2021.2.3,59.929726402533156,
156.0,156.75,2,0.75,Stimuli/P008/sun_ajyzloqaptmicnfr.jpg,0,0.0,0.0,0,70,70,70,,,,,,,,,,,,,156.00409519999994,0.004095199999937904,None,201.25671370000055,201.25671370000055,201.25671370000055,201.25671370000055,201.25671370000055,201.25671370000055,201.25671370000055,201.25671370000055,201.25671370000055,201.25671370000055,,009,P008,2025_Feb_01_1231,ConditionRich,2021.2.3,59.929726402533156,
156.75,160.0,41,0.0,Stimuli/Blank.png,1,1.25,2.0,0,71,71,71,,,,,,,,,,,,,156.77349239999967,0.023492399999668123,2,202.02407120000134,202.02407120000134,202.02407120000134,202.02407120000134,202.02407120000134,202.02407120000134,203.25848440000118,204.00914600000033,202.02407120000134,202.02407120000134,1.925854299999628,009,P008,2025_Feb_01_1231,ConditionRich,2021.2.3,59.929726402533156,
160.0,160.75,26,0.75,Stimuli/P008/things_face_04s.jpg,1,0.0,0.75,0,72,72,72,,,,,,,,,,,,,160.02404319999914,0.024043199999141507,None,205.26026280000042,205.26026280000042,205.26026280000042,205.26026280000042,205.26026280000042,205.26026280000042,205.26026280000042,None,205.26026280000042,205.26026280000042,,009,P008,2025_Feb_01_1231,ConditionRich,2021.2.3,59.929726402533156,
160.75,164.0,41,0.0,Stimuli/Blank.png,0,0.0,0.0,0,73,73,73,,,,,,,,,,,,,160.75832289999926,0.00832289999925706,None,205.99423949999982,205.99423949999982,205.99423949999982,205.99423949999982,205.99423949999982,205.99423949999982,205.99423949999982,205.99423949999982,205.99423949999982,205.99423949999982,,009,P008,2025_Feb_01_1231,ConditionRich,2021.2.3,59.929726402533156,
164.0,164.75,7,0.75,Stimuli/P008/sun_babhwrqvnhanonuy.jpg,0,0.0,0.0,0,74,74,74,,,,,,,,,,,,,164.01093910000054,0.010939100000541657,None,209.2471129000005,209.2471129000005,209.2471129000005,209.2471129000005,209.2471129000005,209.2471129000005,209.2471129000005,209.2471129000005,209.2471129000005,209.2471129000005,,009,P008,2025_Feb_01_1231,ConditionRich,2021.2.3,59.929726402533156,
164.75,168.0,41,0.0,Stimuli/Blank.png,0,0.0,0.0,0,75,75,75,,,,,,,,,,,,,164.7618564000004,0.011856400000397116,None,209.9977873000007,209.9977873000007,209.9977873000007,209.9977873000007,209.9977873000007,209.9977873000007,209.9977873000007,209.9977873000007,209.9977873000007,209.9977873000007,,009,P008,2025_Feb_01_1231,ConditionRich,2021.2.3,59.929726402533156,
168.0,168.75,40,0.75,Stimuli/P008/things_woman_04s.jpg,1,0.0,0.75,0,76,76,76,,,,,,,,,,,,,168.01385429999937,0.013854299999366049,2,213.25065170000016,213.25065170000016,213.25065170000016,213.25065170000016,213.25065170000016,213.25065170000016,213.25065170000016,213.98468049999974,213.25065170000016,213.25065170000016,0.47353149999980815,009,P008,2025_Feb_01_1231,ConditionRich,2021.2.3,59.929726402533156,
168.75,172.0,41,0.0,Stimuli/Blank.png,0,0.0,0.0,0,77,77,77,,,,,,,,,,,,,168.76581289999922,0.015812899999218644,None,214.00134419999995,214.00134419999995,214.00134419999995,214.00134419999995,214.00134419999995,214.00134419999995,214.00134419999995,214.00134419999995,214.00134419999995,214.00134419999995,,009,P008,2025_Feb_01_1231,ConditionRich,2021.2.3,59.929726402533156,
172.0,172.75,19,0.75,Stimuli/P008/sun_brpfgrmubnnjvfkw.jpg,0,0.0,0.0,0,78,78,78,,,,,,,,,,,,,172.0038886000002,0.003888600000209408,None,217.254277,217.254277,217.254277,217.254277,217.254277,217.254277,217.254277,217.254277,217.254277,217.254277,,009,P008,2025_Feb_01_1231,ConditionRich,2021.2.3,59.929726402533156,
172.75,176.0,41,0.0,Stimuli/Blank.png,0,0.0,0.0,0,79,79,79,,,,,,,,,,,,,172.76850720000039,0.018507200000385637,None,218.0048594,218.0048594,218.0048594,218.0048594,218.0048594,218.0048594,218.0048594,218.0048594,218.0048594,218.0048594,,009,P008,2025_Feb_01_1231,ConditionRich,2021.2.3,59.929726402533156,
176.0,176.75,28,0.75,Stimuli/P008/things_girl_04s.jpg,0,0.0,0.0,0,80,80,80,,,,,,,,,,,,,176.00494629999957,0.0049462999995739665,None,221.257781100001,221.257781100001,221.257781100001,221.257781100001,221.257781100001,221.257781100001,221.257781100001,221.257781100001,221.257781100001,221.257781100001,,009,P008,2025_Feb_01_1231,ConditionRich,2021.2.3,59.929726402533156,
176.75,180.0,41,0.0,Stimuli/Blank.png,1,0.25,1.0,0,81,81,81,,,,,,,,,,,,,176.77235380000093,0.02235380000092846,2,222.00840729999982,222.00840729999982,222.00840729999982,222.00840729999982,222.00840729999982,222.00840729999982,222.24196370000027,222.99260250000043,222.00840729999982,222.00840729999982,0.7197811999994883,009,P008,2025_Feb_01_1231,ConditionRich,2021.2.3,59.929726402533156,
180.0,196.0,0,0.0,Stimuli/Blank.png,1,8.0,8.75,0,82,82,82,,,,,,,,,,,,,180.00869710000006,0.008697100000063074,2,225.24462480000147,225.24462480000147,225.24462480000147,225.24462480000147,225.24462480000147,225.24462480000147,233.23503549999987,233.9857232000013,225.24462480000147,225.24462480000147,8.562392300000283,009,P008,2025_Feb_01_1231,ConditionRich,2021.2.3,59.929726402533156,
196.0,196.75,4,0.75,Stimuli/P008/sun_awqukazlzsxaokai.jpg,0,0.0,0.0,0,83,83,83,,,,,,,,,,,,,196.00781409999945,0.007814099999450264,None,241.25876120000066,241.25876120000066,241.25876120000066,241.25876120000066,241.25876120000066,241.25876120000066,241.25876120000066,241.25876120000066,241.25876120000066,241.25876120000066,,009,P008,2025_Feb_01_1231,ConditionRich,2021.2.3,59.929726402533156,
196.75,200.0,41,0.0,Stimuli/Blank.png,0,0.0,0.0,0,84,84,84,,,,,,,,,,,,,196.77283539999917,0.02283539999916684,None,242.0094237000012,242.0094237000012,242.0094237000012,242.0094237000012,242.0094237000012,242.0094237000012,242.0094237000012,242.0094237000012,242.0094237000012,242.0094237000012,,009,P008,2025_Feb_01_1231,ConditionRich,2021.2.3,59.929726402533156,
200.0,200.75,29,0.75,Stimuli/P008/things_hawk_04s.jpg,0,0.0,0.0,0,85,85,85,,,,,,,,,,,,,200.0097093000004,0.00970930000039516,None,245.26230550000037,245.26230550000037,245.26230550000037,245.26230550000037,245.26230550000037,245.26230550000037,245.26230550000037,245.26230550000037,245.26230550000037,245.26230550000037,,009,P008,2025_Feb_01_1231,ConditionRich,2021.2.3,59.929726402533156,
200.75,204.0,41,0.0,Stimuli/Blank.png,0,0.0,0.0,0,86,86,86,,,,,,,,,,,,,200.77791439999964,0.027914399999644957,None,246.01297350000095,246.01297350000095,246.01297350000095,246.01297350000095,246.01297350000095,246.01297350000095,246.01297350000095,246.01297350000095,246.01297350000095,246.01297350000095,,009,P008,2025_Feb_01_1231,ConditionRich,2021.2.3,59.929726402533156,
204.0,204.75,35,0.75,Stimuli/P008/things_pecan_04s.jpg,0,0.0,0.0,0,87,87,87,,,,,,,,,,,,,204.0131889000004,0.013188900000386639,None,249.2658631000013,249.2658631000013,249.2658631000013,249.2658631000013,249.2658631000013,249.2658631000013,249.2658631000013,249.2658631000013,249.2658631000013,249.2658631000013,,009,P008,2025_Feb_01_1231,ConditionRich,2021.2.3,59.929726402533156,
204.75,208.0,41,0.0,Stimuli/Blank.png,1,1.25,2.0,0,88,88,88,,,,,,,,,,,,,204.77978050000092,0.029780500000924803,2,250.01650640000116,250.01650640000116,250.01650640000116,250.01650640000116,250.01650640000116,250.01650640000116,251.25098590000016,252.0015964000013,250.01650640000116,250.01650640000116,1.636461000000054,009,P008,2025_Feb_01_1231,ConditionRich,2021.2.3,59.929726402533156,
208.0,208.75,27,0.75,Stimuli/P008/things_fur_coat_04s.jpg,0,0.0,0.0,0,89,89,89,,,,,,,,,,,,,207.99971750000077,-0.00028249999922991265,None,253.25270810000075,253.25270810000075,253.25270810000075,253.25270810000075,253.25270810000075,253.25270810000075,253.25270810000075,253.25270810000075,253.25270810000075,253.25270810000075,,009,P008,2025_Feb_01_1231,ConditionRich,2021.2.3,59.929726402533156,
208.75,212.0,41,0.0,Stimuli/Blank.png,0,0.0,0.0,0,90,90,90,,,,,,,,,,,,,208.76688869999998,0.016888699999981327,None,254.00337519999994,254.00337519999994,254.00337519999994,254.00337519999994,254.00337519999994,254.00337519999994,254.00337519999994,254.00337519999994,254.00337519999994,254.00337519999994,,009,P008,2025_Feb_01_1231,ConditionRich,2021.2.3,59.929726402533156,
212.0,212.75,21,0.75,Stimuli/P008/things_baby_04s.jpg,0,0.0,0.0,0,91,91,91,,,,,,,,,,,,,212.00301369999943,0.003013699999428354,None,257.2395566000014,257.2395566000014,257.2395566000014,257.2395566000014,257.2395566000014,257.2395566000014,257.2395566000014,257.2395566000014,257.2395566000014,257.2395566000014,,009,P008,2025_Feb_01_1231,ConditionRich,2021.2.3,59.929726402533156,
212.75,216.0,41,0.0,Stimuli/Blank.png,0,0.0,0.0,0,92,92,92,,,,,,,,,,,,,212.7535669000008,0.0035669000008056173,None,257.9901998000005,257.9901998000005,257.9901998000005,257.9901998000005,257.9901998000005,257.9901998000005,257.9901998000005,257.9901998000005,257.9901998000005,257.9901998000005,,009,P008,2025_Feb_01_1231,ConditionRich,2021.2.3,59.929726402533156,
216.0,216.75,34,0.75,Stimuli/P008/things_moose_04s.jpg,0,0.0,0.0,0,93,93,93,,,,,,,,,,,,,216.00656920000074,0.0065692000007402385,None,261.24310630000036,261.24310630000036,261.24310630000036,261.24310630000036,261.24310630000036,261.24310630000036,261.24310630000036,261.24310630000036,261.24310630000036,261.24310630000036,,009,P008,2025_Feb_01_1231,ConditionRich,2021.2.3,59.929726402533156,
216.75,220.0,41,0.0,Stimuli/Blank.png,1,2.25,3.0,0,94,94,94,,,,,,,,,,,,,216.75818529999924,0.00818529999924067,2,261.9937649000003,261.9937649000003,261.9937649000003,261.9937649000003,261.9937649000003,261.9937649000003,264.22908220000136,264.97975320000114,261.9937649000003,261.9937649000003,2.794608000000153,009,P008,2025_Feb_01_1231,ConditionRich,2021.2.3,59.929726402533156,
220.0,220.75,9,0.75,Stimuli/P008/sun_bcsqogieozpyvuft.jpg,0,0.0,0.0,0,95,95,95,,,,,,,,,,,,,220.01254900000094,0.012549000000944943,None,265.26333540000087,265.26333540000087,265.26333540000087,265.26333540000087,265.26333540000087,265.26333540000087,265.26333540000087,265.26333540000087,265.26333540000087,265.26333540000087,,009,P008,2025_Feb_01_1231,ConditionRich,2021.2.3,59.929726402533156,
220.75,224.0,41,0.0,Stimuli/Blank.png,1,0.25,1.0,0,96,96,96,,,,,,,,,,,,,220.77796710000075,0.02796710000075109,2,266.0139936000014,266.0139936000014,266.0139936000014,266.0139936000014,266.0139936000014,266.0139936000014,266.2475279999999,266.9981947000015,266.0139936000014,266.0139936000014,0.6789834999999584,009,P008,2025_Feb_01_1231,ConditionRich,2021.2.3,59.929726402533156,
224.0,224.75,11,0.75,Stimuli/P008/sun_bdsriuscubkvzrmt.jpg,0,0.0,0.0,0,97,97,97,,,,,,,,,,,,,224.01440550000007,0.01440550000006624,None,269.2501850999997,269.2501850999997,269.2501850999997,269.2501850999997,269.2501850999997,269.2501850999997,269.2501850999997,269.2501850999997,269.2501850999997,269.2501850999997,,009,P008,2025_Feb_01_1231,ConditionRich,2021.2.3,59.929726402533156,
224.75,228.0,41,0.0,Stimuli/Blank.png,0,0.0,0.0,0,98,98,98,,,,,,,,,,,,,224.76480269999956,0.014802699999563629,None,270.00084870000137,270.00084870000137,270.00084870000137,270.00084870000137,270.00084870000137,270.00084870000137,270.00084870000137,270.00084870000137,270.00084870000137,270.00084870000137,,009,P008,2025_Feb_01_1231,ConditionRich,2021.2.3,59.929726402533156,
228.0,228.75,38,0.75,Stimuli/P008/things_rollerblade_04s.jpg,0,0.0,0.0,0,99,99,99,,,,,,,,,,,,,228.00274759999957,0.002747599999565864,None,273.2537286000006,273.2537286000006,273.2537286000006,273.2537286000006,273.2537286000006,273.2537286000006,273.2537286000006,273.2537286000006,273.2537286000006,273.2537286000006,,009,P008,2025_Feb_01_1231,ConditionRich,2021.2.3,59.929726402533156,
228.75,232.0,41,0.0,Stimuli/Blank.png,0,0.0,0.0,0,100,100,100,,,,,,,,,,,,,228.76846939999996,0.018469399999958114,None,274.00436830000035,274.00436830000035,274.00436830000035,274.00436830000035,274.00436830000035,274.00436830000035,274.00436830000035,274.00436830000035,274.00436830000035,274.00436830000035,,009,P008,2025_Feb_01_1231,ConditionRich,2021.2.3,59.929726402533156,
232.0,232.75,32,0.75,Stimuli/P008/things_maggot_04s.jpg,0,0.0,0.0,0,101,101,101,,,,,,,,,,,,,232.0046810999993,0.004681099999288563,None,277.24059600000146,277.24059600000146,277.24059600000146,277.24059600000146,277.24059600000146,277.24059600000146,277.24059600000146,277.24059600000146,277.24059600000146,277.24059600000146,,009,P008,2025_Feb_01_1231,ConditionRich,2021.2.3,59.929726402533156,
232.75,236.0,41,0.0,Stimuli/Blank.png,1,0.25,1.0,0,102,102,102,,,,,,,,,,,,,232.7549601999999,0.004960199999914039,2,277.9913479000006,277.9913479000006,277.9913479000006,277.9913479000006,277.9913479000006,277.9913479000006,278.2247855000005,278.975510100001,277.9913479000006,277.9913479000006,0.7229716999991069,009,P008,2025_Feb_01_1231,ConditionRich,2021.2.3,59.929726402533156,
236.0,236.75,6,0.75,Stimuli/P008/sun_azpjjfwsbjdjcopb.jpg,0,0.0,0.0,0,103,103,103,,,,,,,,,,,,,236.00776159999987,0.00776159999986703,None,281.2441237000003,281.2441237000003,281.2441237000003,281.2441237000003,281.2441237000003,281.2441237000003,281.2441237000003,281.2441237000003,281.2441237000003,281.2441237000003,,009,P008,2025_Feb_01_1231,ConditionRich,2021.2.3,59.929726402533156,
236.75,240.0,41,0.0,Stimuli/Blank.png,0,0.0,0.0,0,104,104,104,,,,,,,,,,,,,236.75872139999956,0.008721399999558344,None,281.99480080000103,281.99480080000103,281.99480080000103,281.99480080000103,281.99480080000103,281.99480080000103,281.99480080000103,281.99480080000103,281.99480080000103,281.99480080000103,,009,P008,2025_Feb_01_1231,ConditionRich,2021.2.3,59.929726402533156,
240.0,240.75,1,0.75,Stimuli/P008/sun_abrlrupzcrwpxqfc.jpg,0,0.0,0.0,0,105,105,105,,,,,,,,,,,,,240.01297820000036,0.01297820000036154,None,285.2643517000015,285.2643517000015,285.2643517000015,285.2643517000015,285.2643517000015,285.2643517000015,285.2643517000015,285.2643517000015,285.2643517000015,285.2643517000015,,009,P008,2025_Feb_01_1231,ConditionRich,2021.2.3,59.929726402533156,
240.75,244.0,41,0.0,Stimuli/Blank.png,0,0.0,0.0,0,106,106,106,,,,,,,,,,,,,240.77823499999977,0.02823499999976775,None,286.01501220000137,286.01501220000137,286.01501220000137,286.01501220000137,286.01501220000137,286.01501220000137,286.01501220000137,286.01501220000137,286.01501220000137,286.01501220000137,,009,P008,2025_Feb_01_1231,ConditionRich,2021.2.3,59.929726402533156,
244.0,244.75,17,0.75,Stimuli/P008/sun_bnsxdhbsafbdyncy.jpg,0,0.0,0.0,0,107,107,107,,,,,,,,,,,,,244.0150092999993,0.015009299999292125,None,289.2678880000003,289.2678880000003,289.2678880000003,289.2678880000003,289.2678880000003,289.2678880000003,289.2678880000003,289.2678880000003,289.2678880000003,289.2678880000003,,009,P008,2025_Feb_01_1231,ConditionRich,2021.2.3,59.929726402533156,
244.75,248.0,41,0.0,Stimuli/Blank.png,0,0.0,0.0,0,108,108,108,,,,,,,,,,,,,244.76796869999998,0.017968699999983073,None,290.01856000000043,290.01856000000043,290.01856000000043,290.01856000000043,290.01856000000043,290.01856000000043,290.01856000000043,290.01856000000043,290.01856000000043,290.01856000000043,,009,P008,2025_Feb_01_1231,ConditionRich,2021.2.3,59.929726402533156,
248.0,248.75,2,0.75,Stimuli/P008/sun_ajyzloqaptmicnfr.jpg,0,0.0,0.0,0,109,109,109,,,,,,,,,,,,,248.0188760000001,0.018876000000091153,None,293.2547508000007,293.2547508000007,293.2547508000007,293.2547508000007,293.2547508000007,293.2547508000007,293.2547508000007,293.2547508000007,293.2547508000007,293.2547508000007,,009,P008,2025_Feb_01_1231,ConditionRich,2021.2.3,59.929726402533156,
248.75,252.0,41,0.0,Stimuli/Blank.png,0,0.0,0.0,0,110,110,110,,,,,,,,,,,,,248.75308489999952,0.00308489999952144,None,293.9887276999998,293.9887276999998,293.9887276999998,293.9887276999998,293.9887276999998,293.9887276999998,293.9887276999998,293.9887276999998,293.9887276999998,293.9887276999998,,009,P008,2025_Feb_01_1231,ConditionRich,2021.2.3,59.929726402533156,
252.0,252.75,37,0.75,Stimuli/P008/things_praying_mantis_04s.jpg,0,0.0,0.0,0,111,111,111,,,,,,,,,,,,,252.0057195999998,0.00571959999979299,None,297.25826120000056,297.25826120000056,297.25826120000056,297.25826120000056,297.25826120000056,297.25826120000056,297.25826120000056,297.25826120000056,297.25826120000056,297.25826120000056,,009,P008,2025_Feb_01_1231,ConditionRich,2021.2.3,59.929726402533156,
252.75,256.0,41,0.0,Stimuli/Blank.png,0,0.0,0.0,0,112,112,112,,,,,,,,,,,,,252.77292680000028,0.02292680000027758,None,298.0089500000013,298.0089500000013,298.0089500000013,298.0089500000013,298.0089500000013,298.0089500000013,298.0089500000013,298.0089500000013,298.0089500000013,298.0089500000013,,009,P008,2025_Feb_01_1231,ConditionRich,2021.2.3,59.929726402533156,
256.0,256.75,23,0.75,Stimuli/P008/things_bumper_04s.jpg,0,0.0,0.0,0,113,113,113,,,,,,,,,,,,,256.0084504000006,0.008450400000583613,None,301.2451544000014,301.2451544000014,301.2451544000014,301.2451544000014,301.2451544000014,301.2451544000014,301.2451544000014,301.2451544000014,301.2451544000014,301.2451544000014,,009,P008,2025_Feb_01_1231,ConditionRich,2021.2.3,59.929726402533156,
256.75,260.0,41,0.0,Stimuli/Blank.png,0,0.0,0.0,0,114,114,114,,,,,,,,,,,,,256.7592330999996,0.009233099999619299,None,301.9958275000008,301.9958275000008,301.9958275000008,301.9958275000008,301.9958275000008,301.9958275000008,301.9958275000008,301.9958275000008,301.9958275000008,301.9958275000008,,009,P008,2025_Feb_01_1231,ConditionRich,2021.2.3,59.929726402533156,
260.0,260.75,24,0.75,Stimuli/P008/things_collar_04s.jpg,0,0.0,0.0,0,115,115,115,,,,,,,,,,,,,260.0134281999999,0.01342819999990752,None,305.26537500000086,305.26537500000086,305.26537500000086,305.26537500000086,305.26537500000086,305.26537500000086,305.26537500000086,305.26537500000086,305.26537500000086,305.26537500000086,,009,P008,2025_Feb_01_1231,ConditionRich,2021.2.3,59.929726402533156,
260.75,264.0,41,0.0,Stimuli/Blank.png,0,0.0,0.0,0,116,116,116,,,,,,,,,,,,,260.78001960000074,0.030019600000741775,None,306.0161272000005,306.0161272000005,306.0161272000005,306.0161272000005,306.0161272000005,306.0161272000005,306.0161272000005,306.0161272000005,306.0161272000005,306.0161272000005,,009,P008,2025_Feb_01_1231,ConditionRich,2021.2.3,59.929726402533156,
264.0,264.75,18,0.75,Stimuli/P008/sun_borgfidyubrwsuuw.jpg,0,0.0,0.0,0,117,117,117,,,,,,,,,,,,,263.99974680000014,-0.00025319999986095354,None,309.2355591000014,309.2355591000014,309.2355591000014,309.2355591000014,309.2355591000014,309.2355591000014,309.2355591000014,309.2355591000014,309.2355591000014,309.2355591000014,,009,P008,2025_Feb_01_1231,ConditionRich,2021.2.3,59.929726402533156,
264.75,268.0,41,0.0,Stimuli/Blank.png,1,0.25,1.0,0,118,118,118,,,,,,,,,,,,,264.7525263000007,0.0025263000006816583,2,310.0029136000012,310.0029136000012,310.0029136000012,310.0029136000012,310.0029136000012,310.0029136000012,310.2364386999998,310.98712030000024,310.0029136000012,310.0029136000012,0.8602461000009498,009,P008,2025_Feb_01_1231,ConditionRich,2021.2.3,59.929726402533156,
268.0,268.75,5,0.75,Stimuli/P008/sun_ayzkwnqsoiycbncn.jpg,0,0.0,0.0,0,119,119,119,,,,,,,,,,,,,268.0191623999999,0.01916239999991376,None,313.27248990000044,313.27248990000044,313.27248990000044,313.27248990000044,313.27248990000044,313.27248990000044,313.27248990000044,313.27248990000044,313.27248990000044,313.27248990000044,,009,P008,2025_Feb_01_1231,ConditionRich,2021.2.3,59.929726402533156,
268.75,272.0,41,0.0,Stimuli/Blank.png,0,0.0,0.0,0,120,120,120,,,,,,,,,,,,,268.7698751000007,0.019875100000717794,None,314.0064364000009,314.0064364000009,314.0064364000009,314.0064364000009,314.0064364000009,314.0064364000009,314.0064364000009,314.0064364000009,314.0064364000009,314.0064364000009,,009,P008,2025_Feb_01_1231,ConditionRich,2021.2.3,59.929726402533156,
272.0,272.75,14,0.75,Stimuli/P008/sun_bkvjqgmploznrhxt.jpg,0,0.0,0.0,0,121,121,121,,,,,,,,,,,,,272.0067591999996,0.0067591999995784136,None,317.25930750000043,317.25930750000043,317.25930750000043,317.25930750000043,317.25930750000043,317.25930750000043,317.25930750000043,317.25930750000043,317.25930750000043,317.25930750000043,,009,P008,2025_Feb_01_1231,ConditionRich,2021.2.3,59.929726402533156,
272.75,276.0,41,0.0,Stimuli/Blank.png,0,0.0,0.0,0,122,122,122,,,,,,,,,,,,,272.7734273999995,0.023427399999491172,None,318.00997500000085,318.00997500000085,318.00997500000085,318.00997500000085,318.00997500000085,318.00997500000085,318.00997500000085,318.00997500000085,318.00997500000085,318.00997500000085,,009,P008,2025_Feb_01_1231,ConditionRich,2021.2.3,59.929726402533156,
276.0,292.0,0,0.0,Stimuli/Blank.png,1,4.0,4.75,0,123,123,123,,,,,,,,,,,,,276.0126259000008,0.012625900000784895,2,321.26286190000064,321.26286190000064,321.26286190000064,321.26286190000064,321.26286190000064,321.26286190000064,325.24975500000073,326.00041840000085,321.26286190000064,321.26286190000064,4.362086199998885,009,P008,2025_Feb_01_1231,ConditionRich,2021.2.3,59.929726402533156,
292.0,292.75,20,0.75,Stimuli/P008/sun_btrxtfbwtggtrpfv.jpg,0,0.0,0.0,0,124,124,124,,,,,,,,,,,,,292.0240154000003,0.02401540000028035,None,337.2603369999997,337.2603369999997,337.2603369999997,337.2603369999997,337.2603369999997,337.2603369999997,337.2603369999997,337.2603369999997,337.2603369999997,337.2603369999997,,009,P008,2025_Feb_01_1231,ConditionRich,2021.2.3,59.929726402533156,
292.75,296.0,41,0.0,Stimuli/Blank.png,0,0.0,0.0,0,125,125,125,,,,,,,,,,,,,292.75883579999936,0.00883579999936046,None,337.99429370000144,337.99429370000144,337.99429370000144,337.99429370000144,337.99429370000144,337.99429370000144,337.99429370000144,337.99429370000144,337.99429370000144,337.99429370000144,,009,P008,2025_Feb_01_1231,ConditionRich,2021.2.3,59.929726402533156,
296.0,296.75,8,0.75,Stimuli/P008/sun_bbnepvzvycqjjczs.jpg,0,0.0,0.0,0,126,126,126,,,,,,,,,,,,,296.0133960999992,0.013396099999226863,None,341.26388899999984,341.26388899999984,341.26388899999984,341.26388899999984,341.26388899999984,341.26388899999984,341.26388899999984,341.26388899999984,341.26388899999984,341.26388899999984,,009,P008,2025_Feb_01_1231,ConditionRich,2021.2.3,59.929726402533156,
296.75,300.0,41,0.0,Stimuli/Blank.png,0,0.0,0.0,0,127,127,127,,,,,,,,,,,,,296.7781649999997,0.02816499999971711,None,342.01451290000114,342.01451290000114,342.01451290000114,342.01451290000114,342.01451290000114,342.01451290000114,342.01451290000114,342.01451290000114,342.01451290000114,342.01451290000114,,009,P008,2025_Feb_01_1231,ConditionRich,2021.2.3,59.929726402533156,
300.0,300.75,36,0.75,Stimuli/P008/things_platypus_04s.jpg,0,0.0,0.0,0,128,128,128,,,,,,,,,,,,,300.0147500000003,0.014750000000276486,None,345.25073260000136,345.25073260000136,345.25073260000136,345.25073260000136,345.25073260000136,345.25073260000136,345.25073260000136,345.25073260000136,345.25073260000136,345.25073260000136,,009,P008,2025_Feb_01_1231,ConditionRich,2021.2.3,59.929726402533156,
300.75,304.0,41,0.0,Stimuli/Blank.png,0,0.0,0.0,0,129,129,129,,,,,,,,,,,,,300.7674564000008,0.01745640000081039,None,346.01809870000034,346.01809870000034,346.01809870000034,346.01809870000034,346.01809870000034,346.01809870000034,346.01809870000034,346.01809870000034,346.01809870000034,346.01809870000034,,009,P008,2025_Feb_01_1231,ConditionRich,2021.2.3,59.929726402533156,
304.0,304.75,10,0.75,Stimuli/P008/sun_bdekcgnlcicvgpvq.jpg,0,0.0,0.0,0,130,130,130,,,,,,,,,,,,,304.01771329999974,0.01771329999974114,None,349.254277,349.254277,349.254277,349.254277,349.254277,349.254277,349.254277,349.254277,349.254277,349.254277,,009,P008,2025_Feb_01_1231,ConditionRich,2021.2.3,59.929726402533156,
304.75,308.0,41,0.0,Stimuli/Blank.png,1,0.25,1.0,0,131,131,131,,,,,,,,,,,,,304.75242380000054,0.002423800000542542,2,349.98825639999995,349.98825639999995,349.98825639999995,349.98825639999995,349.98825639999995,349.98825639999995,350.22184150000066,350.97248410000066,349.98825639999995,349.98825639999995,0.5877488000005542,009,P008,2025_Feb_01_1231,ConditionRich,2021.2.3,59.929726402533156,
308.0,308.75,40,0.75,Stimuli/P008/things_woman_04s.jpg,0,0.0,0.0,0,132,132,132,,,,,,,,,,,,,308.00454870000067,0.0045487000006687595,None,353.24118500000077,353.24118500000077,353.24118500000077,353.24118500000077,353.24118500000077,353.24118500000077,353.24118500000077,353.24118500000077,353.24118500000077,353.24118500000077,,009,P008,2025_Feb_01_1231,ConditionRich,2021.2.3,59.929726402533156,
308.75,312.0,41,0.0,Stimuli/Blank.png,0,0.0,0.0,0,133,133,133,,,,,,,,,,,,,308.75504720000026,0.005047200000262819,None,353.99180650000017,353.99180650000017,353.99180650000017,353.99180650000017,353.99180650000017,353.99180650000017,353.99180650000017,353.99180650000017,353.99180650000017,353.99180650000017,,009,P008,2025_Feb_01_1231,ConditionRich,2021.2.3,59.929726402533156,
312.0,312.75,3,0.75,Stimuli/P008/sun_aueftjhdwnvkbzlt.jpg,0,0.0,0.0,0,134,134,134,,,,,,,,,,,,,312.00809280000067,0.008092800000667921,None,357.2446729000003,357.2446729000003,357.2446729000003,357.2446729000003,357.2446729000003,357.2446729000003,357.2446729000003,357.2446729000003,357.2446729000003,357.2446729000003,,009,P008,2025_Feb_01_1231,ConditionRich,2021.2.3,59.929726402533156,
312.75,316.0,41,0.0,Stimuli/Blank.png,0,0.0,0.0,0,135,135,135,,,,,,,,,,,,,312.75891460000094,0.008914600000935025,None,357.995335900001,357.995335900001,357.995335900001,357.995335900001,357.995335900001,357.995335900001,357.995335900001,357.995335900001,357.995335900001,357.995335900001,,009,P008,2025_Feb_01_1231,ConditionRich,2021.2.3,59.929726402533156,
316.0,316.75,28,0.75,Stimuli/P008/things_girl_04s.jpg,0,0.0,0.0,0,136,136,136,,,,,,,,,,,,,316.0123045,0.012304500000027474,None,361.2648898000007,361.2648898000007,361.2648898000007,361.2648898000007,361.2648898000007,361.2648898000007,361.2648898000007,361.2648898000007,361.2648898000007,361.2648898000007,,009,P008,2025_Feb_01_1231,ConditionRich,2021.2.3,59.929726402533156,
316.75,320.0,41,0.0,Stimuli/Blank.png,0,0.0,0.0,0,137,137,137,,,,,,,,,,,,,316.7788354000004,0.0288354000003892,None,362.0155386000006,362.0155386000006,362.0155386000006,362.0155386000006,362.0155386000006,362.0155386000006,362.0155386000006,362.0155386000006,362.0155386000006,362.0155386000006,,009,P008,2025_Feb_01_1231,ConditionRich,2021.2.3,59.929726402533156,
320.0,320.75,15,0.75,Stimuli/P008/sun_bmeductqpfkygtww.jpg,0,0.0,0.0,0,138,138,138,,,,,,,,,,,,,320.0149667000005,0.01496670000051381,None,365.2517512000013,365.2517512000013,365.2517512000013,365.2517512000013,365.2517512000013,365.2517512000013,365.2517512000013,365.2517512000013,365.2517512000013,365.2517512000013,,009,P008,2025_Feb_01_1231,ConditionRich,2021.2.3,59.929726402533156,
320.75,324.0,41,0.0,Stimuli/Blank.png,0,0.0,0.0,0,139,139,139,,,,,,,,,,,,,320.76779010000064,0.01779010000063863,None,366.0191165000015,366.0191165000015,366.0191165000015,366.0191165000015,366.0191165000015,366.0191165000015,366.0191165000015,366.0191165000015,366.0191165000015,366.0191165000015,,009,P008,2025_Feb_01_1231,ConditionRich,2021.2.3,59.929726402533156,
324.0,324.75,31,0.75,Stimuli/P008/things_jug_04s.jpg,0,0.0,0.0,0,140,140,140,,,,,,,,,,,,,324.0186398000005,0.01863980000052834,None,369.25529780000033,369.25529780000033,369.25529780000033,369.25529780000033,369.25529780000033,369.25529780000033,369.25529780000033,369.25529780000033,369.25529780000033,369.25529780000033,,009,P008,2025_Feb_01_1231,ConditionRich,2021.2.3,59.929726402533156,
324.75,328.0,41,0.0,Stimuli/Blank.png,0,0.0,0.0,0,141,141,141,,,,,,,,,,,,,324.7533621999992,0.003362199999173754,None,369.9892789000005,369.9892789000005,369.9892789000005,369.9892789000005,369.9892789000005,369.9892789000005,369.9892789000005,369.9892789000005,369.9892789000005,369.9892789000005,,009,P008,2025_Feb_01_1231,ConditionRich,2021.2.3,59.929726402533156,
328.0,328.75,25,0.75,Stimuli/P008/things_credit_card_04s.jpg,0,0.0,0.0,0,142,142,142,,,,,,,,,,,,,328.00621990000036,0.006219900000360212,None,373.24217320000025,373.24217320000025,373.24217320000025,373.24217320000025,373.24217320000025,373.24217320000025,373.24217320000025,373.24217320000025,373.24217320000025,373.24217320000025,,009,P008,2025_Feb_01_1231,ConditionRich,2021.2.3,59.929726402533156,
328.75,332.0,41,0.0,Stimuli/Blank.png,0,0.0,0.0,0,143,143,143,,,,,,,,,,,,,328.75614250000035,0.006142500000350992,None,373.9928266000006,373.9928266000006,373.9928266000006,373.9928266000006,373.9928266000006,373.9928266000006,373.9928266000006,373.9928266000006,373.9928266000006,373.9928266000006,,009,P008,2025_Feb_01_1231,ConditionRich,2021.2.3,59.929726402533156,
332.0,332.75,26,0.75,Stimuli/P008/things_face_04s.jpg,0,0.0,0.0,0,144,144,144,,,,,,,,,,,,,332.00965990000077,0.009659900000769994,None,377.24569540000084,377.24569540000084,377.24569540000084,377.24569540000084,377.24569540000084,377.24569540000084,377.24569540000084,377.24569540000084,377.24569540000084,377.24569540000084,,009,P008,2025_Feb_01_1231,ConditionRich,2021.2.3,59.929726402533156,
332.75,336.0,41,0.0,Stimuli/Blank.png,0,0.0,0.0,0,145,145,145,,,,,,,,,,,,,332.75963950000005,0.009639500000048429,None,377.99636100000134,377.99636100000134,377.99636100000134,377.99636100000134,377.99636100000134,377.99636100000134,377.99636100000134,377.99636100000134,377.99636100000134,377.99636100000134,,009,P008,2025_Feb_01_1231,ConditionRich,2021.2.3,59.929726402533156,
336.0,336.75,16,0.75,Stimuli/P008/sun_bnpggenxuowzsywq.jpg,0,0.0,0.0,0,146,146,146,,,,,,,,,,,,,336.01317890000064,0.01317890000063926,None,381.2492405000012,381.2492405000012,381.2492405000012,381.2492405000012,381.2492405000012,381.2492405000012,381.2492405000012,381.2492405000012,381.2492405000012,381.2492405000012,,009,P008,2025_Feb_01_1231,ConditionRich,2021.2.3,59.929726402533156,
336.75,340.0,41,0.0,Stimuli/Blank.png,0,0.0,0.0,0,147,147,147,,,,,,,,,,,,,336.7632859000005,0.013285900000482798,None,381.99989800000003,381.99989800000003,381.99989800000003,381.99989800000003,381.99989800000003,381.99989800000003,381.99989800000003,381.99989800000003,381.99989800000003,381.99989800000003,,009,P008,2025_Feb_01_1231,ConditionRich,2021.2.3,59.929726402533156,
340.0,340.75,22,0.75,Stimuli/P008/things_boar_04s.jpg,0,0.0,0.0,0,148,148,148,,,,,,,,,,,,,340.0001174000008,0.0001174000008177245,None,385.23609790000046,385.23609790000046,385.23609790000046,385.23609790000046,385.23609790000046,385.23609790000046,385.23609790000046,385.23609790000046,385.23609790000046,385.23609790000046,,009,P008,2025_Feb_01_1231,ConditionRich,2021.2.3,59.929726402533156,
340.75,344.0,41,0.0,Stimuli/Blank.png,0,0.0,0.0,0,149,149,149,,,,,,,,,,,,,340.75289130000056,0.0028913000005559297,None,386.0034473000014,386.0034473000014,386.0034473000014,386.0034473000014,386.0034473000014,386.0034473000014,386.0034473000014,386.0034473000014,386.0034473000014,386.0034473000014,,009,P008,2025_Feb_01_1231,ConditionRich,2021.2.3,59.929726402533156,
344.0,344.75,30,0.75,Stimuli/P008/things_jalapeno_04s.jpg,0,0.0,0.0,0,150,150,150,,,,,,,,,,,,,344.0219414000003,0.021941400000287103,None,389.27315930000077,389.27315930000077,389.27315930000077,389.27315930000077,389.27315930000077,389.27315930000077,389.27315930000077,389.27315930000077,389.27315930000077,389.27315930000077,,009,P008,2025_Feb_01_1231,ConditionRich,2021.2.3,59.929726402533156,
344.75,348.0,41,0.0,Stimuli/Blank.png,1,0.25,1.0,0,151,151,151,,,,,,,,,,,,,344.7719171000008,0.021917100000791834,2,390.0069971000012,390.0069971000012,390.0069971000012,390.0069971000012,390.0069971000012,390.0069971000012,390.24056660000133,390.9911774000011,390.0069971000012,390.0069971000012,0.675245200000063,009,P008,2025_Feb_01_1231,ConditionRich,2021.2.3,59.929726402533156,
348.0,348.75,12,0.75,Stimuli/P008/sun_bitpmyvulluuasab.jpg,0,0.0,0.0,0,152,152,152,,,,,,,,,,,,,348.00685899999917,0.006858999999167281,None,393.24317990000054,393.24317990000054,393.24317990000054,393.24317990000054,393.24317990000054,393.24317990000054,393.24317990000054,393.24317990000054,393.24317990000054,393.24317990000054,,009,P008,2025_Feb_01_1231,ConditionRich,2021.2.3,59.929726402533156,
348.75,352.0,41,0.0,Stimuli/Blank.png,1,2.25,3.0,0,153,153,153,,,,,,,,,,,,,348.7578613000005,0.007861300000513438,2,393.99384980000104,393.99384980000104,393.99384980000104,393.99384980000104,393.99384980000104,393.99384980000104,396.22916030000124,396.9798539000003,393.99384980000104,393.99384980000104,2.599220400001286,009,P008,2025_Feb_01_1231,ConditionRich,2021.2.3,59.929726402533156,
352.0,352.75,13,0.75,Stimuli/P008/sun_bkhuvtsqontzwtbo.jpg,0,0.0,0.0,0,154,154,154,,,,,,,,,,,,,352.01006980000057,0.01006980000056501,None,397.24671860000126,397.24671860000126,397.24671860000126,397.24671860000126,397.24671860000126,397.24671860000126,397.24671860000126,397.24671860000126,397.24671860000126,397.24671860000126,,009,P008,2025_Feb_01_1231,ConditionRich,2021.2.3,59.929726402533156,
352.75,356.0,41,0.0,Stimuli/Blank.png,0,0.0,0.0,0,155,155,155,,,,,,,,,,,,,352.7629118999994,0.012911899999380694,None,398.0140728000006,398.0140728000006,398.0140728000006,398.0140728000006,398.0140728000006,398.0140728000006,398.0140728000006,398.0140728000006,398.0140728000006,398.0140728000006,,009,P008,2025_Feb_01_1231,ConditionRich,2021.2.3,59.929726402533156,
356.0,356.75,33,0.75,Stimuli/P008/things_man_04s.jpg,0,0.0,0.0,0,156,156,156,,,,,,,,,,,,,356.0144479999999,0.014447999999902095,None,401.2502617000009,401.2502617000009,401.2502617000009,401.2502617000009,401.2502617000009,401.2502617000009,401.2502617000009,401.2502617000009,401.2502617000009,401.2502617000009,,009,P008,2025_Feb_01_1231,ConditionRich,2021.2.3,59.929726402533156,
356.75,360.0,41,0.0,Stimuli/Blank.png,0,0.0,0.0,0,157,157,157,,,,,,,,,,,,,356.7649093,0.014909299999999348,None,402.0009269000002,402.0009269000002,402.0009269000002,402.0009269000002,402.0009269000002,402.0009269000002,402.0009269000002,402.0009269000002,402.0009269000002,402.0009269000002,,009,P008,2025_Feb_01_1231,ConditionRich,2021.2.3,59.929726402533156,
360.0,360.75,39,0.75,Stimuli/P008/things_showerhead_04s.jpg,0,0.0,0.0,0,158,158,158,,,,,,,,,,,,,360.00263280000036,0.002632800000355928,None,405.25380700000096,405.25380700000096,405.25380700000096,405.25380700000096,405.25380700000096,405.25380700000096,405.25380700000096,405.25380700000096,405.25380700000096,405.25380700000096,,009,P008,2025_Feb_01_1231,ConditionRich,2021.2.3,59.929726402533156,
360.75,364.0,41,0.0,Stimuli/Blank.png,0,0.0,0.0,0,159,159,159,,,,,,,,,,,,,360.76785910000035,0.017859100000350736,None,406.00446360000024,406.00446360000024,406.00446360000024,406.00446360000024,406.00446360000024,406.00446360000024,406.00446360000024,406.00446360000024,406.00446360000024,406.00446360000024,,009,P008,2025_Feb_01_1231,ConditionRich,2021.2.3,59.929726402533156,
364.0,364.75,19,0.75,Stimuli/P008/sun_brpfgrmubnnjvfkw.jpg,0,0.0,0.0,0,160,160,160,,,,,,,,,,,,,364.00492640000084,0.004926400000840658,None,409.2573486000001,409.2573486000001,409.2573486000001,409.2573486000001,409.2573486000001,409.2573486000001,409.2573486000001,409.2573486000001,409.2573486000001,409.2573486000001,,009,P008,2025_Feb_01_1231,ConditionRich,2021.2.3,59.929726402533156,
364.75,368.0,41,0.0,Stimuli/Blank.png,0,0.0,0.0,0,161,161,161,,,,,,,,,,,,,364.77200769999945,0.02200769999944896,None,410.00800880000133,410.00800880000133,410.00800880000133,410.00800880000133,410.00800880000133,410.00800880000133,410.00800880000133,410.00800880000133,410.00800880000133,410.00800880000133,,009,P008,2025_Feb_01_1231,ConditionRich,2021.2.3,59.929726402533156,
368.0,368.75,7,0.75,Stimuli/P008/sun_babhwrqvnhanonuy.jpg,0,0.0,0.0,0,162,162,162,,,,,,,,,,,,,368.00939409999955,0.009394099999553873,None,413.2609041000014,413.2609041000014,413.2609041000014,413.2609041000014,413.2609041000014,413.2609041000014,413.2609041000014,413.2609041000014,413.2609041000014,413.2609041000014,,009,P008,2025_Feb_01_1231,ConditionRich,2021.2.3,59.929726402533156,
368.75,372.0,41,0.0,Stimuli/Blank.png,1,2.25,3.0,0,163,163,163,,,,,,,,,,,,,368.77759420000075,0.02759420000074897,2,414.02825850000045,414.02825850000045,414.02825850000045,414.02825850000045,414.02825850000045,414.02825850000045,416.2635414000015,417.0141758999998,414.02825850000045,414.02825850000045,2.6979855000008683,009,P008,2025_Feb_01_1231,ConditionRich,2021.2.3,59.929726402533156,
372.0,388.0,0,0.0,Stimuli/Blank.png,1,9.0,9.75,0,164,164,164,,,,,,,,,,,,,372.0290299999997,0.029029999999693246,2,417.2644336000012,417.2644336000012,417.2644336000012,417.2644336000012,417.2644336000012,417.2644336000012,426.2557506000012,427.00641170000017,417.2644336000012,417.2644336000012,9.376628900001378,009,P008,2025_Feb_01_1231,ConditionRich,2021.2.3,59.929726402533156,
