eventStartTime,eventEndTime,eventCond,imSize,imFile,responseEvent,fixRespStart,fixRespEnd,Events.thisRepN,Events.thisTrialN,Events.thisN,Events.thisIndex,Instructions.started,Instructions.stopped,participantReadyResponse.keys,participantReadyResponse.rt,participantReadyResponse.started,participantReadyResponse.stopped,startWaitforTrigger,triggerResponse.keys,triggerResponse.rt,triggerResponse.started,triggerResponse.stopped,globalTimer,actualStartTime,startTimingDiff,participantResponse.keys,participantResponse.started,participantResponse.stopped,image.started,image.stopped,fixationOutside.started,fixationOutside.stopped,fixationResponse.started,fixationResponse.stopped,fixationInside.started,fixationInside.stopped,participantResponse.rt,session,participant,date,expName,psychopyVersion,frameRate,
,,,,,,,,,,,,11.155524899999364,None,2,4.254890899999737,11.155524899999364,None,,,,,,,,,,,,,,,,,,,,,002,P008,2025_Feb_01_1127,ConditionRich,2021.2.3,59.95024129945178,
,,,,,,,,,,,,,,,,,,15.427769300000364,5,15.262473000000682,15.440806099999463,None,,,,,,,,,,,,,,,,002,P008,2025_Feb_01_1127,ConditionRich,2021.2.3,59.95024129945178,
0.0,4.0,0,0.0,Stimuli/Blank.png,0,0,0.0,0,0,0,0,,,,,,,,,,,,30.707596599999306,0.034555800000816816,0.034555800000816816,None,30.75431109999954,None,30.75431109999954,None,30.75431109999954,None,30.75431109999954,30.75431109999954,30.75431109999954,None,,002,P008,2025_Feb_01_1127,ConditionRich,2021.2.3,59.95024129945178,
4.0,7.75,39,0.75,Stimuli/P008/things_showerhead_04s.jpg,0,0,0.0,0,1,1,1,,,,,,,,,,,,,4.006543000001329,0.0065430000013293466,None,34.74149699999907,34.74149699999907,34.74149699999907,34.74149699999907,34.74149699999907,34.74149699999907,34.74149699999907,34.74149699999907,34.74149699999907,34.74149699999907,,002,P008,2025_Feb_01_1127,ConditionRich,2021.2.3,59.95024129945178,
7.75,8.0,41,0.0,Stimuli/Blank.png,0,0,0.0,0,2,2,2,,,,,,,,,,,,,7.774636800000735,0.024636800000735093,None,38.51147769999989,38.51147769999989,38.51147769999989,38.51147769999989,38.51147769999989,38.51147769999989,38.51147769999989,38.51147769999989,38.51147769999989,38.51147769999989,,002,P008,2025_Feb_01_1127,ConditionRich,2021.2.3,59.95024129945178,
8.0,11.75,34,0.75,Stimuli/P008/things_moose_04s.jpg,0,0,0.0,0,3,3,3,,,,,,,,,,,,,8.023426600000676,0.023426600000675535,None,38.761401699999624,38.761401699999624,38.761401699999624,38.761401699999624,38.761401699999624,38.761401699999624,38.761401699999624,38.761401699999624,38.761401699999624,38.761401699999624,,002,P008,2025_Feb_01_1127,ConditionRich,2021.2.3,59.95024129945178,
11.75,12.0,41,0.0,Stimuli/Blank.png,0,0,0.0,0,4,4,4,,,,,,,,,,,,,11.776613600000928,0.026613600000928272,None,42.498114899999564,42.498114899999564,42.498114899999564,42.498114899999564,42.498114899999564,42.498114899999564,42.498114899999564,42.498114899999564,42.498114899999564,42.498114899999564,,002,P008,2025_Feb_01_1127,ConditionRich,2021.2.3,59.95024129945178,
12.0,15.75,3,0.75,Stimuli/P008/sun_aueftjhdwnvkbzlt.jpg,0,0,0.0,0,5,5,5,,,,,,,,,,,,,12.00994560000072,0.009945600000719423,None,42.73157429999992,42.73157429999992,42.73157429999992,42.73157429999992,42.73157429999992,42.73157429999992,42.73157429999992,42.73157429999992,42.73157429999992,42.73157429999992,,002,P008,2025_Feb_01_1127,ConditionRich,2021.2.3,59.95024129945178,
15.75,16.0,41,0.0,Stimuli/Blank.png,0,0,0.0,0,6,6,6,,,,,,,,,,,,,15.764686000000438,0.01468600000043807,None,46.50158019999981,46.50158019999981,46.50158019999981,46.50158019999981,46.50158019999981,46.50158019999981,46.50158019999981,46.50158019999981,46.50158019999981,46.50158019999981,,002,P008,2025_Feb_01_1127,ConditionRich,2021.2.3,59.95024129945178,
16.0,19.75,20,0.75,Stimuli/P008/sun_btrxtfbwtggtrpfv.jpg,0,0,0.0,0,7,7,7,,,,,,,,,,,,,16.030286400000477,0.030286400000477443,None,46.7517900999992,46.7517900999992,46.7517900999992,46.7517900999992,46.7517900999992,46.7517900999992,46.7517900999992,46.7517900999992,46.7517900999992,46.7517900999992,,002,P008,2025_Feb_01_1127,ConditionRich,2021.2.3,59.95024129945178,
19.75,20.0,41,0.0,Stimuli/Blank.png,0,0,0.0,0,8,8,8,,,,,,,,,,,,,19.749502500000744,-0.000497499999255524,None,50.47172099999989,50.47172099999989,50.47172099999989,50.47172099999989,50.47172099999989,50.47172099999989,50.47172099999989,50.47172099999989,50.47172099999989,50.47172099999989,,002,P008,2025_Feb_01_1127,ConditionRich,2021.2.3,59.95024129945178,
20.0,23.75,23,0.75,Stimuli/P008/things_bumper_04s.jpg,0,0,0.0,0,9,9,9,,,,,,,,,,,,,19.999890200000664,-0.0001097999993362464,None,50.721933299999364,50.721933299999364,50.721933299999364,50.721933299999364,50.721933299999364,50.721933299999364,50.721933299999364,50.721933299999364,50.721933299999364,50.721933299999364,,002,P008,2025_Feb_01_1127,ConditionRich,2021.2.3,59.95024129945178,
23.75,24.0,41,0.0,Stimuli/Blank.png,0,0,0.0,0,10,10,10,,,,,,,,,,,,,23.753337400001328,0.0033374000013282057,None,54.475290000000314,54.475290000000314,54.475290000000314,54.475290000000314,54.475290000000314,54.475290000000314,54.475290000000314,54.475290000000314,54.475290000000314,54.475290000000314,,002,P008,2025_Feb_01_1127,ConditionRich,2021.2.3,59.95024129945178,
24.0,27.75,36,0.75,Stimuli/P008/things_platypus_04s.jpg,0,0,0.0,0,11,11,11,,,,,,,,,,,,,24.005009399999835,0.005009399999835296,None,54.7421875,54.7421875,54.7421875,54.7421875,54.7421875,54.7421875,54.7421875,54.7421875,54.7421875,54.7421875,,002,P008,2025_Feb_01_1127,ConditionRich,2021.2.3,59.95024129945178,
27.75,28.0,41,0.0,Stimuli/Blank.png,0,0,0.0,0,12,12,12,,,,,,,,,,,,,27.77415420000034,0.024154200000339188,None,58.49552170000061,58.49552170000061,58.49552170000061,58.49552170000061,58.49552170000061,58.49552170000061,58.49552170000061,58.49552170000061,58.49552170000061,58.49552170000061,,002,P008,2025_Feb_01_1127,ConditionRich,2021.2.3,59.95024129945178,
28.0,31.75,28,0.75,Stimuli/P008/things_girl_04s.jpg,0,0,0.0,0,13,13,13,,,,,,,,,,,,,28.007199700001365,0.007199700001365272,None,58.745739899999535,58.745739899999535,58.745739899999535,58.745739899999535,58.745739899999535,58.745739899999535,58.745739899999535,58.745739899999535,58.745739899999535,58.745739899999535,,002,P008,2025_Feb_01_1127,ConditionRich,2021.2.3,59.95024129945178,
31.75,32.0,41,0.0,Stimuli/Blank.png,0,0,0.0,0,14,14,14,,,,,,,,,,,,,31.77681660000053,0.026816600000529434,None,62.49905089999993,62.49905089999993,62.49905089999993,62.49905089999993,62.49905089999993,62.49905089999993,62.49905089999993,62.49905089999993,62.49905089999993,62.49905089999993,,002,P008,2025_Feb_01_1127,ConditionRich,2021.2.3,59.95024129945178,
32.0,35.75,4,0.75,Stimuli/P008/sun_awqukazlzsxaokai.jpg,1,3,3.75,0,15,15,15,,,,,,,,,,,,,32.01037660000111,0.010376600001109182,2,62.73259440000038,62.73259440000038,62.73259440000038,62.73259440000038,62.73259440000038,62.73259440000038,65.71857909999926,66.46922119999908,62.73259440000038,62.73259440000038,3.410778700001174,002,P008,2025_Feb_01_1127,ConditionRich,2021.2.3,59.95024129945178,
35.75,36.0,41,0.0,Stimuli/Blank.png,0,0,0.0,0,16,16,16,,,,,,,,,,,,,35.76388870000119,0.013888700001189136,None,66.4859092000006,66.4859092000006,66.4859092000006,66.4859092000006,66.4859092000006,66.4859092000006,66.4859092000006,66.4859092000006,66.4859092000006,66.4859092000006,,002,P008,2025_Feb_01_1127,ConditionRich,2021.2.3,59.95024129945178,
36.0,39.75,17,0.75,Stimuli/P008/sun_bnsxdhbsafbdyncy.jpg,0,0,0.0,0,17,17,17,,,,,,,,,,,,,36.01389350000136,0.013893500001358916,None,66.73614499999894,66.73614499999894,66.73614499999894,66.73614499999894,66.73614499999894,66.73614499999894,66.73614499999894,66.73614499999894,66.73614499999894,66.73614499999894,,002,P008,2025_Feb_01_1127,ConditionRich,2021.2.3,59.95024129945178,
39.75,40.0,41,0.0,Stimuli/Blank.png,0,0,0.0,0,18,18,18,,,,,,,,,,,,,39.751557700001285,0.0015577000012854114,None,70.47278349999942,70.47278349999942,70.47278349999942,70.47278349999942,70.47278349999942,70.47278349999942,70.47278349999942,70.47278349999942,70.47278349999942,70.47278349999942,,002,P008,2025_Feb_01_1127,ConditionRich,2021.2.3,59.95024129945178,
40.0,43.75,32,0.75,Stimuli/P008/things_maggot_04s.jpg,1,0,0.75,0,19,19,19,,,,,,,,,,,,,40.00104350000038,0.001043500000378117,2,70.73968049999894,70.73968049999894,70.73968049999894,70.73968049999894,70.73968049999894,70.73968049999894,70.73968049999894,71.45700980000038,70.73968049999894,70.73968049999894,0.33283269999992626,002,P008,2025_Feb_01_1127,ConditionRich,2021.2.3,59.95024129945178,
43.75,44.0,41,0.0,Stimuli/Blank.png,0,0,0.0,0,20,20,20,,,,,,,,,,,,,43.77100150000115,0.021001500001148088,None,74.49297169999954,74.49297169999954,74.49297169999954,74.49297169999954,74.49297169999954,74.49297169999954,74.49297169999954,74.49297169999954,74.49297169999954,74.49297169999954,,002,P008,2025_Feb_01_1127,ConditionRich,2021.2.3,59.95024129945178,
44.0,47.75,9,0.75,Stimuli/P008/sun_bcsqogieozpyvuft.jpg,0,0,0.0,0,21,21,21,,,,,,,,,,,,,44.00498570000127,0.004985700001270743,None,74.72650210000029,74.72650210000029,74.72650210000029,74.72650210000029,74.72650210000029,74.72650210000029,74.72650210000029,74.72650210000029,74.72650210000029,74.72650210000029,,002,P008,2025_Feb_01_1127,ConditionRich,2021.2.3,59.95024129945178,
47.75,48.0,41,0.0,Stimuli/Blank.png,0,0,0.0,0,22,22,22,,,,,,,,,,,,,47.75977950000015,0.00977950000014971,None,78.49653869999929,78.49653869999929,78.49653869999929,78.49653869999929,78.49653869999929,78.49653869999929,78.49653869999929,78.49653869999929,78.49653869999929,78.49653869999929,,002,P008,2025_Feb_01_1127,ConditionRich,2021.2.3,59.95024129945178,
48.0,51.75,8,0.75,Stimuli/P008/sun_bbnepvzvycqjjczs.jpg,1,3,3.75,0,23,23,23,,,,,,,,,,,,,48.02468820000104,0.02468820000103733,2,78.74675550000029,78.74675550000029,78.74675550000029,78.74675550000029,78.74675550000029,78.74675550000029,81.73278819999905,None,78.74675550000029,78.74675550000029,3.312702299999728,002,P008,2025_Feb_01_1127,ConditionRich,2021.2.3,59.95024129945178,
51.75,52.0,41,0.0,Stimuli/Blank.png,0,0,0.0,0,24,24,24,,,,,,,,,,,,,51.761319500001264,0.011319500001263805,None,82.483399499999,82.483399499999,82.483399499999,82.483399499999,82.483399499999,82.483399499999,82.483399499999,82.483399499999,82.483399499999,82.483399499999,,002,P008,2025_Feb_01_1127,ConditionRich,2021.2.3,59.95024129945178,
52.0,55.75,18,0.75,Stimuli/P008/sun_borgfidyubrwsuuw.jpg,0,0,0.0,0,25,25,25,,,,,,,,,,,,,52.01137520000157,0.011375200001566554,None,82.73362579999957,82.73362579999957,82.73362579999957,82.73362579999957,82.73362579999957,82.73362579999957,82.73362579999957,82.73362579999957,82.73362579999957,82.73362579999957,,002,P008,2025_Feb_01_1127,ConditionRich,2021.2.3,59.95024129945178,
55.75,56.0,41,0.0,Stimuli/Blank.png,0,0,0.0,0,26,26,26,,,,,,,,,,,,,55.764764900000955,0.014764900000955095,None,86.48694459999933,86.48694459999933,86.48694459999933,86.48694459999933,86.48694459999933,86.48694459999933,86.48694459999933,86.48694459999933,86.48694459999933,86.48694459999933,,002,P008,2025_Feb_01_1127,ConditionRich,2021.2.3,59.95024129945178,
56.0,59.75,26,0.75,Stimuli/P008/things_face_04s.jpg,0,0,0.0,0,27,27,27,,,,,,,,,,,,,56.015367900001365,0.015367900001365342,None,86.73716310000054,86.73716310000054,86.73716310000054,86.73716310000054,86.73716310000054,86.73716310000054,86.73716310000054,86.73716310000054,86.73716310000054,86.73716310000054,,002,P008,2025_Feb_01_1127,ConditionRich,2021.2.3,59.95024129945178,
59.75,60.0,41,0.0,Stimuli/Blank.png,0,0,0.0,0,28,28,28,,,,,,,,,,,,,59.752352299999984,0.0023522999999840977,None,90.473812799999,90.473812799999,90.473812799999,90.473812799999,90.473812799999,90.473812799999,90.473812799999,90.473812799999,90.473812799999,90.473812799999,,002,P008,2025_Feb_01_1127,ConditionRich,2021.2.3,59.95024129945178,
60.0,63.75,33,0.75,Stimuli/P008/things_man_04s.jpg,1,1,1.75,0,29,29,29,,,,,,,,,,,,,60.00473890000103,0.004738900001029833,2,90.74070729999949,90.74070729999949,90.74070729999949,90.74070729999949,90.74070729999949,90.74070729999949,91.72492860000057,92.47556869999971,90.74070729999949,90.74070729999949,1.3958844000007957,002,P008,2025_Feb_01_1127,ConditionRich,2021.2.3,59.95024129945178,
63.75,64.0,41,0.0,Stimuli/Blank.png,0,0,0.0,0,30,30,30,,,,,,,,,,,,,63.77437310000096,0.024373100000957493,None,94.51070939999954,94.51070939999954,94.51070939999954,94.51070939999954,94.51070939999954,94.51070939999954,94.51070939999954,94.51070939999954,94.51070939999954,94.51070939999954,,002,P008,2025_Feb_01_1127,ConditionRich,2021.2.3,59.95024129945178,
64.0,67.75,19,0.75,Stimuli/P008/sun_brpfgrmubnnjvfkw.jpg,0,0,0.0,0,31,31,31,,,,,,,,,,,,,64.02472930000113,0.02472930000112683,None,94.76093199999923,94.76093199999923,94.76093199999923,94.76093199999923,94.76093199999923,94.76093199999923,94.76093199999923,94.76093199999923,94.76093199999923,94.76093199999923,,002,P008,2025_Feb_01_1127,ConditionRich,2021.2.3,59.95024129945178,
67.75,68.0,41,0.0,Stimuli/Blank.png,0,0,0.0,0,32,32,32,,,,,,,,,,,,,67.77546320000147,0.025463200001468067,None,98.4975701000003,98.4975701000003,98.4975701000003,98.4975701000003,98.4975701000003,98.4975701000003,98.4975701000003,98.4975701000003,98.4975701000003,98.4975701000003,,002,P008,2025_Feb_01_1127,ConditionRich,2021.2.3,59.95024129945178,
68.0,71.75,30,0.75,Stimuli/P008/things_jalapeno_04s.jpg,0,0,0.0,0,33,33,33,,,,,,,,,,,,,68.00940790000095,0.009407900000951486,None,98.73110059999999,98.73110059999999,98.73110059999999,98.73110059999999,98.73110059999999,98.73110059999999,98.73110059999999,98.73110059999999,98.73110059999999,98.73110059999999,,002,P008,2025_Feb_01_1127,ConditionRich,2021.2.3,59.95024129945178,
71.75,72.0,41,0.0,Stimuli/Blank.png,0,0,0.0,0,34,34,34,,,,,,,,,,,,,71.76446829999986,0.01446829999986221,None,102.50109960000009,102.50109960000009,102.50109960000009,102.50109960000009,102.50109960000009,102.50109960000009,102.50109960000009,102.50109960000009,102.50109960000009,102.50109960000009,,002,P008,2025_Feb_01_1127,ConditionRich,2021.2.3,59.95024129945178,
72.0,75.75,13,0.75,Stimuli/P008/sun_bkhuvtsqontzwtbo.jpg,0,0,0.0,0,35,35,35,,,,,,,,,,,,,72.02986600000077,0.02986600000076578,None,102.75132350000058,102.75132350000058,102.75132350000058,102.75132350000058,102.75132350000058,102.75132350000058,102.75132350000058,102.75132350000058,102.75132350000058,102.75132350000058,,002,P008,2025_Feb_01_1127,ConditionRich,2021.2.3,59.95024129945178,
75.75,76.0,41,0.0,Stimuli/Blank.png,0,0,0.0,0,36,36,36,,,,,,,,,,,,,75.74994570000126,-5.4299998737405986e-05,None,106.47128949999933,106.47128949999933,106.47128949999933,106.47128949999933,106.47128949999933,106.47128949999933,106.47128949999933,106.47128949999933,106.47128949999933,106.47128949999933,,002,P008,2025_Feb_01_1127,ConditionRich,2021.2.3,59.95024129945178,
76.0,79.75,2,0.75,Stimuli/P008/sun_ajyzloqaptmicnfr.jpg,0,0,0.0,0,37,37,37,,,,,,,,,,,,,75.99994200000037,-5.79999996261904e-05,None,106.72146090000024,106.72146090000024,106.72146090000024,106.72146090000024,106.72146090000024,106.72146090000024,106.72146090000024,106.72146090000024,106.72146090000024,106.72146090000024,,002,P008,2025_Feb_01_1127,ConditionRich,2021.2.3,59.95024129945178,
79.75,80.0,41,0.0,Stimuli/Blank.png,0,0,0.0,0,38,38,38,,,,,,,,,,,,,79.75542980000137,0.0054298000013659475,None,110.49151039999924,110.49151039999924,110.49151039999924,110.49151039999924,110.49151039999924,110.49151039999924,110.49151039999924,110.49151039999924,110.49151039999924,110.49151039999924,,002,P008,2025_Feb_01_1127,ConditionRich,2021.2.3,59.95024129945178,
80.0,83.75,11,0.75,Stimuli/P008/sun_bdsriuscubkvzrmt.jpg,0,0,0.0,0,39,39,39,,,,,,,,,,,,,80.02049830000033,0.020498300000326708,None,110.75840549999884,110.75840549999884,110.75840549999884,110.75840549999884,110.75840549999884,110.75840549999884,110.75840549999884,110.75840549999884,110.75840549999884,110.75840549999884,,002,P008,2025_Feb_01_1127,ConditionRich,2021.2.3,59.95024129945178,
83.75,84.0,41,0.0,Stimuli/Blank.png,0,0,0.0,0,40,40,40,,,,,,,,,,,,,83.77300020000075,0.023000200000751647,None,114.4950888000003,114.4950888000003,114.4950888000003,114.4950888000003,114.4950888000003,114.4950888000003,114.4950888000003,114.4950888000003,114.4950888000003,114.4950888000003,,002,P008,2025_Feb_01_1127,ConditionRich,2021.2.3,59.95024129945178,
84.0,100.0,0,0.0,Stimuli/Blank.png,1,10,10.75,0,41,41,41,,,,,,,,,,,,,84.00942470000155,0.009424700001545716,2,114.74526680000054,114.74526680000054,114.74526680000054,114.74526680000054,114.74526680000054,114.74526680000054,124.72076220000054,125.47141609999926,114.74526680000054,114.74526680000054,10.509336499999336,002,P008,2025_Feb_01_1127,ConditionRich,2021.2.3,59.95024129945178,
100.0,103.75,24,0.75,Stimuli/P008/things_collar_04s.jpg,0,0,0.0,0,42,42,42,,,,,,,,,,,,,100.02232560000084,0.022325600000840495,None,130.7427549999993,130.7427549999993,130.7427549999993,130.7427549999993,130.7427549999993,130.7427549999993,130.7427549999993,130.7427549999993,130.7427549999993,130.7427549999993,,002,P008,2025_Feb_01_1127,ConditionRich,2021.2.3,59.95024129945178,
103.75,104.0,41,0.0,Stimuli/Blank.png,0,0,0.0,0,43,43,43,,,,,,,,,,,,,103.75988700000016,0.009887000000162516,None,134.49607319999996,134.49607319999996,134.49607319999996,134.49607319999996,134.49607319999996,134.49607319999996,134.49607319999996,134.49607319999996,134.49607319999996,134.49607319999996,,002,P008,2025_Feb_01_1127,ConditionRich,2021.2.3,59.95024129945178,
104.0,107.75,14,0.75,Stimuli/P008/sun_bkvjqgmploznrhxt.jpg,0,0,0.0,0,44,44,44,,,,,,,,,,,,,104.02399719999994,0.023997199999939767,None,134.7462861999993,134.7462861999993,134.7462861999993,134.7462861999993,134.7462861999993,134.7462861999993,134.7462861999993,134.7462861999993,134.7462861999993,134.7462861999993,,002,P008,2025_Feb_01_1127,ConditionRich,2021.2.3,59.95024129945178,
107.75,108.0,41,0.0,Stimuli/Blank.png,0,0,0.0,0,45,45,45,,,,,,,,,,,,,107.76087010000083,0.010870100000829552,None,138.48293150000063,138.48293150000063,138.48293150000063,138.48293150000063,138.48293150000063,138.48293150000063,138.48293150000063,138.48293150000063,138.48293150000063,138.48293150000063,,002,P008,2025_Feb_01_1127,ConditionRich,2021.2.3,59.95024129945178,
108.0,111.75,31,0.75,Stimuli/P008/things_jug_04s.jpg,1,1,1.75,0,46,46,46,,,,,,,,,,,,,108.01108139999997,0.01108139999996638,2,138.73314769999888,138.73314769999888,138.73314769999888,138.73314769999888,138.73314769999888,138.73314769999888,139.71734599999945,140.46805529999983,138.73314769999888,138.73314769999888,1.4163392999998905,002,P008,2025_Feb_01_1127,ConditionRich,2021.2.3,59.95024129945178,
111.75,112.0,41,0.0,Stimuli/Blank.png,0,0,0.0,0,47,47,47,,,,,,,,,,,,,111.76499640000111,0.014996400001109578,None,142.48648440000034,142.48648440000034,142.48648440000034,142.48648440000034,142.48648440000034,142.48648440000034,142.48648440000034,142.48648440000034,142.48648440000034,142.48648440000034,,002,P008,2025_Feb_01_1127,ConditionRich,2021.2.3,59.95024129945178,
112.0,115.75,29,0.75,Stimuli/P008/things_hawk_04s.jpg,0,0,0.0,0,48,48,48,,,,,,,,,,,,,112.01546440000129,0.015464400001292233,None,142.73669320000045,142.73669320000045,142.73669320000045,142.73669320000045,142.73669320000045,142.73669320000045,142.73669320000045,142.73669320000045,142.73669320000045,142.73669320000045,,002,P008,2025_Feb_01_1127,ConditionRich,2021.2.3,59.95024129945178,
115.75,116.0,41,0.0,Stimuli/Blank.png,0,0,0.0,0,49,49,49,,,,,,,,,,,,,115.75147880000077,0.0014788000007683877,None,146.47333009999966,146.47333009999966,146.47333009999966,146.47333009999966,146.47333009999966,146.47333009999966,146.47333009999966,146.47333009999966,146.47333009999966,146.47333009999966,,002,P008,2025_Feb_01_1127,ConditionRich,2021.2.3,59.95024129945178,
116.0,119.75,21,0.75,Stimuli/P008/things_baby_04s.jpg,0,0,0.0,0,50,50,50,,,,,,,,,,,,,116.00145330000123,0.001453300001230673,2,146.7235743000001,146.7235743000001,146.7235743000001,146.7235743000001,146.7235743000001,146.7235743000001,146.7235743000001,146.7235743000001,146.7235743000001,146.7235743000001,0.31092760000137787,002,P008,2025_Feb_01_1127,ConditionRich,2021.2.3,59.95024129945178,
119.75,120.0,41,0.0,Stimuli/Blank.png,0,0,0.0,0,51,51,51,,,,,,,,,,,,,119.7554880000007,0.005488000000696047,None,150.4769512999992,150.4769512999992,150.4769512999992,150.4769512999992,150.4769512999992,150.4769512999992,150.4769512999992,150.4769512999992,150.4769512999992,150.4769512999992,,002,P008,2025_Feb_01_1127,ConditionRich,2021.2.3,59.95024129945178,
120.0,123.75,37,0.75,Stimuli/P008/things_praying_mantis_04s.jpg,0,0,0.0,0,52,52,52,,,,,,,,,,,,,120.00519410000015,0.005194100000153412,None,150.72710650000045,150.72710650000045,150.72710650000045,150.72710650000045,150.72710650000045,150.72710650000045,150.72710650000045,150.72710650000045,150.72710650000045,150.72710650000045,,002,P008,2025_Feb_01_1127,ConditionRich,2021.2.3,59.95024129945178,
123.75,124.0,41,0.0,Stimuli/Blank.png,0,0,0.0,0,53,53,53,,,,,,,,,,,,,123.7598547000016,0.009854700001596939,None,154.4803807999997,154.4803807999997,154.4803807999997,154.4803807999997,154.4803807999997,154.4803807999997,154.4803807999997,154.4803807999997,154.4803807999997,154.4803807999997,,002,P008,2025_Feb_01_1127,ConditionRich,2021.2.3,59.95024129945178,
124.0,127.75,40,0.75,Stimuli/P008/things_woman_04s.jpg,0,0,0.0,0,54,54,54,,,,,,,,,,,,,124.00916440000037,0.009164400000372552,None,154.73063849999926,154.73063849999926,154.73063849999926,154.73063849999926,154.73063849999926,154.73063849999926,154.73063849999926,154.73063849999926,154.73063849999926,154.73063849999926,,002,P008,2025_Feb_01_1127,ConditionRich,2021.2.3,59.95024129945178,
127.75,128.0,41,0.0,Stimuli/Blank.png,0,0,0.0,0,55,55,55,,,,,,,,,,,,,127.76425999999992,0.014259999999922002,None,158.50064009999915,158.50064009999915,158.50064009999915,158.50064009999915,158.50064009999915,158.50064009999915,158.50064009999915,158.50064009999915,158.50064009999915,158.50064009999915,,002,P008,2025_Feb_01_1127,ConditionRich,2021.2.3,59.95024129945178,
128.0,131.75,22,0.75,Stimuli/P008/things_boar_04s.jpg,0,0,0.0,0,56,56,56,,,,,,,,,,,,,128.02928800000154,0.02928800000154297,None,158.75085670000044,158.75085670000044,158.75085670000044,158.75085670000044,158.75085670000044,158.75085670000044,158.75085670000044,158.75085670000044,158.75085670000044,158.75085670000044,,002,P008,2025_Feb_01_1127,ConditionRich,2021.2.3,59.95024129945178,
131.75,132.0,41,0.0,Stimuli/Blank.png,0,0,0.0,0,57,57,57,,,,,,,,,,,,,131.74964880000152,-0.00035119999847665895,None,162.47083159999966,162.47083159999966,162.47083159999966,162.47083159999966,162.47083159999966,162.47083159999966,162.47083159999966,162.47083159999966,162.47083159999966,162.47083159999966,,002,P008,2025_Feb_01_1127,ConditionRich,2021.2.3,59.95024129945178,
132.0,135.75,27,0.75,Stimuli/P008/things_fur_coat_04s.jpg,0,0,0.0,0,58,58,58,,,,,,,,,,,,,131.9998355000007,-0.00016449999930046033,None,162.72100169999976,162.72100169999976,162.72100169999976,162.72100169999976,162.72100169999976,162.72100169999976,162.72100169999976,162.72100169999976,162.72100169999976,162.72100169999976,,002,P008,2025_Feb_01_1127,ConditionRich,2021.2.3,59.95024129945178,
135.75,136.0,41,0.0,Stimuli/Blank.png,0,0,0.0,0,59,59,59,,,,,,,,,,,,,135.75220550000085,0.002205500000854954,None,166.4744384000005,166.4744384000005,166.4744384000005,166.4744384000005,166.4744384000005,166.4744384000005,166.4744384000005,166.4744384000005,166.4744384000005,166.4744384000005,,002,P008,2025_Feb_01_1127,ConditionRich,2021.2.3,59.95024129945178,
136.0,139.75,35,0.75,Stimuli/P008/things_pecan_04s.jpg,0,0,0.0,0,60,60,60,,,,,,,,,,,,,136.0054809000012,0.005480900001202826,None,166.74125090000052,166.74125090000052,166.74125090000052,166.74125090000052,166.74125090000052,166.74125090000052,166.74125090000052,166.74125090000052,166.74125090000052,166.74125090000052,,002,P008,2025_Feb_01_1127,ConditionRich,2021.2.3,59.95024129945178,
139.75,140.0,41,0.0,Stimuli/Blank.png,0,0,0.0,0,61,61,61,,,,,,,,,,,,,139.77390120000018,0.023901200000182143,None,170.49458389999927,170.49458389999927,170.49458389999927,170.49458389999927,170.49458389999927,170.49458389999927,170.49458389999927,170.49458389999927,170.49458389999927,170.49458389999927,,002,P008,2025_Feb_01_1127,ConditionRich,2021.2.3,59.95024129945178,
140.0,143.75,1,0.75,Stimuli/P008/sun_abrlrupzcrwpxqfc.jpg,0,0,0.0,0,62,62,62,,,,,,,,,,,,,140.00715780000064,0.007157800000641146,None,170.7448275000006,170.7448275000006,170.7448275000006,170.7448275000006,170.7448275000006,170.7448275000006,170.7448275000006,170.7448275000006,170.7448275000006,170.7448275000006,,002,P008,2025_Feb_01_1127,ConditionRich,2021.2.3,59.95024129945178,
143.75,144.0,41,0.0,Stimuli/Blank.png,0,0,0.0,0,63,63,63,,,,,,,,,,,,,143.77662840000085,0.02662840000084543,None,174.4981186999994,174.4981186999994,174.4981186999994,174.4981186999994,174.4981186999994,174.4981186999994,174.4981186999994,174.4981186999994,174.4981186999994,174.4981186999994,,002,P008,2025_Feb_01_1127,ConditionRich,2021.2.3,59.95024129945178,
144.0,147.75,15,0.75,Stimuli/P008/sun_bmeductqpfkygtww.jpg,0,0,0.0,0,64,64,64,,,,,,,,,,,,,144.01017760000104,0.010177600001043174,None,174.73165410000001,174.73165410000001,174.73165410000001,174.73165410000001,174.73165410000001,174.73165410000001,174.73165410000001,174.73165410000001,174.73165410000001,174.73165410000001,,002,P008,2025_Feb_01_1127,ConditionRich,2021.2.3,59.95024129945178,
147.75,148.0,41,0.0,Stimuli/Blank.png,0,0,0.0,0,65,65,65,,,,,,,,,,,,,147.7647936000012,0.014793600001212326,None,178.50166360000003,178.50166360000003,178.50166360000003,178.50166360000003,178.50166360000003,178.50166360000003,178.50166360000003,178.50166360000003,178.50166360000003,178.50166360000003,,002,P008,2025_Feb_01_1127,ConditionRich,2021.2.3,59.95024129945178,
148.0,151.75,25,0.75,Stimuli/P008/things_credit_card_04s.jpg,0,0,0.0,0,66,66,66,,,,,,,,,,,,,148.03037290000066,0.030372900000656955,None,178.75188200000048,178.75188200000048,178.75188200000048,178.75188200000048,178.75188200000048,178.75188200000048,178.75188200000048,178.75188200000048,178.75188200000048,178.75188200000048,,002,P008,2025_Feb_01_1127,ConditionRich,2021.2.3,59.95024129945178,
151.75,152.0,41,0.0,Stimuli/Blank.png,0,0,0.0,0,67,67,67,,,,,,,,,,,,,151.75114200000098,0.0011420000009820797,None,182.48853319999944,182.48853319999944,182.48853319999944,182.48853319999944,182.48853319999944,182.48853319999944,182.48853319999944,182.48853319999944,182.48853319999944,182.48853319999944,,002,P008,2025_Feb_01_1127,ConditionRich,2021.2.3,59.95024129945178,
152.0,155.75,10,0.75,Stimuli/P008/sun_bdekcgnlcicvgpvq.jpg,1,0,0.75,0,68,68,68,,,,,,,,,,,,,152.01717690000078,0.017176900000777096,2,182.75543209999887,182.75543209999887,182.75543209999887,182.75543209999887,182.75543209999887,182.75543209999887,182.75543209999887,183.4727172999992,182.75543209999887,182.75543209999887,0.591063199999553,002,P008,2025_Feb_01_1127,ConditionRich,2021.2.3,59.95024129945178,
155.75,156.0,41,0.0,Stimuli/Blank.png,0,0,0.0,0,69,69,69,,,,,,,,,,,,,155.7704360000007,0.020436000000700005,None,186.49259320000056,186.49259320000056,186.49259320000056,186.49259320000056,186.49259320000056,186.49259320000056,186.49259320000056,186.49259320000056,186.49259320000056,186.49259320000056,,002,P008,2025_Feb_01_1127,ConditionRich,2021.2.3,59.95024129945178,
156.0,159.75,12,0.75,Stimuli/P008/sun_bitpmyvulluuasab.jpg,0,0,0.0,0,70,70,70,,,,,,,,,,,,,156.0041340000007,0.0041340000007039635,None,186.72571319999952,186.72571319999952,186.72571319999952,186.72571319999952,186.72571319999952,186.72571319999952,186.72571319999952,186.72571319999952,186.72571319999952,186.72571319999952,,002,P008,2025_Feb_01_1127,ConditionRich,2021.2.3,59.95024129945178,
159.75,160.0,41,0.0,Stimuli/Blank.png,0,0,0.0,0,71,71,71,,,,,,,,,,,,,159.7566794000013,0.006679400001303293,None,190.4789149999997,190.4789149999997,190.4789149999997,190.4789149999997,190.4789149999997,190.4789149999997,190.4789149999997,190.4789149999997,190.4789149999997,190.4789149999997,,002,P008,2025_Feb_01_1127,ConditionRich,2021.2.3,59.95024129945178,
160.0,163.75,7,0.75,Stimuli/P008/sun_babhwrqvnhanonuy.jpg,0,0,0.0,0,72,72,72,,,,,,,,,,,,,160.0094732000016,0.009473200001593796,None,190.7458289999995,190.7458289999995,190.7458289999995,190.7458289999995,190.7458289999995,190.7458289999995,190.7458289999995,190.7458289999995,190.7458289999995,190.7458289999995,,002,P008,2025_Feb_01_1127,ConditionRich,2021.2.3,59.95024129945178,
163.75,164.0,41,0.0,Stimuli/Blank.png,0,0,0.0,0,73,73,73,,,,,,,,,,,,,163.77766200000042,0.02766200000041863,None,194.49915619999956,194.49915619999956,194.49915619999956,194.49915619999956,194.49915619999956,194.49915619999956,194.49915619999956,194.49915619999956,194.49915619999956,194.49915619999956,,002,P008,2025_Feb_01_1127,ConditionRich,2021.2.3,59.95024129945178,
164.0,167.75,5,0.75,Stimuli/P008/sun_ayzkwnqsoiycbncn.jpg,0,0,0.0,0,74,74,74,,,,,,,,,,,,,164.01094400000147,0.010944000001472887,None,194.73267739999937,194.73267739999937,194.73267739999937,194.73267739999937,194.73267739999937,194.73267739999937,194.73267739999937,194.73267739999937,194.73267739999937,194.73267739999937,,002,P008,2025_Feb_01_1127,ConditionRich,2021.2.3,59.95024129945178,
167.75,168.0,41,0.0,Stimuli/Blank.png,0,0,0.0,0,75,75,75,,,,,,,,,,,,,167.76501520000056,0.01501520000056189,None,198.48600409999926,198.48600409999926,198.48600409999926,198.48600409999926,198.48600409999926,198.48600409999926,198.48600409999926,198.48600409999926,198.48600409999926,198.48600409999926,,002,P008,2025_Feb_01_1127,ConditionRich,2021.2.3,59.95024129945178,
168.0,171.75,6,0.75,Stimuli/P008/sun_azpjjfwsbjdjcopb.jpg,1,0,0.75,0,76,76,76,,,,,,,,,,,,,168.01524000000063,0.015240000000630971,1,198.7528999999995,198.7528999999995,198.7528999999995,198.7528999999995,198.7528999999995,198.7528999999995,198.7528999999995,199.4702416,198.7528999999995,198.7528999999995,0.7435949000009714,002,P008,2025_Feb_01_1127,ConditionRich,2021.2.3,59.95024129945178,
171.75,172.0,41,0.0,Stimuli/Blank.png,0,0,0.0,0,77,77,77,,,,,,,,,,,,,171.76980210000147,0.019802100001470535,None,202.50622979999935,202.50622979999935,202.50622979999935,202.50622979999935,202.50622979999935,202.50622979999935,202.50622979999935,202.50622979999935,202.50622979999935,202.50622979999935,,002,P008,2025_Feb_01_1127,ConditionRich,2021.2.3,59.95024129945178,
172.0,175.75,16,0.75,Stimuli/P008/sun_bnpggenxuowzsywq.jpg,1,3,3.75,0,78,78,78,,,,,,,,,,,,,172.02078500000061,0.020785000000614673,2,202.7564500999997,202.7564500999997,202.7564500999997,202.7564500999997,202.7564500999997,202.7564500999997,205.74241549999897,None,202.7564500999997,202.7564500999997,3.422115200000917,002,P008,2025_Feb_01_1127,ConditionRich,2021.2.3,59.95024129945178,
175.75,176.0,41,0.0,Stimuli/Blank.png,0,0,0.0,0,79,79,79,,,,,,,,,,,,,175.77146500000163,0.021465000001626322,None,206.49307670000053,206.49307670000053,206.49307670000053,206.49307670000053,206.49307670000053,206.49307670000053,206.49307670000053,206.49307670000053,206.49307670000053,206.49307670000053,,002,P008,2025_Feb_01_1127,ConditionRich,2021.2.3,59.95024129945178,
176.0,179.75,38,0.75,Stimuli/P008/things_rollerblade_04s.jpg,0,0,0.0,0,80,80,80,,,,,,,,,,,,,176.0050108000014,0.005010800001400639,None,206.74333320000005,206.74333320000005,206.74333320000005,206.74333320000005,206.74333320000005,206.74333320000005,206.74333320000005,206.74333320000005,206.74333320000005,206.74333320000005,,002,P008,2025_Feb_01_1127,ConditionRich,2021.2.3,59.95024129945178,
179.75,180.0,41,0.0,Stimuli/Blank.png,0,0,0.0,0,81,81,81,,,,,,,,,,,,,179.77514510000037,0.025145100000372622,None,210.49663580000015,210.49663580000015,210.49663580000015,210.49663580000015,210.49663580000015,210.49663580000015,210.49663580000015,210.49663580000015,210.49663580000015,210.49663580000015,,002,P008,2025_Feb_01_1127,ConditionRich,2021.2.3,59.95024129945178,
180.0,196.0,0,0.0,Stimuli/Blank.png,1,11,11.75,0,82,82,82,,,,,,,,,,,,,180.01122399999986,0.01122399999985646,2,210.7468561000005,210.7468561000005,210.7468561000005,210.7468561000005,210.7468561000005,210.7468561000005,221.72322249999888,222.473937499999,210.7468561000005,210.7468561000005,11.310768100000132,002,P008,2025_Feb_01_1127,ConditionRich,2021.2.3,59.95024129945178,
196.0,199.75,20,0.75,Stimuli/P008/sun_btrxtfbwtggtrpfv.jpg,0,0,0.0,0,83,83,83,,,,,,,,,,,,,196.02479720000156,0.02479720000155794,None,226.7610139999997,226.7610139999997,226.7610139999997,226.7610139999997,226.7610139999997,226.7610139999997,226.7610139999997,226.7610139999997,226.7610139999997,226.7610139999997,,002,P008,2025_Feb_01_1127,ConditionRich,2021.2.3,59.95024129945178,
199.75,200.0,41,0.0,Stimuli/Blank.png,0,0,0.0,0,84,84,84,,,,,,,,,,,,,199.7755588,0.025558799999998882,None,230.49765540000044,230.49765540000044,230.49765540000044,230.49765540000044,230.49765540000044,230.49765540000044,230.49765540000044,230.49765540000044,230.49765540000044,230.49765540000044,,002,P008,2025_Feb_01_1127,ConditionRich,2021.2.3,59.95024129945178,
200.0,203.75,35,0.75,Stimuli/P008/things_pecan_04s.jpg,0,0,0.0,0,85,85,85,,,,,,,,,,,,,200.0098992000003,0.009899200000290875,None,230.74787879999894,230.74787879999894,230.74787879999894,230.74787879999894,230.74787879999894,230.74787879999894,230.74787879999894,230.74787879999894,230.74787879999894,230.74787879999894,,002,P008,2025_Feb_01_1127,ConditionRich,2021.2.3,59.95024129945178,
203.75,204.0,41,0.0,Stimuli/Blank.png,0,0,0.0,0,86,86,86,,,,,,,,,,,,,203.7799253000012,0.029925300001195865,None,234.50119389999963,234.50119389999963,234.50119389999963,234.50119389999963,234.50119389999963,234.50119389999963,234.50119389999963,234.50119389999963,234.50119389999963,234.50119389999963,,002,P008,2025_Feb_01_1127,ConditionRich,2021.2.3,59.95024129945178,
204.0,207.75,40,0.75,Stimuli/P008/things_woman_04s.jpg,1,0,0.75,0,87,87,87,,,,,,,,,,,,,204.014530800001,0.014530800001011812,2,234.75140800000008,234.75140800000008,234.75140800000008,234.75140800000008,234.75140800000008,234.75140800000008,234.75140800000008,235.48540479999974,234.75140800000008,234.75140800000008,0.5903868999994302,002,P008,2025_Feb_01_1127,ConditionRich,2021.2.3,59.95024129945178,
207.75,208.0,41,0.0,Stimuli/Blank.png,0,0,0.0,0,88,88,88,,,,,,,,,,,,,207.76679140000124,0.0167914000012388,None,238.48805019999963,238.48805019999963,238.48805019999963,238.48805019999963,238.48805019999963,238.48805019999963,238.48805019999963,238.48805019999963,238.48805019999963,238.48805019999963,,002,P008,2025_Feb_01_1127,ConditionRich,2021.2.3,59.95024129945178,
208.0,211.75,36,0.75,Stimuli/P008/things_platypus_04s.jpg,0,0,0.0,0,89,89,89,,,,,,,,,,,,,208.00005740000051,5.740000051446259e-05,None,238.73827429999983,238.73827429999983,238.73827429999983,238.73827429999983,238.73827429999983,238.73827429999983,238.73827429999983,238.73827429999983,238.73827429999983,238.73827429999983,,002,P008,2025_Feb_01_1127,ConditionRich,2021.2.3,59.95024129945178,
211.75,212.0,41,0.0,Stimuli/Blank.png,0,0,0.0,0,90,90,90,,,,,,,,,,,,,211.77003390000027,0.020033900000271387,None,242.4915946000001,242.4915946000001,242.4915946000001,242.4915946000001,242.4915946000001,242.4915946000001,242.4915946000001,242.4915946000001,242.4915946000001,242.4915946000001,,002,P008,2025_Feb_01_1127,ConditionRich,2021.2.3,59.95024129945178,
212.0,215.75,22,0.75,Stimuli/P008/things_boar_04s.jpg,1,2,2.75,0,91,91,91,,,,,,,,,,,,,212.0061469000011,0.006146900001112954,2,242.74184950000017,242.74184950000017,242.74184950000017,242.74184950000017,242.74184950000017,242.74184950000017,244.72691049999958,245.47755589999906,242.74184950000017,242.74184950000017,2.375007299999197,002,P008,2025_Feb_01_1127,ConditionRich,2021.2.3,59.95024129945178,
215.75,216.0,41,0.0,Stimuli/Blank.png,0,0,0.0,0,92,92,92,,,,,,,,,,,,,215.7749528000004,0.024952800000392017,None,246.51183130000027,246.51183130000027,246.51183130000027,246.51183130000027,246.51183130000027,246.51183130000027,246.51183130000027,246.51183130000027,246.51183130000027,246.51183130000027,,002,P008,2025_Feb_01_1127,ConditionRich,2021.2.3,59.95024129945178,
216.0,219.75,32,0.75,Stimuli/P008/things_maggot_04s.jpg,0,0,0.0,0,93,93,93,,,,,,,,,,,,,216.02335720000156,0.02335720000155561,None,246.7453547999994,246.7453547999994,246.7453547999994,246.7453547999994,246.7453547999994,246.7453547999994,246.7453547999994,246.7453547999994,246.7453547999994,246.7453547999994,,002,P008,2025_Feb_01_1127,ConditionRich,2021.2.3,59.95024129945178,
219.75,220.0,41,0.0,Stimuli/Blank.png,0,0,0.0,0,94,94,94,,,,,,,,,,,,,219.76055960000122,0.010559600001215586,None,250.48199620000014,250.48199620000014,250.48199620000014,250.48199620000014,250.48199620000014,250.48199620000014,250.48199620000014,250.48199620000014,250.48199620000014,250.48199620000014,,002,P008,2025_Feb_01_1127,ConditionRich,2021.2.3,59.95024129945178,
220.0,223.75,21,0.75,Stimuli/P008/things_baby_04s.jpg,0,0,0.0,0,95,95,95,,,,,,,,,,,,,220.01093130000118,0.01093130000117526,None,250.7322198999991,250.7322198999991,250.7322198999991,250.7322198999991,250.7322198999991,250.7322198999991,250.7322198999991,250.7322198999991,250.7322198999991,250.7322198999991,,002,P008,2025_Feb_01_1127,ConditionRich,2021.2.3,59.95024129945178,
223.75,224.0,41,0.0,Stimuli/Blank.png,0,0,0.0,0,96,96,96,,,,,,,,,,,,,223.76433970000107,0.014339700001073652,None,254.48554569999942,254.48554569999942,254.48554569999942,254.48554569999942,254.48554569999942,254.48554569999942,254.48554569999942,254.48554569999942,254.48554569999942,254.48554569999942,,002,P008,2025_Feb_01_1127,ConditionRich,2021.2.3,59.95024129945178,
224.0,227.75,12,0.75,Stimuli/P008/sun_bitpmyvulluuasab.jpg,1,2,2.75,0,97,97,97,,,,,,,,,,,,,224.01364560000002,0.013645600000018021,2,254.7357563000005,254.7357563000005,254.7357563000005,254.7357563000005,254.7357563000005,254.7357563000005,256.72083999999995,257.47150189999957,254.7357563000005,254.7357563000005,2.397069600001487,002,P008,2025_Feb_01_1127,ConditionRich,2021.2.3,59.95024129945178,
227.75,228.0,41,0.0,Stimuli/Blank.png,0,0,0.0,0,98,98,98,,,,,,,,,,,,,227.75020120000045,0.00020120000044698827,None,258.47238839999955,258.47238839999955,258.47238839999955,258.47238839999955,258.47238839999955,258.47238839999955,258.47238839999955,258.47238839999955,258.47238839999955,258.47238839999955,,002,P008,2025_Feb_01_1127,ConditionRich,2021.2.3,59.95024129945178,
228.0,231.75,9,0.75,Stimuli/P008/sun_bcsqogieozpyvuft.jpg,1,2,2.75,0,99,99,99,,,,,,,,,,,,,228.00066640000114,0.0006664000011369353,2,258.7226228999989,258.7226228999989,258.7226228999989,258.7226228999989,258.7226228999989,258.7226228999989,260.7077047999992,261.4583566000001,258.7226228999989,258.7226228999989,2.395028099999763,002,P008,2025_Feb_01_1127,ConditionRich,2021.2.3,59.95024129945178,
231.75,232.0,41,0.0,Stimuli/Blank.png,0,0,0.0,0,100,100,100,,,,,,,,,,,,,231.754914000001,0.0049140000010083895,None,262.4759405999994,262.4759405999994,262.4759405999994,262.4759405999994,262.4759405999994,262.4759405999994,262.4759405999994,262.4759405999994,262.4759405999994,262.4759405999994,,002,P008,2025_Feb_01_1127,ConditionRich,2021.2.3,59.95024129945178,
232.0,235.75,13,0.75,Stimuli/P008/sun_bkhuvtsqontzwtbo.jpg,0,0,0.0,0,101,101,101,,,,,,,,,,,,,232.0042695000011,0.004269500001100823,None,262.72615269999915,262.72615269999915,262.72615269999915,262.72615269999915,262.72615269999915,262.72615269999915,262.72615269999915,262.72615269999915,262.72615269999915,262.72615269999915,,002,P008,2025_Feb_01_1127,ConditionRich,2021.2.3,59.95024129945178,
235.75,236.0,41,0.0,Stimuli/Blank.png,0,0,0.0,0,102,102,102,,,,,,,,,,,,,235.7600478000004,0.010047800000393181,None,266.49617339999895,266.49617339999895,266.49617339999895,266.49617339999895,266.49617339999895,266.49617339999895,266.49617339999895,266.49617339999895,266.49617339999895,266.49617339999895,,002,P008,2025_Feb_01_1127,ConditionRich,2021.2.3,59.95024129945178,
236.0,239.75,24,0.75,Stimuli/P008/things_collar_04s.jpg,0,0,0.0,0,103,103,103,,,,,,,,,,,,,236.02478510000037,0.02478510000037204,None,266.74637939999957,266.74637939999957,266.74637939999957,266.74637939999957,266.74637939999957,266.74637939999957,266.74637939999957,266.74637939999957,266.74637939999957,266.74637939999957,,002,P008,2025_Feb_01_1127,ConditionRich,2021.2.3,59.95024129945178,
239.75,240.0,41,0.0,Stimuli/Blank.png,0,0,0.0,0,104,104,104,,,,,,,,,,,,,239.7612790000003,0.011279000000286032,None,270.4830139000005,270.4830139000005,270.4830139000005,270.4830139000005,270.4830139000005,270.4830139000005,270.4830139000005,270.4830139000005,270.4830139000005,270.4830139000005,,002,P008,2025_Feb_01_1127,ConditionRich,2021.2.3,59.95024129945178,
240.0,243.75,28,0.75,Stimuli/P008/things_girl_04s.jpg,0,0,0.0,0,105,105,105,,,,,,,,,,,,,240.0120736000008,0.012073600000803708,None,270.73323659999915,270.73323659999915,270.73323659999915,270.73323659999915,270.73323659999915,270.73323659999915,270.73323659999915,270.73323659999915,270.73323659999915,270.73323659999915,,002,P008,2025_Feb_01_1127,ConditionRich,2021.2.3,59.95024129945178,
243.75,244.0,41,0.0,Stimuli/Blank.png,0,0,0.0,0,106,106,106,,,,,,,,,,,,,243.76506359999985,0.01506359999984852,None,274.4865606000003,274.4865606000003,274.4865606000003,274.4865606000003,274.4865606000003,274.4865606000003,274.4865606000003,274.4865606000003,274.4865606000003,274.4865606000003,,002,P008,2025_Feb_01_1127,ConditionRich,2021.2.3,59.95024129945178,
244.0,247.75,15,0.75,Stimuli/P008/sun_bmeductqpfkygtww.jpg,0,0,0.0,0,107,107,107,,,,,,,,,,,,,244.0152235000005,0.0152235000005021,None,274.75345819999893,274.75345819999893,274.75345819999893,274.75345819999893,274.75345819999893,274.75345819999893,274.75345819999893,274.75345819999893,274.75345819999893,274.75345819999893,,002,P008,2025_Feb_01_1127,ConditionRich,2021.2.3,59.95024129945178,
247.75,248.0,41,0.0,Stimuli/Blank.png,0,0,0.0,0,108,108,108,,,,,,,,,,,,,247.76849970000148,0.018499700001484598,None,278.4900985000004,278.4900985000004,278.4900985000004,278.4900985000004,278.4900985000004,278.4900985000004,278.4900985000004,278.4900985000004,278.4900985000004,278.4900985000004,,002,P008,2025_Feb_01_1127,ConditionRich,2021.2.3,59.95024129945178,
248.0,251.75,8,0.75,Stimuli/P008/sun_bbnepvzvycqjjczs.jpg,0,0,0.0,0,109,109,109,,,,,,,,,,,,,248.0016766000008,0.0016766000007919502,None,278.74033099999906,278.74033099999906,278.74033099999906,278.74033099999906,278.74033099999906,278.74033099999906,278.74033099999906,278.74033099999906,278.74033099999906,278.74033099999906,,002,P008,2025_Feb_01_1127,ConditionRich,2021.2.3,59.95024129945178,
251.75,252.0,41,0.0,Stimuli/Blank.png,0,0,0.0,0,110,110,110,,,,,,,,,,,,,251.77286930000082,0.022869300000820658,None,282.49364400000013,282.49364400000013,282.49364400000013,282.49364400000013,282.49364400000013,282.49364400000013,282.49364400000013,282.49364400000013,282.49364400000013,282.49364400000013,,002,P008,2025_Feb_01_1127,ConditionRich,2021.2.3,59.95024129945178,
252.0,255.75,25,0.75,Stimuli/P008/things_credit_card_04s.jpg,0,0,0.0,0,111,111,111,,,,,,,,,,,,,252.00496170000042,0.0049617000004218426,None,282.727175,282.727175,282.727175,282.727175,282.727175,282.727175,282.727175,282.727175,282.727175,282.727175,,002,P008,2025_Feb_01_1127,ConditionRich,2021.2.3,59.95024129945178,
255.75,256.0,41,0.0,Stimuli/Blank.png,0,0,0.0,0,112,112,112,,,,,,,,,,,,,255.75900130000082,0.009001300000818446,None,286.4804946999993,286.4804946999993,286.4804946999993,286.4804946999993,286.4804946999993,286.4804946999993,286.4804946999993,286.4804946999993,286.4804946999993,286.4804946999993,,002,P008,2025_Feb_01_1127,ConditionRich,2021.2.3,59.95024129945178,
256.0,259.75,23,0.75,Stimuli/P008/things_bumper_04s.jpg,0,0,0.0,0,113,113,113,,,,,,,,,,,,,256.00926380000055,0.009263800000553601,None,286.7307148,286.7307148,286.7307148,286.7307148,286.7307148,286.7307148,286.7307148,286.7307148,286.7307148,286.7307148,,002,P008,2025_Feb_01_1127,ConditionRich,2021.2.3,59.95024129945178,
259.75,260.0,41,0.0,Stimuli/Blank.png,0,0,0.0,0,114,114,114,,,,,,,,,,,,,259.7654239000003,0.015423900000314461,None,290.50072790000013,290.50072790000013,290.50072790000013,290.50072790000013,290.50072790000013,290.50072790000013,290.50072790000013,290.50072790000013,290.50072790000013,290.50072790000013,,002,P008,2025_Feb_01_1127,ConditionRich,2021.2.3,59.95024129945178,
260.0,263.75,17,0.75,Stimuli/P008/sun_bnsxdhbsafbdyncy.jpg,0,0,0.0,0,115,115,115,,,,,,,,,,,,,260.0296414000004,0.02964140000040061,None,290.7676260999997,290.7676260999997,290.7676260999997,290.7676260999997,290.7676260999997,290.7676260999997,290.7676260999997,290.7676260999997,290.7676260999997,290.7676260999997,,002,P008,2025_Feb_01_1127,ConditionRich,2021.2.3,59.95024129945178,
263.75,264.0,41,0.0,Stimuli/Blank.png,0,0,0.0,0,116,116,116,,,,,,,,,,,,,263.76608280000073,0.016082800000731368,None,294.48757569999907,294.48757569999907,294.48757569999907,294.48757569999907,294.48757569999907,294.48757569999907,294.48757569999907,294.48757569999907,294.48757569999907,294.48757569999907,,002,P008,2025_Feb_01_1127,ConditionRich,2021.2.3,59.95024129945178,
264.0,267.75,37,0.75,Stimuli/P008/things_praying_mantis_04s.jpg,0,0,0.0,0,117,117,117,,,,,,,,,,,,,264.0005192000008,0.0005192000007809838,None,294.7378004000002,294.7378004000002,294.7378004000002,294.7378004000002,294.7378004000002,294.7378004000002,294.7378004000002,294.7378004000002,294.7378004000002,294.7378004000002,,002,P008,2025_Feb_01_1127,ConditionRich,2021.2.3,59.95024129945178,
267.75,268.0,41,0.0,Stimuli/Blank.png,0,0,0.0,0,118,118,118,,,,,,,,,,,,,267.76996620000136,0.019966200001363177,None,298.491125999999,298.491125999999,298.491125999999,298.491125999999,298.491125999999,298.491125999999,298.491125999999,298.491125999999,298.491125999999,298.491125999999,,002,P008,2025_Feb_01_1127,ConditionRich,2021.2.3,59.95024129945178,
268.0,271.75,29,0.75,Stimuli/P008/things_hawk_04s.jpg,1,1,1.75,0,119,119,119,,,,,,,,,,,,,268.00469760000124,0.004697600001236424,2,298.74135939999906,298.74135939999906,298.74135939999906,298.74135939999906,298.74135939999906,298.74135939999906,299.72554409999975,300.4762097999992,298.74135939999906,298.74135939999906,1.4142749000002368,002,P008,2025_Feb_01_1127,ConditionRich,2021.2.3,59.95024129945178,
271.75,272.0,41,0.0,Stimuli/Blank.png,0,0,0.0,0,120,120,120,,,,,,,,,,,,,271.7754915000005,0.02549150000049849,None,302.5113701999999,302.5113701999999,302.5113701999999,302.5113701999999,302.5113701999999,302.5113701999999,302.5113701999999,302.5113701999999,302.5113701999999,302.5113701999999,,002,P008,2025_Feb_01_1127,ConditionRich,2021.2.3,59.95024129945178,
272.0,275.75,26,0.75,Stimuli/P008/things_face_04s.jpg,0,0,0.0,0,121,121,121,,,,,,,,,,,,,272.024871900001,0.02487190000101691,None,302.7615722999999,302.7615722999999,302.7615722999999,302.7615722999999,302.7615722999999,302.7615722999999,302.7615722999999,302.7615722999999,302.7615722999999,302.7615722999999,,002,P008,2025_Feb_01_1127,ConditionRich,2021.2.3,59.95024129945178,
275.75,276.0,41,0.0,Stimuli/Blank.png,0,0,0.0,0,122,122,122,,,,,,,,,,,,,275.77596150000136,0.025961500001358218,None,306.4981996000006,306.4981996000006,306.4981996000006,306.4981996000006,306.4981996000006,306.4981996000006,306.4981996000006,306.4981996000006,306.4981996000006,306.4981996000006,,002,P008,2025_Feb_01_1127,ConditionRich,2021.2.3,59.95024129945178,
276.0,292.0,0,0.0,Stimuli/Blank.png,1,8,8.75,0,123,123,123,,,,,,,,,,,,,276.0106433000001,0.0106433000000834,2,306.73174780000045,306.73174780000045,306.73174780000045,306.73174780000045,306.73174780000045,306.73174780000045,314.72214059999897,315.4727999000006,306.73174780000045,306.73174780000045,8.385035000001153,002,P008,2025_Feb_01_1127,ConditionRich,2021.2.3,59.95024129945178,
292.0,295.75,18,0.75,Stimuli/P008/sun_borgfidyubrwsuuw.jpg,0,0,0.0,0,124,124,124,,,,,,,,,,,,,292.01001090000136,0.010010900001361733,None,322.7459149999995,322.7459149999995,322.7459149999995,322.7459149999995,322.7459149999995,322.7459149999995,322.7459149999995,322.7459149999995,322.7459149999995,322.7459149999995,,002,P008,2025_Feb_01_1127,ConditionRich,2021.2.3,59.95024129945178,
295.75,296.0,41,0.0,Stimuli/Blank.png,0,0,0.0,0,125,125,125,,,,,,,,,,,,,295.7769822999999,0.02698229999987234,None,326.49923409999974,326.49923409999974,326.49923409999974,326.49923409999974,326.49923409999974,326.49923409999974,326.49923409999974,326.49923409999974,326.49923409999974,326.49923409999974,,002,P008,2025_Feb_01_1127,ConditionRich,2021.2.3,59.95024129945178,
296.0,299.75,34,0.75,Stimuli/P008/things_moose_04s.jpg,0,0,0.0,0,126,126,126,,,,,,,,,,,,,296.01096880000114,0.010968800001137424,None,326.73277450000023,326.73277450000023,326.73277450000023,326.73277450000023,326.73277450000023,326.73277450000023,326.73277450000023,326.73277450000023,326.73277450000023,326.73277450000023,,002,P008,2025_Feb_01_1127,ConditionRich,2021.2.3,59.95024129945178,
299.75,300.0,41,0.0,Stimuli/Blank.png,0,0,0.0,0,127,127,127,,,,,,,,,,,,,299.76457910000136,0.014579100001355982,None,330.48610290000033,330.48610290000033,330.48610290000033,330.48610290000033,330.48610290000033,330.48610290000033,330.48610290000033,330.48610290000033,330.48610290000033,330.48610290000033,,002,P008,2025_Feb_01_1127,ConditionRich,2021.2.3,59.95024129945178,
300.0,303.75,14,0.75,Stimuli/P008/sun_bkvjqgmploznrhxt.jpg,1,1,1.75,0,128,128,128,,,,,,,,,,,,,300.01467270000103,0.014672700001028716,2,330.73631170000044,330.73631170000044,330.73631170000044,330.73631170000044,330.73631170000044,330.73631170000044,331.7207333999995,332.4711791999998,330.73631170000044,330.73631170000044,1.4105302000007214,002,P008,2025_Feb_01_1127,ConditionRich,2021.2.3,59.95024129945178,
303.75,304.0,41,0.0,Stimuli/Blank.png,0,0,0.0,0,129,129,129,,,,,,,,,,,,,303.750734700001,0.0007347000009758631,None,334.4729561999993,334.4729561999993,334.4729561999993,334.4729561999993,334.4729561999993,334.4729561999993,334.4729561999993,334.4729561999993,334.4729561999993,334.4729561999993,,002,P008,2025_Feb_01_1127,ConditionRich,2021.2.3,59.95024129945178,
304.0,307.75,39,0.75,Stimuli/P008/things_showerhead_04s.jpg,0,0,0.0,0,130,130,130,,,,,,,,,,,,,304.0016964000006,0.0016964000005827984,None,334.7398603999991,334.7398603999991,334.7398603999991,334.7398603999991,334.7398603999991,334.7398603999991,334.7398603999991,334.7398603999991,334.7398603999991,334.7398603999991,,002,P008,2025_Feb_01_1127,ConditionRich,2021.2.3,59.95024129945178,
307.75,308.0,41,0.0,Stimuli/Blank.png,0,0,0.0,0,131,131,131,,,,,,,,,,,,,307.77125239999987,0.02125239999986661,None,338.493169899999,338.493169899999,338.493169899999,338.493169899999,338.493169899999,338.493169899999,338.493169899999,338.493169899999,338.493169899999,338.493169899999,,002,P008,2025_Feb_01_1127,ConditionRich,2021.2.3,59.95024129945178,
308.0,311.75,30,0.75,Stimuli/P008/things_jalapeno_04s.jpg,0,0,0.0,0,132,132,132,,,,,,,,,,,,,308.0059428000004,0.0059428000004118076,None,338.74339080000027,338.74339080000027,338.74339080000027,338.74339080000027,338.74339080000027,338.74339080000027,338.74339080000027,338.74339080000027,338.74339080000027,338.74339080000027,,002,P008,2025_Feb_01_1127,ConditionRich,2021.2.3,59.95024129945178,
311.75,312.0,41,0.0,Stimuli/Blank.png,0,0,0.0,0,133,133,133,,,,,,,,,,,,,311.7751192000014,0.02511920000142709,None,342.49672479999936,342.49672479999936,342.49672479999936,342.49672479999936,342.49672479999936,342.49672479999936,342.49672479999936,342.49672479999936,342.49672479999936,342.49672479999936,,002,P008,2025_Feb_01_1127,ConditionRich,2021.2.3,59.95024129945178,
312.0,315.75,11,0.75,Stimuli/P008/sun_bdsriuscubkvzrmt.jpg,0,0,0.0,0,134,134,134,,,,,,,,,,,,,312.0097106000012,0.009710600001199055,None,342.7469311999994,342.7469311999994,342.7469311999994,342.7469311999994,342.7469311999994,342.7469311999994,342.7469311999994,342.7469311999994,342.7469311999994,342.7469311999994,,002,P008,2025_Feb_01_1127,ConditionRich,2021.2.3,59.95024129945178,
315.75,316.0,41,0.0,Stimuli/Blank.png,0,0,0.0,0,135,135,135,,,,,,,,,,,,,315.7789489000006,0.02894890000061423,None,346.5002578000003,346.5002578000003,346.5002578000003,346.5002578000003,346.5002578000003,346.5002578000003,346.5002578000003,346.5002578000003,346.5002578000003,346.5002578000003,,002,P008,2025_Feb_01_1127,ConditionRich,2021.2.3,59.95024129945178,
316.0,319.75,38,0.75,Stimuli/P008/things_rollerblade_04s.jpg,0,0,0.0,0,136,136,136,,,,,,,,,,,,,316.01204300000063,0.012043000000630855,None,346.75049769999896,346.75049769999896,346.75049769999896,346.75049769999896,346.75049769999896,346.75049769999896,346.75049769999896,346.75049769999896,346.75049769999896,346.75049769999896,,002,P008,2025_Feb_01_1127,ConditionRich,2021.2.3,59.95024129945178,
319.75,320.0,41,0.0,Stimuli/Blank.png,0,0,0.0,0,137,137,137,,,,,,,,,,,,,319.78233080000064,0.03233080000063637,None,350.5038088000001,350.5038088000001,350.5038088000001,350.5038088000001,350.5038088000001,350.5038088000001,350.5038088000001,350.5038088000001,350.5038088000001,350.5038088000001,,002,P008,2025_Feb_01_1127,ConditionRich,2021.2.3,59.95024129945178,
320.0,323.75,6,0.75,Stimuli/P008/sun_azpjjfwsbjdjcopb.jpg,0,0,0.0,0,138,138,138,,,,,,,,,,,,,319.9984818000012,-0.0015181999988271855,None,350.7206504000005,350.7206504000005,350.7206504000005,350.7206504000005,350.7206504000005,350.7206504000005,350.7206504000005,350.7206504000005,350.7206504000005,350.7206504000005,,002,P008,2025_Feb_01_1127,ConditionRich,2021.2.3,59.95024129945178,
323.75,324.0,41,0.0,Stimuli/Blank.png,0,0,0.0,0,139,139,139,,,,,,,,,,,,,323.75444210000023,0.00444210000023304,None,354.49067560000003,354.49067560000003,354.49067560000003,354.49067560000003,354.49067560000003,354.49067560000003,354.49067560000003,354.49067560000003,354.49067560000003,354.49067560000003,,002,P008,2025_Feb_01_1127,ConditionRich,2021.2.3,59.95024129945178,
324.0,327.75,1,0.75,Stimuli/P008/sun_abrlrupzcrwpxqfc.jpg,1,2,2.75,0,140,140,140,,,,,,,,,,,,,324.0204457,0.020445699999982025,2,354.7575873000005,354.7575873000005,354.7575873000005,354.7575873000005,354.7575873000005,354.7575873000005,356.7259804999994,357.4766320999988,354.7575873000005,354.7575873000005,2.420130999998946,002,P008,2025_Feb_01_1127,ConditionRich,2021.2.3,59.95024129945178,
327.75,328.0,41,0.0,Stimuli/Blank.png,0,0,0.0,0,141,141,141,,,,,,,,,,,,,327.7746367,0.024636699999973644,None,358.51090230000045,358.51090230000045,358.51090230000045,358.51090230000045,358.51090230000045,358.51090230000045,358.51090230000045,358.51090230000045,358.51090230000045,358.51090230000045,,002,P008,2025_Feb_01_1127,ConditionRich,2021.2.3,59.95024129945178,
328.0,331.75,33,0.75,Stimuli/P008/things_man_04s.jpg,1,0,0.75,0,142,142,142,,,,,,,,,,,,,328.0246007000005,0.024600700000519282,2,358.76110179999887,358.76110179999887,358.76110179999887,358.76110179999887,358.76110179999887,358.76110179999887,358.76110179999887,359.4951067999991,358.76110179999887,358.76110179999887,0.470871099998476,002,P008,2025_Feb_01_1127,ConditionRich,2021.2.3,59.95024129945178,
331.75,332.0,41,0.0,Stimuli/Blank.png,0,0,0.0,0,143,143,143,,,,,,,,,,,,,331.775685300001,0.0256853000009869,None,362.49773470000036,362.49773470000036,362.49773470000036,362.49773470000036,362.49773470000036,362.49773470000036,362.49773470000036,362.49773470000036,362.49773470000036,362.49773470000036,,002,P008,2025_Feb_01_1127,ConditionRich,2021.2.3,59.95024129945178,
332.0,335.75,19,0.75,Stimuli/P008/sun_brpfgrmubnnjvfkw.jpg,0,0,0.0,0,144,144,144,,,,,,,,,,,,,332.0097671000003,0.009767100000317441,None,362.74797880000006,362.74797880000006,362.74797880000006,362.74797880000006,362.74797880000006,362.74797880000006,362.74797880000006,362.74797880000006,362.74797880000006,362.74797880000006,,002,P008,2025_Feb_01_1127,ConditionRich,2021.2.3,59.95024129945178,
335.75,336.0,41,0.0,Stimuli/Blank.png,0,0,0.0,0,145,145,145,,,,,,,,,,,,,335.77988619999996,0.029886199999964447,None,366.50128120000045,366.50128120000045,366.50128120000045,366.50128120000045,366.50128120000045,366.50128120000045,366.50128120000045,366.50128120000045,366.50128120000045,366.50128120000045,,002,P008,2025_Feb_01_1127,ConditionRich,2021.2.3,59.95024129945178,
336.0,339.75,10,0.75,Stimuli/P008/sun_bdekcgnlcicvgpvq.jpg,0,0,0.0,0,146,146,146,,,,,,,,,,,,,336.0159532000016,0.015953200001604273,None,366.75152440000056,366.75152440000056,366.75152440000056,366.75152440000056,366.75152440000056,366.75152440000056,366.75152440000056,366.75152440000056,366.75152440000056,366.75152440000056,,002,P008,2025_Feb_01_1127,ConditionRich,2021.2.3,59.95024129945178,
339.75,340.0,41,0.0,Stimuli/Blank.png,0,0,0.0,0,147,147,147,,,,,,,,,,,,,339.7670102000011,0.017010200001095654,None,370.4881372,370.4881372,370.4881372,370.4881372,370.4881372,370.4881372,370.4881372,370.4881372,370.4881372,370.4881372,,002,P008,2025_Feb_01_1127,ConditionRich,2021.2.3,59.95024129945178,
340.0,343.75,2,0.75,Stimuli/P008/sun_ajyzloqaptmicnfr.jpg,1,2,2.75,0,148,148,148,,,,,,,,,,,,,340.00033799999983,0.00033799999982875306,2,370.7216967000004,370.7216967000004,370.7216967000004,370.7216967000004,370.7216967000004,370.7216967000004,372.7067784999999,373.45743109999967,370.7216967000004,370.7216967000004,2.475960900001155,002,P008,2025_Feb_01_1127,ConditionRich,2021.2.3,59.95024129945178,
343.75,344.0,41,0.0,Stimuli/Blank.png,0,0,0.0,0,149,149,149,,,,,,,,,,,,,343.75505540000086,0.005055400000856025,None,374.49168180000015,374.49168180000015,374.49168180000015,374.49168180000015,374.49168180000015,374.49168180000015,374.49168180000015,374.49168180000015,374.49168180000015,374.49168180000015,,002,P008,2025_Feb_01_1127,ConditionRich,2021.2.3,59.95024129945178,
344.0,347.75,31,0.75,Stimuli/P008/things_jug_04s.jpg,0,0,0.0,0,150,150,150,,,,,,,,,,,,,344.0209838999999,0.02098389999991923,None,374.7585839000003,374.7585839000003,374.7585839000003,374.7585839000003,374.7585839000003,374.7585839000003,374.7585839000003,374.7585839000003,374.7585839000003,374.7585839000003,,002,P008,2025_Feb_01_1127,ConditionRich,2021.2.3,59.95024129945178,
347.75,348.0,41,0.0,Stimuli/Blank.png,0,0,0.0,0,151,151,151,,,,,,,,,,,,,347.775184600001,0.02518460000101186,None,378.51190750000023,378.51190750000023,378.51190750000023,378.51190750000023,378.51190750000023,378.51190750000023,378.51190750000023,378.51190750000023,378.51190750000023,378.51190750000023,,002,P008,2025_Feb_01_1127,ConditionRich,2021.2.3,59.95024129945178,
348.0,351.75,16,0.75,Stimuli/P008/sun_bnpggenxuowzsywq.jpg,0,0,0.0,0,152,152,152,,,,,,,,,,,,,348.0240252000003,0.02402520000032382,None,378.7454452999991,378.7454452999991,378.7454452999991,378.7454452999991,378.7454452999991,378.7454452999991,378.7454452999991,378.7454452999991,378.7454452999991,378.7454452999991,,002,P008,2025_Feb_01_1127,ConditionRich,2021.2.3,59.95024129945178,
351.75,352.0,41,0.0,Stimuli/Blank.png,0,0,0.0,0,153,153,153,,,,,,,,,,,,,351.76039590000073,0.010395900000730762,None,382.4820856000006,382.4820856000006,382.4820856000006,382.4820856000006,382.4820856000006,382.4820856000006,382.4820856000006,382.4820856000006,382.4820856000006,382.4820856000006,,002,P008,2025_Feb_01_1127,ConditionRich,2021.2.3,59.95024129945178,
352.0,355.75,27,0.75,Stimuli/P008/things_fur_coat_04s.jpg,0,0,0.0,0,154,154,154,,,,,,,,,,,,,352.0103818000007,0.01038180000068678,None,382.7323013000005,382.7323013000005,382.7323013000005,382.7323013000005,382.7323013000005,382.7323013000005,382.7323013000005,382.7323013000005,382.7323013000005,382.7323013000005,,002,P008,2025_Feb_01_1127,ConditionRich,2021.2.3,59.95024129945178,
355.75,356.0,41,0.0,Stimuli/Blank.png,0,0,0.0,0,155,155,155,,,,,,,,,,,,,355.76409440000134,0.014094400001340546,None,386.4856301,386.4856301,386.4856301,386.4856301,386.4856301,386.4856301,386.4856301,386.4856301,386.4856301,386.4856301,,002,P008,2025_Feb_01_1127,ConditionRich,2021.2.3,59.95024129945178,
356.0,359.75,5,0.75,Stimuli/P008/sun_ayzkwnqsoiycbncn.jpg,0,0,0.0,0,156,156,156,,,,,,,,,,,,,356.0152642000012,0.01526420000118378,None,386.7525193999991,386.7525193999991,386.7525193999991,386.7525193999991,386.7525193999991,386.7525193999991,386.7525193999991,386.7525193999991,386.7525193999991,386.7525193999991,,002,P008,2025_Feb_01_1127,ConditionRich,2021.2.3,59.95024129945178,
359.75,360.0,41,0.0,Stimuli/Blank.png,0,0,0.0,0,157,157,157,,,,,,,,,,,,,359.7676820000015,0.017682000001514098,None,390.4891771999992,390.4891771999992,390.4891771999992,390.4891771999992,390.4891771999992,390.4891771999992,390.4891771999992,390.4891771999992,390.4891771999992,390.4891771999992,,002,P008,2025_Feb_01_1127,ConditionRich,2021.2.3,59.95024129945178,
360.0,363.75,3,0.75,Stimuli/P008/sun_aueftjhdwnvkbzlt.jpg,1,1,1.75,0,158,158,158,,,,,,,,,,,,,360.00103710000076,0.0010371000007580733,2,390.7227024999993,390.7227024999993,390.7227024999993,390.7227024999993,390.7227024999993,390.7227024999993,391.70690319999994,392.45761689999927,390.7227024999993,390.7227024999993,1.3379899999999907,002,P008,2025_Feb_01_1127,ConditionRich,2021.2.3,59.95024129945178,
363.75,364.0,41,0.0,Stimuli/Blank.png,0,0,0.0,0,159,159,159,,,,,,,,,,,,,363.754627100001,0.004627100001016515,None,394.47603249999884,394.47603249999884,394.47603249999884,394.47603249999884,394.47603249999884,394.47603249999884,394.47603249999884,394.47603249999884,394.47603249999884,394.47603249999884,,002,P008,2025_Feb_01_1127,ConditionRich,2021.2.3,59.95024129945178,
364.0,367.75,7,0.75,Stimuli/P008/sun_babhwrqvnhanonuy.jpg,0,0,0.0,0,160,160,160,,,,,,,,,,,,,364.0041068999999,0.004106899999896996,None,394.7262756,394.7262756,394.7262756,394.7262756,394.7262756,394.7262756,394.7262756,394.7262756,394.7262756,394.7262756,,002,P008,2025_Feb_01_1127,ConditionRich,2021.2.3,59.95024129945178,
367.75,368.0,41,0.0,Stimuli/Blank.png,0,0,0.0,0,161,161,161,,,,,,,,,,,,,367.7598152999999,0.009815299999900162,None,398.4962419000003,398.4962419000003,398.4962419000003,398.4962419000003,398.4962419000003,398.4962419000003,398.4962419000003,398.4962419000003,398.4962419000003,398.4962419000003,,002,P008,2025_Feb_01_1127,ConditionRich,2021.2.3,59.95024129945178,
368.0,371.75,4,0.75,Stimuli/P008/sun_awqukazlzsxaokai.jpg,0,0,0.0,0,162,162,162,,,,,,,,,,,,,368.0243468000008,0.02434680000078515,None,398.7464633999989,398.7464633999989,398.7464633999989,398.7464633999989,398.7464633999989,398.7464633999989,398.7464633999989,398.7464633999989,398.7464633999989,398.7464633999989,,002,P008,2025_Feb_01_1127,ConditionRich,2021.2.3,59.95024129945178,
371.75,372.0,41,0.0,Stimuli/Blank.png,0,0,0.0,0,163,163,163,,,,,,,,,,,,,371.76166640000156,0.01166640000155894,None,402.48310200000014,402.48310200000014,402.48310200000014,402.48310200000014,402.48310200000014,402.48310200000014,402.48310200000014,402.48310200000014,402.48310200000014,402.48310200000014,,002,P008,2025_Feb_01_1127,ConditionRich,2021.2.3,59.95024129945178,
372.0,388.0,0,0.0,Stimuli/Blank.png,1,7,7.75,0,164,164,164,,,,,,,,,,,,,372.01139540000077,0.011395400000765221,2,402.73332649999975,402.73332649999975,402.73332649999975,402.73332649999975,402.73332649999975,402.73332649999975,409.7228847999995,410.4735727999996,402.73332649999975,402.73332649999975,7.310471800001324,002,P008,2025_Feb_01_1127,ConditionRich,2021.2.3,59.95024129945178,
