eventStartTime,eventEndTime,eventCond,imSize,imFile,responseEvent,fixRespStart,fixRespEnd,Events.thisRepN,Events.thisTrialN,Events.thisN,Events.thisIndex,Instructions.started,Instructions.stopped,participantReadyResponse.keys,participantReadyResponse.rt,participantReadyResponse.started,participantReadyResponse.stopped,startWaitforTrigger,triggerResponse.keys,triggerResponse.rt,triggerResponse.started,triggerResponse.stopped,globalTimer,actualStartTime,startTimingDiff,participantResponse.keys,participantResponse.started,participantResponse.stopped,image.started,image.stopped,fixationOutside.started,fixationOutside.stopped,fixationResponse.started,fixationResponse.stopped,fixationInside.started,fixationInside.stopped,participantResponse.rt,session,participant,date,expName,psychopyVersion,frameRate,
,,,,,,,,,,,,12.061273899998923,None,2,9.005634799999825,12.061273899998923,None,,,,,,,,,,,,,,,,,,,,,008,P008,2025_Feb_01_1223,ConditionRich,2021.2.3,59.930480642684515,
,,,,,,,,,,,,,,,,,,21.074003300000186,5,16.02241370000047,21.08667609999975,None,,,,,,,,,,,,,,,,008,P008,2025_Feb_01_1223,ConditionRich,2021.2.3,59.930480642684515,
0.0,4.0,0,0.0,Stimuli/Blank.png,0,0,0.0,0,0,0,0,,,,,,,,,,,,37.12110480000047,0.030049499999222462,0.030049499999222462,None,37.1675295999994,None,37.1675295999994,None,37.1675295999994,None,37.1675295999994,37.1675295999994,37.1675295999994,None,,008,P008,2025_Feb_01_1223,ConditionRich,2021.2.3,59.930480642684515,
4.0,7.75,26,0.75,Stimuli/P008/things_face_04s.jpg,1,0,0.75,0,1,1,1,,,,,,,,,,,,,4.006440199998906,0.006440199998905882,2,41.15468519999922,41.15468519999922,41.15468519999922,41.15468519999922,41.15468519999922,41.15468519999922,41.15468519999922,41.88836919999994,41.15468519999922,41.15468519999922,0.3802951999987272,008,P008,2025_Feb_01_1223,ConditionRich,2021.2.3,59.930480642684515,
7.75,8.0,41,0.0,Stimuli/Blank.png,0,0,0.0,0,2,2,2,,,,,,,,,,,,,7.773787399999492,0.023787399999491754,None,44.90802459999941,44.90802459999941,44.90802459999941,44.90802459999941,44.90802459999941,44.90802459999941,44.90802459999941,44.90802459999941,44.90802459999941,44.90802459999941,,008,P008,2025_Feb_01_1223,ConditionRich,2021.2.3,59.930480642684515,
8.0,11.75,10,0.75,Stimuli/P008/sun_bdekcgnlcicvgpvq.jpg,0,0,0.0,0,3,3,3,,,,,,,,,,,,,8.006183599998622,0.006183599998621503,None,45.1579397000005,45.1579397000005,45.1579397000005,45.1579397000005,45.1579397000005,45.1579397000005,45.1579397000005,45.1579397000005,45.1579397000005,45.1579397000005,,008,P008,2025_Feb_01_1223,ConditionRich,2021.2.3,59.930480642684515,
11.75,12.0,41,0.0,Stimuli/Blank.png,0,0,0.0,0,4,4,4,,,,,,,,,,,,,11.775578799999494,0.02557879999949364,None,48.911219800000254,48.911219800000254,48.911219800000254,48.911219800000254,48.911219800000254,48.911219800000254,48.911219800000254,48.911219800000254,48.911219800000254,48.911219800000254,,008,P008,2025_Feb_01_1223,ConditionRich,2021.2.3,59.930480642684515,
12.0,15.75,4,0.75,Stimuli/P008/sun_awqukazlzsxaokai.jpg,0,0,0.0,0,5,5,5,,,,,,,,,,,,,12.009591299998647,0.009591299998646718,None,49.14479570000003,49.14479570000003,49.14479570000003,49.14479570000003,49.14479570000003,49.14479570000003,49.14479570000003,49.14479570000003,49.14479570000003,49.14479570000003,,008,P008,2025_Feb_01_1223,ConditionRich,2021.2.3,59.930480642684515,
15.75,16.0,41,0.0,Stimuli/Blank.png,0,0,0.0,0,6,6,6,,,,,,,,,,,,,15.765455499999007,0.015455499999006861,None,52.9147942999989,52.9147942999989,52.9147942999989,52.9147942999989,52.9147942999989,52.9147942999989,52.9147942999989,52.9147942999989,52.9147942999989,52.9147942999989,,008,P008,2025_Feb_01_1223,ConditionRich,2021.2.3,59.930480642684515,
16.0,19.75,33,0.75,Stimuli/P008/things_man_04s.jpg,1,3,3.75,0,7,7,7,,,,,,,,,,,,,16.03006589999859,0.030065899998589884,2,53.165017699999225,56.884995599999456,53.165017699999225,56.884995599999456,53.165017699999225,56.884995599999456,56.15102420000039,None,53.165017699999225,56.884995599999456,3.4549513000001753,008,P008,2025_Feb_01_1223,ConditionRich,2021.2.3,59.930480642684515,
19.75,20.0,41,0.0,Stimuli/Blank.png,0,0,0.0,0,8,8,8,,,,,,,,,,,,,19.766333499999746,0.016333499999745982,None,56.90164729999924,None,56.90164729999924,None,56.90164729999924,None,56.90164729999924,56.90164729999924,56.90164729999924,None,,008,P008,2025_Feb_01_1223,ConditionRich,2021.2.3,59.930480642684515,
20.0,23.75,35,0.75,Stimuli/P008/things_pecan_04s.jpg,0,0,0.0,0,9,9,9,,,,,,,,,,,,,19.999508899998546,-0.0004911000014544697,None,57.135193599999184,57.135193599999184,57.135193599999184,57.135193599999184,57.135193599999184,57.135193599999184,57.135193599999184,57.135193599999184,57.135193599999184,57.135193599999184,,008,P008,2025_Feb_01_1223,ConditionRich,2021.2.3,59.930480642684515,
23.75,24.0,41,0.0,Stimuli/Blank.png,0,0,0.0,0,10,10,10,,,,,,,,,,,,,23.75497759999962,0.004977599999619997,None,60.90520110000034,60.90520110000034,60.90520110000034,60.90520110000034,60.90520110000034,60.90520110000034,60.90520110000034,60.90520110000034,60.90520110000034,60.90520110000034,,008,P008,2025_Feb_01_1223,ConditionRich,2021.2.3,59.930480642684515,
24.0,27.75,31,0.75,Stimuli/P008/things_jug_04s.jpg,1,3,3.75,0,11,11,11,,,,,,,,,,,,,24.020012199998746,0.020012199998745928,2,61.15540929999952,61.15540929999952,61.15540929999952,61.15540929999952,61.15540929999952,61.15540929999952,64.14138909999929,None,61.15540929999952,61.15540929999952,3.430495200000223,008,P008,2025_Feb_01_1223,ConditionRich,2021.2.3,59.930480642684515,
27.75,28.0,41,0.0,Stimuli/Blank.png,0,0,0.0,0,12,12,12,,,,,,,,,,,,,27.757633699999133,0.007633699999132659,None,64.89207779999924,64.89207779999924,64.89207779999924,64.89207779999924,64.89207779999924,64.89207779999924,64.89207779999924,64.89207779999924,64.89207779999924,64.89207779999924,,008,P008,2025_Feb_01_1223,ConditionRich,2021.2.3,59.930480642684515,
28.0,31.75,12,0.75,Stimuli/P008/sun_bitpmyvulluuasab.jpg,1,2,2.75,0,13,13,13,,,,,,,,,,,,,28.007053999999698,0.007053999999698135,2,65.15895759999876,65.15895759999876,65.15895759999876,65.15895759999876,65.15895759999876,65.15895759999876,67.12731989999884,67.87802929999998,65.15895759999876,65.15895759999876,2.3619311999991623,008,P008,2025_Feb_01_1223,ConditionRich,2021.2.3,59.930480642684515,
31.75,32.0,41,0.0,Stimuli/Blank.png,0,0,0.0,0,14,14,14,,,,,,,,,,,,,31.777501599999596,0.027501599999595783,None,68.9122795000003,68.9122795000003,68.9122795000003,68.9122795000003,68.9122795000003,68.9122795000003,68.9122795000003,68.9122795000003,68.9122795000003,68.9122795000003,,008,P008,2025_Feb_01_1223,ConditionRich,2021.2.3,59.930480642684515,
32.0,35.75,20,0.75,Stimuli/P008/sun_btrxtfbwtggtrpfv.jpg,0,0,0.0,0,15,15,15,,,,,,,,,,,,,32.01026180000008,0.010261800000080257,None,69.14582289999998,69.14582289999998,69.14582289999998,69.14582289999998,69.14582289999998,69.14582289999998,69.14582289999998,69.14582289999998,69.14582289999998,69.14582289999998,,008,P008,2025_Feb_01_1223,ConditionRich,2021.2.3,59.930480642684515,
35.75,36.0,41,0.0,Stimuli/Blank.png,0,0,0.0,0,16,16,16,,,,,,,,,,,,,35.76386049999928,0.013860499999282183,None,72.89915049999945,72.89915049999945,72.89915049999945,72.89915049999945,72.89915049999945,72.89915049999945,72.89915049999945,72.89915049999945,72.89915049999945,72.89915049999945,,008,P008,2025_Feb_01_1223,ConditionRich,2021.2.3,59.930480642684515,
36.0,39.75,39,0.75,Stimuli/P008/things_showerhead_04s.jpg,0,0,0.0,0,17,17,17,,,,,,,,,,,,,36.0143995999988,0.014399599998796475,None,73.14935739999964,73.14935739999964,73.14935739999964,73.14935739999964,73.14935739999964,73.14935739999964,73.14935739999964,73.14935739999964,73.14935739999964,73.14935739999964,,008,P008,2025_Feb_01_1223,ConditionRich,2021.2.3,59.930480642684515,
39.75,40.0,41,0.0,Stimuli/Blank.png,0,0,0.0,0,18,18,18,,,,,,,,,,,,,39.75029410000025,0.00029410000024654437,None,76.88597189999928,76.88597189999928,76.88597189999928,76.88597189999928,76.88597189999928,76.88597189999928,76.88597189999928,76.88597189999928,76.88597189999928,76.88597189999928,,008,P008,2025_Feb_01_1223,ConditionRich,2021.2.3,59.930480642684515,
40.0,43.75,27,0.75,Stimuli/P008/things_fur_coat_04s.jpg,0,0,0.0,0,19,19,19,,,,,,,,,,,,,40.00089560000015,0.0008956000001489883,None,77.13622339999893,77.13622339999893,77.13622339999893,77.13622339999893,77.13622339999893,77.13622339999893,77.13622339999893,77.13622339999893,77.13622339999893,77.13622339999893,,008,P008,2025_Feb_01_1223,ConditionRich,2021.2.3,59.930480642684515,
43.75,44.0,41,0.0,Stimuli/Blank.png,0,0,0.0,0,20,20,20,,,,,,,,,,,,,43.754504699998506,0.004504699998506112,None,80.88955279999936,80.88955279999936,80.88955279999936,80.88955279999936,80.88955279999936,80.88955279999936,80.88955279999936,80.88955279999936,80.88955279999936,80.88955279999936,,008,P008,2025_Feb_01_1223,ConditionRich,2021.2.3,59.930480642684515,
44.0,47.75,19,0.75,Stimuli/P008/sun_brpfgrmubnnjvfkw.jpg,0,0,0.0,0,21,21,21,,,,,,,,,,,,,44.004945799999405,0.004945799999404699,None,81.1564574999993,81.1564574999993,81.1564574999993,81.1564574999993,81.1564574999993,81.1564574999993,81.1564574999993,81.1564574999993,81.1564574999993,81.1564574999993,,008,P008,2025_Feb_01_1223,ConditionRich,2021.2.3,59.930480642684515,
47.75,48.0,41,0.0,Stimuli/Blank.png,0,0,0.0,0,22,22,22,,,,,,,,,,,,,47.77488059999996,0.024880599999960396,None,84.90977179999936,84.90977179999936,84.90977179999936,84.90977179999936,84.90977179999936,84.90977179999936,84.90977179999936,84.90977179999936,84.90977179999936,84.90977179999936,,008,P008,2025_Feb_01_1223,ConditionRich,2021.2.3,59.930480642684515,
48.0,51.75,17,0.75,Stimuli/P008/sun_bnsxdhbsafbdyncy.jpg,0,0,0.0,0,23,23,23,,,,,,,,,,,,,48.00802069999918,0.00802069999917876,None,85.14329809999981,85.14329809999981,85.14329809999981,85.14329809999981,85.14329809999981,85.14329809999981,85.14329809999981,85.14329809999981,85.14329809999981,85.14329809999981,,008,P008,2025_Feb_01_1223,ConditionRich,2021.2.3,59.930480642684515,
51.75,52.0,41,0.0,Stimuli/Blank.png,0,0,0.0,0,24,24,24,,,,,,,,,,,,,51.761901599998964,0.01190159999896423,None,88.89662940000017,88.89662940000017,88.89662940000017,88.89662940000017,88.89662940000017,88.89662940000017,88.89662940000017,88.89662940000017,88.89662940000017,88.89662940000017,,008,P008,2025_Feb_01_1223,ConditionRich,2021.2.3,59.930480642684515,
52.0,55.75,5,0.75,Stimuli/P008/sun_ayzkwnqsoiycbncn.jpg,0,0,0.0,0,25,25,25,,,,,,,,,,,,,52.011212599998544,0.011212599998543737,None,89.14683890000015,89.14683890000015,89.14683890000015,89.14683890000015,89.14683890000015,89.14683890000015,89.14683890000015,89.14683890000015,89.14683890000015,89.14683890000015,,008,P008,2025_Feb_01_1223,ConditionRich,2021.2.3,59.930480642684515,
55.75,56.0,41,0.0,Stimuli/Blank.png,0,0,0.0,0,26,26,26,,,,,,,,,,,,,55.76579969999875,0.01579969999875175,None,92.9002117,92.9002117,92.9002117,92.9002117,92.9002117,92.9002117,92.9002117,92.9002117,92.9002117,92.9002117,,008,P008,2025_Feb_01_1223,ConditionRich,2021.2.3,59.930480642684515,
56.0,59.75,3,0.75,Stimuli/P008/sun_aueftjhdwnvkbzlt.jpg,1,1,1.75,0,27,27,27,,,,,,,,,,,,,55.99878129999888,-0.0012187000011181226,2,93.13367279999875,93.13367279999875,93.13367279999875,93.13367279999875,93.13367279999875,93.13367279999875,94.11790660000042,94.86859499999991,93.13367279999875,93.13367279999875,1.5072658000008232,008,P008,2025_Feb_01_1223,ConditionRich,2021.2.3,59.930480642684515,
59.75,60.0,41,0.0,Stimuli/Blank.png,0,0,0.0,0,28,28,28,,,,,,,,,,,,,59.75450389999969,0.004503899999690475,None,96.90370249999978,96.90370249999978,96.90370249999978,96.90370249999978,96.90370249999978,96.90370249999978,96.90370249999978,96.90370249999978,96.90370249999978,96.90370249999978,,008,P008,2025_Feb_01_1223,ConditionRich,2021.2.3,59.930480642684515,
60.0,63.75,29,0.75,Stimuli/P008/things_hawk_04s.jpg,0,0,0.0,0,29,29,29,,,,,,,,,,,,,60.01815339999848,0.0181533999984822,None,97.15392690000044,97.15392690000044,97.15392690000044,97.15392690000044,97.15392690000044,97.15392690000044,97.15392690000044,97.15392690000044,97.15392690000044,97.15392690000044,,008,P008,2025_Feb_01_1223,ConditionRich,2021.2.3,59.930480642684515,
63.75,64.0,41,0.0,Stimuli/Blank.png,0,0,0.0,0,30,30,30,,,,,,,,,,,,,63.75559119999889,0.005591199998889351,None,100.89056309999978,100.89056309999978,100.89056309999978,100.89056309999978,100.89056309999978,100.89056309999978,100.89056309999978,100.89056309999978,100.89056309999978,100.89056309999978,,008,P008,2025_Feb_01_1223,ConditionRich,2021.2.3,59.930480642684515,
64.0,67.75,14,0.75,Stimuli/P008/sun_bkvjqgmploznrhxt.jpg,0,0,0.0,0,31,31,31,,,,,,,,,,,,,64.0053515999989,0.0053515999989031116,None,101.14078669999981,101.14078669999981,101.14078669999981,101.14078669999981,101.14078669999981,101.14078669999981,101.14078669999981,101.14078669999981,101.14078669999981,101.14078669999981,,008,P008,2025_Feb_01_1223,ConditionRich,2021.2.3,59.930480642684515,
67.75,68.0,41,0.0,Stimuli/Blank.png,0,0,0.0,0,32,32,32,,,,,,,,,,,,,67.75932139999895,0.009321399998952984,None,104.89410560000033,104.89410560000033,104.89410560000033,104.89410560000033,104.89410560000033,104.89410560000033,104.89410560000033,104.89410560000033,104.89410560000033,104.89410560000033,,008,P008,2025_Feb_01_1223,ConditionRich,2021.2.3,59.930480642684515,
68.0,71.75,11,0.75,Stimuli/P008/sun_bdsriuscubkvzrmt.jpg,0,0,0.0,0,33,33,33,,,,,,,,,,,,,68.00899919999938,0.008999199999379925,None,105.14433049999934,105.14433049999934,105.14433049999934,105.14433049999934,105.14433049999934,105.14433049999934,105.14433049999934,105.14433049999934,105.14433049999934,105.14433049999934,,008,P008,2025_Feb_01_1223,ConditionRich,2021.2.3,59.930480642684515,
71.75,72.0,41,0.0,Stimuli/Blank.png,0,0,0.0,0,34,34,34,,,,,,,,,,,,,71.76493289999962,0.01493289999962144,None,108.91433510000024,108.91433510000024,108.91433510000024,108.91433510000024,108.91433510000024,108.91433510000024,108.91433510000024,108.91433510000024,108.91433510000024,108.91433510000024,,008,P008,2025_Feb_01_1223,ConditionRich,2021.2.3,59.930480642684515,
72.0,75.75,13,0.75,Stimuli/P008/sun_bkhuvtsqontzwtbo.jpg,0,0,0.0,0,35,35,35,,,,,,,,,,,,,72.02958339999896,0.02958339999895543,None,109.16454809999959,109.16454809999959,109.16454809999959,109.16454809999959,109.16454809999959,109.16454809999959,109.16454809999959,109.16454809999959,109.16454809999959,109.16454809999959,,008,P008,2025_Feb_01_1223,ConditionRich,2021.2.3,59.930480642684515,
75.75,76.0,41,0.0,Stimuli/Blank.png,0,0,0.0,0,36,36,36,,,,,,,,,,,,,75.74883020000016,-0.0011697999998432351,None,112.88450449999982,112.88450449999982,112.88450449999982,112.88450449999982,112.88450449999982,112.88450449999982,112.88450449999982,112.88450449999982,112.88450449999982,112.88450449999982,,008,P008,2025_Feb_01_1223,ConditionRich,2021.2.3,59.930480642684515,
76.0,79.75,28,0.75,Stimuli/P008/things_girl_04s.jpg,0,0,0.0,0,37,37,37,,,,,,,,,,,,,75.99971169999844,-0.0002883000015572179,None,113.15140669999892,113.15140669999892,113.15140669999892,113.15140669999892,113.15140669999892,113.15140669999892,113.15140669999892,113.15140669999892,113.15140669999892,113.15140669999892,,008,P008,2025_Feb_01_1223,ConditionRich,2021.2.3,59.930480642684515,
79.75,80.0,41,0.0,Stimuli/Blank.png,0,0,0.0,0,38,38,38,,,,,,,,,,,,,79.76991610000005,0.019916100000045844,None,116.90473190000012,116.90473190000012,116.90473190000012,116.90473190000012,116.90473190000012,116.90473190000012,116.90473190000012,116.90473190000012,116.90473190000012,116.90473190000012,,008,P008,2025_Feb_01_1223,ConditionRich,2021.2.3,59.930480642684515,
80.0,83.75,37,0.75,Stimuli/P008/things_praying_mantis_04s.jpg,0,0,0.0,0,39,39,39,,,,,,,,,,,,,80.00265169999875,0.0026516999987507006,None,117.154961799999,117.154961799999,117.154961799999,117.154961799999,117.154961799999,117.154961799999,117.154961799999,117.154961799999,117.154961799999,117.154961799999,,008,P008,2025_Feb_01_1223,ConditionRich,2021.2.3,59.930480642684515,
83.75,84.0,41,0.0,Stimuli/Blank.png,0,0,0.0,0,40,40,40,,,,,,,,,,,,,83.77532950000023,0.02532950000022538,None,120.9249531000005,120.9249531000005,120.9249531000005,120.9249531000005,120.9249531000005,120.9249531000005,120.9249531000005,120.9249531000005,120.9249531000005,120.9249531000005,,008,P008,2025_Feb_01_1223,ConditionRich,2021.2.3,59.930480642684515,
84.0,100.0,0,0.0,Stimuli/Blank.png,1,10,10.75,0,41,41,41,,,,,,,,,,,,,84.02474999999868,0.024749999998675776,2,121.17519329999959,121.17519329999959,121.17519329999959,121.17519329999959,121.17519329999959,121.17519329999959,131.1506532000003,131.9014301999996,121.17519329999959,121.17519329999959,10.47910789999878,008,P008,2025_Feb_01_1223,ConditionRich,2021.2.3,59.930480642684515,
100.0,103.75,25,0.75,Stimuli/P008/things_credit_card_04s.jpg,1,3,3.75,0,42,42,42,,,,,,,,,,,,,100.02041739999913,0.020417399999132613,2,137.15597890000026,137.15597890000026,137.15597890000026,137.15597890000026,137.15597890000026,137.15597890000026,140.14198690000012,None,137.15597890000026,137.15597890000026,3.3851090999996813,008,P008,2025_Feb_01_1223,ConditionRich,2021.2.3,59.930480642684515,
103.75,104.0,41,0.0,Stimuli/Blank.png,0,0,0.0,0,43,43,43,,,,,,,,,,,,,103.75771079999868,0.007710799998676521,None,140.8926276000002,140.8926276000002,140.8926276000002,140.8926276000002,140.8926276000002,140.8926276000002,140.8926276000002,140.8926276000002,140.8926276000002,140.8926276000002,,008,P008,2025_Feb_01_1223,ConditionRich,2021.2.3,59.930480642684515,
104.0,107.75,34,0.75,Stimuli/P008/things_moose_04s.jpg,1,3,3.75,0,44,44,44,,,,,,,,,,,,,104.00709439999991,0.007094399999914458,2,141.15952829999878,141.15952829999878,141.15952829999878,141.15952829999878,141.15952829999878,141.15952829999878,144.12881319999906,144.87946089999969,141.15952829999878,141.15952829999878,3.3466363000006822,008,P008,2025_Feb_01_1223,ConditionRich,2021.2.3,59.930480642684515,
107.75,108.0,41,0.0,Stimuli/Blank.png,0,0,0.0,0,45,45,45,,,,,,,,,,,,,107.77787709999939,0.0278770999993867,None,144.91285919999973,144.91285919999973,144.91285919999973,144.91285919999973,144.91285919999973,144.91285919999973,144.91285919999973,144.91285919999973,144.91285919999973,144.91285919999973,,008,P008,2025_Feb_01_1223,ConditionRich,2021.2.3,59.930480642684515,
108.0,111.75,8,0.75,Stimuli/P008/sun_bbnepvzvycqjjczs.jpg,0,0,0.0,0,46,46,46,,,,,,,,,,,,,108.01179459999912,0.011794599999120692,None,145.14637559999937,145.14637559999937,145.14637559999937,145.14637559999937,145.14637559999937,145.14637559999937,145.14637559999937,145.14637559999937,145.14637559999937,145.14637559999937,,008,P008,2025_Feb_01_1223,ConditionRich,2021.2.3,59.930480642684515,
111.75,112.0,41,0.0,Stimuli/Blank.png,0,0,0.0,0,47,47,47,,,,,,,,,,,,,111.76393929999904,0.013939299999037758,None,148.89970670000002,148.89970670000002,148.89970670000002,148.89970670000002,148.89970670000002,148.89970670000002,148.89970670000002,148.89970670000002,148.89970670000002,148.89970670000002,,008,P008,2025_Feb_01_1223,ConditionRich,2021.2.3,59.930480642684515,
112.0,115.75,32,0.75,Stimuli/P008/things_maggot_04s.jpg,0,0,0.0,0,48,48,48,,,,,,,,,,,,,112.01531929999874,0.015319299998736824,None,149.14991389999886,149.14991389999886,149.14991389999886,149.14991389999886,149.14991389999886,149.14991389999886,149.14991389999886,149.14991389999886,149.14991389999886,149.14991389999886,,008,P008,2025_Feb_01_1223,ConditionRich,2021.2.3,59.930480642684515,
115.75,116.0,41,0.0,Stimuli/Blank.png,0,0,0.0,0,49,49,49,,,,,,,,,,,,,115.75090389999968,0.0009038999996846542,None,152.88656400000036,152.88656400000036,152.88656400000036,152.88656400000036,152.88656400000036,152.88656400000036,152.88656400000036,152.88656400000036,152.88656400000036,152.88656400000036,,008,P008,2025_Feb_01_1223,ConditionRich,2021.2.3,59.930480642684515,
116.0,119.75,18,0.75,Stimuli/P008/sun_borgfidyubrwsuuw.jpg,0,0,0.0,0,50,50,50,,,,,,,,,,,,,116.00162009999985,0.001620099999854574,None,153.13673840000047,153.13673840000047,153.13673840000047,153.13673840000047,153.13673840000047,153.13673840000047,153.13673840000047,153.13673840000047,153.13673840000047,153.13673840000047,,008,P008,2025_Feb_01_1223,ConditionRich,2021.2.3,59.930480642684515,
119.75,120.0,41,0.0,Stimuli/Blank.png,0,0,0.0,0,51,51,51,,,,,,,,,,,,,119.75502389999929,0.005023899999287096,None,156.89009479999913,156.89009479999913,156.89009479999913,156.89009479999913,156.89009479999913,156.89009479999913,156.89009479999913,156.89009479999913,156.89009479999913,156.89009479999913,,008,P008,2025_Feb_01_1223,ConditionRich,2021.2.3,59.930480642684515,
120.0,123.75,40,0.75,Stimuli/P008/things_woman_04s.jpg,1,3,3.75,0,52,52,52,,,,,,,,,,,,,120.00550719999956,0.005507199999556178,2,157.15702319999946,157.15702319999946,157.15702319999946,157.15702319999946,157.15702319999946,157.15702319999946,160.1262945999988,160.8769914000004,157.15702319999946,157.15702319999946,3.391951400000835,008,P008,2025_Feb_01_1223,ConditionRich,2021.2.3,59.930480642684515,
123.75,124.0,41,0.0,Stimuli/Blank.png,0,0,0.0,0,53,53,53,,,,,,,,,,,,,123.7756905999995,0.025690599999506958,None,160.92701159999888,160.92701159999888,160.92701159999888,160.92701159999888,160.92701159999888,160.92701159999888,160.92701159999888,160.92701159999888,160.92701159999888,160.92701159999888,,008,P008,2025_Feb_01_1223,ConditionRich,2021.2.3,59.930480642684515,
124.0,127.75,1,0.75,Stimuli/P008/sun_abrlrupzcrwpxqfc.jpg,0,0,0.0,0,54,54,54,,,,,,,,,,,,,124.02500539999892,0.02500539999891771,None,161.16052659999878,161.16052659999878,161.16052659999878,161.16052659999878,161.16052659999878,161.16052659999878,161.16052659999878,161.16052659999878,161.16052659999878,161.16052659999878,,008,P008,2025_Feb_01_1223,ConditionRich,2021.2.3,59.930480642684515,
127.75,128.0,41,0.0,Stimuli/Blank.png,0,0,0.0,0,55,55,55,,,,,,,,,,,,,127.76279059999979,0.012790599999789265,None,164.89718899999934,164.89718899999934,164.89718899999934,164.89718899999934,164.89718899999934,164.89718899999934,164.89718899999934,164.89718899999934,164.89718899999934,164.89718899999934,,008,P008,2025_Feb_01_1223,ConditionRich,2021.2.3,59.930480642684515,
128.0,131.75,23,0.75,Stimuli/P008/things_bumper_04s.jpg,0,0,0.0,0,56,56,56,,,,,,,,,,,,,128.01171989999966,0.01171989999966172,None,165.14740530000017,165.14740530000017,165.14740530000017,165.14740530000017,165.14740530000017,165.14740530000017,165.14740530000017,165.14740530000017,165.14740530000017,165.14740530000017,,008,P008,2025_Feb_01_1223,ConditionRich,2021.2.3,59.930480642684515,
131.75,132.0,41,0.0,Stimuli/Blank.png,0,0,0.0,0,57,57,57,,,,,,,,,,,,,131.76588269999957,0.015882699999565375,None,168.90071999999964,168.90071999999964,168.90071999999964,168.90071999999964,168.90071999999964,168.90071999999964,168.90071999999964,168.90071999999964,168.90071999999964,168.90071999999964,,008,P008,2025_Feb_01_1223,ConditionRich,2021.2.3,59.930480642684515,
132.0,135.75,30,0.75,Stimuli/P008/things_jalapeno_04s.jpg,0,0,0.0,0,58,58,58,,,,,,,,,,,,,131.9992635999988,-0.000736400001187576,None,169.15094529999988,169.15094529999988,169.15094529999988,169.15094529999988,169.15094529999988,169.15094529999988,169.15094529999988,169.15094529999988,169.15094529999988,169.15094529999988,,008,P008,2025_Feb_01_1223,ConditionRich,2021.2.3,59.930480642684515,
135.75,136.0,41,0.0,Stimuli/Blank.png,0,0,0.0,0,59,59,59,,,,,,,,,,,,,135.7701578999986,0.020157899998594075,None,172.90426660000048,172.90426660000048,172.90426660000048,172.90426660000048,172.90426660000048,172.90426660000048,172.90426660000048,172.90426660000048,172.90426660000048,172.90426660000048,,008,P008,2025_Feb_01_1223,ConditionRich,2021.2.3,59.930480642684515,
136.0,139.75,15,0.75,Stimuli/P008/sun_bmeductqpfkygtww.jpg,0,0,0.0,0,60,60,60,,,,,,,,,,,,,136.00207819999923,0.002078199999232311,None,173.15449839999928,173.15449839999928,173.15449839999928,173.15449839999928,173.15449839999928,173.15449839999928,173.15449839999928,173.15449839999928,173.15449839999928,173.15449839999928,,008,P008,2025_Feb_01_1223,ConditionRich,2021.2.3,59.930480642684515,
139.75,140.0,41,0.0,Stimuli/Blank.png,0,0,0.0,0,61,61,61,,,,,,,,,,,,,139.7747447999991,0.024744799999098177,None,176.92449739999938,176.92449739999938,176.92449739999938,176.92449739999938,176.92449739999938,176.92449739999938,176.92449739999938,176.92449739999938,176.92449739999938,176.92449739999938,,008,P008,2025_Feb_01_1223,ConditionRich,2021.2.3,59.930480642684515,
140.0,143.75,7,0.75,Stimuli/P008/sun_babhwrqvnhanonuy.jpg,0,0,0.0,0,62,62,62,,,,,,,,,,,,,140.02457809999942,0.024578099999416736,None,177.1747059999998,177.1747059999998,177.1747059999998,177.1747059999998,177.1747059999998,177.1747059999998,177.1747059999998,177.1747059999998,177.1747059999998,177.1747059999998,,008,P008,2025_Feb_01_1223,ConditionRich,2021.2.3,59.930480642684515,
143.75,144.0,41,0.0,Stimuli/Blank.png,0,0,0.0,0,63,63,63,,,,,,,,,,,,,143.77557109999907,0.025571099999069702,None,180.911338599999,180.911338599999,180.911338599999,180.911338599999,180.911338599999,180.911338599999,180.911338599999,180.911338599999,180.911338599999,180.911338599999,,008,P008,2025_Feb_01_1223,ConditionRich,2021.2.3,59.930480642684515,
144.0,147.75,22,0.75,Stimuli/P008/things_boar_04s.jpg,1,0,0.75,0,64,64,64,,,,,,,,,,,,,144.00917279999885,0.009172799998850678,2,181.14488639999945,181.14488639999945,181.14488639999945,181.14488639999945,181.14488639999945,181.14488639999945,181.14488639999945,181.87887169999885,181.14488639999945,181.14488639999945,0.42143789999863657,008,P008,2025_Feb_01_1223,ConditionRich,2021.2.3,59.930480642684515,
147.75,148.0,41,0.0,Stimuli/Blank.png,0,0,0.0,0,65,65,65,,,,,,,,,,,,,147.7627242999988,0.01272429999880842,None,184.89820770000006,184.89820770000006,184.89820770000006,184.89820770000006,184.89820770000006,184.89820770000006,184.89820770000006,184.89820770000006,184.89820770000006,184.89820770000006,,008,P008,2025_Feb_01_1223,ConditionRich,2021.2.3,59.930480642684515,
148.0,151.75,38,0.75,Stimuli/P008/things_rollerblade_04s.jpg,0,0,0.0,0,66,66,66,,,,,,,,,,,,,148.01326019999942,0.013260199999422184,None,185.1484210999988,185.1484210999988,185.1484210999988,185.1484210999988,185.1484210999988,185.1484210999988,185.1484210999988,185.1484210999988,185.1484210999988,185.1484210999988,,008,P008,2025_Feb_01_1223,ConditionRich,2021.2.3,59.930480642684515,
151.75,152.0,41,0.0,Stimuli/Blank.png,0,0,0.0,0,67,67,67,,,,,,,,,,,,,151.7505145999985,0.0005145999984961236,None,188.88507199999913,188.88507199999913,188.88507199999913,188.88507199999913,188.88507199999913,188.88507199999913,188.88507199999913,188.88507199999913,188.88507199999913,188.88507199999913,,008,P008,2025_Feb_01_1223,ConditionRich,2021.2.3,59.930480642684515,
152.0,155.75,21,0.75,Stimuli/P008/things_baby_04s.jpg,0,0,0.0,0,68,68,68,,,,,,,,,,,,,152.00031849999868,0.00031849999868427403,None,189.1352840999989,189.1352840999989,189.1352840999989,189.1352840999989,189.1352840999989,189.1352840999989,189.1352840999989,189.1352840999989,189.1352840999989,189.1352840999989,,008,P008,2025_Feb_01_1223,ConditionRich,2021.2.3,59.930480642684515,
155.75,156.0,41,0.0,Stimuli/Blank.png,0,0,0.0,0,69,69,69,,,,,,,,,,,,,155.7548812999994,0.004881299999397015,None,192.90529160000006,192.90529160000006,192.90529160000006,192.90529160000006,192.90529160000006,192.90529160000006,192.90529160000006,192.90529160000006,192.90529160000006,192.90529160000006,,008,P008,2025_Feb_01_1223,ConditionRich,2021.2.3,59.930480642684515,
156.0,159.75,16,0.75,Stimuli/P008/sun_bnpggenxuowzsywq.jpg,0,0,0.0,0,70,70,70,,,,,,,,,,,,,156.02000829999997,0.020008299999972223,None,193.15550149999945,193.15550149999945,193.15550149999945,193.15550149999945,193.15550149999945,193.15550149999945,193.15550149999945,193.15550149999945,193.15550149999945,193.15550149999945,,008,P008,2025_Feb_01_1223,ConditionRich,2021.2.3,59.930480642684515,
159.75,160.0,41,0.0,Stimuli/Blank.png,0,0,0.0,0,71,71,71,,,,,,,,,,,,,159.75787019999916,0.007870199999160832,None,196.89216589999887,196.89216589999887,196.89216589999887,196.89216589999887,196.89216589999887,196.89216589999887,196.89216589999887,196.89216589999887,196.89216589999887,196.89216589999887,,008,P008,2025_Feb_01_1223,ConditionRich,2021.2.3,59.930480642684515,
160.0,163.75,6,0.75,Stimuli/P008/sun_azpjjfwsbjdjcopb.jpg,0,0,0.0,0,72,72,72,,,,,,,,,,,,,160.0072436999999,0.007243699999889941,None,197.14237779999894,197.14237779999894,197.14237779999894,197.14237779999894,197.14237779999894,197.14237779999894,197.14237779999894,197.14237779999894,197.14237779999894,197.14237779999894,,008,P008,2025_Feb_01_1223,ConditionRich,2021.2.3,59.930480642684515,
163.75,164.0,41,0.0,Stimuli/Blank.png,0,0,0.0,0,73,73,73,,,,,,,,,,,,,163.7603872999989,0.010387299998910748,None,200.89566899999954,200.89566899999954,200.89566899999954,200.89566899999954,200.89566899999954,200.89566899999954,200.89566899999954,200.89566899999954,200.89566899999954,200.89566899999954,,008,P008,2025_Feb_01_1223,ConditionRich,2021.2.3,59.930480642684515,
164.0,167.75,36,0.75,Stimuli/P008/things_platypus_04s.jpg,0,0,0.0,0,74,74,74,,,,,,,,,,,,,164.0105198000001,0.01051980000011099,2,201.14590589999898,201.14590589999898,201.14590589999898,201.14590589999898,201.14590589999898,201.14590589999898,201.14590589999898,201.14590589999898,201.14590589999898,201.14590589999898,2.908199399998921,008,P008,2025_Feb_01_1223,ConditionRich,2021.2.3,59.930480642684515,
167.75,168.0,41,0.0,Stimuli/Blank.png,0,0,0.0,0,75,75,75,,,,,,,,,,,,,167.76352009999937,0.01352009999936854,None,204.89929569999913,204.89929569999913,204.89929569999913,204.89929569999913,204.89929569999913,204.89929569999913,204.89929569999913,204.89929569999913,204.89929569999913,204.89929569999913,,008,P008,2025_Feb_01_1223,ConditionRich,2021.2.3,59.930480642684515,
168.0,171.75,9,0.75,Stimuli/P008/sun_bcsqogieozpyvuft.jpg,0,0,0.0,0,76,76,76,,,,,,,,,,,,,168.01414560000012,0.014145600000119884,None,205.14944379999906,205.14944379999906,205.14944379999906,205.14944379999906,205.14944379999906,205.14944379999906,205.14944379999906,205.14944379999906,205.14944379999906,205.14944379999906,,008,P008,2025_Feb_01_1223,ConditionRich,2021.2.3,59.930480642684515,
171.75,172.0,41,0.0,Stimuli/Blank.png,0,0,0.0,0,77,77,77,,,,,,,,,,,,,171.75129819999893,0.0012981999989278847,None,208.8860896999995,208.8860896999995,208.8860896999995,208.8860896999995,208.8860896999995,208.8860896999995,208.8860896999995,208.8860896999995,208.8860896999995,208.8860896999995,,008,P008,2025_Feb_01_1223,ConditionRich,2021.2.3,59.930480642684515,
172.0,175.75,2,0.75,Stimuli/P008/sun_ajyzloqaptmicnfr.jpg,0,0,0.0,0,78,78,78,,,,,,,,,,,,,172.00152439999874,0.0015243999987433199,None,209.1363179,209.1363179,209.1363179,209.1363179,209.1363179,209.1363179,209.1363179,209.1363179,209.1363179,209.1363179,,008,P008,2025_Feb_01_1223,ConditionRich,2021.2.3,59.930480642684515,
175.75,176.0,41,0.0,Stimuli/Blank.png,0,0,0.0,0,79,79,79,,,,,,,,,,,,,175.75506069999938,0.005060699999376084,None,212.88964329999908,212.88964329999908,212.88964329999908,212.88964329999908,212.88964329999908,212.88964329999908,212.88964329999908,212.88964329999908,212.88964329999908,212.88964329999908,,008,P008,2025_Feb_01_1223,ConditionRich,2021.2.3,59.930480642684515,
176.0,179.75,24,0.75,Stimuli/P008/things_collar_04s.jpg,0,0,0.0,0,80,80,80,,,,,,,,,,,,,176.00514519999888,0.005145199998878525,None,213.13984829999936,213.13984829999936,213.13984829999936,213.13984829999936,213.13984829999936,213.13984829999936,213.13984829999936,213.13984829999936,213.13984829999936,213.13984829999936,,008,P008,2025_Feb_01_1223,ConditionRich,2021.2.3,59.930480642684515,
179.75,180.0,41,0.0,Stimuli/Blank.png,0,0,0.0,0,81,81,81,,,,,,,,,,,,,179.75961949999873,0.009619499998734682,None,216.90985419999924,216.90985419999924,216.90985419999924,216.90985419999924,216.90985419999924,216.90985419999924,216.90985419999924,216.90985419999924,216.90985419999924,216.90985419999924,,008,P008,2025_Feb_01_1223,ConditionRich,2021.2.3,59.930480642684515,
180.0,196.0,0,0.0,Stimuli/Blank.png,1,1,1.75,0,82,82,82,,,,,,,,,,,,,180.02524589999848,0.025245899998481036,2,217.16007600000012,217.16007600000012,217.16007600000012,217.16007600000012,217.16007600000012,217.16007600000012,218.1442766,218.89493829999992,217.16007600000012,217.16007600000012,1.3721429999986867,008,P008,2025_Feb_01_1223,ConditionRich,2021.2.3,59.930480642684515,
196.0,199.75,7,0.75,Stimuli/P008/sun_babhwrqvnhanonuy.jpg,0,0,0.0,0,83,83,83,,,,,,,,,,,,,196.00529349999852,0.005293499998515472,None,233.14087579999978,233.14087579999978,233.14087579999978,233.14087579999978,233.14087579999978,233.14087579999978,233.14087579999978,233.14087579999978,233.14087579999978,233.14087579999978,,008,P008,2025_Feb_01_1223,ConditionRich,2021.2.3,59.930480642684515,
199.75,200.0,41,0.0,Stimuli/Blank.png,0,0,0.0,0,84,84,84,,,,,,,,,,,,,199.7585756999997,0.008575699999710196,None,236.8941980999989,236.8941980999989,236.8941980999989,236.8941980999989,236.8941980999989,236.8941980999989,236.8941980999989,236.8941980999989,236.8941980999989,236.8941980999989,,008,P008,2025_Feb_01_1223,ConditionRich,2021.2.3,59.930480642684515,
200.0,203.75,8,0.75,Stimuli/P008/sun_bbnepvzvycqjjczs.jpg,0,0,0.0,0,85,85,85,,,,,,,,,,,,,200.0090070999995,0.009007099999507773,None,237.1444164000004,237.1444164000004,237.1444164000004,237.1444164000004,237.1444164000004,237.1444164000004,237.1444164000004,237.1444164000004,237.1444164000004,237.1444164000004,,008,P008,2025_Feb_01_1223,ConditionRich,2021.2.3,59.930480642684515,
203.75,204.0,41,0.0,Stimuli/Blank.png,0,0,0.0,0,86,86,86,,,,,,,,,,,,,203.7627152999994,0.012715299999399576,None,240.8977438999991,240.8977438999991,240.8977438999991,240.8977438999991,240.8977438999991,240.8977438999991,240.8977438999991,240.8977438999991,240.8977438999991,240.8977438999991,,008,P008,2025_Feb_01_1223,ConditionRich,2021.2.3,59.930480642684515,
204.0,207.75,25,0.75,Stimuli/P008/things_credit_card_04s.jpg,0,0,0.0,0,87,87,87,,,,,,,,,,,,,204.01459639999848,0.014596399998481502,None,241.16464189999897,241.16464189999897,241.16464189999897,241.16464189999897,241.16464189999897,241.16464189999897,241.16464189999897,241.16464189999897,241.16464189999897,241.16464189999897,,008,P008,2025_Feb_01_1223,ConditionRich,2021.2.3,59.930480642684515,
207.75,208.0,41,0.0,Stimuli/Blank.png,0,0,0.0,0,88,88,88,,,,,,,,,,,,,207.7654709999988,0.015470999998797197,None,244.90127529999882,244.90127529999882,244.90127529999882,244.90127529999882,244.90127529999882,244.90127529999882,244.90127529999882,244.90127529999882,244.90127529999882,244.90127529999882,,008,P008,2025_Feb_01_1223,ConditionRich,2021.2.3,59.930480642684515,
208.0,211.75,33,0.75,Stimuli/P008/things_man_04s.jpg,1,2,2.75,0,89,89,89,,,,,,,,,,,,,208.01571409999997,0.015714099999968312,2,245.15149779999956,245.15149779999956,245.15149779999956,245.15149779999956,245.15149779999956,245.15149779999956,247.13663499999893,247.88724840000032,245.15149779999956,245.15149779999956,2.6027160000012373,008,P008,2025_Feb_01_1223,ConditionRich,2021.2.3,59.930480642684515,
211.75,212.0,41,0.0,Stimuli/Blank.png,0,0,0.0,0,90,90,90,,,,,,,,,,,,,211.75498460000017,0.004984600000170758,None,248.90482729999894,248.90482729999894,248.90482729999894,248.90482729999894,248.90482729999894,248.90482729999894,248.90482729999894,248.90482729999894,248.90482729999894,248.90482729999894,,008,P008,2025_Feb_01_1223,ConditionRich,2021.2.3,59.930480642684515,
212.0,215.75,18,0.75,Stimuli/P008/sun_borgfidyubrwsuuw.jpg,1,1,1.75,0,91,91,91,,,,,,,,,,,,,212.01945259999957,0.01945259999956761,2,249.15504630000032,249.15504630000032,249.15504630000032,249.15504630000032,249.15504630000032,249.15504630000032,250.13927139999942,250.88990729999932,249.15504630000032,249.15504630000032,1.4573613000011392,008,P008,2025_Feb_01_1223,ConditionRich,2021.2.3,59.930480642684515,
215.75,216.0,41,0.0,Stimuli/Blank.png,0,0,0.0,0,92,92,92,,,,,,,,,,,,,215.7561072999997,0.006107299999712268,None,252.89167239999915,252.89167239999915,252.89167239999915,252.89167239999915,252.89167239999915,252.89167239999915,252.89167239999915,252.89167239999915,252.89167239999915,252.89167239999915,,008,P008,2025_Feb_01_1223,ConditionRich,2021.2.3,59.930480642684515,
216.0,219.75,5,0.75,Stimuli/P008/sun_ayzkwnqsoiycbncn.jpg,0,0,0.0,0,93,93,93,,,,,,,,,,,,,216.00687579999976,0.006875799999761512,None,253.1585942999991,253.1585942999991,253.1585942999991,253.1585942999991,253.1585942999991,253.1585942999991,253.1585942999991,253.1585942999991,253.1585942999991,253.1585942999991,,008,P008,2025_Feb_01_1223,ConditionRich,2021.2.3,59.930480642684515,
219.75,220.0,41,0.0,Stimuli/Blank.png,0,0,0.0,0,94,94,94,,,,,,,,,,,,,219.7761344999999,0.026134499999898253,None,256.91189589999885,256.91189589999885,256.91189589999885,256.91189589999885,256.91189589999885,256.91189589999885,256.91189589999885,256.91189589999885,256.91189589999885,256.91189589999885,,008,P008,2025_Feb_01_1223,ConditionRich,2021.2.3,59.930480642684515,
220.0,223.75,3,0.75,Stimuli/P008/sun_aueftjhdwnvkbzlt.jpg,0,0,0.0,0,95,95,95,,,,,,,,,,,,,220.01023799999894,0.010237999998935265,None,257.1455998000001,257.1455998000001,257.1455998000001,257.1455998000001,257.1455998000001,257.1455998000001,257.1455998000001,257.1455998000001,257.1455998000001,257.1455998000001,,008,P008,2025_Feb_01_1223,ConditionRich,2021.2.3,59.930480642684515,
223.75,224.0,41,0.0,Stimuli/Blank.png,0,0,0.0,0,96,96,96,,,,,,,,,,,,,223.76518880000003,0.015188800000032643,None,260.9154586000004,260.9154586000004,260.9154586000004,260.9154586000004,260.9154586000004,260.9154586000004,260.9154586000004,260.9154586000004,260.9154586000004,260.9154586000004,,008,P008,2025_Feb_01_1223,ConditionRich,2021.2.3,59.930480642684515,
224.0,227.75,19,0.75,Stimuli/P008/sun_brpfgrmubnnjvfkw.jpg,0,0,0.0,0,97,97,97,,,,,,,,,,,,,224.03013779999856,0.030137799998556147,None,261.1656733999989,261.1656733999989,261.1656733999989,261.1656733999989,261.1656733999989,261.1656733999989,261.1656733999989,261.1656733999989,261.1656733999989,261.1656733999989,,008,P008,2025_Feb_01_1223,ConditionRich,2021.2.3,59.930480642684515,
227.75,228.0,41,0.0,Stimuli/Blank.png,0,0,0.0,0,98,98,98,,,,,,,,,,,,,227.75008109999908,8.10999990790151e-05,None,264.88561970000046,264.88561970000046,264.88561970000046,264.88561970000046,264.88561970000046,264.88561970000046,264.88561970000046,264.88561970000046,264.88561970000046,264.88561970000046,,008,P008,2025_Feb_01_1223,ConditionRich,2021.2.3,59.930480642684515,
228.0,231.75,6,0.75,Stimuli/P008/sun_azpjjfwsbjdjcopb.jpg,0,0,0.0,0,99,99,99,,,,,,,,,,,,,228.00087019999955,0.0008701999995537335,None,265.1358449999989,265.1358449999989,265.1358449999989,265.1358449999989,265.1358449999989,265.1358449999989,265.1358449999989,265.1358449999989,265.1358449999989,265.1358449999989,,008,P008,2025_Feb_01_1223,ConditionRich,2021.2.3,59.930480642684515,
231.75,232.0,41,0.0,Stimuli/Blank.png,0,0,0.0,0,100,100,100,,,,,,,,,,,,,231.75469669999984,0.004696699999840348,None,268.8891609000002,268.8891609000002,268.8891609000002,268.8891609000002,268.8891609000002,268.8891609000002,268.8891609000002,268.8891609000002,268.8891609000002,268.8891609000002,,008,P008,2025_Feb_01_1223,ConditionRich,2021.2.3,59.930480642684515,
232.0,235.75,21,0.75,Stimuli/P008/things_baby_04s.jpg,1,0,0.75,0,101,101,101,,,,,,,,,,,,,232.00436479999917,0.00436479999916628,2,269.1393847999989,269.1393847999989,269.1393847999989,269.1393847999989,269.1393847999989,269.1393847999989,269.1393847999989,269.8733570000004,269.1393847999989,269.1393847999989,0.6138644000002387,008,P008,2025_Feb_01_1223,ConditionRich,2021.2.3,59.930480642684515,
235.75,236.0,41,0.0,Stimuli/Blank.png,0,0,0.0,0,102,102,102,,,,,,,,,,,,,235.75795759999892,0.00795759999891743,None,272.8927117000003,272.8927117000003,272.8927117000003,272.8927117000003,272.8927117000003,272.8927117000003,272.8927117000003,272.8927117000003,272.8927117000003,272.8927117000003,,008,P008,2025_Feb_01_1223,ConditionRich,2021.2.3,59.930480642684515,
236.0,239.75,14,0.75,Stimuli/P008/sun_bkvjqgmploznrhxt.jpg,1,3,3.75,0,103,103,103,,,,,,,,,,,,,236.00882060000004,0.008820600000035483,2,273.1596032999987,273.1596032999987,273.1596032999987,273.1596032999987,273.1596032999987,273.1596032999987,276.12890030000017,276.8795535999998,273.1596032999987,273.1596032999987,3.514459699999861,008,P008,2025_Feb_01_1223,ConditionRich,2021.2.3,59.930480642684515,
239.75,240.0,41,0.0,Stimuli/Blank.png,0,0,0.0,0,104,104,104,,,,,,,,,,,,,239.779914499999,0.02991449999899487,None,276.9296132999989,276.9296132999989,276.9296132999989,276.9296132999989,276.9296132999989,276.9296132999989,276.9296132999989,276.9296132999989,276.9296132999989,276.9296132999989,,008,P008,2025_Feb_01_1223,ConditionRich,2021.2.3,59.930480642684515,
240.0,243.75,12,0.75,Stimuli/P008/sun_bitpmyvulluuasab.jpg,0,0,0.0,0,105,105,105,,,,,,,,,,,,,240.02970730000015,0.029707300000154646,None,277.17983599999934,277.17983599999934,277.17983599999934,277.17983599999934,277.17983599999934,277.17983599999934,277.17983599999934,277.17983599999934,277.17983599999934,277.17983599999934,,008,P008,2025_Feb_01_1223,ConditionRich,2021.2.3,59.930480642684515,
243.75,244.0,41,0.0,Stimuli/Blank.png,0,0,0.0,0,106,106,106,,,,,,,,,,,,,243.76411949999965,0.014119499999651453,None,280.8998148999999,280.8998148999999,280.8998148999999,280.8998148999999,280.8998148999999,280.8998148999999,280.8998148999999,280.8998148999999,280.8998148999999,280.8998148999999,,008,P008,2025_Feb_01_1223,ConditionRich,2021.2.3,59.930480642684515,
244.0,247.75,36,0.75,Stimuli/P008/things_platypus_04s.jpg,0,0,0.0,0,107,107,107,,,,,,,,,,,,,244.01495859999886,0.014958599998863065,None,281.15001250000023,281.15001250000023,281.15001250000023,281.15001250000023,281.15001250000023,281.15001250000023,281.15001250000023,281.15001250000023,281.15001250000023,281.15001250000023,,008,P008,2025_Feb_01_1223,ConditionRich,2021.2.3,59.930480642684515,
247.75,248.0,41,0.0,Stimuli/Blank.png,0,0,0.0,0,108,108,108,,,,,,,,,,,,,247.75164140000015,0.0016414000001532258,None,284.8866471000001,284.8866471000001,284.8866471000001,284.8866471000001,284.8866471000001,284.8866471000001,284.8866471000001,284.8866471000001,284.8866471000001,284.8866471000001,,008,P008,2025_Feb_01_1223,ConditionRich,2021.2.3,59.930480642684515,
248.0,251.75,16,0.75,Stimuli/P008/sun_bnpggenxuowzsywq.jpg,0,0,0.0,0,109,109,109,,,,,,,,,,,,,248.00191059999997,0.0019105999999737833,None,285.1368633000002,285.1368633000002,285.1368633000002,285.1368633000002,285.1368633000002,285.1368633000002,285.1368633000002,285.1368633000002,285.1368633000002,285.1368633000002,,008,P008,2025_Feb_01_1223,ConditionRich,2021.2.3,59.930480642684515,
251.75,252.0,41,0.0,Stimuli/Blank.png,0,0,0.0,0,110,110,110,,,,,,,,,,,,,251.75570779999907,0.005707799999072449,None,288.8902022000002,288.8902022000002,288.8902022000002,288.8902022000002,288.8902022000002,288.8902022000002,288.8902022000002,288.8902022000002,288.8902022000002,288.8902022000002,,008,P008,2025_Feb_01_1223,ConditionRich,2021.2.3,59.930480642684515,
252.0,255.75,37,0.75,Stimuli/P008/things_praying_mantis_04s.jpg,1,2,2.75,0,111,111,111,,,,,,,,,,,,,252.00459319999936,0.004593199999362696,2,289.14040919999934,289.14040919999934,289.14040919999934,289.14040919999934,289.14040919999934,289.14040919999934,291.12550120000014,291.8761990999992,289.14040919999934,289.14040919999934,2.3886710000006133,008,P008,2025_Feb_01_1223,ConditionRich,2021.2.3,59.930480642684515,
255.75,256.0,41,0.0,Stimuli/Blank.png,0,0,0.0,0,112,112,112,,,,,,,,,,,,,255.75948040000003,0.009480400000029476,None,292.89374899999893,292.89374899999893,292.89374899999893,292.89374899999893,292.89374899999893,292.89374899999893,292.89374899999893,292.89374899999893,292.89374899999893,292.89374899999893,,008,P008,2025_Feb_01_1223,ConditionRich,2021.2.3,59.930480642684515,
256.0,259.75,26,0.75,Stimuli/P008/things_face_04s.jpg,0,0,0.0,0,113,113,113,,,,,,,,,,,,,256.0093571999987,0.009357199998703436,None,293.14395239999976,293.14395239999976,293.14395239999976,293.14395239999976,293.14395239999976,293.14395239999976,293.14395239999976,293.14395239999976,293.14395239999976,293.14395239999976,,008,P008,2025_Feb_01_1223,ConditionRich,2021.2.3,59.930480642684515,
259.75,260.0,41,0.0,Stimuli/Blank.png,0,0,0.0,0,114,114,114,,,,,,,,,,,,,259.7615028,0.011502800000016578,None,296.89726399999927,296.89726399999927,296.89726399999927,296.89726399999927,296.89726399999927,296.89726399999927,296.89726399999927,296.89726399999927,296.89726399999927,296.89726399999927,,008,P008,2025_Feb_01_1223,ConditionRich,2021.2.3,59.930480642684515,
260.0,263.75,30,0.75,Stimuli/P008/things_jalapeno_04s.jpg,0,0,0.0,0,115,115,115,,,,,,,,,,,,,260.01473669999905,0.014736699999048142,None,297.16419289999976,297.16419289999976,297.16419289999976,297.16419289999976,297.16419289999976,297.16419289999976,297.16419289999976,297.16419289999976,297.16419289999976,297.16419289999976,,008,P008,2025_Feb_01_1223,ConditionRich,2021.2.3,59.930480642684515,
263.75,264.0,41,0.0,Stimuli/Blank.png,0,0,0.0,0,116,116,116,,,,,,,,,,,,,263.76587709999876,0.01587709999876097,None,300.90080920000037,300.90080920000037,300.90080920000037,300.90080920000037,300.90080920000037,300.90080920000037,300.90080920000037,300.90080920000037,300.90080920000037,300.90080920000037,,008,P008,2025_Feb_01_1223,ConditionRich,2021.2.3,59.930480642684515,
264.0,267.75,10,0.75,Stimuli/P008/sun_bdekcgnlcicvgpvq.jpg,0,0,0.0,0,117,117,117,,,,,,,,,,,,,263.9993569999988,-0.000643000001218752,None,301.1510242000004,301.1510242000004,301.1510242000004,301.1510242000004,301.1510242000004,301.1510242000004,301.1510242000004,301.1510242000004,301.1510242000004,301.1510242000004,,008,P008,2025_Feb_01_1223,ConditionRich,2021.2.3,59.930480642684515,
267.75,268.0,41,0.0,Stimuli/Blank.png,0,0,0.0,0,118,118,118,,,,,,,,,,,,,267.76945389999855,0.019453899998552515,None,304.9043595000003,304.9043595000003,304.9043595000003,304.9043595000003,304.9043595000003,304.9043595000003,304.9043595000003,304.9043595000003,304.9043595000003,304.9043595000003,,008,P008,2025_Feb_01_1223,ConditionRich,2021.2.3,59.930480642684515,
268.0,271.75,23,0.75,Stimuli/P008/things_bumper_04s.jpg,0,0,0.0,0,119,119,119,,,,,,,,,,,,,268.0034418999985,0.0034418999985064147,None,305.1545757999993,305.1545757999993,305.1545757999993,305.1545757999993,305.1545757999993,305.1545757999993,305.1545757999993,305.1545757999993,305.1545757999993,305.1545757999993,,008,P008,2025_Feb_01_1223,ConditionRich,2021.2.3,59.930480642684515,
271.75,272.0,41,0.0,Stimuli/Blank.png,0,0,0.0,0,120,120,120,,,,,,,,,,,,,271.7744256999995,0.024425699999483186,None,308.9245957000003,308.9245957000003,308.9245957000003,308.9245957000003,308.9245957000003,308.9245957000003,308.9245957000003,308.9245957000003,308.9245957000003,308.9245957000003,,008,P008,2025_Feb_01_1223,ConditionRich,2021.2.3,59.930480642684515,
272.0,275.75,13,0.75,Stimuli/P008/sun_bkhuvtsqontzwtbo.jpg,0,0,0.0,0,121,121,121,,,,,,,,,,,,,272.0228673999991,0.022867399999086047,None,309.15811889999895,309.15811889999895,309.15811889999895,309.15811889999895,309.15811889999895,309.15811889999895,309.15811889999895,309.15811889999895,309.15811889999895,309.15811889999895,,008,P008,2025_Feb_01_1223,ConditionRich,2021.2.3,59.930480642684515,
275.75,276.0,41,0.0,Stimuli/Blank.png,0,0,0.0,0,122,122,122,,,,,,,,,,,,,275.7598859999998,0.00988599999982398,None,312.8947580999993,312.8947580999993,312.8947580999993,312.8947580999993,312.8947580999993,312.8947580999993,312.8947580999993,312.8947580999993,312.8947580999993,312.8947580999993,,008,P008,2025_Feb_01_1223,ConditionRich,2021.2.3,59.930480642684515,
276.0,292.0,0,0.0,Stimuli/Blank.png,1,11,11.75,0,123,123,123,,,,,,,,,,,,,276.00991799999974,0.009917999999743188,2,313.14497889999984,313.14497889999984,313.14497889999984,313.14497889999984,313.14497889999984,313.14497889999984,324.1380700999998,324.88872509999965,313.14497889999984,313.14497889999984,11.504159000000072,008,P008,2025_Feb_01_1223,ConditionRich,2021.2.3,59.930480642684515,
292.0,295.75,40,0.75,Stimuli/P008/things_woman_04s.jpg,1,3,3.75,0,124,124,124,,,,,,,,,,,,,292.00791260000005,0.007912600000054226,2,329.1591465999991,329.1591465999991,329.1591465999991,329.1591465999991,329.1591465999991,329.1591465999991,332.12845170000037,332.8790995999989,329.1591465999991,329.1591465999991,3.4632017000003543,008,P008,2025_Feb_01_1223,ConditionRich,2021.2.3,59.930480642684515,
295.75,296.0,41,0.0,Stimuli/Blank.png,0,0,0.0,0,125,125,125,,,,,,,,,,,,,295.7767707999992,0.026770799999212613,None,332.9124594999994,332.9124594999994,332.9124594999994,332.9124594999994,332.9124594999994,332.9124594999994,332.9124594999994,332.9124594999994,332.9124594999994,332.9124594999994,,008,P008,2025_Feb_01_1223,ConditionRich,2021.2.3,59.930480642684515,
296.0,299.75,22,0.75,Stimuli/P008/things_boar_04s.jpg,0,0,0.0,0,126,126,126,,,,,,,,,,,,,296.0104777999986,0.010477799998625414,None,333.14600210000026,333.14600210000026,333.14600210000026,333.14600210000026,333.14600210000026,333.14600210000026,333.14600210000026,333.14600210000026,333.14600210000026,333.14600210000026,,008,P008,2025_Feb_01_1223,ConditionRich,2021.2.3,59.930480642684515,
299.75,300.0,41,0.0,Stimuli/Blank.png,0,0,0.0,0,127,127,127,,,,,,,,,,,,,299.7644255999985,0.014425599998503458,None,336.89932579999913,336.89932579999913,336.89932579999913,336.89932579999913,336.89932579999913,336.89932579999913,336.89932579999913,336.89932579999913,336.89932579999913,336.89932579999913,,008,P008,2025_Feb_01_1223,ConditionRich,2021.2.3,59.930480642684515,
300.0,303.75,38,0.75,Stimuli/P008/things_rollerblade_04s.jpg,0,0,0.0,0,128,128,128,,,,,,,,,,,,,300.01405389999854,0.014053899998543784,None,337.1495395000002,337.1495395000002,337.1495395000002,337.1495395000002,337.1495395000002,337.1495395000002,337.1495395000002,337.1495395000002,337.1495395000002,337.1495395000002,,008,P008,2025_Feb_01_1223,ConditionRich,2021.2.3,59.930480642684515,
303.75,304.0,41,0.0,Stimuli/Blank.png,0,0,0.0,0,129,129,129,,,,,,,,,,,,,303.7515292999997,0.0015292999996745493,None,340.88618099999985,340.88618099999985,340.88618099999985,340.88618099999985,340.88618099999985,340.88618099999985,340.88618099999985,340.88618099999985,340.88618099999985,340.88618099999985,,008,P008,2025_Feb_01_1223,ConditionRich,2021.2.3,59.930480642684515,
304.0,307.75,2,0.75,Stimuli/P008/sun_ajyzloqaptmicnfr.jpg,0,0,0.0,0,130,130,130,,,,,,,,,,,,,304.00104269999974,0.0010426999997434905,None,341.13640680000026,341.13640680000026,341.13640680000026,341.13640680000026,341.13640680000026,341.13640680000026,341.13640680000026,341.13640680000026,341.13640680000026,341.13640680000026,,008,P008,2025_Feb_01_1223,ConditionRich,2021.2.3,59.930480642684515,
307.75,308.0,41,0.0,Stimuli/Blank.png,0,0,0.0,0,131,131,131,,,,,,,,,,,,,307.7541784999994,0.0041784999993979,None,344.8898921,344.8898921,344.8898921,344.8898921,344.8898921,344.8898921,344.8898921,344.8898921,344.8898921,344.8898921,,008,P008,2025_Feb_01_1223,ConditionRich,2021.2.3,59.930480642684515,
308.0,311.75,29,0.75,Stimuli/P008/things_hawk_04s.jpg,0,0,0.0,0,132,132,132,,,,,,,,,,,,,308.0053575999991,0.005357599999115337,None,345.1566239999993,345.1566239999993,345.1566239999993,345.1566239999993,345.1566239999993,345.1566239999993,345.1566239999993,345.1566239999993,345.1566239999993,345.1566239999993,,008,P008,2025_Feb_01_1223,ConditionRich,2021.2.3,59.930480642684515,
311.75,312.0,41,0.0,Stimuli/Blank.png,0,0,0.0,0,133,133,133,,,,,,,,,,,,,311.77536019999934,0.025360199999340693,None,348.9099508999989,348.9099508999989,348.9099508999989,348.9099508999989,348.9099508999989,348.9099508999989,348.9099508999989,348.9099508999989,348.9099508999989,348.9099508999989,,008,P008,2025_Feb_01_1223,ConditionRich,2021.2.3,59.930480642684515,
312.0,315.75,4,0.75,Stimuli/P008/sun_awqukazlzsxaokai.jpg,0,0,0.0,0,134,134,134,,,,,,,,,,,,,312.00904269999955,0.009042699999554316,None,349.1601665999988,349.1601665999988,349.1601665999988,349.1601665999988,349.1601665999988,349.1601665999988,349.1601665999988,349.1601665999988,349.1601665999988,349.1601665999988,,008,P008,2025_Feb_01_1223,ConditionRich,2021.2.3,59.930480642684515,
315.75,316.0,41,0.0,Stimuli/Blank.png,0,0,0.0,0,135,135,135,,,,,,,,,,,,,315.77835779999987,0.028357799999866984,None,352.913528699999,352.913528699999,352.913528699999,352.913528699999,352.913528699999,352.913528699999,352.913528699999,352.913528699999,352.913528699999,352.913528699999,,008,P008,2025_Feb_01_1223,ConditionRich,2021.2.3,59.930480642684515,
316.0,319.75,31,0.75,Stimuli/P008/things_jug_04s.jpg,0,0,0.0,0,136,136,136,,,,,,,,,,,,,316.0119857999998,0.011985799999820301,None,353.1470250000002,353.1470250000002,353.1470250000002,353.1470250000002,353.1470250000002,353.1470250000002,353.1470250000002,353.1470250000002,353.1470250000002,353.1470250000002,,008,P008,2025_Feb_01_1223,ConditionRich,2021.2.3,59.930480642684515,
319.75,320.0,41,0.0,Stimuli/Blank.png,0,0,0.0,0,137,137,137,,,,,,,,,,,,,319.7653391999993,0.015339199999289121,None,356.9003493,356.9003493,356.9003493,356.9003493,356.9003493,356.9003493,356.9003493,356.9003493,356.9003493,356.9003493,,008,P008,2025_Feb_01_1223,ConditionRich,2021.2.3,59.930480642684515,
320.0,323.75,20,0.75,Stimuli/P008/sun_btrxtfbwtggtrpfv.jpg,0,0,0.0,0,138,138,138,,,,,,,,,,,,,320.015977699999,0.015977699998984463,None,357.1672825000005,357.1672825000005,357.1672825000005,357.1672825000005,357.1672825000005,357.1672825000005,357.1672825000005,357.1672825000005,357.1672825000005,357.1672825000005,,008,P008,2025_Feb_01_1223,ConditionRich,2021.2.3,59.930480642684515,
323.75,324.0,41,0.0,Stimuli/Blank.png,0,0,0.0,0,139,139,139,,,,,,,,,,,,,323.7688612999991,0.018861299999116454,None,360.90389179999875,360.90389179999875,360.90389179999875,360.90389179999875,360.90389179999875,360.90389179999875,360.90389179999875,360.90389179999875,360.90389179999875,360.90389179999875,,008,P008,2025_Feb_01_1223,ConditionRich,2021.2.3,59.930480642684515,
324.0,327.75,24,0.75,Stimuli/P008/things_collar_04s.jpg,1,0,0.75,0,140,140,140,,,,,,,,,,,,,324.0018806999997,0.001880699999674107,2,361.13746379999975,361.13746379999975,361.13746379999975,361.13746379999975,361.13746379999975,361.13746379999975,361.13746379999975,361.8714651999999,361.13746379999975,361.13746379999975,0.5328730999990512,008,P008,2025_Feb_01_1223,ConditionRich,2021.2.3,59.930480642684515,
327.75,328.0,41,0.0,Stimuli/Blank.png,0,0,0.0,0,141,141,141,,,,,,,,,,,,,327.75563859999966,0.005638599999656435,None,364.89074489999985,364.89074489999985,364.89074489999985,364.89074489999985,364.89074489999985,364.89074489999985,364.89074489999985,364.89074489999985,364.89074489999985,364.89074489999985,,008,P008,2025_Feb_01_1223,ConditionRich,2021.2.3,59.930480642684515,
328.0,331.75,39,0.75,Stimuli/P008/things_showerhead_04s.jpg,0,0,0.0,0,142,142,142,,,,,,,,,,,,,328.00597169999855,0.005971699998553959,None,365.1409743999993,365.1409743999993,365.1409743999993,365.1409743999993,365.1409743999993,365.1409743999993,365.1409743999993,365.1409743999993,365.1409743999993,365.1409743999993,,008,P008,2025_Feb_01_1223,ConditionRich,2021.2.3,59.930480642684515,
331.75,332.0,41,0.0,Stimuli/Blank.png,0,0,0.0,0,143,143,143,,,,,,,,,,,,,331.75853259999894,0.008532599998943624,None,368.8942881999992,368.8942881999992,368.8942881999992,368.8942881999992,368.8942881999992,368.8942881999992,368.8942881999992,368.8942881999992,368.8942881999992,368.8942881999992,,008,P008,2025_Feb_01_1223,ConditionRich,2021.2.3,59.930480642684515,
332.0,335.75,15,0.75,Stimuli/P008/sun_bmeductqpfkygtww.jpg,0,0,0.0,0,144,144,144,,,,,,,,,,,,,332.0094388999987,0.009438899998713168,2,369.1611938999995,369.1611938999995,369.1611938999995,369.1611938999995,369.1611938999995,369.1611938999995,369.1611938999995,369.1611938999995,369.1611938999995,369.1611938999995,3.5792008000007627,008,P008,2025_Feb_01_1223,ConditionRich,2021.2.3,59.930480642684515,
335.75,336.0,41,0.0,Stimuli/Blank.png,0,0,0.0,0,145,145,145,,,,,,,,,,,,,335.77952019999975,0.02952019999975164,None,372.91453269999874,372.91453269999874,372.91453269999874,372.91453269999874,372.91453269999874,372.91453269999874,372.91453269999874,372.91453269999874,372.91453269999874,372.91453269999874,,008,P008,2025_Feb_01_1223,ConditionRich,2021.2.3,59.930480642684515,
336.0,339.75,9,0.75,Stimuli/P008/sun_bcsqogieozpyvuft.jpg,0,0,0.0,0,146,146,146,,,,,,,,,,,,,336.01232029999846,0.01232029999846418,None,373.164733399999,373.164733399999,373.164733399999,373.164733399999,373.164733399999,373.164733399999,373.164733399999,373.164733399999,373.164733399999,373.164733399999,,008,P008,2025_Feb_01_1223,ConditionRich,2021.2.3,59.930480642684515,
339.75,340.0,41,0.0,Stimuli/Blank.png,0,0,0.0,0,147,147,147,,,,,,,,,,,,,339.7833430999999,0.03334309999991092,None,376.9180534999996,376.9180534999996,376.9180534999996,376.9180534999996,376.9180534999996,376.9180534999996,376.9180534999996,376.9180534999996,376.9180534999996,376.9180534999996,,008,P008,2025_Feb_01_1223,ConditionRich,2021.2.3,59.930480642684515,
340.0,343.75,32,0.75,Stimuli/P008/things_maggot_04s.jpg,1,3,3.75,0,148,148,148,,,,,,,,,,,,,340.00000309999996,3.099999958067201e-06,2,377.1349152999992,377.1349152999992,377.1349152999992,377.1349152999992,377.1349152999992,377.1349152999992,380.12088380000023,380.8716222000003,377.1349152999992,377.1349152999992,3.3694193999999698,008,P008,2025_Feb_01_1223,ConditionRich,2021.2.3,59.930480642684515,
343.75,344.0,41,0.0,Stimuli/Blank.png,0,0,0.0,0,149,149,149,,,,,,,,,,,,,343.75572549999924,0.005725499999243766,None,380.9049182999988,380.9049182999988,380.9049182999988,380.9049182999988,380.9049182999988,380.9049182999988,380.9049182999988,380.9049182999988,380.9049182999988,380.9049182999988,,008,P008,2025_Feb_01_1223,ConditionRich,2021.2.3,59.930480642684515,
344.0,347.75,34,0.75,Stimuli/P008/things_moose_04s.jpg,0,0,0.0,0,150,150,150,,,,,,,,,,,,,344.01942139999846,0.01942139999846404,None,381.15513850000025,381.15513850000025,381.15513850000025,381.15513850000025,381.15513850000025,381.15513850000025,381.15513850000025,381.15513850000025,381.15513850000025,381.15513850000025,,008,P008,2025_Feb_01_1223,ConditionRich,2021.2.3,59.930480642684515,
347.75,348.0,41,0.0,Stimuli/Blank.png,0,0,0.0,0,151,151,151,,,,,,,,,,,,,347.7561317999989,0.006131799998911447,None,384.89178009999887,384.89178009999887,384.89178009999887,384.89178009999887,384.89178009999887,384.89178009999887,384.89178009999887,384.89178009999887,384.89178009999887,384.89178009999887,,008,P008,2025_Feb_01_1223,ConditionRich,2021.2.3,59.930480642684515,
348.0,351.75,27,0.75,Stimuli/P008/things_fur_coat_04s.jpg,1,3,3.75,0,152,152,152,,,,,,,,,,,,,348.0064519999996,0.006451999999626423,2,385.1419982999996,385.1419982999996,385.1419982999996,385.1419982999996,385.1419982999996,385.1419982999996,388.12801059999947,388.87863669999933,385.1419982999996,385.1419982999996,3.359222499999305,008,P008,2025_Feb_01_1223,ConditionRich,2021.2.3,59.930480642684515,
351.75,352.0,41,0.0,Stimuli/Blank.png,0,0,0.0,0,153,153,153,,,,,,,,,,,,,351.7603717000002,0.010371700000177952,None,388.89530659999946,388.89530659999946,388.89530659999946,388.89530659999946,388.89530659999946,388.89530659999946,388.89530659999946,388.89530659999946,388.89530659999946,388.89530659999946,,008,P008,2025_Feb_01_1223,ConditionRich,2021.2.3,59.930480642684515,
352.0,355.75,1,0.75,Stimuli/P008/sun_abrlrupzcrwpxqfc.jpg,0,0,0.0,0,154,154,154,,,,,,,,,,,,,352.0097836999994,0.009783699999388773,None,389.1455361999997,389.1455361999997,389.1455361999997,389.1455361999997,389.1455361999997,389.1455361999997,389.1455361999997,389.1455361999997,389.1455361999997,389.1455361999997,,008,P008,2025_Feb_01_1223,ConditionRich,2021.2.3,59.930480642684515,
355.75,356.0,41,0.0,Stimuli/Blank.png,0,0,0.0,0,155,155,155,,,,,,,,,,,,,355.7659593999997,0.015959399999701418,None,392.9155633999999,392.9155633999999,392.9155633999999,392.9155633999999,392.9155633999999,392.9155633999999,392.9155633999999,392.9155633999999,392.9155633999999,392.9155633999999,,008,P008,2025_Feb_01_1223,ConditionRich,2021.2.3,59.930480642684515,
356.0,359.75,17,0.75,Stimuli/P008/sun_bnsxdhbsafbdyncy.jpg,0,0,0.0,0,156,156,156,,,,,,,,,,,,,356.01432119999845,0.01432119999844872,None,393.1657662999987,393.1657662999987,393.1657662999987,393.1657662999987,393.1657662999987,393.1657662999987,393.1657662999987,393.1657662999987,393.1657662999987,393.1657662999987,,008,P008,2025_Feb_01_1223,ConditionRich,2021.2.3,59.930480642684515,
359.75,360.0,41,0.0,Stimuli/Blank.png,0,0,0.0,0,157,157,157,,,,,,,,,,,,,359.7666793999997,0.016679399999702582,None,396.9023890999997,396.9023890999997,396.9023890999997,396.9023890999997,396.9023890999997,396.9023890999997,396.9023890999997,396.9023890999997,396.9023890999997,396.9023890999997,,008,P008,2025_Feb_01_1223,ConditionRich,2021.2.3,59.930480642684515,
360.0,363.75,28,0.75,Stimuli/P008/things_girl_04s.jpg,0,0,0.0,0,158,158,158,,,,,,,,,,,,,360.0004836999997,0.0004836999996769009,None,397.1359315999998,397.1359315999998,397.1359315999998,397.1359315999998,397.1359315999998,397.1359315999998,397.1359315999998,397.1359315999998,397.1359315999998,397.1359315999998,,008,P008,2025_Feb_01_1223,ConditionRich,2021.2.3,59.930480642684515,
363.75,364.0,41,0.0,Stimuli/Blank.png,0,0,0.0,0,159,159,159,,,,,,,,,,,,,363.7541430000001,0.0041430000001128064,None,400.8892658999994,400.8892658999994,400.8892658999994,400.8892658999994,400.8892658999994,400.8892658999994,400.8892658999994,400.8892658999994,400.8892658999994,400.8892658999994,,008,P008,2025_Feb_01_1223,ConditionRich,2021.2.3,59.930480642684515,
364.0,367.75,11,0.75,Stimuli/P008/sun_bdsriuscubkvzrmt.jpg,0,0,0.0,0,160,160,160,,,,,,,,,,,,,364.0053828,0.005382800000006682,None,401.156157899999,401.156157899999,401.156157899999,401.156157899999,401.156157899999,401.156157899999,401.156157899999,401.156157899999,401.156157899999,401.156157899999,,008,P008,2025_Feb_01_1223,ConditionRich,2021.2.3,59.930480642684515,
367.75,368.0,41,0.0,Stimuli/Blank.png,0,0,0.0,0,161,161,161,,,,,,,,,,,,,367.7746329999991,0.02463299999908486,None,404.9094852999988,404.9094852999988,404.9094852999988,404.9094852999988,404.9094852999988,404.9094852999988,404.9094852999988,404.9094852999988,404.9094852999988,404.9094852999988,,008,P008,2025_Feb_01_1223,ConditionRich,2021.2.3,59.930480642684515,
368.0,371.75,35,0.75,Stimuli/P008/things_pecan_04s.jpg,0,0,0.0,0,162,162,162,,,,,,,,,,,,,368.00804979999884,0.00804979999884381,None,405.1597020999998,405.1597020999998,405.1597020999998,405.1597020999998,405.1597020999998,405.1597020999998,405.1597020999998,405.1597020999998,405.1597020999998,405.1597020999998,,008,P008,2025_Feb_01_1223,ConditionRich,2021.2.3,59.930480642684515,
371.75,372.0,41,0.0,Stimuli/Blank.png,0,0,0.0,0,163,163,163,,,,,,,,,,,,,371.7773008999993,0.027300899999318062,None,408.9130236000001,408.9130236000001,408.9130236000001,408.9130236000001,408.9130236000001,408.9130236000001,408.9130236000001,408.9130236000001,408.9130236000001,408.9130236000001,,008,P008,2025_Feb_01_1223,ConditionRich,2021.2.3,59.930480642684515,
372.0,388.0,0,0.0,Stimuli/Blank.png,1,9,9.75,0,164,164,164,,,,,,,,,,,,,372.0116819999985,0.011681999998472747,2,409.14656509999986,409.14656509999986,409.14656509999986,409.14656509999986,409.14656509999986,409.14656509999986,418.1378578999993,418.8885290999988,409.14656509999986,409.14656509999986,9.489701200000127,008,P008,2025_Feb_01_1223,ConditionRich,2021.2.3,59.930480642684515,
