eventStartTime,eventEndTime,eventCond,imSize,imFile,responseEvent,fixRespStart,fixRespEnd,Events.thisRepN,Events.thisTrialN,Events.thisN,Events.thisIndex,Instructions.started,Instructions.stopped,participantReadyResponse.keys,participantReadyResponse.rt,participantReadyResponse.started,participantReadyResponse.stopped,startWaitforTrigger,triggerResponse.keys,triggerResponse.rt,triggerResponse.started,triggerResponse.stopped,globalTimer,actualStartTime,startTimingDiff,participantResponse.keys,participantResponse.started,participantResponse.stopped,image.started,image.stopped,fixationOutside.started,fixationOutside.stopped,fixationResponse.started,fixationResponse.stopped,fixationInside.started,fixationInside.stopped,participantResponse.rt,session,participant,date,expName,psychopyVersion,frameRate,
,,,,,,,,,,,,10.437802599997667,None,1,17.9964504999989,10.437802599997667,None,,,,,,,,,,,,,,,,,,,,,001,P009,2025_Feb_01_1311,ConditionRich,2021.2.3,59.94571316140396,
,,,,,,,,,,,,,,,,,,28.44051579999723,5,13.558018800002174,28.45321100000001,None,,,,,,,,,,,,,,,,001,P009,2025_Feb_01_1311,ConditionRich,2021.2.3,59.94571316140396,
0.0,4.0,0,0.0,Stimuli/Blank.png,0,0,0.0,0,0,0,0,,,,,,,,,,,,42.018636400000105,0.01690249999955995,0.01690249999955995,None,42.06521559999965,None,42.06521559999965,None,42.06521559999965,None,42.06521559999965,42.06521559999965,42.06521559999965,None,,001,P009,2025_Feb_01_1311,ConditionRich,2021.2.3,59.94571316140396,
4.0,7.75,37,0.75,Stimuli/P009/things_pug_05s.jpg,0,0,0.0,0,1,1,1,,,,,,,,,,,,,4.020600399999239,0.020600399999239016,None,46.0857376999993,46.0857376999993,46.0857376999993,46.0857376999993,46.0857376999993,46.0857376999993,46.0857376999993,46.0857376999993,46.0857376999993,46.0857376999993,,001,P009,2025_Feb_01_1311,ConditionRich,2021.2.3,59.94571316140396,
7.75,8.0,41,0.0,Stimuli/Blank.png,0,0,0.0,0,2,2,2,,,,,,,,,,,,,7.790288200001669,0.040288200001668883,None,49.82240749999983,49.82240749999983,49.82240749999983,49.82240749999983,49.82240749999983,49.82240749999983,49.82240749999983,49.82240749999983,49.82240749999983,49.82240749999983,,001,P009,2025_Feb_01_1311,ConditionRich,2021.2.3,59.94571316140396,
8.0,11.75,33,0.75,Stimuli/P009/things_lizard_05n.jpg,0,0,0.0,0,3,3,3,,,,,,,,,,,,,8.006434700000682,0.006434700000681914,None,50.07230729999719,50.07230729999719,50.07230729999719,50.07230729999719,50.07230729999719,50.07230729999719,50.07230729999719,50.07230729999719,50.07230729999719,50.07230729999719,,001,P009,2025_Feb_01_1311,ConditionRich,2021.2.3,59.94571316140396,
11.75,12.0,41,0.0,Stimuli/Blank.png,0,0,0.0,0,4,4,4,,,,,,,,,,,,,11.794524900000397,0.04452490000039688,None,53.84232329999941,53.84232329999941,53.84232329999941,53.84232329999941,53.84232329999941,53.84232329999941,53.84232329999941,53.84232329999941,53.84232329999941,53.84232329999941,,001,P009,2025_Feb_01_1311,ConditionRich,2021.2.3,59.94571316140396,
12.0,15.75,32,0.75,Stimuli/P009/things_hawk_05s.jpg,1,2,2.75,0,5,5,5,,,,,,,,,,,,,12.027514000001247,0.02751400000124704,1,54.07585299999846,54.07585299999846,54.07585299999846,54.07585299999846,54.07585299999846,54.07585299999846,56.0609031999993,56.811603999998624,54.07585299999846,54.07585299999846,2.530370500000572,001,P009,2025_Feb_01_1311,ConditionRich,2021.2.3,59.94571316140396,
15.75,16.0,41,0.0,Stimuli/Blank.png,0,0,0.0,0,6,6,6,,,,,,,,,,,,,15.780091500000708,0.030091500000708038,None,57.81251329999941,57.81251329999941,57.81251329999941,57.81251329999941,57.81251329999941,57.81251329999941,57.81251329999941,57.81251329999941,57.81251329999941,57.81251329999941,,001,P009,2025_Feb_01_1311,ConditionRich,2021.2.3,59.94571316140396,
16.0,19.75,5,0.75,Stimuli/P009/sun_akqvdmuauoxeafrj.jpg,0,0,0.0,0,7,7,7,,,,,,,,,,,,,16.01368690000163,0.01368690000163042,None,58.062700999998924,58.062700999998924,58.062700999998924,58.062700999998924,58.062700999998924,58.062700999998924,58.062700999998924,58.062700999998924,58.062700999998924,58.062700999998924,,001,P009,2025_Feb_01_1311,ConditionRich,2021.2.3,59.94571316140396,
19.75,20.0,41,0.0,Stimuli/Blank.png,0,0,0.0,0,8,8,8,,,,,,,,,,,,,19.76682190000065,0.016821900000650203,None,61.79934809999759,61.79934809999759,61.79934809999759,61.79934809999759,61.79934809999759,61.79934809999759,61.79934809999759,61.79934809999759,61.79934809999759,61.79934809999759,,001,P009,2025_Feb_01_1311,ConditionRich,2021.2.3,59.94571316140396,
20.0,23.75,1,0.75,Stimuli/P009/sun_abqdlumenyzawlme.jpg,0,0,0.0,0,9,9,9,,,,,,,,,,,,,20.0003899000003,0.0003899000003002584,None,62.04951929999879,62.04951929999879,62.04951929999879,62.04951929999879,62.04951929999879,62.04951929999879,62.04951929999879,62.04951929999879,62.04951929999879,62.04951929999879,,001,P009,2025_Feb_01_1311,ConditionRich,2021.2.3,59.94571316140396,
23.75,24.0,41,0.0,Stimuli/Blank.png,0,0,0.0,0,10,10,10,,,,,,,,,,,,,23.7701550999991,0.020155099999101367,None,65.80288870000004,65.80288870000004,65.80288870000004,65.80288870000004,65.80288870000004,65.80288870000004,65.80288870000004,65.80288870000004,65.80288870000004,65.80288870000004,,001,P009,2025_Feb_01_1311,ConditionRich,2021.2.3,59.94571316140396,
24.0,27.75,20,0.75,Stimuli/P009/sun_ddsiwinthvyejghq.jpg,0,0,0.0,0,11,11,11,,,,,,,,,,,,,24.004470399999263,0.0044703999992634635,None,66.0530945999999,66.0530945999999,66.0530945999999,66.0530945999999,66.0530945999999,66.0530945999999,66.0530945999999,66.0530945999999,66.0530945999999,66.0530945999999,,001,P009,2025_Feb_01_1311,ConditionRich,2021.2.3,59.94571316140396,
27.75,28.0,41,0.0,Stimuli/Blank.png,0,0,0.0,0,12,12,12,,,,,,,,,,,,,27.774023699999816,0.024023699999816017,None,69.80643169999894,69.80643169999894,69.80643169999894,69.80643169999894,69.80643169999894,69.80643169999894,69.80643169999894,69.80643169999894,69.80643169999894,69.80643169999894,,001,P009,2025_Feb_01_1311,ConditionRich,2021.2.3,59.94571316140396,
28.0,31.75,30,0.75,Stimuli/P009/things_fire_05s.jpg,0,0,0.0,0,13,13,13,,,,,,,,,,,,,28.006741600001988,0.0067416000019875355,None,70.03996819999884,70.03996819999884,70.03996819999884,70.03996819999884,70.03996819999884,70.03996819999884,70.03996819999884,70.03996819999884,70.03996819999884,70.03996819999884,,001,P009,2025_Feb_01_1311,ConditionRich,2021.2.3,59.94571316140396,
31.75,32.0,41,0.0,Stimuli/Blank.png,0,0,0.0,0,14,14,14,,,,,,,,,,,,,31.760436299999128,0.010436299999128096,None,73.79340179999781,73.79340179999781,73.79340179999781,73.79340179999781,73.79340179999781,73.79340179999781,73.79340179999781,73.79340179999781,73.79340179999781,73.79340179999781,,001,P009,2025_Feb_01_1311,ConditionRich,2021.2.3,59.94571316140396,
32.0,35.75,36,0.75,Stimuli/P009/things_pelican_05s.jpg,0,0,0.0,0,15,15,15,,,,,,,,,,,,,32.01119599999947,0.011195999999472406,None,74.07687579999765,74.07687579999765,74.07687579999765,74.07687579999765,74.07687579999765,74.07687579999765,74.07687579999765,74.07687579999765,74.07687579999765,74.07687579999765,,001,P009,2025_Feb_01_1311,ConditionRich,2021.2.3,59.94571316140396,
35.75,36.0,41,0.0,Stimuli/Blank.png,0,0,0.0,0,16,16,16,,,,,,,,,,,,,35.79853440000079,0.0485344000007899,None,77.8302134000005,77.8302134000005,77.8302134000005,77.8302134000005,77.8302134000005,77.8302134000005,77.8302134000005,77.8302134000005,77.8302134000005,77.8302134000005,,001,P009,2025_Feb_01_1311,ConditionRich,2021.2.3,59.94571316140396,
36.0,39.75,17,0.75,Stimuli/P009/sun_brkrfjpyfglmigkk.jpg,0,0,0.0,0,17,17,17,,,,,,,,,,,,,36.014348299999256,0.014348299999255687,None,78.04705089999698,78.04705089999698,78.04705089999698,78.04705089999698,78.04705089999698,78.04705089999698,78.04705089999698,78.04705089999698,78.04705089999698,78.04705089999698,,001,P009,2025_Feb_01_1311,ConditionRich,2021.2.3,59.94571316140396,
39.75,40.0,41,0.0,Stimuli/Blank.png,0,0,0.0,0,18,18,18,,,,,,,,,,,,,39.750555700000405,0.0005557000004046131,None,81.78368489999775,81.78368489999775,81.78368489999775,81.78368489999775,81.78368489999775,81.78368489999775,81.78368489999775,81.78368489999775,81.78368489999775,81.78368489999775,,001,P009,2025_Feb_01_1311,ConditionRich,2021.2.3,59.94571316140396,
40.0,43.75,38,0.75,Stimuli/P009/things_roadsweeper_05s.jpg,0,0,0.0,0,19,19,19,,,,,,,,,,,,,40.00119600000107,0.0011960000010731164,None,82.05061139999816,82.05061139999816,82.05061139999816,82.05061139999816,82.05061139999816,82.05061139999816,82.05061139999816,82.05061139999816,82.05061139999816,82.05061139999816,,001,P009,2025_Feb_01_1311,ConditionRich,2021.2.3,59.94571316140396,
43.75,44.0,41,0.0,Stimuli/Blank.png,0,0,0.0,0,20,20,20,,,,,,,,,,,,,43.77060790000178,0.020607900001778034,None,85.80390640000041,85.80390640000041,85.80390640000041,85.80390640000041,85.80390640000041,85.80390640000041,85.80390640000041,85.80390640000041,85.80390640000041,85.80390640000041,,001,P009,2025_Feb_01_1311,ConditionRich,2021.2.3,59.94571316140396,
44.0,47.75,23,0.75,Stimuli/P009/things_charger_05s.jpg,0,0,0.0,0,21,21,21,,,,,,,,,,,,,44.0043740000001,0.004374000000098022,None,86.07081239999752,86.07081239999752,86.07081239999752,86.07081239999752,86.07081239999752,86.07081239999752,86.07081239999752,86.07081239999752,86.07081239999752,86.07081239999752,,001,P009,2025_Feb_01_1311,ConditionRich,2021.2.3,59.94571316140396,
47.75,48.0,41,0.0,Stimuli/Blank.png,0,0,0.0,0,22,22,22,,,,,,,,,,,,,47.791499300001306,0.04149930000130553,None,89.82413619999716,89.82413619999716,89.82413619999716,89.82413619999716,89.82413619999716,89.82413619999716,89.82413619999716,89.82413619999716,89.82413619999716,89.82413619999716,,001,P009,2025_Feb_01_1311,ConditionRich,2021.2.3,59.94571316140396,
48.0,51.75,40,0.75,Stimuli/P009/things_woman_05s.jpg,0,0,0.0,0,23,23,23,,,,,,,,,,,,,48.00931960000162,0.0093196000016178,None,90.05768619999799,90.05768619999799,90.05768619999799,90.05768619999799,90.05768619999799,90.05768619999799,90.05768619999799,90.05768619999799,90.05768619999799,90.05768619999799,,001,P009,2025_Feb_01_1311,ConditionRich,2021.2.3,59.94571316140396,
51.75,52.0,41,0.0,Stimuli/Blank.png,0,0,0.0,0,24,24,24,,,,,,,,,,,,,51.778433499999664,0.02843349999966449,None,93.81115619999764,93.81115619999764,93.81115619999764,93.81115619999764,93.81115619999764,93.81115619999764,93.81115619999764,93.81115619999764,93.81115619999764,93.81115619999764,,001,P009,2025_Feb_01_1311,ConditionRich,2021.2.3,59.94571316140396,
52.0,55.75,35,0.75,Stimuli/P009/things_mushroom_05n.jpg,0,0,0.0,0,25,25,25,,,,,,,,,,,,,52.011338799999066,0.011338799999066396,None,94.06123159999697,94.06123159999697,94.06123159999697,94.06123159999697,94.06123159999697,94.06123159999697,94.06123159999697,94.06123159999697,94.06123159999697,94.06123159999697,,001,P009,2025_Feb_01_1311,ConditionRich,2021.2.3,59.94571316140396,
55.75,56.0,41,0.0,Stimuli/Blank.png,0,0,0.0,0,26,26,26,,,,,,,,,,,,,55.78137549999883,0.03137549999883049,None,97.81453829999737,97.81453829999737,97.81453829999737,97.81453829999737,97.81453829999737,97.81453829999737,97.81453829999737,97.81453829999737,97.81453829999737,97.81453829999737,,001,P009,2025_Feb_01_1311,ConditionRich,2021.2.3,59.94571316140396,
56.0,59.75,29,0.75,Stimuli/P009/things_fingerprint_05s.jpg,0,0,0.0,0,27,27,27,,,,,,,,,,,,,56.015397800001665,0.015397800001665018,None,98.06479409999884,98.06479409999884,98.06479409999884,98.06479409999884,98.06479409999884,98.06479409999884,98.06479409999884,98.06479409999884,98.06479409999884,98.06479409999884,,001,P009,2025_Feb_01_1311,ConditionRich,2021.2.3,59.94571316140396,
59.75,60.0,41,0.0,Stimuli/Blank.png,0,0,0.0,0,28,28,28,,,,,,,,,,,,,59.768362400001934,0.018362400001933565,None,101.80139719999715,101.80139719999715,101.80139719999715,101.80139719999715,101.80139719999715,101.80139719999715,101.80139719999715,101.80139719999715,101.80139719999715,101.80139719999715,,001,P009,2025_Feb_01_1311,ConditionRich,2021.2.3,59.94571316140396,
60.0,63.75,31,0.75,Stimuli/P009/things_girl_05s.jpg,1,2,2.75,0,29,29,29,,,,,,,,,,,,,60.001800099998945,0.0018000999989453703,1,102.0516217000004,102.0516217000004,102.0516217000004,102.0516217000004,102.0516217000004,102.0516217000004,104.03671029999896,104.78736600000047,102.0516217000004,102.0516217000004,2.377715900001931,001,P009,2025_Feb_01_1311,ConditionRich,2021.2.3,59.94571316140396,
63.75,64.0,41,0.0,Stimuli/Blank.png,0,0,0.0,0,30,30,30,,,,,,,,,,,,,63.77255670000159,0.02255670000158716,None,105.80496519999724,105.80496519999724,105.80496519999724,105.80496519999724,105.80496519999724,105.80496519999724,105.80496519999724,105.80496519999724,105.80496519999724,105.80496519999724,,001,P009,2025_Feb_01_1311,ConditionRich,2021.2.3,59.94571316140396,
64.0,67.75,9,0.75,Stimuli/P009/sun_bdjkvwqqqycuixtc.jpg,0,0,0.0,0,31,31,31,,,,,,,,,,,,,64.00516390000121,0.005163900001207367,None,106.05558419999943,106.05558419999943,106.05558419999943,106.05558419999943,106.05558419999943,106.05558419999943,106.05558419999943,106.05558419999943,106.05558419999943,106.05558419999943,,001,P009,2025_Feb_01_1311,ConditionRich,2021.2.3,59.94571316140396,
67.75,68.0,41,0.0,Stimuli/Blank.png,0,0,0.0,0,32,32,32,,,,,,,,,,,,,67.77594769999996,0.025947699999960605,None,109.808483599998,109.808483599998,109.808483599998,109.808483599998,109.808483599998,109.808483599998,109.808483599998,109.808483599998,109.808483599998,109.808483599998,,001,P009,2025_Feb_01_1311,ConditionRich,2021.2.3,59.94571316140396,
68.0,71.75,13,0.75,Stimuli/P009/sun_bjimvgwadfodioes.jpg,1,3,3.75,0,33,33,33,,,,,,,,,,,,,68.00968110000031,0.009681100000307197,1,110.07541549999951,110.07541549999951,110.07541549999951,110.07541549999951,110.07541549999951,110.07541549999951,113.04473249999864,113.79585310000039,110.07541549999951,110.07541549999951,3.3168970000006084,001,P009,2025_Feb_01_1311,ConditionRich,2021.2.3,59.94571316140396,
71.75,72.0,41,0.0,Stimuli/Blank.png,0,0,0.0,0,34,34,34,,,,,,,,,,,,,71.7968077000005,0.04680770000049961,None,113.82872560000033,113.82872560000033,113.82872560000033,113.82872560000033,113.82872560000033,113.82872560000033,113.82872560000033,113.82872560000033,113.82872560000033,113.82872560000033,,001,P009,2025_Feb_01_1311,ConditionRich,2021.2.3,59.94571316140396,
72.0,75.75,7,0.75,Stimuli/P009/sun_apiogxmvvzfmtsmj.jpg,0,0,0.0,0,35,35,35,,,,,,,,,,,,,72.01234639999893,0.012346399998932611,None,114.04556339999908,114.04556339999908,114.04556339999908,114.04556339999908,114.04556339999908,114.04556339999908,114.04556339999908,114.04556339999908,114.04556339999908,114.04556339999908,,001,P009,2025_Feb_01_1311,ConditionRich,2021.2.3,59.94571316140396,
75.75,76.0,41,0.0,Stimuli/Blank.png,0,0,0.0,0,36,36,36,,,,,,,,,,,,,75.75012570000035,0.00012570000035339035,None,117.78220899999724,117.78220899999724,117.78220899999724,117.78220899999724,117.78220899999724,117.78220899999724,117.78220899999724,117.78220899999724,117.78220899999724,117.78220899999724,,001,P009,2025_Feb_01_1311,ConditionRich,2021.2.3,59.94571316140396,
76.0,79.75,12,0.75,Stimuli/P009/sun_birmwgkdtrlevcaf.jpg,0,0,0.0,0,37,37,37,,,,,,,,,,,,,75.99928580000051,-0.0007141999994928483,None,118.032395299997,118.032395299997,118.032395299997,118.032395299997,118.032395299997,118.032395299997,118.032395299997,118.032395299997,118.032395299997,118.032395299997,,001,P009,2025_Feb_01_1311,ConditionRich,2021.2.3,59.94571316140396,
79.75,80.0,41,0.0,Stimuli/Blank.png,0,0,0.0,0,38,38,38,,,,,,,,,,,,,79.75443219999943,0.004432199999428121,None,121.80244529999982,121.80244529999982,121.80244529999982,121.80244529999982,121.80244529999982,121.80244529999982,121.80244529999982,121.80244529999982,121.80244529999982,121.80244529999982,,001,P009,2025_Feb_01_1311,ConditionRich,2021.2.3,59.94571316140396,
80.0,83.75,19,0.75,Stimuli/P009/sun_bwvfnogmotsvhofs.jpg,1,3,3.75,0,39,39,39,,,,,,,,,,,,,80.02026660000047,0.020266600000468316,1,122.06935739999972,122.06935739999972,122.06935739999972,122.06935739999972,122.06935739999972,122.06935739999972,125.0553147999999,None,122.06935739999972,122.06935739999972,3.375035500001104,001,P009,2025_Feb_01_1311,ConditionRich,2021.2.3,59.94571316140396,
83.75,84.0,41,0.0,Stimuli/Blank.png,0,0,0.0,0,40,40,40,,,,,,,,,,,,,83.77586440000232,0.0258644000023196,None,125.82266289999825,125.82266289999825,125.82266289999825,125.82266289999825,125.82266289999825,125.82266289999825,125.82266289999825,125.82266289999825,125.82266289999825,125.82266289999825,,001,P009,2025_Feb_01_1311,ConditionRich,2021.2.3,59.94571316140396,
84.0,100.0,0,0.0,Stimuli/Blank.png,1,1,1.75,0,41,41,41,,,,,,,,,,,,,84.02400390000184,0.02400390000184416,1,126.05618879999747,126.05618879999747,126.05618879999747,126.05618879999747,126.05618879999747,126.05618879999747,127.04044219999923,127.79107049999948,126.05618879999747,126.05618879999747,1.4881491000014648,001,P009,2025_Feb_01_1311,ConditionRich,2021.2.3,59.94571316140396,
100.0,103.75,16,0.75,Stimuli/P009/sun_bqpyqljaflidcauh.jpg,0,0,0.0,0,42,42,42,,,,,,,,,,,,,100.00495059999957,0.004950599999574479,None,142.0536491999992,142.0536491999992,142.0536491999992,142.0536491999992,142.0536491999992,142.0536491999992,142.0536491999992,142.0536491999992,142.0536491999992,142.0536491999992,,001,P009,2025_Feb_01_1311,ConditionRich,2021.2.3,59.94571316140396,
103.75,104.0,41,0.0,Stimuli/Blank.png,0,0,0.0,0,43,43,43,,,,,,,,,,,,,103.77364690000104,0.023646900001040194,None,145.80700140000044,145.80700140000044,145.80700140000044,145.80700140000044,145.80700140000044,145.80700140000044,145.80700140000044,145.80700140000044,145.80700140000044,145.80700140000044,,001,P009,2025_Feb_01_1311,ConditionRich,2021.2.3,59.94571316140396,
104.0,107.75,10,0.75,Stimuli/P009/sun_bdkttewvyfdarikm.jpg,0,0,0.0,0,44,44,44,,,,,,,,,,,,,104.00864640000145,0.008646400001453003,None,146.05722830000013,146.05722830000013,146.05722830000013,146.05722830000013,146.05722830000013,146.05722830000013,146.05722830000013,146.05722830000013,146.05722830000013,146.05722830000013,,001,P009,2025_Feb_01_1311,ConditionRich,2021.2.3,59.94571316140396,
107.75,108.0,41,0.0,Stimuli/Blank.png,0,0,0.0,0,45,45,45,,,,,,,,,,,,,107.77935640000214,0.029356400002143346,None,149.82723719999922,149.82723719999922,149.82723719999922,149.82723719999922,149.82723719999922,149.82723719999922,149.82723719999922,149.82723719999922,149.82723719999922,149.82723719999922,,001,P009,2025_Feb_01_1311,ConditionRich,2021.2.3,59.94571316140396,
108.0,111.75,15,0.75,Stimuli/P009/sun_boryivbddrnarrbo.jpg,0,0,0.0,0,46,46,46,,,,,,,,,,,,,108.03046080000058,0.03046080000058282,None,150.09412959999827,150.09412959999827,150.09412959999827,150.09412959999827,150.09412959999827,150.09412959999827,150.09412959999827,150.09412959999827,150.09412959999827,150.09412959999827,,001,P009,2025_Feb_01_1311,ConditionRich,2021.2.3,59.94571316140396,
111.75,112.0,41,0.0,Stimuli/Blank.png,0,0,0.0,0,47,47,47,,,,,,,,,,,,,111.78110300000117,0.031103000001166947,None,153.81407989999934,153.81407989999934,153.81407989999934,153.81407989999934,153.81407989999934,153.81407989999934,153.81407989999934,153.81407989999934,153.81407989999934,153.81407989999934,,001,P009,2025_Feb_01_1311,ConditionRich,2021.2.3,59.94571316140396,
112.0,115.75,8,0.75,Stimuli/P009/sun_batcnoizlkeiqdtx.jpg,1,0,0.75,0,48,48,48,,,,,,,,,,,,,112.01490950000152,0.014909500001522247,1,154.06432109999878,154.06432109999878,154.06432109999878,154.06432109999878,154.06432109999878,154.06432109999878,154.06432109999878,154.79834339999798,154.06432109999878,154.06432109999878,0.4150536999986798,001,P009,2025_Feb_01_1311,ConditionRich,2021.2.3,59.94571316140396,
115.75,116.0,41,0.0,Stimuli/Blank.png,0,0,0.0,0,49,49,49,,,,,,,,,,,,,115.76893800000107,0.018938000001071487,None,157.80095140000049,157.80095140000049,157.80095140000049,157.80095140000049,157.80095140000049,157.80095140000049,157.80095140000049,157.80095140000049,157.80095140000049,157.80095140000049,,001,P009,2025_Feb_01_1311,ConditionRich,2021.2.3,59.94571316140396,
116.0,119.75,14,0.75,Stimuli/P009/sun_blaqxdebghixzyyw.jpg,0,0,0.0,0,50,50,50,,,,,,,,,,,,,116.00433830000111,0.004338300001109019,None,158.05113779999738,158.05113779999738,158.05113779999738,158.05113779999738,158.05113779999738,158.05113779999738,158.05113779999738,158.05113779999738,158.05113779999738,158.05113779999738,,001,P009,2025_Feb_01_1311,ConditionRich,2021.2.3,59.94571316140396,
119.75,120.0,41,0.0,Stimuli/Blank.png,0,0,0.0,0,51,51,51,,,,,,,,,,,,,119.77129699999932,0.021296999999321997,None,161.80452109999896,161.80452109999896,161.80452109999896,161.80452109999896,161.80452109999896,161.80452109999896,161.80452109999896,161.80452109999896,161.80452109999896,161.80452109999896,,001,P009,2025_Feb_01_1311,ConditionRich,2021.2.3,59.94571316140396,
120.0,123.75,28,0.75,Stimuli/P009/things_face_05s.jpg,0,0,0.0,0,52,52,52,,,,,,,,,,,,,120.00492080000186,0.004920800001855241,None,162.07141079999928,162.07141079999928,162.07141079999928,162.07141079999928,162.07141079999928,162.07141079999928,162.07141079999928,162.07141079999928,162.07141079999928,162.07141079999928,,001,P009,2025_Feb_01_1311,ConditionRich,2021.2.3,59.94571316140396,
123.75,124.0,41,0.0,Stimuli/Blank.png,0,0,0.0,0,53,53,53,,,,,,,,,,,,,123.79439880000064,0.044398800000635674,None,165.84140189999744,165.84140189999744,165.84140189999744,165.84140189999744,165.84140189999744,165.84140189999744,165.84140189999744,165.84140189999744,165.84140189999744,165.84140189999744,,001,P009,2025_Feb_01_1311,ConditionRich,2021.2.3,59.94571316140396,
124.0,127.75,2,0.75,Stimuli/P009/sun_acvloibbxiqpiwnv.jpg,0,0,0.0,0,54,54,54,,,,,,,,,,,,,124.02498080000078,0.02498080000077607,None,166.07494999999835,166.07494999999835,166.07494999999835,166.07494999999835,166.07494999999835,166.07494999999835,166.07494999999835,166.07494999999835,166.07494999999835,166.07494999999835,,001,P009,2025_Feb_01_1311,ConditionRich,2021.2.3,59.94571316140396,
127.75,128.0,41,0.0,Stimuli/Blank.png,0,0,0.0,0,55,55,55,,,,,,,,,,,,,127.77910659999907,0.02910659999906784,None,169.8115743999988,169.8115743999988,169.8115743999988,169.8115743999988,169.8115743999988,169.8115743999988,169.8115743999988,169.8115743999988,169.8115743999988,169.8115743999988,,001,P009,2025_Feb_01_1311,ConditionRich,2021.2.3,59.94571316140396,
128.0,131.75,11,0.75,Stimuli/P009/sun_bfyvfqiimvdaxlqn.jpg,0,0,0.0,0,56,56,56,,,,,,,,,,,,,128.0130476000013,0.013047600001300452,None,170.06178419999924,170.06178419999924,170.06178419999924,170.06178419999924,170.06178419999924,170.06178419999924,170.06178419999924,170.06178419999924,170.06178419999924,170.06178419999924,,001,P009,2025_Feb_01_1311,ConditionRich,2021.2.3,59.94571316140396,
131.75,132.0,41,0.0,Stimuli/Blank.png,0,0,0.0,0,57,57,57,,,,,,,,,,,,,131.76531479999903,0.015314799999032402,None,173.79842899999858,173.79842899999858,173.79842899999858,173.79842899999858,173.79842899999858,173.79842899999858,173.79842899999858,173.79842899999858,173.79842899999858,173.79842899999858,,001,P009,2025_Feb_01_1311,ConditionRich,2021.2.3,59.94571316140396,
132.0,135.75,25,0.75,Stimuli/P009/things_clothespin_05s.jpg,0,0,0.0,0,58,58,58,,,,,,,,,,,,,132.0154505999999,0.01545059999989462,None,174.0486533000003,174.0486533000003,174.0486533000003,174.0486533000003,174.0486533000003,174.0486533000003,174.0486533000003,174.0486533000003,174.0486533000003,174.0486533000003,,001,P009,2025_Feb_01_1311,ConditionRich,2021.2.3,59.94571316140396,
135.75,136.0,41,0.0,Stimuli/Blank.png,0,0,0.0,0,59,59,59,,,,,,,,,,,,,135.75420630000008,0.004206300000078045,None,177.80198839999866,177.80198839999866,177.80198839999866,177.80198839999866,177.80198839999866,177.80198839999866,177.80198839999866,177.80198839999866,177.80198839999866,177.80198839999866,,001,P009,2025_Feb_01_1311,ConditionRich,2021.2.3,59.94571316140396,
136.0,139.75,27,0.75,Stimuli/P009/things_curling_iron_05s.jpg,0,0,0.0,0,60,60,60,,,,,,,,,,,,,136.01970240000082,0.019702400000824127,None,178.06887669999924,178.06887669999924,178.06887669999924,178.06887669999924,178.06887669999924,178.06887669999924,178.06887669999924,178.06887669999924,178.06887669999924,178.06887669999924,,001,P009,2025_Feb_01_1311,ConditionRich,2021.2.3,59.94571316140396,
139.75,140.0,41,0.0,Stimuli/Blank.png,0,0,0.0,0,61,61,61,,,,,,,,,,,,,139.7727139000017,0.02271390000169049,None,181.80551329999798,181.80551329999798,181.80551329999798,181.80551329999798,181.80551329999798,181.80551329999798,181.80551329999798,181.80551329999798,181.80551329999798,181.80551329999798,,001,P009,2025_Feb_01_1311,ConditionRich,2021.2.3,59.94571316140396,
140.0,143.75,39,0.75,Stimuli/P009/things_tiara_05s.jpg,0,0,0.0,0,62,62,62,,,,,,,,,,,,,140.00663160000113,0.00663160000112839,None,182.05570699999953,182.05570699999953,182.05570699999953,182.05570699999953,182.05570699999953,182.05570699999953,182.05570699999953,182.05570699999953,182.05570699999953,182.05570699999953,,001,P009,2025_Feb_01_1311,ConditionRich,2021.2.3,59.94571316140396,
143.75,144.0,41,0.0,Stimuli/Blank.png,0,0,0.0,0,63,63,63,,,,,,,,,,,,,143.77676580000116,0.026765800001157913,None,185.80919549999817,185.80919549999817,185.80919549999817,185.80919549999817,185.80919549999817,185.80919549999817,185.80919549999817,185.80919549999817,185.80919549999817,185.80919549999817,,001,P009,2025_Feb_01_1311,ConditionRich,2021.2.3,59.94571316140396,
144.0,147.75,21,0.75,Stimuli/P009/things_boy_05s.jpg,1,1,1.75,0,64,64,64,,,,,,,,,,,,,144.00988190000135,0.009881900001346366,1,186.0598476999985,186.0598476999985,186.0598476999985,186.0598476999985,186.0598476999985,186.0598476999985,187.04352440000002,187.79418179999993,186.0598476999985,186.0598476999985,1.386804599998868,001,P009,2025_Feb_01_1311,ConditionRich,2021.2.3,59.94571316140396,
147.75,148.0,41,0.0,Stimuli/Blank.png,0,0,0.0,0,65,65,65,,,,,,,,,,,,,147.77958710000166,0.029587100001663202,None,189.81260249999832,189.81260249999832,189.81260249999832,189.81260249999832,189.81260249999832,189.81260249999832,189.81260249999832,189.81260249999832,189.81260249999832,189.81260249999832,,001,P009,2025_Feb_01_1311,ConditionRich,2021.2.3,59.94571316140396,
148.0,151.75,18,0.75,Stimuli/P009/sun_bwjdahsxcqepqqbm.jpg,1,1,1.75,0,66,66,66,,,,,,,,,,,,,148.01433030000044,0.014330300000438001,1,190.04613059999974,190.04613059999974,190.04613059999974,190.04613059999974,190.04613059999974,190.04613059999974,191.0303512999999,191.78102809999837,190.04613059999974,190.04613059999974,1.3942324999989069,001,P009,2025_Feb_01_1311,ConditionRich,2021.2.3,59.94571316140396,
151.75,152.0,41,0.0,Stimuli/Blank.png,0,0,0.0,0,67,67,67,,,,,,,,,,,,,151.75032120000105,0.0003212000010535121,None,193.78278599999976,193.78278599999976,193.78278599999976,193.78278599999976,193.78278599999976,193.78278599999976,193.78278599999976,193.78278599999976,193.78278599999976,193.78278599999976,,001,P009,2025_Feb_01_1311,ConditionRich,2021.2.3,59.94571316140396,
152.0,155.75,24,0.75,Stimuli/P009/things_cigar_05n.jpg,0,0,0.0,0,68,68,68,,,,,,,,,,,,,152.00002740000127,2.7400001272326335e-05,None,194.04967589999796,194.04967589999796,194.04967589999796,194.04967589999796,194.04967589999796,194.04967589999796,194.04967589999796,194.04967589999796,194.04967589999796,194.04967589999796,,001,P009,2025_Feb_01_1311,ConditionRich,2021.2.3,59.94571316140396,
155.75,156.0,41,0.0,Stimuli/Blank.png,0,0,0.0,0,69,69,69,,,,,,,,,,,,,155.76969259999896,0.01969259999896167,None,197.80299459999878,197.80299459999878,197.80299459999878,197.80299459999878,197.80299459999878,197.80299459999878,197.80299459999878,197.80299459999878,197.80299459999878,197.80299459999878,,001,P009,2025_Feb_01_1311,ConditionRich,2021.2.3,59.94571316140396,
156.0,159.75,4,0.75,Stimuli/P009/sun_afkzdukwewwzqtmr.jpg,0,0,0.0,0,70,70,70,,,,,,,,,,,,,156.00406560000192,0.004065600001922576,None,198.0531775999989,198.0531775999989,198.0531775999989,198.0531775999989,198.0531775999989,198.0531775999989,198.0531775999989,198.0531775999989,198.0531775999989,198.0531775999989,,001,P009,2025_Feb_01_1311,ConditionRich,2021.2.3,59.94571316140396,
159.75,160.0,41,0.0,Stimuli/Blank.png,0,0,0.0,0,71,71,71,,,,,,,,,,,,,159.7747793999988,0.024779399998806184,None,201.80654949999735,201.80654949999735,201.80654949999735,201.80654949999735,201.80654949999735,201.80654949999735,201.80654949999735,201.80654949999735,201.80654949999735,201.80654949999735,,001,P009,2025_Feb_01_1311,ConditionRich,2021.2.3,59.94571316140396,
160.0,163.75,22,0.75,Stimuli/P009/things_butterfly_05s.jpg,1,3,3.75,0,72,72,72,,,,,,,,,,,,,160.0095156999996,0.00951569999961066,1,202.0739539999995,202.0739539999995,202.0739539999995,202.0739539999995,202.0739539999995,202.0739539999995,205.04270170000018,205.79338869999992,202.0739539999995,202.0739539999995,3.3335689999985334,001,P009,2025_Feb_01_1311,ConditionRich,2021.2.3,59.94571316140396,
163.75,164.0,41,0.0,Stimuli/Blank.png,0,0,0.0,0,73,73,73,,,,,,,,,,,,,163.79411260000052,0.04411260000051698,None,205.82673649999924,205.82673649999924,205.82673649999924,205.82673649999924,205.82673649999924,205.82673649999924,205.82673649999924,205.82673649999924,205.82673649999924,205.82673649999924,,001,P009,2025_Feb_01_1311,ConditionRich,2021.2.3,59.94571316140396,
164.0,167.75,3,0.75,Stimuli/P009/sun_aewgwsmvsgzleqhw.jpg,0,0,0.0,0,74,74,74,,,,,,,,,,,,,164.01032560000021,0.010325600000214763,None,206.0603212999995,206.0603212999995,206.0603212999995,206.0603212999995,206.0603212999995,206.0603212999995,206.0603212999995,206.0603212999995,206.0603212999995,206.0603212999995,,001,P009,2025_Feb_01_1311,ConditionRich,2021.2.3,59.94571316140396,
167.75,168.0,41,0.0,Stimuli/Blank.png,0,0,0.0,0,75,75,75,,,,,,,,,,,,,167.78118170000016,0.031181700000161072,None,209.81359279999742,209.81359279999742,209.81359279999742,209.81359279999742,209.81359279999742,209.81359279999742,209.81359279999742,209.81359279999742,209.81359279999742,209.81359279999742,,001,P009,2025_Feb_01_1311,ConditionRich,2021.2.3,59.94571316140396,
168.0,171.75,26,0.75,Stimuli/P009/things_cookie_sheet_05s.jpg,0,0,0.0,0,76,76,76,,,,,,,,,,,,,168.0140821999994,0.014082199999393197,None,210.04716550000012,210.04716550000012,210.04716550000012,210.04716550000012,210.04716550000012,210.04716550000012,210.04716550000012,210.04716550000012,210.04716550000012,210.04716550000012,,001,P009,2025_Feb_01_1311,ConditionRich,2021.2.3,59.94571316140396,
171.75,172.0,41,0.0,Stimuli/Blank.png,0,0,0.0,0,77,77,77,,,,,,,,,,,,,171.75127730000168,0.0012773000016750302,None,213.78379389999827,213.78379389999827,213.78379389999827,213.78379389999827,213.78379389999827,213.78379389999827,213.78379389999827,213.78379389999827,213.78379389999827,213.78379389999827,,001,P009,2025_Feb_01_1311,ConditionRich,2021.2.3,59.94571316140396,
172.0,175.75,34,0.75,Stimuli/P009/things_man_05s.jpg,0,0,0.0,0,78,78,78,,,,,,,,,,,,,172.00099559999944,0.0009955999994417652,None,214.05071889999817,214.05071889999817,214.05071889999817,214.05071889999817,214.05071889999817,214.05071889999817,214.05071889999817,214.05071889999817,214.05071889999817,214.05071889999817,,001,P009,2025_Feb_01_1311,ConditionRich,2021.2.3,59.94571316140396,
175.75,176.0,41,0.0,Stimuli/Blank.png,0,0,0.0,0,79,79,79,,,,,,,,,,,,,175.7707760000012,0.02077600000120583,None,217.8039914000001,217.8039914000001,217.8039914000001,217.8039914000001,217.8039914000001,217.8039914000001,217.8039914000001,217.8039914000001,217.8039914000001,217.8039914000001,,001,P009,2025_Feb_01_1311,ConditionRich,2021.2.3,59.94571316140396,
176.0,179.75,6,0.75,Stimuli/P009/sun_amkrwcyvinmsylsz.jpg,0,0,0.0,0,80,80,80,,,,,,,,,,,,,176.0048100999993,0.0048100999993039295,None,218.03756339999745,218.03756339999745,218.03756339999745,218.03756339999745,218.03756339999745,218.03756339999745,218.03756339999745,218.03756339999745,218.03756339999745,218.03756339999745,,001,P009,2025_Feb_01_1311,ConditionRich,2021.2.3,59.94571316140396,
179.75,180.0,41,0.0,Stimuli/Blank.png,0,0,0.0,0,81,81,81,,,,,,,,,,,,,179.75874639999893,0.00874639999892679,None,221.79089439999734,221.79089439999734,221.79089439999734,221.79089439999734,221.79089439999734,221.79089439999734,221.79089439999734,221.79089439999734,221.79089439999734,221.79089439999734,,001,P009,2025_Feb_01_1311,ConditionRich,2021.2.3,59.94571316140396,
180.0,196.0,0,0.0,Stimuli/Blank.png,1,2,2.75,0,82,82,82,,,,,,,,,,,,,180.01136169999882,0.011361699998815311,1,222.05779809999876,222.05779809999876,222.05779809999876,222.05779809999876,222.05779809999876,222.05779809999876,224.04291419999936,224.79358349999893,222.05779809999876,222.05779809999876,2.323612200001662,001,P009,2025_Feb_01_1311,ConditionRich,2021.2.3,59.94571316140396,
196.0,199.75,9,0.75,Stimuli/P009/sun_bdjkvwqqqycuixtc.jpg,0,0,0.0,0,83,83,83,,,,,,,,,,,,,196.02491350000128,0.02491350000127568,None,238.07195990000037,238.07195990000037,238.07195990000037,238.07195990000037,238.07195990000037,238.07195990000037,238.07195990000037,238.07195990000037,238.07195990000037,238.07195990000037,,001,P009,2025_Feb_01_1311,ConditionRich,2021.2.3,59.94571316140396,
199.75,200.0,41,0.0,Stimuli/Blank.png,0,0,0.0,0,84,84,84,,,,,,,,,,,,,199.7754621999993,0.025462199999310542,None,241.80855840000004,241.80855840000004,241.80855840000004,241.80855840000004,241.80855840000004,241.80855840000004,241.80855840000004,241.80855840000004,241.80855840000004,241.80855840000004,,001,P009,2025_Feb_01_1311,ConditionRich,2021.2.3,59.94571316140396,
200.0,203.75,19,0.75,Stimuli/P009/sun_bwvfnogmotsvhofs.jpg,1,3,3.75,0,85,85,85,,,,,,,,,,,,,200.00980410000193,0.009804100001929328,1,242.042129999998,242.042129999998,242.042129999998,242.042129999998,242.042129999998,242.042129999998,245.02810379999937,245.77880919999734,242.042129999998,242.042129999998,3.3624149999996007,001,P009,2025_Feb_01_1311,ConditionRich,2021.2.3,59.94571316140396,
203.75,204.0,41,0.0,Stimuli/Blank.png,0,0,0.0,0,86,86,86,,,,,,,,,,,,,203.76459180000165,0.01459180000165361,None,245.8121758999987,245.8121758999987,245.8121758999987,245.8121758999987,245.8121758999987,245.8121758999987,245.8121758999987,245.8121758999987,245.8121758999987,245.8121758999987,,001,P009,2025_Feb_01_1311,ConditionRich,2021.2.3,59.94571316140396,
204.0,207.75,18,0.75,Stimuli/P009/sun_bwjdahsxcqepqqbm.jpg,0,0,0.0,0,87,87,87,,,,,,,,,,,,,204.03035010000167,0.03035010000166949,None,246.0623495999971,246.0623495999971,246.0623495999971,246.0623495999971,246.0623495999971,246.0623495999971,246.0623495999971,246.0623495999971,246.0623495999971,246.0623495999971,,001,P009,2025_Feb_01_1311,ConditionRich,2021.2.3,59.94571316140396,
207.75,208.0,41,0.0,Stimuli/Blank.png,0,0,0.0,0,88,88,88,,,,,,,,,,,,,207.74984219999897,-0.00015780000103404745,None,249.78233220000038,249.78233220000038,249.78233220000038,249.78233220000038,249.78233220000038,249.78233220000038,249.78233220000038,249.78233220000038,249.78233220000038,249.78233220000038,,001,P009,2025_Feb_01_1311,ConditionRich,2021.2.3,59.94571316140396,
208.0,211.75,23,0.75,Stimuli/P009/things_charger_05s.jpg,0,0,0.0,0,89,89,89,,,,,,,,,,,,,208.00031700000181,0.0003170000018144492,None,250.04921990000003,250.04921990000003,250.04921990000003,250.04921990000003,250.04921990000003,250.04921990000003,250.04921990000003,250.04921990000003,250.04921990000003,250.04921990000003,,001,P009,2025_Feb_01_1311,ConditionRich,2021.2.3,59.94571316140396,
211.75,212.0,41,0.0,Stimuli/Blank.png,0,0,0.0,0,90,90,90,,,,,,,,,,,,,211.77005199999985,0.020051999999850523,None,253.80255009999746,253.80255009999746,253.80255009999746,253.80255009999746,253.80255009999746,253.80255009999746,253.80255009999746,253.80255009999746,253.80255009999746,253.80255009999746,,001,P009,2025_Feb_01_1311,ConditionRich,2021.2.3,59.94571316140396,
212.0,215.75,17,0.75,Stimuli/P009/sun_brkrfjpyfglmigkk.jpg,0,0,0.0,0,91,91,91,,,,,,,,,,,,,212.00502229999984,0.005022299999836832,None,254.05275289999918,254.05275289999918,254.05275289999918,254.05275289999918,254.05275289999918,254.05275289999918,254.05275289999918,254.05275289999918,254.05275289999918,254.05275289999918,,001,P009,2025_Feb_01_1311,ConditionRich,2021.2.3,59.94571316140396,
215.75,216.0,41,0.0,Stimuli/Blank.png,0,0,0.0,0,92,92,92,,,,,,,,,,,,,215.77475490000143,0.024754900001425995,None,257.82275989999835,257.82275989999835,257.82275989999835,257.82275989999835,257.82275989999835,257.82275989999835,257.82275989999835,257.82275989999835,257.82275989999835,257.82275989999835,,001,P009,2025_Feb_01_1311,ConditionRich,2021.2.3,59.94571316140396,
216.0,219.75,38,0.75,Stimuli/P009/things_roadsweeper_05s.jpg,0,0,0.0,0,93,93,93,,,,,,,,,,,,,216.02308220000123,0.023082200001226738,None,258.05629939999926,258.05629939999926,258.05629939999926,258.05629939999926,258.05629939999926,258.05629939999926,258.05629939999926,258.05629939999926,258.05629939999926,258.05629939999926,,001,P009,2025_Feb_01_1311,ConditionRich,2021.2.3,59.94571316140396,
219.75,220.0,41,0.0,Stimuli/Blank.png,0,0,0.0,0,94,94,94,,,,,,,,,,,,,219.75996870000017,0.009968700000172248,None,261.79290409999885,261.79290409999885,261.79290409999885,261.79290409999885,261.79290409999885,261.79290409999885,261.79290409999885,261.79290409999885,261.79290409999885,261.79290409999885,,001,P009,2025_Feb_01_1311,ConditionRich,2021.2.3,59.94571316140396,
220.0,223.75,34,0.75,Stimuli/P009/things_man_05s.jpg,0,0,0.0,0,95,95,95,,,,,,,,,,,,,220.01075069999933,0.010750699999334756,None,262.0431691999984,262.0431691999984,262.0431691999984,262.0431691999984,262.0431691999984,262.0431691999984,262.0431691999984,262.0431691999984,262.0431691999984,262.0431691999984,,001,P009,2025_Feb_01_1311,ConditionRich,2021.2.3,59.94571316140396,
223.75,224.0,41,0.0,Stimuli/Blank.png,0,0,0.0,0,96,96,96,,,,,,,,,,,,,223.7640981000004,0.01409810000041034,None,265.7964859999993,265.7964859999993,265.7964859999993,265.7964859999993,265.7964859999993,265.7964859999993,265.7964859999993,265.7964859999993,265.7964859999993,265.7964859999993,,001,P009,2025_Feb_01_1311,ConditionRich,2021.2.3,59.94571316140396,
224.0,227.75,5,0.75,Stimuli/P009/sun_akqvdmuauoxeafrj.jpg,1,2,2.75,0,97,97,97,,,,,,,,,,,,,224.01502270000128,0.015022700001281919,1,266.06337279999934,266.06337279999934,266.06337279999934,266.06337279999934,266.06337279999934,266.06337279999934,268.031791399997,268.78242469999896,266.06337279999934,266.06337279999934,2.346271499998693,001,P009,2025_Feb_01_1311,ConditionRich,2021.2.3,59.94571316140396,
227.75,228.0,41,0.0,Stimuli/Blank.png,0,0,0.0,0,98,98,98,,,,,,,,,,,,,227.7696818000004,0.019681800000398653,None,269.8167125,269.8167125,269.8167125,269.8167125,269.8167125,269.8167125,269.8167125,269.8167125,269.8167125,269.8167125,,001,P009,2025_Feb_01_1311,ConditionRich,2021.2.3,59.94571316140396,
228.0,231.75,31,0.75,Stimuli/P009/things_girl_05s.jpg,1,1,1.75,0,99,99,99,,,,,,,,,,,,,228.0186739000019,0.018673900001886068,1,270.0669166999978,270.0669166999978,270.0669166999978,270.0669166999978,270.0669166999978,270.0669166999978,271.03448500000013,271.78511929999877,270.0669166999978,270.0669166999978,1.3685867999993206,001,P009,2025_Feb_01_1311,ConditionRich,2021.2.3,59.94571316140396,
231.75,232.0,41,0.0,Stimuli/Blank.png,0,0,0.0,0,100,100,100,,,,,,,,,,,,,231.77125979999983,0.02125979999982519,None,273.8035590999971,273.8035590999971,273.8035590999971,273.8035590999971,273.8035590999971,273.8035590999971,273.8035590999971,273.8035590999971,273.8035590999971,273.8035590999971,,001,P009,2025_Feb_01_1311,ConditionRich,2021.2.3,59.94571316140396,
232.0,235.75,7,0.75,Stimuli/P009/sun_apiogxmvvzfmtsmj.jpg,0,0,0.0,0,101,101,101,,,,,,,,,,,,,232.00398000000132,0.00398000000132015,None,274.0370987999995,274.0370987999995,274.0370987999995,274.0370987999995,274.0370987999995,274.0370987999995,274.0370987999995,274.0370987999995,274.0370987999995,274.0370987999995,,001,P009,2025_Feb_01_1311,ConditionRich,2021.2.3,59.94571316140396,
235.75,236.0,41,0.0,Stimuli/Blank.png,0,0,0.0,0,102,102,102,,,,,,,,,,,,,235.7598395999994,0.009839599999395432,None,277.8071087999997,277.8071087999997,277.8071087999997,277.8071087999997,277.8071087999997,277.8071087999997,277.8071087999997,277.8071087999997,277.8071087999997,277.8071087999997,,001,P009,2025_Feb_01_1311,ConditionRich,2021.2.3,59.94571316140396,
236.0,239.75,2,0.75,Stimuli/P009/sun_acvloibbxiqpiwnv.jpg,0,0,0.0,0,103,103,103,,,,,,,,,,,,,236.02497900000162,0.024979000001621898,None,278.05732519999947,278.05732519999947,278.05732519999947,278.05732519999947,278.05732519999947,278.05732519999947,278.05732519999947,278.05732519999947,278.05732519999947,278.05732519999947,,001,P009,2025_Feb_01_1311,ConditionRich,2021.2.3,59.94571316140396,
239.75,240.0,41,0.0,Stimuli/Blank.png,0,0,0.0,0,104,104,104,,,,,,,,,,,,,239.7611278000004,0.011127800000394927,None,281.7939645999977,281.7939645999977,281.7939645999977,281.7939645999977,281.7939645999977,281.7939645999977,281.7939645999977,281.7939645999977,281.7939645999977,281.7939645999977,,001,P009,2025_Feb_01_1311,ConditionRich,2021.2.3,59.94571316140396,
240.0,243.75,11,0.75,Stimuli/P009/sun_bfyvfqiimvdaxlqn.jpg,0,0,0.0,0,105,105,105,,,,,,,,,,,,,240.011868900001,0.011868900000990834,None,282.06087169999955,282.06087169999955,282.06087169999955,282.06087169999955,282.06087169999955,282.06087169999955,282.06087169999955,282.06087169999955,282.06087169999955,282.06087169999955,,001,P009,2025_Feb_01_1311,ConditionRich,2021.2.3,59.94571316140396,
243.75,244.0,41,0.0,Stimuli/Blank.png,0,0,0.0,0,106,106,106,,,,,,,,,,,,,243.781899900001,0.031899900001008064,None,285.81420609999986,285.81420609999986,285.81420609999986,285.81420609999986,285.81420609999986,285.81420609999986,285.81420609999986,285.81420609999986,285.81420609999986,285.81420609999986,,001,P009,2025_Feb_01_1311,ConditionRich,2021.2.3,59.94571316140396,
244.0,247.75,32,0.75,Stimuli/P009/things_hawk_05s.jpg,0,0,0.0,0,107,107,107,,,,,,,,,,,,,244.01569540000128,0.01569540000127745,None,286.04772789999697,286.04772789999697,286.04772789999697,286.04772789999697,286.04772789999697,286.04772789999697,286.04772789999697,286.04772789999697,286.04772789999697,286.04772789999697,,001,P009,2025_Feb_01_1311,ConditionRich,2021.2.3,59.94571316140396,
247.75,248.0,41,0.0,Stimuli/Blank.png,0,0,0.0,0,108,108,108,,,,,,,,,,,,,247.751282600002,0.0012826000020140782,None,289.7843670000002,289.7843670000002,289.7843670000002,289.7843670000002,289.7843670000002,289.7843670000002,289.7843670000002,289.7843670000002,289.7843670000002,289.7843670000002,,001,P009,2025_Feb_01_1311,ConditionRich,2021.2.3,59.94571316140396,
248.0,251.75,26,0.75,Stimuli/P009/things_cookie_sheet_05s.jpg,0,0,0.0,0,109,109,109,,,,,,,,,,,,,248.00223370000094,0.0022337000009429175,None,290.0512708999995,290.0512708999995,290.0512708999995,290.0512708999995,290.0512708999995,290.0512708999995,290.0512708999995,290.0512708999995,290.0512708999995,290.0512708999995,,001,P009,2025_Feb_01_1311,ConditionRich,2021.2.3,59.94571316140396,
251.75,252.0,41,0.0,Stimuli/Blank.png,0,0,0.0,0,110,110,110,,,,,,,,,,,,,251.77134099999967,0.021340999999665655,None,293.8045874999989,293.8045874999989,293.8045874999989,293.8045874999989,293.8045874999989,293.8045874999989,293.8045874999989,293.8045874999989,293.8045874999989,293.8045874999989,,001,P009,2025_Feb_01_1311,ConditionRich,2021.2.3,59.94571316140396,
252.0,255.75,14,0.75,Stimuli/P009/sun_blaqxdebghixzyyw.jpg,1,2,2.75,0,111,111,111,,,,,,,,,,,,,252.00543409999955,0.00543409999954747,1,294.03812919999837,294.03812919999837,294.03812919999837,294.03812919999837,294.03812919999837,294.03812919999837,296.0232096,296.7738787999988,294.03812919999837,294.03812919999837,2.39166269999987,001,P009,2025_Feb_01_1311,ConditionRich,2021.2.3,59.94571316140396,
255.75,256.0,41,0.0,Stimuli/Blank.png,0,0,0.0,0,112,112,112,,,,,,,,,,,,,255.75904720000108,0.009047200001077726,None,297.7914510999981,297.7914510999981,297.7914510999981,297.7914510999981,297.7914510999981,297.7914510999981,297.7914510999981,297.7914510999981,297.7914510999981,297.7914510999981,,001,P009,2025_Feb_01_1311,ConditionRich,2021.2.3,59.94571316140396,
256.0,259.75,25,0.75,Stimuli/P009/things_clothespin_05s.jpg,0,0,0.0,0,113,113,113,,,,,,,,,,,,,256.01045720000184,0.010457200001837919,None,298.05834539999705,298.05834539999705,298.05834539999705,298.05834539999705,298.05834539999705,298.05834539999705,298.05834539999705,298.05834539999705,298.05834539999705,298.05834539999705,,001,P009,2025_Feb_01_1311,ConditionRich,2021.2.3,59.94571316140396,
259.75,260.0,41,0.0,Stimuli/Blank.png,0,0,0.0,0,114,114,114,,,,,,,,,,,,,259.7793597000018,0.029359700001805322,None,301.8116740999976,301.8116740999976,301.8116740999976,301.8116740999976,301.8116740999976,301.8116740999976,301.8116740999976,301.8116740999976,301.8116740999976,301.8116740999976,,001,P009,2025_Feb_01_1311,ConditionRich,2021.2.3,59.94571316140396,
260.0,263.75,21,0.75,Stimuli/P009/things_boy_05s.jpg,0,0,0.0,0,115,115,115,,,,,,,,,,,,,260.0145287000014,0.01452870000139228,None,302.06190219999917,302.06190219999917,302.06190219999917,302.06190219999917,302.06190219999917,302.06190219999917,302.06190219999917,302.06190219999917,302.06190219999917,302.06190219999917,,001,P009,2025_Feb_01_1311,ConditionRich,2021.2.3,59.94571316140396,
263.75,264.0,41,0.0,Stimuli/Blank.png,0,0,0.0,0,116,116,116,,,,,,,,,,,,,263.7652500000004,0.01525000000037835,None,305.79852799999935,305.79852799999935,305.79852799999935,305.79852799999935,305.79852799999935,305.79852799999935,305.79852799999935,305.79852799999935,305.79852799999935,305.79852799999935,,001,P009,2025_Feb_01_1311,ConditionRich,2021.2.3,59.94571316140396,
264.0,267.75,27,0.75,Stimuli/P009/things_curling_iron_05s.jpg,0,0,0.0,0,117,117,117,,,,,,,,,,,,,264.01548150000235,0.015481500002351822,None,306.0487507999969,306.0487507999969,306.0487507999969,306.0487507999969,306.0487507999969,306.0487507999969,306.0487507999969,306.0487507999969,306.0487507999969,306.0487507999969,,001,P009,2025_Feb_01_1311,ConditionRich,2021.2.3,59.94571316140396,
267.75,268.0,41,0.0,Stimuli/Blank.png,0,0,0.0,0,118,118,118,,,,,,,,,,,,,267.7542935999991,0.004293599999073194,None,309.8020829999987,309.8020829999987,309.8020829999987,309.8020829999987,309.8020829999987,309.8020829999987,309.8020829999987,309.8020829999987,309.8020829999987,309.8020829999987,,001,P009,2025_Feb_01_1311,ConditionRich,2021.2.3,59.94571316140396,
268.0,271.75,16,0.75,Stimuli/P009/sun_bqpyqljaflidcauh.jpg,0,0,0.0,0,119,119,119,,,,,,,,,,,,,268.0191913999988,0.01919139999881736,None,310.0523011000005,310.0523011000005,310.0523011000005,310.0523011000005,310.0523011000005,310.0523011000005,310.0523011000005,310.0523011000005,310.0523011000005,310.0523011000005,,001,P009,2025_Feb_01_1311,ConditionRich,2021.2.3,59.94571316140396,
271.75,272.0,41,0.0,Stimuli/Blank.png,0,0,0.0,0,120,120,120,,,,,,,,,,,,,271.7557770000021,0.005777000002126442,None,313.78894339999897,313.78894339999897,313.78894339999897,313.78894339999897,313.78894339999897,313.78894339999897,313.78894339999897,313.78894339999897,313.78894339999897,313.78894339999897,,001,P009,2025_Feb_01_1311,ConditionRich,2021.2.3,59.94571316140396,
272.0,275.75,33,0.75,Stimuli/P009/things_lizard_05n.jpg,0,0,0.0,0,121,121,121,,,,,,,,,,,,,272.00607890000174,0.006078900001739385,None,314.0391521999991,314.0391521999991,314.0391521999991,314.0391521999991,314.0391521999991,314.0391521999991,314.0391521999991,314.0391521999991,314.0391521999991,314.0391521999991,,001,P009,2025_Feb_01_1311,ConditionRich,2021.2.3,59.94571316140396,
275.75,276.0,41,0.0,Stimuli/Blank.png,0,0,0.0,0,122,122,122,,,,,,,,,,,,,275.7594386000019,0.009438600001885789,None,317.7924688999992,317.7924688999992,317.7924688999992,317.7924688999992,317.7924688999992,317.7924688999992,317.7924688999992,317.7924688999992,317.7924688999992,317.7924688999992,,001,P009,2025_Feb_01_1311,ConditionRich,2021.2.3,59.94571316140396,
276.0,292.0,0,0.0,Stimuli/Blank.png,1,2,2.75,0,123,123,123,,,,,,,,,,,,,276.0106420000011,0.010642000001098495,1,318.05939809999836,318.05939809999836,318.05939809999836,318.05939809999836,318.05939809999836,318.05939809999836,320.02778019999823,320.77842619999865,318.05939809999836,318.05939809999836,2.272482199998194,001,P009,2025_Feb_01_1311,ConditionRich,2021.2.3,59.94571316140396,
292.0,295.75,13,0.75,Stimuli/P009/sun_bjimvgwadfodioes.jpg,0,0,0.0,0,124,124,124,,,,,,,,,,,,,292.02517050000097,0.025170500000967877,None,334.0735696999982,334.0735696999982,334.0735696999982,334.0735696999982,334.0735696999982,334.0735696999982,334.0735696999982,334.0735696999982,334.0735696999982,334.0735696999982,,001,P009,2025_Feb_01_1311,ConditionRich,2021.2.3,59.94571316140396,
295.75,296.0,41,0.0,Stimuli/Blank.png,0,0,0.0,0,125,125,125,,,,,,,,,,,,,295.77764749999915,0.02764749999914784,None,337.810230199997,337.810230199997,337.810230199997,337.810230199997,337.810230199997,337.810230199997,337.810230199997,337.810230199997,337.810230199997,337.810230199997,,001,P009,2025_Feb_01_1311,ConditionRich,2021.2.3,59.94571316140396,
296.0,299.75,36,0.75,Stimuli/P009/things_pelican_05s.jpg,1,3,3.75,0,126,126,126,,,,,,,,,,,,,296.0107081000024,0.010708100002375431,1,338.04371439999886,338.04371439999886,338.04371439999886,338.04371439999886,338.04371439999886,338.04371439999886,341.02975239999796,341.7804058999973,338.04371439999886,338.04371439999886,3.3241147000007913,001,P009,2025_Feb_01_1311,ConditionRich,2021.2.3,59.94571316140396,
299.75,300.0,41,0.0,Stimuli/Blank.png,0,0,0.0,0,127,127,127,,,,,,,,,,,,,299.76459969999996,0.014599699999962468,None,341.79704949999723,341.79704949999723,341.79704949999723,341.79704949999723,341.79704949999723,341.79704949999723,341.79704949999723,341.79704949999723,341.79704949999723,341.79704949999723,,001,P009,2025_Feb_01_1311,ConditionRich,2021.2.3,59.94571316140396,
300.0,303.75,1,0.75,Stimuli/P009/sun_abqdlumenyzawlme.jpg,0,0,0.0,0,128,128,128,,,,,,,,,,,,,300.0153664999998,0.015366499999799998,None,342.06394649999856,342.06394649999856,342.06394649999856,342.06394649999856,342.06394649999856,342.06394649999856,342.06394649999856,342.06394649999856,342.06394649999856,342.06394649999856,,001,P009,2025_Feb_01_1311,ConditionRich,2021.2.3,59.94571316140396,
303.75,304.0,41,0.0,Stimuli/Blank.png,0,0,0.0,0,129,129,129,,,,,,,,,,,,,303.7697436000017,0.019743600001675077,None,345.81726929999786,345.81726929999786,345.81726929999786,345.81726929999786,345.81726929999786,345.81726929999786,345.81726929999786,345.81726929999786,345.81726929999786,345.81726929999786,,001,P009,2025_Feb_01_1311,ConditionRich,2021.2.3,59.94571316140396,
304.0,307.75,4,0.75,Stimuli/P009/sun_afkzdukwewwzqtmr.jpg,0,0,0.0,0,130,130,130,,,,,,,,,,,,,304.0182875999999,0.018287599999894155,None,346.06744869999966,346.06744869999966,346.06744869999966,346.06744869999966,346.06744869999966,346.06744869999966,346.06744869999966,346.06744869999966,346.06744869999966,346.06744869999966,,001,P009,2025_Feb_01_1311,ConditionRich,2021.2.3,59.94571316140396,
307.75,308.0,41,0.0,Stimuli/Blank.png,0,0,0.0,0,131,131,131,,,,,,,,,,,,,307.7716751000007,0.021675100000720704,None,349.8041854999974,349.8041854999974,349.8041854999974,349.8041854999974,349.8041854999974,349.8041854999974,349.8041854999974,349.8041854999974,349.8041854999974,349.8041854999974,,001,P009,2025_Feb_01_1311,ConditionRich,2021.2.3,59.94571316140396,
308.0,311.75,40,0.75,Stimuli/P009/things_woman_05s.jpg,0,0,0.0,0,132,132,132,,,,,,,,,,,,,308.00438869999925,0.004388699999253731,None,350.0382783999994,350.0382783999994,350.0382783999994,350.0382783999994,350.0382783999994,350.0382783999994,350.0382783999994,350.0382783999994,350.0382783999994,350.0382783999994,,001,P009,2025_Feb_01_1311,ConditionRich,2021.2.3,59.94571316140396,
311.75,312.0,41,0.0,Stimuli/Blank.png,0,0,0.0,0,133,133,133,,,,,,,,,,,,,311.7604742000003,0.010474200000317069,None,353.80767659999765,353.80767659999765,353.80767659999765,353.80767659999765,353.80767659999765,353.80767659999765,353.80767659999765,353.80767659999765,353.80767659999765,353.80767659999765,,001,P009,2025_Feb_01_1311,ConditionRich,2021.2.3,59.94571316140396,
312.0,315.75,12,0.75,Stimuli/P009/sun_birmwgkdtrlevcaf.jpg,0,0,0.0,0,134,134,134,,,,,,,,,,,,,312.02502019999883,0.02502019999883487,None,354.05788649999886,354.05788649999886,354.05788649999886,354.05788649999886,354.05788649999886,354.05788649999886,354.05788649999886,354.05788649999886,354.05788649999886,354.05788649999886,,001,P009,2025_Feb_01_1311,ConditionRich,2021.2.3,59.94571316140396,
315.75,316.0,41,0.0,Stimuli/Blank.png,0,0,0.0,0,135,135,135,,,,,,,,,,,,,315.7621048000001,0.01210480000008829,None,357.79453959999955,357.79453959999955,357.79453959999955,357.79453959999955,357.79453959999955,357.79453959999955,357.79453959999955,357.79453959999955,357.79453959999955,357.79453959999955,,001,P009,2025_Feb_01_1311,ConditionRich,2021.2.3,59.94571316140396,
316.0,319.75,22,0.75,Stimuli/P009/things_butterfly_05s.jpg,0,0,0.0,0,136,136,136,,,,,,,,,,,,,316.01154170000154,0.011541700001544086,None,358.04474339999797,358.04474339999797,358.04474339999797,358.04474339999797,358.04474339999797,358.04474339999797,358.04474339999797,358.04474339999797,358.04474339999797,358.04474339999797,,001,P009,2025_Feb_01_1311,ConditionRich,2021.2.3,59.94571316140396,
319.75,320.0,41,0.0,Stimuli/Blank.png,0,0,0.0,0,137,137,137,,,,,,,,,,,,,319.764710200001,0.01471020000099088,None,361.79806370000006,361.79806370000006,361.79806370000006,361.79806370000006,361.79806370000006,361.79806370000006,361.79806370000006,361.79806370000006,361.79806370000006,361.79806370000006,,001,P009,2025_Feb_01_1311,ConditionRich,2021.2.3,59.94571316140396,
320.0,323.75,6,0.75,Stimuli/P009/sun_amkrwcyvinmsylsz.jpg,0,0,0.0,0,138,138,138,,,,,,,,,,,,,320.01598899999954,0.015988999999535736,None,362.0482856999988,362.0482856999988,362.0482856999988,362.0482856999988,362.0482856999988,362.0482856999988,362.0482856999988,362.0482856999988,362.0482856999988,362.0482856999988,,001,P009,2025_Feb_01_1311,ConditionRich,2021.2.3,59.94571316140396,
323.75,324.0,41,0.0,Stimuli/Blank.png,0,0,0.0,0,139,139,139,,,,,,,,,,,,,323.75467240000216,0.004672400002164068,None,365.8017878999999,365.8017878999999,365.8017878999999,365.8017878999999,365.8017878999999,365.8017878999999,365.8017878999999,365.8017878999999,365.8017878999999,365.8017878999999,,001,P009,2025_Feb_01_1311,ConditionRich,2021.2.3,59.94571316140396,
324.0,327.75,39,0.75,Stimuli/P009/things_tiara_05s.jpg,0,0,0.0,0,140,140,140,,,,,,,,,,,,,324.01937650000036,0.019376500000362284,None,366.05284539999775,366.05284539999775,366.05284539999775,366.05284539999775,366.05284539999775,366.05284539999775,366.05284539999775,366.05284539999775,366.05284539999775,366.05284539999775,,001,P009,2025_Feb_01_1311,ConditionRich,2021.2.3,59.94571316140396,
327.75,328.0,41,0.0,Stimuli/Blank.png,0,0,0.0,0,141,141,141,,,,,,,,,,,,,327.7552983000023,0.005298300002323231,None,369.788468499999,369.788468499999,369.788468499999,369.788468499999,369.788468499999,369.788468499999,369.788468499999,369.788468499999,369.788468499999,369.788468499999,,001,P009,2025_Feb_01_1311,ConditionRich,2021.2.3,59.94571316140396,
328.0,331.75,3,0.75,Stimuli/P009/sun_aewgwsmvsgzleqhw.jpg,1,0,0.75,0,142,142,142,,,,,,,,,,,,,328.0054170000003,0.005417000000306871,1,370.0386839999992,370.0386839999992,370.0386839999992,370.0386839999992,370.0386839999992,370.0386839999992,370.0386839999992,370.77266579999923,370.0386839999992,370.0386839999992,0.4640036999990116,001,P009,2025_Feb_01_1311,ConditionRich,2021.2.3,59.94571316140396,
331.75,332.0,41,0.0,Stimuli/Blank.png,0,0,0.0,0,143,143,143,,,,,,,,,,,,,331.7590229000016,0.009022900001582457,None,373.7920032000002,373.7920032000002,373.7920032000002,373.7920032000002,373.7920032000002,373.7920032000002,373.7920032000002,373.7920032000002,373.7920032000002,373.7920032000002,,001,P009,2025_Feb_01_1311,ConditionRich,2021.2.3,59.94571316140396,
332.0,335.75,28,0.75,Stimuli/P009/things_face_05s.jpg,0,0,0.0,0,144,144,144,,,,,,,,,,,,,332.0098625999999,0.009862599999905797,None,374.0422385999991,374.0422385999991,374.0422385999991,374.0422385999991,374.0422385999991,374.0422385999991,374.0422385999991,374.0422385999991,374.0422385999991,374.0422385999991,,001,P009,2025_Feb_01_1311,ConditionRich,2021.2.3,59.94571316140396,
335.75,336.0,41,0.0,Stimuli/Blank.png,0,0,0.0,0,145,145,145,,,,,,,,,,,,,335.76310100000046,0.013101000000460772,None,377.7955617999978,377.7955617999978,377.7955617999978,377.7955617999978,377.7955617999978,377.7955617999978,377.7955617999978,377.7955617999978,377.7955617999978,377.7955617999978,,001,P009,2025_Feb_01_1311,ConditionRich,2021.2.3,59.94571316140396,
336.0,339.75,10,0.75,Stimuli/P009/sun_bdkttewvyfdarikm.jpg,1,0,0.75,0,146,146,146,,,,,,,,,,,,,336.01457780000055,0.014577800000552088,1,378.06245469999703,378.06245469999703,378.06245469999703,378.06245469999703,378.06245469999703,378.06245469999703,378.06245469999703,378.79643459999716,378.06245469999703,378.06245469999703,0.4752974000002723,001,P009,2025_Feb_01_1311,ConditionRich,2021.2.3,59.94571316140396,
339.75,340.0,41,0.0,Stimuli/Blank.png,0,0,0.0,0,147,147,147,,,,,,,,,,,,,339.76679460000014,0.016794600000139326,None,381.7990940999989,381.7990940999989,381.7990940999989,381.7990940999989,381.7990940999989,381.7990940999989,381.7990940999989,381.7990940999989,381.7990940999989,381.7990940999989,,001,P009,2025_Feb_01_1311,ConditionRich,2021.2.3,59.94571316140396,
340.0,343.75,20,0.75,Stimuli/P009/sun_ddsiwinthvyejghq.jpg,1,3,3.75,0,148,148,148,,,,,,,,,,,,,339.99985519999973,-0.00014480000027106144,1,382.03264130000025,382.03264130000025,382.03264130000025,382.03264130000025,382.03264130000025,382.03264130000025,385.01864299999943,385.76931219999824,382.03264130000025,382.03264130000025,3.3500426999999036,001,P009,2025_Feb_01_1311,ConditionRich,2021.2.3,59.94571316140396,
343.75,344.0,41,0.0,Stimuli/Blank.png,0,0,0.0,0,149,149,149,,,,,,,,,,,,,343.7557474999994,0.005747499999415595,None,385.80264589999933,385.80264589999933,385.80264589999933,385.80264589999933,385.80264589999933,385.80264589999933,385.80264589999933,385.80264589999933,385.80264589999933,385.80264589999933,,001,P009,2025_Feb_01_1311,ConditionRich,2021.2.3,59.94571316140396,
344.0,347.75,30,0.75,Stimuli/P009/things_fire_05s.jpg,0,0,0.0,0,150,150,150,,,,,,,,,,,,,344.0202696000015,0.020269600001483923,None,386.06957200000033,386.06957200000033,386.06957200000033,386.06957200000033,386.06957200000033,386.06957200000033,386.06957200000033,386.06957200000033,386.06957200000033,386.06957200000033,,001,P009,2025_Feb_01_1311,ConditionRich,2021.2.3,59.94571316140396,
347.75,348.0,41,0.0,Stimuli/Blank.png,0,0,0.0,0,151,151,151,,,,,,,,,,,,,347.7758188000007,0.025818800000706688,None,389.8228601999981,389.8228601999981,389.8228601999981,389.8228601999981,389.8228601999981,389.8228601999981,389.8228601999981,389.8228601999981,389.8228601999981,389.8228601999981,,001,P009,2025_Feb_01_1311,ConditionRich,2021.2.3,59.94571316140396,
348.0,351.75,8,0.75,Stimuli/P009/sun_batcnoizlkeiqdtx.jpg,0,0,0.0,0,152,152,152,,,,,,,,,,,,,348.02384560000064,0.023845600000640843,None,390.05639879999944,390.05639879999944,390.05639879999944,390.05639879999944,390.05639879999944,390.05639879999944,390.05639879999944,390.05639879999944,390.05639879999944,390.05639879999944,,001,P009,2025_Feb_01_1311,ConditionRich,2021.2.3,59.94571316140396,
351.75,352.0,41,0.0,Stimuli/Blank.png,0,0,0.0,0,153,153,153,,,,,,,,,,,,,351.76045330000125,0.010453300001245225,None,393.79300409999996,393.79300409999996,393.79300409999996,393.79300409999996,393.79300409999996,393.79300409999996,393.79300409999996,393.79300409999996,393.79300409999996,393.79300409999996,,001,P009,2025_Feb_01_1311,ConditionRich,2021.2.3,59.94571316140396,
352.0,355.75,35,0.75,Stimuli/P009/things_mushroom_05n.jpg,0,0,0.0,0,154,154,154,,,,,,,,,,,,,352.0110777000009,0.011077700000896584,None,394.059962299998,394.059962299998,394.059962299998,394.059962299998,394.059962299998,394.059962299998,394.059962299998,394.059962299998,394.059962299998,394.059962299998,,001,P009,2025_Feb_01_1311,ConditionRich,2021.2.3,59.94571316140396,
355.75,356.0,41,0.0,Stimuli/Blank.png,0,0,0.0,0,155,155,155,,,,,,,,,,,,,355.78024240000013,0.030242400000133784,None,397.8132537999991,397.8132537999991,397.8132537999991,397.8132537999991,397.8132537999991,397.8132537999991,397.8132537999991,397.8132537999991,397.8132537999991,397.8132537999991,,001,P009,2025_Feb_01_1311,ConditionRich,2021.2.3,59.94571316140396,
356.0,359.75,37,0.75,Stimuli/P009/things_pug_05s.jpg,0,0,0.0,0,156,156,156,,,,,,,,,,,,,356.01411369999914,0.014113699999143137,None,398.046803199999,398.046803199999,398.046803199999,398.046803199999,398.046803199999,398.046803199999,398.046803199999,398.046803199999,398.046803199999,398.046803199999,,001,P009,2025_Feb_01_1311,ConditionRich,2021.2.3,59.94571316140396,
359.75,360.0,41,0.0,Stimuli/Blank.png,0,0,0.0,0,157,157,157,,,,,,,,,,,,,359.7503405999996,0.0003405999996175524,None,401.7834344999974,401.7834344999974,401.7834344999974,401.7834344999974,401.7834344999974,401.7834344999974,401.7834344999974,401.7834344999974,401.7834344999974,401.7834344999974,,001,P009,2025_Feb_01_1311,ConditionRich,2021.2.3,59.94571316140396,
360.0,363.75,15,0.75,Stimuli/P009/sun_boryivbddrnarrbo.jpg,0,0,0.0,0,158,158,158,,,,,,,,,,,,,360.0008693000018,0.0008693000017956365,None,402.03386189999947,402.03386189999947,402.03386189999947,402.03386189999947,402.03386189999947,402.03386189999947,402.03386189999947,402.03386189999947,402.03386189999947,402.03386189999947,,001,P009,2025_Feb_01_1311,ConditionRich,2021.2.3,59.94571316140396,
363.75,364.0,41,0.0,Stimuli/Blank.png,0,0,0.0,0,159,159,159,,,,,,,,,,,,,363.7552348999998,0.005234899999777554,None,405.78698379999696,405.78698379999696,405.78698379999696,405.78698379999696,405.78698379999696,405.78698379999696,405.78698379999696,405.78698379999696,405.78698379999696,405.78698379999696,,001,P009,2025_Feb_01_1311,ConditionRich,2021.2.3,59.94571316140396,
364.0,367.75,29,0.75,Stimuli/P009/things_fingerprint_05s.jpg,0,0,0.0,0,160,160,160,,,,,,,,,,,,,364.006444300001,0.006444300001021475,None,406.0538766999998,406.0538766999998,406.0538766999998,406.0538766999998,406.0538766999998,406.0538766999998,406.0538766999998,406.0538766999998,406.0538766999998,406.0538766999998,,001,P009,2025_Feb_01_1311,ConditionRich,2021.2.3,59.94571316140396,
367.75,368.0,41,0.0,Stimuli/Blank.png,0,0,0.0,0,161,161,161,,,,,,,,,,,,,367.7746898000005,0.024689800000487594,None,409.8072007999981,409.8072007999981,409.8072007999981,409.8072007999981,409.8072007999981,409.8072007999981,409.8072007999981,409.8072007999981,409.8072007999981,409.8072007999981,,001,P009,2025_Feb_01_1311,ConditionRich,2021.2.3,59.94571316140396,
368.0,371.75,24,0.75,Stimuli/P009/things_cigar_05n.jpg,0,0,0.0,0,162,162,162,,,,,,,,,,,,,368.0081710000013,0.008171000001311768,None,410.0407379999997,410.0407379999997,410.0407379999997,410.0407379999997,410.0407379999997,410.0407379999997,410.0407379999997,410.0407379999997,410.0407379999997,410.0407379999997,,001,P009,2025_Feb_01_1311,ConditionRich,2021.2.3,59.94571316140396,
371.75,372.0,41,0.0,Stimuli/Blank.png,0,0,0.0,0,163,163,163,,,,,,,,,,,,,371.7607057000023,0.010705700002290541,None,413.7940563999982,413.7940563999982,413.7940563999982,413.7940563999982,413.7940563999982,413.7940563999982,413.7940563999982,413.7940563999982,413.7940563999982,413.7940563999982,,001,P009,2025_Feb_01_1311,ConditionRich,2021.2.3,59.94571316140396,
372.0,388.0,0,0.0,Stimuli/Blank.png,1,12,12.75,0,164,164,164,,,,,,,,,,,,,372.0112150999994,0.011215099999390077,1,414.04428629999893,414.04428629999893,414.04428629999893,414.04428629999893,414.04428629999893,414.04428629999893,426.02153709999766,426.77219729999706,414.04428629999893,414.04428629999893,12.266370299999835,001,P009,2025_Feb_01_1311,ConditionRich,2021.2.3,59.94571316140396,
