eventStartTime,eventEndTime,eventCond,imSize,imFile,responseEvent,fixRespStart,fixRespEnd,Events.thisRepN,Events.thisTrialN,Events.thisN,Events.thisIndex,Instructions.started,Instructions.stopped,participantReadyResponse.keys,participantReadyResponse.rt,participantReadyResponse.started,participantReadyResponse.stopped,startWaitforTrigger,triggerResponse.keys,triggerResponse.rt,triggerResponse.started,triggerResponse.stopped,globalTimer,actualStartTime,startTimingDiff,participantResponse.keys,participantResponse.rt,participantResponse.started,participantResponse.stopped,image.started,image.stopped,fixationOutside.started,fixationOutside.stopped,fixationResponse.started,fixationResponse.stopped,fixationInside.started,fixationInside.stopped,session,participant,date,expName,psychopyVersion,frameRate,
,,,,,,,,,,,,12.89175669999895,None,1,6.366377700000157,12.89175669999895,None,,,,,,,,,,,,,,,,,,,,,002,P009,2025_Feb_01_1318,ConditionRich,2021.2.3,59.92362135183055,
,,,,,,,,,,,,,,,,,,19.26851180000085,5,14.186566000000312,19.281752200000483,None,,,,,,,,,,,,,,,,002,P009,2025_Feb_01_1318,ConditionRich,2021.2.3,59.92362135183055,
0.0,4.0,0,0.0,Stimuli/Blank.png,0,0.0,0.0,0,0,0,0,,,,,,,,,,,,33.48117600000114,0.02362119999816059,0.02362119999816059,1,3.904547399997682,33.527665499997966,None,33.527665499997966,None,33.527665499997966,None,33.527665499997966,33.527665499997966,33.527665499997966,None,002,P009,2025_Feb_01_1318,ConditionRich,2021.2.3,59.92362135183055,
4.0,4.75,14,0.75,Stimuli/P009/sun_blaqxdebghixzyyw.jpg,1,0.0,0.75,0,1,1,1,,,,,,,,,,,,,4.019455099998595,0.01945509999859496,None,,37.51486540000042,37.51486540000042,37.51486540000042,37.51486540000042,37.51486540000042,37.51486540000042,37.51486540000042,None,37.51486540000042,37.51486540000042,002,P009,2025_Feb_01_1318,ConditionRich,2021.2.3,59.92362135183055,
4.75,8.0,41,0.0,Stimuli/Blank.png,0,0.0,0.0,0,2,2,2,,,,,,,,,,,,,4.755697799999325,0.0056977999993250705,1,0.1037921000024653,38.26566449999882,38.26566449999882,38.26566449999882,38.26566449999882,38.26566449999882,38.26566449999882,38.26566449999882,38.26566449999882,38.26566449999882,38.26566449999882,002,P009,2025_Feb_01_1318,ConditionRich,2021.2.3,59.92362135183055,
8.0,8.75,33,0.75,Stimuli/P009/things_lizard_05n.jpg,0,0.0,0.0,0,3,3,3,,,,,,,,,,,,,8.026398099998914,0.026398099998914404,None,,41.535000100000616,41.535000100000616,41.535000100000616,41.535000100000616,41.535000100000616,41.535000100000616,41.535000100000616,41.535000100000616,41.535000100000616,41.535000100000616,002,P009,2025_Feb_01_1318,ConditionRich,2021.2.3,59.92362135183055,
8.75,12.0,41,0.0,Stimuli/Blank.png,0,0.0,0.0,0,4,4,4,,,,,,,,,,,,,8.77406830000109,0.024068300001090392,None,,42.26896470000065,42.26896470000065,42.26896470000065,42.26896470000065,42.26896470000065,42.26896470000065,42.26896470000065,42.26896470000065,42.26896470000065,42.26896470000065,002,P009,2025_Feb_01_1318,ConditionRich,2021.2.3,59.92362135183055,
12.0,12.75,27,0.75,Stimuli/P009/things_curling_iron_05s.jpg,0,0.0,0.0,0,5,5,5,,,,,,,,,,,,,12.010880900001212,0.010880900001211558,None,,45.50516710000011,45.50516710000011,45.50516710000011,45.50516710000011,45.50516710000011,45.50516710000011,45.50516710000011,45.50516710000011,45.50516710000011,45.50516710000011,002,P009,2025_Feb_01_1318,ConditionRich,2021.2.3,59.92362135183055,
12.75,16.0,41,0.0,Stimuli/Blank.png,0,0.0,0.0,0,6,6,6,,,,,,,,,,,,,12.76082310000129,0.010823100001289276,None,,46.25582179999765,46.25582179999765,46.25582179999765,46.25582179999765,46.25582179999765,46.25582179999765,46.25582179999765,46.25582179999765,46.25582179999765,46.25582179999765,002,P009,2025_Feb_01_1318,ConditionRich,2021.2.3,59.92362135183055,
16.0,16.75,37,0.75,Stimuli/P009/things_pug_05s.jpg,0,0.0,0.0,0,7,7,7,,,,,,,,,,,,,16.01321950000056,0.013219500000559492,None,,49.50925450000068,49.50925450000068,49.50925450000068,49.50925450000068,49.50925450000068,49.50925450000068,49.50925450000068,49.50925450000068,49.50925450000068,49.50925450000068,002,P009,2025_Feb_01_1318,ConditionRich,2021.2.3,59.92362135183055,
16.75,20.0,41,0.0,Stimuli/Blank.png,0,0.0,0.0,0,8,8,8,,,,,,,,,,,,,16.763981699998112,0.013981699998112163,None,,50.25936300000103,50.25936300000103,50.25936300000103,50.25936300000103,50.25936300000103,50.25936300000103,50.25936300000103,50.25936300000103,50.25936300000103,50.25936300000103,002,P009,2025_Feb_01_1318,ConditionRich,2021.2.3,59.92362135183055,
20.0,20.75,28,0.75,Stimuli/P009/things_face_05s.jpg,0,0.0,0.0,0,9,9,9,,,,,,,,,,,,,19.999897499998042,-0.00010250000195810571,None,,53.49552799999947,53.49552799999947,53.49552799999947,53.49552799999947,53.49552799999947,53.49552799999947,53.49552799999947,53.49552799999947,53.49552799999947,53.49552799999947,002,P009,2025_Feb_01_1318,ConditionRich,2021.2.3,59.92362135183055,
20.75,24.0,41,0.0,Stimuli/Blank.png,0,0.0,0.0,0,10,10,10,,,,,,,,,,,,,20.750458499998786,0.00045849999878555536,None,,54.24622549999913,54.24622549999913,54.24622549999913,54.24622549999913,54.24622549999913,54.24622549999913,54.24622549999913,54.24622549999913,54.24622549999913,54.24622549999913,002,P009,2025_Feb_01_1318,ConditionRich,2021.2.3,59.92362135183055,
24.0,24.75,20,0.75,Stimuli/P009/sun_ddsiwinthvyejghq.jpg,0,0.0,0.0,0,11,11,11,,,,,,,,,,,,,24.00344639999821,0.003446399998210836,None,,57.49910380000074,57.49910380000074,57.49910380000074,57.49910380000074,57.49910380000074,57.49910380000074,57.49910380000074,57.49910380000074,57.49910380000074,57.49910380000074,002,P009,2025_Feb_01_1318,ConditionRich,2021.2.3,59.92362135183055,
24.75,28.0,41,0.0,Stimuli/Blank.png,0,0.0,0.0,0,12,12,12,,,,,,,,,,,,,24.75494239999898,0.004942399998981273,None,,58.24977840000065,58.24977840000065,58.24977840000065,58.24977840000065,58.24977840000065,58.24977840000065,58.24977840000065,58.24977840000065,58.24977840000065,58.24977840000065,002,P009,2025_Feb_01_1318,ConditionRich,2021.2.3,59.92362135183055,
28.0,28.75,15,0.75,Stimuli/P009/sun_boryivbddrnarrbo.jpg,0,0.0,0.0,0,13,13,13,,,,,,,,,,,,,28.006842899998446,0.006842899998446228,None,,61.51933189999909,61.51933189999909,61.51933189999909,61.51933189999909,61.51933189999909,61.51933189999909,61.51933189999909,61.51933189999909,61.51933189999909,61.51933189999909,002,P009,2025_Feb_01_1318,ConditionRich,2021.2.3,59.92362135183055,
28.75,32.0,41,0.0,Stimuli/Blank.png,0,0.0,0.0,0,14,14,14,,,,,,,,,,,,,28.774966799999675,0.02496679999967455,None,,62.26999860000069,62.26999860000069,62.26999860000069,62.26999860000069,62.26999860000069,62.26999860000069,62.26999860000069,62.26999860000069,62.26999860000069,62.26999860000069,002,P009,2025_Feb_01_1318,ConditionRich,2021.2.3,59.92362135183055,
32.0,32.75,1,0.75,Stimuli/P009/sun_abqdlumenyzawlme.jpg,0,0.0,0.0,0,15,15,15,,,,,,,,,,,,,32.010432999999466,0.01043299999946612,None,,65.50672330000089,65.50672330000089,65.50672330000089,65.50672330000089,65.50672330000089,65.50672330000089,65.50672330000089,65.50672330000089,65.50672330000089,65.50672330000089,002,P009,2025_Feb_01_1318,ConditionRich,2021.2.3,59.92362135183055,
32.75,36.0,41,0.0,Stimuli/Blank.png,0,0.0,0.0,0,16,16,16,,,,,,,,,,,,,32.761760099998355,0.011760099998355145,None,,66.25686009999845,66.25686009999845,66.25686009999845,66.25686009999845,66.25686009999845,66.25686009999845,66.25686009999845,66.25686009999845,66.25686009999845,66.25686009999845,002,P009,2025_Feb_01_1318,ConditionRich,2021.2.3,59.92362135183055,
36.0,36.75,11,0.75,Stimuli/P009/sun_bfyvfqiimvdaxlqn.jpg,0,0.0,0.0,0,17,17,17,,,,,,,,,,,,,36.014322099999845,0.014322099999844795,None,,69.50972759999786,69.50972759999786,69.50972759999786,69.50972759999786,69.50972759999786,69.50972759999786,69.50972759999786,69.50972759999786,69.50972759999786,69.50972759999786,002,P009,2025_Feb_01_1318,ConditionRich,2021.2.3,59.92362135183055,
36.75,40.0,41,0.0,Stimuli/Blank.png,0,0.0,0.0,0,18,18,18,,,,,,,,,,,,,36.76548230000117,0.01548230000116746,None,,70.26040329999887,70.26040329999887,70.26040329999887,70.26040329999887,70.26040329999887,70.26040329999887,70.26040329999887,70.26040329999887,70.26040329999887,70.26040329999887,002,P009,2025_Feb_01_1318,ConditionRich,2021.2.3,59.92362135183055,
40.0,40.75,35,0.75,Stimuli/P009/things_mushroom_05n.jpg,0,0.0,0.0,0,19,19,19,,,,,,,,,,,,,40.00082180000027,0.0008218000002671033,None,,73.49659279999833,73.49659279999833,73.49659279999833,73.49659279999833,73.49659279999833,73.49659279999833,73.49659279999833,73.49659279999833,73.49659279999833,73.49659279999833,002,P009,2025_Feb_01_1318,ConditionRich,2021.2.3,59.92362135183055,
40.75,44.0,41,0.0,Stimuli/Blank.png,0,0.0,0.0,0,20,20,20,,,,,,,,,,,,,40.7523113999996,0.002311399999598507,None,,74.24725749999925,74.24725749999925,74.24725749999925,74.24725749999925,74.24725749999925,74.24725749999925,74.24725749999925,74.24725749999925,74.24725749999925,74.24725749999925,002,P009,2025_Feb_01_1318,ConditionRich,2021.2.3,59.92362135183055,
44.0,44.75,39,0.75,Stimuli/P009/things_tiara_05s.jpg,0,0.0,0.0,0,21,21,21,,,,,,,,,,,,,44.00423349999983,0.0042334999998274725,None,,77.50013820000095,77.50013820000095,77.50013820000095,77.50013820000095,77.50013820000095,77.50013820000095,77.50013820000095,77.50013820000095,77.50013820000095,77.50013820000095,002,P009,2025_Feb_01_1318,ConditionRich,2021.2.3,59.92362135183055,
44.75,48.0,41,0.0,Stimuli/Blank.png,1,0.25,1.0,0,22,22,22,,,,,,,,,,,,,44.75496850000127,0.004968500001268694,1,0.6864105000022391,78.25080739999976,78.25080739999976,78.25080739999976,78.25080739999976,78.25080739999976,78.25080739999976,78.48434980000093,79.2350019000005,78.25080739999976,78.25080739999976,002,P009,2025_Feb_01_1318,ConditionRich,2021.2.3,59.92362135183055,
48.0,48.75,17,0.75,Stimuli/P009/sun_brkrfjpyfglmigkk.jpg,0,0.0,0.0,0,23,23,23,,,,,,,,,,,,,48.010037199997896,0.010037199997896096,None,,81.52036999999837,81.52036999999837,81.52036999999837,81.52036999999837,81.52036999999837,81.52036999999837,81.52036999999837,81.52036999999837,81.52036999999837,81.52036999999837,002,P009,2025_Feb_01_1318,ConditionRich,2021.2.3,59.92362135183055,
48.75,52.0,41,0.0,Stimuli/Blank.png,0,0.0,0.0,0,24,24,24,,,,,,,,,,,,,48.77541310000015,0.025413100000150735,None,,82.27102459999878,82.27102459999878,82.27102459999878,82.27102459999878,82.27102459999878,82.27102459999878,82.27102459999878,82.27102459999878,82.27102459999878,82.27102459999878,002,P009,2025_Feb_01_1318,ConditionRich,2021.2.3,59.92362135183055,
52.0,52.75,32,0.75,Stimuli/P009/things_hawk_05s.jpg,0,0.0,0.0,0,25,25,25,,,,,,,,,,,,,52.01183659999879,0.011836599998787278,None,,85.50722069999756,85.50722069999756,85.50722069999756,85.50722069999756,85.50722069999756,85.50722069999756,85.50722069999756,85.50722069999756,85.50722069999756,85.50722069999756,002,P009,2025_Feb_01_1318,ConditionRich,2021.2.3,59.92362135183055,
52.75,56.0,41,0.0,Stimuli/Blank.png,0,0.0,0.0,0,26,26,26,,,,,,,,,,,,,52.764960399999836,0.014960399999836227,None,,86.27457439999853,86.27457439999853,86.27457439999853,86.27457439999853,86.27457439999853,86.27457439999853,86.27457439999853,86.27457439999853,86.27457439999853,86.27457439999853,002,P009,2025_Feb_01_1318,ConditionRich,2021.2.3,59.92362135183055,
56.0,56.75,16,0.75,Stimuli/P009/sun_bqpyqljaflidcauh.jpg,0,0.0,0.0,0,27,27,27,,,,,,,,,,,,,56.01517999999851,0.01517999999850872,None,,89.5107738000006,89.5107738000006,89.5107738000006,89.5107738000006,89.5107738000006,89.5107738000006,89.5107738000006,89.5107738000006,89.5107738000006,89.5107738000006,002,P009,2025_Feb_01_1318,ConditionRich,2021.2.3,59.92362135183055,
56.75,60.0,41,0.0,Stimuli/Blank.png,1,2.25,3.0,0,28,28,28,,,,,,,,,,,,,56.75010430000111,0.00010430000111227855,1,2.6314502999994147,90.2447609999981,90.2447609999981,90.2447609999981,90.2447609999981,90.2447609999981,90.2447609999981,92.48006610000084,93.23078099999839,90.2447609999981,90.2447609999981,002,P009,2025_Feb_01_1318,ConditionRich,2021.2.3,59.92362135183055,
60.0,60.75,13,0.75,Stimuli/P009/sun_bjimvgwadfodioes.jpg,0,0.0,0.0,0,29,29,29,,,,,,,,,,,,,60.002808000001096,0.002808000001095934,None,,93.49763080000048,93.49763080000048,93.49763080000048,93.49763080000048,93.49763080000048,93.49763080000048,93.49763080000048,93.49763080000048,93.49763080000048,93.49763080000048,002,P009,2025_Feb_01_1318,ConditionRich,2021.2.3,59.92362135183055,
60.75,64.0,41,0.0,Stimuli/Blank.png,0,0.0,0.0,0,30,30,30,,,,,,,,,,,,,60.75471850000031,0.004718500000308268,None,,94.26499239999976,94.26499239999976,94.26499239999976,94.26499239999976,94.26499239999976,94.26499239999976,94.26499239999976,94.26499239999976,94.26499239999976,94.26499239999976,002,P009,2025_Feb_01_1318,ConditionRich,2021.2.3,59.92362135183055,
64.0,64.75,7,0.75,Stimuli/P009/sun_apiogxmvvzfmtsmj.jpg,1,0.0,0.75,0,31,31,31,,,,,,,,,,,,,64.02196049999839,0.021960499998385785,1,0.4966724999976577,97.53453900000022,97.53453900000022,97.53453900000022,97.53453900000022,97.53453900000022,97.53453900000022,97.53453900000022,98.25187699999879,97.53453900000022,97.53453900000022,002,P009,2025_Feb_01_1318,ConditionRich,2021.2.3,59.92362135183055,
64.75,68.0,41,0.0,Stimuli/Blank.png,0,0.0,0.0,0,32,32,32,,,,,,,,,,,,,64.77411460000076,0.02411460000075749,None,,98.26852370000051,98.26852370000051,98.26852370000051,98.26852370000051,98.26852370000051,98.26852370000051,98.26852370000051,98.26852370000051,98.26852370000051,98.26852370000051,002,P009,2025_Feb_01_1318,ConditionRich,2021.2.3,59.92362135183055,
68.0,68.75,10,0.75,Stimuli/P009/sun_bdkttewvyfdarikm.jpg,0,0.0,0.0,0,33,33,33,,,,,,,,,,,,,68.00973149999845,0.009731499998451909,None,,101.5047240999993,101.5047240999993,101.5047240999993,101.5047240999993,101.5047240999993,101.5047240999993,101.5047240999993,101.5047240999993,101.5047240999993,101.5047240999993,002,P009,2025_Feb_01_1318,ConditionRich,2021.2.3,59.92362135183055,
68.75,72.0,41,0.0,Stimuli/Blank.png,0,0.0,0.0,0,34,34,34,,,,,,,,,,,,,68.76059610000084,0.010596100000839215,None,,102.2553693000009,102.2553693000009,102.2553693000009,102.2553693000009,102.2553693000009,102.2553693000009,102.2553693000009,102.2553693000009,102.2553693000009,102.2553693000009,002,P009,2025_Feb_01_1318,ConditionRich,2021.2.3,59.92362135183055,
72.0,72.75,19,0.75,Stimuli/P009/sun_bwvfnogmotsvhofs.jpg,0,0.0,0.0,0,35,35,35,,,,,,,,,,,,,72.01236079999944,0.012360799999441952,None,,105.52495070000077,105.52495070000077,105.52495070000077,105.52495070000077,105.52495070000077,105.52495070000077,105.52495070000077,105.52495070000077,105.52495070000077,105.52495070000077,002,P009,2025_Feb_01_1318,ConditionRich,2021.2.3,59.92362135183055,
72.75,76.0,41,0.0,Stimuli/Blank.png,0,0.0,0.0,0,36,36,36,,,,,,,,,,,,,72.78059089999806,0.030590899998060195,None,,106.2756018,106.2756018,106.2756018,106.2756018,106.2756018,106.2756018,106.2756018,106.2756018,106.2756018,106.2756018,002,P009,2025_Feb_01_1318,ConditionRich,2021.2.3,59.92362135183055,
76.0,76.75,22,0.75,Stimuli/P009/things_butterfly_05s.jpg,0,0.0,0.0,0,37,37,37,,,,,,,,,,,,,76.00057480000032,0.0005748000003222842,None,,109.51180139999997,109.51180139999997,109.51180139999997,109.51180139999997,109.51180139999997,109.51180139999997,109.51180139999997,109.51180139999997,109.51180139999997,109.51180139999997,002,P009,2025_Feb_01_1318,ConditionRich,2021.2.3,59.92362135183055,
76.75,80.0,41,0.0,Stimuli/Blank.png,0,0.0,0.0,0,38,38,38,,,,,,,,,,,,,76.7696305999998,0.019630599999800324,None,,110.27916729999924,110.27916729999924,110.27916729999924,110.27916729999924,110.27916729999924,110.27916729999924,110.27916729999924,110.27916729999924,110.27916729999924,110.27916729999924,002,P009,2025_Feb_01_1318,ConditionRich,2021.2.3,59.92362135183055,
80.0,80.75,8,0.75,Stimuli/P009/sun_batcnoizlkeiqdtx.jpg,0,0.0,0.0,0,39,39,39,,,,,,,,,,,,,80.02062070000102,0.020620700001018122,None,,113.53256210000109,113.53256210000109,113.53256210000109,113.53256210000109,113.53256210000109,113.53256210000109,113.53256210000109,113.53256210000109,113.53256210000109,113.53256210000109,002,P009,2025_Feb_01_1318,ConditionRich,2021.2.3,59.92362135183055,
80.75,84.0,41,0.0,Stimuli/Blank.png,0,0.0,0.0,0,40,40,40,,,,,,,,,,,,,80.77080999999816,0.02080999999816413,None,,114.26600490000055,114.26600490000055,114.26600490000055,114.26600490000055,114.26600490000055,114.26600490000055,114.26600490000055,114.26600490000055,114.26600490000055,114.26600490000055,002,P009,2025_Feb_01_1318,ConditionRich,2021.2.3,59.92362135183055,
84.0,100.0,0,0.0,Stimuli/Blank.png,1,13.0,13.75,0,41,41,41,,,,,,,,,,,,,84.00716810000085,0.007168100000853883,1,13.345001800000318,117.50239919999876,117.50239919999876,117.50239919999876,117.50239919999876,117.50239919999876,117.50239919999876,130.48035909999817,131.23100730000078,117.50239919999876,117.50239919999876,002,P009,2025_Feb_01_1318,ConditionRich,2021.2.3,59.92362135183055,
100.0,100.75,2,0.75,Stimuli/P009/sun_acvloibbxiqpiwnv.jpg,0,0.0,0.0,0,42,42,42,,,,,,,,,,,,,100.00460699999894,0.004606999998941319,None,,133.49968760000047,133.49968760000047,133.49968760000047,133.49968760000047,133.49968760000047,133.49968760000047,133.49968760000047,133.49968760000047,133.49968760000047,133.49968760000047,002,P009,2025_Feb_01_1318,ConditionRich,2021.2.3,59.92362135183055,
100.75,104.0,41,0.0,Stimuli/Blank.png,0,0.0,0.0,0,43,43,43,,,,,,,,,,,,,100.75555999999779,0.005559999997785781,None,,134.26706170000034,134.26706170000034,134.26706170000034,134.26706170000034,134.26706170000034,134.26706170000034,134.26706170000034,134.26706170000034,134.26706170000034,134.26706170000034,002,P009,2025_Feb_01_1318,ConditionRich,2021.2.3,59.92362135183055,
104.0,104.75,38,0.75,Stimuli/P009/things_roadsweeper_05s.jpg,0,0.0,0.0,0,44,44,44,,,,,,,,,,,,,104.02459240000098,0.024592400000983616,None,,137.51991249999992,137.51991249999992,137.51991249999992,137.51991249999992,137.51991249999992,137.51991249999992,137.51991249999992,137.51991249999992,137.51991249999992,137.51991249999992,002,P009,2025_Feb_01_1318,ConditionRich,2021.2.3,59.92362135183055,
104.75,108.0,41,0.0,Stimuli/Blank.png,0,0.0,0.0,0,45,45,45,,,,,,,,,,,,,104.7587382999991,0.008738299999095034,None,,138.2539195999998,138.2539195999998,138.2539195999998,138.2539195999998,138.2539195999998,138.2539195999998,138.2539195999998,138.2539195999998,138.2539195999998,138.2539195999998,002,P009,2025_Feb_01_1318,ConditionRich,2021.2.3,59.92362135183055,
108.0,108.75,40,0.75,Stimuli/P009/things_woman_05s.jpg,1,0.0,0.75,0,46,46,46,,,,,,,,,,,,,108.01151319999917,0.011513199999171775,1,0.47944189999907394,141.50676469999962,141.50676469999962,141.50676469999962,141.50676469999962,141.50676469999962,141.50676469999962,141.50676469999962,142.2407662000005,141.50676469999962,141.50676469999962,002,P009,2025_Feb_01_1318,ConditionRich,2021.2.3,59.92362135183055,
108.75,112.0,41,0.0,Stimuli/Blank.png,0,0.0,0.0,0,47,47,47,,,,,,,,,,,,,108.76233030000003,0.012330300000030547,None,,142.25743689999945,142.25743689999945,142.25743689999945,142.25743689999945,142.25743689999945,142.25743689999945,142.25743689999945,142.25743689999945,142.25743689999945,142.25743689999945,002,P009,2025_Feb_01_1318,ConditionRich,2021.2.3,59.92362135183055,
112.0,112.75,29,0.75,Stimuli/P009/things_fingerprint_05s.jpg,0,0.0,0.0,0,48,48,48,,,,,,,,,,,,,112.01544899999863,0.015448999998625368,None,,145.52699819999907,145.52699819999907,145.52699819999907,145.52699819999907,145.52699819999907,145.52699819999907,145.52699819999907,145.52699819999907,145.52699819999907,145.52699819999907,002,P009,2025_Feb_01_1318,ConditionRich,2021.2.3,59.92362135183055,
112.75,116.0,41,0.0,Stimuli/Blank.png,0,0.0,0.0,0,49,49,49,,,,,,,,,,,,,112.7659691000008,0.015969100000802428,None,,146.26097819999995,146.26097819999995,146.26097819999995,146.26097819999995,146.26097819999995,146.26097819999995,146.26097819999995,146.26097819999995,146.26097819999995,146.26097819999995,002,P009,2025_Feb_01_1318,ConditionRich,2021.2.3,59.92362135183055,
116.0,116.75,23,0.75,Stimuli/P009/things_charger_05s.jpg,0,0.0,0.0,0,50,50,50,,,,,,,,,,,,,116.0016226000007,0.0016226000007009134,None,,149.49717349999992,149.49717349999992,149.49717349999992,149.49717349999992,149.49717349999992,149.49717349999992,149.49717349999992,149.49717349999992,149.49717349999992,149.49717349999992,002,P009,2025_Feb_01_1318,ConditionRich,2021.2.3,59.92362135183055,
116.75,120.0,41,0.0,Stimuli/Blank.png,0,0.0,0.0,0,51,51,51,,,,,,,,,,,,,116.75466640000013,0.004666400000132853,None,,150.26453519999995,150.26453519999995,150.26453519999995,150.26453519999995,150.26453519999995,150.26453519999995,150.26453519999995,150.26453519999995,150.26453519999995,150.26453519999995,002,P009,2025_Feb_01_1318,ConditionRich,2021.2.3,59.92362135183055,
120.0,120.75,21,0.75,Stimuli/P009/things_boy_05s.jpg,0,0.0,0.0,0,52,52,52,,,,,,,,,,,,,120.02183349999905,0.02183349999904749,None,,153.517407299998,153.517407299998,153.517407299998,153.517407299998,153.517407299998,153.517407299998,153.517407299998,153.517407299998,153.517407299998,153.517407299998,002,P009,2025_Feb_01_1318,ConditionRich,2021.2.3,59.92362135183055,
120.75,124.0,41,0.0,Stimuli/Blank.png,0,0.0,0.0,0,53,53,53,,,,,,,,,,,,,120.7556631999978,0.005663199997798074,None,,154.25137170000016,154.25137170000016,154.25137170000016,154.25137170000016,154.25137170000016,154.25137170000016,154.25137170000016,154.25137170000016,154.25137170000016,154.25137170000016,002,P009,2025_Feb_01_1318,ConditionRich,2021.2.3,59.92362135183055,
124.0,124.75,18,0.75,Stimuli/P009/sun_bwjdahsxcqepqqbm.jpg,0,0.0,0.0,0,54,54,54,,,,,,,,,,,,,124.00906459999896,0.009064599998964695,None,,157.50425299999915,157.50425299999915,157.50425299999915,157.50425299999915,157.50425299999915,157.50425299999915,157.50425299999915,157.50425299999915,157.50425299999915,157.50425299999915,002,P009,2025_Feb_01_1318,ConditionRich,2021.2.3,59.92362135183055,
124.75,128.0,41,0.0,Stimuli/Blank.png,0,0.0,0.0,0,55,55,55,,,,,,,,,,,,,124.75984299999982,0.009842999999818858,None,,158.25492719999966,158.25492719999966,158.25492719999966,158.25492719999966,158.25492719999966,158.25492719999966,158.25492719999966,158.25492719999966,158.25492719999966,158.25492719999966,002,P009,2025_Feb_01_1318,ConditionRich,2021.2.3,59.92362135183055,
128.0,128.75,36,0.75,Stimuli/P009/things_pelican_05s.jpg,0,0.0,0.0,0,56,56,56,,,,,,,,,,,,,128.0120461000006,0.012046100000588922,None,,161.52449089999936,161.52449089999936,161.52449089999936,161.52449089999936,161.52449089999936,161.52449089999936,161.52449089999936,161.52449089999936,161.52449089999936,161.52449089999936,002,P009,2025_Feb_01_1318,ConditionRich,2021.2.3,59.92362135183055,
128.75,132.0,41,0.0,Stimuli/Blank.png,1,1.25,2.0,0,57,57,57,,,,,,,,,,,,,128.77935230000003,0.029352300000027753,1,1.6941019000005326,162.2751376999986,162.2751376999986,162.2751376999986,162.2751376999986,162.2751376999986,162.2751376999986,163.50957349999953,164.2602294999997,162.2751376999986,162.2751376999986,002,P009,2025_Feb_01_1318,ConditionRich,2021.2.3,59.92362135183055,
132.0,132.75,6,0.75,Stimuli/P009/sun_amkrwcyvinmsylsz.jpg,0,0.0,0.0,0,58,58,58,,,,,,,,,,,,,132.01726399999825,0.017263999998249346,None,,165.52805689999877,165.52805689999877,165.52805689999877,165.52805689999877,165.52805689999877,165.52805689999877,165.52805689999877,165.52805689999877,165.52805689999877,165.52805689999877,002,P009,2025_Feb_01_1318,ConditionRich,2021.2.3,59.92362135183055,
132.75,136.0,41,0.0,Stimuli/Blank.png,0,0.0,0.0,0,59,59,59,,,,,,,,,,,,,132.7664404999996,0.01644049999958952,None,,166.26200410000092,166.26200410000092,166.26200410000092,166.26200410000092,166.26200410000092,166.26200410000092,166.26200410000092,166.26200410000092,166.26200410000092,166.26200410000092,002,P009,2025_Feb_01_1318,ConditionRich,2021.2.3,59.92362135183055,
136.0,136.75,4,0.75,Stimuli/P009/sun_afkzdukwewwzqtmr.jpg,0,0.0,0.0,0,60,60,60,,,,,,,,,,,,,136.0027130999988,0.002713099998800317,None,,169.49820069999987,169.49820069999987,169.49820069999987,169.49820069999987,169.49820069999987,169.49820069999987,169.49820069999987,169.49820069999987,169.49820069999987,169.49820069999987,002,P009,2025_Feb_01_1318,ConditionRich,2021.2.3,59.92362135183055,
136.75,140.0,41,0.0,Stimuli/Blank.png,0,0.0,0.0,0,61,61,61,,,,,,,,,,,,,136.75599779999902,0.005997799999022391,None,,170.2655636999989,170.2655636999989,170.2655636999989,170.2655636999989,170.2655636999989,170.2655636999989,170.2655636999989,170.2655636999989,170.2655636999989,170.2655636999989,002,P009,2025_Feb_01_1318,ConditionRich,2021.2.3,59.92362135183055,
140.0,140.75,30,0.75,Stimuli/P009/things_fire_05s.jpg,0,0.0,0.0,0,62,62,62,,,,,,,,,,,,,140.02337400000033,0.023374000000330852,None,,173.51843290000033,173.51843290000033,173.51843290000033,173.51843290000033,173.51843290000033,173.51843290000033,173.51843290000033,173.51843290000033,173.51843290000033,173.51843290000033,002,P009,2025_Feb_01_1318,ConditionRich,2021.2.3,59.92362135183055,
140.75,144.0,41,0.0,Stimuli/Blank.png,0,0.0,0.0,0,63,63,63,,,,,,,,,,,,,140.75673259999894,0.006732599998940714,None,,174.2524057999981,174.2524057999981,174.2524057999981,174.2524057999981,174.2524057999981,174.2524057999981,174.2524057999981,174.2524057999981,174.2524057999981,174.2524057999981,002,P009,2025_Feb_01_1318,ConditionRich,2021.2.3,59.92362135183055,
144.0,144.75,3,0.75,Stimuli/P009/sun_aewgwsmvsgzleqhw.jpg,0,0.0,0.0,0,64,64,64,,,,,,,,,,,,,144.01070189999882,0.010701899998821318,None,,177.52193859999898,177.52193859999898,177.52193859999898,177.52193859999898,177.52193859999898,177.52193859999898,177.52193859999898,177.52193859999898,177.52193859999898,177.52193859999898,002,P009,2025_Feb_01_1318,ConditionRich,2021.2.3,59.92362135183055,
144.75,148.0,41,0.0,Stimuli/Blank.png,0,0.0,0.0,0,65,65,65,,,,,,,,,,,,,144.7801987999992,0.030198799999197945,None,,178.2893170999996,178.2893170999996,178.2893170999996,178.2893170999996,178.2893170999996,178.2893170999996,178.2893170999996,178.2893170999996,178.2893170999996,178.2893170999996,002,P009,2025_Feb_01_1318,ConditionRich,2021.2.3,59.92362135183055,
148.0,148.75,34,0.75,Stimuli/P009/things_man_05s.jpg,0,0.0,0.0,0,66,66,66,,,,,,,,,,,,,148.0130266999986,0.01302669999859063,None,,181.52550970000084,181.52550970000084,181.52550970000084,181.52550970000084,181.52550970000084,181.52550970000084,181.52550970000084,181.52550970000084,181.52550970000084,181.52550970000084,002,P009,2025_Feb_01_1318,ConditionRich,2021.2.3,59.92362135183055,
148.75,152.0,41,0.0,Stimuli/Blank.png,1,1.25,2.0,0,67,67,67,,,,,,,,,,,,,148.78048299999864,0.03048299999863957,1,1.6741145000014512,182.2761744999989,182.2761744999989,182.2761744999989,182.2761744999989,182.2761744999989,182.2761744999989,183.51063609999983,184.26129799999762,182.2761744999989,182.2761744999989,002,P009,2025_Feb_01_1318,ConditionRich,2021.2.3,59.92362135183055,
152.0,152.75,31,0.75,Stimuli/P009/things_girl_05s.jpg,0,0.0,0.0,0,68,68,68,,,,,,,,,,,,,152.00052760000108,0.000527600001078099,None,,185.49568549999822,185.49568549999822,185.49568549999822,185.49568549999822,185.49568549999822,185.49568549999822,185.49568549999822,185.49568549999822,185.49568549999822,185.49568549999822,002,P009,2025_Feb_01_1318,ConditionRich,2021.2.3,59.92362135183055,
152.75,156.0,41,0.0,Stimuli/Blank.png,0,0.0,0.0,0,69,69,69,,,,,,,,,,,,,152.7513990999978,0.001399099997797748,None,,186.2463515999989,186.2463515999989,186.2463515999989,186.2463515999989,186.2463515999989,186.2463515999989,186.2463515999989,186.2463515999989,186.2463515999989,186.2463515999989,002,P009,2025_Feb_01_1318,ConditionRich,2021.2.3,59.92362135183055,
156.0,156.75,25,0.75,Stimuli/P009/things_clothespin_05s.jpg,0,0.0,0.0,0,70,70,70,,,,,,,,,,,,,156.0039751000004,0.00397510000038892,None,,189.49921890000041,189.49921890000041,189.49921890000041,189.49921890000041,189.49921890000041,189.49921890000041,189.49921890000041,189.49921890000041,189.49921890000041,189.49921890000041,002,P009,2025_Feb_01_1318,ConditionRich,2021.2.3,59.92362135183055,
156.75,160.0,41,0.0,Stimuli/Blank.png,1,0.25,1.0,0,71,71,71,,,,,,,,,,,,,156.75500529999772,0.005005299997719703,1,0.6723650000021735,190.24991959999898,190.24991959999898,190.24991959999898,190.24991959999898,190.24991959999898,190.24991959999898,190.4834931999976,191.23409080000056,190.24991959999898,190.24991959999898,002,P009,2025_Feb_01_1318,ConditionRich,2021.2.3,59.92362135183055,
160.0,160.75,12,0.75,Stimuli/P009/sun_birmwgkdtrlevcaf.jpg,0,0.0,0.0,0,72,72,72,,,,,,,,,,,,,160.00829099999828,0.008290999998280313,None,,193.5194515000003,193.5194515000003,193.5194515000003,193.5194515000003,193.5194515000003,193.5194515000003,193.5194515000003,193.5194515000003,193.5194515000003,193.5194515000003,002,P009,2025_Feb_01_1318,ConditionRich,2021.2.3,59.92362135183055,
160.75,164.0,41,0.0,Stimuli/Blank.png,0,0.0,0.0,0,73,73,73,,,,,,,,,,,,,160.77533259999836,0.025332599998364458,None,,194.27012660000037,194.27012660000037,194.27012660000037,194.27012660000037,194.27012660000037,194.27012660000037,194.27012660000037,194.27012660000037,194.27012660000037,194.27012660000037,002,P009,2025_Feb_01_1318,ConditionRich,2021.2.3,59.92362135183055,
164.0,164.75,26,0.75,Stimuli/P009/things_cookie_sheet_05s.jpg,0,0.0,0.0,0,74,74,74,,,,,,,,,,,,,164.0106119000011,0.01061190000109491,None,,197.5063126999994,197.5063126999994,197.5063126999994,197.5063126999994,197.5063126999994,197.5063126999994,197.5063126999994,197.5063126999994,197.5063126999994,197.5063126999994,002,P009,2025_Feb_01_1318,ConditionRich,2021.2.3,59.92362135183055,
164.75,168.0,41,0.0,Stimuli/Blank.png,0,0.0,0.0,0,75,75,75,,,,,,,,,,,,,164.7619322999999,0.011932299999898532,None,,198.25708189999932,198.25708189999932,198.25708189999932,198.25708189999932,198.25708189999932,198.25708189999932,198.25708189999932,198.25708189999932,198.25708189999932,198.25708189999932,002,P009,2025_Feb_01_1318,ConditionRich,2021.2.3,59.92362135183055,
168.0,168.75,24,0.75,Stimuli/P009/things_cigar_05n.jpg,0,0.0,0.0,0,76,76,76,,,,,,,,,,,,,168.0145210999981,0.014521099998091813,None,,201.50985809999838,201.50985809999838,201.50985809999838,201.50985809999838,201.50985809999838,201.50985809999838,201.50985809999838,201.50985809999838,201.50985809999838,201.50985809999838,002,P009,2025_Feb_01_1318,ConditionRich,2021.2.3,59.92362135183055,
168.75,172.0,41,0.0,Stimuli/Blank.png,0,0.0,0.0,0,77,77,77,,,,,,,,,,,,,168.7653895000003,0.015389500000310363,None,,202.26052479999998,202.26052479999998,202.26052479999998,202.26052479999998,202.26052479999998,202.26052479999998,202.26052479999998,202.26052479999998,202.26052479999998,202.26052479999998,002,P009,2025_Feb_01_1318,ConditionRich,2021.2.3,59.92362135183055,
172.0,172.75,9,0.75,Stimuli/P009/sun_bdjkvwqqqycuixtc.jpg,0,0.0,0.0,0,78,78,78,,,,,,,,,,,,,172.00168499999927,0.001684999999270076,None,,205.51386339999954,205.51386339999954,205.51386339999954,205.51386339999954,205.51386339999954,205.51386339999954,205.51386339999954,205.51386339999954,205.51386339999954,205.51386339999954,002,P009,2025_Feb_01_1318,ConditionRich,2021.2.3,59.92362135183055,
172.75,176.0,41,0.0,Stimuli/Blank.png,1,0.25,1.0,0,79,79,79,,,,,,,,,,,,,172.76927159999832,0.01927159999831929,1,0.588301900002989,206.26406900000075,206.26406900000075,206.26406900000075,206.26406900000075,206.26406900000075,206.26406900000075,206.4976456000004,207.24829979999777,206.26406900000075,206.26406900000075,002,P009,2025_Feb_01_1318,ConditionRich,2021.2.3,59.92362135183055,
176.0,176.75,5,0.75,Stimuli/P009/sun_akqvdmuauoxeafrj.jpg,0,0.0,0.0,0,80,80,80,,,,,,,,,,,,,176.0056923000011,0.005692300001101103,None,,209.5169351000004,209.5169351000004,209.5169351000004,209.5169351000004,209.5169351000004,209.5169351000004,209.5169351000004,209.5169351000004,209.5169351000004,209.5169351000004,002,P009,2025_Feb_01_1318,ConditionRich,2021.2.3,59.92362135183055,
176.75,180.0,41,0.0,Stimuli/Blank.png,0,0.0,0.0,0,81,81,81,,,,,,,,,,,,,176.7747660999994,0.02476609999939683,None,,210.28429369999867,210.28429369999867,210.28429369999867,210.28429369999867,210.28429369999867,210.28429369999867,210.28429369999867,210.28429369999867,210.28429369999867,210.28429369999867,002,P009,2025_Feb_01_1318,ConditionRich,2021.2.3,59.92362135183055,
180.0,196.0,0,0.0,Stimuli/Blank.png,1,3.0,3.75,0,82,82,82,,,,,,,,,,,,,180.0253601000004,0.025360100000398234,1,3.2989598999993177,213.5204737999993,213.5204737999993,213.5204737999993,213.5204737999993,213.5204737999993,213.5204737999993,216.50650099999984,217.25715710000077,213.5204737999993,213.5204737999993,002,P009,2025_Feb_01_1318,ConditionRich,2021.2.3,59.92362135183055,
196.0,196.75,7,0.75,Stimuli/P009/sun_apiogxmvvzfmtsmj.jpg,0,0.0,0.0,0,83,83,83,,,,,,,,,,,,,196.00587090000045,0.005870900000445545,None,,229.5012772000009,229.5012772000009,229.5012772000009,229.5012772000009,229.5012772000009,229.5012772000009,229.5012772000009,229.5012772000009,229.5012772000009,229.5012772000009,002,P009,2025_Feb_01_1318,ConditionRich,2021.2.3,59.92362135183055,
196.75,200.0,41,0.0,Stimuli/Blank.png,0,0.0,0.0,0,84,84,84,,,,,,,,,,,,,196.75685109999904,0.006851099999039434,None,,230.25202490000083,230.25202490000083,230.25202490000083,230.25202490000083,230.25202490000083,230.25202490000083,230.25202490000083,230.25202490000083,230.25202490000083,230.25202490000083,002,P009,2025_Feb_01_1318,ConditionRich,2021.2.3,59.92362135183055,
200.0,200.75,27,0.75,Stimuli/P009/things_curling_iron_05s.jpg,0,0.0,0.0,0,85,85,85,,,,,,,,,,,,,200.00963499999853,0.009634999998525018,None,,233.5048375999977,233.5048375999977,233.5048375999977,233.5048375999977,233.5048375999977,233.5048375999977,233.5048375999977,233.5048375999977,233.5048375999977,233.5048375999977,002,P009,2025_Feb_01_1318,ConditionRich,2021.2.3,59.92362135183055,
200.75,204.0,41,0.0,Stimuli/Blank.png,0,0.0,0.0,0,86,86,86,,,,,,,,,,,,,200.7596726999982,0.009672699998191092,None,,234.25548889999845,234.25548889999845,234.25548889999845,234.25548889999845,234.25548889999845,234.25548889999845,234.25548889999845,234.25548889999845,234.25548889999845,234.25548889999845,002,P009,2025_Feb_01_1318,ConditionRich,2021.2.3,59.92362135183055,
204.0,204.75,40,0.75,Stimuli/P009/things_woman_05s.jpg,0,0.0,0.0,0,87,87,87,,,,,,,,,,,,,204.0151208999996,0.015120899999601534,None,,237.52505019999808,237.52505019999808,237.52505019999808,237.52505019999808,237.52505019999808,237.52505019999808,237.52505019999808,237.52505019999808,237.52505019999808,237.52505019999808,002,P009,2025_Feb_01_1318,ConditionRich,2021.2.3,59.92362135183055,
204.75,208.0,41,0.0,Stimuli/Blank.png,0,0.0,0.0,0,88,88,88,,,,,,,,,,,,,204.76383139999962,0.013831399999617133,None,,238.25903309999921,238.25903309999921,238.25903309999921,238.25903309999921,238.25903309999921,238.25903309999921,238.25903309999921,238.25903309999921,238.25903309999921,238.25903309999921,002,P009,2025_Feb_01_1318,ConditionRich,2021.2.3,59.92362135183055,
208.0,208.75,35,0.75,Stimuli/P009/things_mushroom_05n.jpg,0,0.0,0.0,0,89,89,89,,,,,,,,,,,,,207.9995710000003,-0.000428999999712687,None,,241.4952263999985,241.4952263999985,241.4952263999985,241.4952263999985,241.4952263999985,241.4952263999985,241.4952263999985,241.4952263999985,241.4952263999985,241.4952263999985,002,P009,2025_Feb_01_1318,ConditionRich,2021.2.3,59.92362135183055,
208.75,212.0,41,0.0,Stimuli/Blank.png,0,0.0,0.0,0,90,90,90,,,,,,,,,,,,,208.75019679999969,0.0001967999996850267,None,,242.24589139999807,242.24589139999807,242.24589139999807,242.24589139999807,242.24589139999807,242.24589139999807,242.24589139999807,242.24589139999807,242.24589139999807,242.24589139999807,002,P009,2025_Feb_01_1318,ConditionRich,2021.2.3,59.92362135183055,
212.0,212.75,24,0.75,Stimuli/P009/things_cigar_05n.jpg,0,0.0,0.0,0,91,91,91,,,,,,,,,,,,,212.00529339999775,0.0052933999977540225,None,,245.5154565999983,245.5154565999983,245.5154565999983,245.5154565999983,245.5154565999983,245.5154565999983,245.5154565999983,245.5154565999983,245.5154565999983,245.5154565999983,002,P009,2025_Feb_01_1318,ConditionRich,2021.2.3,59.92362135183055,
212.75,216.0,41,0.0,Stimuli/Blank.png,0,0.0,0.0,0,92,92,92,,,,,,,,,,,,,212.77030060000106,0.020300600001064595,None,,246.26611609999964,246.26611609999964,246.26611609999964,246.26611609999964,246.26611609999964,246.26611609999964,246.26611609999964,246.26611609999964,246.26611609999964,246.26611609999964,002,P009,2025_Feb_01_1318,ConditionRich,2021.2.3,59.92362135183055,
216.0,216.75,5,0.75,Stimuli/P009/sun_akqvdmuauoxeafrj.jpg,0,0.0,0.0,0,93,93,93,,,,,,,,,,,,,216.00743420000072,0.007434200000716373,None,,249.51899910000066,249.51899910000066,249.51899910000066,249.51899910000066,249.51899910000066,249.51899910000066,249.51899910000066,249.51899910000066,249.51899910000066,249.51899910000066,002,P009,2025_Feb_01_1318,ConditionRich,2021.2.3,59.92362135183055,
216.75,220.0,41,0.0,Stimuli/Blank.png,0,0.0,0.0,0,94,94,94,,,,,,,,,,,,,216.77437009999994,0.024370099999941885,None,,250.2696587999999,250.2696587999999,250.2696587999999,250.2696587999999,250.2696587999999,250.2696587999999,250.2696587999999,250.2696587999999,250.2696587999999,250.2696587999999,002,P009,2025_Feb_01_1318,ConditionRich,2021.2.3,59.92362135183055,
220.0,220.75,3,0.75,Stimuli/P009/sun_aewgwsmvsgzleqhw.jpg,0,0.0,0.0,0,95,95,95,,,,,,,,,,,,,220.01082920000044,0.010829200000443961,None,,253.5058487999995,253.5058487999995,253.5058487999995,253.5058487999995,253.5058487999995,253.5058487999995,253.5058487999995,253.5058487999995,253.5058487999995,253.5058487999995,002,P009,2025_Feb_01_1318,ConditionRich,2021.2.3,59.92362135183055,
220.75,224.0,41,0.0,Stimuli/Blank.png,0,0.0,0.0,0,96,96,96,,,,,,,,,,,,,220.76139329999933,0.0113932999993267,None,,254.25651579999976,254.25651579999976,254.25651579999976,254.25651579999976,254.25651579999976,254.25651579999976,254.25651579999976,254.25651579999976,254.25651579999976,254.25651579999976,002,P009,2025_Feb_01_1318,ConditionRich,2021.2.3,59.92362135183055,
224.0,224.75,20,0.75,Stimuli/P009/sun_ddsiwinthvyejghq.jpg,0,0.0,0.0,0,97,97,97,,,,,,,,,,,,,224.01431460000094,0.014314600000943756,None,,257.50939749999816,257.50939749999816,257.50939749999816,257.50939749999816,257.50939749999816,257.50939749999816,257.50939749999816,257.50939749999816,257.50939749999816,257.50939749999816,002,P009,2025_Feb_01_1318,ConditionRich,2021.2.3,59.92362135183055,
224.75,228.0,41,0.0,Stimuli/Blank.png,0,0.0,0.0,0,98,98,98,,,,,,,,,,,,,224.76506679999875,0.015066799998749048,None,,258.26008100000035,258.26008100000035,258.26008100000035,258.26008100000035,258.26008100000035,258.26008100000035,258.26008100000035,258.26008100000035,258.26008100000035,258.26008100000035,002,P009,2025_Feb_01_1318,ConditionRich,2021.2.3,59.92362135183055,
228.0,228.75,4,0.75,Stimuli/P009/sun_afkzdukwewwzqtmr.jpg,0,0.0,0.0,0,99,99,99,,,,,,,,,,,,,228.00042630000098,0.00042630000098142773,None,,261.49625449999803,261.49625449999803,261.49625449999803,261.49625449999803,261.49625449999803,261.49625449999803,261.49625449999803,261.49625449999803,261.49625449999803,261.49625449999803,002,P009,2025_Feb_01_1318,ConditionRich,2021.2.3,59.92362135183055,
228.75,232.0,41,0.0,Stimuli/Blank.png,0,0.0,0.0,0,100,100,100,,,,,,,,,,,,,228.75158259999807,0.0015825999980734196,None,,262.24691729999904,262.24691729999904,262.24691729999904,262.24691729999904,262.24691729999904,262.24691729999904,262.24691729999904,262.24691729999904,262.24691729999904,262.24691729999904,002,P009,2025_Feb_01_1318,ConditionRich,2021.2.3,59.92362135183055,
232.0,232.75,6,0.75,Stimuli/P009/sun_amkrwcyvinmsylsz.jpg,0,0.0,0.0,0,101,101,101,,,,,,,,,,,,,232.00474899999972,0.004748999999719672,None,,265.51648379999824,265.51648379999824,265.51648379999824,265.51648379999824,265.51648379999824,265.51648379999824,265.51648379999824,265.51648379999824,265.51648379999824,265.51648379999824,002,P009,2025_Feb_01_1318,ConditionRich,2021.2.3,59.92362135183055,
232.75,236.0,41,0.0,Stimuli/Blank.png,0,0.0,0.0,0,102,102,102,,,,,,,,,,,,,232.77130240000042,0.021302400000422494,None,,266.26714549999815,266.26714549999815,266.26714549999815,266.26714549999815,266.26714549999815,266.26714549999815,266.26714549999815,266.26714549999815,266.26714549999815,266.26714549999815,002,P009,2025_Feb_01_1318,ConditionRich,2021.2.3,59.92362135183055,
236.0,236.75,17,0.75,Stimuli/P009/sun_brkrfjpyfglmigkk.jpg,0,0.0,0.0,0,103,103,103,,,,,,,,,,,,,236.009152300001,0.009152300001005642,None,,269.520281000001,269.520281000001,269.520281000001,269.520281000001,269.520281000001,269.520281000001,269.520281000001,269.520281000001,269.520281000001,269.520281000001,002,P009,2025_Feb_01_1318,ConditionRich,2021.2.3,59.92362135183055,
236.75,240.0,41,0.0,Stimuli/Blank.png,0,0.0,0.0,0,104,104,104,,,,,,,,,,,,,236.7756659000006,0.02566590000060387,None,,270.2707014000007,270.2707014000007,270.2707014000007,270.2707014000007,270.2707014000007,270.2707014000007,270.2707014000007,270.2707014000007,270.2707014000007,270.2707014000007,002,P009,2025_Feb_01_1318,ConditionRich,2021.2.3,59.92362135183055,
240.0,240.75,33,0.75,Stimuli/P009/things_lizard_05n.jpg,0,0.0,0.0,0,105,105,105,,,,,,,,,,,,,240.01175850000072,0.01175850000072387,None,,273.5235680000005,273.5235680000005,273.5235680000005,273.5235680000005,273.5235680000005,273.5235680000005,273.5235680000005,273.5235680000005,273.5235680000005,273.5235680000005,002,P009,2025_Feb_01_1318,ConditionRich,2021.2.3,59.92362135183055,
240.75,244.0,41,0.0,Stimuli/Blank.png,0,0.0,0.0,0,106,106,106,,,,,,,,,,,,,240.77923219999866,0.02923219999865978,None,,274.2742264999979,274.2742264999979,274.2742264999979,274.2742264999979,274.2742264999979,274.2742264999979,274.2742264999979,274.2742264999979,274.2742264999979,274.2742264999979,002,P009,2025_Feb_01_1318,ConditionRich,2021.2.3,59.92362135183055,
244.0,244.75,12,0.75,Stimuli/P009/sun_birmwgkdtrlevcaf.jpg,0,0.0,0.0,0,107,107,107,,,,,,,,,,,,,244.01546619999863,0.015466199998627417,None,,277.5270980999994,277.5270980999994,277.5270980999994,277.5270980999994,277.5270980999994,277.5270980999994,277.5270980999994,277.5270980999994,277.5270980999994,277.5270980999994,002,P009,2025_Feb_01_1318,ConditionRich,2021.2.3,59.92362135183055,
244.75,248.0,41,0.0,Stimuli/Blank.png,0,0.0,0.0,0,108,108,108,,,,,,,,,,,,,244.76523380000071,0.015233800000714837,None,,278.2610824000003,278.2610824000003,278.2610824000003,278.2610824000003,278.2610824000003,278.2610824000003,278.2610824000003,278.2610824000003,278.2610824000003,278.2610824000003,002,P009,2025_Feb_01_1318,ConditionRich,2021.2.3,59.92362135183055,
248.0,248.75,31,0.75,Stimuli/P009/things_girl_05s.jpg,0,0.0,0.0,0,109,109,109,,,,,,,,,,,,,248.0021831999984,0.002183199998398777,None,,281.5139726999987,281.5139726999987,281.5139726999987,281.5139726999987,281.5139726999987,281.5139726999987,281.5139726999987,281.5139726999987,281.5139726999987,281.5139726999987,002,P009,2025_Feb_01_1318,ConditionRich,2021.2.3,59.92362135183055,
248.75,252.0,41,0.0,Stimuli/Blank.png,1,0.25,1.0,0,110,110,110,,,,,,,,,,,,,248.76947999999902,0.019479999999020947,1,0.6867687000012666,282.26463539999895,282.26463539999895,282.26463539999895,282.26463539999895,282.26463539999895,282.26463539999895,282.49823489999835,283.24885709999944,282.26463539999895,282.26463539999895,002,P009,2025_Feb_01_1318,ConditionRich,2021.2.3,59.92362135183055,
252.0,252.75,25,0.75,Stimuli/P009/things_clothespin_05s.jpg,0,0.0,0.0,0,111,111,111,,,,,,,,,,,,,252.00576309999815,0.005763099998148391,None,,285.5008190000008,285.5008190000008,285.5008190000008,285.5008190000008,285.5008190000008,285.5008190000008,285.5008190000008,285.5008190000008,285.5008190000008,285.5008190000008,002,P009,2025_Feb_01_1318,ConditionRich,2021.2.3,59.92362135183055,
252.75,256.0,41,0.0,Stimuli/Blank.png,0,0.0,0.0,0,112,112,112,,,,,,,,,,,,,252.75625469999795,0.006254699997953139,None,,286.25148590000026,286.25148590000026,286.25148590000026,286.25148590000026,286.25148590000026,286.25148590000026,286.25148590000026,286.25148590000026,286.25148590000026,286.25148590000026,002,P009,2025_Feb_01_1318,ConditionRich,2021.2.3,59.92362135183055,
256.0,256.75,8,0.75,Stimuli/P009/sun_batcnoizlkeiqdtx.jpg,0,0.0,0.0,0,113,113,113,,,,,,,,,,,,,256.00943389999884,0.009433899998839479,None,,289.52104419999887,289.52104419999887,289.52104419999887,289.52104419999887,289.52104419999887,289.52104419999887,289.52104419999887,289.52104419999887,289.52104419999887,289.52104419999887,002,P009,2025_Feb_01_1318,ConditionRich,2021.2.3,59.92362135183055,
256.75,260.0,41,0.0,Stimuli/Blank.png,1,2.25,3.0,0,114,114,114,,,,,,,,,,,,,256.77589029999945,0.025890299999446142,1,2.6167878000014753,290.2717061000003,290.2717061000003,290.2717061000003,290.2717061000003,290.2717061000003,290.2717061000003,292.5070644999978,293.2577429999983,290.2717061000003,290.2717061000003,002,P009,2025_Feb_01_1318,ConditionRich,2021.2.3,59.92362135183055,
260.0,260.75,34,0.75,Stimuli/P009/things_man_05s.jpg,0,0.0,0.0,0,115,115,115,,,,,,,,,,,,,260.0130093000007,0.01300930000070366,None,,293.5246015999983,293.5246015999983,293.5246015999983,293.5246015999983,293.5246015999983,293.5246015999983,293.5246015999983,293.5246015999983,293.5246015999983,293.5246015999983,002,P009,2025_Feb_01_1318,ConditionRich,2021.2.3,59.92362135183055,
260.75,264.0,41,0.0,Stimuli/Blank.png,0,0.0,0.0,0,116,116,116,,,,,,,,,,,,,260.780096399998,0.03009639999800129,None,,294.27525930000047,294.27525930000047,294.27525930000047,294.27525930000047,294.27525930000047,294.27525930000047,294.27525930000047,294.27525930000047,294.27525930000047,294.27525930000047,002,P009,2025_Feb_01_1318,ConditionRich,2021.2.3,59.92362135183055,
264.0,264.75,36,0.75,Stimuli/P009/things_pelican_05s.jpg,0,0.0,0.0,0,117,117,117,,,,,,,,,,,,,263.9992549999988,-0.0007450000011886004,None,,297.4947336999976,297.4947336999976,297.4947336999976,297.4947336999976,297.4947336999976,297.4947336999976,297.4947336999976,297.4947336999976,297.4947336999976,297.4947336999976,002,P009,2025_Feb_01_1318,ConditionRich,2021.2.3,59.92362135183055,
264.75,268.0,41,0.0,Stimuli/Blank.png,1,1.25,2.0,0,118,118,118,,,,,,,,,,,,,264.7505185000009,0.0005185000009078067,1,1.6542571999998472,298.2454362999997,298.2454362999997,298.2454362999997,298.2454362999997,298.2454362999997,298.2454362999997,299.4798539000003,300.23051009999836,298.2454362999997,298.2454362999997,002,P009,2025_Feb_01_1318,ConditionRich,2021.2.3,59.92362135183055,
268.0,268.75,26,0.75,Stimuli/P009/things_cookie_sheet_05s.jpg,0,0.0,0.0,0,119,119,119,,,,,,,,,,,,,268.0055097000004,0.005509700000402518,None,,301.51557759999923,301.51557759999923,301.51557759999923,301.51557759999923,301.51557759999923,301.51557759999923,301.51557759999923,301.51557759999923,301.51557759999923,301.51557759999923,002,P009,2025_Feb_01_1318,ConditionRich,2021.2.3,59.92362135183055,
268.75,272.0,41,0.0,Stimuli/Blank.png,1,0.25,1.0,0,120,120,120,,,,,,,,,,,,,268.77066130000094,0.020661300000938354,1,0.6167300999986765,302.26566009999806,302.26566009999806,302.26566009999806,302.26566009999806,302.26566009999806,302.26566009999806,302.4992166999982,303.2498435999987,302.26566009999806,302.26566009999806,002,P009,2025_Feb_01_1318,ConditionRich,2021.2.3,59.92362135183055,
272.0,272.75,11,0.75,Stimuli/P009/sun_bfyvfqiimvdaxlqn.jpg,0,0.0,0.0,0,121,121,121,,,,,,,,,,,,,272.0067338000008,0.006733800000802148,None,,305.50184819999777,305.50184819999777,305.50184819999777,305.50184819999777,305.50184819999777,305.50184819999777,305.50184819999777,305.50184819999777,305.50184819999777,305.50184819999777,002,P009,2025_Feb_01_1318,ConditionRich,2021.2.3,59.92362135183055,
272.75,276.0,41,0.0,Stimuli/Blank.png,1,2.25,3.0,0,122,122,122,,,,,,,,,,,,,272.7568069000008,0.006806900000810856,1,2.5869105999991007,306.2525151000009,306.2525151000009,306.2525151000009,306.2525151000009,306.2525151000009,306.2525151000009,308.48786140000084,309.23850590000075,306.2525151000009,306.2525151000009,002,P009,2025_Feb_01_1318,ConditionRich,2021.2.3,59.92362135183055,
276.0,292.0,0,0.0,Stimuli/Blank.png,1,7.0,7.75,0,123,123,123,,,,,,,,,,,,,276.0097808999999,0.009780899999896064,None,,309.5053937999983,309.5053937999983,309.5053937999983,309.5053937999983,309.5053937999983,309.5053937999983,316.4948269999986,317.24556649999795,309.5053937999983,309.5053937999983,002,P009,2025_Feb_01_1318,ConditionRich,2021.2.3,59.92362135183055,
292.0,292.75,23,0.75,Stimuli/P009/things_charger_05s.jpg,0,0.0,0.0,0,124,124,124,,,,,,,,,,,,,292.0096296999982,0.00962969999818597,None,,325.5195652000002,325.5195652000002,325.5195652000002,325.5195652000002,325.5195652000002,325.5195652000002,325.5195652000002,325.5195652000002,325.5195652000002,325.5195652000002,002,P009,2025_Feb_01_1318,ConditionRich,2021.2.3,59.92362135183055,
292.75,296.0,41,0.0,Stimuli/Blank.png,0,0.0,0.0,0,125,125,125,,,,,,,,,,,,,292.77500019999934,0.02500019999934011,None,,326.27022059999945,326.27022059999945,326.27022059999945,326.27022059999945,326.27022059999945,326.27022059999945,326.27022059999945,326.27022059999945,326.27022059999945,326.27022059999945,002,P009,2025_Feb_01_1318,ConditionRich,2021.2.3,59.92362135183055,
296.0,296.75,22,0.75,Stimuli/P009/things_butterfly_05s.jpg,0,0.0,0.0,0,126,126,126,,,,,,,,,,,,,296.01139089999924,0.01139089999924181,None,,329.5064084000005,329.5064084000005,329.5064084000005,329.5064084000005,329.5064084000005,329.5064084000005,329.5064084000005,329.5064084000005,329.5064084000005,329.5064084000005,002,P009,2025_Feb_01_1318,ConditionRich,2021.2.3,59.92362135183055,
296.75,300.0,41,0.0,Stimuli/Blank.png,0,0.0,0.0,0,127,127,127,,,,,,,,,,,,,296.7624809000008,0.012480900000809925,None,,330.2570773000007,330.2570773000007,330.2570773000007,330.2570773000007,330.2570773000007,330.2570773000007,330.2570773000007,330.2570773000007,330.2570773000007,330.2570773000007,002,P009,2025_Feb_01_1318,ConditionRich,2021.2.3,59.92362135183055,
300.0,300.75,15,0.75,Stimuli/P009/sun_boryivbddrnarrbo.jpg,0,0.0,0.0,0,128,128,128,,,,,,,,,,,,,300.01473479999913,0.01473479999913252,None,,333.50995369999873,333.50995369999873,333.50995369999873,333.50995369999873,333.50995369999873,333.50995369999873,333.50995369999873,333.50995369999873,333.50995369999873,333.50995369999873,002,P009,2025_Feb_01_1318,ConditionRich,2021.2.3,59.92362135183055,
300.75,304.0,41,0.0,Stimuli/Blank.png,1,2.25,3.0,0,129,129,129,,,,,,,,,,,,,300.7658659999979,0.015865999997913605,1,2.6368441999984498,334.26061879999907,334.26061879999907,334.26061879999907,334.26061879999907,334.26061879999907,334.26061879999907,336.4959687999981,337.24663130000044,334.26061879999907,334.26061879999907,002,P009,2025_Feb_01_1318,ConditionRich,2021.2.3,59.92362135183055,
304.0,304.75,30,0.75,Stimuli/P009/things_fire_05s.jpg,0,0.0,0.0,0,130,130,130,,,,,,,,,,,,,304.0023508000013,0.0023508000012952834,None,,337.51350159999856,337.51350159999856,337.51350159999856,337.51350159999856,337.51350159999856,337.51350159999856,337.51350159999856,337.51350159999856,337.51350159999856,337.51350159999856,002,P009,2025_Feb_01_1318,ConditionRich,2021.2.3,59.92362135183055,
304.75,308.0,41,0.0,Stimuli/Blank.png,0,0.0,0.0,0,131,131,131,,,,,,,,,,,,,304.7685085999983,0.018508599998313002,None,,338.26421339999797,338.26421339999797,338.26421339999797,338.26421339999797,338.26421339999797,338.26421339999797,338.26421339999797,338.26421339999797,338.26421339999797,338.26421339999797,002,P009,2025_Feb_01_1318,ConditionRich,2021.2.3,59.92362135183055,
308.0,308.75,38,0.75,Stimuli/P009/things_roadsweeper_05s.jpg,0,0.0,0.0,0,132,132,132,,,,,,,,,,,,,308.0061002000002,0.006100200000219047,None,,341.5170306,341.5170306,341.5170306,341.5170306,341.5170306,341.5170306,341.5170306,341.5170306,341.5170306,341.5170306,002,P009,2025_Feb_01_1318,ConditionRich,2021.2.3,59.92362135183055,
308.75,312.0,41,0.0,Stimuli/Blank.png,1,1.25,2.0,0,133,133,133,,,,,,,,,,,,,308.7732933999978,0.023293399997783126,1,1.5336945000017295,342.26771949999966,342.26771949999966,342.26771949999966,342.26771949999966,342.26771949999966,342.26771949999966,343.50211639999907,344.252827100001,342.26771949999966,342.26771949999966,002,P009,2025_Feb_01_1318,ConditionRich,2021.2.3,59.92362135183055,
312.0,312.75,19,0.75,Stimuli/P009/sun_bwvfnogmotsvhofs.jpg,0,0.0,0.0,0,134,134,134,,,,,,,,,,,,,312.00902009999845,0.00902009999845177,None,,345.5206005,345.5206005,345.5206005,345.5206005,345.5206005,345.5206005,345.5206005,345.5206005,345.5206005,345.5206005,002,P009,2025_Feb_01_1318,ConditionRich,2021.2.3,59.92362135183055,
312.75,316.0,41,0.0,Stimuli/Blank.png,0,0.0,0.0,0,135,135,135,,,,,,,,,,,,,312.77575720000095,0.025757200000953162,None,,346.27123709999796,346.27123709999796,346.27123709999796,346.27123709999796,346.27123709999796,346.27123709999796,346.27123709999796,346.27123709999796,346.27123709999796,346.27123709999796,002,P009,2025_Feb_01_1318,ConditionRich,2021.2.3,59.92362135183055,
316.0,316.75,2,0.75,Stimuli/P009/sun_acvloibbxiqpiwnv.jpg,0,0.0,0.0,0,136,136,136,,,,,,,,,,,,,316.01589690000037,0.015896900000370806,None,,349.524121800001,349.524121800001,349.524121800001,349.524121800001,349.524121800001,349.524121800001,349.524121800001,349.524121800001,349.524121800001,349.524121800001,002,P009,2025_Feb_01_1318,ConditionRich,2021.2.3,59.92362135183055,
316.75,320.0,41,0.0,Stimuli/Blank.png,0,0.0,0.0,0,137,137,137,,,,,,,,,,,,,316.7633591999984,0.013359199998376425,None,,350.25812139999834,350.25812139999834,350.25812139999834,350.25812139999834,350.25812139999834,350.25812139999834,350.25812139999834,350.25812139999834,350.25812139999834,350.25812139999834,002,P009,2025_Feb_01_1318,ConditionRich,2021.2.3,59.92362135183055,
320.0,320.75,39,0.75,Stimuli/P009/things_tiara_05s.jpg,0,0.0,0.0,0,138,138,138,,,,,,,,,,,,,319.99928960000034,-0.0007103999996616039,None,,353.4942947999989,353.4942947999989,353.4942947999989,353.4942947999989,353.4942947999989,353.4942947999989,353.4942947999989,353.4942947999989,353.4942947999989,353.4942947999989,002,P009,2025_Feb_01_1318,ConditionRich,2021.2.3,59.92362135183055,
320.75,324.0,41,0.0,Stimuli/Blank.png,0,0.0,0.0,0,139,139,139,,,,,,,,,,,,,320.7502311999997,0.00023119999968912452,None,,354.2449753000001,354.2449753000001,354.2449753000001,354.2449753000001,354.2449753000001,354.2449753000001,354.2449753000001,354.2449753000001,354.2449753000001,354.2449753000001,002,P009,2025_Feb_01_1318,ConditionRich,2021.2.3,59.92362135183055,
324.0,324.75,28,0.75,Stimuli/P009/things_face_05s.jpg,0,0.0,0.0,0,140,140,140,,,,,,,,,,,,,324.0048244999998,0.00482449999981327,None,,357.5145202999993,357.5145202999993,357.5145202999993,357.5145202999993,357.5145202999993,357.5145202999993,357.5145202999993,357.5145202999993,357.5145202999993,357.5145202999993,002,P009,2025_Feb_01_1318,ConditionRich,2021.2.3,59.92362135183055,
324.75,328.0,41,0.0,Stimuli/Blank.png,0,0.0,0.0,0,141,141,141,,,,,,,,,,,,,324.77023109999936,0.020231099999364233,None,,358.26518639999995,358.26518639999995,358.26518639999995,358.26518639999995,358.26518639999995,358.26518639999995,358.26518639999995,358.26518639999995,358.26518639999995,358.26518639999995,002,P009,2025_Feb_01_1318,ConditionRich,2021.2.3,59.92362135183055,
328.0,328.75,18,0.75,Stimuli/P009/sun_bwjdahsxcqepqqbm.jpg,0,0.0,0.0,0,142,142,142,,,,,,,,,,,,,328.0062995999979,0.006299599997873884,None,,361.50138230000084,361.50138230000084,361.50138230000084,361.50138230000084,361.50138230000084,361.50138230000084,361.50138230000084,361.50138230000084,361.50138230000084,361.50138230000084,002,P009,2025_Feb_01_1318,ConditionRich,2021.2.3,59.92362135183055,
328.75,332.0,41,0.0,Stimuli/Blank.png,0,0.0,0.0,0,143,143,143,,,,,,,,,,,,,328.7564152999985,0.006415299998479895,None,,362.25204210000084,362.25204210000084,362.25204210000084,362.25204210000084,362.25204210000084,362.25204210000084,362.25204210000084,362.25204210000084,362.25204210000084,362.25204210000084,002,P009,2025_Feb_01_1318,ConditionRich,2021.2.3,59.92362135183055,
332.0,332.75,1,0.75,Stimuli/P009/sun_abqdlumenyzawlme.jpg,0,0.0,0.0,0,144,144,144,,,,,,,,,,,,,332.0103648000004,0.010364800000388641,None,,365.52160659999936,365.52160659999936,365.52160659999936,365.52160659999936,365.52160659999936,365.52160659999936,365.52160659999936,365.52160659999936,365.52160659999936,365.52160659999936,002,P009,2025_Feb_01_1318,ConditionRich,2021.2.3,59.92362135183055,
332.75,336.0,41,0.0,Stimuli/Blank.png,0,0.0,0.0,0,145,145,145,,,,,,,,,,,,,332.77708390000043,0.02708390000043437,None,,366.27227810000113,366.27227810000113,366.27227810000113,366.27227810000113,366.27227810000113,366.27227810000113,366.27227810000113,366.27227810000113,366.27227810000113,366.27227810000113,002,P009,2025_Feb_01_1318,ConditionRich,2021.2.3,59.92362135183055,
336.0,336.75,14,0.75,Stimuli/P009/sun_blaqxdebghixzyyw.jpg,0,0.0,0.0,0,146,146,146,,,,,,,,,,,,,336.0133362999986,0.01333629999862751,None,,369.5251406999996,369.5251406999996,369.5251406999996,369.5251406999996,369.5251406999996,369.5251406999996,369.5251406999996,369.5251406999996,369.5251406999996,369.5251406999996,002,P009,2025_Feb_01_1318,ConditionRich,2021.2.3,59.92362135183055,
336.75,340.0,41,0.0,Stimuli/Blank.png,0,0.0,0.0,0,147,147,147,,,,,,,,,,,,,336.7806935999979,0.03069359999790322,None,,370.27581889999783,370.27581889999783,370.27581889999783,370.27581889999783,370.27581889999783,370.27581889999783,370.27581889999783,370.27581889999783,370.27581889999783,370.27581889999783,002,P009,2025_Feb_01_1318,ConditionRich,2021.2.3,59.92362135183055,
340.0,340.75,10,0.75,Stimuli/P009/sun_bdkttewvyfdarikm.jpg,0,0.0,0.0,0,148,148,148,,,,,,,,,,,,,340.00040269999954,0.00040269999954034574,None,,373.5120535999995,373.5120535999995,373.5120535999995,373.5120535999995,373.5120535999995,373.5120535999995,373.5120535999995,373.5120535999995,373.5120535999995,373.5120535999995,002,P009,2025_Feb_01_1318,ConditionRich,2021.2.3,59.92362135183055,
340.75,344.0,41,0.0,Stimuli/Blank.png,0,0.0,0.0,0,149,149,149,,,,,,,,,,,,,340.76980569999796,0.01980569999795989,None,,374.27935929999876,374.27935929999876,374.27935929999876,374.27935929999876,374.27935929999876,374.27935929999876,374.27935929999876,374.27935929999876,374.27935929999876,374.27935929999876,002,P009,2025_Feb_01_1318,ConditionRich,2021.2.3,59.92362135183055,
344.0,344.75,29,0.75,Stimuli/P009/things_fingerprint_05s.jpg,0,0.0,0.0,0,150,150,150,,,,,,,,,,,,,344.021605599999,0.021605599999020342,None,,377.5322300000007,377.5322300000007,377.5322300000007,377.5322300000007,377.5322300000007,377.5322300000007,377.5322300000007,377.5322300000007,377.5322300000007,377.5322300000007,002,P009,2025_Feb_01_1318,ConditionRich,2021.2.3,59.92362135183055,
344.75,348.0,41,0.0,Stimuli/Blank.png,0,0.0,0.0,0,151,151,151,,,,,,,,,,,,,344.77112879999913,0.021128799999132752,None,,378.26730139999927,378.26730139999927,378.26730139999927,378.26730139999927,378.26730139999927,378.26730139999927,378.26730139999927,378.26730139999927,378.26730139999927,378.26730139999927,002,P009,2025_Feb_01_1318,ConditionRich,2021.2.3,59.92362135183055,
348.0,348.75,16,0.75,Stimuli/P009/sun_bqpyqljaflidcauh.jpg,0,0.0,0.0,0,152,152,152,,,,,,,,,,,,,348.007308799999,0.007308799999009352,None,,381.50240719999783,381.50240719999783,381.50240719999783,381.50240719999783,381.50240719999783,381.50240719999783,381.50240719999783,381.50240719999783,381.50240719999783,381.50240719999783,002,P009,2025_Feb_01_1318,ConditionRich,2021.2.3,59.92362135183055,
348.75,352.0,41,0.0,Stimuli/Blank.png,0,0.0,0.0,0,153,153,153,,,,,,,,,,,,,348.7579646000013,0.007964600001287181,None,,382.25307450000037,382.25307450000037,382.25307450000037,382.25307450000037,382.25307450000037,382.25307450000037,382.25307450000037,382.25307450000037,382.25307450000037,382.25307450000037,002,P009,2025_Feb_01_1318,ConditionRich,2021.2.3,59.92362135183055,
352.0,352.75,9,0.75,Stimuli/P009/sun_bdjkvwqqqycuixtc.jpg,0,0.0,0.0,0,154,154,154,,,,,,,,,,,,,352.0105560999982,0.010556099998211721,None,,385.50594439999986,385.50594439999986,385.50594439999986,385.50594439999986,385.50594439999986,385.50594439999986,385.50594439999986,385.50594439999986,385.50594439999986,385.50594439999986,002,P009,2025_Feb_01_1318,ConditionRich,2021.2.3,59.92362135183055,
352.75,356.0,41,0.0,Stimuli/Blank.png,0,0.0,0.0,0,155,155,155,,,,,,,,,,,,,352.76165949999995,0.01165949999995064,None,,386.256609,386.256609,386.256609,386.256609,386.256609,386.256609,386.256609,386.256609,386.256609,386.256609,002,P009,2025_Feb_01_1318,ConditionRich,2021.2.3,59.92362135183055,
356.0,356.75,37,0.75,Stimuli/P009/things_pug_05s.jpg,0,0.0,0.0,0,156,156,156,,,,,,,,,,,,,356.01465090000056,0.014650900000560796,None,,389.5263410999978,389.5263410999978,389.5263410999978,389.5263410999978,389.5263410999978,389.5263410999978,389.5263410999978,389.5263410999978,389.5263410999978,389.5263410999978,002,P009,2025_Feb_01_1318,ConditionRich,2021.2.3,59.92362135183055,
356.75,360.0,41,0.0,Stimuli/Blank.png,0,0.0,0.0,0,157,157,157,,,,,,,,,,,,,356.7819004000012,0.03190040000117733,None,,390.27683669999897,390.27683669999897,390.27683669999897,390.27683669999897,390.27683669999897,390.27683669999897,390.27683669999897,390.27683669999897,390.27683669999897,390.27683669999897,002,P009,2025_Feb_01_1318,ConditionRich,2021.2.3,59.92362135183055,
360.0,360.75,13,0.75,Stimuli/P009/sun_bjimvgwadfodioes.jpg,0,0.0,0.0,0,158,158,158,,,,,,,,,,,,,360.0015453999986,0.0015453999985766131,None,,393.4963500999984,393.4963500999984,393.4963500999984,393.4963500999984,393.4963500999984,393.4963500999984,393.4963500999984,393.4963500999984,393.4963500999984,393.4963500999984,002,P009,2025_Feb_01_1318,ConditionRich,2021.2.3,59.92362135183055,
360.75,364.0,41,0.0,Stimuli/Blank.png,1,2.25,3.0,0,159,159,159,,,,,,,,,,,,,360.7512053999999,0.001205399999889778,1,2.635700500002713,394.2470078999977,394.2470078999977,394.2470078999977,394.2470078999977,394.2470078999977,394.2470078999977,396.48231269999815,397.23299229999975,394.2470078999977,394.2470078999977,002,P009,2025_Feb_01_1318,ConditionRich,2021.2.3,59.92362135183055,
364.0,364.75,21,0.75,Stimuli/P009/things_boy_05s.jpg,0,0.0,0.0,0,160,160,160,,,,,,,,,,,,,364.00417200000084,0.004172000000835396,None,,397.49986480000007,397.49986480000007,397.49986480000007,397.49986480000007,397.49986480000007,397.49986480000007,397.49986480000007,397.49986480000007,397.49986480000007,397.49986480000007,002,P009,2025_Feb_01_1318,ConditionRich,2021.2.3,59.92362135183055,
364.75,368.0,41,0.0,Stimuli/Blank.png,0,0.0,0.0,0,161,161,161,,,,,,,,,,,,,364.7553662999999,0.0053662999998778105,None,,398.25056770000083,398.25056770000083,398.25056770000083,398.25056770000083,398.25056770000083,398.25056770000083,398.25056770000083,398.25056770000083,398.25056770000083,398.25056770000083,002,P009,2025_Feb_01_1318,ConditionRich,2021.2.3,59.92362135183055,
368.0,368.75,32,0.75,Stimuli/P009/things_hawk_05s.jpg,0,0.0,0.0,0,162,162,162,,,,,,,,,,,,,368.01011540000036,0.010115400000358932,None,,401.5201104999978,401.5201104999978,401.5201104999978,401.5201104999978,401.5201104999978,401.5201104999978,401.5201104999978,401.5201104999978,401.5201104999978,401.5201104999978,002,P009,2025_Feb_01_1318,ConditionRich,2021.2.3,59.92362135183055,
368.75,372.0,41,0.0,Stimuli/Blank.png,1,2.25,3.0,0,163,163,163,,,,,,,,,,,,,368.77581250000003,0.025812500000029104,1,2.595977500001027,402.27078419999816,402.27078419999816,402.27078419999816,402.27078419999816,402.27078419999816,402.27078419999816,404.50608289999946,405.25682759999836,402.27078419999816,402.27078419999816,002,P009,2025_Feb_01_1318,ConditionRich,2021.2.3,59.92362135183055,
372.0,388.0,0,0.0,Stimuli/Blank.png,1,10.0,10.75,0,164,164,164,,,,,,,,,,,,,372.01268569999957,0.012685699999565259,1,10.397478400002,405.5069834999995,405.5069834999995,405.5069834999995,405.5069834999995,405.5069834999995,405.5069834999995,415.4991216999988,416.24979750000057,405.5069834999995,405.5069834999995,002,P009,2025_Feb_01_1318,ConditionRich,2021.2.3,59.92362135183055,
