eventStartTime,eventEndTime,eventCond,imSize,imFile,responseEvent,fixRespStart,fixRespEnd,Events.thisRepN,Events.thisTrialN,Events.thisN,Events.thisIndex,Instructions.started,Instructions.stopped,participantReadyResponse.keys,participantReadyResponse.rt,participantReadyResponse.started,participantReadyResponse.stopped,startWaitforTrigger,triggerResponse.keys,triggerResponse.rt,triggerResponse.started,triggerResponse.stopped,globalTimer,actualStartTime,startTimingDiff,participantResponse.keys,participantResponse.started,participantResponse.stopped,image.started,image.stopped,fixationOutside.started,fixationOutside.stopped,fixationResponse.started,fixationResponse.stopped,fixationInside.started,fixationInside.stopped,participantResponse.rt,session,participant,date,expName,psychopyVersion,frameRate,
,,,,,,,,,,,,11.571011299998645,None,1,5.005173200002901,11.571011299998645,None,,,,,,,,,,,,,,,,,,,,,008,P009,2025_Feb_01_1414,ConditionRich,2021.2.3,59.94485073784205,
,,,,,,,,,,,,,,,,,,16.58505149999837,5,14.426045599997451,16.598049500000343,None,,,,,,,,,,,,,,,,008,P009,2025_Feb_01_1414,ConditionRich,2021.2.3,59.94485073784205,
0.0,4.0,0,0.0,Stimuli/Blank.png,0,0.0,0.0,0,0,0,0,,,,,,,,,,,,31.03116229999796,0.029957099999592174,0.029957099999592174,None,31.07772610000029,None,31.07772610000029,None,31.07772610000029,None,31.07772610000029,31.07772610000029,31.07772610000029,None,,008,P009,2025_Feb_01_1414,ConditionRich,2021.2.3,59.94485073784205,
4.0,4.75,37,0.75,Stimuli/P009/things_pug_05s.jpg,0,0.0,0.0,0,1,1,1,,,,,,,,,,,,,4.004305700000259,0.004305700000259094,None,35.064960699997755,35.064960699997755,35.064960699997755,35.064960699997755,35.064960699997755,35.064960699997755,35.064960699997755,35.064960699997755,35.064960699997755,35.064960699997755,,008,P009,2025_Feb_01_1414,ConditionRich,2021.2.3,59.94485073784205,
4.75,8.0,41,0.0,Stimuli/Blank.png,0,0.0,0.0,0,2,2,2,,,,,,,,,,,,,4.770272099998692,0.020272099998692283,None,35.815502800000104,35.815502800000104,35.815502800000104,35.815502800000104,35.815502800000104,35.815502800000104,35.815502800000104,35.815502800000104,35.815502800000104,35.815502800000104,,008,P009,2025_Feb_01_1414,ConditionRich,2021.2.3,59.94485073784205,
8.0,8.75,3,0.75,Stimuli/P009/sun_aewgwsmvsgzleqhw.jpg,0,0.0,0.0,0,3,3,3,,,,,,,,,,,,,8.005662100000336,0.005662100000336068,None,39.06813089999923,39.06813089999923,39.06813089999923,39.06813089999923,39.06813089999923,39.06813089999923,39.06813089999923,39.06813089999923,39.06813089999923,39.06813089999923,,008,P009,2025_Feb_01_1414,ConditionRich,2021.2.3,59.94485073784205,
8.75,12.0,41,0.0,Stimuli/Blank.png,1,1.25,2.0,0,4,4,4,,,,,,,,,,,,,8.773469899999327,0.023469899999327026,1,39.81879519999711,39.81879519999711,39.81879519999711,39.81879519999711,39.81879519999711,39.81879519999711,41.053215799998725,41.80388110000058,39.81879519999711,39.81879519999711,2.1094088000027114,008,P009,2025_Feb_01_1414,ConditionRich,2021.2.3,59.94485073784205,
12.0,12.75,22,0.75,Stimuli/P009/things_butterfly_05s.jpg,1,0.0,0.75,0,5,5,5,,,,,,,,,,,,,12.010121100000106,0.010121100000105798,1,43.05502749999869,43.05502749999869,43.05502749999869,43.05502749999869,43.05502749999869,43.05502749999869,43.05502749999869,43.788967099997535,43.05502749999869,43.05502749999869,0.5553287000002456,008,P009,2025_Feb_01_1414,ConditionRich,2021.2.3,59.94485073784205,
12.75,16.0,41,0.0,Stimuli/Blank.png,0,0.0,0.0,0,6,6,6,,,,,,,,,,,,,12.760742300000857,0.01074230000085663,None,43.80565209999986,43.80565209999986,43.80565209999986,43.80565209999986,43.80565209999986,43.80565209999986,43.80565209999986,43.80565209999986,43.80565209999986,43.80565209999986,,008,P009,2025_Feb_01_1414,ConditionRich,2021.2.3,59.94485073784205,
16.0,16.75,23,0.75,Stimuli/P009/things_charger_05s.jpg,0,0.0,0.0,0,7,7,7,,,,,,,,,,,,,16.013439300000755,0.013439300000754884,None,47.058530899998004,47.058530899998004,47.058530899998004,47.058530899998004,47.058530899998004,47.058530899998004,47.058530899998004,47.058530899998004,47.058530899998004,47.058530899998004,,008,P009,2025_Feb_01_1414,ConditionRich,2021.2.3,59.94485073784205,
16.75,20.0,41,0.0,Stimuli/Blank.png,0,0.0,0.0,0,8,8,8,,,,,,,,,,,,,16.7642577000006,0.014257700000598561,None,47.81013080000048,47.81013080000048,47.81013080000048,47.81013080000048,47.81013080000048,47.81013080000048,47.81013080000048,47.81013080000048,47.81013080000048,47.81013080000048,,008,P009,2025_Feb_01_1414,ConditionRich,2021.2.3,59.94485073784205,
20.0,20.75,40,0.75,Stimuli/P009/things_woman_05s.jpg,0,0.0,0.0,0,9,9,9,,,,,,,,,,,,,20.00029429999995,0.00029429999995045364,None,51.04540999999881,51.04540999999881,51.04540999999881,51.04540999999881,51.04540999999881,51.04540999999881,51.04540999999881,51.04540999999881,51.04540999999881,51.04540999999881,,008,P009,2025_Feb_01_1414,ConditionRich,2021.2.3,59.94485073784205,
20.75,24.0,41,0.0,Stimuli/Blank.png,0,0.0,0.0,0,10,10,10,,,,,,,,,,,,,20.75052499999947,0.0005249999994703103,None,51.79606280000007,51.79606280000007,51.79606280000007,51.79606280000007,51.79606280000007,51.79606280000007,51.79606280000007,51.79606280000007,51.79606280000007,51.79606280000007,,008,P009,2025_Feb_01_1414,ConditionRich,2021.2.3,59.94485073784205,
24.0,24.75,18,0.75,Stimuli/P009/sun_bwjdahsxcqepqqbm.jpg,0,0.0,0.0,0,11,11,11,,,,,,,,,,,,,24.003711000001204,0.0037110000012035016,None,55.048895599997195,55.048895599997195,55.048895599997195,55.048895599997195,55.048895599997195,55.048895599997195,55.048895599997195,55.048895599997195,55.048895599997195,55.048895599997195,,008,P009,2025_Feb_01_1414,ConditionRich,2021.2.3,59.94485073784205,
24.75,28.0,41,0.0,Stimuli/Blank.png,0,0.0,0.0,0,12,12,12,,,,,,,,,,,,,24.753867999999784,0.003867999999783933,None,55.799601700000494,55.799601700000494,55.799601700000494,55.799601700000494,55.799601700000494,55.799601700000494,55.799601700000494,55.799601700000494,55.799601700000494,55.799601700000494,,008,P009,2025_Feb_01_1414,ConditionRich,2021.2.3,59.94485073784205,
28.0,28.75,26,0.75,Stimuli/P009/things_cookie_sheet_05s.jpg,0,0.0,0.0,0,13,13,13,,,,,,,,,,,,,28.006757899998775,0.006757899998774519,None,59.05247649999728,59.05247649999728,59.05247649999728,59.05247649999728,59.05247649999728,59.05247649999728,59.05247649999728,59.05247649999728,59.05247649999728,59.05247649999728,,008,P009,2025_Feb_01_1414,ConditionRich,2021.2.3,59.94485073784205,
28.75,32.0,41,0.0,Stimuli/Blank.png,0,0.0,0.0,0,14,14,14,,,,,,,,,,,,,28.757324999998673,0.007324999998672865,None,59.80313749999914,59.80313749999914,59.80313749999914,59.80313749999914,59.80313749999914,59.80313749999914,59.80313749999914,59.80313749999914,59.80313749999914,59.80313749999914,,008,P009,2025_Feb_01_1414,ConditionRich,2021.2.3,59.94485073784205,
32.0,32.75,31,0.75,Stimuli/P009/things_girl_05s.jpg,0,0.0,0.0,0,15,15,15,,,,,,,,,,,,,32.01355960000001,0.013559600000007777,None,63.072707499999524,63.072707499999524,63.072707499999524,63.072707499999524,63.072707499999524,63.072707499999524,63.072707499999524,63.072707499999524,63.072707499999524,63.072707499999524,,008,P009,2025_Feb_01_1414,ConditionRich,2021.2.3,59.94485073784205,
32.75,36.0,41,0.0,Stimuli/Blank.png,1,0.25,1.0,0,16,16,16,,,,,,,,,,,,,32.7779206999985,0.02792069999850355,1,63.8233717999974,63.8233717999974,63.8233717999974,63.8233717999974,63.8233717999974,63.8233717999974,64.05694899999799,64.80759409999882,63.8233717999974,63.8233717999974,0.7507041999997455,008,P009,2025_Feb_01_1414,ConditionRich,2021.2.3,59.94485073784205,
36.0,36.75,30,0.75,Stimuli/P009/things_fire_05s.jpg,0,0.0,0.0,0,17,17,17,,,,,,,,,,,,,36.014430600000196,0.014430600000196137,None,67.0595622999972,67.0595622999972,67.0595622999972,67.0595622999972,67.0595622999972,67.0595622999972,67.0595622999972,67.0595622999972,67.0595622999972,67.0595622999972,,008,P009,2025_Feb_01_1414,ConditionRich,2021.2.3,59.94485073784205,
36.75,40.0,41,0.0,Stimuli/Blank.png,1,1.25,2.0,0,18,18,18,,,,,,,,,,,,,36.76454830000148,0.01454830000147922,1,67.81022219999795,67.81022219999795,67.81022219999795,67.81022219999795,67.81022219999795,67.81022219999795,69.04462349999812,69.79532249999829,67.81022219999795,67.81022219999795,1.7018513999973948,008,P009,2025_Feb_01_1414,ConditionRich,2021.2.3,59.94485073784205,
40.0,40.75,13,0.75,Stimuli/P009/sun_bjimvgwadfodioes.jpg,0,0.0,0.0,0,19,19,19,,,,,,,,,,,,,40.000673300000926,0.0006733000009262469,None,71.04642249999961,71.04642249999961,71.04642249999961,71.04642249999961,71.04642249999961,71.04642249999961,71.04642249999961,71.04642249999961,71.04642249999961,71.04642249999961,,008,P009,2025_Feb_01_1414,ConditionRich,2021.2.3,59.94485073784205,
40.75,44.0,41,0.0,Stimuli/Blank.png,0,0.0,0.0,0,20,20,20,,,,,,,,,,,,,40.753904299999704,0.003904299999703653,None,71.81386339999881,71.81386339999881,71.81386339999881,71.81386339999881,71.81386339999881,71.81386339999881,71.81386339999881,71.81386339999881,71.81386339999881,71.81386339999881,,008,P009,2025_Feb_01_1414,ConditionRich,2021.2.3,59.94485073784205,
44.0,44.75,8,0.75,Stimuli/P009/sun_batcnoizlkeiqdtx.jpg,0,0.0,0.0,0,21,21,21,,,,,,,,,,,,,44.022107299999334,0.022107299999333918,None,75.0833281999985,75.0833281999985,75.0833281999985,75.0833281999985,75.0833281999985,75.0833281999985,75.0833281999985,75.0833281999985,75.0833281999985,75.0833281999985,,008,P009,2025_Feb_01_1414,ConditionRich,2021.2.3,59.94485073784205,
44.75,48.0,41,0.0,Stimuli/Blank.png,0,0.0,0.0,0,22,22,22,,,,,,,,,,,,,44.773620399999345,0.023620399999344954,None,75.83395779999773,75.83395779999773,75.83395779999773,75.83395779999773,75.83395779999773,75.83395779999773,75.83395779999773,75.83395779999773,75.83395779999773,75.83395779999773,,008,P009,2025_Feb_01_1414,ConditionRich,2021.2.3,59.94485073784205,
48.0,48.75,4,0.75,Stimuli/P009/sun_afkzdukwewwzqtmr.jpg,0,0.0,0.0,0,23,23,23,,,,,,,,,,,,,48.02508559999842,0.02508559999841964,None,79.086887999998,79.086887999998,79.086887999998,79.086887999998,79.086887999998,79.086887999998,79.086887999998,79.086887999998,79.086887999998,79.086887999998,,008,P009,2025_Feb_01_1414,ConditionRich,2021.2.3,59.94485073784205,
48.75,52.0,41,0.0,Stimuli/Blank.png,0,0.0,0.0,0,24,24,24,,,,,,,,,,,,,48.77573829999892,0.02573829999892041,None,79.82095529999788,79.82095529999788,79.82095529999788,79.82095529999788,79.82095529999788,79.82095529999788,79.82095529999788,79.82095529999788,79.82095529999788,79.82095529999788,,008,P009,2025_Feb_01_1414,ConditionRich,2021.2.3,59.94485073784205,
52.0,52.75,11,0.75,Stimuli/P009/sun_bfyvfqiimvdaxlqn.jpg,0,0.0,0.0,0,25,25,25,,,,,,,,,,,,,52.01245719999861,0.012457199998607393,None,83.07373659999939,83.07373659999939,83.07373659999939,83.07373659999939,83.07373659999939,83.07373659999939,83.07373659999939,83.07373659999939,83.07373659999939,83.07373659999939,,008,P009,2025_Feb_01_1414,ConditionRich,2021.2.3,59.94485073784205,
52.75,56.0,41,0.0,Stimuli/Blank.png,0,0.0,0.0,0,26,26,26,,,,,,,,,,,,,52.77937229999952,0.02937229999952251,None,83.82439979999981,83.82439979999981,83.82439979999981,83.82439979999981,83.82439979999981,83.82439979999981,83.82439979999981,83.82439979999981,83.82439979999981,83.82439979999981,,008,P009,2025_Feb_01_1414,ConditionRich,2021.2.3,59.94485073784205,
56.0,56.75,15,0.75,Stimuli/P009/sun_boryivbddrnarrbo.jpg,0,0.0,0.0,0,27,27,27,,,,,,,,,,,,,56.01498469999933,0.014984699999331497,None,87.07729449999897,87.07729449999897,87.07729449999897,87.07729449999897,87.07729449999897,87.07729449999897,87.07729449999897,87.07729449999897,87.07729449999897,87.07729449999897,,008,P009,2025_Feb_01_1414,ConditionRich,2021.2.3,59.94485073784205,
56.75,60.0,41,0.0,Stimuli/Blank.png,0,0.0,0.0,0,28,28,28,,,,,,,,,,,,,56.783193800001754,0.033193800001754425,None,87.82793970000057,87.82793970000057,87.82793970000057,87.82793970000057,87.82793970000057,87.82793970000057,87.82793970000057,87.82793970000057,87.82793970000057,87.82793970000057,,008,P009,2025_Feb_01_1414,ConditionRich,2021.2.3,59.94485073784205,
60.0,60.75,2,0.75,Stimuli/P009/sun_acvloibbxiqpiwnv.jpg,0,0.0,0.0,0,29,29,29,,,,,,,,,,,,,60.003719600001205,0.003719600001204526,None,91.06413419999808,91.06413419999808,91.06413419999808,91.06413419999808,91.06413419999808,91.06413419999808,91.06413419999808,91.06413419999808,91.06413419999808,91.06413419999808,,008,P009,2025_Feb_01_1414,ConditionRich,2021.2.3,59.94485073784205,
60.75,64.0,41,0.0,Stimuli/Blank.png,0,0.0,0.0,0,30,30,30,,,,,,,,,,,,,60.77007969999977,0.02007969999976922,None,91.81479069999841,91.81479069999841,91.81479069999841,91.81479069999841,91.81479069999841,91.81479069999841,91.81479069999841,91.81479069999841,91.81479069999841,91.81479069999841,,008,P009,2025_Feb_01_1414,ConditionRich,2021.2.3,59.94485073784205,
64.0,64.75,9,0.75,Stimuli/P009/sun_bdjkvwqqqycuixtc.jpg,0,0.0,0.0,0,31,31,31,,,,,,,,,,,,,64.00585620000129,0.005856200001289835,None,95.0681482,95.0681482,95.0681482,95.0681482,95.0681482,95.0681482,95.0681482,95.0681482,95.0681482,95.0681482,,008,P009,2025_Feb_01_1414,ConditionRich,2021.2.3,59.94485073784205,
64.75,68.0,41,0.0,Stimuli/Blank.png,0,0.0,0.0,0,32,32,32,,,,,,,,,,,,,64.77276500000153,0.02276500000152737,None,95.81833149999875,95.81833149999875,95.81833149999875,95.81833149999875,95.81833149999875,95.81833149999875,95.81833149999875,95.81833149999875,95.81833149999875,95.81833149999875,,008,P009,2025_Feb_01_1414,ConditionRich,2021.2.3,59.94485073784205,
68.0,68.75,7,0.75,Stimuli/P009/sun_apiogxmvvzfmtsmj.jpg,0,0.0,0.0,0,33,33,33,,,,,,,,,,,,,68.00939149999977,0.009391499999765074,None,99.0545259999999,99.0545259999999,99.0545259999999,99.0545259999999,99.0545259999999,99.0545259999999,99.0545259999999,99.0545259999999,99.0545259999999,99.0545259999999,,008,P009,2025_Feb_01_1414,ConditionRich,2021.2.3,59.94485073784205,
68.75,72.0,41,0.0,Stimuli/Blank.png,0,0.0,0.0,0,34,34,34,,,,,,,,,,,,,68.76045789999989,0.010457899999892106,None,99.80519490000006,99.80519490000006,99.80519490000006,99.80519490000006,99.80519490000006,99.80519490000006,99.80519490000006,99.80519490000006,99.80519490000006,99.80519490000006,,008,P009,2025_Feb_01_1414,ConditionRich,2021.2.3,59.94485073784205,
72.0,72.75,20,0.75,Stimuli/P009/sun_ddsiwinthvyejghq.jpg,0,0.0,0.0,0,35,35,35,,,,,,,,,,,,,72.01277489999848,0.01277489999847603,None,103.05807419999837,103.05807419999837,103.05807419999837,103.05807419999837,103.05807419999837,103.05807419999837,103.05807419999837,103.05807419999837,103.05807419999837,103.05807419999837,,008,P009,2025_Feb_01_1414,ConditionRich,2021.2.3,59.94485073784205,
72.75,76.0,41,0.0,Stimuli/Blank.png,0,0.0,0.0,0,36,36,36,,,,,,,,,,,,,72.76404309999998,0.014043099999980768,None,103.80874089999998,103.80874089999998,103.80874089999998,103.80874089999998,103.80874089999998,103.80874089999998,103.80874089999998,103.80874089999998,103.80874089999998,103.80874089999998,,008,P009,2025_Feb_01_1414,ConditionRich,2021.2.3,59.94485073784205,
76.0,76.75,39,0.75,Stimuli/P009/things_tiara_05s.jpg,0,0.0,0.0,0,37,37,37,,,,,,,,,,,,,75.99930369999856,-0.0006963000014366116,None,107.04495440000028,107.04495440000028,107.04495440000028,107.04495440000028,107.04495440000028,107.04495440000028,107.04495440000028,107.04495440000028,107.04495440000028,107.04495440000028,,008,P009,2025_Feb_01_1414,ConditionRich,2021.2.3,59.94485073784205,
76.75,80.0,41,0.0,Stimuli/Blank.png,1,0.25,1.0,0,38,38,38,,,,,,,,,,,,,76.74974220000149,-0.00025779999850783497,1,107.7964073999974,107.7964073999974,107.7964073999974,107.7964073999974,107.7964073999974,107.7964073999974,108.02925300000061,108.7798561999989,107.7964073999974,107.7964073999974,0.6578497999980755,008,P009,2025_Feb_01_1414,ConditionRich,2021.2.3,59.94485073784205,
80.0,80.75,17,0.75,Stimuli/P009/sun_brkrfjpyfglmigkk.jpg,0,0.0,0.0,0,39,39,39,,,,,,,,,,,,,80.00332799999887,0.0033279999988735653,None,111.04902079999738,111.04902079999738,111.04902079999738,111.04902079999738,111.04902079999738,111.04902079999738,111.04902079999738,111.04902079999738,111.04902079999738,111.04902079999738,,008,P009,2025_Feb_01_1414,ConditionRich,2021.2.3,59.94485073784205,
80.75,84.0,41,0.0,Stimuli/Blank.png,0,0.0,0.0,0,40,40,40,,,,,,,,,,,,,80.75399839999955,0.003998399999545654,None,111.799143799999,111.799143799999,111.799143799999,111.799143799999,111.799143799999,111.799143799999,111.799143799999,111.799143799999,111.799143799999,111.799143799999,,008,P009,2025_Feb_01_1414,ConditionRich,2021.2.3,59.94485073784205,
84.0,100.0,0,0.0,Stimuli/Blank.png,1,8.0,8.75,0,41,41,41,,,,,,,,,,,,,84.00794010000027,0.007940100000269013,1,115.05203690000053,115.05203690000053,115.05203690000053,115.05203690000053,115.05203690000053,115.05203690000053,123.0424125999998,123.7931009999993,115.05203690000053,115.05203690000053,8.391188600002351,008,P009,2025_Feb_01_1414,ConditionRich,2021.2.3,59.94485073784205,
100.0,100.75,19,0.75,Stimuli/P009/sun_bwvfnogmotsvhofs.jpg,0,0.0,0.0,0,42,42,42,,,,,,,,,,,,,100.00403980000192,0.004039800001919502,None,131.04950379999718,131.04950379999718,131.04950379999718,131.04950379999718,131.04950379999718,131.04950379999718,131.04950379999718,131.04950379999718,131.04950379999718,131.04950379999718,,008,P009,2025_Feb_01_1414,ConditionRich,2021.2.3,59.94485073784205,
100.75,104.0,41,0.0,Stimuli/Blank.png,1,2.25,3.0,0,43,43,43,,,,,,,,,,,,,100.75532480000038,0.005324800000380492,1,131.8001611999971,131.8001611999971,131.8001611999971,131.8001611999971,131.8001611999971,131.8001611999971,134.03552789999958,134.7861352,131.8001611999971,131.8001611999971,2.7441263000000617,008,P009,2025_Feb_01_1414,ConditionRich,2021.2.3,59.94485073784205,
104.0,104.75,28,0.75,Stimuli/P009/things_face_05s.jpg,0,0.0,0.0,0,44,44,44,,,,,,,,,,,,,104.00819079999928,0.008190799999283627,None,135.06968849999976,135.06968849999976,135.06968849999976,135.06968849999976,135.06968849999976,135.06968849999976,135.06968849999976,135.06968849999976,135.06968849999976,135.06968849999976,,008,P009,2025_Feb_01_1414,ConditionRich,2021.2.3,59.94485073784205,
104.75,108.0,41,0.0,Stimuli/Blank.png,0,0.0,0.0,0,45,45,45,,,,,,,,,,,,,104.7753632999993,0.02536329999929876,None,135.82038639999882,135.82038639999882,135.82038639999882,135.82038639999882,135.82038639999882,135.82038639999882,135.82038639999882,135.82038639999882,135.82038639999882,135.82038639999882,,008,P009,2025_Feb_01_1414,ConditionRich,2021.2.3,59.94485073784205,
108.0,108.75,24,0.75,Stimuli/P009/things_cigar_05n.jpg,0,0.0,0.0,0,46,46,46,,,,,,,,,,,,,108.01078359999883,0.01078359999883105,None,139.05658589999803,139.05658589999803,139.05658589999803,139.05658589999803,139.05658589999803,139.05658589999803,139.05658589999803,139.05658589999803,139.05658589999803,139.05658589999803,,008,P009,2025_Feb_01_1414,ConditionRich,2021.2.3,59.94485073784205,
108.75,112.0,41,0.0,Stimuli/Blank.png,0,0.0,0.0,0,47,47,47,,,,,,,,,,,,,108.76357940000162,0.013579400001617614,None,139.82394139999815,139.82394139999815,139.82394139999815,139.82394139999815,139.82394139999815,139.82394139999815,139.82394139999815,139.82394139999815,139.82394139999815,139.82394139999815,,008,P009,2025_Feb_01_1414,ConditionRich,2021.2.3,59.94485073784205,
112.0,112.75,16,0.75,Stimuli/P009/sun_bqpyqljaflidcauh.jpg,0,0.0,0.0,0,48,48,48,,,,,,,,,,,,,112.01428990000204,0.014289900002040667,None,143.06012569999803,143.06012569999803,143.06012569999803,143.06012569999803,143.06012569999803,143.06012569999803,143.06012569999803,143.06012569999803,143.06012569999803,143.06012569999803,,008,P009,2025_Feb_01_1414,ConditionRich,2021.2.3,59.94485073784205,
112.75,116.0,41,0.0,Stimuli/Blank.png,0,0.0,0.0,0,49,49,49,,,,,,,,,,,,,112.76560170000084,0.015601700000843266,None,143.81085969999913,143.81085969999913,143.81085969999913,143.81085969999913,143.81085969999913,143.81085969999913,143.81085969999913,143.81085969999913,143.81085969999913,143.81085969999913,,008,P009,2025_Feb_01_1414,ConditionRich,2021.2.3,59.94485073784205,
116.0,116.75,10,0.75,Stimuli/P009/sun_bdkttewvyfdarikm.jpg,0,0.0,0.0,0,50,50,50,,,,,,,,,,,,,116.00368750000052,0.003687500000523869,None,147.06366649999836,147.06366649999836,147.06366649999836,147.06366649999836,147.06366649999836,147.06366649999836,147.06366649999836,147.06366649999836,147.06366649999836,147.06366649999836,,008,P009,2025_Feb_01_1414,ConditionRich,2021.2.3,59.94485073784205,
116.75,120.0,41,0.0,Stimuli/Blank.png,0,0.0,0.0,0,51,51,51,,,,,,,,,,,,,116.76867449999918,0.018674499999178806,None,147.81430719999844,147.81430719999844,147.81430719999844,147.81430719999844,147.81430719999844,147.81430719999844,147.81430719999844,147.81430719999844,147.81430719999844,147.81430719999844,,008,P009,2025_Feb_01_1414,ConditionRich,2021.2.3,59.94485073784205,
120.0,120.75,29,0.75,Stimuli/P009/things_fingerprint_05s.jpg,0,0.0,0.0,0,52,52,52,,,,,,,,,,,,,120.00584170000002,0.0058417000000190455,None,151.06722069999887,151.06722069999887,151.06722069999887,151.06722069999887,151.06722069999887,151.06722069999887,151.06722069999887,151.06722069999887,151.06722069999887,151.06722069999887,,008,P009,2025_Feb_01_1414,ConditionRich,2021.2.3,59.94485073784205,
120.75,124.0,41,0.0,Stimuli/Blank.png,0,0.0,0.0,0,53,53,53,,,,,,,,,,,,,120.7747062999988,0.024706299998797476,None,151.83456939999814,151.83456939999814,151.83456939999814,151.83456939999814,151.83456939999814,151.83456939999814,151.83456939999814,151.83456939999814,151.83456939999814,151.83456939999814,,008,P009,2025_Feb_01_1414,ConditionRich,2021.2.3,59.94485073784205,
124.0,124.75,38,0.75,Stimuli/P009/things_roadsweeper_05s.jpg,0,0.0,0.0,0,54,54,54,,,,,,,,,,,,,124.02518860000055,0.025188600000547012,None,155.08744569999908,155.08744569999908,155.08744569999908,155.08744569999908,155.08744569999908,155.08744569999908,155.08744569999908,155.08744569999908,155.08744569999908,155.08744569999908,,008,P009,2025_Feb_01_1414,ConditionRich,2021.2.3,59.94485073784205,
124.75,128.0,41,0.0,Stimuli/Blank.png,0,0.0,0.0,0,55,55,55,,,,,,,,,,,,,124.77558370000042,0.02558370000042487,None,155.8214072999981,155.8214072999981,155.8214072999981,155.8214072999981,155.8214072999981,155.8214072999981,155.8214072999981,155.8214072999981,155.8214072999981,155.8214072999981,,008,P009,2025_Feb_01_1414,ConditionRich,2021.2.3,59.94485073784205,
128.0,128.75,25,0.75,Stimuli/P009/things_clothespin_05s.jpg,0,0.0,0.0,0,56,56,56,,,,,,,,,,,,,128.01325590000124,0.013255900001240661,None,159.0748784999996,159.0748784999996,159.0748784999996,159.0748784999996,159.0748784999996,159.0748784999996,159.0748784999996,159.0748784999996,159.0748784999996,159.0748784999996,,008,P009,2025_Feb_01_1414,ConditionRich,2021.2.3,59.94485073784205,
128.75,132.0,41,0.0,Stimuli/Blank.png,0,0.0,0.0,0,57,57,57,,,,,,,,,,,,,128.77910780000093,0.029107800000929274,None,159.8249513999981,159.8249513999981,159.8249513999981,159.8249513999981,159.8249513999981,159.8249513999981,159.8249513999981,159.8249513999981,159.8249513999981,159.8249513999981,,008,P009,2025_Feb_01_1414,ConditionRich,2021.2.3,59.94485073784205,
132.0,132.75,14,0.75,Stimuli/P009/sun_blaqxdebghixzyyw.jpg,0,0.0,0.0,0,58,58,58,,,,,,,,,,,,,132.01597739999852,0.015977399998519104,None,163.0778571999981,163.0778571999981,163.0778571999981,163.0778571999981,163.0778571999981,163.0778571999981,163.0778571999981,163.0778571999981,163.0778571999981,163.0778571999981,,008,P009,2025_Feb_01_1414,ConditionRich,2021.2.3,59.94485073784205,
132.75,136.0,41,0.0,Stimuli/Blank.png,0,0.0,0.0,0,59,59,59,,,,,,,,,,,,,132.76676690000022,0.01676690000022063,None,163.81184519999806,163.81184519999806,163.81184519999806,163.81184519999806,163.81184519999806,163.81184519999806,163.81184519999806,163.81184519999806,163.81184519999806,163.81184519999806,,008,P009,2025_Feb_01_1414,ConditionRich,2021.2.3,59.94485073784205,
136.0,136.75,27,0.75,Stimuli/P009/things_curling_iron_05s.jpg,1,0.0,0.75,0,60,60,60,,,,,,,,,,,,,136.00274889999855,0.002748899998550769,1,167.0479669999986,167.0479669999986,167.0479669999986,167.0479669999986,167.0479669999986,167.0479669999986,167.0479669999986,167.78199780000068,167.0479669999986,167.0479669999986,0.4574933999974746,008,P009,2025_Feb_01_1414,ConditionRich,2021.2.3,59.94485073784205,
136.75,140.0,41,0.0,Stimuli/Blank.png,0,0.0,0.0,0,61,61,61,,,,,,,,,,,,,136.75351750000118,0.0035175000011804514,None,167.7986796999976,167.7986796999976,167.7986796999976,167.7986796999976,167.7986796999976,167.7986796999976,167.7986796999976,167.7986796999976,167.7986796999976,167.7986796999976,,008,P009,2025_Feb_01_1414,ConditionRich,2021.2.3,59.94485073784205,
140.0,140.75,1,0.75,Stimuli/P009/sun_abqdlumenyzawlme.jpg,0,0.0,0.0,0,62,62,62,,,,,,,,,,,,,140.006194900001,0.006194900000991765,None,171.0682429999979,171.0682429999979,171.0682429999979,171.0682429999979,171.0682429999979,171.0682429999979,171.0682429999979,171.0682429999979,171.0682429999979,171.0682429999979,,008,P009,2025_Feb_01_1414,ConditionRich,2021.2.3,59.94485073784205,
140.75,144.0,41,0.0,Stimuli/Blank.png,1,0.25,1.0,0,63,63,63,,,,,,,,,,,,,140.77404979999847,0.02404979999846546,1,171.81890099999873,171.81890099999873,171.81890099999873,171.81890099999873,171.81890099999873,171.81890099999873,172.05247450000024,172.80309869999837,171.81890099999873,171.81890099999873,0.6863290999972378,008,P009,2025_Feb_01_1414,ConditionRich,2021.2.3,59.94485073784205,
144.0,144.75,35,0.75,Stimuli/P009/things_mushroom_05n.jpg,0,0.0,0.0,0,64,64,64,,,,,,,,,,,,,144.01098790000106,0.010987900001055095,None,175.05500849999953,175.05500849999953,175.05500849999953,175.05500849999953,175.05500849999953,175.05500849999953,175.05500849999953,175.05500849999953,175.05500849999953,175.05500849999953,,008,P009,2025_Feb_01_1414,ConditionRich,2021.2.3,59.94485073784205,
144.75,148.0,41,0.0,Stimuli/Blank.png,0,0.0,0.0,0,65,65,65,,,,,,,,,,,,,144.7601395999991,0.010139599999092752,None,175.80576559999827,175.80576559999827,175.80576559999827,175.80576559999827,175.80576559999827,175.80576559999827,175.80576559999827,175.80576559999827,175.80576559999827,175.80576559999827,,008,P009,2025_Feb_01_1414,ConditionRich,2021.2.3,59.94485073784205,
148.0,148.75,32,0.75,Stimuli/P009/things_hawk_05s.jpg,0,0.0,0.0,0,66,66,66,,,,,,,,,,,,,148.01338459999897,0.01338459999897168,None,179.05863580000005,179.05863580000005,179.05863580000005,179.05863580000005,179.05863580000005,179.05863580000005,179.05863580000005,179.05863580000005,179.05863580000005,179.05863580000005,,008,P009,2025_Feb_01_1414,ConditionRich,2021.2.3,59.94485073784205,
148.75,152.0,41,0.0,Stimuli/Blank.png,0,0.0,0.0,0,67,67,67,,,,,,,,,,,,,148.76341319999847,0.013413199998467462,None,179.80927809999775,179.80927809999775,179.80927809999775,179.80927809999775,179.80927809999775,179.80927809999775,179.80927809999775,179.80927809999775,179.80927809999775,179.80927809999775,,008,P009,2025_Feb_01_1414,ConditionRich,2021.2.3,59.94485073784205,
152.0,152.75,36,0.75,Stimuli/P009/things_pelican_05s.jpg,0,0.0,0.0,0,68,68,68,,,,,,,,,,,,,152.00042419999954,0.0004241999995429069,None,183.0454611999994,183.0454611999994,183.0454611999994,183.0454611999994,183.0454611999994,183.0454611999994,183.0454611999994,183.0454611999994,183.0454611999994,183.0454611999994,,008,P009,2025_Feb_01_1414,ConditionRich,2021.2.3,59.94485073784205,
152.75,156.0,41,0.0,Stimuli/Blank.png,0,0.0,0.0,0,69,69,69,,,,,,,,,,,,,152.75095190000138,0.0009519000013824552,None,183.79623319999882,183.79623319999882,183.79623319999882,183.79623319999882,183.79623319999882,183.79623319999882,183.79623319999882,183.79623319999882,183.79623319999882,183.79623319999882,,008,P009,2025_Feb_01_1414,ConditionRich,2021.2.3,59.94485073784205,
156.0,156.75,21,0.75,Stimuli/P009/things_boy_05s.jpg,0,0.0,0.0,0,70,70,70,,,,,,,,,,,,,156.00433220000195,0.004332200001954334,None,187.06568490000063,187.06568490000063,187.06568490000063,187.06568490000063,187.06568490000063,187.06568490000063,187.06568490000063,187.06568490000063,187.06568490000063,187.06568490000063,,008,P009,2025_Feb_01_1414,ConditionRich,2021.2.3,59.94485073784205,
156.75,160.0,41,0.0,Stimuli/Blank.png,0,0.0,0.0,0,71,71,71,,,,,,,,,,,,,156.77118960000007,0.02118960000007064,None,187.81643939999776,187.81643939999776,187.81643939999776,187.81643939999776,187.81643939999776,187.81643939999776,187.81643939999776,187.81643939999776,187.81643939999776,187.81643939999776,,008,P009,2025_Feb_01_1414,ConditionRich,2021.2.3,59.94485073784205,
160.0,160.75,5,0.75,Stimuli/P009/sun_akqvdmuauoxeafrj.jpg,0,0.0,0.0,0,72,72,72,,,,,,,,,,,,,160.00767239999914,0.007672399999137269,None,191.06925639999827,191.06925639999827,191.06925639999827,191.06925639999827,191.06925639999827,191.06925639999827,191.06925639999827,191.06925639999827,191.06925639999827,191.06925639999827,,008,P009,2025_Feb_01_1414,ConditionRich,2021.2.3,59.94485073784205,
160.75,164.0,41,0.0,Stimuli/Blank.png,0,0.0,0.0,0,73,73,73,,,,,,,,,,,,,160.7741023000017,0.024102300001686672,None,191.81992639999953,191.81992639999953,191.81992639999953,191.81992639999953,191.81992639999953,191.81992639999953,191.81992639999953,191.81992639999953,191.81992639999953,191.81992639999953,,008,P009,2025_Feb_01_1414,ConditionRich,2021.2.3,59.94485073784205,
164.0,164.75,12,0.75,Stimuli/P009/sun_birmwgkdtrlevcaf.jpg,0,0.0,0.0,0,74,74,74,,,,,,,,,,,,,164.01104000000123,0.01104000000123051,None,195.0728139999992,195.0728139999992,195.0728139999992,195.0728139999992,195.0728139999992,195.0728139999992,195.0728139999992,195.0728139999992,195.0728139999992,195.0728139999992,,008,P009,2025_Feb_01_1414,ConditionRich,2021.2.3,59.94485073784205,
164.75,168.0,41,0.0,Stimuli/Blank.png,0,0.0,0.0,0,75,75,75,,,,,,,,,,,,,164.7790258999994,0.029025899999396643,None,195.82346809999945,195.82346809999945,195.82346809999945,195.82346809999945,195.82346809999945,195.82346809999945,195.82346809999945,195.82346809999945,195.82346809999945,195.82346809999945,,008,P009,2025_Feb_01_1414,ConditionRich,2021.2.3,59.94485073784205,
168.0,168.75,34,0.75,Stimuli/P009/things_man_05s.jpg,1,0.0,0.75,0,76,76,76,,,,,,,,,,,,,168.01403740000023,0.014037400000233902,None,199.05966139999873,199.05966139999873,199.05966139999873,199.05966139999873,199.05966139999873,199.05966139999873,199.05966139999873,199.7936351999997,199.05966139999873,199.05966139999873,,008,P009,2025_Feb_01_1414,ConditionRich,2021.2.3,59.94485073784205,
168.75,172.0,41,0.0,Stimuli/Blank.png,0,0.0,0.0,0,77,77,77,,,,,,,,,,,,,168.7648362,0.01483619999999064,None,199.8103231999994,199.8103231999994,199.8103231999994,199.8103231999994,199.8103231999994,199.8103231999994,199.8103231999994,199.8103231999994,199.8103231999994,199.8103231999994,,008,P009,2025_Feb_01_1414,ConditionRich,2021.2.3,59.94485073784205,
172.0,172.75,6,0.75,Stimuli/P009/sun_amkrwcyvinmsylsz.jpg,0,0.0,0.0,0,78,78,78,,,,,,,,,,,,,172.00073410000186,0.0007341000018641353,None,203.06323659999907,203.06323659999907,203.06323659999907,203.06323659999907,203.06323659999907,203.06323659999907,203.06323659999907,203.06323659999907,203.06323659999907,203.06323659999907,,008,P009,2025_Feb_01_1414,ConditionRich,2021.2.3,59.94485073784205,
172.75,176.0,41,0.0,Stimuli/Blank.png,0,0.0,0.0,0,79,79,79,,,,,,,,,,,,,172.76921690000017,0.019216900000174064,None,203.8138708000006,203.8138708000006,203.8138708000006,203.8138708000006,203.8138708000006,203.8138708000006,203.8138708000006,203.8138708000006,203.8138708000006,203.8138708000006,,008,P009,2025_Feb_01_1414,ConditionRich,2021.2.3,59.94485073784205,
176.0,176.75,33,0.75,Stimuli/P009/things_lizard_05n.jpg,0,0.0,0.0,0,80,80,80,,,,,,,,,,,,,176.0046332999991,0.00463329999911366,None,207.05005619999793,207.05005619999793,207.05005619999793,207.05005619999793,207.05005619999793,207.05005619999793,207.05005619999793,207.05005619999793,207.05005619999793,207.05005619999793,,008,P009,2025_Feb_01_1414,ConditionRich,2021.2.3,59.94485073784205,
176.75,180.0,41,0.0,Stimuli/Blank.png,0,0.0,0.0,0,81,81,81,,,,,,,,,,,,,176.7552418000014,0.0052418000013858546,None,207.80072259999724,207.80072259999724,207.80072259999724,207.80072259999724,207.80072259999724,207.80072259999724,207.80072259999724,207.80072259999724,207.80072259999724,207.80072259999724,,008,P009,2025_Feb_01_1414,ConditionRich,2021.2.3,59.94485073784205,
180.0,196.0,0,0.0,Stimuli/Blank.png,1,5.0,5.75,0,82,82,82,,,,,,,,,,,,,180.00842829999965,0.008428299999650335,1,211.05360309999742,211.05360309999742,211.05360309999742,211.05360309999742,211.05360309999742,211.05360309999742,216.04139889999715,216.79219929999817,211.05360309999742,211.05360309999742,5.4025996000018495,008,P009,2025_Feb_01_1414,ConditionRich,2021.2.3,59.94485073784205,
196.0,196.75,32,0.75,Stimuli/P009/things_hawk_05s.jpg,0,0.0,0.0,0,83,83,83,,,,,,,,,,,,,196.00548699999854,0.005486999998538522,None,227.0510871999977,227.0510871999977,227.0510871999977,227.0510871999977,227.0510871999977,227.0510871999977,227.0510871999977,227.0510871999977,227.0510871999977,227.0510871999977,,008,P009,2025_Feb_01_1414,ConditionRich,2021.2.3,59.94485073784205,
196.75,200.0,41,0.0,Stimuli/Blank.png,0,0.0,0.0,0,84,84,84,,,,,,,,,,,,,196.7571825999985,0.007182599998486694,None,227.80177869999898,227.80177869999898,227.80177869999898,227.80177869999898,227.80177869999898,227.80177869999898,227.80177869999898,227.80177869999898,227.80177869999898,227.80177869999898,,008,P009,2025_Feb_01_1414,ConditionRich,2021.2.3,59.94485073784205,
200.0,200.75,38,0.75,Stimuli/P009/things_roadsweeper_05s.jpg,0,0.0,0.0,0,85,85,85,,,,,,,,,,,,,200.00896990000183,0.008969900001829956,None,231.05463189999864,231.05463189999864,231.05463189999864,231.05463189999864,231.05463189999864,231.05463189999864,231.05463189999864,231.05463189999864,231.05463189999864,231.05463189999864,,008,P009,2025_Feb_01_1414,ConditionRich,2021.2.3,59.94485073784205,
200.75,204.0,41,0.0,Stimuli/Blank.png,1,1.25,2.0,0,86,86,86,,,,,,,,,,,,,200.75967339999988,0.009673399999883259,1,231.80528309999863,231.80528309999863,231.80528309999863,231.80528309999863,231.80528309999863,231.80528309999863,233.03971230000025,233.79036189999897,231.80528309999863,231.80528309999863,1.6639275999987149,008,P009,2025_Feb_01_1414,ConditionRich,2021.2.3,59.94485073784205,
204.0,204.75,35,0.75,Stimuli/P009/things_mushroom_05n.jpg,0,0.0,0.0,0,87,87,87,,,,,,,,,,,,,204.01278470000034,0.01278470000033849,None,235.05911059999926,235.05911059999926,235.05911059999926,235.05911059999926,235.05911059999926,235.05911059999926,235.05911059999926,235.05911059999926,235.05911059999926,235.05911059999926,,008,P009,2025_Feb_01_1414,ConditionRich,2021.2.3,59.94485073784205,
204.75,208.0,41,0.0,Stimuli/Blank.png,0,0.0,0.0,0,88,88,88,,,,,,,,,,,,,204.76394730000175,0.013947300001746044,None,235.80884089999745,235.80884089999745,235.80884089999745,235.80884089999745,235.80884089999745,235.80884089999745,235.80884089999745,235.80884089999745,235.80884089999745,235.80884089999745,,008,P009,2025_Feb_01_1414,ConditionRich,2021.2.3,59.94485073784205,
208.0,208.75,21,0.75,Stimuli/P009/things_boy_05s.jpg,0,0.0,0.0,0,89,89,89,,,,,,,,,,,,,207.99945970000044,-0.000540299999556737,None,239.04502409999986,239.04502409999986,239.04502409999986,239.04502409999986,239.04502409999986,239.04502409999986,239.04502409999986,239.04502409999986,239.04502409999986,239.04502409999986,,008,P009,2025_Feb_01_1414,ConditionRich,2021.2.3,59.94485073784205,
208.75,212.0,41,0.0,Stimuli/Blank.png,0,0.0,0.0,0,90,90,90,,,,,,,,,,,,,208.74987350000083,-0.00012649999916902743,None,239.7956978000002,239.7956978000002,239.7956978000002,239.7956978000002,239.7956978000002,239.7956978000002,239.7956978000002,239.7956978000002,239.7956978000002,239.7956978000002,,008,P009,2025_Feb_01_1414,ConditionRich,2021.2.3,59.94485073784205,
212.0,212.75,3,0.75,Stimuli/P009/sun_aewgwsmvsgzleqhw.jpg,0,0.0,0.0,0,91,91,91,,,,,,,,,,,,,212.00308080000104,0.0030808000010438263,None,243.0485641999985,243.0485641999985,243.0485641999985,243.0485641999985,243.0485641999985,243.0485641999985,243.0485641999985,243.0485641999985,243.0485641999985,243.0485641999985,,008,P009,2025_Feb_01_1414,ConditionRich,2021.2.3,59.94485073784205,
212.75,216.0,41,0.0,Stimuli/Blank.png,1,0.25,1.0,0,92,92,92,,,,,,,,,,,,,212.75498040000093,0.004980400000931695,1,243.79925199999707,243.79925199999707,243.79925199999707,243.79925199999707,243.79925199999707,243.79925199999707,244.03279819999807,244.7834432999989,243.79925199999707,243.79925199999707,0.641946800002188,008,P009,2025_Feb_01_1414,ConditionRich,2021.2.3,59.94485073784205,
216.0,216.75,28,0.75,Stimuli/P009/things_face_05s.jpg,0,0.0,0.0,0,93,93,93,,,,,,,,,,,,,216.0086424000001,0.00864240000009886,None,247.06880389999787,247.06880389999787,247.06880389999787,247.06880389999787,247.06880389999787,247.06880389999787,247.06880389999787,247.06880389999787,247.06880389999787,247.06880389999787,,008,P009,2025_Feb_01_1414,ConditionRich,2021.2.3,59.94485073784205,
216.75,220.0,41,0.0,Stimuli/Blank.png,0,0.0,0.0,0,94,94,94,,,,,,,,,,,,,216.7751102000002,0.025110200000199256,None,247.83613999999943,247.83613999999943,247.83613999999943,247.83613999999943,247.83613999999943,247.83613999999943,247.83613999999943,247.83613999999943,247.83613999999943,247.83613999999943,,008,P009,2025_Feb_01_1414,ConditionRich,2021.2.3,59.94485073784205,
220.0,220.75,34,0.75,Stimuli/P009/things_man_05s.jpg,0,0.0,0.0,0,95,95,95,,,,,,,,,,,,,220.02884970000014,0.02884970000013709,None,251.08902490000037,251.08902490000037,251.08902490000037,251.08902490000037,251.08902490000037,251.08902490000037,251.08902490000037,251.08902490000037,251.08902490000037,251.08902490000037,,008,P009,2025_Feb_01_1414,ConditionRich,2021.2.3,59.94485073784205,
220.75,224.0,41,0.0,Stimuli/Blank.png,0,0.0,0.0,0,96,96,96,,,,,,,,,,,,,220.77778469999976,0.027784699999756413,None,251.82299860000057,251.82299860000057,251.82299860000057,251.82299860000057,251.82299860000057,251.82299860000057,251.82299860000057,251.82299860000057,251.82299860000057,251.82299860000057,,008,P009,2025_Feb_01_1414,ConditionRich,2021.2.3,59.94485073784205,
224.0,224.75,1,0.75,Stimuli/P009/sun_abqdlumenyzawlme.jpg,0,0.0,0.0,0,97,97,97,,,,,,,,,,,,,224.01389120000022,0.013891200000216486,None,255.05916369999977,255.05916369999977,255.05916369999977,255.05916369999977,255.05916369999977,255.05916369999977,255.05916369999977,255.05916369999977,255.05916369999977,255.05916369999977,,008,P009,2025_Feb_01_1414,ConditionRich,2021.2.3,59.94485073784205,
224.75,228.0,41,0.0,Stimuli/Blank.png,1,0.25,1.0,0,98,98,98,,,,,,,,,,,,,224.76407200000176,0.014072000001760898,1,255.8098613000002,255.8098613000002,255.8098613000002,255.8098613000002,255.8098613000002,255.8098613000002,256.0433931000007,256.79407349999747,255.8098613000002,255.8098613000002,0.7173527000013564,008,P009,2025_Feb_01_1414,ConditionRich,2021.2.3,59.94485073784205,
228.0,228.75,40,0.75,Stimuli/P009/things_woman_05s.jpg,0,0.0,0.0,0,99,99,99,,,,,,,,,,,,,228.0010860000002,0.0010860000002139714,None,259.04605049999736,259.04605049999736,259.04605049999736,259.04605049999736,259.04605049999736,259.04605049999736,259.04605049999736,259.04605049999736,259.04605049999736,259.04605049999736,,008,P009,2025_Feb_01_1414,ConditionRich,2021.2.3,59.94485073784205,
228.75,232.0,41,0.0,Stimuli/Blank.png,0,0.0,0.0,0,100,100,100,,,,,,,,,,,,,228.75366940000094,0.0036694000009447336,None,259.81342409999706,259.81342409999706,259.81342409999706,259.81342409999706,259.81342409999706,259.81342409999706,259.81342409999706,259.81342409999706,259.81342409999706,259.81342409999706,,008,P009,2025_Feb_01_1414,ConditionRich,2021.2.3,59.94485073784205,
232.0,232.75,18,0.75,Stimuli/P009/sun_bwjdahsxcqepqqbm.jpg,0,0.0,0.0,0,101,101,101,,,,,,,,,,,,,232.02110360000006,0.021103600000060396,None,263.08295480000015,263.08295480000015,263.08295480000015,263.08295480000015,263.08295480000015,263.08295480000015,263.08295480000015,263.08295480000015,263.08295480000015,263.08295480000015,,008,P009,2025_Feb_01_1414,ConditionRich,2021.2.3,59.94485073784205,
232.75,236.0,41,0.0,Stimuli/Blank.png,0,0.0,0.0,0,102,102,102,,,,,,,,,,,,,232.77202119999856,0.022021199998562224,None,263.81694719999723,263.81694719999723,263.81694719999723,263.81694719999723,263.81694719999723,263.81694719999723,263.81694719999723,263.81694719999723,263.81694719999723,263.81694719999723,,008,P009,2025_Feb_01_1414,ConditionRich,2021.2.3,59.94485073784205,
236.0,236.75,39,0.75,Stimuli/P009/things_tiara_05s.jpg,0,0.0,0.0,0,103,103,103,,,,,,,,,,,,,236.0082364000009,0.008236400000896538,None,267.05312969999795,267.05312969999795,267.05312969999795,267.05312969999795,267.05312969999795,267.05312969999795,267.05312969999795,267.05312969999795,267.05312969999795,267.05312969999795,,008,P009,2025_Feb_01_1414,ConditionRich,2021.2.3,59.94485073784205,
236.75,240.0,41,0.0,Stimuli/Blank.png,0,0.0,0.0,0,104,104,104,,,,,,,,,,,,,236.7590530999987,0.009053099998709513,None,267.80382219999956,267.80382219999956,267.80382219999956,267.80382219999956,267.80382219999956,267.80382219999956,267.80382219999956,267.80382219999956,267.80382219999956,267.80382219999956,,008,P009,2025_Feb_01_1414,ConditionRich,2021.2.3,59.94485073784205,
240.0,240.75,24,0.75,Stimuli/P009/things_cigar_05n.jpg,0,0.0,0.0,0,105,105,105,,,,,,,,,,,,,240.01360679999925,0.013606799999251962,None,271.0734913999986,271.0734913999986,271.0734913999986,271.0734913999986,271.0734913999986,271.0734913999986,271.0734913999986,271.0734913999986,271.0734913999986,271.0734913999986,,008,P009,2025_Feb_01_1414,ConditionRich,2021.2.3,59.94485073784205,
240.75,244.0,41,0.0,Stimuli/Blank.png,0,0.0,0.0,0,106,106,106,,,,,,,,,,,,,240.7789808000016,0.02898080000159098,None,271.8240345999984,271.8240345999984,271.8240345999984,271.8240345999984,271.8240345999984,271.8240345999984,271.8240345999984,271.8240345999984,271.8240345999984,271.8240345999984,,008,P009,2025_Feb_01_1414,ConditionRich,2021.2.3,59.94485073784205,
244.0,244.75,6,0.75,Stimuli/P009/sun_amkrwcyvinmsylsz.jpg,0,0.0,0.0,0,107,107,107,,,,,,,,,,,,,244.0146194000008,0.014619400000810856,None,275.07687669999723,275.07687669999723,275.07687669999723,275.07687669999723,275.07687669999723,275.07687669999723,275.07687669999723,275.07687669999723,275.07687669999723,275.07687669999723,,008,P009,2025_Feb_01_1414,ConditionRich,2021.2.3,59.94485073784205,
244.75,248.0,41,0.0,Stimuli/Blank.png,0,0.0,0.0,0,108,108,108,,,,,,,,,,,,,244.78398000000016,0.033980000000156,None,275.84424379999837,275.84424379999837,275.84424379999837,275.84424379999837,275.84424379999837,275.84424379999837,275.84424379999837,275.84424379999837,275.84424379999837,275.84424379999837,,008,P009,2025_Feb_01_1414,ConditionRich,2021.2.3,59.94485073784205,
248.0,248.75,36,0.75,Stimuli/P009/things_pelican_05s.jpg,0,0.0,0.0,0,109,109,109,,,,,,,,,,,,,248.01900119999846,0.019001199998456286,None,279.0637558999988,279.0637558999988,279.0637558999988,279.0637558999988,279.0637558999988,279.0637558999988,279.0637558999988,279.0637558999988,279.0637558999988,279.0637558999988,,008,P009,2025_Feb_01_1414,ConditionRich,2021.2.3,59.94485073784205,
248.75,252.0,41,0.0,Stimuli/Blank.png,0,0.0,0.0,0,110,110,110,,,,,,,,,,,,,248.75391060000038,0.003910600000381237,None,279.81444519999786,279.81444519999786,279.81444519999786,279.81444519999786,279.81444519999786,279.81444519999786,279.81444519999786,279.81444519999786,279.81444519999786,279.81444519999786,,008,P009,2025_Feb_01_1414,ConditionRich,2021.2.3,59.94485073784205,
252.0,252.75,11,0.75,Stimuli/P009/sun_bfyvfqiimvdaxlqn.jpg,0,0.0,0.0,0,111,111,111,,,,,,,,,,,,,252.023875400002,0.02387540000199806,None,283.083985199999,283.083985199999,283.083985199999,283.083985199999,283.083985199999,283.083985199999,283.083985199999,283.083985199999,283.083985199999,283.083985199999,,008,P009,2025_Feb_01_1414,ConditionRich,2021.2.3,59.94485073784205,
252.75,256.0,41,0.0,Stimuli/Blank.png,0,0.0,0.0,0,112,112,112,,,,,,,,,,,,,252.7728859000017,0.02288590000171098,None,283.8179786999972,283.8179786999972,283.8179786999972,283.8179786999972,283.8179786999972,283.8179786999972,283.8179786999972,283.8179786999972,283.8179786999972,283.8179786999972,,008,P009,2025_Feb_01_1414,ConditionRich,2021.2.3,59.94485073784205,
256.0,256.75,12,0.75,Stimuli/P009/sun_birmwgkdtrlevcaf.jpg,0,0.0,0.0,0,113,113,113,,,,,,,,,,,,,256.0095947000009,0.009594700000889134,None,287.07084190000023,287.07084190000023,287.07084190000023,287.07084190000023,287.07084190000023,287.07084190000023,287.07084190000023,287.07084190000023,287.07084190000023,287.07084190000023,,008,P009,2025_Feb_01_1414,ConditionRich,2021.2.3,59.94485073784205,
256.75,260.0,41,0.0,Stimuli/Blank.png,1,1.25,2.0,0,114,114,114,,,,,,,,,,,,,256.7765275999991,0.02652759999909904,1,287.821516,287.821516,287.821516,287.821516,287.821516,287.821516,289.0559274999978,289.80663529999947,287.821516,287.821516,1.6547634999988077,008,P009,2025_Feb_01_1414,ConditionRich,2021.2.3,59.94485073784205,
260.0,260.75,25,0.75,Stimuli/P009/things_clothespin_05s.jpg,1,0.0,0.75,0,115,115,115,,,,,,,,,,,,,260.0142288999996,0.01422889999957988,None,291.07438600000023,291.07438600000023,291.07438600000023,291.07438600000023,291.07438600000023,291.07438600000023,291.07438600000023,291.8083657999996,291.07438600000023,291.07438600000023,,008,P009,2025_Feb_01_1414,ConditionRich,2021.2.3,59.94485073784205,
260.75,264.0,41,0.0,Stimuli/Blank.png,0,0.0,0.0,0,116,116,116,,,,,,,,,,,,,260.77994730000137,0.029947300001367694,None,291.8250421999983,291.8250421999983,291.8250421999983,291.8250421999983,291.8250421999983,291.8250421999983,291.8250421999983,291.8250421999983,291.8250421999983,291.8250421999983,,008,P009,2025_Feb_01_1414,ConditionRich,2021.2.3,59.94485073784205,
264.0,264.75,16,0.75,Stimuli/P009/sun_bqpyqljaflidcauh.jpg,0,0.0,0.0,0,117,117,117,,,,,,,,,,,,,264.00043630000073,0.0004363000007288065,None,295.06123859999934,295.06123859999934,295.06123859999934,295.06123859999934,295.06123859999934,295.06123859999934,295.06123859999934,295.06123859999934,295.06123859999934,295.06123859999934,,008,P009,2025_Feb_01_1414,ConditionRich,2021.2.3,59.94485073784205,
264.75,268.0,41,0.0,Stimuli/Blank.png,0,0.0,0.0,0,118,118,118,,,,,,,,,,,,,264.7661146999999,0.016114699999889126,None,295.8119614999996,295.8119614999996,295.8119614999996,295.8119614999996,295.8119614999996,295.8119614999996,295.8119614999996,295.8119614999996,295.8119614999996,295.8119614999996,,008,P009,2025_Feb_01_1414,ConditionRich,2021.2.3,59.94485073784205,
268.0,268.75,4,0.75,Stimuli/P009/sun_afkzdukwewwzqtmr.jpg,0,0.0,0.0,0,119,119,119,,,,,,,,,,,,,268.00338719999854,0.0033871999985422008,None,299.0648016999985,299.0648016999985,299.0648016999985,299.0648016999985,299.0648016999985,299.0648016999985,299.0648016999985,299.0648016999985,299.0648016999985,299.0648016999985,,008,P009,2025_Feb_01_1414,ConditionRich,2021.2.3,59.94485073784205,
268.75,272.0,41,0.0,Stimuli/Blank.png,0,0.0,0.0,0,120,120,120,,,,,,,,,,,,,268.77038769999854,0.020387699998536846,None,299.81544679999934,299.81544679999934,299.81544679999934,299.81544679999934,299.81544679999934,299.81544679999934,299.81544679999934,299.81544679999934,299.81544679999934,299.81544679999934,,008,P009,2025_Feb_01_1414,ConditionRich,2021.2.3,59.94485073784205,
272.0,272.75,10,0.75,Stimuli/P009/sun_bdkttewvyfdarikm.jpg,0,0.0,0.0,0,121,121,121,,,,,,,,,,,,,272.00949200000105,0.009492000001046108,None,303.0684040999986,303.0684040999986,303.0684040999986,303.0684040999986,303.0684040999986,303.0684040999986,303.0684040999986,303.0684040999986,303.0684040999986,303.0684040999986,,008,P009,2025_Feb_01_1414,ConditionRich,2021.2.3,59.94485073784205,
272.75,276.0,41,0.0,Stimuli/Blank.png,0,0.0,0.0,0,122,122,122,,,,,,,,,,,,,272.77383700000064,0.02383700000063982,None,303.81899519999934,303.81899519999934,303.81899519999934,303.81899519999934,303.81899519999934,303.81899519999934,303.81899519999934,303.81899519999934,303.81899519999934,303.81899519999934,,008,P009,2025_Feb_01_1414,ConditionRich,2021.2.3,59.94485073784205,
276.0,292.0,0,0.0,Stimuli/Blank.png,1,1.0,1.75,0,123,123,123,,,,,,,,,,,,,276.0100965999991,0.01009659999908763,1,307.055171699998,307.055171699998,307.055171699998,307.055171699998,307.055171699998,307.055171699998,308.03938039999775,308.79009489999953,307.055171699998,307.055171699998,1.5180919999984326,008,P009,2025_Feb_01_1414,ConditionRich,2021.2.3,59.94485073784205,
292.0,292.75,19,0.75,Stimuli/P009/sun_bwvfnogmotsvhofs.jpg,0,0.0,0.0,0,124,124,124,,,,,,,,,,,,,292.0097525000019,0.009752500001923181,None,323.06936089999726,323.06936089999726,323.06936089999726,323.06936089999726,323.06936089999726,323.06936089999726,323.06936089999726,323.06936089999726,323.06936089999726,323.06936089999726,,008,P009,2025_Feb_01_1414,ConditionRich,2021.2.3,59.94485073784205,
292.75,296.0,41,0.0,Stimuli/Blank.png,1,2.25,3.0,0,125,125,125,,,,,,,,,,,,,292.77434429999994,0.024344299999938812,1,323.82000849999895,323.82000849999895,323.82000849999895,323.82000849999895,323.82000849999895,323.82000849999895,326.05532449999737,326.8060332999994,323.82000849999895,323.82000849999895,2.563279899997724,008,P009,2025_Feb_01_1414,ConditionRich,2021.2.3,59.94485073784205,
296.0,296.75,30,0.75,Stimuli/P009/things_fire_05s.jpg,0,0.0,0.0,0,126,126,126,,,,,,,,,,,,,296.0111285999992,0.011128599999210564,None,327.0729059000005,327.0729059000005,327.0729059000005,327.0729059000005,327.0729059000005,327.0729059000005,327.0729059000005,327.0729059000005,327.0729059000005,327.0729059000005,,008,P009,2025_Feb_01_1414,ConditionRich,2021.2.3,59.94485073784205,
296.75,300.0,41,0.0,Stimuli/Blank.png,1,2.25,3.0,0,127,127,127,,,,,,,,,,,,,296.7793405000011,0.029340500001126202,1,327.82355579999785,327.82355579999785,327.82355579999785,327.82355579999785,327.82355579999785,327.82355579999785,330.0588585000005,330.8095317999978,327.82355579999785,327.82355579999785,2.5877736000002187,008,P009,2025_Feb_01_1414,ConditionRich,2021.2.3,59.94485073784205,
300.0,300.75,14,0.75,Stimuli/P009/sun_blaqxdebghixzyyw.jpg,0,0.0,0.0,0,128,128,128,,,,,,,,,,,,,300.01407349999863,0.014073499998630723,None,331.0597311999991,331.0597311999991,331.0597311999991,331.0597311999991,331.0597311999991,331.0597311999991,331.0597311999991,331.0597311999991,331.0597311999991,331.0597311999991,,008,P009,2025_Feb_01_1414,ConditionRich,2021.2.3,59.94485073784205,
300.75,304.0,41,0.0,Stimuli/Blank.png,0,0.0,0.0,0,129,129,129,,,,,,,,,,,,,300.76472959999955,0.014729599999554921,None,331.81041429999823,331.81041429999823,331.81041429999823,331.81041429999823,331.81041429999823,331.81041429999823,331.81041429999823,331.81041429999823,331.81041429999823,331.81041429999823,,008,P009,2025_Feb_01_1414,ConditionRich,2021.2.3,59.94485073784205,
304.0,304.75,17,0.75,Stimuli/P009/sun_brkrfjpyfglmigkk.jpg,0,0.0,0.0,0,130,130,130,,,,,,,,,,,,,304.0051028000016,0.005102800001623109,None,335.0633061999979,335.0633061999979,335.0633061999979,335.0633061999979,335.0633061999979,335.0633061999979,335.0633061999979,335.0633061999979,335.0633061999979,335.0633061999979,,008,P009,2025_Feb_01_1414,ConditionRich,2021.2.3,59.94485073784205,
304.75,308.0,41,0.0,Stimuli/Blank.png,0,0.0,0.0,0,131,131,131,,,,,,,,,,,,,304.7694807000007,0.019480700000713114,None,335.81395859999975,335.81395859999975,335.81395859999975,335.81395859999975,335.81395859999975,335.81395859999975,335.81395859999975,335.81395859999975,335.81395859999975,335.81395859999975,,008,P009,2025_Feb_01_1414,ConditionRich,2021.2.3,59.94485073784205,
308.0,308.75,33,0.75,Stimuli/P009/things_lizard_05n.jpg,0,0.0,0.0,0,132,132,132,,,,,,,,,,,,,308.00468700000056,0.004687000000558328,None,339.05014599999777,339.05014599999777,339.05014599999777,339.05014599999777,339.05014599999777,339.05014599999777,339.05014599999777,339.05014599999777,339.05014599999777,339.05014599999777,,008,P009,2025_Feb_01_1414,ConditionRich,2021.2.3,59.94485073784205,
308.75,312.0,41,0.0,Stimuli/Blank.png,0,0.0,0.0,0,133,133,133,,,,,,,,,,,,,308.75515820000146,0.0051582000014605,None,339.80080850000013,339.80080850000013,339.80080850000013,339.80080850000013,339.80080850000013,339.80080850000013,339.80080850000013,339.80080850000013,339.80080850000013,339.80080850000013,,008,P009,2025_Feb_01_1414,ConditionRich,2021.2.3,59.94485073784205,
312.0,312.75,26,0.75,Stimuli/P009/things_cookie_sheet_05s.jpg,0,0.0,0.0,0,134,134,134,,,,,,,,,,,,,312.0095813000007,0.009581300000718329,None,343.07041639999807,343.07041639999807,343.07041639999807,343.07041639999807,343.07041639999807,343.07041639999807,343.07041639999807,343.07041639999807,343.07041639999807,343.07041639999807,,008,P009,2025_Feb_01_1414,ConditionRich,2021.2.3,59.94485073784205,
312.75,316.0,41,0.0,Stimuli/Blank.png,1,2.25,3.0,0,135,135,135,,,,,,,,,,,,,312.7753389999998,0.02533899999980349,None,343.8211018000002,343.8211018000002,343.8211018000002,343.8211018000002,343.8211018000002,343.8211018000002,346.0574462000004,346.8070181999974,343.8211018000002,343.8211018000002,,008,P009,2025_Feb_01_1414,ConditionRich,2021.2.3,59.94485073784205,
316.0,316.75,31,0.75,Stimuli/P009/things_girl_05s.jpg,0,0.0,0.0,0,136,136,136,,,,,,,,,,,,,316.0137977000013,0.013797700001305202,1,347.07388549999814,347.07388549999814,347.07388549999814,347.07388549999814,347.07388549999814,347.07388549999814,347.07388549999814,347.07388549999814,347.07388549999814,347.07388549999814,0.03444680000029621,008,P009,2025_Feb_01_1414,ConditionRich,2021.2.3,59.94485073784205,
316.75,320.0,41,0.0,Stimuli/Blank.png,0,0.0,0.0,0,137,137,137,,,,,,,,,,,,,316.77950509999937,0.029505099999369122,None,347.82458229999975,347.82458229999975,347.82458229999975,347.82458229999975,347.82458229999975,347.82458229999975,347.82458229999975,347.82458229999975,347.82458229999975,347.82458229999975,,008,P009,2025_Feb_01_1414,ConditionRich,2021.2.3,59.94485073784205,
320.0,320.75,7,0.75,Stimuli/P009/sun_apiogxmvvzfmtsmj.jpg,1,0.0,0.75,0,138,138,138,,,,,,,,,,,,,319.9998497000015,-0.00015029999849502929,1,351.0607949000005,351.0607949000005,351.0607949000005,351.0607949000005,351.0607949000005,351.0607949000005,351.0607949000005,351.77807929999835,351.0607949000005,351.0607949000005,0.6528518000013719,008,P009,2025_Feb_01_1414,ConditionRich,2021.2.3,59.94485073784205,
320.75,324.0,41,0.0,Stimuli/Blank.png,0,0.0,0.0,0,139,139,139,,,,,,,,,,,,,320.76660940000147,0.01660940000147093,None,351.8114397999998,351.8114397999998,351.8114397999998,351.8114397999998,351.8114397999998,351.8114397999998,351.8114397999998,351.8114397999998,351.8114397999998,351.8114397999998,,008,P009,2025_Feb_01_1414,ConditionRich,2021.2.3,59.94485073784205,
324.0,324.75,8,0.75,Stimuli/P009/sun_batcnoizlkeiqdtx.jpg,0,0.0,0.0,0,140,140,140,,,,,,,,,,,,,324.0023145000014,0.0023145000013755634,None,355.0643139999993,355.0643139999993,355.0643139999993,355.0643139999993,355.0643139999993,355.0643139999993,355.0643139999993,355.0643139999993,355.0643139999993,355.0643139999993,,008,P009,2025_Feb_01_1414,ConditionRich,2021.2.3,59.94485073784205,
324.75,328.0,41,0.0,Stimuli/Blank.png,0,0.0,0.0,0,141,141,141,,,,,,,,,,,,,324.7698248000015,0.01982480000151554,None,355.81499189999886,355.81499189999886,355.81499189999886,355.81499189999886,355.81499189999886,355.81499189999886,355.81499189999886,355.81499189999886,355.81499189999886,355.81499189999886,,008,P009,2025_Feb_01_1414,ConditionRich,2021.2.3,59.94485073784205,
328.0,328.75,13,0.75,Stimuli/P009/sun_bjimvgwadfodioes.jpg,0,0.0,0.0,0,142,142,142,,,,,,,,,,,,,328.0061023999988,0.0061023999987810384,None,359.0678232999999,359.0678232999999,359.0678232999999,359.0678232999999,359.0678232999999,359.0678232999999,359.0678232999999,359.0678232999999,359.0678232999999,359.0678232999999,,008,P009,2025_Feb_01_1414,ConditionRich,2021.2.3,59.94485073784205,
328.75,332.0,41,0.0,Stimuli/Blank.png,0,0.0,0.0,0,143,143,143,,,,,,,,,,,,,328.7749408999989,0.024940899998910027,None,359.8352090999979,359.8352090999979,359.8352090999979,359.8352090999979,359.8352090999979,359.8352090999979,359.8352090999979,359.8352090999979,359.8352090999979,359.8352090999979,,008,P009,2025_Feb_01_1414,ConditionRich,2021.2.3,59.94485073784205,
332.0,332.75,5,0.75,Stimuli/P009/sun_akqvdmuauoxeafrj.jpg,0,0.0,0.0,0,144,144,144,,,,,,,,,,,,,332.02620789999855,0.02620789999855333,None,363.07140660000005,363.07140660000005,363.07140660000005,363.07140660000005,363.07140660000005,363.07140660000005,363.07140660000005,363.07140660000005,363.07140660000005,363.07140660000005,,008,P009,2025_Feb_01_1414,ConditionRich,2021.2.3,59.94485073784205,
332.75,336.0,41,0.0,Stimuli/Blank.png,0,0.0,0.0,0,145,145,145,,,,,,,,,,,,,332.76019520000045,0.010195200000453042,None,363.8053747999984,363.8053747999984,363.8053747999984,363.8053747999984,363.8053747999984,363.8053747999984,363.8053747999984,363.8053747999984,363.8053747999984,363.8053747999984,,008,P009,2025_Feb_01_1414,ConditionRich,2021.2.3,59.94485073784205,
336.0,336.75,27,0.75,Stimuli/P009/things_curling_iron_05s.jpg,0,0.0,0.0,0,146,146,146,,,,,,,,,,,,,336.01507950000087,0.015079500000865664,None,367.07559019999826,367.07559019999826,367.07559019999826,367.07559019999826,367.07559019999826,367.07559019999826,367.07559019999826,367.07559019999826,367.07559019999826,367.07559019999826,,008,P009,2025_Feb_01_1414,ConditionRich,2021.2.3,59.94485073784205,
336.75,340.0,41,0.0,Stimuli/Blank.png,0,0.0,0.0,0,147,147,147,,,,,,,,,,,,,336.78054410000186,0.030544100001861807,None,367.82561409999835,367.82561409999835,367.82561409999835,367.82561409999835,367.82561409999835,367.82561409999835,367.82561409999835,367.82561409999835,367.82561409999835,367.82561409999835,,008,P009,2025_Feb_01_1414,ConditionRich,2021.2.3,59.94485073784205,
340.0,340.75,22,0.75,Stimuli/P009/things_butterfly_05s.jpg,0,0.0,0.0,0,148,148,148,,,,,,,,,,,,,340.00045820000014,0.00045820000013918616,None,371.0451164999977,371.0451164999977,371.0451164999977,371.0451164999977,371.0451164999977,371.0451164999977,371.0451164999977,371.0451164999977,371.0451164999977,371.0451164999977,,008,P009,2025_Feb_01_1414,ConditionRich,2021.2.3,59.94485073784205,
340.75,344.0,41,0.0,Stimuli/Blank.png,0,0.0,0.0,0,149,149,149,,,,,,,,,,,,,340.75062360000084,0.0006236000008357223,None,371.7957752000002,371.7957752000002,371.7957752000002,371.7957752000002,371.7957752000002,371.7957752000002,371.7957752000002,371.7957752000002,371.7957752000002,371.7957752000002,,008,P009,2025_Feb_01_1414,ConditionRich,2021.2.3,59.94485073784205,
344.0,344.75,15,0.75,Stimuli/P009/sun_boryivbddrnarrbo.jpg,0,0.0,0.0,0,150,150,150,,,,,,,,,,,,,344.0052187000001,0.0052187000001140404,None,375.0653413,375.0653413,375.0653413,375.0653413,375.0653413,375.0653413,375.0653413,375.0653413,375.0653413,375.0653413,,008,P009,2025_Feb_01_1414,ConditionRich,2021.2.3,59.94485073784205,
344.75,348.0,41,0.0,Stimuli/Blank.png,0,0.0,0.0,0,151,151,151,,,,,,,,,,,,,344.7704459999986,0.020445999998628395,None,375.81600830000025,375.81600830000025,375.81600830000025,375.81600830000025,375.81600830000025,375.81600830000025,375.81600830000025,375.81600830000025,375.81600830000025,375.81600830000025,,008,P009,2025_Feb_01_1414,ConditionRich,2021.2.3,59.94485073784205,
348.0,348.75,2,0.75,Stimuli/P009/sun_acvloibbxiqpiwnv.jpg,0,0.0,0.0,0,152,152,152,,,,,,,,,,,,,348.007543300002,0.007543300001998432,None,379.0688768999971,379.0688768999971,379.0688768999971,379.0688768999971,379.0688768999971,379.0688768999971,379.0688768999971,379.0688768999971,379.0688768999971,379.0688768999971,,008,P009,2025_Feb_01_1414,ConditionRich,2021.2.3,59.94485073784205,
348.75,352.0,41,0.0,Stimuli/Blank.png,1,0.25,1.0,0,153,153,153,,,,,,,,,,,,,348.7747191000017,0.024719100001675542,1,379.81954349999796,379.81954349999796,379.81954349999796,379.81954349999796,379.81954349999796,379.81954349999796,380.0531392999983,380.80374479999955,379.81954349999796,379.81954349999796,0.6398460999989766,008,P009,2025_Feb_01_1414,ConditionRich,2021.2.3,59.94485073784205,
352.0,352.75,29,0.75,Stimuli/P009/things_fingerprint_05s.jpg,0,0.0,0.0,0,154,154,154,,,,,,,,,,,,,352.0105838999989,0.010583899998891866,None,383.0557287999982,383.0557287999982,383.0557287999982,383.0557287999982,383.0557287999982,383.0557287999982,383.0557287999982,383.0557287999982,383.0557287999982,383.0557287999982,,008,P009,2025_Feb_01_1414,ConditionRich,2021.2.3,59.94485073784205,
352.75,356.0,41,0.0,Stimuli/Blank.png,0,0.0,0.0,0,155,155,155,,,,,,,,,,,,,352.760626700001,0.010626700001012068,None,383.8063889999976,383.8063889999976,383.8063889999976,383.8063889999976,383.8063889999976,383.8063889999976,383.8063889999976,383.8063889999976,383.8063889999976,383.8063889999976,,008,P009,2025_Feb_01_1414,ConditionRich,2021.2.3,59.94485073784205,
356.0,356.75,20,0.75,Stimuli/P009/sun_ddsiwinthvyejghq.jpg,0,0.0,0.0,0,156,156,156,,,,,,,,,,,,,356.0145937999987,0.014593799998692703,None,387.0759642999983,387.0759642999983,387.0759642999983,387.0759642999983,387.0759642999983,387.0759642999983,387.0759642999983,387.0759642999983,387.0759642999983,387.0759642999983,,008,P009,2025_Feb_01_1414,ConditionRich,2021.2.3,59.94485073784205,
356.75,360.0,41,0.0,Stimuli/Blank.png,0,0.0,0.0,0,157,157,157,,,,,,,,,,,,,356.7807791999985,0.030779199998505646,None,387.8266227999993,387.8266227999993,387.8266227999993,387.8266227999993,387.8266227999993,387.8266227999993,387.8266227999993,387.8266227999993,387.8266227999993,387.8266227999993,,008,P009,2025_Feb_01_1414,ConditionRich,2021.2.3,59.94485073784205,
360.0,360.75,9,0.75,Stimuli/P009/sun_bdjkvwqqqycuixtc.jpg,0,0.0,0.0,0,158,158,158,,,,,,,,,,,,,360.0005103000003,0.0005103000003146008,None,391.04613400000017,391.04613400000017,391.04613400000017,391.04613400000017,391.04613400000017,391.04613400000017,391.04613400000017,391.04613400000017,391.04613400000017,391.04613400000017,,008,P009,2025_Feb_01_1414,ConditionRich,2021.2.3,59.94485073784205,
360.75,364.0,41,0.0,Stimuli/Blank.png,0,0.0,0.0,0,159,159,159,,,,,,,,,,,,,360.7511290000002,0.0011290000002190936,None,391.7967977999979,391.7967977999979,391.7967977999979,391.7967977999979,391.7967977999979,391.7967977999979,391.7967977999979,391.7967977999979,391.7967977999979,391.7967977999979,,008,P009,2025_Feb_01_1414,ConditionRich,2021.2.3,59.94485073784205,
364.0,364.75,23,0.75,Stimuli/P009/things_charger_05s.jpg,0,0.0,0.0,0,160,160,160,,,,,,,,,,,,,364.0044947999995,0.004494799999520183,None,395.0496749999984,395.0496749999984,395.0496749999984,395.0496749999984,395.0496749999984,395.0496749999984,395.0496749999984,395.0496749999984,395.0496749999984,395.0496749999984,,008,P009,2025_Feb_01_1414,ConditionRich,2021.2.3,59.94485073784205,
364.75,368.0,41,0.0,Stimuli/Blank.png,0,0.0,0.0,0,161,161,161,,,,,,,,,,,,,364.7546813000008,0.004681300000811461,None,395.8003413000006,395.8003413000006,395.8003413000006,395.8003413000006,395.8003413000006,395.8003413000006,395.8003413000006,395.8003413000006,395.8003413000006,395.8003413000006,,008,P009,2025_Feb_01_1414,ConditionRich,2021.2.3,59.94485073784205,
368.0,368.75,37,0.75,Stimuli/P009/things_pug_05s.jpg,0,0.0,0.0,0,162,162,162,,,,,,,,,,,,,368.0100946999992,0.010094699999172008,None,399.0699027999981,399.0699027999981,399.0699027999981,399.0699027999981,399.0699027999981,399.0699027999981,399.0699027999981,399.0699027999981,399.0699027999981,399.0699027999981,,008,P009,2025_Feb_01_1414,ConditionRich,2021.2.3,59.94485073784205,
368.75,372.0,41,0.0,Stimuli/Blank.png,0,0.0,0.0,0,163,163,163,,,,,,,,,,,,,368.77568339999925,0.025683399999252288,None,399.82056779999766,399.82056779999766,399.82056779999766,399.82056779999766,399.82056779999766,399.82056779999766,399.82056779999766,399.82056779999766,399.82056779999766,399.82056779999766,,008,P009,2025_Feb_01_1414,ConditionRich,2021.2.3,59.94485073784205,
372.0,388.0,0,0.0,Stimuli/Blank.png,1,7.0,7.75,0,164,164,164,,,,,,,,,,,,,372.01191440000184,0.011914400001842296,1,403.057858199998,403.057858199998,403.057858199998,403.057858199998,403.057858199998,403.057858199998,410.0463165999972,410.7980693999998,403.057858199998,403.057858199998,7.48164099999849,008,P009,2025_Feb_01_1414,ConditionRich,2021.2.3,59.94485073784205,
