eventStartTime,eventEndTime,eventCond,imSize,imFile,responseEvent,fixRespStart,fixRespEnd,Events.thisRepN,Events.thisTrialN,Events.thisN,Events.thisIndex,Instructions.started,Instructions.stopped,participantReadyResponse.keys,participantReadyResponse.rt,participantReadyResponse.started,participantReadyResponse.stopped,startWaitforTrigger,triggerResponse.keys,triggerResponse.rt,triggerResponse.started,triggerResponse.stopped,globalTimer,actualStartTime,startTimingDiff,participantResponse.keys,participantResponse.started,participantResponse.stopped,image.started,image.stopped,fixationOutside.started,fixationOutside.stopped,fixationResponse.started,fixationResponse.stopped,fixationInside.started,fixationInside.stopped,participantResponse.rt,session,participant,date,expName,psychopyVersion,frameRate,
,,,,,,,,,,,,12.047443799998291,None,1,4.138862600000721,12.047443799998291,None,,,,,,,,,,,,,,,,,,,,,005,P009,2025_Feb_01_1346,ConditionRich,2021.2.3,59.91683543260227,
,,,,,,,,,,,,,,,,,,16.201010199998564,5,13.864096299999801,16.2147369000013,None,,,,,,,,,,,,,,,,005,P009,2025_Feb_01_1346,ConditionRich,2021.2.3,59.91683543260227,
0.0,4.0,0,0.0,Stimuli/Blank.png,0,0.0,0.0,0,0,0,0,,,,,,,,,,,,30.09631939999963,0.017055200001777848,0.017055200001777848,None,30.142714599998726,None,30.142714599998726,None,30.142714599998726,None,30.142714599998726,30.142714599998726,30.142714599998726,None,,005,P009,2025_Feb_01_1346,ConditionRich,2021.2.3,59.91683543260227,
4.0,4.75,20,0.75,Stimuli/P009/sun_ddsiwinthvyejghq.jpg,0,0.0,0.0,0,1,1,1,,,,,,,,,,,,,4.0201363999985915,0.020136399998591514,None,34.12982439999905,34.12982439999905,34.12982439999905,34.12982439999905,34.12982439999905,34.12982439999905,34.12982439999905,34.12982439999905,34.12982439999905,34.12982439999905,,005,P009,2025_Feb_01_1346,ConditionRich,2021.2.3,59.91683543260227,
4.75,8.0,41,0.0,Stimuli/Blank.png,0,0.0,0.0,0,2,2,2,,,,,,,,,,,,,4.754591199998686,0.0045911999986856245,None,34.88050519999888,34.88050519999888,34.88050519999888,34.88050519999888,34.88050519999888,34.88050519999888,34.88050519999888,34.88050519999888,34.88050519999888,34.88050519999888,,005,P009,2025_Feb_01_1346,ConditionRich,2021.2.3,59.91683543260227,
8.0,8.75,28,0.75,Stimuli/P009/things_face_05s.jpg,0,0.0,0.0,0,3,3,3,,,,,,,,,,,,,8.023469899999327,0.023469899999327026,None,38.14976910000041,38.14976910000041,38.14976910000041,38.14976910000041,38.14976910000041,38.14976910000041,38.14976910000041,38.14976910000041,38.14976910000041,38.14976910000041,,005,P009,2025_Feb_01_1346,ConditionRich,2021.2.3,59.91683543260227,
8.75,12.0,41,0.0,Stimuli/Blank.png,0,0.0,0.0,0,4,4,4,,,,,,,,,,,,,8.773501899999246,0.023501899999246234,None,38.88377079999918,38.88377079999918,38.88377079999918,38.88377079999918,38.88377079999918,38.88377079999918,38.88377079999918,38.88377079999918,38.88377079999918,38.88377079999918,,005,P009,2025_Feb_01_1346,ConditionRich,2021.2.3,59.91683543260227,
12.0,12.75,12,0.75,Stimuli/P009/sun_birmwgkdtrlevcaf.jpg,0,0.0,0.0,0,5,5,5,,,,,,,,,,,,,12.009598100001313,0.00959810000131256,None,42.11993589999838,42.11993589999838,42.11993589999838,42.11993589999838,42.11993589999838,42.11993589999838,42.11993589999838,42.11993589999838,42.11993589999838,42.11993589999838,,005,P009,2025_Feb_01_1346,ConditionRich,2021.2.3,59.91683543260227,
12.75,16.0,41,0.0,Stimuli/Blank.png,0,0.0,0.0,0,6,6,6,,,,,,,,,,,,,12.759900100001687,0.009900100001686951,None,42.87060969999948,42.87060969999948,42.87060969999948,42.87060969999948,42.87060969999948,42.87060969999948,42.87060969999948,42.87060969999948,42.87060969999948,42.87060969999948,,005,P009,2025_Feb_01_1346,ConditionRich,2021.2.3,59.91683543260227,
16.0,16.75,17,0.75,Stimuli/P009/sun_brkrfjpyfglmigkk.jpg,0,0.0,0.0,0,7,7,7,,,,,,,,,,,,,16.014684199999465,0.014684199999464909,None,46.14017049999893,46.14017049999893,46.14017049999893,46.14017049999893,46.14017049999893,46.14017049999893,46.14017049999893,46.14017049999893,46.14017049999893,46.14017049999893,,005,P009,2025_Feb_01_1346,ConditionRich,2021.2.3,59.91683543260227,
16.75,20.0,41,0.0,Stimuli/Blank.png,0,0.0,0.0,0,8,8,8,,,,,,,,,,,,,16.780395800000406,0.03039580000040587,None,46.890800000001036,46.890800000001036,46.890800000001036,46.890800000001036,46.890800000001036,46.890800000001036,46.890800000001036,46.890800000001036,46.890800000001036,46.890800000001036,,005,P009,2025_Feb_01_1346,ConditionRich,2021.2.3,59.91683543260227,
20.0,20.75,31,0.75,Stimuli/P009/things_girl_05s.jpg,0,0.0,0.0,0,9,9,9,,,,,,,,,,,,,19.999386700001196,-0.0006132999988039955,None,50.1103406000002,50.1103406000002,50.1103406000002,50.1103406000002,50.1103406000002,50.1103406000002,50.1103406000002,50.1103406000002,50.1103406000002,50.1103406000002,,005,P009,2025_Feb_01_1346,ConditionRich,2021.2.3,59.91683543260227,
20.75,24.0,41,0.0,Stimuli/Blank.png,1,2.25,3.0,0,10,10,10,,,,,,,,,,,,,20.750073399998655,7.339999865507707e-05,1,50.861009500000364,50.861009500000364,50.861009500000364,50.861009500000364,50.861009500000364,50.861009500000364,53.09636849999879,53.846987299999455,50.861009500000364,50.861009500000364,2.6440380999993067,005,P009,2025_Feb_01_1346,ConditionRich,2021.2.3,59.91683543260227,
24.0,24.75,35,0.75,Stimuli/P009/things_mushroom_05n.jpg,0,0.0,0.0,0,11,11,11,,,,,,,,,,,,,24.003421000001254,0.00342100000125356,None,54.11388369999986,54.11388369999986,54.11388369999986,54.11388369999986,54.11388369999986,54.11388369999986,54.11388369999986,54.11388369999986,54.11388369999986,54.11388369999986,,005,P009,2025_Feb_01_1346,ConditionRich,2021.2.3,59.91683543260227,
24.75,28.0,41,0.0,Stimuli/Blank.png,0,0.0,0.0,0,12,12,12,,,,,,,,,,,,,24.753611200001615,0.003611200001614634,None,54.864555799998925,54.864555799998925,54.864555799998925,54.864555799998925,54.864555799998925,54.864555799998925,54.864555799998925,54.864555799998925,54.864555799998925,54.864555799998925,,005,P009,2025_Feb_01_1346,ConditionRich,2021.2.3,59.91683543260227,
28.0,28.75,11,0.75,Stimuli/P009/sun_bfyvfqiimvdaxlqn.jpg,0,0.0,0.0,0,13,13,13,,,,,,,,,,,,,28.007824500000424,0.00782450000042445,None,58.134110099999816,58.134110099999816,58.134110099999816,58.134110099999816,58.134110099999816,58.134110099999816,58.134110099999816,58.134110099999816,58.134110099999816,58.134110099999816,,005,P009,2025_Feb_01_1346,ConditionRich,2021.2.3,59.91683543260227,
28.75,32.0,41,0.0,Stimuli/Blank.png,0,0.0,0.0,0,14,14,14,,,,,,,,,,,,,28.774587200001406,0.024587200001406018,None,58.88480100000015,58.88480100000015,58.88480100000015,58.88480100000015,58.88480100000015,58.88480100000015,58.88480100000015,58.88480100000015,58.88480100000015,58.88480100000015,,005,P009,2025_Feb_01_1346,ConditionRich,2021.2.3,59.91683543260227,
32.0,32.75,13,0.75,Stimuli/P009/sun_bjimvgwadfodioes.jpg,0,0.0,0.0,0,15,15,15,,,,,,,,,,,,,32.01059449999957,0.010594499999569962,None,62.13820040000064,62.13820040000064,62.13820040000064,62.13820040000064,62.13820040000064,62.13820040000064,62.13820040000064,62.13820040000064,62.13820040000064,62.13820040000064,,005,P009,2025_Feb_01_1346,ConditionRich,2021.2.3,59.91683543260227,
32.75,36.0,41,0.0,Stimuli/Blank.png,0,0.0,0.0,0,16,16,16,,,,,,,,,,,,,32.78031199999896,0.030311999998957617,None,62.90499980000095,62.90499980000095,62.90499980000095,62.90499980000095,62.90499980000095,62.90499980000095,62.90499980000095,62.90499980000095,62.90499980000095,62.90499980000095,,005,P009,2025_Feb_01_1346,ConditionRich,2021.2.3,59.91683543260227,
36.0,36.75,32,0.75,Stimuli/P009/things_hawk_05s.jpg,0,0.0,0.0,0,17,17,17,,,,,,,,,,,,,36.014286400000856,0.014286400000855792,None,66.12450969999918,66.12450969999918,66.12450969999918,66.12450969999918,66.12450969999918,66.12450969999918,66.12450969999918,66.12450969999918,66.12450969999918,66.12450969999918,,005,P009,2025_Feb_01_1346,ConditionRich,2021.2.3,59.91683543260227,
36.75,40.0,41,0.0,Stimuli/Blank.png,1,2.25,3.0,0,18,18,18,,,,,,,,,,,,,36.76434689999951,0.014346899999509333,1,66.87518339999951,66.87518339999951,66.87518339999951,66.87518339999951,66.87518339999951,66.87518339999951,69.11053619999802,69.86120289999963,66.87518339999951,66.87518339999951,2.8047197999985656,005,P009,2025_Feb_01_1346,ConditionRich,2021.2.3,59.91683543260227,
40.0,40.75,6,0.75,Stimuli/P009/sun_amkrwcyvinmsylsz.jpg,0,0.0,0.0,0,19,19,19,,,,,,,,,,,,,40.00139299999864,0.001392999998643063,None,70.12806559999808,70.12806559999808,70.12806559999808,70.12806559999808,70.12806559999808,70.12806559999808,70.12806559999808,70.12806559999808,70.12806559999808,70.12806559999808,,005,P009,2025_Feb_01_1346,ConditionRich,2021.2.3,59.91683543260227,
40.75,44.0,41,0.0,Stimuli/Blank.png,0,0.0,0.0,0,20,20,20,,,,,,,,,,,,,40.769571000000724,0.01957100000072387,None,70.87874589999774,70.87874589999774,70.87874589999774,70.87874589999774,70.87874589999774,70.87874589999774,70.87874589999774,70.87874589999774,70.87874589999774,70.87874589999774,,005,P009,2025_Feb_01_1346,ConditionRich,2021.2.3,59.91683543260227,
44.0,44.75,34,0.75,Stimuli/P009/things_man_05s.jpg,0,0.0,0.0,0,21,21,21,,,,,,,,,,,,,44.00393379999878,0.0039337999987765215,None,74.11491250000108,74.11491250000108,74.11491250000108,74.11491250000108,74.11491250000108,74.11491250000108,74.11491250000108,74.11491250000108,74.11491250000108,74.11491250000108,,005,P009,2025_Feb_01_1346,ConditionRich,2021.2.3,59.91683543260227,
44.75,48.0,41,0.0,Stimuli/Blank.png,1,1.25,2.0,0,22,22,22,,,,,,,,,,,,,44.75560029999906,0.005600299999059644,1,74.86557249999896,74.86557249999896,74.86557249999896,74.86557249999896,74.86557249999896,74.86557249999896,76.10000099999888,76.85072389999914,74.86557249999896,74.86557249999896,1.628755400000955,005,P009,2025_Feb_01_1346,ConditionRich,2021.2.3,59.91683543260227,
48.0,48.75,38,0.75,Stimuli/P009/things_roadsweeper_05s.jpg,0,0.0,0.0,0,23,23,23,,,,,,,,,,,,,48.008412499999395,0.00841249999939464,None,78.11954709999918,78.11954709999918,78.11954709999918,78.11954709999918,78.11954709999918,78.11954709999918,78.11954709999918,78.11954709999918,78.11954709999918,78.11954709999918,,005,P009,2025_Feb_01_1346,ConditionRich,2021.2.3,59.91683543260227,
48.75,52.0,41,0.0,Stimuli/Blank.png,0,0.0,0.0,0,24,24,24,,,,,,,,,,,,,48.758280500002,0.008280500002001645,None,78.86911690000125,78.86911690000125,78.86911690000125,78.86911690000125,78.86911690000125,78.86911690000125,78.86911690000125,78.86911690000125,78.86911690000125,78.86911690000125,,005,P009,2025_Feb_01_1346,ConditionRich,2021.2.3,59.91683543260227,
52.0,52.75,9,0.75,Stimuli/P009/sun_bdjkvwqqqycuixtc.jpg,0,0.0,0.0,0,25,25,25,,,,,,,,,,,,,52.01193509999939,0.011935099999391241,None,82.13869580000028,82.13869580000028,82.13869580000028,82.13869580000028,82.13869580000028,82.13869580000028,82.13869580000028,82.13869580000028,82.13869580000028,82.13869580000028,,005,P009,2025_Feb_01_1346,ConditionRich,2021.2.3,59.91683543260227,
52.75,56.0,41,0.0,Stimuli/Blank.png,0,0.0,0.0,0,26,26,26,,,,,,,,,,,,,52.778516400001536,0.028516400001535658,None,82.88934829999926,82.88934829999926,82.88934829999926,82.88934829999926,82.88934829999926,82.88934829999926,82.88934829999926,82.88934829999926,82.88934829999926,82.88934829999926,,005,P009,2025_Feb_01_1346,ConditionRich,2021.2.3,59.91683543260227,
56.0,56.75,10,0.75,Stimuli/P009/sun_bdkttewvyfdarikm.jpg,0,0.0,0.0,0,27,27,27,,,,,,,,,,,,,56.01486680000016,0.014866800000163494,None,86.12553939999998,86.12553939999998,86.12553939999998,86.12553939999998,86.12553939999998,86.12553939999998,86.12553939999998,86.12553939999998,86.12553939999998,86.12553939999998,,005,P009,2025_Feb_01_1346,ConditionRich,2021.2.3,59.91683543260227,
56.75,60.0,41,0.0,Stimuli/Blank.png,0,0.0,0.0,0,28,28,28,,,,,,,,,,,,,56.765490699999646,0.015490699999645585,None,86.87619469999845,86.87619469999845,86.87619469999845,86.87619469999845,86.87619469999845,86.87619469999845,86.87619469999845,86.87619469999845,86.87619469999845,86.87619469999845,,005,P009,2025_Feb_01_1346,ConditionRich,2021.2.3,59.91683543260227,
60.0,60.75,2,0.75,Stimuli/P009/sun_acvloibbxiqpiwnv.jpg,0,0.0,0.0,0,29,29,29,,,,,,,,,,,,,60.00404260000141,0.004042600001412211,None,90.12907869999981,90.12907869999981,90.12907869999981,90.12907869999981,90.12907869999981,90.12907869999981,90.12907869999981,90.12907869999981,90.12907869999981,90.12907869999981,,005,P009,2025_Feb_01_1346,ConditionRich,2021.2.3,59.91683543260227,
60.75,64.0,41,0.0,Stimuli/Blank.png,0,0.0,0.0,0,30,30,30,,,,,,,,,,,,,60.769832099998894,0.019832099998893682,None,90.8797444999982,90.8797444999982,90.8797444999982,90.8797444999982,90.8797444999982,90.8797444999982,90.8797444999982,90.8797444999982,90.8797444999982,90.8797444999982,,005,P009,2025_Feb_01_1346,ConditionRich,2021.2.3,59.91683543260227,
64.0,64.75,30,0.75,Stimuli/P009/things_fire_05s.jpg,0,0.0,0.0,0,31,31,31,,,,,,,,,,,,,64.00495990000127,0.00495990000126767,None,94.11593609999909,94.11593609999909,94.11593609999909,94.11593609999909,94.11593609999909,94.11593609999909,94.11593609999909,94.11593609999909,94.11593609999909,94.11593609999909,,005,P009,2025_Feb_01_1346,ConditionRich,2021.2.3,59.91683543260227,
64.75,68.0,41,0.0,Stimuli/Blank.png,0,0.0,0.0,0,32,32,32,,,,,,,,,,,,,64.75623460000133,0.006234600001334911,None,94.86657019999984,94.86657019999984,94.86657019999984,94.86657019999984,94.86657019999984,94.86657019999984,94.86657019999984,94.86657019999984,94.86657019999984,94.86657019999984,,005,P009,2025_Feb_01_1346,ConditionRich,2021.2.3,59.91683543260227,
68.0,68.75,15,0.75,Stimuli/P009/sun_boryivbddrnarrbo.jpg,0,0.0,0.0,0,33,33,33,,,,,,,,,,,,,68.0087910000002,0.008791000000201166,None,98.119473499999,98.119473499999,98.119473499999,98.119473499999,98.119473499999,98.119473499999,98.119473499999,98.119473499999,98.119473499999,98.119473499999,,005,P009,2025_Feb_01_1346,ConditionRich,2021.2.3,59.91683543260227,
68.75,72.0,41,0.0,Stimuli/Blank.png,0,0.0,0.0,0,34,34,34,,,,,,,,,,,,,68.76023110000096,0.010231100000964943,None,98.87014600000111,98.87014600000111,98.87014600000111,98.87014600000111,98.87014600000111,98.87014600000111,98.87014600000111,98.87014600000111,98.87014600000111,98.87014600000111,,005,P009,2025_Feb_01_1346,ConditionRich,2021.2.3,59.91683543260227,
72.0,72.75,25,0.75,Stimuli/P009/things_clothespin_05s.jpg,0,0.0,0.0,0,35,35,35,,,,,,,,,,,,,72.01213429999916,0.012134299999161158,None,102.1230207999979,102.1230207999979,102.1230207999979,102.1230207999979,102.1230207999979,102.1230207999979,102.1230207999979,102.1230207999979,102.1230207999979,102.1230207999979,,005,P009,2025_Feb_01_1346,ConditionRich,2021.2.3,59.91683543260227,
72.75,76.0,41,0.0,Stimuli/Blank.png,1,2.25,3.0,0,36,36,36,,,,,,,,,,,,,72.76630370000203,0.016303700002026744,1,102.89041309999811,102.89041309999811,102.89041309999811,102.89041309999811,102.89041309999811,102.89041309999811,105.12572290000026,105.87637879999966,102.89041309999811,102.89041309999811,2.572457199999917,005,P009,2025_Feb_01_1346,ConditionRich,2021.2.3,59.91683543260227,
76.0,76.75,33,0.75,Stimuli/P009/things_lizard_05n.jpg,0,0.0,0.0,0,37,37,37,,,,,,,,,,,,,76.01634159999958,0.01634159999957774,None,106.14325389999794,106.14325389999794,106.14325389999794,106.14325389999794,106.14325389999794,106.14325389999794,106.14325389999794,106.14325389999794,106.14325389999794,106.14325389999794,,005,P009,2025_Feb_01_1346,ConditionRich,2021.2.3,59.91683543260227,
76.75,80.0,41,0.0,Stimuli/Blank.png,0,0.0,0.0,0,38,38,38,,,,,,,,,,,,,76.76628079999864,0.01628079999863985,None,106.8772289999979,106.8772289999979,106.8772289999979,106.8772289999979,106.8772289999979,106.8772289999979,106.8772289999979,106.8772289999979,106.8772289999979,106.8772289999979,,005,P009,2025_Feb_01_1346,ConditionRich,2021.2.3,59.91683543260227,
80.0,80.75,24,0.75,Stimuli/P009/things_cigar_05n.jpg,0,0.0,0.0,0,39,39,39,,,,,,,,,,,,,80.0030028000001,0.003002800000103889,None,110.1134177999993,110.1134177999993,110.1134177999993,110.1134177999993,110.1134177999993,110.1134177999993,110.1134177999993,110.1134177999993,110.1134177999993,110.1134177999993,,005,P009,2025_Feb_01_1346,ConditionRich,2021.2.3,59.91683543260227,
80.75,84.0,41,0.0,Stimuli/Blank.png,1,2.25,3.0,0,40,40,40,,,,,,,,,,,,,80.7538585000002,0.0038585000002058223,1,110.86408980000124,110.86408980000124,110.86408980000124,110.86408980000124,110.86408980000124,110.86408980000124,113.09936490000109,113.85006330000033,110.86408980000124,110.86408980000124,2.907141600000614,005,P009,2025_Feb_01_1346,ConditionRich,2021.2.3,59.91683543260227,
84.0,100.0,0,0.0,Stimuli/Blank.png,1,1.0,1.75,0,41,41,41,,,,,,,,,,,,,84.0060568000008,0.006056800000806106,1,114.11696859999938,114.11696859999938,114.11696859999938,114.11696859999938,114.11696859999938,114.11696859999938,115.1011698000002,115.85181929999817,114.11696859999938,114.11696859999938,1.3350477999993018,005,P009,2025_Feb_01_1346,ConditionRich,2021.2.3,59.91683543260227,
100.0,100.75,8,0.75,Stimuli/P009/sun_batcnoizlkeiqdtx.jpg,0,0.0,0.0,0,42,42,42,,,,,,,,,,,,,100.0041968000005,0.004196800000499934,None,130.1144486000012,130.1144486000012,130.1144486000012,130.1144486000012,130.1144486000012,130.1144486000012,130.1144486000012,130.1144486000012,130.1144486000012,130.1144486000012,,005,P009,2025_Feb_01_1346,ConditionRich,2021.2.3,59.91683543260227,
100.75,104.0,41,0.0,Stimuli/Blank.png,1,1.25,2.0,0,43,43,43,,,,,,,,,,,,,100.75413860000117,0.004138600001169834,1,130.86511170000085,130.86511170000085,130.86511170000085,130.86511170000085,130.86511170000085,130.86511170000085,132.09959280000112,132.8501980000001,130.86511170000085,130.86511170000085,1.5778533999982756,005,P009,2025_Feb_01_1346,ConditionRich,2021.2.3,59.91683543260227,
104.0,104.75,37,0.75,Stimuli/P009/things_pug_05s.jpg,0,0.0,0.0,0,44,44,44,,,,,,,,,,,,,104.00974440000209,0.009744400002091425,None,134.13467010000022,134.13467010000022,134.13467010000022,134.13467010000022,134.13467010000022,134.13467010000022,134.13467010000022,134.13467010000022,134.13467010000022,134.13467010000022,,005,P009,2025_Feb_01_1346,ConditionRich,2021.2.3,59.91683543260227,
104.75,108.0,41,0.0,Stimuli/Blank.png,0,0.0,0.0,0,45,45,45,,,,,,,,,,,,,104.77539059999981,0.025390599999809638,None,134.88533649999954,134.88533649999954,134.88533649999954,134.88533649999954,134.88533649999954,134.88533649999954,134.88533649999954,134.88533649999954,134.88533649999954,134.88533649999954,,005,P009,2025_Feb_01_1346,ConditionRich,2021.2.3,59.91683543260227,
108.0,108.75,1,0.75,Stimuli/P009/sun_abqdlumenyzawlme.jpg,0,0.0,0.0,0,46,46,46,,,,,,,,,,,,,108.01168930000131,0.011689300001307856,None,138.13823950000005,138.13823950000005,138.13823950000005,138.13823950000005,138.13823950000005,138.13823950000005,138.13823950000005,138.13823950000005,138.13823950000005,138.13823950000005,,005,P009,2025_Feb_01_1346,ConditionRich,2021.2.3,59.91683543260227,
108.75,112.0,41,0.0,Stimuli/Blank.png,0,0.0,0.0,0,47,47,47,,,,,,,,,,,,,108.77898479999931,0.028984799999307143,None,138.88887799999793,138.88887799999793,138.88887799999793,138.88887799999793,138.88887799999793,138.88887799999793,138.88887799999793,138.88887799999793,138.88887799999793,138.88887799999793,,005,P009,2025_Feb_01_1346,ConditionRich,2021.2.3,59.91683543260227,
112.0,112.75,39,0.75,Stimuli/P009/things_tiara_05s.jpg,0,0.0,0.0,0,48,48,48,,,,,,,,,,,,,112.01511889999892,0.015118899998924462,None,142.1257736999978,142.1257736999978,142.1257736999978,142.1257736999978,142.1257736999978,142.1257736999978,142.1257736999978,142.1257736999978,142.1257736999978,142.1257736999978,,005,P009,2025_Feb_01_1346,ConditionRich,2021.2.3,59.91683543260227,
112.75,116.0,41,0.0,Stimuli/Blank.png,1,0.25,1.0,0,49,49,49,,,,,,,,,,,,,112.76527480000004,0.015274800000042887,1,142.87573089999933,142.87573089999933,142.87573089999933,142.87573089999933,142.87573089999933,142.87573089999933,143.1092635999994,143.85993809999854,142.87573089999933,142.87573089999933,0.7604294999982812,005,P009,2025_Feb_01_1346,ConditionRich,2021.2.3,59.91683543260227,
116.0,116.75,26,0.75,Stimuli/P009/things_cookie_sheet_05s.jpg,0,0.0,0.0,0,50,50,50,,,,,,,,,,,,,116.00143740000203,0.0014374000020325184,None,146.11193920000005,146.11193920000005,146.11193920000005,146.11193920000005,146.11193920000005,146.11193920000005,146.11193920000005,146.11193920000005,146.11193920000005,146.11193920000005,,005,P009,2025_Feb_01_1346,ConditionRich,2021.2.3,59.91683543260227,
116.75,120.0,41,0.0,Stimuli/Blank.png,0,0.0,0.0,0,51,51,51,,,,,,,,,,,,,116.75451389999944,0.004513899999437854,None,146.8792809000006,146.8792809000006,146.8792809000006,146.8792809000006,146.8792809000006,146.8792809000006,146.8792809000006,146.8792809000006,146.8792809000006,146.8792809000006,,005,P009,2025_Feb_01_1346,ConditionRich,2021.2.3,59.91683543260227,
120.0,120.75,14,0.75,Stimuli/P009/sun_blaqxdebghixzyyw.jpg,0,0.0,0.0,0,52,52,52,,,,,,,,,,,,,120.02204379999966,0.02204379999966477,None,150.14884370000073,150.14884370000073,150.14884370000073,150.14884370000073,150.14884370000073,150.14884370000073,150.14884370000073,150.14884370000073,150.14884370000073,150.14884370000073,,005,P009,2025_Feb_01_1346,ConditionRich,2021.2.3,59.91683543260227,
120.75,124.0,41,0.0,Stimuli/Blank.png,0,0.0,0.0,0,53,53,53,,,,,,,,,,,,,120.77355660000103,0.023556600001029437,None,150.88284009999916,150.88284009999916,150.88284009999916,150.88284009999916,150.88284009999916,150.88284009999916,150.88284009999916,150.88284009999916,150.88284009999916,150.88284009999916,,005,P009,2025_Feb_01_1346,ConditionRich,2021.2.3,59.91683543260227,
124.0,124.75,21,0.75,Stimuli/P009/things_boy_05s.jpg,0,0.0,0.0,0,54,54,54,,,,,,,,,,,,,124.00813470000139,0.008134700001392048,None,154.11900989999776,154.11900989999776,154.11900989999776,154.11900989999776,154.11900989999776,154.11900989999776,154.11900989999776,154.11900989999776,154.11900989999776,154.11900989999776,,005,P009,2025_Feb_01_1346,ConditionRich,2021.2.3,59.91683543260227,
124.75,128.0,41,0.0,Stimuli/Blank.png,0,0.0,0.0,0,55,55,55,,,,,,,,,,,,,124.7591594000005,0.009159400000498863,None,154.8696768000009,154.8696768000009,154.8696768000009,154.8696768000009,154.8696768000009,154.8696768000009,154.8696768000009,154.8696768000009,154.8696768000009,154.8696768000009,,005,P009,2025_Feb_01_1346,ConditionRich,2021.2.3,59.91683543260227,
128.0,128.75,22,0.75,Stimuli/P009/things_butterfly_05s.jpg,0,0.0,0.0,0,56,56,56,,,,,,,,,,,,,128.01212400000077,0.01212400000076741,None,158.1225463999981,158.1225463999981,158.1225463999981,158.1225463999981,158.1225463999981,158.1225463999981,158.1225463999981,158.1225463999981,158.1225463999981,158.1225463999981,,005,P009,2025_Feb_01_1346,ConditionRich,2021.2.3,59.91683543260227,
128.75,132.0,41,0.0,Stimuli/Blank.png,0,0.0,0.0,0,57,57,57,,,,,,,,,,,,,128.76433729999917,0.014337299999169772,None,158.88992399999916,158.88992399999916,158.88992399999916,158.88992399999916,158.88992399999916,158.88992399999916,158.88992399999916,158.88992399999916,158.88992399999916,158.88992399999916,,005,P009,2025_Feb_01_1346,ConditionRich,2021.2.3,59.91683543260227,
132.0,132.75,18,0.75,Stimuli/P009/sun_bwjdahsxcqepqqbm.jpg,0,0.0,0.0,0,58,58,58,,,,,,,,,,,,,132.0159563999987,0.01595639999868581,None,162.1260966000009,162.1260966000009,162.1260966000009,162.1260966000009,162.1260966000009,162.1260966000009,162.1260966000009,162.1260966000009,162.1260966000009,162.1260966000009,,005,P009,2025_Feb_01_1346,ConditionRich,2021.2.3,59.91683543260227,
132.75,136.0,41,0.0,Stimuli/Blank.png,0,0.0,0.0,0,59,59,59,,,,,,,,,,,,,132.74983200000133,-0.00016799999866634607,None,162.86008829999992,162.86008829999992,162.86008829999992,162.86008829999992,162.86008829999992,162.86008829999992,162.86008829999992,162.86008829999992,162.86008829999992,162.86008829999992,,005,P009,2025_Feb_01_1346,ConditionRich,2021.2.3,59.91683543260227,
136.0,136.75,19,0.75,Stimuli/P009/sun_bwvfnogmotsvhofs.jpg,0,0.0,0.0,0,60,60,60,,,,,,,,,,,,,136.0030384999991,0.003038499999092892,None,166.1129559000001,166.1129559000001,166.1129559000001,166.1129559000001,166.1129559000001,166.1129559000001,166.1129559000001,166.1129559000001,166.1129559000001,166.1129559000001,,005,P009,2025_Feb_01_1346,ConditionRich,2021.2.3,59.91683543260227,
136.75,140.0,41,0.0,Stimuli/Blank.png,0,0.0,0.0,0,61,61,61,,,,,,,,,,,,,136.75353299999915,0.003532999999151798,None,166.86362739999822,166.86362739999822,166.86362739999822,166.86362739999822,166.86362739999822,166.86362739999822,166.86362739999822,166.86362739999822,166.86362739999822,166.86362739999822,,005,P009,2025_Feb_01_1346,ConditionRich,2021.2.3,59.91683543260227,
140.0,140.75,23,0.75,Stimuli/P009/things_charger_05s.jpg,0,0.0,0.0,0,62,62,62,,,,,,,,,,,,,140.0061726999993,0.006172699999297038,None,170.11649530000068,170.11649530000068,170.11649530000068,170.11649530000068,170.11649530000068,170.11649530000068,170.11649530000068,170.11649530000068,170.11649530000068,170.11649530000068,,005,P009,2025_Feb_01_1346,ConditionRich,2021.2.3,59.91683543260227,
140.75,144.0,41,0.0,Stimuli/Blank.png,0,0.0,0.0,0,63,63,63,,,,,,,,,,,,,140.75695780000024,0.0069578000002366025,None,170.8672282999978,170.8672282999978,170.8672282999978,170.8672282999978,170.8672282999978,170.8672282999978,170.8672282999978,170.8672282999978,170.8672282999978,170.8672282999978,,005,P009,2025_Feb_01_1346,ConditionRich,2021.2.3,59.91683543260227,
144.0,144.75,3,0.75,Stimuli/P009/sun_aewgwsmvsgzleqhw.jpg,0,0.0,0.0,0,64,64,64,,,,,,,,,,,,,144.00933430000077,0.00933430000077351,None,174.1200319999989,174.1200319999989,174.1200319999989,174.1200319999989,174.1200319999989,174.1200319999989,174.1200319999989,174.1200319999989,174.1200319999989,174.1200319999989,,005,P009,2025_Feb_01_1346,ConditionRich,2021.2.3,59.91683543260227,
144.75,148.0,41,0.0,Stimuli/Blank.png,1,2.25,3.0,0,65,65,65,,,,,,,,,,,,,144.75996250000026,0.009962500000256114,1,174.87071020000076,174.87071020000076,174.87071020000076,174.87071020000076,174.87071020000076,174.87071020000076,177.1060053000001,177.85666909999782,174.87071020000076,174.87071020000076,2.6483779000009235,005,P009,2025_Feb_01_1346,ConditionRich,2021.2.3,59.91683543260227,
148.0,148.75,5,0.75,Stimuli/P009/sun_akqvdmuauoxeafrj.jpg,1,0.0,0.75,0,66,66,66,,,,,,,,,,,,,148.01473220000116,0.01473220000116271,1,178.14026150000063,178.14026150000063,178.14026150000063,178.14026150000063,178.14026150000063,178.14026150000063,178.14026150000063,178.8742315999989,178.14026150000063,178.14026150000063,0.4587792999991507,005,P009,2025_Feb_01_1346,ConditionRich,2021.2.3,59.91683543260227,
148.75,152.0,41,0.0,Stimuli/Blank.png,0,0.0,0.0,0,67,67,67,,,,,,,,,,,,,148.7800998999992,0.030099899999186164,None,178.89093219999995,178.89093219999995,178.89093219999995,178.89093219999995,178.89093219999995,178.89093219999995,178.89093219999995,178.89093219999995,178.89093219999995,178.89093219999995,,005,P009,2025_Feb_01_1346,ConditionRich,2021.2.3,59.91683543260227,
152.0,152.75,27,0.75,Stimuli/P009/things_curling_iron_05s.jpg,0,0.0,0.0,0,68,68,68,,,,,,,,,,,,,151.99960490000012,-0.00039509999987785704,None,182.1104434000008,182.1104434000008,182.1104434000008,182.1104434000008,182.1104434000008,182.1104434000008,182.1104434000008,182.1104434000008,182.1104434000008,182.1104434000008,,005,P009,2025_Feb_01_1346,ConditionRich,2021.2.3,59.91683543260227,
152.75,156.0,41,0.0,Stimuli/Blank.png,0,0.0,0.0,0,69,69,69,,,,,,,,,,,,,152.7501118,0.00011180000001331791,None,182.86110929999995,182.86110929999995,182.86110929999995,182.86110929999995,182.86110929999995,182.86110929999995,182.86110929999995,182.86110929999995,182.86110929999995,182.86110929999995,,005,P009,2025_Feb_01_1346,ConditionRich,2021.2.3,59.91683543260227,
156.0,156.75,29,0.75,Stimuli/P009/things_fingerprint_05s.jpg,1,0.0,0.75,0,70,70,70,,,,,,,,,,,,,156.0032183000003,0.0032183000002987683,1,186.11399299999903,186.11399299999903,186.11399299999903,186.11399299999903,186.11399299999903,186.11399299999903,186.11399299999903,186.84820319999926,186.11399299999903,186.11399299999903,0.37228959999993094,005,P009,2025_Feb_01_1346,ConditionRich,2021.2.3,59.91683543260227,
156.75,160.0,41,0.0,Stimuli/Blank.png,0,0.0,0.0,0,71,71,71,,,,,,,,,,,,,156.75416290000067,0.004162900000665104,None,186.86485449999964,186.86485449999964,186.86485449999964,186.86485449999964,186.86485449999964,186.86485449999964,186.86485449999964,186.86485449999964,186.86485449999964,186.86485449999964,,005,P009,2025_Feb_01_1346,ConditionRich,2021.2.3,59.91683543260227,
160.0,160.75,7,0.75,Stimuli/P009/sun_apiogxmvvzfmtsmj.jpg,0,0.0,0.0,0,72,72,72,,,,,,,,,,,,,160.00760789999913,0.007607899999129586,None,190.13422759999958,190.13422759999958,190.13422759999958,190.13422759999958,190.13422759999958,190.13422759999958,190.13422759999958,190.13422759999958,190.13422759999958,190.13422759999958,,005,P009,2025_Feb_01_1346,ConditionRich,2021.2.3,59.91683543260227,
160.75,164.0,41,0.0,Stimuli/Blank.png,0,0.0,0.0,0,73,73,73,,,,,,,,,,,,,160.7745470000009,0.024547000000893604,None,190.88487149999855,190.88487149999855,190.88487149999855,190.88487149999855,190.88487149999855,190.88487149999855,190.88487149999855,190.88487149999855,190.88487149999855,190.88487149999855,,005,P009,2025_Feb_01_1346,ConditionRich,2021.2.3,59.91683543260227,
164.0,164.75,40,0.75,Stimuli/P009/things_woman_05s.jpg,0,0.0,0.0,0,74,74,74,,,,,,,,,,,,,164.01037649999853,0.010376499998528743,None,194.12105929999962,194.12105929999962,194.12105929999962,194.12105929999962,194.12105929999962,194.12105929999962,194.12105929999962,194.12105929999962,194.12105929999962,194.12105929999962,,005,P009,2025_Feb_01_1346,ConditionRich,2021.2.3,59.91683543260227,
164.75,168.0,41,0.0,Stimuli/Blank.png,0,0.0,0.0,0,75,75,75,,,,,,,,,,,,,164.76087539999935,0.010875399999349611,None,194.87172439999995,194.87172439999995,194.87172439999995,194.87172439999995,194.87172439999995,194.87172439999995,194.87172439999995,194.87172439999995,194.87172439999995,194.87172439999995,,005,P009,2025_Feb_01_1346,ConditionRich,2021.2.3,59.91683543260227,
168.0,168.75,16,0.75,Stimuli/P009/sun_bqpyqljaflidcauh.jpg,0,0.0,0.0,0,76,76,76,,,,,,,,,,,,,168.01529949999895,0.015299499998945976,None,198.14128300000084,198.14128300000084,198.14128300000084,198.14128300000084,198.14128300000084,198.14128300000084,198.14128300000084,198.14128300000084,198.14128300000084,198.14128300000084,,005,P009,2025_Feb_01_1346,ConditionRich,2021.2.3,59.91683543260227,
168.75,172.0,41,0.0,Stimuli/Blank.png,0,0.0,0.0,0,77,77,77,,,,,,,,,,,,,168.7651986000019,0.015198600001895102,None,198.87527299999783,198.87527299999783,198.87527299999783,198.87527299999783,198.87527299999783,198.87527299999783,198.87527299999783,198.87527299999783,198.87527299999783,198.87527299999783,,005,P009,2025_Feb_01_1346,ConditionRich,2021.2.3,59.91683543260227,
172.0,172.75,4,0.75,Stimuli/P009/sun_afkzdukwewwzqtmr.jpg,0,0.0,0.0,0,78,78,78,,,,,,,,,,,,,172.0015929000001,0.0015929000001051463,None,202.12814029999936,202.12814029999936,202.12814029999936,202.12814029999936,202.12814029999936,202.12814029999936,202.12814029999936,202.12814029999936,202.12814029999936,202.12814029999936,,005,P009,2025_Feb_01_1346,ConditionRich,2021.2.3,59.91683543260227,
172.75,176.0,41,0.0,Stimuli/Blank.png,0,0.0,0.0,0,79,79,79,,,,,,,,,,,,,172.76867520000087,0.018675200000870973,None,202.87881519999792,202.87881519999792,202.87881519999792,202.87881519999792,202.87881519999792,202.87881519999792,202.87881519999792,202.87881519999792,202.87881519999792,202.87881519999792,,005,P009,2025_Feb_01_1346,ConditionRich,2021.2.3,59.91683543260227,
176.0,176.75,36,0.75,Stimuli/P009/things_pelican_05s.jpg,0,0.0,0.0,0,80,80,80,,,,,,,,,,,,,176.00526639999953,0.0052663999995274935,None,206.13167590000012,206.13167590000012,206.13167590000012,206.13167590000012,206.13167590000012,206.13167590000012,206.13167590000012,206.13167590000012,206.13167590000012,206.13167590000012,,005,P009,2025_Feb_01_1346,ConditionRich,2021.2.3,59.91683543260227,
176.75,180.0,41,0.0,Stimuli/Blank.png,0,0.0,0.0,0,81,81,81,,,,,,,,,,,,,176.7722466999985,0.022246699998504482,None,206.88236219999817,206.88236219999817,206.88236219999817,206.88236219999817,206.88236219999817,206.88236219999817,206.88236219999817,206.88236219999817,206.88236219999817,206.88236219999817,,005,P009,2025_Feb_01_1346,ConditionRich,2021.2.3,59.91683543260227,
180.0,196.0,0,0.0,Stimuli/Blank.png,1,7.0,7.75,0,82,82,82,,,,,,,,,,,,,180.0102138000002,0.010213800000201445,1,210.13524899999902,210.13524899999902,210.13524899999902,210.13524899999902,210.13524899999902,210.13524899999902,217.10808499999985,217.8587755999979,210.13524899999902,210.13524899999902,7.538731099997676,005,P009,2025_Feb_01_1346,ConditionRich,2021.2.3,59.91683543260227,
196.0,196.75,2,0.75,Stimuli/P009/sun_acvloibbxiqpiwnv.jpg,0,0.0,0.0,0,83,83,83,,,,,,,,,,,,,196.02191719999973,0.021917199999734294,None,226.14938600000096,226.14938600000096,226.14938600000096,226.14938600000096,226.14938600000096,226.14938600000096,226.14938600000096,226.14938600000096,226.14938600000096,226.14938600000096,,005,P009,2025_Feb_01_1346,ConditionRich,2021.2.3,59.91683543260227,
196.75,200.0,41,0.0,Stimuli/Blank.png,0,0.0,0.0,0,84,84,84,,,,,,,,,,,,,196.77304809999987,0.02304809999986901,None,226.8833803999987,226.8833803999987,226.8833803999987,226.8833803999987,226.8833803999987,226.8833803999987,226.8833803999987,226.8833803999987,226.8833803999987,226.8833803999987,,005,P009,2025_Feb_01_1346,ConditionRich,2021.2.3,59.91683543260227,
200.0,200.75,4,0.75,Stimuli/P009/sun_afkzdukwewwzqtmr.jpg,0,0.0,0.0,0,85,85,85,,,,,,,,,,,,,200.00940619999892,0.009406199998920783,None,230.11956709999868,230.11956709999868,230.11956709999868,230.11956709999868,230.11956709999868,230.11956709999868,230.11956709999868,230.11956709999868,230.11956709999868,230.11956709999868,,005,P009,2025_Feb_01_1346,ConditionRich,2021.2.3,59.91683543260227,
200.75,204.0,41,0.0,Stimuli/Blank.png,0,0.0,0.0,0,86,86,86,,,,,,,,,,,,,200.76118080000015,0.011180800000147428,None,230.87024979999842,230.87024979999842,230.87024979999842,230.87024979999842,230.87024979999842,230.87024979999842,230.87024979999842,230.87024979999842,230.87024979999842,230.87024979999842,,005,P009,2025_Feb_01_1346,ConditionRich,2021.2.3,59.91683543260227,
204.0,204.75,7,0.75,Stimuli/P009/sun_apiogxmvvzfmtsmj.jpg,1,0.0,0.75,0,87,87,87,,,,,,,,,,,,,204.01531090000208,0.015310900002077688,1,234.1397928999977,234.1397928999977,234.1397928999977,234.1397928999977,234.1397928999977,234.1397928999977,234.1397928999977,None,234.1397928999977,234.1397928999977,0.3734254000009969,005,P009,2025_Feb_01_1346,ConditionRich,2021.2.3,59.91683543260227,
204.75,208.0,41,0.0,Stimuli/Blank.png,0,0.0,0.0,0,88,88,88,,,,,,,,,,,,,204.76377270000012,0.013772700000117766,None,234.87378420000096,234.87378420000096,234.87378420000096,234.87378420000096,234.87378420000096,234.87378420000096,234.87378420000096,234.87378420000096,234.87378420000096,234.87378420000096,,005,P009,2025_Feb_01_1346,ConditionRich,2021.2.3,59.91683543260227,
208.0,208.75,21,0.75,Stimuli/P009/things_boy_05s.jpg,0,0.0,0.0,0,89,89,89,,,,,,,,,,,,,207.999977200001,-2.2799998987466097e-05,None,238.10996420000083,238.10996420000083,238.10996420000083,238.10996420000083,238.10996420000083,238.10996420000083,238.10996420000083,238.10996420000083,238.10996420000083,238.10996420000083,,005,P009,2025_Feb_01_1346,ConditionRich,2021.2.3,59.91683543260227,
208.75,212.0,41,0.0,Stimuli/Blank.png,1,0.25,1.0,0,90,90,90,,,,,,,,,,,,,208.74968140000055,-0.00031859999944572337,1,238.86062799999854,238.86062799999854,238.86062799999854,238.86062799999854,238.86062799999854,238.86062799999854,239.0941743000003,239.84484239999802,238.86062799999854,238.86062799999854,0.5983941000013147,005,P009,2025_Feb_01_1346,ConditionRich,2021.2.3,59.91683543260227,
212.0,212.75,15,0.75,Stimuli/P009/sun_boryivbddrnarrbo.jpg,0,0.0,0.0,0,91,91,91,,,,,,,,,,,,,212.00319429999945,0.0031942999994498678,None,242.11348720000024,242.11348720000024,242.11348720000024,242.11348720000024,242.11348720000024,242.11348720000024,242.11348720000024,242.11348720000024,242.11348720000024,242.11348720000024,,005,P009,2025_Feb_01_1346,ConditionRich,2021.2.3,59.91683543260227,
212.75,216.0,41,0.0,Stimuli/Blank.png,0,0.0,0.0,0,92,92,92,,,,,,,,,,,,,212.75390999999945,0.00390999999945052,None,242.86417979999896,242.86417979999896,242.86417979999896,242.86417979999896,242.86417979999896,242.86417979999896,242.86417979999896,242.86417979999896,242.86417979999896,242.86417979999896,,005,P009,2025_Feb_01_1346,ConditionRich,2021.2.3,59.91683543260227,
216.0,216.75,14,0.75,Stimuli/P009/sun_blaqxdebghixzyyw.jpg,0,0.0,0.0,0,93,93,93,,,,,,,,,,,,,216.00740750000114,0.0074075000011362135,None,246.13372660000095,246.13372660000095,246.13372660000095,246.13372660000095,246.13372660000095,246.13372660000095,246.13372660000095,246.13372660000095,246.13372660000095,246.13372660000095,,005,P009,2025_Feb_01_1346,ConditionRich,2021.2.3,59.91683543260227,
216.75,220.0,41,0.0,Stimuli/Blank.png,0,0.0,0.0,0,94,94,94,,,,,,,,,,,,,216.77498410000044,0.024984100000438048,None,246.88439839999774,246.88439839999774,246.88439839999774,246.88439839999774,246.88439839999774,246.88439839999774,246.88439839999774,246.88439839999774,246.88439839999774,246.88439839999774,,005,P009,2025_Feb_01_1346,ConditionRich,2021.2.3,59.91683543260227,
220.0,220.75,17,0.75,Stimuli/P009/sun_brkrfjpyfglmigkk.jpg,0,0.0,0.0,0,95,95,95,,,,,,,,,,,,,220.01002779999908,0.010027799999079434,None,250.12059189999854,250.12059189999854,250.12059189999854,250.12059189999854,250.12059189999854,250.12059189999854,250.12059189999854,250.12059189999854,250.12059189999854,250.12059189999854,,005,P009,2025_Feb_01_1346,ConditionRich,2021.2.3,59.91683543260227,
220.75,224.0,41,0.0,Stimuli/Blank.png,0,0.0,0.0,0,96,96,96,,,,,,,,,,,,,220.76112139999896,0.011121399998955894,None,250.87126279999939,250.87126279999939,250.87126279999939,250.87126279999939,250.87126279999939,250.87126279999939,250.87126279999939,250.87126279999939,250.87126279999939,250.87126279999939,,005,P009,2025_Feb_01_1346,ConditionRich,2021.2.3,59.91683543260227,
224.0,224.75,30,0.75,Stimuli/P009/things_fire_05s.jpg,0,0.0,0.0,0,97,97,97,,,,,,,,,,,,,224.0140433000015,0.014043300001503667,None,254.1241392999982,254.1241392999982,254.1241392999982,254.1241392999982,254.1241392999982,254.1241392999982,254.1241392999982,254.1241392999982,254.1241392999982,254.1241392999982,,005,P009,2025_Feb_01_1346,ConditionRich,2021.2.3,59.91683543260227,
224.75,228.0,41,0.0,Stimuli/Blank.png,0,0.0,0.0,0,98,98,98,,,,,,,,,,,,,224.7644736000002,0.014473600000201259,None,254.8748016999998,254.8748016999998,254.8748016999998,254.8748016999998,254.8748016999998,254.8748016999998,254.8748016999998,254.8748016999998,254.8748016999998,254.8748016999998,,005,P009,2025_Feb_01_1346,ConditionRich,2021.2.3,59.91683543260227,
228.0,228.75,29,0.75,Stimuli/P009/things_fingerprint_05s.jpg,0,0.0,0.0,0,99,99,99,,,,,,,,,,,,,228.00048610000158,0.00048610000158078037,None,258.1110043999979,258.1110043999979,258.1110043999979,258.1110043999979,258.1110043999979,258.1110043999979,258.1110043999979,258.1110043999979,258.1110043999979,258.1110043999979,,005,P009,2025_Feb_01_1346,ConditionRich,2021.2.3,59.91683543260227,
228.75,232.0,41,0.0,Stimuli/Blank.png,0,0.0,0.0,0,100,100,100,,,,,,,,,,,,,228.75170939999953,0.001709399999526795,None,258.8616621000001,258.8616621000001,258.8616621000001,258.8616621000001,258.8616621000001,258.8616621000001,258.8616621000001,258.8616621000001,258.8616621000001,258.8616621000001,,005,P009,2025_Feb_01_1346,ConditionRich,2021.2.3,59.91683543260227,
232.0,232.75,9,0.75,Stimuli/P009/sun_bdjkvwqqqycuixtc.jpg,0,0.0,0.0,0,101,101,101,,,,,,,,,,,,,232.00508990000162,0.005089900001621572,None,262.1312304999992,262.1312304999992,262.1312304999992,262.1312304999992,262.1312304999992,262.1312304999992,262.1312304999992,262.1312304999992,262.1312304999992,262.1312304999992,,005,P009,2025_Feb_01_1346,ConditionRich,2021.2.3,59.91683543260227,
232.75,236.0,41,0.0,Stimuli/Blank.png,0,0.0,0.0,0,102,102,102,,,,,,,,,,,,,232.77140839999993,0.021408399999927497,None,262.88187599999947,262.88187599999947,262.88187599999947,262.88187599999947,262.88187599999947,262.88187599999947,262.88187599999947,262.88187599999947,262.88187599999947,262.88187599999947,,005,P009,2025_Feb_01_1346,ConditionRich,2021.2.3,59.91683543260227,
236.0,236.75,16,0.75,Stimuli/P009/sun_bqpyqljaflidcauh.jpg,0,0.0,0.0,0,103,103,103,,,,,,,,,,,,,236.00988770000185,0.009887700001854682,None,266.13475710000057,266.13475710000057,266.13475710000057,266.13475710000057,266.13475710000057,266.13475710000057,266.13475710000057,266.13475710000057,266.13475710000057,266.13475710000057,,005,P009,2025_Feb_01_1346,ConditionRich,2021.2.3,59.91683543260227,
236.75,240.0,41,0.0,Stimuli/Blank.png,0,0.0,0.0,0,104,104,104,,,,,,,,,,,,,236.7744457000008,0.024445700000796933,None,266.8854186999997,266.8854186999997,266.8854186999997,266.8854186999997,266.8854186999997,266.8854186999997,266.8854186999997,266.8854186999997,266.8854186999997,266.8854186999997,,005,P009,2025_Feb_01_1346,ConditionRich,2021.2.3,59.91683543260227,
240.0,240.75,35,0.75,Stimuli/P009/things_mushroom_05n.jpg,0,0.0,0.0,0,105,105,105,,,,,,,,,,,,,240.01078440000128,0.010784400001284666,None,270.13830379999854,270.13830379999854,270.13830379999854,270.13830379999854,270.13830379999854,270.13830379999854,270.13830379999854,270.13830379999854,270.13830379999854,270.13830379999854,,005,P009,2025_Feb_01_1346,ConditionRich,2021.2.3,59.91683543260227,
240.75,244.0,41,0.0,Stimuli/Blank.png,0,0.0,0.0,0,106,106,106,,,,,,,,,,,,,240.77945850000106,0.029458500001055654,None,270.88897240000006,270.88897240000006,270.88897240000006,270.88897240000006,270.88897240000006,270.88897240000006,270.88897240000006,270.88897240000006,270.88897240000006,270.88897240000006,,005,P009,2025_Feb_01_1346,ConditionRich,2021.2.3,59.91683543260227,
244.0,244.75,27,0.75,Stimuli/P009/things_curling_iron_05s.jpg,1,0.0,0.75,0,107,107,107,,,,,,,,,,,,,244.0153633000009,0.015363300000899471,1,274.14187930000116,274.14187930000116,274.14187930000116,274.14187930000116,274.14187930000116,274.14187930000116,274.14187930000116,274.8591434000009,274.14187930000116,274.14187930000116,0.4532340000005206,005,P009,2025_Feb_01_1346,ConditionRich,2021.2.3,59.91683543260227,
244.75,248.0,41,0.0,Stimuli/Blank.png,0,0.0,0.0,0,108,108,108,,,,,,,,,,,,,244.7655173000021,0.015517300002102274,None,274.8758314000006,274.8758314000006,274.8758314000006,274.8758314000006,274.8758314000006,274.8758314000006,274.8758314000006,274.8758314000006,274.8758314000006,274.8758314000006,,005,P009,2025_Feb_01_1346,ConditionRich,2021.2.3,59.91683543260227,
248.0,248.75,40,0.75,Stimuli/P009/things_woman_05s.jpg,0,0.0,0.0,0,109,109,109,,,,,,,,,,,,,248.00118440000006,0.0011844000000564847,None,278.12871059999816,278.12871059999816,278.12871059999816,278.12871059999816,278.12871059999816,278.12871059999816,278.12871059999816,278.12871059999816,278.12871059999816,278.12871059999816,,005,P009,2025_Feb_01_1346,ConditionRich,2021.2.3,59.91683543260227,
248.75,252.0,41,0.0,Stimuli/Blank.png,1,0.25,1.0,0,110,110,110,,,,,,,,,,,,,248.7690255000016,0.019025500001589535,1,278.8793631000008,278.8793631000008,278.8793631000008,278.8793631000008,278.8793631000008,278.8793631000008,279.112947900001,279.8635675000005,278.8793631000008,278.8793631000008,0.6318075000017416,005,P009,2025_Feb_01_1346,ConditionRich,2021.2.3,59.91683543260227,
252.0,252.75,3,0.75,Stimuli/P009/sun_aewgwsmvsgzleqhw.jpg,0,0.0,0.0,0,111,111,111,,,,,,,,,,,,,252.00609690000056,0.006096900000557071,None,282.13224600000103,282.13224600000103,282.13224600000103,282.13224600000103,282.13224600000103,282.13224600000103,282.13224600000103,282.13224600000103,282.13224600000103,282.13224600000103,,005,P009,2025_Feb_01_1346,ConditionRich,2021.2.3,59.91683543260227,
252.75,256.0,41,0.0,Stimuli/Blank.png,1,2.25,3.0,0,112,112,112,,,,,,,,,,,,,252.7742283000007,0.02422830000068643,1,282.89958489999844,282.89958489999844,282.89958489999844,282.89958489999844,282.89958489999844,282.89958489999844,285.13488510000025,285.88555429999906,282.89958489999844,282.89958489999844,2.6156221000019286,005,P009,2025_Feb_01_1346,ConditionRich,2021.2.3,59.91683543260227,
256.0,256.75,18,0.75,Stimuli/P009/sun_bwjdahsxcqepqqbm.jpg,0,0.0,0.0,0,113,113,113,,,,,,,,,,,,,256.02528040000107,0.025280400001065573,None,286.13577290000103,286.13577290000103,286.13577290000103,286.13577290000103,286.13577290000103,286.13577290000103,286.13577290000103,286.13577290000103,286.13577290000103,286.13577290000103,,005,P009,2025_Feb_01_1346,ConditionRich,2021.2.3,59.91683543260227,
256.75,260.0,41,0.0,Stimuli/Blank.png,0,0.0,0.0,0,114,114,114,,,,,,,,,,,,,256.7592364000011,0.009236400001100264,None,286.8697656000004,286.8697656000004,286.8697656000004,286.8697656000004,286.8697656000004,286.8697656000004,286.8697656000004,286.8697656000004,286.8697656000004,286.8697656000004,,005,P009,2025_Feb_01_1346,ConditionRich,2021.2.3,59.91683543260227,
260.0,260.75,36,0.75,Stimuli/P009/things_pelican_05s.jpg,0,0.0,0.0,0,115,115,115,,,,,,,,,,,,,260.0116654000012,0.011665400001220405,None,290.1393472999989,290.1393472999989,290.1393472999989,290.1393472999989,290.1393472999989,290.1393472999989,290.1393472999989,290.1393472999989,290.1393472999989,290.1393472999989,,005,P009,2025_Feb_01_1346,ConditionRich,2021.2.3,59.91683543260227,
260.75,264.0,41,0.0,Stimuli/Blank.png,0,0.0,0.0,0,116,116,116,,,,,,,,,,,,,260.78003009999884,0.030030099998839432,None,290.8899992000006,290.8899992000006,290.8899992000006,290.8899992000006,290.8899992000006,290.8899992000006,290.8899992000006,290.8899992000006,290.8899992000006,290.8899992000006,,005,P009,2025_Feb_01_1346,ConditionRich,2021.2.3,59.91683543260227,
264.0,264.75,11,0.75,Stimuli/P009/sun_bfyvfqiimvdaxlqn.jpg,0,0.0,0.0,0,117,117,117,,,,,,,,,,,,,263.99857930000144,-0.0014206999985617585,None,294.10949450000044,294.10949450000044,294.10949450000044,294.10949450000044,294.10949450000044,294.10949450000044,294.10949450000044,294.10949450000044,294.10949450000044,294.10949450000044,,005,P009,2025_Feb_01_1346,ConditionRich,2021.2.3,59.91683543260227,
264.75,268.0,41,0.0,Stimuli/Blank.png,0,0.0,0.0,0,118,118,118,,,,,,,,,,,,,264.7496812999998,-0.0003187000002071727,None,294.8601720000006,294.8601720000006,294.8601720000006,294.8601720000006,294.8601720000006,294.8601720000006,294.8601720000006,294.8601720000006,294.8601720000006,294.8601720000006,,005,P009,2025_Feb_01_1346,ConditionRich,2021.2.3,59.91683543260227,
268.0,268.75,34,0.75,Stimuli/P009/things_man_05s.jpg,0,0.0,0.0,0,119,119,119,,,,,,,,,,,,,268.0053564000009,0.005356400000891881,None,298.1304120999994,298.1304120999994,298.1304120999994,298.1304120999994,298.1304120999994,298.1304120999994,298.1304120999994,298.1304120999994,298.1304120999994,298.1304120999994,,005,P009,2025_Feb_01_1346,ConditionRich,2021.2.3,59.91683543260227,
268.75,272.0,41,0.0,Stimuli/Blank.png,0,0.0,0.0,0,120,120,120,,,,,,,,,,,,,268.770204299999,0.020204299999022624,None,298.88039039999785,298.88039039999785,298.88039039999785,298.88039039999785,298.88039039999785,298.88039039999785,298.88039039999785,298.88039039999785,298.88039039999785,298.88039039999785,,005,P009,2025_Feb_01_1346,ConditionRich,2021.2.3,59.91683543260227,
272.0,272.75,25,0.75,Stimuli/P009/things_clothespin_05s.jpg,0,0.0,0.0,0,121,121,121,,,,,,,,,,,,,272.0059153000002,0.005915300000197021,None,302.13327579999896,302.13327579999896,302.13327579999896,302.13327579999896,302.13327579999896,302.13327579999896,302.13327579999896,302.13327579999896,302.13327579999896,302.13327579999896,,005,P009,2025_Feb_01_1346,ConditionRich,2021.2.3,59.91683543260227,
272.75,276.0,41,0.0,Stimuli/Blank.png,0,0.0,0.0,0,122,122,122,,,,,,,,,,,,,272.7730264999991,0.023026499999105,None,302.8839455999987,302.8839455999987,302.8839455999987,302.8839455999987,302.8839455999987,302.8839455999987,302.8839455999987,302.8839455999987,302.8839455999987,302.8839455999987,,005,P009,2025_Feb_01_1346,ConditionRich,2021.2.3,59.91683543260227,
276.0,292.0,0,0.0,Stimuli/Blank.png,1,2.0,2.75,0,123,123,123,,,,,,,,,,,,,276.0106188999998,0.010618899999826681,1,306.1201188999985,306.1201188999985,306.1201188999985,306.1201188999985,306.1201188999985,306.1201188999985,308.10520539999925,308.8559201999997,306.1201188999985,306.1201188999985,2.3329927000013413,005,P009,2025_Feb_01_1346,ConditionRich,2021.2.3,59.91683543260227,
292.0,292.75,6,0.75,Stimuli/P009/sun_amkrwcyvinmsylsz.jpg,0,0.0,0.0,0,124,124,124,,,,,,,,,,,,,292.00978060000125,0.009780600001249695,None,322.1342939999995,322.1342939999995,322.1342939999995,322.1342939999995,322.1342939999995,322.1342939999995,322.1342939999995,322.1342939999995,322.1342939999995,322.1342939999995,,005,P009,2025_Feb_01_1346,ConditionRich,2021.2.3,59.91683543260227,
292.75,296.0,41,0.0,Stimuli/Blank.png,0,0.0,0.0,0,125,125,125,,,,,,,,,,,,,292.7751625000019,0.02516250000189757,None,322.8849530999978,322.8849530999978,322.8849530999978,322.8849530999978,322.8849530999978,322.8849530999978,322.8849530999978,322.8849530999978,322.8849530999978,322.8849530999978,,005,P009,2025_Feb_01_1346,ConditionRich,2021.2.3,59.91683543260227,
296.0,296.75,26,0.75,Stimuli/P009/things_cookie_sheet_05s.jpg,0,0.0,0.0,0,126,126,126,,,,,,,,,,,,,296.0107300000018,0.010730000001785811,None,326.1211399999993,326.1211399999993,326.1211399999993,326.1211399999993,326.1211399999993,326.1211399999993,326.1211399999993,326.1211399999993,326.1211399999993,326.1211399999993,,005,P009,2025_Feb_01_1346,ConditionRich,2021.2.3,59.91683543260227,
296.75,300.0,41,0.0,Stimuli/Blank.png,0,0.0,0.0,0,127,127,127,,,,,,,,,,,,,296.7609475999998,0.010947599999781232,None,326.87290740000026,326.87290740000026,326.87290740000026,326.87290740000026,326.87290740000026,326.87290740000026,326.87290740000026,326.87290740000026,326.87290740000026,326.87290740000026,,005,P009,2025_Feb_01_1346,ConditionRich,2021.2.3,59.91683543260227,
300.0,300.75,1,0.75,Stimuli/P009/sun_abqdlumenyzawlme.jpg,0,0.0,0.0,0,128,128,128,,,,,,,,,,,,,300.01382899999953,0.013828999999532243,None,330.1246777999986,330.1246777999986,330.1246777999986,330.1246777999986,330.1246777999986,330.1246777999986,330.1246777999986,330.1246777999986,330.1246777999986,330.1246777999986,,005,P009,2025_Feb_01_1346,ConditionRich,2021.2.3,59.91683543260227,
300.75,304.0,41,0.0,Stimuli/Blank.png,0,0.0,0.0,0,129,129,129,,,,,,,,,,,,,300.76450159999877,0.014501599998766324,None,330.8753524999993,330.8753524999993,330.8753524999993,330.8753524999993,330.8753524999993,330.8753524999993,330.8753524999993,330.8753524999993,330.8753524999993,330.8753524999993,,005,P009,2025_Feb_01_1346,ConditionRich,2021.2.3,59.91683543260227,
304.0,304.75,32,0.75,Stimuli/P009/things_hawk_05s.jpg,0,0.0,0.0,0,130,130,130,,,,,,,,,,,,,304.00119020000056,0.0011902000005648006,None,334.11153790000026,334.11153790000026,334.11153790000026,334.11153790000026,334.11153790000026,334.11153790000026,334.11153790000026,334.11153790000026,334.11153790000026,334.11153790000026,,005,P009,2025_Feb_01_1346,ConditionRich,2021.2.3,59.91683543260227,
304.75,308.0,41,0.0,Stimuli/Blank.png,1,1.25,2.0,0,131,131,131,,,,,,,,,,,,,304.7512582999989,0.0012582999988808297,1,334.8622045999982,334.8622045999982,334.8622045999982,334.8622045999982,334.8622045999982,334.8622045999982,336.09667980000086,336.84732409999924,334.8622045999982,334.8622045999982,1.6402135000025737,005,P009,2025_Feb_01_1346,ConditionRich,2021.2.3,59.91683543260227,
308.0,308.75,8,0.75,Stimuli/P009/sun_batcnoizlkeiqdtx.jpg,0,0.0,0.0,0,132,132,132,,,,,,,,,,,,,308.0049265000016,0.004926500001602108,None,338.13178289999996,338.13178289999996,338.13178289999996,338.13178289999996,338.13178289999996,338.13178289999996,338.13178289999996,338.13178289999996,338.13178289999996,338.13178289999996,,005,P009,2025_Feb_01_1346,ConditionRich,2021.2.3,59.91683543260227,
308.75,312.0,41,0.0,Stimuli/Blank.png,0,0.0,0.0,0,133,133,133,,,,,,,,,,,,,308.77147870000044,0.021478700000443496,None,338.88243259999945,338.88243259999945,338.88243259999945,338.88243259999945,338.88243259999945,338.88243259999945,338.88243259999945,338.88243259999945,338.88243259999945,338.88243259999945,,005,P009,2025_Feb_01_1346,ConditionRich,2021.2.3,59.91683543260227,
312.0,312.75,31,0.75,Stimuli/P009/things_girl_05s.jpg,0,0.0,0.0,0,134,134,134,,,,,,,,,,,,,312.0106664999985,0.010666499998478685,None,342.13530909999827,342.13530909999827,342.13530909999827,342.13530909999827,342.13530909999827,342.13530909999827,342.13530909999827,342.13530909999827,342.13530909999827,342.13530909999827,,005,P009,2025_Feb_01_1346,ConditionRich,2021.2.3,59.91683543260227,
312.75,316.0,41,0.0,Stimuli/Blank.png,0,0.0,0.0,0,135,135,135,,,,,,,,,,,,,312.7757038999989,0.025703899998916313,None,342.8859455999991,342.8859455999991,342.8859455999991,342.8859455999991,342.8859455999991,342.8859455999991,342.8859455999991,342.8859455999991,342.8859455999991,342.8859455999991,,005,P009,2025_Feb_01_1346,ConditionRich,2021.2.3,59.91683543260227,
316.0,316.75,37,0.75,Stimuli/P009/things_pug_05s.jpg,0,0.0,0.0,0,136,136,136,,,,,,,,,,,,,316.01207219999924,0.012072199999238364,None,346.13884640000106,346.13884640000106,346.13884640000106,346.13884640000106,346.13884640000106,346.13884640000106,346.13884640000106,346.13884640000106,346.13884640000106,346.13884640000106,,005,P009,2025_Feb_01_1346,ConditionRich,2021.2.3,59.91683543260227,
316.75,320.0,41,0.0,Stimuli/Blank.png,1,1.25,2.0,0,137,137,137,,,,,,,,,,,,,316.77950580000106,0.02950580000106129,1,346.889525999999,346.889525999999,346.889525999999,346.889525999999,346.889525999999,346.889525999999,348.12394779999886,348.87459899999885,346.889525999999,346.889525999999,1.887707899997622,005,P009,2025_Feb_01_1346,ConditionRich,2021.2.3,59.91683543260227,
320.0,320.75,28,0.75,Stimuli/P009/things_face_05s.jpg,0,0.0,0.0,0,138,138,138,,,,,,,,,,,,,319.99885670000003,-0.0011432999999669846,None,350.1092142999987,350.1092142999987,350.1092142999987,350.1092142999987,350.1092142999987,350.1092142999987,350.1092142999987,350.1092142999987,350.1092142999987,350.1092142999987,,005,P009,2025_Feb_01_1346,ConditionRich,2021.2.3,59.91683543260227,
320.75,324.0,41,0.0,Stimuli/Blank.png,0,0.0,0.0,0,139,139,139,,,,,,,,,,,,,320.7488130999991,-0.001186900000902824,None,350.8596854999996,350.8596854999996,350.8596854999996,350.8596854999996,350.8596854999996,350.8596854999996,350.8596854999996,350.8596854999996,350.8596854999996,350.8596854999996,,005,P009,2025_Feb_01_1346,ConditionRich,2021.2.3,59.91683543260227,
324.0,324.75,33,0.75,Stimuli/P009/things_lizard_05n.jpg,0,0.0,0.0,0,140,140,140,,,,,,,,,,,,,324.00430499999857,0.004304999998566927,None,354.12931469999967,354.12931469999967,354.12931469999967,354.12931469999967,354.12931469999967,354.12931469999967,354.12931469999967,354.12931469999967,354.12931469999967,354.12931469999967,,005,P009,2025_Feb_01_1346,ConditionRich,2021.2.3,59.91683543260227,
324.75,328.0,41,0.0,Stimuli/Blank.png,0,0.0,0.0,0,141,141,141,,,,,,,,,,,,,324.77000000000044,0.020000000000436557,None,354.8799304999993,354.8799304999993,354.8799304999993,354.8799304999993,354.8799304999993,354.8799304999993,354.8799304999993,354.8799304999993,354.8799304999993,354.8799304999993,,005,P009,2025_Feb_01_1346,ConditionRich,2021.2.3,59.91683543260227,
328.0,328.75,39,0.75,Stimuli/P009/things_tiara_05s.jpg,0,0.0,0.0,0,142,142,142,,,,,,,,,,,,,328.00598159999936,0.0059815999993588775,None,358.1161042999993,358.1161042999993,358.1161042999993,358.1161042999993,358.1161042999993,358.1161042999993,358.1161042999993,358.1161042999993,358.1161042999993,358.1161042999993,,005,P009,2025_Feb_01_1346,ConditionRich,2021.2.3,59.91683543260227,
328.75,332.0,41,0.0,Stimuli/Blank.png,1,1.25,2.0,0,143,143,143,,,,,,,,,,,,,328.75597990000097,0.005979900000966154,1,358.86674779999885,358.86674779999885,358.86674779999885,358.86674779999885,358.86674779999885,358.86674779999885,360.10118599999987,360.85185999999885,358.86674779999885,358.86674779999885,1.6464082000020426,005,P009,2025_Feb_01_1346,ConditionRich,2021.2.3,59.91683543260227,
332.0,332.75,24,0.75,Stimuli/P009/things_cigar_05n.jpg,0,0.0,0.0,0,144,144,144,,,,,,,,,,,,,332.00896130000183,0.008961300001828931,None,362.1196458000013,362.1196458000013,362.1196458000013,362.1196458000013,362.1196458000013,362.1196458000013,362.1196458000013,362.1196458000013,362.1196458000013,362.1196458000013,,005,P009,2025_Feb_01_1346,ConditionRich,2021.2.3,59.91683543260227,
332.75,336.0,41,0.0,Stimuli/Blank.png,0,0.0,0.0,0,145,145,145,,,,,,,,,,,,,332.76098020000063,0.010980200000631157,None,362.870315199998,362.870315199998,362.870315199998,362.870315199998,362.870315199998,362.870315199998,362.870315199998,362.870315199998,362.870315199998,362.870315199998,,005,P009,2025_Feb_01_1346,ConditionRich,2021.2.3,59.91683543260227,
336.0,336.75,19,0.75,Stimuli/P009/sun_bwvfnogmotsvhofs.jpg,0,0.0,0.0,0,146,146,146,,,,,,,,,,,,,336.01451019999877,0.014510199998767348,None,366.1398740000004,366.1398740000004,366.1398740000004,366.1398740000004,366.1398740000004,366.1398740000004,366.1398740000004,366.1398740000004,366.1398740000004,366.1398740000004,,005,P009,2025_Feb_01_1346,ConditionRich,2021.2.3,59.91683543260227,
336.75,340.0,41,0.0,Stimuli/Blank.png,0,0.0,0.0,0,147,147,147,,,,,,,,,,,,,336.7801858999992,0.03018589999919641,None,366.89051149999796,366.89051149999796,366.89051149999796,366.89051149999796,366.89051149999796,366.89051149999796,366.89051149999796,366.89051149999796,366.89051149999796,366.89051149999796,,005,P009,2025_Feb_01_1346,ConditionRich,2021.2.3,59.91683543260227,
340.0,340.75,5,0.75,Stimuli/P009/sun_akqvdmuauoxeafrj.jpg,0,0.0,0.0,0,148,148,148,,,,,,,,,,,,,340.0006538999987,0.0006538999987242278,None,370.12725259999934,370.12725259999934,370.12725259999934,370.12725259999934,370.12725259999934,370.12725259999934,370.12725259999934,370.12725259999934,370.12725259999934,370.12725259999934,,005,P009,2025_Feb_01_1346,ConditionRich,2021.2.3,59.91683543260227,
340.75,344.0,41,0.0,Stimuli/Blank.png,0,0.0,0.0,0,149,149,149,,,,,,,,,,,,,340.76721109999926,0.017211099999258295,None,370.8774259999991,370.8774259999991,370.8774259999991,370.8774259999991,370.8774259999991,370.8774259999991,370.8774259999991,370.8774259999991,370.8774259999991,370.8774259999991,,005,P009,2025_Feb_01_1346,ConditionRich,2021.2.3,59.91683543260227,
344.0,344.75,13,0.75,Stimuli/P009/sun_bjimvgwadfodioes.jpg,0,0.0,0.0,0,150,150,150,,,,,,,,,,,,,344.00466289999895,0.004662899998947978,None,374.1302926999997,374.1302926999997,374.1302926999997,374.1302926999997,374.1302926999997,374.1302926999997,374.1302926999997,374.1302926999997,374.1302926999997,374.1302926999997,,005,P009,2025_Feb_01_1346,ConditionRich,2021.2.3,59.91683543260227,
344.75,348.0,41,0.0,Stimuli/Blank.png,0,0.0,0.0,0,151,151,151,,,,,,,,,,,,,344.7701065000001,0.020106500000110827,None,374.8809149999979,374.8809149999979,374.8809149999979,374.8809149999979,374.8809149999979,374.8809149999979,374.8809149999979,374.8809149999979,374.8809149999979,374.8809149999979,,005,P009,2025_Feb_01_1346,ConditionRich,2021.2.3,59.91683543260227,
348.0,348.75,12,0.75,Stimuli/P009/sun_birmwgkdtrlevcaf.jpg,0,0.0,0.0,0,152,152,152,,,,,,,,,,,,,348.00781300000017,0.007813000000169268,None,378.1338160999985,378.1338160999985,378.1338160999985,378.1338160999985,378.1338160999985,378.1338160999985,378.1338160999985,378.1338160999985,378.1338160999985,378.1338160999985,,005,P009,2025_Feb_01_1346,ConditionRich,2021.2.3,59.91683543260227,
348.75,352.0,41,0.0,Stimuli/Blank.png,0,0.0,0.0,0,153,153,153,,,,,,,,,,,,,348.7734481000007,0.023448100000678096,None,378.8844800000006,378.8844800000006,378.8844800000006,378.8844800000006,378.8844800000006,378.8844800000006,378.8844800000006,378.8844800000006,378.8844800000006,378.8844800000006,,005,P009,2025_Feb_01_1346,ConditionRich,2021.2.3,59.91683543260227,
352.0,352.75,22,0.75,Stimuli/P009/things_butterfly_05s.jpg,0,0.0,0.0,0,154,154,154,,,,,,,,,,,,,352.01002100000187,0.010021000001870561,None,382.1206667000006,382.1206667000006,382.1206667000006,382.1206667000006,382.1206667000006,382.1206667000006,382.1206667000006,382.1206667000006,382.1206667000006,382.1206667000006,,005,P009,2025_Feb_01_1346,ConditionRich,2021.2.3,59.91683543260227,
352.75,356.0,41,0.0,Stimuli/Blank.png,0,0.0,0.0,0,155,155,155,,,,,,,,,,,,,352.7604054000003,0.010405400000308873,None,382.8713328999984,382.8713328999984,382.8713328999984,382.8713328999984,382.8713328999984,382.8713328999984,382.8713328999984,382.8713328999984,382.8713328999984,382.8713328999984,,005,P009,2025_Feb_01_1346,ConditionRich,2021.2.3,59.91683543260227,
356.0,356.75,10,0.75,Stimuli/P009/sun_bdkttewvyfdarikm.jpg,0,0.0,0.0,0,156,156,156,,,,,,,,,,,,,356.01417760000186,0.014177600001858082,None,386.14089160000003,386.14089160000003,386.14089160000003,386.14089160000003,386.14089160000003,386.14089160000003,386.14089160000003,386.14089160000003,386.14089160000003,386.14089160000003,,005,P009,2025_Feb_01_1346,ConditionRich,2021.2.3,59.91683543260227,
356.75,360.0,41,0.0,Stimuli/Blank.png,1,2.25,3.0,0,157,157,157,,,,,,,,,,,,,356.78056260000085,0.03056260000084876,1,386.8915510000006,386.8915510000006,386.8915510000006,386.8915510000006,386.8915510000006,386.8915510000006,389.12692329999845,389.8775840999988,386.8915510000006,386.8915510000006,2.6675955000027898,005,P009,2025_Feb_01_1346,ConditionRich,2021.2.3,59.91683543260227,
360.0,360.75,38,0.75,Stimuli/P009/things_roadsweeper_05s.jpg,0,0.0,0.0,0,158,158,158,,,,,,,,,,,,,360.00071079999907,0.0007107999990694225,None,390.1277769999979,390.1277769999979,390.1277769999979,390.1277769999979,390.1277769999979,390.1277769999979,390.1277769999979,390.1277769999979,390.1277769999979,390.1277769999979,,005,P009,2025_Feb_01_1346,ConditionRich,2021.2.3,59.91683543260227,
360.75,364.0,41,0.0,Stimuli/Blank.png,1,2.25,3.0,0,159,159,159,,,,,,,,,,,,,360.76837349999914,0.01837349999914295,1,390.87846659999923,390.87846659999923,390.87846659999923,390.87846659999923,390.87846659999923,390.87846659999923,393.1137305000011,393.8643916000001,390.87846659999923,390.87846659999923,2.609870000000228,005,P009,2025_Feb_01_1346,ConditionRich,2021.2.3,59.91683543260227,
364.0,364.75,20,0.75,Stimuli/P009/sun_ddsiwinthvyejghq.jpg,0,0.0,0.0,0,160,160,160,,,,,,,,,,,,,364.0037086000011,0.0037086000011186115,None,394.1146026999995,394.1146026999995,394.1146026999995,394.1146026999995,394.1146026999995,394.1146026999995,394.1146026999995,394.1146026999995,394.1146026999995,394.1146026999995,,005,P009,2025_Feb_01_1346,ConditionRich,2021.2.3,59.91683543260227,
364.75,368.0,41,0.0,Stimuli/Blank.png,0,0.0,0.0,0,161,161,161,,,,,,,,,,,,,364.75470700000005,0.004707000000053085,None,394.8652727000008,394.8652727000008,394.8652727000008,394.8652727000008,394.8652727000008,394.8652727000008,394.8652727000008,394.8652727000008,394.8652727000008,394.8652727000008,,005,P009,2025_Feb_01_1346,ConditionRich,2021.2.3,59.91683543260227,
368.0,368.75,23,0.75,Stimuli/P009/things_charger_05s.jpg,0,0.0,0.0,0,162,162,162,,,,,,,,,,,,,368.00978190000023,0.0097819000002346,None,398.1348445000003,398.1348445000003,398.1348445000003,398.1348445000003,398.1348445000003,398.1348445000003,398.1348445000003,398.1348445000003,398.1348445000003,398.1348445000003,,005,P009,2025_Feb_01_1346,ConditionRich,2021.2.3,59.91683543260227,
368.75,372.0,41,0.0,Stimuli/Blank.png,0,0.0,0.0,0,163,163,163,,,,,,,,,,,,,368.7745576999987,0.02455769999869517,None,398.8854993999994,398.8854993999994,398.8854993999994,398.8854993999994,398.8854993999994,398.8854993999994,398.8854993999994,398.8854993999994,398.8854993999994,398.8854993999994,,005,P009,2025_Feb_01_1346,ConditionRich,2021.2.3,59.91683543260227,
372.0,388.0,0,0.0,Stimuli/Blank.png,1,6.0,6.75,0,164,164,164,,,,,,,,,,,,,372.0111852000009,0.01118520000090939,1,402.1216940999984,402.1216940999984,402.1216940999984,402.1216940999984,402.1216940999984,402.1216940999984,408.1103256999995,408.86187810000047,402.1216940999984,402.1216940999984,6.588622200000827,005,P009,2025_Feb_01_1346,ConditionRich,2021.2.3,59.91683543260227,
