eventStartTime,eventEndTime,eventCond,imSize,imFile,responseEvent,fixRespStart,fixRespEnd,Events.thisRepN,Events.thisTrialN,Events.thisN,Events.thisIndex,Instructions.started,Instructions.stopped,participantReadyResponse.keys,participantReadyResponse.rt,participantReadyResponse.started,participantReadyResponse.stopped,startWaitforTrigger,triggerResponse.keys,triggerResponse.rt,triggerResponse.started,triggerResponse.stopped,globalTimer,actualStartTime,startTimingDiff,participantResponse.keys,participantResponse.started,participantResponse.stopped,image.started,image.stopped,fixationOutside.started,fixationOutside.stopped,fixationResponse.started,fixationResponse.stopped,fixationInside.started,fixationInside.stopped,participantResponse.rt,session,participant,date,expName,psychopyVersion,frameRate,
,,,,,,,,,,,,10.754171699998551,None,1,8.264401199998247,10.754171699998551,None,,,,,,,,,,,,,,,,,,,,,003,P009,2025_Feb_01_1325,ConditionRich,2021.2.3,59.93967670969701,
,,,,,,,,,,,,,,,,,,19.03451169999971,5,13.71142719999989,19.04714359999707,None,,,,,,,,,,,,,,,,003,P009,2025_Feb_01_1325,ConditionRich,2021.2.3,59.93967670969701,
0.0,4.0,0,0.0,Stimuli/Blank.png,0,0,0.0,0,0,0,0,,,,,,,,,,,,32.76247019999937,0.037074799998663366,0.037074799998663366,None,32.80928639999911,None,32.80928639999911,None,32.80928639999911,None,32.80928639999911,32.80928639999911,32.80928639999911,None,,003,P009,2025_Feb_01_1325,ConditionRich,2021.2.3,59.93967670969701,
4.0,4.75,1,0.75,Stimuli/P009/sun_abqdlumenyzawlme.jpg,0,0,0.0,0,1,1,1,,,,,,,,,,,,,4.008689999998751,0.008689999998750864,None,36.79635269999926,36.79635269999926,36.79635269999926,36.79635269999926,36.79635269999926,36.79635269999926,36.79635269999926,36.79635269999926,36.79635269999926,36.79635269999926,,003,P009,2025_Feb_01_1325,ConditionRich,2021.2.3,59.93967670969701,
4.75,5.0,41,0.0,Stimuli/Blank.png,0,0,0.0,0,2,2,2,,,,,,,,,,,,,4.770398399999976,0.02039839999997639,None,37.5470951999996,37.5470951999996,37.5470951999996,37.5470951999996,37.5470951999996,37.5470951999996,37.5470951999996,37.5470951999996,37.5470951999996,37.5470951999996,,003,P009,2025_Feb_01_1325,ConditionRich,2021.2.3,59.93967670969701,
5.0,5.75,1,0.75,Stimuli/P009/sun_abqdlumenyzawlme.jpg,0,0,0.0,0,3,3,3,,,,,,,,,,,,,5.004540899997664,0.004540899997664383,None,37.78035309999905,37.78035309999905,37.78035309999905,37.78035309999905,37.78035309999905,37.78035309999905,37.78035309999905,37.78035309999905,37.78035309999905,37.78035309999905,,003,P009,2025_Feb_01_1325,ConditionRich,2021.2.3,59.93967670969701,
5.75,6.0,41,0.0,Stimuli/Blank.png,0,0,0.0,0,4,4,4,,,,,,,,,,,,,5.755428799999208,0.005428799999208422,None,38.53117849999762,38.53117849999762,38.53117849999762,38.53117849999762,38.53117849999762,38.53117849999762,38.53117849999762,38.53117849999762,38.53117849999762,38.53117849999762,,003,P009,2025_Feb_01_1325,ConditionRich,2021.2.3,59.93967670969701,
6.0,6.75,1,0.75,Stimuli/P009/sun_abqdlumenyzawlme.jpg,0,0,0.0,0,5,5,5,,,,,,,,,,,,,6.005450900000142,0.005450900000141701,None,38.781356499999674,38.781356499999674,38.781356499999674,38.781356499999674,38.781356499999674,38.781356499999674,38.781356499999674,38.781356499999674,38.781356499999674,38.781356499999674,,003,P009,2025_Feb_01_1325,ConditionRich,2021.2.3,59.93967670969701,
6.75,7.0,41,0.0,Stimuli/Blank.png,0,0,0.0,0,6,6,6,,,,,,,,,,,,,6.754899599996861,0.00489959999686107,None,39.5320114999995,39.5320114999995,39.5320114999995,39.5320114999995,39.5320114999995,39.5320114999995,39.5320114999995,39.5320114999995,39.5320114999995,39.5320114999995,,003,P009,2025_Feb_01_1325,ConditionRich,2021.2.3,59.93967670969701,
7.0,7.75,1,0.75,Stimuli/P009/sun_abqdlumenyzawlme.jpg,0,0,0.0,0,7,7,7,,,,,,,,,,,,,7.00511799999731,0.005117999997310108,None,39.78222479999749,39.78222479999749,39.78222479999749,39.78222479999749,39.78222479999749,39.78222479999749,39.78222479999749,39.78222479999749,39.78222479999749,39.78222479999749,,003,P009,2025_Feb_01_1325,ConditionRich,2021.2.3,59.93967670969701,
7.75,8.0,41,0.0,Stimuli/Blank.png,0,0,0.0,0,8,8,8,,,,,,,,,,,,,7.755765699999756,0.00576569999975618,None,40.532952899997326,40.532952899997326,40.532952899997326,40.532952899997326,40.532952899997326,40.532952899997326,40.532952899997326,40.532952899997326,40.532952899997326,40.532952899997326,,003,P009,2025_Feb_01_1325,ConditionRich,2021.2.3,59.93967670969701,
8.0,8.75,9,0.75,Stimuli/P009/sun_bdjkvwqqqycuixtc.jpg,0,0,0.0,0,9,9,9,,,,,,,,,,,,,8.006226599998627,0.006226599998626625,None,40.78312969999752,40.78312969999752,40.78312969999752,40.78312969999752,40.78312969999752,40.78312969999752,40.78312969999752,40.78312969999752,40.78312969999752,40.78312969999752,,003,P009,2025_Feb_01_1325,ConditionRich,2021.2.3,59.93967670969701,
8.75,9.0,41,0.0,Stimuli/Blank.png,0,0,0.0,0,10,10,10,,,,,,,,,,,,,8.756709899997077,0.006709899997076718,None,41.53381829999853,41.53381829999853,41.53381829999853,41.53381829999853,41.53381829999853,41.53381829999853,41.53381829999853,41.53381829999853,41.53381829999853,41.53381829999853,,003,P009,2025_Feb_01_1325,ConditionRich,2021.2.3,59.93967670969701,
9.0,9.75,9,0.75,Stimuli/P009/sun_bdjkvwqqqycuixtc.jpg,0,0,0.0,0,11,11,11,,,,,,,,,,,,,9.009676300000137,0.009676300000137417,None,41.80072819999987,41.80072819999987,41.80072819999987,41.80072819999987,41.80072819999987,41.80072819999987,41.80072819999987,41.80072819999987,41.80072819999987,41.80072819999987,,003,P009,2025_Feb_01_1325,ConditionRich,2021.2.3,59.93967670969701,
9.75,10.0,41,0.0,Stimuli/Blank.png,0,0,0.0,0,12,12,12,,,,,,,,,,,,,9.775001599999086,0.025001599999086466,None,42.55139479999707,42.55139479999707,42.55139479999707,42.55139479999707,42.55139479999707,42.55139479999707,42.55139479999707,42.55139479999707,42.55139479999707,42.55139479999707,,003,P009,2025_Feb_01_1325,ConditionRich,2021.2.3,59.93967670969701,
10.0,10.75,9,0.75,Stimuli/P009/sun_bdjkvwqqqycuixtc.jpg,0,0,0.0,0,13,13,13,,,,,,,,,,,,,10.008463799997116,0.008463799997116439,None,42.80184439999721,42.80184439999721,42.80184439999721,42.80184439999721,42.80184439999721,42.80184439999721,42.80184439999721,42.80184439999721,42.80184439999721,42.80184439999721,,003,P009,2025_Feb_01_1325,ConditionRich,2021.2.3,59.93967670969701,
10.75,11.0,41,0.0,Stimuli/Blank.png,0,0,0.0,0,14,14,14,,,,,,,,,,,,,10.77526979999675,0.025269799996749498,None,43.552348899997014,43.552348899997014,43.552348899997014,43.552348899997014,43.552348899997014,43.552348899997014,43.552348899997014,43.552348899997014,43.552348899997014,43.552348899997014,,003,P009,2025_Feb_01_1325,ConditionRich,2021.2.3,59.93967670969701,
11.0,11.75,9,0.75,Stimuli/P009/sun_bdjkvwqqqycuixtc.jpg,0,0,0.0,0,15,15,15,,,,,,,,,,,,,11.008809299997665,0.008809299997665221,None,43.78589400000055,43.78589400000055,43.78589400000055,43.78589400000055,43.78589400000055,43.78589400000055,43.78589400000055,43.78589400000055,43.78589400000055,43.78589400000055,,003,P009,2025_Feb_01_1325,ConditionRich,2021.2.3,59.93967670969701,
11.75,12.0,41,0.0,Stimuli/Blank.png,0,0,0.0,0,16,16,16,,,,,,,,,,,,,11.760222499997326,0.01022249999732594,None,44.5365598999997,44.5365598999997,44.5365598999997,44.5365598999997,44.5365598999997,44.5365598999997,44.5365598999997,44.5365598999997,44.5365598999997,44.5365598999997,,003,P009,2025_Feb_01_1325,ConditionRich,2021.2.3,59.93967670969701,
12.0,12.75,28,0.75,Stimuli/P009/things_face_05s.jpg,0,0,0.0,0,17,17,17,,,,,,,,,,,,,12.00976079999964,0.009760799999639858,None,44.78678349999973,44.78678349999973,44.78678349999973,44.78678349999973,44.78678349999973,44.78678349999973,44.78678349999973,44.78678349999973,44.78678349999973,44.78678349999973,,003,P009,2025_Feb_01_1325,ConditionRich,2021.2.3,59.93967670969701,
12.75,13.0,41,0.0,Stimuli/Blank.png,0,0,0.0,0,18,18,18,,,,,,,,,,,,,12.760317399999622,0.010317399999621557,None,45.537440799998876,45.537440799998876,45.537440799998876,45.537440799998876,45.537440799998876,45.537440799998876,45.537440799998876,45.537440799998876,45.537440799998876,45.537440799998876,,003,P009,2025_Feb_01_1325,ConditionRich,2021.2.3,59.93967670969701,
13.0,13.75,28,0.75,Stimuli/P009/things_face_05s.jpg,0,0,0.0,0,19,19,19,,,,,,,,,,,,,13.010671699998056,0.010671699998056283,None,45.78766369999721,45.78766369999721,45.78766369999721,45.78766369999721,45.78766369999721,45.78766369999721,45.78766369999721,45.78766369999721,45.78766369999721,45.78766369999721,,003,P009,2025_Feb_01_1325,ConditionRich,2021.2.3,59.93967670969701,
13.75,14.0,41,0.0,Stimuli/Blank.png,0,0,0.0,0,20,20,20,,,,,,,,,,,,,13.762009999998554,0.012009999998554122,None,46.538406399999076,46.538406399999076,46.538406399999076,46.538406399999076,46.538406399999076,46.538406399999076,46.538406399999076,46.538406399999076,46.538406399999076,46.538406399999076,,003,P009,2025_Feb_01_1325,ConditionRich,2021.2.3,59.93967670969701,
14.0,14.75,28,0.75,Stimuli/P009/things_face_05s.jpg,0,0,0.0,0,21,21,21,,,,,,,,,,,,,14.012519899999461,0.012519899999460904,None,46.805230899997696,46.805230899997696,46.805230899997696,46.805230899997696,46.805230899997696,46.805230899997696,46.805230899997696,46.805230899997696,46.805230899997696,46.805230899997696,,003,P009,2025_Feb_01_1325,ConditionRich,2021.2.3,59.93967670969701,
14.75,15.0,41,0.0,Stimuli/Blank.png,0,0,0.0,0,22,22,22,,,,,,,,,,,,,14.778762599999027,0.02876259999902686,None,47.555934899999556,47.555934899999556,47.555934899999556,47.555934899999556,47.555934899999556,47.555934899999556,47.555934899999556,47.555934899999556,47.555934899999556,47.555934899999556,,003,P009,2025_Feb_01_1325,ConditionRich,2021.2.3,59.93967670969701,
15.0,15.75,28,0.75,Stimuli/P009/things_face_05s.jpg,0,0,0.0,0,23,23,23,,,,,,,,,,,,,15.014486099997157,0.014486099997156998,None,47.806129699998564,47.806129699998564,47.806129699998564,47.806129699998564,47.806129699998564,47.806129699998564,47.806129699998564,47.806129699998564,47.806129699998564,47.806129699998564,,003,P009,2025_Feb_01_1325,ConditionRich,2021.2.3,59.93967670969701,
15.75,16.0,41,0.0,Stimuli/Blank.png,0,0,0.0,0,24,24,24,,,,,,,,,,,,,15.781037699998706,0.031037699998705648,None,48.55679669999881,48.55679669999881,48.55679669999881,48.55679669999881,48.55679669999881,48.55679669999881,48.55679669999881,48.55679669999881,48.55679669999881,48.55679669999881,,003,P009,2025_Feb_01_1325,ConditionRich,2021.2.3,59.93967670969701,
16.0,16.75,16,0.75,Stimuli/P009/sun_bqpyqljaflidcauh.jpg,0,0,0.0,0,25,25,25,,,,,,,,,,,,,16.013589299996966,0.013589299996965565,None,48.79031910000049,48.79031910000049,48.79031910000049,48.79031910000049,48.79031910000049,48.79031910000049,48.79031910000049,48.79031910000049,48.79031910000049,48.79031910000049,,003,P009,2025_Feb_01_1325,ConditionRich,2021.2.3,59.93967670969701,
16.75,17.0,41,0.0,Stimuli/Blank.png,0,0,0.0,0,26,26,26,,,,,,,,,,,,,16.764942499998142,0.014942499998142011,None,49.54098869999871,49.54098869999871,49.54098869999871,49.54098869999871,49.54098869999871,49.54098869999871,49.54098869999871,49.54098869999871,49.54098869999871,49.54098869999871,,003,P009,2025_Feb_01_1325,ConditionRich,2021.2.3,59.93967670969701,
17.0,17.75,16,0.75,Stimuli/P009/sun_bqpyqljaflidcauh.jpg,0,0,0.0,0,27,27,27,,,,,,,,,,,,,17.01413539999703,0.014135399997030618,None,49.79123519999848,49.79123519999848,49.79123519999848,49.79123519999848,49.79123519999848,49.79123519999848,49.79123519999848,49.79123519999848,49.79123519999848,49.79123519999848,,003,P009,2025_Feb_01_1325,ConditionRich,2021.2.3,59.93967670969701,
17.75,18.0,41,0.0,Stimuli/Blank.png,0,0,0.0,0,28,28,28,,,,,,,,,,,,,17.76626639999813,0.01626639999813051,None,50.54187639999873,50.54187639999873,50.54187639999873,50.54187639999873,50.54187639999873,50.54187639999873,50.54187639999873,50.54187639999873,50.54187639999873,50.54187639999873,,003,P009,2025_Feb_01_1325,ConditionRich,2021.2.3,59.93967670969701,
18.0,18.75,16,0.75,Stimuli/P009/sun_bqpyqljaflidcauh.jpg,0,0,0.0,0,29,29,29,,,,,,,,,,,,,17.99920959999872,-0.0007904000012786128,None,50.79210289999901,50.79210289999901,50.79210289999901,50.79210289999901,50.79210289999901,50.79210289999901,50.79210289999901,50.79210289999901,50.79210289999901,50.79210289999901,,003,P009,2025_Feb_01_1325,ConditionRich,2021.2.3,59.93967670969701,
18.75,19.0,41,0.0,Stimuli/Blank.png,0,0,0.0,0,30,30,30,,,,,,,,,,,,,18.765791399997397,0.015791399997397093,None,51.542772999997396,51.542772999997396,51.542772999997396,51.542772999997396,51.542772999997396,51.542772999997396,51.542772999997396,51.542772999997396,51.542772999997396,51.542772999997396,,003,P009,2025_Feb_01_1325,ConditionRich,2021.2.3,59.93967670969701,
19.0,19.75,16,0.75,Stimuli/P009/sun_bqpyqljaflidcauh.jpg,0,0,0.0,0,31,31,31,,,,,,,,,,,,,19.000381699999707,0.0003816999997070525,None,51.7929781999992,51.7929781999992,51.7929781999992,51.7929781999992,51.7929781999992,51.7929781999992,51.7929781999992,51.7929781999992,51.7929781999992,51.7929781999992,,003,P009,2025_Feb_01_1325,ConditionRich,2021.2.3,59.93967670969701,
19.75,20.0,41,0.0,Stimuli/Blank.png,0,0,0.0,0,32,32,32,,,,,,,,,,,,,19.767210799996974,0.017210799996973947,None,52.543717799999285,52.543717799999285,52.543717799999285,52.543717799999285,52.543717799999285,52.543717799999285,52.543717799999285,52.543717799999285,52.543717799999285,52.543717799999285,,003,P009,2025_Feb_01_1325,ConditionRich,2021.2.3,59.93967670969701,
20.0,20.75,14,0.75,Stimuli/P009/sun_blaqxdebghixzyyw.jpg,0,0,0.0,0,33,33,33,,,,,,,,,,,,,20.000264700000116,0.0002647000001161359,None,52.777142200000526,52.777142200000526,52.777142200000526,52.777142200000526,52.777142200000526,52.777142200000526,52.777142200000526,52.777142200000526,52.777142200000526,52.777142200000526,,003,P009,2025_Feb_01_1325,ConditionRich,2021.2.3,59.93967670969701,
20.75,21.0,41,0.0,Stimuli/Blank.png,0,0,0.0,0,34,34,34,,,,,,,,,,,,,20.751448699997127,0.0014486999971268233,None,53.52785059999951,53.52785059999951,53.52785059999951,53.52785059999951,53.52785059999951,53.52785059999951,53.52785059999951,53.52785059999951,53.52785059999951,53.52785059999951,,003,P009,2025_Feb_01_1325,ConditionRich,2021.2.3,59.93967670969701,
21.0,21.75,14,0.75,Stimuli/P009/sun_blaqxdebghixzyyw.jpg,0,0,0.0,0,35,35,35,,,,,,,,,,,,,21.001096799998777,0.0010967999987769872,None,53.778070799999114,53.778070799999114,53.778070799999114,53.778070799999114,53.778070799999114,53.778070799999114,53.778070799999114,53.778070799999114,53.778070799999114,53.778070799999114,,003,P009,2025_Feb_01_1325,ConditionRich,2021.2.3,59.93967670969701,
21.75,22.0,41,0.0,Stimuli/Blank.png,0,0,0.0,0,36,36,36,,,,,,,,,,,,,21.75162300000011,0.001623000000108732,None,54.52873849999742,54.52873849999742,54.52873849999742,54.52873849999742,54.52873849999742,54.52873849999742,54.52873849999742,54.52873849999742,54.52873849999742,54.52873849999742,,003,P009,2025_Feb_01_1325,ConditionRich,2021.2.3,59.93967670969701,
22.0,22.75,14,0.75,Stimuli/P009/sun_blaqxdebghixzyyw.jpg,0,0,0.0,0,37,37,37,,,,,,,,,,,,,22.00203109999711,0.002031099997111596,None,54.79565290000028,54.79565290000028,54.79565290000028,54.79565290000028,54.79565290000028,54.79565290000028,54.79565290000028,54.79565290000028,54.79565290000028,54.79565290000028,,003,P009,2025_Feb_01_1325,ConditionRich,2021.2.3,59.93967670969701,
22.75,23.0,41,0.0,Stimuli/Blank.png,0,0,0.0,0,38,38,38,,,,,,,,,,,,,22.769884899997123,0.019884899997123284,None,55.54630349999934,55.54630349999934,55.54630349999934,55.54630349999934,55.54630349999934,55.54630349999934,55.54630349999934,55.54630349999934,55.54630349999934,55.54630349999934,,003,P009,2025_Feb_01_1325,ConditionRich,2021.2.3,59.93967670969701,
23.0,23.75,14,0.75,Stimuli/P009/sun_blaqxdebghixzyyw.jpg,0,0,0.0,0,39,39,39,,,,,,,,,,,,,23.003463400000328,0.0034634000003279652,None,55.77983839999797,55.77983839999797,55.77983839999797,55.77983839999797,55.77983839999797,55.77983839999797,55.77983839999797,55.77983839999797,55.77983839999797,55.77983839999797,,003,P009,2025_Feb_01_1325,ConditionRich,2021.2.3,59.93967670969701,
23.75,24.0,41,0.0,Stimuli/Blank.png,0,0,0.0,0,40,40,40,,,,,,,,,,,,,23.75440829999934,0.00440829999934067,None,56.53051769999729,56.53051769999729,56.53051769999729,56.53051769999729,56.53051769999729,56.53051769999729,56.53051769999729,56.53051769999729,56.53051769999729,56.53051769999729,,003,P009,2025_Feb_01_1325,ConditionRich,2021.2.3,59.93967670969701,
24.0,24.75,18,0.75,Stimuli/P009/sun_bwjdahsxcqepqqbm.jpg,0,0,0.0,0,41,41,41,,,,,,,,,,,,,24.004161299999396,0.004161299999395851,None,56.78074469999774,56.78074469999774,56.78074469999774,56.78074469999774,56.78074469999774,56.78074469999774,56.78074469999774,56.78074469999774,56.78074469999774,56.78074469999774,,003,P009,2025_Feb_01_1325,ConditionRich,2021.2.3,59.93967670969701,
24.75,25.0,41,0.0,Stimuli/Blank.png,0,0,0.0,0,42,42,42,,,,,,,,,,,,,24.754375299999083,0.004375299999082927,None,57.531392900000355,57.531392900000355,57.531392900000355,57.531392900000355,57.531392900000355,57.531392900000355,57.531392900000355,57.531392900000355,57.531392900000355,57.531392900000355,,003,P009,2025_Feb_01_1325,ConditionRich,2021.2.3,59.93967670969701,
25.0,25.75,18,0.75,Stimuli/P009/sun_bwjdahsxcqepqqbm.jpg,0,0,0.0,0,43,43,43,,,,,,,,,,,,,25.005249199999525,0.005249199999525445,None,57.78162069999962,57.78162069999962,57.78162069999962,57.78162069999962,57.78162069999962,57.78162069999962,57.78162069999962,57.78162069999962,57.78162069999962,57.78162069999962,,003,P009,2025_Feb_01_1325,ConditionRich,2021.2.3,59.93967670969701,
25.75,26.0,41,0.0,Stimuli/Blank.png,0,0,0.0,0,44,44,44,,,,,,,,,,,,,25.75614889999997,0.006148899999971036,None,58.532280499999615,58.532280499999615,58.532280499999615,58.532280499999615,58.532280499999615,58.532280499999615,58.532280499999615,58.532280499999615,58.532280499999615,58.532280499999615,,003,P009,2025_Feb_01_1325,ConditionRich,2021.2.3,59.93967670969701,
26.0,26.75,18,0.75,Stimuli/P009/sun_bwjdahsxcqepqqbm.jpg,0,0,0.0,0,45,45,45,,,,,,,,,,,,,26.005626099999063,0.005626099999062717,None,58.78246189999845,58.78246189999845,58.78246189999845,58.78246189999845,58.78246189999845,58.78246189999845,58.78246189999845,58.78246189999845,58.78246189999845,58.78246189999845,,003,P009,2025_Feb_01_1325,ConditionRich,2021.2.3,59.93967670969701,
26.75,27.0,41,0.0,Stimuli/Blank.png,0,0,0.0,0,46,46,46,,,,,,,,,,,,,26.756770899999538,0.006770899999537505,None,59.53322130000015,59.53322130000015,59.53322130000015,59.53322130000015,59.53322130000015,59.53322130000015,59.53322130000015,59.53322130000015,59.53322130000015,59.53322130000015,,003,P009,2025_Feb_01_1325,ConditionRich,2021.2.3,59.93967670969701,
27.0,27.75,18,0.75,Stimuli/P009/sun_bwjdahsxcqepqqbm.jpg,0,0,0.0,0,47,47,47,,,,,,,,,,,,,27.006432700000005,0.006432700000004843,None,59.78339149999738,59.78339149999738,59.78339149999738,59.78339149999738,59.78339149999738,59.78339149999738,59.78339149999738,59.78339149999738,59.78339149999738,59.78339149999738,,003,P009,2025_Feb_01_1325,ConditionRich,2021.2.3,59.93967670969701,
27.75,28.0,41,0.0,Stimuli/Blank.png,0,0,0.0,0,48,48,48,,,,,,,,,,,,,27.75969989999794,0.00969989999794052,None,60.55073419999826,60.55073419999826,60.55073419999826,60.55073419999826,60.55073419999826,60.55073419999826,60.55073419999826,60.55073419999826,60.55073419999826,60.55073419999826,,003,P009,2025_Feb_01_1325,ConditionRich,2021.2.3,59.93967670969701,
28.0,28.75,20,0.75,Stimuli/P009/sun_ddsiwinthvyejghq.jpg,0,0,0.0,0,49,49,49,,,,,,,,,,,,,28.024648099999467,0.024648099999467377,None,60.800959399999556,60.800959399999556,60.800959399999556,60.800959399999556,60.800959399999556,60.800959399999556,60.800959399999556,60.800959399999556,60.800959399999556,60.800959399999556,,003,P009,2025_Feb_01_1325,ConditionRich,2021.2.3,59.93967670969701,
28.75,29.0,41,0.0,Stimuli/Blank.png,0,0,0.0,0,50,50,50,,,,,,,,,,,,,28.757777899998473,0.0077778999984730035,None,61.53495149999799,61.53495149999799,61.53495149999799,61.53495149999799,61.53495149999799,61.53495149999799,61.53495149999799,61.53495149999799,61.53495149999799,61.53495149999799,,003,P009,2025_Feb_01_1325,ConditionRich,2021.2.3,59.93967670969701,
29.0,29.75,20,0.75,Stimuli/P009/sun_ddsiwinthvyejghq.jpg,1,0,0.75,0,51,51,51,,,,,,,,,,,,,29.010025499999756,0.010025499999755993,1,61.80184389999704,61.80184389999704,61.80184389999704,61.80184389999704,61.80184389999704,61.80184389999704,61.80184389999704,62.53581259999919,61.80184389999704,61.80184389999704,0.41970969999965746,003,P009,2025_Feb_01_1325,ConditionRich,2021.2.3,59.93967670969701,
29.75,30.0,41,0.0,Stimuli/Blank.png,0,0,0.0,0,52,52,52,,,,,,,,,,,,,29.775905200000125,0.02590520000012475,None,62.552495299998554,62.552495299998554,62.552495299998554,62.552495299998554,62.552495299998554,62.552495299998554,62.552495299998554,62.552495299998554,62.552495299998554,62.552495299998554,,003,P009,2025_Feb_01_1325,ConditionRich,2021.2.3,59.93967670969701,
30.0,30.75,20,0.75,Stimuli/P009/sun_ddsiwinthvyejghq.jpg,0,0,0.0,0,53,53,53,,,,,,,,,,,,,30.009621299999708,0.009621299999707844,None,62.78603909999947,62.78603909999947,62.78603909999947,62.78603909999947,62.78603909999947,62.78603909999947,62.78603909999947,62.78603909999947,62.78603909999947,62.78603909999947,,003,P009,2025_Feb_01_1325,ConditionRich,2021.2.3,59.93967670969701,
30.75,31.0,41,0.0,Stimuli/Blank.png,0,0,0.0,0,54,54,54,,,,,,,,,,,,,30.76030699999683,0.010306999996828381,None,63.53672000000006,63.53672000000006,63.53672000000006,63.53672000000006,63.53672000000006,63.53672000000006,63.53672000000006,63.53672000000006,63.53672000000006,63.53672000000006,,003,P009,2025_Feb_01_1325,ConditionRich,2021.2.3,59.93967670969701,
31.0,31.75,20,0.75,Stimuli/P009/sun_ddsiwinthvyejghq.jpg,0,0,0.0,0,55,55,55,,,,,,,,,,,,,31.010089999999764,0.010089999999763677,None,63.78693489999932,63.78693489999932,63.78693489999932,63.78693489999932,63.78693489999932,63.78693489999932,63.78693489999932,63.78693489999932,63.78693489999932,63.78693489999932,,003,P009,2025_Feb_01_1325,ConditionRich,2021.2.3,59.93967670969701,
31.75,32.0,41,0.0,Stimuli/Blank.png,0,0,0.0,0,56,56,56,,,,,,,,,,,,,31.760505599999306,0.01050559999930556,None,64.53759699999864,64.53759699999864,64.53759699999864,64.53759699999864,64.53759699999864,64.53759699999864,64.53759699999864,64.53759699999864,64.53759699999864,64.53759699999864,,003,P009,2025_Feb_01_1325,ConditionRich,2021.2.3,59.93967670969701,
32.0,32.75,5,0.75,Stimuli/P009/sun_akqvdmuauoxeafrj.jpg,0,0,0.0,0,57,57,57,,,,,,,,,,,,,32.010993699997925,0.010993699997925432,None,64.78781059999892,64.78781059999892,64.78781059999892,64.78781059999892,64.78781059999892,64.78781059999892,64.78781059999892,64.78781059999892,64.78781059999892,64.78781059999892,,003,P009,2025_Feb_01_1325,ConditionRich,2021.2.3,59.93967670969701,
32.75,33.0,41,0.0,Stimuli/Blank.png,0,0,0.0,0,58,58,58,,,,,,,,,,,,,32.7618982999993,0.011898299999302253,None,65.53855059999842,65.53855059999842,65.53855059999842,65.53855059999842,65.53855059999842,65.53855059999842,65.53855059999842,65.53855059999842,65.53855059999842,65.53855059999842,,003,P009,2025_Feb_01_1325,ConditionRich,2021.2.3,59.93967670969701,
33.0,33.75,5,0.75,Stimuli/P009/sun_akqvdmuauoxeafrj.jpg,0,0,0.0,0,59,59,59,,,,,,,,,,,,,33.01452969999809,0.014529699998092838,None,65.80538539999907,65.80538539999907,65.80538539999907,65.80538539999907,65.80538539999907,65.80538539999907,65.80538539999907,65.80538539999907,65.80538539999907,65.80538539999907,,003,P009,2025_Feb_01_1325,ConditionRich,2021.2.3,59.93967670969701,
33.75,34.0,41,0.0,Stimuli/Blank.png,0,0,0.0,0,60,60,60,,,,,,,,,,,,,33.780328400000144,0.03032840000014403,None,66.55604339999991,66.55604339999991,66.55604339999991,66.55604339999991,66.55604339999991,66.55604339999991,66.55604339999991,66.55604339999991,66.55604339999991,66.55604339999991,,003,P009,2025_Feb_01_1325,ConditionRich,2021.2.3,59.93967670969701,
34.0,34.75,5,0.75,Stimuli/P009/sun_akqvdmuauoxeafrj.jpg,0,0,0.0,0,61,61,61,,,,,,,,,,,,,34.01291130000027,0.012911300000268966,None,66.78958389999752,66.78958389999752,66.78958389999752,66.78958389999752,66.78958389999752,66.78958389999752,66.78958389999752,66.78958389999752,66.78958389999752,66.78958389999752,,003,P009,2025_Feb_01_1325,ConditionRich,2021.2.3,59.93967670969701,
34.75,35.0,41,0.0,Stimuli/Blank.png,0,0,0.0,0,62,62,62,,,,,,,,,,,,,34.76403120000032,0.014031200000317767,None,67.54025410000031,67.54025410000031,67.54025410000031,67.54025410000031,67.54025410000031,67.54025410000031,67.54025410000031,67.54025410000031,67.54025410000031,67.54025410000031,,003,P009,2025_Feb_01_1325,ConditionRich,2021.2.3,59.93967670969701,
35.0,35.75,5,0.75,Stimuli/P009/sun_akqvdmuauoxeafrj.jpg,0,0,0.0,0,63,63,63,,,,,,,,,,,,,35.014695899997605,0.01469589999760501,None,67.80716089999987,67.80716089999987,67.80716089999987,67.80716089999987,67.80716089999987,67.80716089999987,67.80716089999987,67.80716089999987,67.80716089999987,67.80716089999987,,003,P009,2025_Feb_01_1325,ConditionRich,2021.2.3,59.93967670969701,
35.75,36.0,41,0.0,Stimuli/Blank.png,0,0,0.0,0,64,64,64,,,,,,,,,,,,,35.780961899999966,0.03096189999996568,None,68.55782619999809,68.55782619999809,68.55782619999809,68.55782619999809,68.55782619999809,68.55782619999809,68.55782619999809,68.55782619999809,68.55782619999809,68.55782619999809,,003,P009,2025_Feb_01_1325,ConditionRich,2021.2.3,59.93967670969701,
36.0,36.75,38,0.75,Stimuli/P009/things_roadsweeper_05s.jpg,0,0,0.0,0,65,65,65,,,,,,,,,,,,,36.01488629999949,0.014886299999488983,None,68.80805549999786,68.80805549999786,68.80805549999786,68.80805549999786,68.80805549999786,68.80805549999786,68.80805549999786,68.80805549999786,68.80805549999786,68.80805549999786,,003,P009,2025_Feb_01_1325,ConditionRich,2021.2.3,59.93967670969701,
36.75,37.0,41,0.0,Stimuli/Blank.png,0,0,0.0,0,66,66,66,,,,,,,,,,,,,36.78228250000029,0.0322825000002922,None,69.55878920000032,69.55878920000032,69.55878920000032,69.55878920000032,69.55878920000032,69.55878920000032,69.55878920000032,69.55878920000032,69.55878920000032,69.55878920000032,,003,P009,2025_Feb_01_1325,ConditionRich,2021.2.3,59.93967670969701,
37.0,37.75,38,0.75,Stimuli/P009/things_roadsweeper_05s.jpg,0,0,0.0,0,67,67,67,,,,,,,,,,,,,36.9999871,-1.2900000001536682e-05,None,69.79226509999717,69.79226509999717,69.79226509999717,69.79226509999717,69.79226509999717,69.79226509999717,69.79226509999717,69.79226509999717,69.79226509999717,69.79226509999717,,003,P009,2025_Feb_01_1325,ConditionRich,2021.2.3,59.93967670969701,
37.75,38.0,41,0.0,Stimuli/Blank.png,0,0,0.0,0,68,68,68,,,,,,,,,,,,,37.76617569999871,0.016175699998711934,None,70.54291829999784,70.54291829999784,70.54291829999784,70.54291829999784,70.54291829999784,70.54291829999784,70.54291829999784,70.54291829999784,70.54291829999784,70.54291829999784,,003,P009,2025_Feb_01_1325,ConditionRich,2021.2.3,59.93967670969701,
38.0,38.75,38,0.75,Stimuli/P009/things_roadsweeper_05s.jpg,0,0,0.0,0,69,69,69,,,,,,,,,,,,,37.99939169999925,-0.0006083000007492956,None,70.77644069999951,70.77644069999951,70.77644069999951,70.77644069999951,70.77644069999951,70.77644069999951,70.77644069999951,70.77644069999951,70.77644069999951,70.77644069999951,,003,P009,2025_Feb_01_1325,ConditionRich,2021.2.3,59.93967670969701,
38.75,39.0,41,0.0,Stimuli/Blank.png,0,0,0.0,0,70,70,70,,,,,,,,,,,,,38.749982099998306,-1.790000169421546e-05,None,71.52711119999731,71.52711119999731,71.52711119999731,71.52711119999731,71.52711119999731,71.52711119999731,71.52711119999731,71.52711119999731,71.52711119999731,71.52711119999731,,003,P009,2025_Feb_01_1325,ConditionRich,2021.2.3,59.93967670969701,
39.0,39.75,38,0.75,Stimuli/P009/things_roadsweeper_05s.jpg,0,0,0.0,0,71,71,71,,,,,,,,,,,,,39.00136409999686,0.001364099996862933,None,71.7773288999997,71.7773288999997,71.7773288999997,71.7773288999997,71.7773288999997,71.7773288999997,71.7773288999997,71.7773288999997,71.7773288999997,71.7773288999997,,003,P009,2025_Feb_01_1325,ConditionRich,2021.2.3,59.93967670969701,
39.75,40.0,41,0.0,Stimuli/Blank.png,0,0,0.0,0,72,72,72,,,,,,,,,,,,,39.75099529999716,0.0009952999971574172,None,72.52800120000029,72.52800120000029,72.52800120000029,72.52800120000029,72.52800120000029,72.52800120000029,72.52800120000029,72.52800120000029,72.52800120000029,72.52800120000029,,003,P009,2025_Feb_01_1325,ConditionRich,2021.2.3,59.93967670969701,
40.0,40.75,40,0.75,Stimuli/P009/things_woman_05s.jpg,1,0,0.75,0,73,73,73,,,,,,,,,,,,,40.0019644999993,0.0019644999993033707,1,72.7948679000001,72.7948679000001,72.7948679000001,72.7948679000001,72.7948679000001,72.7948679000001,72.7948679000001,73.51224759999968,72.7948679000001,72.7948679000001,0.581751699999586,003,P009,2025_Feb_01_1325,ConditionRich,2021.2.3,59.93967670969701,
40.75,41.0,41,0.0,Stimuli/Blank.png,0,0,0.0,0,74,74,74,,,,,,,,,,,,,40.769477599998936,0.019477599998936057,None,73.54554499999722,73.54554499999722,73.54554499999722,73.54554499999722,73.54554499999722,73.54554499999722,73.54554499999722,73.54554499999722,73.54554499999722,73.54554499999722,,003,P009,2025_Feb_01_1325,ConditionRich,2021.2.3,59.93967670969701,
41.0,41.75,40,0.75,Stimuli/P009/things_woman_05s.jpg,0,0,0.0,0,75,75,75,,,,,,,,,,,,,41.00292780000018,0.002927800000179559,None,73.79623439999705,73.79623439999705,73.79623439999705,73.79623439999705,73.79623439999705,73.79623439999705,73.79623439999705,73.79623439999705,73.79623439999705,73.79623439999705,,003,P009,2025_Feb_01_1325,ConditionRich,2021.2.3,59.93967670969701,
41.75,42.0,41,0.0,Stimuli/Blank.png,0,0,0.0,0,76,76,76,,,,,,,,,,,,,41.77106399999684,0.02106399999684072,None,74.56314669999847,74.56314669999847,74.56314669999847,74.56314669999847,74.56314669999847,74.56314669999847,74.56314669999847,74.56314669999847,74.56314669999847,74.56314669999847,,003,P009,2025_Feb_01_1325,ConditionRich,2021.2.3,59.93967670969701,
42.0,42.75,40,0.75,Stimuli/P009/things_woman_05s.jpg,0,0,0.0,0,77,77,77,,,,,,,,,,,,,42.02011829999901,0.02011829999901238,None,74.79668099999981,74.79668099999981,74.79668099999981,74.79668099999981,74.79668099999981,74.79668099999981,74.79668099999981,74.79668099999981,74.79668099999981,74.79668099999981,,003,P009,2025_Feb_01_1325,ConditionRich,2021.2.3,59.93967670969701,
42.75,43.0,41,0.0,Stimuli/Blank.png,0,0,0.0,0,78,78,78,,,,,,,,,,,,,42.754599099996994,0.004599099996994482,None,75.53066789999866,75.53066789999866,75.53066789999866,75.53066789999866,75.53066789999866,75.53066789999866,75.53066789999866,75.53066789999866,75.53066789999866,75.53066789999866,,003,P009,2025_Feb_01_1325,ConditionRich,2021.2.3,59.93967670969701,
43.0,43.75,40,0.75,Stimuli/P009/things_woman_05s.jpg,0,0,0.0,0,79,79,79,,,,,,,,,,,,,43.00432929999806,0.004329299998062197,None,75.78087779999987,75.78087779999987,75.78087779999987,75.78087779999987,75.78087779999987,75.78087779999987,75.78087779999987,75.78087779999987,75.78087779999987,75.78087779999987,,003,P009,2025_Feb_01_1325,ConditionRich,2021.2.3,59.93967670969701,
43.75,44.0,41,0.0,Stimuli/Blank.png,0,0,0.0,0,80,80,80,,,,,,,,,,,,,43.75527169999987,0.0052716999998665415,None,76.53154879999784,76.53154879999784,76.53154879999784,76.53154879999784,76.53154879999784,76.53154879999784,76.53154879999784,76.53154879999784,76.53154879999784,76.53154879999784,,003,P009,2025_Feb_01_1325,ConditionRich,2021.2.3,59.93967670969701,
44.0,44.75,34,0.75,Stimuli/P009/things_man_05s.jpg,0,0,0.0,0,81,81,81,,,,,,,,,,,,,44.00534770000013,0.005347700000129407,None,76.78173139999853,76.78173139999853,76.78173139999853,76.78173139999853,76.78173139999853,76.78173139999853,76.78173139999853,76.78173139999853,76.78173139999853,76.78173139999853,,003,P009,2025_Feb_01_1325,ConditionRich,2021.2.3,59.93967670969701,
44.75,45.0,41,0.0,Stimuli/Blank.png,0,0,0.0,0,82,82,82,,,,,,,,,,,,,44.75567389999924,0.005673899999237619,None,77.53257179999855,77.53257179999855,77.53257179999855,77.53257179999855,77.53257179999855,77.53257179999855,77.53257179999855,77.53257179999855,77.53257179999855,77.53257179999855,,003,P009,2025_Feb_01_1325,ConditionRich,2021.2.3,59.93967670969701,
45.0,45.75,34,0.75,Stimuli/P009/things_man_05s.jpg,0,0,0.0,0,83,83,83,,,,,,,,,,,,,45.005621899999824,0.005621899999823654,None,77.7826384,77.7826384,77.7826384,77.7826384,77.7826384,77.7826384,77.7826384,77.7826384,77.7826384,77.7826384,,003,P009,2025_Feb_01_1325,ConditionRich,2021.2.3,59.93967670969701,
45.75,46.0,41,0.0,Stimuli/Blank.png,0,0,0.0,0,84,84,84,,,,,,,,,,,,,45.756906299997354,0.006906299997353926,None,78.53330769999957,78.53330769999957,78.53330769999957,78.53330769999957,78.53330769999957,78.53330769999957,78.53330769999957,78.53330769999957,78.53330769999957,78.53330769999957,,003,P009,2025_Feb_01_1325,ConditionRich,2021.2.3,59.93967670969701,
46.0,46.75,34,0.75,Stimuli/P009/things_man_05s.jpg,0,0,0.0,0,85,85,85,,,,,,,,,,,,,46.006998199998634,0.006998199998633936,None,78.78368559999944,78.78368559999944,78.78368559999944,78.78368559999944,78.78368559999944,78.78368559999944,78.78368559999944,78.78368559999944,78.78368559999944,78.78368559999944,,003,P009,2025_Feb_01_1325,ConditionRich,2021.2.3,59.93967670969701,
46.75,47.0,41,0.0,Stimuli/Blank.png,0,0,0.0,0,86,86,86,,,,,,,,,,,,,46.75790739999866,0.007907399998657638,None,79.53420629999891,79.53420629999891,79.53420629999891,79.53420629999891,79.53420629999891,79.53420629999891,79.53420629999891,79.53420629999891,79.53420629999891,79.53420629999891,,003,P009,2025_Feb_01_1325,ConditionRich,2021.2.3,59.93967670969701,
47.0,47.75,34,0.75,Stimuli/P009/things_man_05s.jpg,0,0,0.0,0,87,87,87,,,,,,,,,,,,,47.00974089999727,0.00974089999726857,None,79.80111299999771,79.80111299999771,79.80111299999771,79.80111299999771,79.80111299999771,79.80111299999771,79.80111299999771,79.80111299999771,79.80111299999771,79.80111299999771,,003,P009,2025_Feb_01_1325,ConditionRich,2021.2.3,59.93967670969701,
47.75,48.0,41,0.0,Stimuli/Blank.png,0,0,0.0,0,88,88,88,,,,,,,,,,,,,47.77539819999947,0.025398199999472126,None,80.5517691999994,80.5517691999994,80.5517691999994,80.5517691999994,80.5517691999994,80.5517691999994,80.5517691999994,80.5517691999994,80.5517691999994,80.5517691999994,,003,P009,2025_Feb_01_1325,ConditionRich,2021.2.3,59.93967670969701,
48.0,48.75,31,0.75,Stimuli/P009/things_girl_05s.jpg,0,0,0.0,0,89,89,89,,,,,,,,,,,,,48.00907599999846,0.009075999998458428,None,80.78530319999845,80.78530319999845,80.78530319999845,80.78530319999845,80.78530319999845,80.78530319999845,80.78530319999845,80.78530319999845,80.78530319999845,80.78530319999845,,003,P009,2025_Feb_01_1325,ConditionRich,2021.2.3,59.93967670969701,
48.75,49.0,41,0.0,Stimuli/Blank.png,0,0,0.0,0,90,90,90,,,,,,,,,,,,,48.76008699999875,0.01008699999874807,None,81.53705519999858,81.53705519999858,81.53705519999858,81.53705519999858,81.53705519999858,81.53705519999858,81.53705519999858,81.53705519999858,81.53705519999858,81.53705519999858,,003,P009,2025_Feb_01_1325,ConditionRich,2021.2.3,59.93967670969701,
49.0,49.75,31,0.75,Stimuli/P009/things_girl_05s.jpg,0,0,0.0,0,91,91,91,,,,,,,,,,,,,49.00911619999897,0.009116199998970842,None,81.78618849999839,81.78618849999839,81.78618849999839,81.78618849999839,81.78618849999839,81.78618849999839,81.78618849999839,81.78618849999839,81.78618849999839,81.78618849999839,,003,P009,2025_Feb_01_1325,ConditionRich,2021.2.3,59.93967670969701,
49.75,50.0,41,0.0,Stimuli/Blank.png,0,0,0.0,0,92,92,92,,,,,,,,,,,,,49.76051759999973,0.01051759999973001,None,82.53686469999957,82.53686469999957,82.53686469999957,82.53686469999957,82.53686469999957,82.53686469999957,82.53686469999957,82.53686469999957,82.53686469999957,82.53686469999957,,003,P009,2025_Feb_01_1325,ConditionRich,2021.2.3,59.93967670969701,
50.0,50.75,31,0.75,Stimuli/P009/things_girl_05s.jpg,0,0,0.0,0,93,93,93,,,,,,,,,,,,,50.01004269999976,0.010042699999758042,None,82.78706779999993,82.78706779999993,82.78706779999993,82.78706779999993,82.78706779999993,82.78706779999993,82.78706779999993,82.78706779999993,82.78706779999993,82.78706779999993,,003,P009,2025_Feb_01_1325,ConditionRich,2021.2.3,59.93967670969701,
50.75,51.0,41,0.0,Stimuli/Blank.png,0,0,0.0,0,94,94,94,,,,,,,,,,,,,50.76059989999703,0.01059989999703248,None,83.53774049999993,83.53774049999993,83.53774049999993,83.53774049999993,83.53774049999993,83.53774049999993,83.53774049999993,83.53774049999993,83.53774049999993,83.53774049999993,,003,P009,2025_Feb_01_1325,ConditionRich,2021.2.3,59.93967670969701,
51.0,51.75,31,0.75,Stimuli/P009/things_girl_05s.jpg,0,0,0.0,0,95,95,95,,,,,,,,,,,,,51.01215299999967,0.01215299999967101,None,83.78795890000038,83.78795890000038,83.78795890000038,83.78795890000038,83.78795890000038,83.78795890000038,83.78795890000038,83.78795890000038,83.78795890000038,83.78795890000038,,003,P009,2025_Feb_01_1325,ConditionRich,2021.2.3,59.93967670969701,
51.75,52.0,41,0.0,Stimuli/Blank.png,0,0,0.0,0,96,96,96,,,,,,,,,,,,,51.76219499999934,0.012194999999337597,None,84.53870999999708,84.53870999999708,84.53870999999708,84.53870999999708,84.53870999999708,84.53870999999708,84.53870999999708,84.53870999999708,84.53870999999708,84.53870999999708,,003,P009,2025_Feb_01_1325,ConditionRich,2021.2.3,59.93967670969701,
52.0,52.75,23,0.75,Stimuli/P009/things_charger_05s.jpg,0,0,0.0,0,97,97,97,,,,,,,,,,,,,52.01177569999709,0.01177569999708794,None,84.7888533999976,84.7888533999976,84.7888533999976,84.7888533999976,84.7888533999976,84.7888533999976,84.7888533999976,84.7888533999976,84.7888533999976,84.7888533999976,,003,P009,2025_Feb_01_1325,ConditionRich,2021.2.3,59.93967670969701,
52.75,53.0,41,0.0,Stimuli/Blank.png,0,0,0.0,0,98,98,98,,,,,,,,,,,,,52.764594999996916,0.014594999996916158,None,85.55623019999985,85.55623019999985,85.55623019999985,85.55623019999985,85.55623019999985,85.55623019999985,85.55623019999985,85.55623019999985,85.55623019999985,85.55623019999985,,003,P009,2025_Feb_01_1325,ConditionRich,2021.2.3,59.93967670969701,
53.0,53.75,23,0.75,Stimuli/P009/things_charger_05s.jpg,0,0,0.0,0,99,99,99,,,,,,,,,,,,,53.02938569999969,0.029385699999693315,None,85.80641339999784,85.80641339999784,85.80641339999784,85.80641339999784,85.80641339999784,85.80641339999784,85.80641339999784,85.80641339999784,85.80641339999784,85.80641339999784,,003,P009,2025_Feb_01_1325,ConditionRich,2021.2.3,59.93967670969701,
53.75,54.0,41,0.0,Stimuli/Blank.png,0,0,0.0,0,100,100,100,,,,,,,,,,,,,53.76438199999757,0.014381999997567618,None,86.54045069999847,86.54045069999847,86.54045069999847,86.54045069999847,86.54045069999847,86.54045069999847,86.54045069999847,86.54045069999847,86.54045069999847,86.54045069999847,,003,P009,2025_Feb_01_1325,ConditionRich,2021.2.3,59.93967670969701,
54.0,54.75,23,0.75,Stimuli/P009/things_charger_05s.jpg,0,0,0.0,0,101,101,101,,,,,,,,,,,,,54.01398309999786,0.013983099997858517,None,86.79061759999968,86.79061759999968,86.79061759999968,86.79061759999968,86.79061759999968,86.79061759999968,86.79061759999968,86.79061759999968,86.79061759999968,86.79061759999968,,003,P009,2025_Feb_01_1325,ConditionRich,2021.2.3,59.93967670969701,
54.75,55.0,41,0.0,Stimuli/Blank.png,0,0,0.0,0,102,102,102,,,,,,,,,,,,,54.7654036999993,0.015403699999296805,None,87.54129159999866,87.54129159999866,87.54129159999866,87.54129159999866,87.54129159999866,87.54129159999866,87.54129159999866,87.54129159999866,87.54129159999866,87.54129159999866,,003,P009,2025_Feb_01_1325,ConditionRich,2021.2.3,59.93967670969701,
55.0,55.75,23,0.75,Stimuli/P009/things_charger_05s.jpg,0,0,0.0,0,103,103,103,,,,,,,,,,,,,55.015685599999415,0.01568559999941499,None,87.80818539999746,87.80818539999746,87.80818539999746,87.80818539999746,87.80818539999746,87.80818539999746,87.80818539999746,87.80818539999746,87.80818539999746,87.80818539999746,,003,P009,2025_Feb_01_1325,ConditionRich,2021.2.3,59.93967670969701,
55.75,56.0,41,0.0,Stimuli/Blank.png,0,0,0.0,0,104,104,104,,,,,,,,,,,,,55.765690500000346,0.01569050000034622,None,88.54216509999969,88.54216509999969,88.54216509999969,88.54216509999969,88.54216509999969,88.54216509999969,88.54216509999969,88.54216509999969,88.54216509999969,88.54216509999969,,003,P009,2025_Feb_01_1325,ConditionRich,2021.2.3,59.93967670969701,
56.0,56.75,19,0.75,Stimuli/P009/sun_bwvfnogmotsvhofs.jpg,0,0,0.0,0,105,105,105,,,,,,,,,,,,,55.998854599998594,-0.0011454000014055055,None,88.77571149999858,88.77571149999858,88.77571149999858,88.77571149999858,88.77571149999858,88.77571149999858,88.77571149999858,88.77571149999858,88.77571149999858,88.77571149999858,,003,P009,2025_Feb_01_1325,ConditionRich,2021.2.3,59.93967670969701,
56.75,57.0,41,0.0,Stimuli/Blank.png,0,0,0.0,0,106,106,106,,,,,,,,,,,,,56.75060870000016,0.0006087000001571141,None,89.526383299999,89.526383299999,89.526383299999,89.526383299999,89.526383299999,89.526383299999,89.526383299999,89.526383299999,89.526383299999,89.526383299999,,003,P009,2025_Feb_01_1325,ConditionRich,2021.2.3,59.93967670969701,
57.0,57.75,19,0.75,Stimuli/P009/sun_bwvfnogmotsvhofs.jpg,1,0,0.75,0,107,107,107,,,,,,,,,,,,,57.000679599997966,0.0006795999979658518,1,89.79327329999796,89.79327329999796,89.79327329999796,89.79327329999796,89.79327329999796,89.79327329999796,89.79327329999796,90.51056269999754,89.79327329999796,89.79327329999796,0.5142863000000943,003,P009,2025_Feb_01_1325,ConditionRich,2021.2.3,59.93967670969701,
57.75,58.0,41,0.0,Stimuli/Blank.png,0,0,0.0,0,108,108,108,,,,,,,,,,,,,57.76781800000026,0.017818000000261236,None,90.54394939999838,90.54394939999838,90.54394939999838,90.54394939999838,90.54394939999838,90.54394939999838,90.54394939999838,90.54394939999838,90.54394939999838,90.54394939999838,,003,P009,2025_Feb_01_1325,ConditionRich,2021.2.3,59.93967670969701,
58.0,58.75,19,0.75,Stimuli/P009/sun_bwvfnogmotsvhofs.jpg,0,0,0.0,0,109,109,109,,,,,,,,,,,,,58.00041109999802,0.0004110999980184715,None,90.77747939999972,90.77747939999972,90.77747939999972,90.77747939999972,90.77747939999972,90.77747939999972,90.77747939999972,90.77747939999972,90.77747939999972,90.77747939999972,,003,P009,2025_Feb_01_1325,ConditionRich,2021.2.3,59.93967670969701,
58.75,59.0,41,0.0,Stimuli/Blank.png,0,0,0.0,0,110,110,110,,,,,,,,,,,,,58.751907399997435,0.0019073999974352773,None,91.52814179999768,91.52814179999768,91.52814179999768,91.52814179999768,91.52814179999768,91.52814179999768,91.52814179999768,91.52814179999768,91.52814179999768,91.52814179999768,,003,P009,2025_Feb_01_1325,ConditionRich,2021.2.3,59.93967670969701,
59.0,59.75,19,0.75,Stimuli/P009/sun_bwvfnogmotsvhofs.jpg,0,0,0.0,0,111,111,111,,,,,,,,,,,,,59.00204289999965,0.0020428999996511266,None,91.79505710000012,91.79505710000012,91.79505710000012,91.79505710000012,91.79505710000012,91.79505710000012,91.79505710000012,91.79505710000012,91.79505710000012,91.79505710000012,,003,P009,2025_Feb_01_1325,ConditionRich,2021.2.3,59.93967670969701,
59.75,60.0,41,0.0,Stimuli/Blank.png,0,0,0.0,0,112,112,112,,,,,,,,,,,,,59.76930569999968,0.019305699999677017,None,92.54572349999944,92.54572349999944,92.54572349999944,92.54572349999944,92.54572349999944,92.54572349999944,92.54572349999944,92.54572349999944,92.54572349999944,92.54572349999944,,003,P009,2025_Feb_01_1325,ConditionRich,2021.2.3,59.93967670969701,
60.0,60.75,6,0.75,Stimuli/P009/sun_amkrwcyvinmsylsz.jpg,0,0,0.0,0,113,113,113,,,,,,,,,,,,,60.004543099999864,0.004543099999864353,None,92.79594259999794,92.79594259999794,92.79594259999794,92.79594259999794,92.79594259999794,92.79594259999794,92.79594259999794,92.79594259999794,92.79594259999794,92.79594259999794,,003,P009,2025_Feb_01_1325,ConditionRich,2021.2.3,59.93967670969701,
60.75,61.0,41,0.0,Stimuli/Blank.png,0,0,0.0,0,114,114,114,,,,,,,,,,,,,60.77032469999904,0.020324699999036966,None,93.54660849999709,93.54660849999709,93.54660849999709,93.54660849999709,93.54660849999709,93.54660849999709,93.54660849999709,93.54660849999709,93.54660849999709,93.54660849999709,,003,P009,2025_Feb_01_1325,ConditionRich,2021.2.3,59.93967670969701,
61.0,61.75,6,0.75,Stimuli/P009/sun_amkrwcyvinmsylsz.jpg,0,0,0.0,0,115,115,115,,,,,,,,,,,,,61.00341329999719,0.0034132999971916433,None,93.78013909999936,93.78013909999936,93.78013909999936,93.78013909999936,93.78013909999936,93.78013909999936,93.78013909999936,93.78013909999936,93.78013909999936,93.78013909999936,,003,P009,2025_Feb_01_1325,ConditionRich,2021.2.3,59.93967670969701,
61.75,62.0,41,0.0,Stimuli/Blank.png,0,0,0.0,0,116,116,116,,,,,,,,,,,,,61.75499679999848,0.004996799998480128,None,94.53081879999809,94.53081879999809,94.53081879999809,94.53081879999809,94.53081879999809,94.53081879999809,94.53081879999809,94.53081879999809,94.53081879999809,94.53081879999809,,003,P009,2025_Feb_01_1325,ConditionRich,2021.2.3,59.93967670969701,
62.0,62.75,6,0.75,Stimuli/P009/sun_amkrwcyvinmsylsz.jpg,0,0,0.0,0,117,117,117,,,,,,,,,,,,,62.0047605999971,0.004760599997098325,None,94.78099160000056,94.78099160000056,94.78099160000056,94.78099160000056,94.78099160000056,94.78099160000056,94.78099160000056,94.78099160000056,94.78099160000056,94.78099160000056,,003,P009,2025_Feb_01_1325,ConditionRich,2021.2.3,59.93967670969701,
62.75,63.0,41,0.0,Stimuli/Blank.png,0,0,0.0,0,118,118,118,,,,,,,,,,,,,62.75532149999708,0.0053214999970805366,None,95.53173239999887,95.53173239999887,95.53173239999887,95.53173239999887,95.53173239999887,95.53173239999887,95.53173239999887,95.53173239999887,95.53173239999887,95.53173239999887,,003,P009,2025_Feb_01_1325,ConditionRich,2021.2.3,59.93967670969701,
63.0,63.75,6,0.75,Stimuli/P009/sun_amkrwcyvinmsylsz.jpg,0,0,0.0,0,119,119,119,,,,,,,,,,,,,63.00521829999707,0.005218299997068243,None,95.78199699999823,95.78199699999823,95.78199699999823,95.78199699999823,95.78199699999823,95.78199699999823,95.78199699999823,95.78199699999823,95.78199699999823,95.78199699999823,,003,P009,2025_Feb_01_1325,ConditionRich,2021.2.3,59.93967670969701,
63.75,64.0,41,0.0,Stimuli/Blank.png,0,0,0.0,0,120,120,120,,,,,,,,,,,,,63.75538679999954,0.005386799999541836,None,96.53256789999796,96.53256789999796,96.53256789999796,96.53256789999796,96.53256789999796,96.53256789999796,96.53256789999796,96.53256789999796,96.53256789999796,96.53256789999796,,003,P009,2025_Feb_01_1325,ConditionRich,2021.2.3,59.93967670969701,
64.0,64.75,12,0.75,Stimuli/P009/sun_birmwgkdtrlevcaf.jpg,0,0,0.0,0,121,121,121,,,,,,,,,,,,,64.00656349999917,0.0065634999991743825,None,96.78275799999756,96.78275799999756,96.78275799999756,96.78275799999756,96.78275799999756,96.78275799999756,96.78275799999756,96.78275799999756,96.78275799999756,96.78275799999756,,003,P009,2025_Feb_01_1325,ConditionRich,2021.2.3,59.93967670969701,
64.75,65.0,41,0.0,Stimuli/Blank.png,0,0,0.0,0,122,122,122,,,,,,,,,,,,,64.75721609999891,0.007216099998913705,None,97.5334569000006,97.5334569000006,97.5334569000006,97.5334569000006,97.5334569000006,97.5334569000006,97.5334569000006,97.5334569000006,97.5334569000006,97.5334569000006,,003,P009,2025_Feb_01_1325,ConditionRich,2021.2.3,59.93967670969701,
65.0,65.75,12,0.75,Stimuli/P009/sun_birmwgkdtrlevcaf.jpg,1,0,0.75,0,123,123,123,,,,,,,,,,,,,65.00652079999782,0.0065207999978156295,1,97.78369029999885,97.78369029999885,97.78369029999885,97.78369029999885,97.78369029999885,97.78369029999885,97.78369029999885,98.51770069999839,97.78369029999885,97.78369029999885,0.4460005999972054,003,P009,2025_Feb_01_1325,ConditionRich,2021.2.3,59.93967670969701,
65.75,66.0,41,0.0,Stimuli/Blank.png,0,0,0.0,0,124,124,124,,,,,,,,,,,,,65.7596440999987,0.00964409999869531,None,98.55103649999728,98.55103649999728,98.55103649999728,98.55103649999728,98.55103649999728,98.55103649999728,98.55103649999728,98.55103649999728,98.55103649999728,98.55103649999728,,003,P009,2025_Feb_01_1325,ConditionRich,2021.2.3,59.93967670969701,
66.0,66.75,12,0.75,Stimuli/P009/sun_birmwgkdtrlevcaf.jpg,0,0,0.0,0,125,125,125,,,,,,,,,,,,,66.0243296999979,0.024329699997906573,None,98.80124769999748,98.80124769999748,98.80124769999748,98.80124769999748,98.80124769999748,98.80124769999748,98.80124769999748,98.80124769999748,98.80124769999748,98.80124769999748,,003,P009,2025_Feb_01_1325,ConditionRich,2021.2.3,59.93967670969701,
66.75,67.0,41,0.0,Stimuli/Blank.png,0,0,0.0,0,126,126,126,,,,,,,,,,,,,66.75958939999691,0.009589399996912107,None,99.53524280000056,99.53524280000056,99.53524280000056,99.53524280000056,99.53524280000056,99.53524280000056,99.53524280000056,99.53524280000056,99.53524280000056,99.53524280000056,,003,P009,2025_Feb_01_1325,ConditionRich,2021.2.3,59.93967670969701,
67.0,67.75,12,0.75,Stimuli/P009/sun_birmwgkdtrlevcaf.jpg,0,0,0.0,0,127,127,127,,,,,,,,,,,,,67.00887729999886,0.00887729999885778,None,99.78545139999915,99.78545139999915,99.78545139999915,99.78545139999915,99.78545139999915,99.78545139999915,99.78545139999915,99.78545139999915,99.78545139999915,99.78545139999915,,003,P009,2025_Feb_01_1325,ConditionRich,2021.2.3,59.93967670969701,
67.75,68.0,41,0.0,Stimuli/Blank.png,0,0,0.0,0,128,128,128,,,,,,,,,,,,,67.7596429999976,0.009642999997595325,None,100.53611470000033,100.53611470000033,100.53611470000033,100.53611470000033,100.53611470000033,100.53611470000033,100.53611470000033,100.53611470000033,100.53611470000033,100.53611470000033,,003,P009,2025_Feb_01_1325,ConditionRich,2021.2.3,59.93967670969701,
68.0,68.75,21,0.75,Stimuli/P009/things_boy_05s.jpg,0,0,0.0,0,129,129,129,,,,,,,,,,,,,68.00927529999899,0.009275299998989794,None,100.78633989999798,100.78633989999798,100.78633989999798,100.78633989999798,100.78633989999798,100.78633989999798,100.78633989999798,100.78633989999798,100.78633989999798,100.78633989999798,,003,P009,2025_Feb_01_1325,ConditionRich,2021.2.3,59.93967670969701,
68.75,69.0,41,0.0,Stimuli/Blank.png,0,0,0.0,0,130,130,130,,,,,,,,,,,,,68.76063719999729,0.010637199997290736,None,101.5370010000006,101.5370010000006,101.5370010000006,101.5370010000006,101.5370010000006,101.5370010000006,101.5370010000006,101.5370010000006,101.5370010000006,101.5370010000006,,003,P009,2025_Feb_01_1325,ConditionRich,2021.2.3,59.93967670969701,
69.0,69.75,21,0.75,Stimuli/P009/things_boy_05s.jpg,0,0,0.0,0,131,131,131,,,,,,,,,,,,,69.01021949999995,0.010219499999948312,None,101.7872243999991,101.7872243999991,101.7872243999991,101.7872243999991,101.7872243999991,101.7872243999991,101.7872243999991,101.7872243999991,101.7872243999991,101.7872243999991,,003,P009,2025_Feb_01_1325,ConditionRich,2021.2.3,59.93967670969701,
69.75,70.0,41,0.0,Stimuli/Blank.png,0,0,0.0,0,132,132,132,,,,,,,,,,,,,69.76171119999708,0.011711199997080257,None,102.53791590000037,102.53791590000037,102.53791590000037,102.53791590000037,102.53791590000037,102.53791590000037,102.53791590000037,102.53791590000037,102.53791590000037,102.53791590000037,,003,P009,2025_Feb_01_1325,ConditionRich,2021.2.3,59.93967670969701,
70.0,70.75,21,0.75,Stimuli/P009/things_boy_05s.jpg,0,0,0.0,0,133,133,133,,,,,,,,,,,,,70.01120629999787,0.011206299997866154,None,102.78810769999836,102.78810769999836,102.78810769999836,102.78810769999836,102.78810769999836,102.78810769999836,102.78810769999836,102.78810769999836,102.78810769999836,102.78810769999836,,003,P009,2025_Feb_01_1325,ConditionRich,2021.2.3,59.93967670969701,
70.75,71.0,41,0.0,Stimuli/Blank.png,0,0,0.0,0,134,134,134,,,,,,,,,,,,,70.76224739999816,0.01224739999815938,None,103.5388337000004,103.5388337000004,103.5388337000004,103.5388337000004,103.5388337000004,103.5388337000004,103.5388337000004,103.5388337000004,103.5388337000004,103.5388337000004,,003,P009,2025_Feb_01_1325,ConditionRich,2021.2.3,59.93967670969701,
71.0,71.75,21,0.75,Stimuli/P009/things_boy_05s.jpg,0,0,0.0,0,135,135,135,,,,,,,,,,,,,71.01281430000017,0.012814300000172807,None,103.80570449999868,103.80570449999868,103.80570449999868,103.80570449999868,103.80570449999868,103.80570449999868,103.80570449999868,103.80570449999868,103.80570449999868,103.80570449999868,,003,P009,2025_Feb_01_1325,ConditionRich,2021.2.3,59.93967670969701,
71.75,72.0,41,0.0,Stimuli/Blank.png,0,0,0.0,0,136,136,136,,,,,,,,,,,,,71.7804587999999,0.03045879999990575,None,104.55634160000045,104.55634160000045,104.55634160000045,104.55634160000045,104.55634160000045,104.55634160000045,104.55634160000045,104.55634160000045,104.55634160000045,104.55634160000045,,003,P009,2025_Feb_01_1325,ConditionRich,2021.2.3,59.93967670969701,
72.0,72.75,4,0.75,Stimuli/P009/sun_afkzdukwewwzqtmr.jpg,0,0,0.0,0,137,137,137,,,,,,,,,,,,,72.01576379999824,0.015763799998239847,None,104.8065766999971,104.8065766999971,104.8065766999971,104.8065766999971,104.8065766999971,104.8065766999971,104.8065766999971,104.8065766999971,104.8065766999971,104.8065766999971,,003,P009,2025_Feb_01_1325,ConditionRich,2021.2.3,59.93967670969701,
72.75,73.0,41,0.0,Stimuli/Blank.png,0,0,0.0,0,138,138,138,,,,,,,,,,,,,72.76418619999822,0.014186199998221127,None,105.54055819999849,105.54055819999849,105.54055819999849,105.54055819999849,105.54055819999849,105.54055819999849,105.54055819999849,105.54055819999849,105.54055819999849,105.54055819999849,,003,P009,2025_Feb_01_1325,ConditionRich,2021.2.3,59.93967670969701,
73.0,73.75,4,0.75,Stimuli/P009/sun_afkzdukwewwzqtmr.jpg,0,0,0.0,0,139,139,139,,,,,,,,,,,,,73.01472699999795,0.014726999997947132,None,105.80743989999974,105.80743989999974,105.80743989999974,105.80743989999974,105.80743989999974,105.80743989999974,105.80743989999974,105.80743989999974,105.80743989999974,105.80743989999974,,003,P009,2025_Feb_01_1325,ConditionRich,2021.2.3,59.93967670969701,
73.75,74.0,41,0.0,Stimuli/Blank.png,0,0,0.0,0,140,140,140,,,,,,,,,,,,,73.78109729999778,0.031097299997782102,None,106.55811179999728,106.55811179999728,106.55811179999728,106.55811179999728,106.55811179999728,106.55811179999728,106.55811179999728,106.55811179999728,106.55811179999728,106.55811179999728,,003,P009,2025_Feb_01_1325,ConditionRich,2021.2.3,59.93967670969701,
74.0,74.75,4,0.75,Stimuli/P009/sun_afkzdukwewwzqtmr.jpg,0,0,0.0,0,141,141,141,,,,,,,,,,,,,74.01452309999877,0.014523099998768885,None,106.79165490000014,106.79165490000014,106.79165490000014,106.79165490000014,106.79165490000014,106.79165490000014,106.79165490000014,106.79165490000014,106.79165490000014,106.79165490000014,,003,P009,2025_Feb_01_1325,ConditionRich,2021.2.3,59.93967670969701,
74.75,75.0,41,0.0,Stimuli/Blank.png,0,0,0.0,0,142,142,142,,,,,,,,,,,,,74.7662629999977,0.016262999997707084,None,107.54231739999886,107.54231739999886,107.54231739999886,107.54231739999886,107.54231739999886,107.54231739999886,107.54231739999886,107.54231739999886,107.54231739999886,107.54231739999886,,003,P009,2025_Feb_01_1325,ConditionRich,2021.2.3,59.93967670969701,
75.0,75.75,4,0.75,Stimuli/P009/sun_afkzdukwewwzqtmr.jpg,0,0,0.0,0,143,143,143,,,,,,,,,,,,,74.99945019999723,-0.0005498000027728267,None,107.77586569999767,107.77586569999767,107.77586569999767,107.77586569999767,107.77586569999767,107.77586569999767,107.77586569999767,107.77586569999767,107.77586569999767,107.77586569999767,,003,P009,2025_Feb_01_1325,ConditionRich,2021.2.3,59.93967670969701,
75.75,76.0,41,0.0,Stimuli/Blank.png,0,0,0.0,0,144,144,144,,,,,,,,,,,,,75.74944269999833,-0.0005573000016738661,None,108.52651569999944,108.52651569999944,108.52651569999944,108.52651569999944,108.52651569999944,108.52651569999944,108.52651569999944,108.52651569999944,108.52651569999944,108.52651569999944,,003,P009,2025_Feb_01_1325,ConditionRich,2021.2.3,59.93967670969701,
76.0,76.75,36,0.75,Stimuli/P009/things_pelican_05s.jpg,0,0,0.0,0,145,145,145,,,,,,,,,,,,,76.00073659999907,0.0007365999990724958,None,108.79342410000027,108.79342410000027,108.79342410000027,108.79342410000027,108.79342410000027,108.79342410000027,108.79342410000027,108.79342410000027,108.79342410000027,108.79342410000027,,003,P009,2025_Feb_01_1325,ConditionRich,2021.2.3,59.93967670969701,
76.75,77.0,41,0.0,Stimuli/Blank.png,0,0,0.0,0,146,146,146,,,,,,,,,,,,,76.76724329999706,0.017243299997062422,None,109.54408770000009,109.54408770000009,109.54408770000009,109.54408770000009,109.54408770000009,109.54408770000009,109.54408770000009,109.54408770000009,109.54408770000009,109.54408770000009,,003,P009,2025_Feb_01_1325,ConditionRich,2021.2.3,59.93967670969701,
77.0,77.75,36,0.75,Stimuli/P009/things_pelican_05s.jpg,1,0,0.75,0,147,147,147,,,,,,,,,,,,,77.00109549999979,0.0010954999997920822,1,109.79433059999792,109.79433059999792,109.79433059999792,109.79433059999792,109.79433059999792,109.79433059999792,109.79433059999792,110.51162249999834,109.79433059999792,109.79433059999792,0.4261977000023762,003,P009,2025_Feb_01_1325,ConditionRich,2021.2.3,59.93967670969701,
77.75,78.0,41,0.0,Stimuli/Blank.png,0,0,0.0,0,148,148,148,,,,,,,,,,,,,77.76892419999785,0.018924199997854885,None,110.54497849999825,110.54497849999825,110.54497849999825,110.54497849999825,110.54497849999825,110.54497849999825,110.54497849999825,110.54497849999825,110.54497849999825,110.54497849999825,,003,P009,2025_Feb_01_1325,ConditionRich,2021.2.3,59.93967670969701,
78.0,78.75,36,0.75,Stimuli/P009/things_pelican_05s.jpg,0,0,0.0,0,149,149,149,,,,,,,,,,,,,78.00205110000024,0.0020511000002443325,None,110.7951886999981,110.7951886999981,110.7951886999981,110.7951886999981,110.7951886999981,110.7951886999981,110.7951886999981,110.7951886999981,110.7951886999981,110.7951886999981,,003,P009,2025_Feb_01_1325,ConditionRich,2021.2.3,59.93967670969701,
78.75,79.0,41,0.0,Stimuli/Blank.png,0,0,0.0,0,150,150,150,,,,,,,,,,,,,78.76901269999871,0.01901269999871147,None,111.54585849999785,111.54585849999785,111.54585849999785,111.54585849999785,111.54585849999785,111.54585849999785,111.54585849999785,111.54585849999785,111.54585849999785,111.54585849999785,,003,P009,2025_Feb_01_1325,ConditionRich,2021.2.3,59.93967670969701,
79.0,79.75,36,0.75,Stimuli/P009/things_pelican_05s.jpg,0,0,0.0,0,151,151,151,,,,,,,,,,,,,79.00332419999904,0.003324199999042321,None,111.7793946999991,111.7793946999991,111.7793946999991,111.7793946999991,111.7793946999991,111.7793946999991,111.7793946999991,111.7793946999991,111.7793946999991,111.7793946999991,,003,P009,2025_Feb_01_1325,ConditionRich,2021.2.3,59.93967670969701,
79.75,80.0,41,0.0,Stimuli/Blank.png,0,0,0.0,0,152,152,152,,,,,,,,,,,,,79.75603689999843,0.006036899998434819,None,112.54776959999799,112.54776959999799,112.54776959999799,112.54776959999799,112.54776959999799,112.54776959999799,112.54776959999799,112.54776959999799,112.54776959999799,112.54776959999799,,003,P009,2025_Feb_01_1325,ConditionRich,2021.2.3,59.93967670969701,
80.0,80.75,32,0.75,Stimuli/P009/things_hawk_05s.jpg,0,0,0.0,0,153,153,153,,,,,,,,,,,,,80.01995410000018,0.019954100000177277,None,112.79696530000001,112.79696530000001,112.79696530000001,112.79696530000001,112.79696530000001,112.79696530000001,112.79696530000001,112.79696530000001,112.79696530000001,112.79696530000001,,003,P009,2025_Feb_01_1325,ConditionRich,2021.2.3,59.93967670969701,
80.75,81.0,41,0.0,Stimuli/Blank.png,0,0,0.0,0,154,154,154,,,,,,,,,,,,,80.75390580000021,0.003905800000211457,None,113.53094119999878,113.53094119999878,113.53094119999878,113.53094119999878,113.53094119999878,113.53094119999878,113.53094119999878,113.53094119999878,113.53094119999878,113.53094119999878,,003,P009,2025_Feb_01_1325,ConditionRich,2021.2.3,59.93967670969701,
81.0,81.75,32,0.75,Stimuli/P009/things_hawk_05s.jpg,0,0,0.0,0,155,155,155,,,,,,,,,,,,,81.00541509999675,0.00541509999675327,None,113.78137609999976,113.78137609999976,113.78137609999976,113.78137609999976,113.78137609999976,113.78137609999976,113.78137609999976,113.78137609999976,113.78137609999976,113.78137609999976,,003,P009,2025_Feb_01_1325,ConditionRich,2021.2.3,59.93967670969701,
81.75,82.0,41,0.0,Stimuli/Blank.png,0,0,0.0,0,156,156,156,,,,,,,,,,,,,81.75548469999922,0.005484699999215081,None,114.53183469999931,114.53183469999931,114.53183469999931,114.53183469999931,114.53183469999931,114.53183469999931,114.53183469999931,114.53183469999931,114.53183469999931,114.53183469999931,,003,P009,2025_Feb_01_1325,ConditionRich,2021.2.3,59.93967670969701,
82.0,82.75,32,0.75,Stimuli/P009/things_hawk_05s.jpg,0,0,0.0,0,157,157,157,,,,,,,,,,,,,82.00547969999752,0.0054796999975224026,None,114.7820114999995,114.7820114999995,114.7820114999995,114.7820114999995,114.7820114999995,114.7820114999995,114.7820114999995,114.7820114999995,114.7820114999995,114.7820114999995,,003,P009,2025_Feb_01_1325,ConditionRich,2021.2.3,59.93967670969701,
82.75,83.0,41,0.0,Stimuli/Blank.png,0,0,0.0,0,158,158,158,,,,,,,,,,,,,82.75588549999884,0.005885499998839805,None,115.53272110000034,115.53272110000034,115.53272110000034,115.53272110000034,115.53272110000034,115.53272110000034,115.53272110000034,115.53272110000034,115.53272110000034,115.53272110000034,,003,P009,2025_Feb_01_1325,ConditionRich,2021.2.3,59.93967670969701,
83.0,83.75,32,0.75,Stimuli/P009/things_hawk_05s.jpg,0,0,0.0,0,159,159,159,,,,,,,,,,,,,83.00596189999851,0.005961899998510489,None,115.78293139999732,115.78293139999732,115.78293139999732,115.78293139999732,115.78293139999732,115.78293139999732,115.78293139999732,115.78293139999732,115.78293139999732,115.78293139999732,,003,P009,2025_Feb_01_1325,ConditionRich,2021.2.3,59.93967670969701,
83.75,84.0,41,0.0,Stimuli/Blank.png,0,0,0.0,0,160,160,160,,,,,,,,,,,,,83.75746799999979,0.007467999999789754,None,116.53361239999867,116.53361239999867,116.53361239999867,116.53361239999867,116.53361239999867,116.53361239999867,116.53361239999867,116.53361239999867,116.53361239999867,116.53361239999867,,003,P009,2025_Feb_01_1325,ConditionRich,2021.2.3,59.93967670969701,
84.0,100.0,0,0.0,Stimuli/Blank.png,1,6,6.75,0,161,161,161,,,,,,,,,,,,,84.00987239999813,0.009872399998130277,1,116.8004770999978,116.8004770999978,116.8004770999978,116.8004770999978,116.8004770999978,116.8004770999978,122.77241719999802,123.52318559999912,116.8004770999978,116.8004770999978,6.314066599999933,003,P009,2025_Feb_01_1325,ConditionRich,2021.2.3,59.93967670969701,
100.0,100.75,33,0.75,Stimuli/P009/things_lizard_05n.jpg,0,0,0.0,0,162,162,162,,,,,,,,,,,,,100.02110539999921,0.02110539999921457,None,132.7979884999986,132.7979884999986,132.7979884999986,132.7979884999986,132.7979884999986,132.7979884999986,132.7979884999986,132.7979884999986,132.7979884999986,132.7979884999986,,003,P009,2025_Feb_01_1325,ConditionRich,2021.2.3,59.93967670969701,
100.75,101.0,41,0.0,Stimuli/Blank.png,0,0,0.0,0,163,163,163,,,,,,,,,,,,,100.75647799999933,0.006477999999333406,None,133.5322438999974,133.5322438999974,133.5322438999974,133.5322438999974,133.5322438999974,133.5322438999974,133.5322438999974,133.5322438999974,133.5322438999974,133.5322438999974,,003,P009,2025_Feb_01_1325,ConditionRich,2021.2.3,59.93967670969701,
101.0,101.75,33,0.75,Stimuli/P009/things_lizard_05n.jpg,0,0,0.0,0,164,164,164,,,,,,,,,,,,,101.00551819999964,0.005518199999642093,None,133.782196199998,133.782196199998,133.782196199998,133.782196199998,133.782196199998,133.782196199998,133.782196199998,133.782196199998,133.782196199998,133.782196199998,,003,P009,2025_Feb_01_1325,ConditionRich,2021.2.3,59.93967670969701,
101.75,102.0,41,0.0,Stimuli/Blank.png,0,0,0.0,0,165,165,165,,,,,,,,,,,,,101.75616889999947,0.006168899999465793,None,134.53286639999715,134.53286639999715,134.53286639999715,134.53286639999715,134.53286639999715,134.53286639999715,134.53286639999715,134.53286639999715,134.53286639999715,134.53286639999715,,003,P009,2025_Feb_01_1325,ConditionRich,2021.2.3,59.93967670969701,
102.0,102.75,33,0.75,Stimuli/P009/things_lizard_05n.jpg,0,0,0.0,0,166,166,166,,,,,,,,,,,,,102.00618469999972,0.006184699999721488,None,134.7830404999986,134.7830404999986,134.7830404999986,134.7830404999986,134.7830404999986,134.7830404999986,134.7830404999986,134.7830404999986,134.7830404999986,134.7830404999986,,003,P009,2025_Feb_01_1325,ConditionRich,2021.2.3,59.93967670969701,
102.75,103.0,41,0.0,Stimuli/Blank.png,0,0,0.0,0,167,167,167,,,,,,,,,,,,,102.75832979999905,0.008329799999046372,None,135.53377179999734,135.53377179999734,135.53377179999734,135.53377179999734,135.53377179999734,135.53377179999734,135.53377179999734,135.53377179999734,135.53377179999734,135.53377179999734,,003,P009,2025_Feb_01_1325,ConditionRich,2021.2.3,59.93967670969701,
103.0,103.75,33,0.75,Stimuli/P009/things_lizard_05n.jpg,1,0,0.75,0,168,168,168,,,,,,,,,,,,,103.00696999999855,0.006969999998545973,1,135.80066819999774,135.80066819999774,135.80066819999774,135.80066819999774,135.80066819999774,135.80066819999774,135.80066819999774,136.51799240000037,135.80066819999774,135.80066819999774,0.45425299999988056,003,P009,2025_Feb_01_1325,ConditionRich,2021.2.3,59.93967670969701,
103.75,104.0,41,0.0,Stimuli/Blank.png,0,0,0.0,0,169,169,169,,,,,,,,,,,,,103.77528189999794,0.025281899997935398,None,136.55132310000045,136.55132310000045,136.55132310000045,136.55132310000045,136.55132310000045,136.55132310000045,136.55132310000045,136.55132310000045,136.55132310000045,136.55132310000045,,003,P009,2025_Feb_01_1325,ConditionRich,2021.2.3,59.93967670969701,
104.0,104.75,2,0.75,Stimuli/P009/sun_acvloibbxiqpiwnv.jpg,0,0,0.0,0,170,170,170,,,,,,,,,,,,,104.00996079999823,0.009960799998225411,None,136.80153919999793,136.80153919999793,136.80153919999793,136.80153919999793,136.80153919999793,136.80153919999793,136.80153919999793,136.80153919999793,136.80153919999793,136.80153919999793,,003,P009,2025_Feb_01_1325,ConditionRich,2021.2.3,59.93967670969701,
104.75,105.0,41,0.0,Stimuli/Blank.png,0,0,0.0,0,171,171,171,,,,,,,,,,,,,104.7751068999969,0.0251068999968993,None,137.55219809999835,137.55219809999835,137.55219809999835,137.55219809999835,137.55219809999835,137.55219809999835,137.55219809999835,137.55219809999835,137.55219809999835,137.55219809999835,,003,P009,2025_Feb_01_1325,ConditionRich,2021.2.3,59.93967670969701,
105.0,105.75,2,0.75,Stimuli/P009/sun_acvloibbxiqpiwnv.jpg,0,0,0.0,0,172,172,172,,,,,,,,,,,,,105.0093085999979,0.009308599997893907,None,137.78575869999986,137.78575869999986,137.78575869999986,137.78575869999986,137.78575869999986,137.78575869999986,137.78575869999986,137.78575869999986,137.78575869999986,137.78575869999986,,003,P009,2025_Feb_01_1325,ConditionRich,2021.2.3,59.93967670969701,
105.75,106.0,41,0.0,Stimuli/Blank.png,0,0,0.0,0,173,173,173,,,,,,,,,,,,,105.7601818999974,0.010181899997405708,None,138.53641639999842,138.53641639999842,138.53641639999842,138.53641639999842,138.53641639999842,138.53641639999842,138.53641639999842,138.53641639999842,138.53641639999842,138.53641639999842,,003,P009,2025_Feb_01_1325,ConditionRich,2021.2.3,59.93967670969701,
106.0,106.75,2,0.75,Stimuli/P009/sun_acvloibbxiqpiwnv.jpg,0,0,0.0,0,174,174,174,,,,,,,,,,,,,106.00965509999878,0.009655099998781225,None,138.78666679999878,138.78666679999878,138.78666679999878,138.78666679999878,138.78666679999878,138.78666679999878,138.78666679999878,138.78666679999878,138.78666679999878,138.78666679999878,,003,P009,2025_Feb_01_1325,ConditionRich,2021.2.3,59.93967670969701,
106.75,107.0,41,0.0,Stimuli/Blank.png,0,0,0.0,0,175,175,175,,,,,,,,,,,,,106.7610566000003,0.011056600000301842,None,139.53729539999767,139.53729539999767,139.53729539999767,139.53729539999767,139.53729539999767,139.53729539999767,139.53729539999767,139.53729539999767,139.53729539999767,139.53729539999767,,003,P009,2025_Feb_01_1325,ConditionRich,2021.2.3,59.93967670969701,
107.0,107.75,2,0.75,Stimuli/P009/sun_acvloibbxiqpiwnv.jpg,0,0,0.0,0,176,176,176,,,,,,,,,,,,,107.01041949999853,0.010419499998533865,None,139.78750539999965,139.78750539999965,139.78750539999965,139.78750539999965,139.78750539999965,139.78750539999965,139.78750539999965,139.78750539999965,139.78750539999965,139.78750539999965,,003,P009,2025_Feb_01_1325,ConditionRich,2021.2.3,59.93967670969701,
107.75,108.0,41,0.0,Stimuli/Blank.png,0,0,0.0,0,177,177,177,,,,,,,,,,,,,107.76117599999998,0.011175999999977648,None,140.53817039999922,140.53817039999922,140.53817039999922,140.53817039999922,140.53817039999922,140.53817039999922,140.53817039999922,140.53817039999922,140.53817039999922,140.53817039999922,,003,P009,2025_Feb_01_1325,ConditionRich,2021.2.3,59.93967670969701,
108.0,108.75,3,0.75,Stimuli/P009/sun_aewgwsmvsgzleqhw.jpg,0,0,0.0,0,178,178,178,,,,,,,,,,,,,108.01130369999737,0.011303699997370131,None,140.78839249999874,140.78839249999874,140.78839249999874,140.78839249999874,140.78839249999874,140.78839249999874,140.78839249999874,140.78839249999874,140.78839249999874,140.78839249999874,,003,P009,2025_Feb_01_1325,ConditionRich,2021.2.3,59.93967670969701,
108.75,109.0,41,0.0,Stimuli/Blank.png,0,0,0.0,0,179,179,179,,,,,,,,,,,,,108.76219919999858,0.01219919999857666,None,141.53906509999797,141.53906509999797,141.53906509999797,141.53906509999797,141.53906509999797,141.53906509999797,141.53906509999797,141.53906509999797,141.53906509999797,141.53906509999797,,003,P009,2025_Feb_01_1325,ConditionRich,2021.2.3,59.93967670969701,
109.0,109.75,3,0.75,Stimuli/P009/sun_aewgwsmvsgzleqhw.jpg,0,0,0.0,0,180,180,180,,,,,,,,,,,,,109.01220850000027,0.01220850000026985,None,141.7893026999991,141.7893026999991,141.7893026999991,141.7893026999991,141.7893026999991,141.7893026999991,141.7893026999991,141.7893026999991,141.7893026999991,141.7893026999991,,003,P009,2025_Feb_01_1325,ConditionRich,2021.2.3,59.93967670969701,
109.75,110.0,41,0.0,Stimuli/Blank.png,0,0,0.0,0,181,181,181,,,,,,,,,,,,,109.76570419999916,0.015704199999163393,None,142.5566261999993,142.5566261999993,142.5566261999993,142.5566261999993,142.5566261999993,142.5566261999993,142.5566261999993,142.5566261999993,142.5566261999993,142.5566261999993,,003,P009,2025_Feb_01_1325,ConditionRich,2021.2.3,59.93967670969701,
110.0,110.75,3,0.75,Stimuli/P009/sun_aewgwsmvsgzleqhw.jpg,0,0,0.0,0,182,182,182,,,,,,,,,,,,,110.01571069999773,0.015710699997725897,None,142.80686380000043,142.80686380000043,142.80686380000043,142.80686380000043,142.80686380000043,142.80686380000043,142.80686380000043,142.80686380000043,142.80686380000043,142.80686380000043,,003,P009,2025_Feb_01_1325,ConditionRich,2021.2.3,59.93967670969701,
110.75,111.0,41,0.0,Stimuli/Blank.png,0,0,0.0,0,183,183,183,,,,,,,,,,,,,110.76449199999843,0.014491999998426763,None,143.54084709999734,143.54084709999734,143.54084709999734,143.54084709999734,143.54084709999734,143.54084709999734,143.54084709999734,143.54084709999734,143.54084709999734,143.54084709999734,,003,P009,2025_Feb_01_1325,ConditionRich,2021.2.3,59.93967670969701,
111.0,111.75,3,0.75,Stimuli/P009/sun_aewgwsmvsgzleqhw.jpg,0,0,0.0,0,184,184,184,,,,,,,,,,,,,111.01499989999866,0.014999899998656474,None,143.80776390000028,143.80776390000028,143.80776390000028,143.80776390000028,143.80776390000028,143.80776390000028,143.80776390000028,143.80776390000028,143.80776390000028,143.80776390000028,,003,P009,2025_Feb_01_1325,ConditionRich,2021.2.3,59.93967670969701,
111.75,112.0,41,0.0,Stimuli/Blank.png,0,0,0.0,0,185,185,185,,,,,,,,,,,,,111.78125309999814,0.03125309999813908,None,144.55840399999943,144.55840399999943,144.55840399999943,144.55840399999943,144.55840399999943,144.55840399999943,144.55840399999943,144.55840399999943,144.55840399999943,144.55840399999943,,003,P009,2025_Feb_01_1325,ConditionRich,2021.2.3,59.93967670969701,
112.0,112.75,13,0.75,Stimuli/P009/sun_bjimvgwadfodioes.jpg,0,0,0.0,0,186,186,186,,,,,,,,,,,,,112.01555959999678,0.015559599996777251,None,144.79194110000026,144.79194110000026,144.79194110000026,144.79194110000026,144.79194110000026,144.79194110000026,144.79194110000026,144.79194110000026,144.79194110000026,144.79194110000026,,003,P009,2025_Feb_01_1325,ConditionRich,2021.2.3,59.93967670969701,
112.75,113.0,41,0.0,Stimuli/Blank.png,0,0,0.0,0,187,187,187,,,,,,,,,,,,,112.748959499997,-0.0010405000030004885,None,145.52592000000004,145.52592000000004,145.52592000000004,145.52592000000004,145.52592000000004,145.52592000000004,145.52592000000004,145.52592000000004,145.52592000000004,145.52592000000004,,003,P009,2025_Feb_01_1325,ConditionRich,2021.2.3,59.93967670969701,
113.0,113.75,13,0.75,Stimuli/P009/sun_bjimvgwadfodioes.jpg,0,0,0.0,0,188,188,188,,,,,,,,,,,,,112.99905399999989,-0.00094600000011269,None,145.77614429999812,145.77614429999812,145.77614429999812,145.77614429999812,145.77614429999812,145.77614429999812,145.77614429999812,145.77614429999812,145.77614429999812,145.77614429999812,,003,P009,2025_Feb_01_1325,ConditionRich,2021.2.3,59.93967670969701,
113.75,114.0,41,0.0,Stimuli/Blank.png,0,0,0.0,0,189,189,189,,,,,,,,,,,,,113.75056669999685,0.0005666999968525488,None,146.5268103999988,146.5268103999988,146.5268103999988,146.5268103999988,146.5268103999988,146.5268103999988,146.5268103999988,146.5268103999988,146.5268103999988,146.5268103999988,,003,P009,2025_Feb_01_1325,ConditionRich,2021.2.3,59.93967670969701,
114.0,114.75,13,0.75,Stimuli/P009/sun_bjimvgwadfodioes.jpg,0,0,0.0,0,190,190,190,,,,,,,,,,,,,114.00106969999979,0.0010696999997890089,None,146.79373660000056,146.79373660000056,146.79373660000056,146.79373660000056,146.79373660000056,146.79373660000056,146.79373660000056,146.79373660000056,146.79373660000056,146.79373660000056,,003,P009,2025_Feb_01_1325,ConditionRich,2021.2.3,59.93967670969701,
114.75,115.0,41,0.0,Stimuli/Blank.png,0,0,0.0,0,191,191,191,,,,,,,,,,,,,114.7695590000003,0.01955900000029942,None,147.56106349999754,147.56106349999754,147.56106349999754,147.56106349999754,147.56106349999754,147.56106349999754,147.56106349999754,147.56106349999754,147.56106349999754,147.56106349999754,,003,P009,2025_Feb_01_1325,ConditionRich,2021.2.3,59.93967670969701,
115.0,115.75,13,0.75,Stimuli/P009/sun_bjimvgwadfodioes.jpg,0,0,0.0,0,192,192,192,,,,,,,,,,,,,115.01778719999857,0.017787199998565484,None,147.7946007999999,147.7946007999999,147.7946007999999,147.7946007999999,147.7946007999999,147.7946007999999,147.7946007999999,147.7946007999999,147.7946007999999,147.7946007999999,,003,P009,2025_Feb_01_1325,ConditionRich,2021.2.3,59.93967670969701,
115.75,116.0,41,0.0,Stimuli/Blank.png,0,0,0.0,0,193,193,193,,,,,,,,,,,,,115.75303679999706,0.0030367999970621895,None,148.5285909999984,148.5285909999984,148.5285909999984,148.5285909999984,148.5285909999984,148.5285909999984,148.5285909999984,148.5285909999984,148.5285909999984,148.5285909999984,,003,P009,2025_Feb_01_1325,ConditionRich,2021.2.3,59.93967670969701,
116.0,116.75,24,0.75,Stimuli/P009/things_cigar_05n.jpg,0,0,0.0,0,194,194,194,,,,,,,,,,,,,116.00234279999859,0.0023427999985869974,None,148.79548839999916,148.79548839999916,148.79548839999916,148.79548839999916,148.79548839999916,148.79548839999916,148.79548839999916,148.79548839999916,148.79548839999916,148.79548839999916,,003,P009,2025_Feb_01_1325,ConditionRich,2021.2.3,59.93967670969701,
116.75,117.0,41,0.0,Stimuli/Blank.png,0,0,0.0,0,195,195,195,,,,,,,,,,,,,116.76943969999775,0.019439699997747084,None,149.54612499999712,149.54612499999712,149.54612499999712,149.54612499999712,149.54612499999712,149.54612499999712,149.54612499999712,149.54612499999712,149.54612499999712,149.54612499999712,,003,P009,2025_Feb_01_1325,ConditionRich,2021.2.3,59.93967670969701,
117.0,117.75,24,0.75,Stimuli/P009/things_cigar_05n.jpg,1,0,0.75,0,196,196,196,,,,,,,,,,,,,117.0047734999971,0.0047734999970998615,1,149.79636579999715,149.79636579999715,149.79636579999715,149.79636579999715,149.79636579999715,149.79636579999715,149.79636579999715,150.5303488999998,149.79636579999715,149.79636579999715,0.4502269000004162,003,P009,2025_Feb_01_1325,ConditionRich,2021.2.3,59.93967670969701,
117.75,118.0,41,0.0,Stimuli/Blank.png,0,0,0.0,0,197,197,197,,,,,,,,,,,,,117.77060979999806,0.020609799998055678,None,150.54703289999816,150.54703289999816,150.54703289999816,150.54703289999816,150.54703289999816,150.54703289999816,150.54703289999816,150.54703289999816,150.54703289999816,150.54703289999816,,003,P009,2025_Feb_01_1325,ConditionRich,2021.2.3,59.93967670969701,
118.0,118.75,24,0.75,Stimuli/P009/things_cigar_05n.jpg,0,0,0.0,0,198,198,198,,,,,,,,,,,,,118.0041472999983,0.004147299998294329,None,150.79725719999988,150.79725719999988,150.79725719999988,150.79725719999988,150.79725719999988,150.79725719999988,150.79725719999988,150.79725719999988,150.79725719999988,150.79725719999988,,003,P009,2025_Feb_01_1325,ConditionRich,2021.2.3,59.93967670969701,
118.75,119.0,41,0.0,Stimuli/Blank.png,0,0,0.0,0,199,199,199,,,,,,,,,,,,,118.77116179999939,0.021161799999390496,None,151.54795629999717,151.54795629999717,151.54795629999717,151.54795629999717,151.54795629999717,151.54795629999717,151.54795629999717,151.54795629999717,151.54795629999717,151.54795629999717,,003,P009,2025_Feb_01_1325,ConditionRich,2021.2.3,59.93967670969701,
119.0,119.75,24,0.75,Stimuli/P009/things_cigar_05n.jpg,0,0,0.0,0,200,200,200,,,,,,,,,,,,,119.00497799999721,0.004977999997208826,None,151.7986815999975,151.7986815999975,151.7986815999975,151.7986815999975,151.7986815999975,151.7986815999975,151.7986815999975,151.7986815999975,151.7986815999975,151.7986815999975,,003,P009,2025_Feb_01_1325,ConditionRich,2021.2.3,59.93967670969701,
119.75,120.0,41,0.0,Stimuli/Blank.png,0,0,0.0,0,201,201,201,,,,,,,,,,,,,119.77227599999969,0.02227599999969243,None,152.54880699999921,152.54880699999921,152.54880699999921,152.54880699999921,152.54880699999921,152.54880699999921,152.54880699999921,152.54880699999921,152.54880699999921,152.54880699999921,,003,P009,2025_Feb_01_1325,ConditionRich,2021.2.3,59.93967670969701,
120.0,120.75,29,0.75,Stimuli/P009/things_fingerprint_05s.jpg,0,0,0.0,0,202,202,202,,,,,,,,,,,,,120.00605910000013,0.006059100000129547,None,152.7990342999983,152.7990342999983,152.7990342999983,152.7990342999983,152.7990342999983,152.7990342999983,152.7990342999983,152.7990342999983,152.7990342999983,152.7990342999983,,003,P009,2025_Feb_01_1325,ConditionRich,2021.2.3,59.93967670969701,
120.75,121.0,41,0.0,Stimuli/Blank.png,0,0,0.0,0,203,203,203,,,,,,,,,,,,,120.77485849999721,0.024858499997208128,None,153.56637839999894,153.56637839999894,153.56637839999894,153.56637839999894,153.56637839999894,153.56637839999894,153.56637839999894,153.56637839999894,153.56637839999894,153.56637839999894,,003,P009,2025_Feb_01_1325,ConditionRich,2021.2.3,59.93967670969701,
121.0,121.75,29,0.75,Stimuli/P009/things_fingerprint_05s.jpg,0,0,0.0,0,204,204,204,,,,,,,,,,,,,121.024856,0.024855999999999767,None,153.8165912000004,153.8165912000004,153.8165912000004,153.8165912000004,153.8165912000004,153.8165912000004,153.8165912000004,153.8165912000004,153.8165912000004,153.8165912000004,,003,P009,2025_Feb_01_1325,ConditionRich,2021.2.3,59.93967670969701,
121.75,122.0,41,0.0,Stimuli/Blank.png,0,0,0.0,0,205,205,205,,,,,,,,,,,,,121.77442969999902,0.02442969999901834,None,154.5505841999984,154.5505841999984,154.5505841999984,154.5505841999984,154.5505841999984,154.5505841999984,154.5505841999984,154.5505841999984,154.5505841999984,154.5505841999984,,003,P009,2025_Feb_01_1325,ConditionRich,2021.2.3,59.93967670969701,
122.0,122.75,29,0.75,Stimuli/P009/things_fingerprint_05s.jpg,0,0,0.0,0,206,206,206,,,,,,,,,,,,,122.00984259999677,0.00984259999677306,None,154.80079059999844,154.80079059999844,154.80079059999844,154.80079059999844,154.80079059999844,154.80079059999844,154.80079059999844,154.80079059999844,154.80079059999844,154.80079059999844,,003,P009,2025_Feb_01_1325,ConditionRich,2021.2.3,59.93967670969701,
122.75,123.0,41,0.0,Stimuli/Blank.png,0,0,0.0,0,207,207,207,,,,,,,,,,,,,122.77517559999978,0.025175599999784026,None,155.5514645000003,155.5514645000003,155.5514645000003,155.5514645000003,155.5514645000003,155.5514645000003,155.5514645000003,155.5514645000003,155.5514645000003,155.5514645000003,,003,P009,2025_Feb_01_1325,ConditionRich,2021.2.3,59.93967670969701,
123.0,123.75,29,0.75,Stimuli/P009/things_fingerprint_05s.jpg,0,0,0.0,0,208,208,208,,,,,,,,,,,,,123.00989449999906,0.009894499999063555,None,155.80168059999778,155.80168059999778,155.80168059999778,155.80168059999778,155.80168059999778,155.80168059999778,155.80168059999778,155.80168059999778,155.80168059999778,155.80168059999778,,003,P009,2025_Feb_01_1325,ConditionRich,2021.2.3,59.93967670969701,
123.75,124.0,41,0.0,Stimuli/Blank.png,0,0,0.0,0,209,209,209,,,,,,,,,,,,,123.77619549999872,0.02619549999872106,None,156.55235639999955,156.55235639999955,156.55235639999955,156.55235639999955,156.55235639999955,156.55235639999955,156.55235639999955,156.55235639999955,156.55235639999955,156.55235639999955,,003,P009,2025_Feb_01_1325,ConditionRich,2021.2.3,59.93967670969701,
124.0,124.75,8,0.75,Stimuli/P009/sun_batcnoizlkeiqdtx.jpg,0,0,0.0,0,210,210,210,,,,,,,,,,,,,124.00912239999889,0.009122399998886976,None,156.7858785999997,156.7858785999997,156.7858785999997,156.7858785999997,156.7858785999997,156.7858785999997,156.7858785999997,156.7858785999997,156.7858785999997,156.7858785999997,,003,P009,2025_Feb_01_1325,ConditionRich,2021.2.3,59.93967670969701,
124.75,125.0,41,0.0,Stimuli/Blank.png,0,0,0.0,0,211,211,211,,,,,,,,,,,,,124.76028329999826,0.010283299998263828,None,157.53655819999767,157.53655819999767,157.53655819999767,157.53655819999767,157.53655819999767,157.53655819999767,157.53655819999767,157.53655819999767,157.53655819999767,157.53655819999767,,003,P009,2025_Feb_01_1325,ConditionRich,2021.2.3,59.93967670969701,
125.0,125.75,8,0.75,Stimuli/P009/sun_batcnoizlkeiqdtx.jpg,0,0,0.0,0,212,212,212,,,,,,,,,,,,,125.01033069999903,0.010330699999030912,None,157.80347450000045,157.80347450000045,157.80347450000045,157.80347450000045,157.80347450000045,157.80347450000045,157.80347450000045,157.80347450000045,157.80347450000045,157.80347450000045,,003,P009,2025_Feb_01_1325,ConditionRich,2021.2.3,59.93967670969701,
125.75,126.0,41,0.0,Stimuli/Blank.png,0,0,0.0,0,213,213,213,,,,,,,,,,,,,125.77987199999916,0.029871999999159016,None,158.57081409999955,158.57081409999955,158.57081409999955,158.57081409999955,158.57081409999955,158.57081409999955,158.57081409999955,158.57081409999955,158.57081409999955,158.57081409999955,,003,P009,2025_Feb_01_1325,ConditionRich,2021.2.3,59.93967670969701,
126.0,126.75,8,0.75,Stimuli/P009/sun_batcnoizlkeiqdtx.jpg,0,0,0.0,0,214,214,214,,,,,,,,,,,,,126.02746119999938,0.02746119999937946,None,158.82103350000034,158.82103350000034,158.82103350000034,158.82103350000034,158.82103350000034,158.82103350000034,158.82103350000034,158.82103350000034,158.82103350000034,158.82103350000034,,003,P009,2025_Feb_01_1325,ConditionRich,2021.2.3,59.93967670969701,
126.75,127.0,41,0.0,Stimuli/Blank.png,0,0,0.0,0,215,215,215,,,,,,,,,,,,,126.78089829999954,0.030898299999535084,None,159.57169799999974,159.57169799999974,159.57169799999974,159.57169799999974,159.57169799999974,159.57169799999974,159.57169799999974,159.57169799999974,159.57169799999974,159.57169799999974,,003,P009,2025_Feb_01_1325,ConditionRich,2021.2.3,59.93967670969701,
127.0,127.75,8,0.75,Stimuli/P009/sun_batcnoizlkeiqdtx.jpg,0,0,0.0,0,216,216,216,,,,,,,,,,,,,127.03020829999878,0.030208299998776056,None,159.8219188999974,159.8219188999974,159.8219188999974,159.8219188999974,159.8219188999974,159.8219188999974,159.8219188999974,159.8219188999974,159.8219188999974,159.8219188999974,,003,P009,2025_Feb_01_1325,ConditionRich,2021.2.3,59.93967670969701,
127.75,128.0,41,0.0,Stimuli/Blank.png,0,0,0.0,0,217,217,217,,,,,,,,,,,,,127.77937359999851,0.029373599998507416,None,160.55589469999904,160.55589469999904,160.55589469999904,160.55589469999904,160.55589469999904,160.55589469999904,160.55589469999904,160.55589469999904,160.55589469999904,160.55589469999904,,003,P009,2025_Feb_01_1325,ConditionRich,2021.2.3,59.93967670969701,
128.0,128.75,39,0.75,Stimuli/P009/things_tiara_05s.jpg,0,0,0.0,0,218,218,218,,,,,,,,,,,,,128.01298870000028,0.012988700000278186,None,160.78942859999734,160.78942859999734,160.78942859999734,160.78942859999734,160.78942859999734,160.78942859999734,160.78942859999734,160.78942859999734,160.78942859999734,160.78942859999734,,003,P009,2025_Feb_01_1325,ConditionRich,2021.2.3,59.93967670969701,
128.75,129.0,41,0.0,Stimuli/Blank.png,0,0,0.0,0,219,219,219,,,,,,,,,,,,,128.7640446999976,0.014044699997612042,None,161.54009629999928,161.54009629999928,161.54009629999928,161.54009629999928,161.54009629999928,161.54009629999928,161.54009629999928,161.54009629999928,161.54009629999928,161.54009629999928,,003,P009,2025_Feb_01_1325,ConditionRich,2021.2.3,59.93967670969701,
129.0,129.75,39,0.75,Stimuli/P009/things_tiara_05s.jpg,0,0,0.0,0,220,220,220,,,,,,,,,,,,,129.0138354999981,0.013835499998094747,None,161.79031099999702,161.79031099999702,161.79031099999702,161.79031099999702,161.79031099999702,161.79031099999702,161.79031099999702,161.79031099999702,161.79031099999702,161.79031099999702,,003,P009,2025_Feb_01_1325,ConditionRich,2021.2.3,59.93967670969701,
129.75,130.0,41,0.0,Stimuli/Blank.png,0,0,0.0,0,221,221,221,,,,,,,,,,,,,129.764550099997,0.014550099996995414,None,162.5409828999982,162.5409828999982,162.5409828999982,162.5409828999982,162.5409828999982,162.5409828999982,162.5409828999982,162.5409828999982,162.5409828999982,162.5409828999982,,003,P009,2025_Feb_01_1325,ConditionRich,2021.2.3,59.93967670969701,
130.0,130.75,39,0.75,Stimuli/P009/things_tiara_05s.jpg,0,0,0.0,0,222,222,222,,,,,,,,,,,,,130.01461500000005,0.014615000000048894,None,162.79121069999746,162.79121069999746,162.79121069999746,162.79121069999746,162.79121069999746,162.79121069999746,162.79121069999746,162.79121069999746,162.79121069999746,162.79121069999746,,003,P009,2025_Feb_01_1325,ConditionRich,2021.2.3,59.93967670969701,
130.75,131.0,41,0.0,Stimuli/Blank.png,0,0,0.0,0,223,223,223,,,,,,,,,,,,,130.7648315999977,0.01483159999770578,None,163.54186339999796,163.54186339999796,163.54186339999796,163.54186339999796,163.54186339999796,163.54186339999796,163.54186339999796,163.54186339999796,163.54186339999796,163.54186339999796,,003,P009,2025_Feb_01_1325,ConditionRich,2021.2.3,59.93967670969701,
131.0,131.75,39,0.75,Stimuli/P009/things_tiara_05s.jpg,0,0,0.0,0,224,224,224,,,,,,,,,,,,,131.01497139999992,0.014971399999922141,None,163.7920840000006,163.7920840000006,163.7920840000006,163.7920840000006,163.7920840000006,163.7920840000006,163.7920840000006,163.7920840000006,163.7920840000006,163.7920840000006,,003,P009,2025_Feb_01_1325,ConditionRich,2021.2.3,59.93967670969701,
131.75,132.0,41,0.0,Stimuli/Blank.png,0,0,0.0,0,225,225,225,,,,,,,,,,,,,131.76562919999924,0.015629199999239063,None,164.54275029999917,164.54275029999917,164.54275029999917,164.54275029999917,164.54275029999917,164.54275029999917,164.54275029999917,164.54275029999917,164.54275029999917,164.54275029999917,,003,P009,2025_Feb_01_1325,ConditionRich,2021.2.3,59.93967670969701,
132.0,132.75,25,0.75,Stimuli/P009/things_clothespin_05s.jpg,0,0,0.0,0,226,226,226,,,,,,,,,,,,,132.00016179999875,0.00016179999875021167,None,164.79298740000013,164.79298740000013,164.79298740000013,164.79298740000013,164.79298740000013,164.79298740000013,164.79298740000013,164.79298740000013,164.79298740000013,164.79298740000013,,003,P009,2025_Feb_01_1325,ConditionRich,2021.2.3,59.93967670969701,
132.75,133.0,41,0.0,Stimuli/Blank.png,0,0,0.0,0,227,227,227,,,,,,,,,,,,,132.76663589999953,0.016635899999528192,None,165.54363139999987,165.54363139999987,165.54363139999987,165.54363139999987,165.54363139999987,165.54363139999987,165.54363139999987,165.54363139999987,165.54363139999987,165.54363139999987,,003,P009,2025_Feb_01_1325,ConditionRich,2021.2.3,59.93967670969701,
133.0,133.75,25,0.75,Stimuli/P009/things_clothespin_05s.jpg,0,0,0.0,0,228,228,228,,,,,,,,,,,,,133.00034679999953,0.0003467999995336868,None,165.77718009999808,165.77718009999808,165.77718009999808,165.77718009999808,165.77718009999808,165.77718009999808,165.77718009999808,165.77718009999808,165.77718009999808,165.77718009999808,,003,P009,2025_Feb_01_1325,ConditionRich,2021.2.3,59.93967670969701,
133.75,134.0,41,0.0,Stimuli/Blank.png,0,0,0.0,0,229,229,229,,,,,,,,,,,,,133.75078049999865,0.0007804999986547045,None,166.52783259999705,166.52783259999705,166.52783259999705,166.52783259999705,166.52783259999705,166.52783259999705,166.52783259999705,166.52783259999705,166.52783259999705,166.52783259999705,,003,P009,2025_Feb_01_1325,ConditionRich,2021.2.3,59.93967670969701,
134.0,134.75,25,0.75,Stimuli/P009/things_clothespin_05s.jpg,0,0,0.0,0,230,230,230,,,,,,,,,,,,,134.0011240999993,0.0011240999992878642,None,166.77803539999877,166.77803539999877,166.77803539999877,166.77803539999877,166.77803539999877,166.77803539999877,166.77803539999877,166.77803539999877,166.77803539999877,166.77803539999877,,003,P009,2025_Feb_01_1325,ConditionRich,2021.2.3,59.93967670969701,
134.75,135.0,41,0.0,Stimuli/Blank.png,0,0,0.0,0,231,231,231,,,,,,,,,,,,,134.75230369999917,0.002303699999174569,None,167.52880439999717,167.52880439999717,167.52880439999717,167.52880439999717,167.52880439999717,167.52880439999717,167.52880439999717,167.52880439999717,167.52880439999717,167.52880439999717,,003,P009,2025_Feb_01_1325,ConditionRich,2021.2.3,59.93967670969701,
135.0,135.75,25,0.75,Stimuli/P009/things_clothespin_05s.jpg,0,0,0.0,0,232,232,232,,,,,,,,,,,,,135.00211429999763,0.002114299997629132,None,167.7789260999998,167.7789260999998,167.7789260999998,167.7789260999998,167.7789260999998,167.7789260999998,167.7789260999998,167.7789260999998,167.7789260999998,167.7789260999998,,003,P009,2025_Feb_01_1325,ConditionRich,2021.2.3,59.93967670969701,
135.75,136.0,41,0.0,Stimuli/Blank.png,0,0,0.0,0,233,233,233,,,,,,,,,,,,,135.75489089999974,0.004890899999736575,None,168.5462965000006,168.5462965000006,168.5462965000006,168.5462965000006,168.5462965000006,168.5462965000006,168.5462965000006,168.5462965000006,168.5462965000006,168.5462965000006,,003,P009,2025_Feb_01_1325,ConditionRich,2021.2.3,59.93967670969701,
136.0,136.75,22,0.75,Stimuli/P009/things_butterfly_05s.jpg,0,0,0.0,0,234,234,234,,,,,,,,,,,,,136.0204296999982,0.020429699998203432,None,168.8132258000005,168.8132258000005,168.8132258000005,168.8132258000005,168.8132258000005,168.8132258000005,168.8132258000005,168.8132258000005,168.8132258000005,168.8132258000005,,003,P009,2025_Feb_01_1325,ConditionRich,2021.2.3,59.93967670969701,
136.75,137.0,41,0.0,Stimuli/Blank.png,0,0,0.0,0,235,235,235,,,,,,,,,,,,,136.77088439999716,0.020884399997157743,None,169.54717379999784,169.54717379999784,169.54717379999784,169.54717379999784,169.54717379999784,169.54717379999784,169.54717379999784,169.54717379999784,169.54717379999784,169.54717379999784,,003,P009,2025_Feb_01_1325,ConditionRich,2021.2.3,59.93967670969701,
137.0,137.75,22,0.75,Stimuli/P009/things_butterfly_05s.jpg,0,0,0.0,0,236,236,236,,,,,,,,,,,,,137.00374719999672,0.0037471999967237934,None,169.78072709999833,169.78072709999833,169.78072709999833,169.78072709999833,169.78072709999833,169.78072709999833,169.78072709999833,169.78072709999833,169.78072709999833,169.78072709999833,,003,P009,2025_Feb_01_1325,ConditionRich,2021.2.3,59.93967670969701,
137.75,138.0,41,0.0,Stimuli/Blank.png,0,0,0.0,0,237,237,237,,,,,,,,,,,,,137.75443999999698,0.00443999999697553,None,170.5313838999973,170.5313838999973,170.5313838999973,170.5313838999973,170.5313838999973,170.5313838999973,170.5313838999973,170.5313838999973,170.5313838999973,170.5313838999973,,003,P009,2025_Feb_01_1325,ConditionRich,2021.2.3,59.93967670969701,
138.0,138.75,22,0.75,Stimuli/P009/things_butterfly_05s.jpg,0,0,0.0,0,238,238,238,,,,,,,,,,,,,138.0053205999975,0.00532059999750345,None,170.78155759999936,170.78155759999936,170.78155759999936,170.78155759999936,170.78155759999936,170.78155759999936,170.78155759999936,170.78155759999936,170.78155759999936,170.78155759999936,,003,P009,2025_Feb_01_1325,ConditionRich,2021.2.3,59.93967670969701,
138.75,139.0,41,0.0,Stimuli/Blank.png,0,0,0.0,0,239,239,239,,,,,,,,,,,,,138.75595859999885,0.005958599998848513,None,171.53226709999944,171.53226709999944,171.53226709999944,171.53226709999944,171.53226709999944,171.53226709999944,171.53226709999944,171.53226709999944,171.53226709999944,171.53226709999944,,003,P009,2025_Feb_01_1325,ConditionRich,2021.2.3,59.93967670969701,
139.0,139.75,22,0.75,Stimuli/P009/things_butterfly_05s.jpg,0,0,0.0,0,240,240,240,,,,,,,,,,,,,139.0055317999977,0.005531799997697817,None,171.78248289999829,171.78248289999829,171.78248289999829,171.78248289999829,171.78248289999829,171.78248289999829,171.78248289999829,171.78248289999829,171.78248289999829,171.78248289999829,,003,P009,2025_Feb_01_1325,ConditionRich,2021.2.3,59.93967670969701,
139.75,140.0,41,0.0,Stimuli/Blank.png,0,0,0.0,0,241,241,241,,,,,,,,,,,,,139.75605839999844,0.00605839999843738,None,172.53315839999777,172.53315839999777,172.53315839999777,172.53315839999777,172.53315839999777,172.53315839999777,172.53315839999777,172.53315839999777,172.53315839999777,172.53315839999777,,003,P009,2025_Feb_01_1325,ConditionRich,2021.2.3,59.93967670969701,
140.0,140.75,7,0.75,Stimuli/P009/sun_apiogxmvvzfmtsmj.jpg,0,0,0.0,0,242,242,242,,,,,,,,,,,,,140.007388799997,0.007388799996988382,None,172.80007479999767,172.80007479999767,172.80007479999767,172.80007479999767,172.80007479999767,172.80007479999767,172.80007479999767,172.80007479999767,172.80007479999767,172.80007479999767,,003,P009,2025_Feb_01_1325,ConditionRich,2021.2.3,59.93967670969701,
140.75,141.0,41,0.0,Stimuli/Blank.png,0,0,0.0,0,243,243,243,,,,,,,,,,,,,140.77435960000003,0.02435960000002524,None,173.55072039999868,173.55072039999868,173.55072039999868,173.55072039999868,173.55072039999868,173.55072039999868,173.55072039999868,173.55072039999868,173.55072039999868,173.55072039999868,,003,P009,2025_Feb_01_1325,ConditionRich,2021.2.3,59.93967670969701,
141.0,141.75,7,0.75,Stimuli/P009/sun_apiogxmvvzfmtsmj.jpg,0,0,0.0,0,244,244,244,,,,,,,,,,,,,141.00790659999984,0.007906599999842001,None,173.80093879999913,173.80093879999913,173.80093879999913,173.80093879999913,173.80093879999913,173.80093879999913,173.80093879999913,173.80093879999913,173.80093879999913,173.80093879999913,,003,P009,2025_Feb_01_1325,ConditionRich,2021.2.3,59.93967670969701,
141.75,142.0,41,0.0,Stimuli/Blank.png,0,0,0.0,0,245,245,245,,,,,,,,,,,,,141.77524739999717,0.02524739999716985,None,174.5516134999998,174.5516134999998,174.5516134999998,174.5516134999998,174.5516134999998,174.5516134999998,174.5516134999998,174.5516134999998,174.5516134999998,174.5516134999998,,003,P009,2025_Feb_01_1325,ConditionRich,2021.2.3,59.93967670969701,
142.0,142.75,7,0.75,Stimuli/P009/sun_apiogxmvvzfmtsmj.jpg,0,0,0.0,0,246,246,246,,,,,,,,,,,,,142.0107771999974,0.010777199997392017,None,174.8018157000006,174.8018157000006,174.8018157000006,174.8018157000006,174.8018157000006,174.8018157000006,174.8018157000006,174.8018157000006,174.8018157000006,174.8018157000006,,003,P009,2025_Feb_01_1325,ConditionRich,2021.2.3,59.93967670969701,
142.75,143.0,41,0.0,Stimuli/Blank.png,0,0,0.0,0,247,247,247,,,,,,,,,,,,,142.77595889999793,0.02595889999793144,None,175.55249189999813,175.55249189999813,175.55249189999813,175.55249189999813,175.55249189999813,175.55249189999813,175.55249189999813,175.55249189999813,175.55249189999813,175.55249189999813,,003,P009,2025_Feb_01_1325,ConditionRich,2021.2.3,59.93967670969701,
143.0,143.75,7,0.75,Stimuli/P009/sun_apiogxmvvzfmtsmj.jpg,0,0,0.0,0,248,248,248,,,,,,,,,,,,,143.00890859999708,0.00890859999708482,None,175.78603609999846,175.78603609999846,175.78603609999846,175.78603609999846,175.78603609999846,175.78603609999846,175.78603609999846,175.78603609999846,175.78603609999846,175.78603609999846,,003,P009,2025_Feb_01_1325,ConditionRich,2021.2.3,59.93967670969701,
143.75,144.0,41,0.0,Stimuli/Blank.png,0,0,0.0,0,249,249,249,,,,,,,,,,,,,143.76110639999752,0.011106399997515837,None,176.5367101999982,176.5367101999982,176.5367101999982,176.5367101999982,176.5367101999982,176.5367101999982,176.5367101999982,176.5367101999982,176.5367101999982,176.5367101999982,,003,P009,2025_Feb_01_1325,ConditionRich,2021.2.3,59.93967670969701,
144.0,144.75,35,0.75,Stimuli/P009/things_mushroom_05n.jpg,0,0,0.0,0,250,250,250,,,,,,,,,,,,,144.0100027999979,0.010002799997891998,None,176.7868830999978,176.7868830999978,176.7868830999978,176.7868830999978,176.7868830999978,176.7868830999978,176.7868830999978,176.7868830999978,176.7868830999978,176.7868830999978,,003,P009,2025_Feb_01_1325,ConditionRich,2021.2.3,59.93967670969701,
144.75,145.0,41,0.0,Stimuli/Blank.png,0,0,0.0,0,251,251,251,,,,,,,,,,,,,144.76051290000032,0.010512900000321679,None,177.5375826999989,177.5375826999989,177.5375826999989,177.5375826999989,177.5375826999989,177.5375826999989,177.5375826999989,177.5375826999989,177.5375826999989,177.5375826999989,,003,P009,2025_Feb_01_1325,ConditionRich,2021.2.3,59.93967670969701,
145.0,145.75,35,0.75,Stimuli/P009/things_mushroom_05n.jpg,0,0,0.0,0,252,252,252,,,,,,,,,,,,,145.0116410999981,0.011641099998087157,None,177.8044829999999,177.8044829999999,177.8044829999999,177.8044829999999,177.8044829999999,177.8044829999999,177.8044829999999,177.8044829999999,177.8044829999999,177.8044829999999,,003,P009,2025_Feb_01_1325,ConditionRich,2021.2.3,59.93967670969701,
145.75,146.0,41,0.0,Stimuli/Blank.png,0,0,0.0,0,253,253,253,,,,,,,,,,,,,145.78017289999843,0.030172899998433422,None,178.5718330999989,178.5718330999989,178.5718330999989,178.5718330999989,178.5718330999989,178.5718330999989,178.5718330999989,178.5718330999989,178.5718330999989,178.5718330999989,,003,P009,2025_Feb_01_1325,ConditionRich,2021.2.3,59.93967670969701,
146.0,146.75,35,0.75,Stimuli/P009/things_mushroom_05n.jpg,0,0,0.0,0,254,254,254,,,,,,,,,,,,,146.0292238999973,0.029223899997305125,None,178.82205469999826,178.82205469999826,178.82205469999826,178.82205469999826,178.82205469999826,178.82205469999826,178.82205469999826,178.82205469999826,178.82205469999826,178.82205469999826,,003,P009,2025_Feb_01_1325,ConditionRich,2021.2.3,59.93967670969701,
146.75,147.0,41,0.0,Stimuli/Blank.png,0,0,0.0,0,255,255,255,,,,,,,,,,,,,146.77904979999948,0.029049799999484094,None,179.55602889999864,179.55602889999864,179.55602889999864,179.55602889999864,179.55602889999864,179.55602889999864,179.55602889999864,179.55602889999864,179.55602889999864,179.55602889999864,,003,P009,2025_Feb_01_1325,ConditionRich,2021.2.3,59.93967670969701,
147.0,147.75,35,0.75,Stimuli/P009/things_mushroom_05n.jpg,0,0,0.0,0,256,256,256,,,,,,,,,,,,,147.01342229999864,0.013422299998637754,None,179.78957169999921,179.78957169999921,179.78957169999921,179.78957169999921,179.78957169999921,179.78957169999921,179.78957169999921,179.78957169999921,179.78957169999921,179.78957169999921,,003,P009,2025_Feb_01_1325,ConditionRich,2021.2.3,59.93967670969701,
147.75,148.0,41,0.0,Stimuli/Blank.png,0,0,0.0,0,257,257,257,,,,,,,,,,,,,147.76412459999847,0.014124599998467602,None,180.5402428999987,180.5402428999987,180.5402428999987,180.5402428999987,180.5402428999987,180.5402428999987,180.5402428999987,180.5402428999987,180.5402428999987,180.5402428999987,,003,P009,2025_Feb_01_1325,ConditionRich,2021.2.3,59.93967670969701,
148.0,148.75,37,0.75,Stimuli/P009/things_pug_05s.jpg,0,0,0.0,0,258,258,258,,,,,,,,,,,,,148.0137369999975,0.013736999997490784,None,180.79045749999932,180.79045749999932,180.79045749999932,180.79045749999932,180.79045749999932,180.79045749999932,180.79045749999932,180.79045749999932,180.79045749999932,180.79045749999932,,003,P009,2025_Feb_01_1325,ConditionRich,2021.2.3,59.93967670969701,
148.75,149.0,41,0.0,Stimuli/Blank.png,0,0,0.0,0,259,259,259,,,,,,,,,,,,,148.76459619999878,0.014596199998777593,None,181.54112239999813,181.54112239999813,181.54112239999813,181.54112239999813,181.54112239999813,181.54112239999813,181.54112239999813,181.54112239999813,181.54112239999813,181.54112239999813,,003,P009,2025_Feb_01_1325,ConditionRich,2021.2.3,59.93967670969701,
149.0,149.75,37,0.75,Stimuli/P009/things_pug_05s.jpg,0,0,0.0,0,260,260,260,,,,,,,,,,,,,149.01502469999832,0.015024699998321012,None,181.80804879999778,181.80804879999778,181.80804879999778,181.80804879999778,181.80804879999778,181.80804879999778,181.80804879999778,181.80804879999778,181.80804879999778,181.80804879999778,,003,P009,2025_Feb_01_1325,ConditionRich,2021.2.3,59.93967670969701,
149.75,150.0,41,0.0,Stimuli/Blank.png,0,0,0.0,0,261,261,261,,,,,,,,,,,,,149.76558829999703,0.015588299997034483,None,182.5420226999995,182.5420226999995,182.5420226999995,182.5420226999995,182.5420226999995,182.5420226999995,182.5420226999995,182.5420226999995,182.5420226999995,182.5420226999995,,003,P009,2025_Feb_01_1325,ConditionRich,2021.2.3,59.93967670969701,
