eventStartTime,eventEndTime,eventCond,imSize,imFile,responseEvent,fixRespStart,fixRespEnd,Events.thisRepN,Events.thisTrialN,Events.thisN,Events.thisIndex,Instructions.started,Instructions.stopped,participantReadyResponse.keys,participantReadyResponse.rt,participantReadyResponse.started,participantReadyResponse.stopped,startWaitforTrigger,triggerResponse.keys,triggerResponse.rt,triggerResponse.started,triggerResponse.stopped,globalTimer,actualStartTime,startTimingDiff,participantResponse.keys,participantResponse.started,participantResponse.stopped,image.started,image.stopped,fixationOutside.started,fixationOutside.stopped,fixationResponse.started,fixationResponse.stopped,fixationInside.started,fixationInside.stopped,participantResponse.rt,session,participant,date,expName,psychopyVersion,frameRate,
,,,,,,,,,,,,11.756678699999611,None,1,24.53981930000009,11.756678699999611,None,,,,,,,,,,,,,,,,,,,,,004,P009,2025_Feb_01_1339,ConditionRich,2021.2.3,59.88231926590118,
,,,,,,,,,,,,,,,,,,36.30635540000003,5,15.380368799997086,36.31895839999925,None,,,,,,,,,,,,,,,,004,P009,2025_Feb_01_1339,ConditionRich,2021.2.3,59.88231926590118,
0.0,4.0,0,0.0,Stimuli/Blank.png,0,0,0.0,0,0,0,0,,,,,,,,,,,,51.70379989999856,0.05078409999987343,0.05078409999987343,None,51.782598900001176,None,51.782598900001176,None,51.782598900001176,None,51.782598900001176,51.782598900001176,51.782598900001176,None,,004,P009,2025_Feb_01_1339,ConditionRich,2021.2.3,59.88231926590118,
4.0,7.75,28,0.75,Stimuli/P009/things_face_05s.jpg,0,0,0.0,0,1,1,1,,,,,,,,,,,,,4.018824999999197,0.018824999999196734,None,55.75310209999952,55.75310209999952,55.75310209999952,55.75310209999952,55.75310209999952,55.75310209999952,55.75310209999952,55.75310209999952,55.75310209999952,55.75310209999952,,004,P009,2025_Feb_01_1339,ConditionRich,2021.2.3,59.88231926590118,
7.75,8.0,41,0.0,Stimuli/Blank.png,0,0,0.0,0,2,2,2,,,,,,,,,,,,,7.771678499997506,0.02167849999750615,None,59.48970869999903,59.48970869999903,59.48970869999903,59.48970869999903,59.48970869999903,59.48970869999903,59.48970869999903,59.48970869999903,59.48970869999903,59.48970869999903,,004,P009,2025_Feb_01_1339,ConditionRich,2021.2.3,59.88231926590118,
8.0,11.75,14,0.75,Stimuli/P009/sun_blaqxdebghixzyyw.jpg,0,0,0.0,0,3,3,3,,,,,,,,,,,,,8.007032499997877,0.0070324999978765845,None,59.73960989999978,59.73960989999978,59.73960989999978,59.73960989999978,59.73960989999978,59.73960989999978,59.73960989999978,59.73960989999978,59.73960989999978,59.73960989999978,,004,P009,2025_Feb_01_1339,ConditionRich,2021.2.3,59.88231926590118,
11.75,12.0,41,0.0,Stimuli/Blank.png,0,0,0.0,0,4,4,4,,,,,,,,,,,,,11.77793009999732,0.027930099997320212,None,63.50965509999878,63.50965509999878,63.50965509999878,63.50965509999878,63.50965509999878,63.50965509999878,63.50965509999878,63.50965509999878,63.50965509999878,63.50965509999878,,004,P009,2025_Feb_01_1339,ConditionRich,2021.2.3,59.88231926590118,
12.0,15.75,26,0.75,Stimuli/P009/things_cookie_sheet_05s.jpg,0,0,0.0,0,5,5,5,,,,,,,,,,,,,12.025519599999825,0.025519599999825004,None,63.759864700001344,63.759864700001344,63.759864700001344,63.759864700001344,63.759864700001344,63.759864700001344,63.759864700001344,63.759864700001344,63.759864700001344,63.759864700001344,,004,P009,2025_Feb_01_1339,ConditionRich,2021.2.3,59.88231926590118,
15.75,16.0,41,0.0,Stimuli/Blank.png,0,0,0.0,0,6,6,6,,,,,,,,,,,,,15.778748199998518,0.02874819999851752,None,67.49650459999975,67.49650459999975,67.49650459999975,67.49650459999975,67.49650459999975,67.49650459999975,67.49650459999975,67.49650459999975,67.49650459999975,67.49650459999975,,004,P009,2025_Feb_01_1339,ConditionRich,2021.2.3,59.88231926590118,
16.0,19.75,22,0.75,Stimuli/P009/things_butterfly_05s.jpg,0,0,0.0,0,7,7,7,,,,,,,,,,,,,16.011995399996522,0.011995399996521883,None,67.73004120000041,67.73004120000041,67.73004120000041,67.73004120000041,67.73004120000041,67.73004120000041,67.73004120000041,67.73004120000041,67.73004120000041,67.73004120000041,,004,P009,2025_Feb_01_1339,ConditionRich,2021.2.3,59.88231926590118,
19.75,20.0,41,0.0,Stimuli/Blank.png,0,0,0.0,0,8,8,8,,,,,,,,,,,,,19.76712619999671,0.017126199996710056,None,71.50005210000018,71.50005210000018,71.50005210000018,71.50005210000018,71.50005210000018,71.50005210000018,71.50005210000018,71.50005210000018,71.50005210000018,71.50005210000018,,004,P009,2025_Feb_01_1339,ConditionRich,2021.2.3,59.88231926590118,
20.0,23.75,4,0.75,Stimuli/P009/sun_afkzdukwewwzqtmr.jpg,0,0,0.0,0,9,9,9,,,,,,,,,,,,,20.017034299999068,0.017034299999068025,None,71.75067649999983,71.75067649999983,71.75067649999983,71.75067649999983,71.75067649999983,71.75067649999983,71.75067649999983,71.75067649999983,71.75067649999983,71.75067649999983,,004,P009,2025_Feb_01_1339,ConditionRich,2021.2.3,59.88231926590118,
23.75,24.0,41,0.0,Stimuli/Blank.png,0,0,0.0,0,10,10,10,,,,,,,,,,,,,23.769291199998406,0.019291199998406228,None,75.48690999999963,75.48690999999963,75.48690999999963,75.48690999999963,75.48690999999963,75.48690999999963,75.48690999999963,75.48690999999963,75.48690999999963,75.48690999999963,,004,P009,2025_Feb_01_1339,ConditionRich,2021.2.3,59.88231926590118,
24.0,27.75,35,0.75,Stimuli/P009/things_mushroom_05n.jpg,1,2,2.75,0,11,11,11,,,,,,,,,,,,,24.00280019999991,0.0028001999999105465,1,75.73714019999898,75.73714019999898,75.73714019999898,75.73714019999898,75.73714019999898,75.73714019999898,77.70555220000097,78.45619380000062,75.73714019999898,75.73714019999898,2.3872518000025593,004,P009,2025_Feb_01_1339,ConditionRich,2021.2.3,59.88231926590118,
27.75,28.0,41,0.0,Stimuli/Blank.png,0,0,0.0,0,12,12,12,,,,,,,,,,,,,27.772097099998064,0.02209709999806364,None,79.49044439999852,79.49044439999852,79.49044439999852,79.49044439999852,79.49044439999852,79.49044439999852,79.49044439999852,79.49044439999852,79.49044439999852,79.49044439999852,,004,P009,2025_Feb_01_1339,ConditionRich,2021.2.3,59.88231926590118,
28.0,31.75,7,0.75,Stimuli/P009/sun_apiogxmvvzfmtsmj.jpg,0,0,0.0,0,13,13,13,,,,,,,,,,,,,28.007691399998293,0.007691399998293491,None,79.74068519999855,79.74068519999855,79.74068519999855,79.74068519999855,79.74068519999855,79.74068519999855,79.74068519999855,79.74068519999855,79.74068519999855,79.74068519999855,,004,P009,2025_Feb_01_1339,ConditionRich,2021.2.3,59.88231926590118,
31.75,32.0,41,0.0,Stimuli/Blank.png,0,0,0.0,0,14,14,14,,,,,,,,,,,,,31.77864749999935,0.028647499999351567,None,83.51143230000162,83.51143230000162,83.51143230000162,83.51143230000162,83.51143230000162,83.51143230000162,83.51143230000162,83.51143230000162,83.51143230000162,83.51143230000162,,004,P009,2025_Feb_01_1339,ConditionRich,2021.2.3,59.88231926590118,
32.0,35.75,13,0.75,Stimuli/P009/sun_bjimvgwadfodioes.jpg,0,0,0.0,0,15,15,15,,,,,,,,,,,,,32.0264666999974,0.0264666999973997,None,83.74420309999914,83.74420309999914,83.74420309999914,83.74420309999914,83.74420309999914,83.74420309999914,83.74420309999914,83.74420309999914,83.74420309999914,83.74420309999914,,004,P009,2025_Feb_01_1339,ConditionRich,2021.2.3,59.88231926590118,
35.75,36.0,41,0.0,Stimuli/Blank.png,0,0,0.0,0,16,16,16,,,,,,,,,,,,,35.762579299997014,0.01257929999701446,None,87.48084970000127,87.48084970000127,87.48084970000127,87.48084970000127,87.48084970000127,87.48084970000127,87.48084970000127,87.48084970000127,87.48084970000127,87.48084970000127,,004,P009,2025_Feb_01_1339,ConditionRich,2021.2.3,59.88231926590118,
36.0,39.75,11,0.75,Stimuli/P009/sun_bfyvfqiimvdaxlqn.jpg,0,0,0.0,0,17,17,17,,,,,,,,,,,,,36.01304819999859,0.01304819999859319,None,87.73107159999927,87.73107159999927,87.73107159999927,87.73107159999927,87.73107159999927,87.73107159999927,87.73107159999927,87.73107159999927,87.73107159999927,87.73107159999927,,004,P009,2025_Feb_01_1339,ConditionRich,2021.2.3,59.88231926590118,
39.75,40.0,41,0.0,Stimuli/Blank.png,0,0,0.0,0,18,18,18,,,,,,,,,,,,,39.74932219999755,-0.0006778000024496578,None,91.46770240000114,91.46770240000114,91.46770240000114,91.46770240000114,91.46770240000114,91.46770240000114,91.46770240000114,91.46770240000114,91.46770240000114,91.46770240000114,,004,P009,2025_Feb_01_1339,ConditionRich,2021.2.3,59.88231926590118,
40.0,43.75,29,0.75,Stimuli/P009/things_fingerprint_05s.jpg,0,0,0.0,0,19,19,19,,,,,,,,,,,,,40.00037169999996,0.00037169999995967373,None,91.73460690000138,91.73460690000138,91.73460690000138,91.73460690000138,91.73460690000138,91.73460690000138,91.73460690000138,91.73460690000138,91.73460690000138,91.73460690000138,,004,P009,2025_Feb_01_1339,ConditionRich,2021.2.3,59.88231926590118,
43.75,44.0,41,0.0,Stimuli/Blank.png,0,0,0.0,0,20,20,20,,,,,,,,,,,,,43.76965199999904,0.019651999999041436,None,95.48800539999866,95.48800539999866,95.48800539999866,95.48800539999866,95.48800539999866,95.48800539999866,95.48800539999866,95.48800539999866,95.48800539999866,95.48800539999866,,004,P009,2025_Feb_01_1339,ConditionRich,2021.2.3,59.88231926590118,
44.0,47.75,16,0.75,Stimuli/P009/sun_bqpyqljaflidcauh.jpg,0,0,0.0,0,21,21,21,,,,,,,,,,,,,44.003219099999114,0.0032190999991144054,None,95.72142130000066,95.72142130000066,95.72142130000066,95.72142130000066,95.72142130000066,95.72142130000066,95.72142130000066,95.72142130000066,95.72142130000066,95.72142130000066,,004,P009,2025_Feb_01_1339,ConditionRich,2021.2.3,59.88231926590118,
47.75,48.0,41,0.0,Stimuli/Blank.png,0,0,0.0,0,22,22,22,,,,,,,,,,,,,47.756417199998396,0.0064171999983955175,None,99.47478630000114,99.47478630000114,99.47478630000114,99.47478630000114,99.47478630000114,99.47478630000114,99.47478630000114,99.47478630000114,99.47478630000114,99.47478630000114,,004,P009,2025_Feb_01_1339,ConditionRich,2021.2.3,59.88231926590118,
48.0,51.75,24,0.75,Stimuli/P009/things_cigar_05n.jpg,0,0,0.0,0,23,23,23,,,,,,,,,,,,,48.00704939999923,0.007049399999232264,None,99.72501289999855,99.72501289999855,99.72501289999855,99.72501289999855,99.72501289999855,99.72501289999855,99.72501289999855,99.72501289999855,99.72501289999855,99.72501289999855,,004,P009,2025_Feb_01_1339,ConditionRich,2021.2.3,59.88231926590118,
51.75,52.0,41,0.0,Stimuli/Blank.png,0,0,0.0,0,24,24,24,,,,,,,,,,,,,51.75996569999916,0.00996569999915664,None,103.47841609999887,103.47841609999887,103.47841609999887,103.47841609999887,103.47841609999887,103.47841609999887,103.47841609999887,103.47841609999887,103.47841609999887,103.47841609999887,,004,P009,2025_Feb_01_1339,ConditionRich,2021.2.3,59.88231926590118,
52.0,55.75,9,0.75,Stimuli/P009/sun_bdjkvwqqqycuixtc.jpg,1,2,2.75,0,25,25,25,,,,,,,,,,,,,52.01029439999911,0.010294399999111192,1,103.728544900001,103.728544900001,103.728544900001,103.728544900001,103.728544900001,103.728544900001,105.71361809999871,106.46430469999905,103.728544900001,103.728544900001,2.431109799999831,004,P009,2025_Feb_01_1339,ConditionRich,2021.2.3,59.88231926590118,
55.75,56.0,41,0.0,Stimuli/Blank.png,0,0,0.0,0,26,26,26,,,,,,,,,,,,,55.764216399998986,0.014216399998986162,None,107.48186329999953,107.48186329999953,107.48186329999953,107.48186329999953,107.48186329999953,107.48186329999953,107.48186329999953,107.48186329999953,107.48186329999953,107.48186329999953,,004,P009,2025_Feb_01_1339,ConditionRich,2021.2.3,59.88231926590118,
56.0,59.75,33,0.75,Stimuli/P009/things_lizard_05n.jpg,1,2,2.75,0,27,27,27,,,,,,,,,,,,,56.013958899999125,0.013958899999124696,1,107.73209140000108,107.73209140000108,107.73209140000108,107.73209140000108,107.73209140000108,107.73209140000108,109.71718340000007,110.46784549999938,107.73209140000108,107.73209140000108,2.4125047999987146,004,P009,2025_Feb_01_1339,ConditionRich,2021.2.3,59.88231926590118,
59.75,60.0,41,0.0,Stimuli/Blank.png,0,0,0.0,0,28,28,28,,,,,,,,,,,,,59.75169259999893,0.0016925999989325646,None,111.46873469999991,111.46873469999991,111.46873469999991,111.46873469999991,111.46873469999991,111.46873469999991,111.46873469999991,111.46873469999991,111.46873469999991,111.46873469999991,,004,P009,2025_Feb_01_1339,ConditionRich,2021.2.3,59.88231926590118,
60.0,63.75,20,0.75,Stimuli/P009/sun_ddsiwinthvyejghq.jpg,0,0,0.0,0,29,29,29,,,,,,,,,,,,,60.00338919999922,0.0033891999992192723,None,111.73563790000117,111.73563790000117,111.73563790000117,111.73563790000117,111.73563790000117,111.73563790000117,111.73563790000117,111.73563790000117,111.73563790000117,111.73563790000117,,004,P009,2025_Feb_01_1339,ConditionRich,2021.2.3,59.88231926590118,
63.75,64.0,41,0.0,Stimuli/Blank.png,0,0,0.0,0,30,30,30,,,,,,,,,,,,,63.77321739999752,0.02321739999752026,None,115.50668619999851,115.50668619999851,115.50668619999851,115.50668619999851,115.50668619999851,115.50668619999851,115.50668619999851,115.50668619999851,115.50668619999851,115.50668619999851,,004,P009,2025_Feb_01_1339,ConditionRich,2021.2.3,59.88231926590118,
64.0,67.75,12,0.75,Stimuli/P009/sun_birmwgkdtrlevcaf.jpg,1,2,2.75,0,31,31,31,,,,,,,,,,,,,64.02292159999706,0.022921599997062003,None,115.75586109999858,115.75586109999858,115.75586109999858,115.75586109999858,115.75586109999858,115.75586109999858,117.74095350000061,118.49160499999925,115.75586109999858,115.75586109999858,,004,P009,2025_Feb_01_1339,ConditionRich,2021.2.3,59.88231926590118,
67.75,68.0,41,0.0,Stimuli/Blank.png,0,0,0.0,0,32,32,32,,,,,,,,,,,,,67.77453969999988,0.024539699999877485,None,119.49248670000088,119.49248670000088,119.49248670000088,119.49248670000088,119.49248670000088,119.49248670000088,119.49248670000088,119.49248670000088,119.49248670000088,119.49248670000088,,004,P009,2025_Feb_01_1339,ConditionRich,2021.2.3,59.88231926590118,
68.0,71.75,32,0.75,Stimuli/P009/things_hawk_05s.jpg,0,0,0.0,0,33,33,33,,,,,,,,,,,,,68.00843259999965,0.008432599999650847,None,119.725989999999,119.725989999999,119.725989999999,119.725989999999,119.725989999999,119.725989999999,119.725989999999,119.725989999999,119.725989999999,119.725989999999,,004,P009,2025_Feb_01_1339,ConditionRich,2021.2.3,59.88231926590118,
71.75,72.0,41,0.0,Stimuli/Blank.png,0,0,0.0,0,34,34,34,,,,,,,,,,,,,71.76105469999675,0.01105469999674824,None,123.4794038,123.4794038,123.4794038,123.4794038,123.4794038,123.4794038,123.4794038,123.4794038,123.4794038,123.4794038,,004,P009,2025_Feb_01_1339,ConditionRich,2021.2.3,59.88231926590118,
72.0,75.75,15,0.75,Stimuli/P009/sun_boryivbddrnarrbo.jpg,0,0,0.0,0,35,35,35,,,,,,,,,,,,,72.01176389999819,0.011763899998186389,None,123.72957949999909,123.72957949999909,123.72957949999909,123.72957949999909,123.72957949999909,123.72957949999909,123.72957949999909,123.72957949999909,123.72957949999909,123.72957949999909,,004,P009,2025_Feb_01_1339,ConditionRich,2021.2.3,59.88231926590118,
75.75,76.0,41,0.0,Stimuli/Blank.png,0,0,0.0,0,36,36,36,,,,,,,,,,,,,75.76810209999894,0.018102099998941412,None,127.49959840000156,127.49959840000156,127.49959840000156,127.49959840000156,127.49959840000156,127.49959840000156,127.49959840000156,127.49959840000156,127.49959840000156,127.49959840000156,,004,P009,2025_Feb_01_1339,ConditionRich,2021.2.3,59.88231926590118,
76.0,79.75,10,0.75,Stimuli/P009/sun_bdkttewvyfdarikm.jpg,0,0,0.0,0,37,37,37,,,,,,,,,,,,,76.0146943999971,0.014694399997097207,None,127.74981579999803,127.74981579999803,127.74981579999803,127.74981579999803,127.74981579999803,127.74981579999803,127.74981579999803,127.74981579999803,127.74981579999803,127.74981579999803,,004,P009,2025_Feb_01_1339,ConditionRich,2021.2.3,59.88231926590118,
79.75,80.0,41,0.0,Stimuli/Blank.png,0,0,0.0,0,38,38,38,,,,,,,,,,,,,79.7689019999998,0.018901999999798136,None,131.48642699999982,131.48642699999982,131.48642699999982,131.48642699999982,131.48642699999982,131.48642699999982,131.48642699999982,131.48642699999982,131.48642699999982,131.48642699999982,,004,P009,2025_Feb_01_1339,ConditionRich,2021.2.3,59.88231926590118,
80.0,83.75,1,0.75,Stimuli/P009/sun_abqdlumenyzawlme.jpg,0,0,0.0,0,39,39,39,,,,,,,,,,,,,80.00264229999812,0.0026422999981150497,None,131.7366578000001,131.7366578000001,131.7366578000001,131.7366578000001,131.7366578000001,131.7366578000001,131.7366578000001,131.7366578000001,131.7366578000001,131.7366578000001,,004,P009,2025_Feb_01_1339,ConditionRich,2021.2.3,59.88231926590118,
83.75,84.0,41,0.0,Stimuli/Blank.png,0,0,0.0,0,40,40,40,,,,,,,,,,,,,83.77166919999945,0.02166919999945094,None,135.48998109999957,135.48998109999957,135.48998109999957,135.48998109999957,135.48998109999957,135.48998109999957,135.48998109999957,135.48998109999957,135.48998109999957,135.48998109999957,,004,P009,2025_Feb_01_1339,ConditionRich,2021.2.3,59.88231926590118,
84.0,100.0,0,0.0,Stimuli/Blank.png,1,2,2.75,0,41,41,41,,,,,,,,,,,,,84.00543789999938,0.005437899999378715,1,135.72352310000133,135.72352310000133,135.72352310000133,135.72352310000133,135.72352310000133,135.72352310000133,137.70874869999898,138.4593347000009,135.72352310000133,135.72352310000133,2.506821700000728,004,P009,2025_Feb_01_1339,ConditionRich,2021.2.3,59.88231926590118,
100.0,103.75,39,0.75,Stimuli/P009/things_tiara_05s.jpg,1,0,0.75,0,42,42,42,,,,,,,,,,,,,100.00407299999642,0.004072999996424187,1,151.7376734999998,151.7376734999998,151.7376734999998,151.7376734999998,151.7376734999998,151.7376734999998,151.7376734999998,152.4550073999999,151.7376734999998,151.7376734999998,0.5668437000022095,004,P009,2025_Feb_01_1339,ConditionRich,2021.2.3,59.88231926590118,
103.75,104.0,41,0.0,Stimuli/Blank.png,0,0,0.0,0,43,43,43,,,,,,,,,,,,,103.77301619999707,0.023016199997073272,None,155.49100230000113,155.49100230000113,155.49100230000113,155.49100230000113,155.49100230000113,155.49100230000113,155.49100230000113,155.49100230000113,155.49100230000113,155.49100230000113,,004,P009,2025_Feb_01_1339,ConditionRich,2021.2.3,59.88231926590118,
104.0,107.75,8,0.75,Stimuli/P009/sun_batcnoizlkeiqdtx.jpg,0,0,0.0,0,44,44,44,,,,,,,,,,,,,104.00761959999727,0.007619599997269688,None,155.74172090000138,155.74172090000138,155.74172090000138,155.74172090000138,155.74172090000138,155.74172090000138,155.74172090000138,155.74172090000138,155.74172090000138,155.74172090000138,,004,P009,2025_Feb_01_1339,ConditionRich,2021.2.3,59.88231926590118,
107.75,108.0,41,0.0,Stimuli/Blank.png,0,0,0.0,0,45,45,45,,,,,,,,,,,,,107.77851289999671,0.028512899996712804,None,159.51124440000058,159.51124440000058,159.51124440000058,159.51124440000058,159.51124440000058,159.51124440000058,159.51124440000058,159.51124440000058,159.51124440000058,159.51124440000058,,004,P009,2025_Feb_01_1339,ConditionRich,2021.2.3,59.88231926590118,
108.0,111.75,21,0.75,Stimuli/P009/things_boy_05s.jpg,0,0,0.0,0,46,46,46,,,,,,,,,,,,,108.02840449999712,0.028404499997122912,None,159.7614571999984,159.7614571999984,159.7614571999984,159.7614571999984,159.7614571999984,159.7614571999984,159.7614571999984,159.7614571999984,159.7614571999984,159.7614571999984,,004,P009,2025_Feb_01_1339,ConditionRich,2021.2.3,59.88231926590118,
111.75,112.0,41,0.0,Stimuli/Blank.png,0,0,0.0,0,47,47,47,,,,,,,,,,,,,111.78059819999908,0.030598199999076314,None,163.5151846000008,163.5151846000008,163.5151846000008,163.5151846000008,163.5151846000008,163.5151846000008,163.5151846000008,163.5151846000008,163.5151846000008,163.5151846000008,,004,P009,2025_Feb_01_1339,ConditionRich,2021.2.3,59.88231926590118,
112.0,115.75,34,0.75,Stimuli/P009/things_man_05s.jpg,0,0,0.0,0,48,48,48,,,,,,,,,,,,,112.02997019999748,0.02997019999747863,None,163.74830360000124,163.74830360000124,163.74830360000124,163.74830360000124,163.74830360000124,163.74830360000124,163.74830360000124,163.74830360000124,163.74830360000124,163.74830360000124,,004,P009,2025_Feb_01_1339,ConditionRich,2021.2.3,59.88231926590118,
115.75,116.0,41,0.0,Stimuli/Blank.png,0,0,0.0,0,49,49,49,,,,,,,,,,,,,115.75089200000002,0.0008920000000216532,None,167.46830620000037,167.46830620000037,167.46830620000037,167.46830620000037,167.46830620000037,167.46830620000037,167.46830620000037,167.46830620000037,167.46830620000037,167.46830620000037,,004,P009,2025_Feb_01_1339,ConditionRich,2021.2.3,59.88231926590118,
116.0,119.75,23,0.75,Stimuli/P009/things_charger_05s.jpg,0,0,0.0,0,50,50,50,,,,,,,,,,,,,116.00101549999818,0.0010154999981750734,None,167.7351294,167.7351294,167.7351294,167.7351294,167.7351294,167.7351294,167.7351294,167.7351294,167.7351294,167.7351294,,004,P009,2025_Feb_01_1339,ConditionRich,2021.2.3,59.88231926590118,
119.75,120.0,41,0.0,Stimuli/Blank.png,0,0,0.0,0,51,51,51,,,,,,,,,,,,,119.77147029999833,0.02147029999832739,None,171.4884935000009,171.4884935000009,171.4884935000009,171.4884935000009,171.4884935000009,171.4884935000009,171.4884935000009,171.4884935000009,171.4884935000009,171.4884935000009,,004,P009,2025_Feb_01_1339,ConditionRich,2021.2.3,59.88231926590118,
120.0,123.75,38,0.75,Stimuli/P009/things_roadsweeper_05s.jpg,0,0,0.0,0,52,52,52,,,,,,,,,,,,,120.0037792999974,0.0037792999974044506,None,171.72200109999903,171.72200109999903,171.72200109999903,171.72200109999903,171.72200109999903,171.72200109999903,171.72200109999903,171.72200109999903,171.72200109999903,171.72200109999903,,004,P009,2025_Feb_01_1339,ConditionRich,2021.2.3,59.88231926590118,
123.75,124.0,41,0.0,Stimuli/Blank.png,0,0,0.0,0,53,53,53,,,,,,,,,,,,,123.75829199999862,0.008291999998618849,None,175.49203259999922,175.49203259999922,175.49203259999922,175.49203259999922,175.49203259999922,175.49203259999922,175.49203259999922,175.49203259999922,175.49203259999922,175.49203259999922,,004,P009,2025_Feb_01_1339,ConditionRich,2021.2.3,59.88231926590118,
124.0,127.75,37,0.75,Stimuli/P009/things_pug_05s.jpg,0,0,0.0,0,54,54,54,,,,,,,,,,,,,124.023879999997,0.023879999997006962,None,175.74224600000161,175.74224600000161,175.74224600000161,175.74224600000161,175.74224600000161,175.74224600000161,175.74224600000161,175.74224600000161,175.74224600000161,175.74224600000161,,004,P009,2025_Feb_01_1339,ConditionRich,2021.2.3,59.88231926590118,
127.75,128.0,41,0.0,Stimuli/Blank.png,0,0,0.0,0,55,55,55,,,,,,,,,,,,,127.76147099999798,0.01147099999798229,None,179.47890919999918,179.47890919999918,179.47890919999918,179.47890919999918,179.47890919999918,179.47890919999918,179.47890919999918,179.47890919999918,179.47890919999918,179.47890919999918,,004,P009,2025_Feb_01_1339,ConditionRich,2021.2.3,59.88231926590118,
128.0,131.75,40,0.75,Stimuli/P009/things_woman_05s.jpg,0,0,0.0,0,56,56,56,,,,,,,,,,,,,128.01354189999984,0.01354189999983646,None,179.74579399999857,179.74579399999857,179.74579399999857,179.74579399999857,179.74579399999857,179.74579399999857,179.74579399999857,179.74579399999857,179.74579399999857,179.74579399999857,,004,P009,2025_Feb_01_1339,ConditionRich,2021.2.3,59.88231926590118,
131.75,132.0,41,0.0,Stimuli/Blank.png,0,0,0.0,0,57,57,57,,,,,,,,,,,,,131.76453809999657,0.014538099996570963,None,183.48244110000087,183.48244110000087,183.48244110000087,183.48244110000087,183.48244110000087,183.48244110000087,183.48244110000087,183.48244110000087,183.48244110000087,183.48244110000087,,004,P009,2025_Feb_01_1339,ConditionRich,2021.2.3,59.88231926590118,
132.0,135.75,30,0.75,Stimuli/P009/things_fire_05s.jpg,0,0,0.0,0,58,58,58,,,,,,,,,,,,,132.01473519999854,0.014735199998540338,None,183.73264280000149,183.73264280000149,183.73264280000149,183.73264280000149,183.73264280000149,183.73264280000149,183.73264280000149,183.73264280000149,183.73264280000149,183.73264280000149,,004,P009,2025_Feb_01_1339,ConditionRich,2021.2.3,59.88231926590118,
135.75,136.0,41,0.0,Stimuli/Blank.png,0,0,0.0,0,59,59,59,,,,,,,,,,,,,135.7530670999986,0.0030670999985886738,None,187.48598950000087,187.48598950000087,187.48598950000087,187.48598950000087,187.48598950000087,187.48598950000087,187.48598950000087,187.48598950000087,187.48598950000087,187.48598950000087,,004,P009,2025_Feb_01_1339,ConditionRich,2021.2.3,59.88231926590118,
136.0,139.75,5,0.75,Stimuli/P009/sun_akqvdmuauoxeafrj.jpg,0,0,0.0,0,60,60,60,,,,,,,,,,,,,136.0183122999988,0.018312299998797243,None,187.73619619999954,187.73619619999954,187.73619619999954,187.73619619999954,187.73619619999954,187.73619619999954,187.73619619999954,187.73619619999954,187.73619619999954,187.73619619999954,,004,P009,2025_Feb_01_1339,ConditionRich,2021.2.3,59.88231926590118,
139.75,140.0,41,0.0,Stimuli/Blank.png,0,0,0.0,0,61,61,61,,,,,,,,,,,,,139.75467449999996,0.00467449999996461,None,191.47282949999862,191.47282949999862,191.47282949999862,191.47282949999862,191.47282949999862,191.47282949999862,191.47282949999862,191.47282949999862,191.47282949999862,191.47282949999862,,004,P009,2025_Feb_01_1339,ConditionRich,2021.2.3,59.88231926590118,
140.0,143.75,25,0.75,Stimuli/P009/things_clothespin_05s.jpg,1,2,2.75,0,62,62,62,,,,,,,,,,,,,140.005435199997,0.005435199997009477,1,191.72301900000093,191.72301900000093,191.72301900000093,191.72301900000093,191.72301900000093,191.72301900000093,193.70813400000043,194.45880620000025,191.72301900000093,191.72301900000093,2.4185835999996925,004,P009,2025_Feb_01_1339,ConditionRich,2021.2.3,59.88231926590118,
143.75,144.0,41,0.0,Stimuli/Blank.png,0,0,0.0,0,63,63,63,,,,,,,,,,,,,143.7583949999971,0.008394999997108243,None,195.47637549999854,195.47637549999854,195.47637549999854,195.47637549999854,195.47637549999854,195.47637549999854,195.47637549999854,195.47637549999854,195.47637549999854,195.47637549999854,,004,P009,2025_Feb_01_1339,ConditionRich,2021.2.3,59.88231926590118,
144.0,147.75,19,0.75,Stimuli/P009/sun_bwvfnogmotsvhofs.jpg,1,2,2.75,0,64,64,64,,,,,,,,,,,,,144.00824909999938,0.008249099999375176,1,195.72659360000034,195.72659360000034,195.72659360000034,195.72659360000034,195.72659360000034,195.72659360000034,197.71164169999975,198.4623806999989,195.72659360000034,195.72659360000034,2.435911100001249,004,P009,2025_Feb_01_1339,ConditionRich,2021.2.3,59.88231926590118,
147.75,148.0,41,0.0,Stimuli/Blank.png,0,0,0.0,0,65,65,65,,,,,,,,,,,,,147.76466479999726,0.01466479999726289,None,199.49660199999926,199.49660199999926,199.49660199999926,199.49660199999926,199.49660199999926,199.49660199999926,199.49660199999926,199.49660199999926,199.49660199999926,199.49660199999926,,004,P009,2025_Feb_01_1339,ConditionRich,2021.2.3,59.88231926590118,
148.0,151.75,17,0.75,Stimuli/P009/sun_brkrfjpyfglmigkk.jpg,0,0,0.0,0,66,66,66,,,,,,,,,,,,,148.0289144999988,0.028914499998791143,None,199.74681789999886,199.74681789999886,199.74681789999886,199.74681789999886,199.74681789999886,199.74681789999886,199.74681789999886,199.74681789999886,199.74681789999886,199.74681789999886,,004,P009,2025_Feb_01_1339,ConditionRich,2021.2.3,59.88231926590118,
151.75,152.0,41,0.0,Stimuli/Blank.png,0,0,0.0,0,67,67,67,,,,,,,,,,,,,151.76516319999791,0.01516319999791449,None,203.48344749999887,203.48344749999887,203.48344749999887,203.48344749999887,203.48344749999887,203.48344749999887,203.48344749999887,203.48344749999887,203.48344749999887,203.48344749999887,,004,P009,2025_Feb_01_1339,ConditionRich,2021.2.3,59.88231926590118,
152.0,155.75,18,0.75,Stimuli/P009/sun_bwjdahsxcqepqqbm.jpg,1,2,2.75,0,68,68,68,,,,,,,,,,,,,152.01621859999796,0.016218599997955607,1,203.75035790000038,203.75035790000038,203.75035790000038,203.75035790000038,203.75035790000038,203.75035790000038,205.71871770000143,206.46946780000144,203.75035790000038,203.75035790000038,2.44712570000047,004,P009,2025_Feb_01_1339,ConditionRich,2021.2.3,59.88231926590118,
155.75,156.0,41,0.0,Stimuli/Blank.png,0,0,0.0,0,69,69,69,,,,,,,,,,,,,155.76881749999666,0.018817499996657716,None,207.48700100000133,207.48700100000133,207.48700100000133,207.48700100000133,207.48700100000133,207.48700100000133,207.48700100000133,207.48700100000133,207.48700100000133,207.48700100000133,,004,P009,2025_Feb_01_1339,ConditionRich,2021.2.3,59.88231926590118,
156.0,159.75,3,0.75,Stimuli/P009/sun_aewgwsmvsgzleqhw.jpg,0,0,0.0,0,70,70,70,,,,,,,,,,,,,156.00298909999765,0.0029890999976487365,None,207.73721930000102,207.73721930000102,207.73721930000102,207.73721930000102,207.73721930000102,207.73721930000102,207.73721930000102,207.73721930000102,207.73721930000102,207.73721930000102,,004,P009,2025_Feb_01_1339,ConditionRich,2021.2.3,59.88231926590118,
159.75,160.0,41,0.0,Stimuli/Blank.png,0,0,0.0,0,71,71,71,,,,,,,,,,,,,159.7729075999996,0.02290759999959846,None,211.49055940000108,211.49055940000108,211.49055940000108,211.49055940000108,211.49055940000108,211.49055940000108,211.49055940000108,211.49055940000108,211.49055940000108,211.49055940000108,,004,P009,2025_Feb_01_1339,ConditionRich,2021.2.3,59.88231926590118,
160.0,163.75,27,0.75,Stimuli/P009/things_curling_iron_05s.jpg,0,0,0.0,0,72,72,72,,,,,,,,,,,,,160.00659249999808,0.006592499998077983,None,211.7407213000006,211.7407213000006,211.7407213000006,211.7407213000006,211.7407213000006,211.7407213000006,211.7407213000006,211.7407213000006,211.7407213000006,211.7407213000006,,004,P009,2025_Feb_01_1339,ConditionRich,2021.2.3,59.88231926590118,
163.75,164.0,41,0.0,Stimuli/Blank.png,0,0,0.0,0,73,73,73,,,,,,,,,,,,,163.77562129999933,0.025621299999329494,None,215.49408179999955,215.49408179999955,215.49408179999955,215.49408179999955,215.49408179999955,215.49408179999955,215.49408179999955,215.49408179999955,215.49408179999955,215.49408179999955,,004,P009,2025_Feb_01_1339,ConditionRich,2021.2.3,59.88231926590118,
164.0,167.75,31,0.75,Stimuli/P009/things_girl_05s.jpg,0,0,0.0,0,74,74,74,,,,,,,,,,,,,164.00986979999652,0.009869799996522488,None,215.7276180000008,215.7276180000008,215.7276180000008,215.7276180000008,215.7276180000008,215.7276180000008,215.7276180000008,215.7276180000008,215.7276180000008,215.7276180000008,,004,P009,2025_Feb_01_1339,ConditionRich,2021.2.3,59.88231926590118,
167.75,168.0,41,0.0,Stimuli/Blank.png,0,0,0.0,0,75,75,75,,,,,,,,,,,,,167.7629132999973,0.012913299997308059,None,219.4809435999996,219.4809435999996,219.4809435999996,219.4809435999996,219.4809435999996,219.4809435999996,219.4809435999996,219.4809435999996,219.4809435999996,219.4809435999996,,004,P009,2025_Feb_01_1339,ConditionRich,2021.2.3,59.88231926590118,
168.0,171.75,2,0.75,Stimuli/P009/sun_acvloibbxiqpiwnv.jpg,0,0,0.0,0,76,76,76,,,,,,,,,,,,,168.0130664999997,0.013066499999695225,None,219.7312023000013,219.7312023000013,219.7312023000013,219.7312023000013,219.7312023000013,219.7312023000013,219.7312023000013,219.7312023000013,219.7312023000013,219.7312023000013,,004,P009,2025_Feb_01_1339,ConditionRich,2021.2.3,59.88231926590118,
171.75,172.0,41,0.0,Stimuli/Blank.png,0,0,0.0,0,77,77,77,,,,,,,,,,,,,171.74934859999848,-0.0006514000015158672,None,223.4678043999993,223.4678043999993,223.4678043999993,223.4678043999993,223.4678043999993,223.4678043999993,223.4678043999993,223.4678043999993,223.4678043999993,223.4678043999993,,004,P009,2025_Feb_01_1339,ConditionRich,2021.2.3,59.88231926590118,
172.0,175.75,36,0.75,Stimuli/P009/things_pelican_05s.jpg,0,0,0.0,0,78,78,78,,,,,,,,,,,,,171.99975849999828,-0.0002415000017208513,None,223.71798510000008,223.71798510000008,223.71798510000008,223.71798510000008,223.71798510000008,223.71798510000008,223.71798510000008,223.71798510000008,223.71798510000008,223.71798510000008,,004,P009,2025_Feb_01_1339,ConditionRich,2021.2.3,59.88231926590118,
175.75,176.0,41,0.0,Stimuli/Blank.png,0,0,0.0,0,79,79,79,,,,,,,,,,,,,175.75370750000002,0.0037075000000186265,None,227.47134169999845,227.47134169999845,227.47134169999845,227.47134169999845,227.47134169999845,227.47134169999845,227.47134169999845,227.47134169999845,227.47134169999845,227.47134169999845,,004,P009,2025_Feb_01_1339,ConditionRich,2021.2.3,59.88231926590118,
176.0,179.75,6,0.75,Stimuli/P009/sun_amkrwcyvinmsylsz.jpg,0,0,0.0,0,80,80,80,,,,,,,,,,,,,176.0047375999966,0.00473759999658796,None,227.7382776000013,227.7382776000013,227.7382776000013,227.7382776000013,227.7382776000013,227.7382776000013,227.7382776000013,227.7382776000013,227.7382776000013,227.7382776000013,,004,P009,2025_Feb_01_1339,ConditionRich,2021.2.3,59.88231926590118,
179.75,180.0,41,0.0,Stimuli/Blank.png,0,0,0.0,0,81,81,81,,,,,,,,,,,,,179.77378769999996,0.023787699999957113,None,231.49157370000103,231.49157370000103,231.49157370000103,231.49157370000103,231.49157370000103,231.49157370000103,231.49157370000103,231.49157370000103,231.49157370000103,231.49157370000103,,004,P009,2025_Feb_01_1339,ConditionRich,2021.2.3,59.88231926590118,
180.0,196.0,0,0.0,Stimuli/Blank.png,1,12,12.75,0,82,82,82,,,,,,,,,,,,,180.00872559999698,0.008725599996978417,1,231.74182360000123,231.74182360000123,231.74182360000123,231.74182360000123,231.74182360000123,231.74182360000123,243.71908750000148,244.46972760000062,231.74182360000123,231.74182360000123,12.30588759999955,004,P009,2025_Feb_01_1339,ConditionRich,2021.2.3,59.88231926590118,
196.0,199.75,29,0.75,Stimuli/P009/things_fingerprint_05s.jpg,0,0,0.0,0,83,83,83,,,,,,,,,,,,,196.02259709999998,0.022597099999984493,None,247.75595659999817,247.75595659999817,247.75595659999817,247.75595659999817,247.75595659999817,247.75595659999817,247.75595659999817,247.75595659999817,247.75595659999817,247.75595659999817,,004,P009,2025_Feb_01_1339,ConditionRich,2021.2.3,59.88231926590118,
199.75,200.0,41,0.0,Stimuli/Blank.png,0,0,0.0,0,84,84,84,,,,,,,,,,,,,199.77431519999664,0.024315199996635783,None,251.49258629999895,251.49258629999895,251.49258629999895,251.49258629999895,251.49258629999895,251.49258629999895,251.49258629999895,251.49258629999895,251.49258629999895,251.49258629999895,,004,P009,2025_Feb_01_1339,ConditionRich,2021.2.3,59.88231926590118,
200.0,203.75,35,0.75,Stimuli/P009/things_mushroom_05n.jpg,0,0,0.0,0,85,85,85,,,,,,,,,,,,,200.0093414999974,0.009341499997390201,None,251.74281029999838,251.74281029999838,251.74281029999838,251.74281029999838,251.74281029999838,251.74281029999838,251.74281029999838,251.74281029999838,251.74281029999838,251.74281029999838,,004,P009,2025_Feb_01_1339,ConditionRich,2021.2.3,59.88231926590118,
203.75,204.0,41,0.0,Stimuli/Blank.png,0,0,0.0,0,86,86,86,,,,,,,,,,,,,203.77930619999825,0.029306199998245575,None,255.51282739999806,255.51282739999806,255.51282739999806,255.51282739999806,255.51282739999806,255.51282739999806,255.51282739999806,255.51282739999806,255.51282739999806,255.51282739999806,,004,P009,2025_Feb_01_1339,ConditionRich,2021.2.3,59.88231926590118,
204.0,207.75,8,0.75,Stimuli/P009/sun_batcnoizlkeiqdtx.jpg,0,0,0.0,0,87,87,87,,,,,,,,,,,,,204.0279371999968,0.027937199996813433,None,255.74631610000142,255.74631610000142,255.74631610000142,255.74631610000142,255.74631610000142,255.74631610000142,255.74631610000142,255.74631610000142,255.74631610000142,255.74631610000142,,004,P009,2025_Feb_01_1339,ConditionRich,2021.2.3,59.88231926590118,
207.75,208.0,41,0.0,Stimuli/Blank.png,0,0,0.0,0,88,88,88,,,,,,,,,,,,,207.7657001999978,0.01570019999780925,None,259.48311269999977,259.48311269999977,259.48311269999977,259.48311269999977,259.48311269999977,259.48311269999977,259.48311269999977,259.48311269999977,259.48311269999977,259.48311269999977,,004,P009,2025_Feb_01_1339,ConditionRich,2021.2.3,59.88231926590118,
208.0,211.75,11,0.75,Stimuli/P009/sun_bfyvfqiimvdaxlqn.jpg,0,0,0.0,0,89,89,89,,,,,,,,,,,,,207.99811339999724,-0.0018866000027628615,None,259.7165169,259.7165169,259.7165169,259.7165169,259.7165169,259.7165169,259.7165169,259.7165169,259.7165169,259.7165169,,004,P009,2025_Feb_01_1339,ConditionRich,2021.2.3,59.88231926590118,
211.75,212.0,41,0.0,Stimuli/Blank.png,0,0,0.0,0,90,90,90,,,,,,,,,,,,,211.75442699999985,0.004426999999850523,None,263.48654330000136,263.48654330000136,263.48654330000136,263.48654330000136,263.48654330000136,263.48654330000136,263.48654330000136,263.48654330000136,263.48654330000136,263.48654330000136,,004,P009,2025_Feb_01_1339,ConditionRich,2021.2.3,59.88231926590118,
212.0,215.75,23,0.75,Stimuli/P009/things_charger_05s.jpg,1,1,1.75,0,91,91,91,,,,,,,,,,,,,212.02015429999665,0.02015429999664775,1,263.7534368000015,263.7534368000015,263.7534368000015,263.7534368000015,263.7534368000015,263.7534368000015,264.7376866000013,265.4882942000004,263.7534368000015,263.7534368000015,1.443285699999251,004,P009,2025_Feb_01_1339,ConditionRich,2021.2.3,59.88231926590118,
215.75,216.0,41,0.0,Stimuli/Blank.png,0,0,0.0,0,92,92,92,,,,,,,,,,,,,215.77443159999893,0.02443159999893396,None,267.50676960000055,267.50676960000055,267.50676960000055,267.50676960000055,267.50676960000055,267.50676960000055,267.50676960000055,267.50676960000055,267.50676960000055,267.50676960000055,,004,P009,2025_Feb_01_1339,ConditionRich,2021.2.3,59.88231926590118,
216.0,219.75,24,0.75,Stimuli/P009/things_cigar_05n.jpg,0,0,0.0,0,93,93,93,,,,,,,,,,,,,216.02476659999957,0.024766599999566097,None,267.7569748999995,267.7569748999995,267.7569748999995,267.7569748999995,267.7569748999995,267.7569748999995,267.7569748999995,267.7569748999995,267.7569748999995,267.7569748999995,,004,P009,2025_Feb_01_1339,ConditionRich,2021.2.3,59.88231926590118,
219.75,220.0,41,0.0,Stimuli/Blank.png,0,0,0.0,0,94,94,94,,,,,,,,,,,,,219.77548059999754,0.025480599997536046,None,271.4936196999988,271.4936196999988,271.4936196999988,271.4936196999988,271.4936196999988,271.4936196999988,271.4936196999988,271.4936196999988,271.4936196999988,271.4936196999988,,004,P009,2025_Feb_01_1339,ConditionRich,2021.2.3,59.88231926590118,
220.0,223.75,3,0.75,Stimuli/P009/sun_aewgwsmvsgzleqhw.jpg,0,0,0.0,0,95,95,95,,,,,,,,,,,,,220.0095670999981,0.009567099998093909,None,271.7271437999989,271.7271437999989,271.7271437999989,271.7271437999989,271.7271437999989,271.7271437999989,271.7271437999989,271.7271437999989,271.7271437999989,271.7271437999989,,004,P009,2025_Feb_01_1339,ConditionRich,2021.2.3,59.88231926590118,
223.75,224.0,41,0.0,Stimuli/Blank.png,0,0,0.0,0,96,96,96,,,,,,,,,,,,,223.76295149999714,0.0129514999971434,None,275.4804714999991,275.4804714999991,275.4804714999991,275.4804714999991,275.4804714999991,275.4804714999991,275.4804714999991,275.4804714999991,275.4804714999991,275.4804714999991,,004,P009,2025_Feb_01_1339,ConditionRich,2021.2.3,59.88231926590118,
224.0,227.75,15,0.75,Stimuli/P009/sun_boryivbddrnarrbo.jpg,1,0,0.75,0,97,97,97,,,,,,,,,,,,,224.01312269999835,0.013122699998348253,1,275.74737090000053,275.74737090000053,275.74737090000053,275.74737090000053,275.74737090000053,275.74737090000053,275.74737090000053,276.4647006000014,275.74737090000053,275.74737090000053,0.43622160000086296,004,P009,2025_Feb_01_1339,ConditionRich,2021.2.3,59.88231926590118,
227.75,228.0,41,0.0,Stimuli/Blank.png,0,0,0.0,0,98,98,98,,,,,,,,,,,,,227.7664748999996,0.016474899999593617,None,279.4840225000007,279.4840225000007,279.4840225000007,279.4840225000007,279.4840225000007,279.4840225000007,279.4840225000007,279.4840225000007,279.4840225000007,279.4840225000007,,004,P009,2025_Feb_01_1339,ConditionRich,2021.2.3,59.88231926590118,
228.0,231.75,16,0.75,Stimuli/P009/sun_bqpyqljaflidcauh.jpg,0,0,0.0,0,99,99,99,,,,,,,,,,,,,227.9998710999971,-0.0001289000028918963,None,279.71755739999935,279.71755739999935,279.71755739999935,279.71755739999935,279.71755739999935,279.71755739999935,279.71755739999935,279.71755739999935,279.71755739999935,279.71755739999935,,004,P009,2025_Feb_01_1339,ConditionRich,2021.2.3,59.88231926590118,
231.75,232.0,41,0.0,Stimuli/Blank.png,0,0,0.0,0,100,100,100,,,,,,,,,,,,,231.75376579999647,0.0037657999964721967,None,283.4708759999994,283.4708759999994,283.4708759999994,283.4708759999994,283.4708759999994,283.4708759999994,283.4708759999994,283.4708759999994,283.4708759999994,283.4708759999994,,004,P009,2025_Feb_01_1339,ConditionRich,2021.2.3,59.88231926590118,
232.0,235.75,26,0.75,Stimuli/P009/things_cookie_sheet_05s.jpg,0,0,0.0,0,101,101,101,,,,,,,,,,,,,232.00284739999915,0.0028473999991547316,None,283.72109009999986,283.72109009999986,283.72109009999986,283.72109009999986,283.72109009999986,283.72109009999986,283.72109009999986,283.72109009999986,283.72109009999986,283.72109009999986,,004,P009,2025_Feb_01_1339,ConditionRich,2021.2.3,59.88231926590118,
235.75,236.0,41,0.0,Stimuli/Blank.png,0,0,0.0,0,102,102,102,,,,,,,,,,,,,235.75837149999643,0.00837149999642861,None,287.49112310000055,287.49112310000055,287.49112310000055,287.49112310000055,287.49112310000055,287.49112310000055,287.49112310000055,287.49112310000055,287.49112310000055,287.49112310000055,,004,P009,2025_Feb_01_1339,ConditionRich,2021.2.3,59.88231926590118,
236.0,239.75,38,0.75,Stimuli/P009/things_roadsweeper_05s.jpg,0,0,0.0,0,103,103,103,,,,,,,,,,,,,236.02369999999792,0.023699999997916166,None,287.75803050000104,287.75803050000104,287.75803050000104,287.75803050000104,287.75803050000104,287.75803050000104,287.75803050000104,287.75803050000104,287.75803050000104,287.75803050000104,,004,P009,2025_Feb_01_1339,ConditionRich,2021.2.3,59.88231926590118,
239.75,240.0,41,0.0,Stimuli/Blank.png,0,0,0.0,0,104,104,104,,,,,,,,,,,,,239.77882089999912,0.02882089999911841,None,291.5113377999987,291.5113377999987,291.5113377999987,291.5113377999987,291.5113377999987,291.5113377999987,291.5113377999987,291.5113377999987,291.5113377999987,291.5113377999987,,004,P009,2025_Feb_01_1339,ConditionRich,2021.2.3,59.88231926590118,
240.0,243.75,39,0.75,Stimuli/P009/things_tiara_05s.jpg,1,2,2.75,0,105,105,105,,,,,,,,,,,,,240.02886339999895,0.028863399998954264,1,291.7615392000007,291.7615392000007,291.7615392000007,291.7615392000007,291.7615392000007,291.7615392000007,293.7466194000008,294.49732629999926,291.7615392000007,291.7615392000007,2.3250148999977682,004,P009,2025_Feb_01_1339,ConditionRich,2021.2.3,59.88231926590118,
243.75,244.0,41,0.0,Stimuli/Blank.png,0,0,0.0,0,106,106,106,,,,,,,,,,,,,243.7806297999996,0.030629799999587703,None,295.4981803999981,295.4981803999981,295.4981803999981,295.4981803999981,295.4981803999981,295.4981803999981,295.4981803999981,295.4981803999981,295.4981803999981,295.4981803999981,,004,P009,2025_Feb_01_1339,ConditionRich,2021.2.3,59.88231926590118,
244.0,247.75,27,0.75,Stimuli/P009/things_curling_iron_05s.jpg,0,0,0.0,0,107,107,107,,,,,,,,,,,,,244.01468289999684,0.014682899996842025,None,295.74839829999837,295.74839829999837,295.74839829999837,295.74839829999837,295.74839829999837,295.74839829999837,295.74839829999837,295.74839829999837,295.74839829999837,295.74839829999837,,004,P009,2025_Feb_01_1339,ConditionRich,2021.2.3,59.88231926590118,
247.75,248.0,41,0.0,Stimuli/Blank.png,0,0,0.0,0,108,108,108,,,,,,,,,,,,,247.76879129999725,0.018791299997246824,None,299.5017205000004,299.5017205000004,299.5017205000004,299.5017205000004,299.5017205000004,299.5017205000004,299.5017205000004,299.5017205000004,299.5017205000004,299.5017205000004,,004,P009,2025_Feb_01_1339,ConditionRich,2021.2.3,59.88231926590118,
248.0,251.75,6,0.75,Stimuli/P009/sun_amkrwcyvinmsylsz.jpg,0,0,0.0,0,109,109,109,,,,,,,,,,,,,248.01953469999717,0.01953469999716617,None,299.75195059999896,299.75195059999896,299.75195059999896,299.75195059999896,299.75195059999896,299.75195059999896,299.75195059999896,299.75195059999896,299.75195059999896,299.75195059999896,,004,P009,2025_Feb_01_1339,ConditionRich,2021.2.3,59.88231926590118,
251.75,252.0,41,0.0,Stimuli/Blank.png,0,0,0.0,0,110,110,110,,,,,,,,,,,,,251.77104529999997,0.021045299999968847,None,303.4885952000004,303.4885952000004,303.4885952000004,303.4885952000004,303.4885952000004,303.4885952000004,303.4885952000004,303.4885952000004,303.4885952000004,303.4885952000004,,004,P009,2025_Feb_01_1339,ConditionRich,2021.2.3,59.88231926590118,
252.0,255.75,33,0.75,Stimuli/P009/things_lizard_05n.jpg,0,0,0.0,0,111,111,111,,,,,,,,,,,,,252.00430719999713,0.004307199997128919,None,303.72211759999846,303.72211759999846,303.72211759999846,303.72211759999846,303.72211759999846,303.72211759999846,303.72211759999846,303.72211759999846,303.72211759999846,303.72211759999846,,004,P009,2025_Feb_01_1339,ConditionRich,2021.2.3,59.88231926590118,
255.75,256.0,41,0.0,Stimuli/Blank.png,0,0,0.0,0,112,112,112,,,,,,,,,,,,,255.7581188999975,0.008118899997498374,None,307.4760031000005,307.4760031000005,307.4760031000005,307.4760031000005,307.4760031000005,307.4760031000005,307.4760031000005,307.4760031000005,307.4760031000005,307.4760031000005,,004,P009,2025_Feb_01_1339,ConditionRich,2021.2.3,59.88231926590118,
256.0,259.75,32,0.75,Stimuli/P009/things_hawk_05s.jpg,0,0,0.0,0,113,113,113,,,,,,,,,,,,,256.0091883999994,0.009188399999402463,None,307.72571759999846,307.72571759999846,307.72571759999846,307.72571759999846,307.72571759999846,307.72571759999846,307.72571759999846,307.72571759999846,307.72571759999846,307.72571759999846,,004,P009,2025_Feb_01_1339,ConditionRich,2021.2.3,59.88231926590118,
259.75,260.0,41,0.0,Stimuli/Blank.png,0,0,0.0,0,114,114,114,,,,,,,,,,,,,259.76072289999865,0.010722899998654611,None,311.47914350000065,311.47914350000065,311.47914350000065,311.47914350000065,311.47914350000065,311.47914350000065,311.47914350000065,311.47914350000065,311.47914350000065,311.47914350000065,,004,P009,2025_Feb_01_1339,ConditionRich,2021.2.3,59.88231926590118,
260.0,263.75,13,0.75,Stimuli/P009/sun_bjimvgwadfodioes.jpg,0,0,0.0,0,115,115,115,,,,,,,,,,,,,260.0127715999988,0.012771599998814054,None,311.74590159999934,311.74590159999934,311.74590159999934,311.74590159999934,311.74590159999934,311.74590159999934,311.74590159999934,311.74590159999934,311.74590159999934,311.74590159999934,,004,P009,2025_Feb_01_1339,ConditionRich,2021.2.3,59.88231926590118,
263.75,264.0,41,0.0,Stimuli/Blank.png,0,0,0.0,0,116,116,116,,,,,,,,,,,,,263.76470419999896,0.014704199998959666,None,315.48252109999885,315.48252109999885,315.48252109999885,315.48252109999885,315.48252109999885,315.48252109999885,315.48252109999885,315.48252109999885,315.48252109999885,315.48252109999885,,004,P009,2025_Feb_01_1339,ConditionRich,2021.2.3,59.88231926590118,
264.0,267.75,1,0.75,Stimuli/P009/sun_abqdlumenyzawlme.jpg,0,0,0.0,0,117,117,117,,,,,,,,,,,,,264.0144787999998,0.014478799999778857,None,315.7327469999982,315.7327469999982,315.7327469999982,315.7327469999982,315.7327469999982,315.7327469999982,315.7327469999982,315.7327469999982,315.7327469999982,315.7327469999982,,004,P009,2025_Feb_01_1339,ConditionRich,2021.2.3,59.88231926590118,
267.75,268.0,41,0.0,Stimuli/Blank.png,0,0,0.0,0,118,118,118,,,,,,,,,,,,,267.7510601999966,0.0010601999965729192,None,319.46938220000084,319.46938220000084,319.46938220000084,319.46938220000084,319.46938220000084,319.46938220000084,319.46938220000084,319.46938220000084,319.46938220000084,319.46938220000084,,004,P009,2025_Feb_01_1339,ConditionRich,2021.2.3,59.88231926590118,
268.0,271.75,19,0.75,Stimuli/P009/sun_bwvfnogmotsvhofs.jpg,0,0,0.0,0,119,119,119,,,,,,,,,,,,,268.00265809999837,0.0026580999983707443,None,319.73626140000124,319.73626140000124,319.73626140000124,319.73626140000124,319.73626140000124,319.73626140000124,319.73626140000124,319.73626140000124,319.73626140000124,319.73626140000124,,004,P009,2025_Feb_01_1339,ConditionRich,2021.2.3,59.88231926590118,
271.75,272.0,41,0.0,Stimuli/Blank.png,0,0,0.0,0,120,120,120,,,,,,,,,,,,,271.7719455999977,0.021945599997707177,None,323.48965110000063,323.48965110000063,323.48965110000063,323.48965110000063,323.48965110000063,323.48965110000063,323.48965110000063,323.48965110000063,323.48965110000063,323.48965110000063,,004,P009,2025_Feb_01_1339,ConditionRich,2021.2.3,59.88231926590118,
272.0,275.75,10,0.75,Stimuli/P009/sun_bdkttewvyfdarikm.jpg,1,1,1.75,0,121,121,121,,,,,,,,,,,,,272.0053932999981,0.0053932999981043395,1,323.72314330000154,323.72314330000154,323.72314330000154,323.72314330000154,323.72314330000154,323.72314330000154,324.7073171999982,325.4580222000004,323.72314330000154,323.72314330000154,1.5936623999987205,004,P009,2025_Feb_01_1339,ConditionRich,2021.2.3,59.88231926590118,
275.75,276.0,41,0.0,Stimuli/Blank.png,0,0,0.0,0,122,122,122,,,,,,,,,,,,,275.7591392999966,0.009139299996604677,None,327.4764749999995,327.4764749999995,327.4764749999995,327.4764749999995,327.4764749999995,327.4764749999995,327.4764749999995,327.4764749999995,327.4764749999995,327.4764749999995,,004,P009,2025_Feb_01_1339,ConditionRich,2021.2.3,59.88231926590118,
276.0,292.0,0,0.0,Stimuli/Blank.png,1,2,2.75,0,123,123,123,,,,,,,,,,,,,276.00897239999904,0.008972399999038316,1,327.7266888999984,327.7266888999984,327.7266888999984,327.7266888999984,327.7266888999984,327.7266888999984,329.7117771000012,330.46245740000086,327.7266888999984,327.7266888999984,2.536099799999647,004,P009,2025_Feb_01_1339,ConditionRich,2021.2.3,59.88231926590118,
292.0,295.75,17,0.75,Stimuli/P009/sun_brkrfjpyfglmigkk.jpg,1,1,1.75,0,124,124,124,,,,,,,,,,,,,292.0062537999984,0.006253799998376053,1,343.7415742000012,343.7415742000012,343.7415742000012,343.7415742000012,343.7415742000012,343.7415742000012,344.7084281999996,345.45903270000053,343.7415742000012,343.7415742000012,1.3091185999983281,004,P009,2025_Feb_01_1339,ConditionRich,2021.2.3,59.88231926590118,
295.75,296.0,41,0.0,Stimuli/Blank.png,0,0,0.0,0,125,125,125,,,,,,,,,,,,,295.77858309999647,0.028583099996467354,None,347.5108629999995,347.5108629999995,347.5108629999995,347.5108629999995,347.5108629999995,347.5108629999995,347.5108629999995,347.5108629999995,347.5108629999995,347.5108629999995,,004,P009,2025_Feb_01_1339,ConditionRich,2021.2.3,59.88231926590118,
296.0,299.75,34,0.75,Stimuli/P009/things_man_05s.jpg,1,2,2.75,0,126,126,126,,,,,,,,,,,,,296.0286122999969,0.028612299996893853,1,347.7610762000004,347.7610762000004,347.7610762000004,347.7610762000004,347.7610762000004,347.7610762000004,349.7461633999992,350.49682010000106,347.7610762000004,347.7610762000004,2.306604800000059,004,P009,2025_Feb_01_1339,ConditionRich,2021.2.3,59.88231926590118,
299.75,300.0,41,0.0,Stimuli/Blank.png,0,0,0.0,0,127,127,127,,,,,,,,,,,,,299.7800916999986,0.030091699998592958,None,351.497705400001,351.497705400001,351.497705400001,351.497705400001,351.497705400001,351.497705400001,351.497705400001,351.497705400001,351.497705400001,351.497705400001,,004,P009,2025_Feb_01_1339,ConditionRich,2021.2.3,59.88231926590118,
300.0,303.75,5,0.75,Stimuli/P009/sun_akqvdmuauoxeafrj.jpg,1,0,0.75,0,128,128,128,,,,,,,,,,,,,300.0128095,0.012809500000003027,1,351.73124929999904,351.73124929999904,351.73124929999904,351.73124929999904,351.73124929999904,351.73124929999904,351.73124929999904,352.46526299999823,351.73124929999904,351.73124929999904,0.40737929999886546,004,P009,2025_Feb_01_1339,ConditionRich,2021.2.3,59.88231926590118,
303.75,304.0,41,0.0,Stimuli/Blank.png,0,0,0.0,0,129,129,129,,,,,,,,,,,,,303.7504321999986,0.0004321999986132141,None,355.46788939999897,355.46788939999897,355.46788939999897,355.46788939999897,355.46788939999897,355.46788939999897,355.46788939999897,355.46788939999897,355.46788939999897,355.46788939999897,,004,P009,2025_Feb_01_1339,ConditionRich,2021.2.3,59.88231926590118,
304.0,307.75,22,0.75,Stimuli/P009/things_butterfly_05s.jpg,0,0,0.0,0,130,130,130,,,,,,,,,,,,,304.0003868999993,0.00038689999928465113,None,355.7181105999989,355.7181105999989,355.7181105999989,355.7181105999989,355.7181105999989,355.7181105999989,355.7181105999989,355.7181105999989,355.7181105999989,355.7181105999989,,004,P009,2025_Feb_01_1339,ConditionRich,2021.2.3,59.88231926590118,
307.75,308.0,41,0.0,Stimuli/Blank.png,0,0,0.0,0,131,131,131,,,,,,,,,,,,,307.7538156999981,0.00381569999808562,None,359.47144280000066,359.47144280000066,359.47144280000066,359.47144280000066,359.47144280000066,359.47144280000066,359.47144280000066,359.47144280000066,359.47144280000066,359.47144280000066,,004,P009,2025_Feb_01_1339,ConditionRich,2021.2.3,59.88231926590118,
308.0,311.75,40,0.75,Stimuli/P009/things_woman_05s.jpg,0,0,0.0,0,132,132,132,,,,,,,,,,,,,308.0041044999998,0.004104499999812106,None,359.7383441999991,359.7383441999991,359.7383441999991,359.7383441999991,359.7383441999991,359.7383441999991,359.7383441999991,359.7383441999991,359.7383441999991,359.7383441999991,,004,P009,2025_Feb_01_1339,ConditionRich,2021.2.3,59.88231926590118,
311.75,312.0,41,0.0,Stimuli/Blank.png,0,0,0.0,0,133,133,133,,,,,,,,,,,,,311.77555089999805,0.025550899998052046,None,363.5083530999982,363.5083530999982,363.5083530999982,363.5083530999982,363.5083530999982,363.5083530999982,363.5083530999982,363.5083530999982,363.5083530999982,363.5083530999982,,004,P009,2025_Feb_01_1339,ConditionRich,2021.2.3,59.88231926590118,
312.0,315.75,37,0.75,Stimuli/P009/things_pug_05s.jpg,0,0,0.0,0,134,134,134,,,,,,,,,,,,,312.0241950999989,0.02419509999890579,None,363.75855410000077,363.75855410000077,363.75855410000077,363.75855410000077,363.75855410000077,363.75855410000077,363.75855410000077,363.75855410000077,363.75855410000077,363.75855410000077,,004,P009,2025_Feb_01_1339,ConditionRich,2021.2.3,59.88231926590118,
315.75,316.0,41,0.0,Stimuli/Blank.png,0,0,0.0,0,135,135,135,,,,,,,,,,,,,315.7789086999983,0.028908699998282827,None,367.5118846000005,367.5118846000005,367.5118846000005,367.5118846000005,367.5118846000005,367.5118846000005,367.5118846000005,367.5118846000005,367.5118846000005,367.5118846000005,,004,P009,2025_Feb_01_1339,ConditionRich,2021.2.3,59.88231926590118,
316.0,319.75,2,0.75,Stimuli/P009/sun_acvloibbxiqpiwnv.jpg,0,0,0.0,0,136,136,136,,,,,,,,,,,,,316.02990269999646,0.02990269999645534,None,367.76212849999865,367.76212849999865,367.76212849999865,367.76212849999865,367.76212849999865,367.76212849999865,367.76212849999865,367.76212849999865,367.76212849999865,367.76212849999865,,004,P009,2025_Feb_01_1339,ConditionRich,2021.2.3,59.88231926590118,
319.75,320.0,41,0.0,Stimuli/Blank.png,0,0,0.0,0,137,137,137,,,,,,,,,,,,,319.76375499999995,0.013754999999946449,None,371.48205790000065,371.48205790000065,371.48205790000065,371.48205790000065,371.48205790000065,371.48205790000065,371.48205790000065,371.48205790000065,371.48205790000065,371.48205790000065,,004,P009,2025_Feb_01_1339,ConditionRich,2021.2.3,59.88231926590118,
320.0,323.75,7,0.75,Stimuli/P009/sun_apiogxmvvzfmtsmj.jpg,0,0,0.0,0,138,138,138,,,,,,,,,,,,,320.0138721999974,0.013872199997422285,None,371.732273900001,371.732273900001,371.732273900001,371.732273900001,371.732273900001,371.732273900001,371.732273900001,371.732273900001,371.732273900001,371.732273900001,,004,P009,2025_Feb_01_1339,ConditionRich,2021.2.3,59.88231926590118,
323.75,324.0,41,0.0,Stimuli/Blank.png,0,0,0.0,0,139,139,139,,,,,,,,,,,,,323.750415399998,0.00041539999801898375,None,375.4689126999983,375.4689126999983,375.4689126999983,375.4689126999983,375.4689126999983,375.4689126999983,375.4689126999983,375.4689126999983,375.4689126999983,375.4689126999983,,004,P009,2025_Feb_01_1339,ConditionRich,2021.2.3,59.88231926590118,
324.0,327.75,28,0.75,Stimuli/P009/things_face_05s.jpg,0,0,0.0,0,140,140,140,,,,,,,,,,,,,324.00352799999746,0.003527999997459119,None,375.7358314999983,375.7358314999983,375.7358314999983,375.7358314999983,375.7358314999983,375.7358314999983,375.7358314999983,375.7358314999983,375.7358314999983,375.7358314999983,,004,P009,2025_Feb_01_1339,ConditionRich,2021.2.3,59.88231926590118,
327.75,328.0,41,0.0,Stimuli/Blank.png,0,0,0.0,0,141,141,141,,,,,,,,,,,,,327.7733025999987,0.023302599998714868,None,379.50582589999976,379.50582589999976,379.50582589999976,379.50582589999976,379.50582589999976,379.50582589999976,379.50582589999976,379.50582589999976,379.50582589999976,379.50582589999976,,004,P009,2025_Feb_01_1339,ConditionRich,2021.2.3,59.88231926590118,
328.0,331.75,14,0.75,Stimuli/P009/sun_blaqxdebghixzyyw.jpg,0,0,0.0,0,142,142,142,,,,,,,,,,,,,328.02196099999856,0.021960999998555053,None,379.75605319999886,379.75605319999886,379.75605319999886,379.75605319999886,379.75605319999886,379.75605319999886,379.75605319999886,379.75605319999886,379.75605319999886,379.75605319999886,,004,P009,2025_Feb_01_1339,ConditionRich,2021.2.3,59.88231926590118,
331.75,332.0,41,0.0,Stimuli/Blank.png,0,0,0.0,0,143,143,143,,,,,,,,,,,,,331.77469129999736,0.02469129999735742,None,383.4926814999999,383.4926814999999,383.4926814999999,383.4926814999999,383.4926814999999,383.4926814999999,383.4926814999999,383.4926814999999,383.4926814999999,383.4926814999999,,004,P009,2025_Feb_01_1339,ConditionRich,2021.2.3,59.88231926590118,
332.0,335.75,18,0.75,Stimuli/P009/sun_bwjdahsxcqepqqbm.jpg,0,0,0.0,0,144,144,144,,,,,,,,,,,,,332.0078457999989,0.007845799998904113,None,383.72620969999844,383.72620969999844,383.72620969999844,383.72620969999844,383.72620969999844,383.72620969999844,383.72620969999844,383.72620969999844,383.72620969999844,383.72620969999844,,004,P009,2025_Feb_01_1339,ConditionRich,2021.2.3,59.88231926590118,
335.75,336.0,41,0.0,Stimuli/Blank.png,0,0,0.0,0,145,145,145,,,,,,,,,,,,,335.76348869999856,0.01348869999856106,None,387.4972731000016,387.4972731000016,387.4972731000016,387.4972731000016,387.4972731000016,387.4972731000016,387.4972731000016,387.4972731000016,387.4972731000016,387.4972731000016,,004,P009,2025_Feb_01_1339,ConditionRich,2021.2.3,59.88231926590118,
336.0,339.75,12,0.75,Stimuli/P009/sun_birmwgkdtrlevcaf.jpg,0,0,0.0,0,146,146,146,,,,,,,,,,,,,336.0280301999992,0.028030199999193428,None,387.74644270000135,387.74644270000135,387.74644270000135,387.74644270000135,387.74644270000135,387.74644270000135,387.74644270000135,387.74644270000135,387.74644270000135,387.74644270000135,,004,P009,2025_Feb_01_1339,ConditionRich,2021.2.3,59.88231926590118,
339.75,340.0,41,0.0,Stimuli/Blank.png,0,0,0.0,0,147,147,147,,,,,,,,,,,,,339.7647853999988,0.01478539999880013,None,391.4830734999996,391.4830734999996,391.4830734999996,391.4830734999996,391.4830734999996,391.4830734999996,391.4830734999996,391.4830734999996,391.4830734999996,391.4830734999996,,004,P009,2025_Feb_01_1339,ConditionRich,2021.2.3,59.88231926590118,
340.0,343.75,25,0.75,Stimuli/P009/things_clothespin_05s.jpg,0,0,0.0,0,148,148,148,,,,,,,,,,,,,340.0150950999996,0.01509509999959846,None,391.73328129999936,391.73328129999936,391.73328129999936,391.73328129999936,391.73328129999936,391.73328129999936,391.73328129999936,391.73328129999936,391.73328129999936,391.73328129999936,,004,P009,2025_Feb_01_1339,ConditionRich,2021.2.3,59.88231926590118,
343.75,344.0,41,0.0,Stimuli/Blank.png,0,0,0.0,0,149,149,149,,,,,,,,,,,,,343.7522352999986,0.0022352999985741917,None,395.4699437999989,395.4699437999989,395.4699437999989,395.4699437999989,395.4699437999989,395.4699437999989,395.4699437999989,395.4699437999989,395.4699437999989,395.4699437999989,,004,P009,2025_Feb_01_1339,ConditionRich,2021.2.3,59.88231926590118,
344.0,347.75,20,0.75,Stimuli/P009/sun_ddsiwinthvyejghq.jpg,0,0,0.0,0,150,150,150,,,,,,,,,,,,,344.00454869999885,0.00454869999884977,None,395.7368487999993,395.7368487999993,395.7368487999993,395.7368487999993,395.7368487999993,395.7368487999993,395.7368487999993,395.7368487999993,395.7368487999993,395.7368487999993,,004,P009,2025_Feb_01_1339,ConditionRich,2021.2.3,59.88231926590118,
347.75,348.0,41,0.0,Stimuli/Blank.png,0,0,0.0,0,151,151,151,,,,,,,,,,,,,347.7745853999986,0.024585399998613866,None,399.50684529999853,399.50684529999853,399.50684529999853,399.50684529999853,399.50684529999853,399.50684529999853,399.50684529999853,399.50684529999853,399.50684529999853,399.50684529999853,,004,P009,2025_Feb_01_1339,ConditionRich,2021.2.3,59.88231926590118,
348.0,351.75,36,0.75,Stimuli/P009/things_pelican_05s.jpg,1,3,3.75,0,152,152,152,,,,,,,,,,,,,348.02214169999934,0.022141699999338016,1,399.7403783000009,399.7403783000009,399.7403783000009,399.7403783000009,399.7403783000009,399.7403783000009,402.7263764999989,None,399.7403783000009,399.7403783000009,3.4332264000004216,004,P009,2025_Feb_01_1339,ConditionRich,2021.2.3,59.88231926590118,
351.75,352.0,41,0.0,Stimuli/Blank.png,0,0,0.0,0,153,153,153,,,,,,,,,,,,,351.759514399997,0.009514399996987777,None,403.49371170000086,403.49371170000086,403.49371170000086,403.49371170000086,403.49371170000086,403.49371170000086,403.49371170000086,403.49371170000086,403.49371170000086,403.49371170000086,,004,P009,2025_Feb_01_1339,ConditionRich,2021.2.3,59.88231926590118,
352.0,355.75,9,0.75,Stimuli/P009/sun_bdjkvwqqqycuixtc.jpg,0,0,0.0,0,154,154,154,,,,,,,,,,,,,352.0254473999994,0.025447399999393383,None,403.76062470000033,403.76062470000033,403.76062470000033,403.76062470000033,403.76062470000033,403.76062470000033,403.76062470000033,403.76062470000033,403.76062470000033,403.76062470000033,,004,P009,2025_Feb_01_1339,ConditionRich,2021.2.3,59.88231926590118,
355.75,356.0,41,0.0,Stimuli/Blank.png,0,0,0.0,0,155,155,155,,,,,,,,,,,,,355.7795387999977,0.029538799997681053,None,407.4972185000006,407.4972185000006,407.4972185000006,407.4972185000006,407.4972185000006,407.4972185000006,407.4972185000006,407.4972185000006,407.4972185000006,407.4972185000006,,004,P009,2025_Feb_01_1339,ConditionRich,2021.2.3,59.88231926590118,
356.0,359.75,4,0.75,Stimuli/P009/sun_afkzdukwewwzqtmr.jpg,0,0,0.0,0,156,156,156,,,,,,,,,,,,,356.0123222999973,0.012322299997322261,None,407.7307838000015,407.7307838000015,407.7307838000015,407.7307838000015,407.7307838000015,407.7307838000015,407.7307838000015,407.7307838000015,407.7307838000015,407.7307838000015,,004,P009,2025_Feb_01_1339,ConditionRich,2021.2.3,59.88231926590118,
359.75,360.0,41,0.0,Stimuli/Blank.png,0,0,0.0,0,157,157,157,,,,,,,,,,,,,359.76565299999857,0.015652999998565065,None,411.48408610000115,411.48408610000115,411.48408610000115,411.48408610000115,411.48408610000115,411.48408610000115,411.48408610000115,411.48408610000115,411.48408610000115,411.48408610000115,,004,P009,2025_Feb_01_1339,ConditionRich,2021.2.3,59.88231926590118,
360.0,363.75,30,0.75,Stimuli/P009/things_fire_05s.jpg,0,0,0.0,0,158,158,158,,,,,,,,,,,,,359.9999026999976,-9.730000238050707e-05,None,411.7176460999981,411.7176460999981,411.7176460999981,411.7176460999981,411.7176460999981,411.7176460999981,411.7176460999981,411.7176460999981,411.7176460999981,411.7176460999981,,004,P009,2025_Feb_01_1339,ConditionRich,2021.2.3,59.88231926590118,
363.75,364.0,41,0.0,Stimuli/Blank.png,0,0,0.0,0,159,159,159,,,,,,,,,,,,,363.7527990999988,0.0027990999988105614,None,415.4709632999984,415.4709632999984,415.4709632999984,415.4709632999984,415.4709632999984,415.4709632999984,415.4709632999984,415.4709632999984,415.4709632999984,415.4709632999984,,004,P009,2025_Feb_01_1339,ConditionRich,2021.2.3,59.88231926590118,
364.0,367.75,21,0.75,Stimuli/P009/things_boy_05s.jpg,0,0,0.0,0,160,160,160,,,,,,,,,,,,,364.00302439999723,0.0030243999972299207,None,415.72119889999885,415.72119889999885,415.72119889999885,415.72119889999885,415.72119889999885,415.72119889999885,415.72119889999885,415.72119889999885,415.72119889999885,415.72119889999885,,004,P009,2025_Feb_01_1339,ConditionRich,2021.2.3,59.88231926590118,
367.75,368.0,41,0.0,Stimuli/Blank.png,0,0,0.0,0,161,161,161,,,,,,,,,,,,,367.75614609999684,0.0061460999968403485,None,419.4745522000012,419.4745522000012,419.4745522000012,419.4745522000012,419.4745522000012,419.4745522000012,419.4745522000012,419.4745522000012,419.4745522000012,419.4745522000012,,004,P009,2025_Feb_01_1339,ConditionRich,2021.2.3,59.88231926590118,
368.0,371.75,31,0.75,Stimuli/P009/things_girl_05s.jpg,0,0,0.0,0,162,162,162,,,,,,,,,,,,,368.0085665999977,0.008566599997720914,None,419.74141990000135,419.74141990000135,419.74141990000135,419.74141990000135,419.74141990000135,419.74141990000135,419.74141990000135,419.74141990000135,419.74141990000135,419.74141990000135,,004,P009,2025_Feb_01_1339,ConditionRich,2021.2.3,59.88231926590118,
371.75,372.0,41,0.0,Stimuli/Blank.png,0,0,0.0,0,163,163,163,,,,,,,,,,,,,371.77856539999993,0.028565399999934016,None,423.51142130000153,423.51142130000153,423.51142130000153,423.51142130000153,423.51142130000153,423.51142130000153,423.51142130000153,423.51142130000153,423.51142130000153,423.51142130000153,,004,P009,2025_Feb_01_1339,ConditionRich,2021.2.3,59.88231926590118,
372.0,388.0,0,0.0,Stimuli/Blank.png,1,9,9.75,0,164,164,164,,,,,,,,,,,,,372.0286754999979,0.02867549999791663,1,423.76163559999986,423.76163559999986,423.76163559999986,423.76163559999986,423.76163559999986,423.76163559999986,432.7362405999993,433.48689899999954,423.76163559999986,423.76163559999986,9.488188999999693,004,P009,2025_Feb_01_1339,ConditionRich,2021.2.3,59.88231926590118,
