eventStartTime,eventEndTime,eventCond,imSize,imFile,responseEvent,fixRespStart,fixRespEnd,Events.thisRepN,Events.thisTrialN,Events.thisN,Events.thisIndex,Instructions.started,Instructions.stopped,participantReadyResponse.keys,participantReadyResponse.rt,participantReadyResponse.started,participantReadyResponse.stopped,startWaitforTrigger,triggerResponse.keys,triggerResponse.rt,triggerResponse.started,triggerResponse.stopped,globalTimer,actualStartTime,startTimingDiff,participantResponse.keys,participantResponse.started,participantResponse.stopped,image.started,image.stopped,fixationOutside.started,fixationOutside.stopped,fixationResponse.started,fixationResponse.stopped,fixationInside.started,fixationInside.stopped,participantResponse.rt,session,participant,date,expName,psychopyVersion,frameRate,
,,,,,,,,,,,,13.252497100002074,None,1,3.355393100002402,13.252497100002074,None,,,,,,,,,,,,,,,,,,,,,006,P009,2025_Feb_01_1353,ConditionRich,2021.2.3,59.93881445850787,
,,,,,,,,,,,,,,,,,,16.62520779999977,5,14.64920560000246,16.637449199999537,None,,,,,,,,,,,,,,,,006,P009,2025_Feb_01_1353,ConditionRich,2021.2.3,59.93881445850787,
0.0,4.0,0,0.0,Stimuli/Blank.png,0,0,0.0,0,0,0,0,,,,,,,,,,,,31.303814999999304,0.06431239999801619,0.06431239999801619,None,31.383813200001896,None,31.383813200001896,None,31.383813200001896,None,31.383813200001896,31.383813200001896,31.383813200001896,None,,006,P009,2025_Feb_01_1353,ConditionRich,2021.2.3,59.93881445850787,
4.0,4.75,32,0.75,Stimuli/P009/things_hawk_05s.jpg,0,0,0.0,0,1,1,1,,,,,,,,,,,,,4.006058999999368,0.006058999999368098,None,35.33756150000045,35.33756150000045,35.33756150000045,35.33756150000045,35.33756150000045,35.33756150000045,35.33756150000045,35.33756150000045,35.33756150000045,35.33756150000045,,006,P009,2025_Feb_01_1353,ConditionRich,2021.2.3,59.93881445850787,
4.75,5.0,41,0.0,Stimuli/Blank.png,0,0,0.0,0,2,2,2,,,,,,,,,,,,,4.770547899999656,0.020547899999655783,None,36.10499980000168,36.10499980000168,36.10499980000168,36.10499980000168,36.10499980000168,36.10499980000168,36.10499980000168,36.10499980000168,36.10499980000168,36.10499980000168,,006,P009,2025_Feb_01_1353,ConditionRich,2021.2.3,59.93881445850787,
5.0,5.75,32,0.75,Stimuli/P009/things_hawk_05s.jpg,0,0,0.0,0,3,3,3,,,,,,,,,,,,,5.020333999997092,0.020333999997092178,None,36.33818489999976,36.33818489999976,36.33818489999976,36.33818489999976,36.33818489999976,36.33818489999976,36.33818489999976,36.33818489999976,36.33818489999976,36.33818489999976,,006,P009,2025_Feb_01_1353,ConditionRich,2021.2.3,59.93881445850787,
5.75,6.0,41,0.0,Stimuli/Blank.png,0,0,0.0,0,4,4,4,,,,,,,,,,,,,5.754701899997599,0.004701899997598957,None,37.07218289999946,37.07218289999946,37.07218289999946,37.07218289999946,37.07218289999946,37.07218289999946,37.07218289999946,37.07218289999946,37.07218289999946,37.07218289999946,,006,P009,2025_Feb_01_1353,ConditionRich,2021.2.3,59.93881445850787,
6.0,6.75,32,0.75,Stimuli/P009/things_hawk_05s.jpg,0,0,0.0,0,5,5,5,,,,,,,,,,,,,6.0050845999976445,0.0050845999976445455,None,37.32239539999864,37.32239539999864,37.32239539999864,37.32239539999864,37.32239539999864,37.32239539999864,37.32239539999864,37.32239539999864,37.32239539999864,37.32239539999864,,006,P009,2025_Feb_01_1353,ConditionRich,2021.2.3,59.93881445850787,
6.75,7.0,41,0.0,Stimuli/Blank.png,0,0,0.0,0,6,6,6,,,,,,,,,,,,,6.755677999997715,0.005677999997715233,None,38.073047699999734,38.073047699999734,38.073047699999734,38.073047699999734,38.073047699999734,38.073047699999734,38.073047699999734,38.073047699999734,38.073047699999734,38.073047699999734,,006,P009,2025_Feb_01_1353,ConditionRich,2021.2.3,59.93881445850787,
7.0,7.75,32,0.75,Stimuli/P009/things_hawk_05s.jpg,0,0,0.0,0,7,7,7,,,,,,,,,,,,,7.004809699999896,0.004809699999896111,None,38.32328300000154,38.32328300000154,38.32328300000154,38.32328300000154,38.32328300000154,38.32328300000154,38.32328300000154,38.32328300000154,38.32328300000154,38.32328300000154,,006,P009,2025_Feb_01_1353,ConditionRich,2021.2.3,59.93881445850787,
7.75,8.0,41,0.0,Stimuli/Blank.png,0,0,0.0,0,8,8,8,,,,,,,,,,,,,7.755632499996864,0.005632499996863771,None,39.07393769999908,39.07393769999908,39.07393769999908,39.07393769999908,39.07393769999908,39.07393769999908,39.07393769999908,39.07393769999908,39.07393769999908,39.07393769999908,,006,P009,2025_Feb_01_1353,ConditionRich,2021.2.3,59.93881445850787,
8.0,8.75,29,0.75,Stimuli/P009/things_fingerprint_05s.jpg,0,0,0.0,0,9,9,9,,,,,,,,,,,,,8.00576099999671,0.00576099999670987,None,39.324157499999274,39.324157499999274,39.324157499999274,39.324157499999274,39.324157499999274,39.324157499999274,39.324157499999274,39.324157499999274,39.324157499999274,39.324157499999274,,006,P009,2025_Feb_01_1353,ConditionRich,2021.2.3,59.93881445850787,
8.75,9.0,41,0.0,Stimuli/Blank.png,0,0,0.0,0,10,10,10,,,,,,,,,,,,,8.75940879999689,0.009408799996890593,None,40.09153610000067,40.09153610000067,40.09153610000067,40.09153610000067,40.09153610000067,40.09153610000067,40.09153610000067,40.09153610000067,40.09153610000067,40.09153610000067,,006,P009,2025_Feb_01_1353,ConditionRich,2021.2.3,59.93881445850787,
9.0,9.75,29,0.75,Stimuli/P009/things_fingerprint_05s.jpg,0,0,0.0,0,11,11,11,,,,,,,,,,,,,9.023943299998791,0.02394329999879119,None,40.35841219999929,40.35841219999929,40.35841219999929,40.35841219999929,40.35841219999929,40.35841219999929,40.35841219999929,40.35841219999929,40.35841219999929,40.35841219999929,,006,P009,2025_Feb_01_1353,ConditionRich,2021.2.3,59.93881445850787,
9.75,10.0,41,0.0,Stimuli/Blank.png,0,0,0.0,0,12,12,12,,,,,,,,,,,,,9.775497499998892,0.025497499998891726,None,41.09238769999865,41.09238769999865,41.09238769999865,41.09238769999865,41.09238769999865,41.09238769999865,41.09238769999865,41.09238769999865,41.09238769999865,41.09238769999865,,006,P009,2025_Feb_01_1353,ConditionRich,2021.2.3,59.93881445850787,
10.0,10.75,29,0.75,Stimuli/P009/things_fingerprint_05s.jpg,0,0,0.0,0,13,13,13,,,,,,,,,,,,,10.007386899997073,0.00738689999707276,None,41.3426400999997,41.3426400999997,41.3426400999997,41.3426400999997,41.3426400999997,41.3426400999997,41.3426400999997,41.3426400999997,41.3426400999997,41.3426400999997,,006,P009,2025_Feb_01_1353,ConditionRich,2021.2.3,59.93881445850787,
10.75,11.0,41,0.0,Stimuli/Blank.png,0,0,0.0,0,14,14,14,,,,,,,,,,,,,10.774981099999422,0.02498109999942244,None,42.09327349999876,42.09327349999876,42.09327349999876,42.09327349999876,42.09327349999876,42.09327349999876,42.09327349999876,42.09327349999876,42.09327349999876,42.09327349999876,,006,P009,2025_Feb_01_1353,ConditionRich,2021.2.3,59.93881445850787,
11.0,11.75,29,0.75,Stimuli/P009/things_fingerprint_05s.jpg,0,0,0.0,0,15,15,15,,,,,,,,,,,,,11.0091689999972,0.009168999997200444,None,42.34350279999853,42.34350279999853,42.34350279999853,42.34350279999853,42.34350279999853,42.34350279999853,42.34350279999853,42.34350279999853,42.34350279999853,42.34350279999853,,006,P009,2025_Feb_01_1353,ConditionRich,2021.2.3,59.93881445850787,
11.75,12.0,41,0.0,Stimuli/Blank.png,0,0,0.0,0,16,16,16,,,,,,,,,,,,,11.77614149999863,0.026141499998630024,None,43.0941602999992,43.0941602999992,43.0941602999992,43.0941602999992,43.0941602999992,43.0941602999992,43.0941602999992,43.0941602999992,43.0941602999992,43.0941602999992,,006,P009,2025_Feb_01_1353,ConditionRich,2021.2.3,59.93881445850787,
12.0,12.75,19,0.75,Stimuli/P009/sun_bwvfnogmotsvhofs.jpg,0,0,0.0,0,17,17,17,,,,,,,,,,,,,12.009780799999135,0.009780799999134615,None,43.327725300001475,43.327725300001475,43.327725300001475,43.327725300001475,43.327725300001475,43.327725300001475,43.327725300001475,43.327725300001475,43.327725300001475,43.327725300001475,,006,P009,2025_Feb_01_1353,ConditionRich,2021.2.3,59.93881445850787,
12.75,13.0,41,0.0,Stimuli/Blank.png,0,0,0.0,0,18,18,18,,,,,,,,,,,,,12.761058199997933,0.011058199997933116,None,44.078369300001214,44.078369300001214,44.078369300001214,44.078369300001214,44.078369300001214,44.078369300001214,44.078369300001214,44.078369300001214,44.078369300001214,44.078369300001214,,006,P009,2025_Feb_01_1353,ConditionRich,2021.2.3,59.93881445850787,
13.0,13.75,19,0.75,Stimuli/P009/sun_bwvfnogmotsvhofs.jpg,0,0,0.0,0,19,19,19,,,,,,,,,,,,,13.01010359999782,0.010103599997819401,None,44.32858580000175,44.32858580000175,44.32858580000175,44.32858580000175,44.32858580000175,44.32858580000175,44.32858580000175,44.32858580000175,44.32858580000175,44.32858580000175,,006,P009,2025_Feb_01_1353,ConditionRich,2021.2.3,59.93881445850787,
13.75,14.0,41,0.0,Stimuli/Blank.png,0,0,0.0,0,20,20,20,,,,,,,,,,,,,13.76146399999925,0.011463999999250518,None,45.07925080000132,45.07925080000132,45.07925080000132,45.07925080000132,45.07925080000132,45.07925080000132,45.07925080000132,45.07925080000132,45.07925080000132,45.07925080000132,,006,P009,2025_Feb_01_1353,ConditionRich,2021.2.3,59.93881445850787,
14.0,14.75,19,0.75,Stimuli/P009/sun_bwvfnogmotsvhofs.jpg,0,0,0.0,0,21,21,21,,,,,,,,,,,,,14.011725899999874,0.011725899999873945,None,45.34615810000105,45.34615810000105,45.34615810000105,45.34615810000105,45.34615810000105,45.34615810000105,45.34615810000105,45.34615810000105,45.34615810000105,45.34615810000105,,006,P009,2025_Feb_01_1353,ConditionRich,2021.2.3,59.93881445850787,
14.75,15.0,41,0.0,Stimuli/Blank.png,0,0,0.0,0,22,22,22,,,,,,,,,,,,,14.778977099998883,0.028977099998883205,None,46.09684410000045,46.09684410000045,46.09684410000045,46.09684410000045,46.09684410000045,46.09684410000045,46.09684410000045,46.09684410000045,46.09684410000045,46.09684410000045,,006,P009,2025_Feb_01_1353,ConditionRich,2021.2.3,59.93881445850787,
15.0,15.75,19,0.75,Stimuli/P009/sun_bwvfnogmotsvhofs.jpg,0,0,0.0,0,23,23,23,,,,,,,,,,,,,15.01440509999884,0.014405099998839432,None,46.34758080000029,46.34758080000029,46.34758080000029,46.34758080000029,46.34758080000029,46.34758080000029,46.34758080000029,46.34758080000029,46.34758080000029,46.34758080000029,,006,P009,2025_Feb_01_1353,ConditionRich,2021.2.3,59.93881445850787,
15.75,16.0,41,0.0,Stimuli/Blank.png,0,0,0.0,0,24,24,24,,,,,,,,,,,,,15.781776599997102,0.031776599997101584,None,47.114395100001275,47.114395100001275,47.114395100001275,47.114395100001275,47.114395100001275,47.114395100001275,47.114395100001275,47.114395100001275,47.114395100001275,47.114395100001275,,006,P009,2025_Feb_01_1353,ConditionRich,2021.2.3,59.93881445850787,
16.0,16.75,13,0.75,Stimuli/P009/sun_bjimvgwadfodioes.jpg,0,0,0.0,0,25,25,25,,,,,,,,,,,,,16.03007439999783,0.03007439999782946,None,47.36462540000139,47.36462540000139,47.36462540000139,47.36462540000139,47.36462540000139,47.36462540000139,47.36462540000139,47.36462540000139,47.36462540000139,47.36462540000139,,006,P009,2025_Feb_01_1353,ConditionRich,2021.2.3,59.93881445850787,
16.75,17.0,41,0.0,Stimuli/Blank.png,0,0,0.0,0,26,26,26,,,,,,,,,,,,,16.780453499999567,0.030453499999566702,None,48.09858760000134,48.09858760000134,48.09858760000134,48.09858760000134,48.09858760000134,48.09858760000134,48.09858760000134,48.09858760000134,48.09858760000134,48.09858760000134,,006,P009,2025_Feb_01_1353,ConditionRich,2021.2.3,59.93881445850787,
17.0,17.75,13,0.75,Stimuli/P009/sun_bjimvgwadfodioes.jpg,1,0,0.75,0,27,27,27,,,,,,,,,,,,,17.013976399997773,0.013976399997773115,1,48.33212690000073,48.33212690000073,48.33212690000073,48.33212690000073,48.33212690000073,48.33212690000073,48.33212690000073,49.066138400001364,48.33212690000073,48.33212690000073,0.48649570000270614,006,P009,2025_Feb_01_1353,ConditionRich,2021.2.3,59.93881445850787,
17.75,18.0,41,0.0,Stimuli/Blank.png,0,0,0.0,0,28,28,28,,,,,,,,,,,,,17.76547799999753,0.015477999997528968,None,49.08279920000132,49.08279920000132,49.08279920000132,49.08279920000132,49.08279920000132,49.08279920000132,49.08279920000132,49.08279920000132,49.08279920000132,49.08279920000132,,006,P009,2025_Feb_01_1353,ConditionRich,2021.2.3,59.93881445850787,
18.0,18.75,13,0.75,Stimuli/P009/sun_bjimvgwadfodioes.jpg,0,0,0.0,0,29,29,29,,,,,,,,,,,,,18.016831699998875,0.016831699998874683,None,49.349697199999355,49.349697199999355,49.349697199999355,49.349697199999355,49.349697199999355,49.349697199999355,49.349697199999355,49.349697199999355,49.349697199999355,49.349697199999355,,006,P009,2025_Feb_01_1353,ConditionRich,2021.2.3,59.93881445850787,
18.75,19.0,41,0.0,Stimuli/Blank.png,0,0,0.0,0,30,30,30,,,,,,,,,,,,,18.765700399999332,0.01570039999933215,None,50.083678599999985,50.083678599999985,50.083678599999985,50.083678599999985,50.083678599999985,50.083678599999985,50.083678599999985,50.083678599999985,50.083678599999985,50.083678599999985,,006,P009,2025_Feb_01_1353,ConditionRich,2021.2.3,59.93881445850787,
19.0,19.75,13,0.75,Stimuli/P009/sun_bjimvgwadfodioes.jpg,0,0,0.0,0,31,31,31,,,,,,,,,,,,,18.998756299999513,-0.0012437000004865695,None,50.317203400001745,50.317203400001745,50.317203400001745,50.317203400001745,50.317203400001745,50.317203400001745,50.317203400001745,50.317203400001745,50.317203400001745,50.317203400001745,,006,P009,2025_Feb_01_1353,ConditionRich,2021.2.3,59.93881445850787,
19.75,20.0,41,0.0,Stimuli/Blank.png,0,0,0.0,0,32,32,32,,,,,,,,,,,,,19.7500043,4.300000000512227e-06,None,51.067891300001065,51.067891300001065,51.067891300001065,51.067891300001065,51.067891300001065,51.067891300001065,51.067891300001065,51.067891300001065,51.067891300001065,51.067891300001065,,006,P009,2025_Feb_01_1353,ConditionRich,2021.2.3,59.93881445850787,
20.0,20.75,26,0.75,Stimuli/P009/things_cookie_sheet_05s.jpg,1,0,0.75,0,33,33,33,,,,,,,,,,,,,19.999594899996737,-0.0004051000032632146,1,51.3181055999994,51.3181055999994,51.3181055999994,51.3181055999994,51.3181055999994,51.3181055999994,51.3181055999994,52.052081500001805,51.3181055999994,51.3181055999994,0.45771610000156215,006,P009,2025_Feb_01_1353,ConditionRich,2021.2.3,59.93881445850787,
20.75,21.0,41,0.0,Stimuli/Blank.png,0,0,0.0,0,34,34,34,,,,,,,,,,,,,20.75033919999987,0.0003391999998711981,None,52.06876059999922,52.06876059999922,52.06876059999922,52.06876059999922,52.06876059999922,52.06876059999922,52.06876059999922,52.06876059999922,52.06876059999922,52.06876059999922,,006,P009,2025_Feb_01_1353,ConditionRich,2021.2.3,59.93881445850787,
21.0,21.75,26,0.75,Stimuli/P009/things_cookie_sheet_05s.jpg,0,0,0.0,0,35,35,35,,,,,,,,,,,,,21.001124499998696,0.0011244999986956827,None,52.31898870000077,52.31898870000077,52.31898870000077,52.31898870000077,52.31898870000077,52.31898870000077,52.31898870000077,52.31898870000077,52.31898870000077,52.31898870000077,,006,P009,2025_Feb_01_1353,ConditionRich,2021.2.3,59.93881445850787,
21.75,22.0,41,0.0,Stimuli/Blank.png,0,0,0.0,0,36,36,36,,,,,,,,,,,,,21.751176099998702,0.0011760999987018295,None,53.069649500001105,53.069649500001105,53.069649500001105,53.069649500001105,53.069649500001105,53.069649500001105,53.069649500001105,53.069649500001105,53.069649500001105,53.069649500001105,,006,P009,2025_Feb_01_1353,ConditionRich,2021.2.3,59.93881445850787,
22.0,22.75,26,0.75,Stimuli/P009/things_cookie_sheet_05s.jpg,0,0,0.0,0,37,37,37,,,,,,,,,,,,,22.002670499998203,0.002670499998203013,None,53.336556700000074,53.336556700000074,53.336556700000074,53.336556700000074,53.336556700000074,53.336556700000074,53.336556700000074,53.336556700000074,53.336556700000074,53.336556700000074,,006,P009,2025_Feb_01_1353,ConditionRich,2021.2.3,59.93881445850787,
22.75,23.0,41,0.0,Stimuli/Blank.png,0,0,0.0,0,38,38,38,,,,,,,,,,,,,22.768869699997595,0.01886969999759458,None,54.08722290000151,54.08722290000151,54.08722290000151,54.08722290000151,54.08722290000151,54.08722290000151,54.08722290000151,54.08722290000151,54.08722290000151,54.08722290000151,,006,P009,2025_Feb_01_1353,ConditionRich,2021.2.3,59.93881445850787,
23.0,23.75,26,0.75,Stimuli/P009/things_cookie_sheet_05s.jpg,0,0,0.0,0,39,39,39,,,,,,,,,,,,,23.004311400000006,0.0043114000000059605,None,54.3374427000017,54.3374427000017,54.3374427000017,54.3374427000017,54.3374427000017,54.3374427000017,54.3374427000017,54.3374427000017,54.3374427000017,54.3374427000017,,006,P009,2025_Feb_01_1353,ConditionRich,2021.2.3,59.93881445850787,
23.75,24.0,41,0.0,Stimuli/Blank.png,0,0,0.0,0,40,40,40,,,,,,,,,,,,,23.769926599998144,0.0199265999981435,None,55.08810219999941,55.08810219999941,55.08810219999941,55.08810219999941,55.08810219999941,55.08810219999941,55.08810219999941,55.08810219999941,55.08810219999941,55.08810219999941,,006,P009,2025_Feb_01_1353,ConditionRich,2021.2.3,59.93881445850787,
24.0,24.75,24,0.75,Stimuli/P009/things_cigar_05n.jpg,0,0,0.0,0,41,41,41,,,,,,,,,,,,,24.004233899999235,0.004233899999235291,None,55.32164389999889,55.32164389999889,55.32164389999889,55.32164389999889,55.32164389999889,55.32164389999889,55.32164389999889,55.32164389999889,55.32164389999889,55.32164389999889,,006,P009,2025_Feb_01_1353,ConditionRich,2021.2.3,59.93881445850787,
24.75,25.0,41,0.0,Stimuli/Blank.png,0,0,0.0,0,42,42,42,,,,,,,,,,,,,24.754793500000233,0.004793500000232598,None,56.072313500000746,56.072313500000746,56.072313500000746,56.072313500000746,56.072313500000746,56.072313500000746,56.072313500000746,56.072313500000746,56.072313500000746,56.072313500000746,,006,P009,2025_Feb_01_1353,ConditionRich,2021.2.3,59.93881445850787,
25.0,25.75,24,0.75,Stimuli/P009/things_cigar_05n.jpg,0,0,0.0,0,43,43,43,,,,,,,,,,,,,25.005078799997136,0.00507879999713623,None,56.33966370000053,56.33966370000053,56.33966370000053,56.33966370000053,56.33966370000053,56.33966370000053,56.33966370000053,56.33966370000053,56.33966370000053,56.33966370000053,,006,P009,2025_Feb_01_1353,ConditionRich,2021.2.3,59.93881445850787,
25.75,26.0,41,0.0,Stimuli/Blank.png,0,0,0.0,0,44,44,44,,,,,,,,,,,,,25.772742999997718,0.02274299999771756,None,57.08989780000047,57.08989780000047,57.08989780000047,57.08989780000047,57.08989780000047,57.08989780000047,57.08989780000047,57.08989780000047,57.08989780000047,57.08989780000047,,006,P009,2025_Feb_01_1353,ConditionRich,2021.2.3,59.93881445850787,
26.0,26.75,24,0.75,Stimuli/P009/things_cigar_05n.jpg,0,0,0.0,0,45,45,45,,,,,,,,,,,,,26.005394299998443,0.005394299998442875,None,57.323409799999354,57.323409799999354,57.323409799999354,57.323409799999354,57.323409799999354,57.323409799999354,57.323409799999354,57.323409799999354,57.323409799999354,57.323409799999354,,006,P009,2025_Feb_01_1353,ConditionRich,2021.2.3,59.93881445850787,
26.75,27.0,41,0.0,Stimuli/Blank.png,0,0,0.0,0,46,46,46,,,,,,,,,,,,,26.756349799998134,0.006349799998133676,None,58.07407990000138,58.07407990000138,58.07407990000138,58.07407990000138,58.07407990000138,58.07407990000138,58.07407990000138,58.07407990000138,58.07407990000138,58.07407990000138,,006,P009,2025_Feb_01_1353,ConditionRich,2021.2.3,59.93881445850787,
27.0,27.75,24,0.75,Stimuli/P009/things_cigar_05n.jpg,0,0,0.0,0,47,47,47,,,,,,,,,,,,,27.006107899997005,0.006107899997005006,None,58.324299100000644,58.324299100000644,58.324299100000644,58.324299100000644,58.324299100000644,58.324299100000644,58.324299100000644,58.324299100000644,58.324299100000644,58.324299100000644,,006,P009,2025_Feb_01_1353,ConditionRich,2021.2.3,59.93881445850787,
27.75,28.0,41,0.0,Stimuli/Blank.png,0,0,0.0,0,48,48,48,,,,,,,,,,,,,27.756546399999934,0.006546399999933783,None,59.07496660000106,59.07496660000106,59.07496660000106,59.07496660000106,59.07496660000106,59.07496660000106,59.07496660000106,59.07496660000106,59.07496660000106,59.07496660000106,,006,P009,2025_Feb_01_1353,ConditionRich,2021.2.3,59.93881445850787,
28.0,28.75,21,0.75,Stimuli/P009/things_boy_05s.jpg,0,0,0.0,0,49,49,49,,,,,,,,,,,,,28.007281799997145,0.007281799997144844,None,59.34190149999995,59.34190149999995,59.34190149999995,59.34190149999995,59.34190149999995,59.34190149999995,59.34190149999995,59.34190149999995,59.34190149999995,59.34190149999995,,006,P009,2025_Feb_01_1353,ConditionRich,2021.2.3,59.93881445850787,
28.75,29.0,41,0.0,Stimuli/Blank.png,0,0,0.0,0,50,50,50,,,,,,,,,,,,,28.77468829999998,0.02468829999997979,None,60.092529400000785,60.092529400000785,60.092529400000785,60.092529400000785,60.092529400000785,60.092529400000785,60.092529400000785,60.092529400000785,60.092529400000785,60.092529400000785,,006,P009,2025_Feb_01_1353,ConditionRich,2021.2.3,59.93881445850787,
29.0,29.75,21,0.75,Stimuli/P009/things_boy_05s.jpg,0,0,0.0,0,51,51,51,,,,,,,,,,,,,29.008182300000044,0.008182300000044052,None,60.32604329999958,60.32604329999958,60.32604329999958,60.32604329999958,60.32604329999958,60.32604329999958,60.32604329999958,60.32604329999958,60.32604329999958,60.32604329999958,,006,P009,2025_Feb_01_1353,ConditionRich,2021.2.3,59.93881445850787,
29.75,30.0,41,0.0,Stimuli/Blank.png,0,0,0.0,0,52,52,52,,,,,,,,,,,,,29.758428099998127,0.008428099998127436,None,61.07670700000017,61.07670700000017,61.07670700000017,61.07670700000017,61.07670700000017,61.07670700000017,61.07670700000017,61.07670700000017,61.07670700000017,61.07670700000017,,006,P009,2025_Feb_01_1353,ConditionRich,2021.2.3,59.93881445850787,
30.0,30.75,21,0.75,Stimuli/P009/things_boy_05s.jpg,0,0,0.0,0,53,53,53,,,,,,,,,,,,,30.00899379999828,0.008993799998279428,None,61.326957299999776,61.326957299999776,61.326957299999776,61.326957299999776,61.326957299999776,61.326957299999776,61.326957299999776,61.326957299999776,61.326957299999776,61.326957299999776,,006,P009,2025_Feb_01_1353,ConditionRich,2021.2.3,59.93881445850787,
30.75,31.0,41,0.0,Stimuli/Blank.png,0,0,0.0,0,54,54,54,,,,,,,,,,,,,30.759853799998382,0.009853799998381874,None,62.0775919000007,62.0775919000007,62.0775919000007,62.0775919000007,62.0775919000007,62.0775919000007,62.0775919000007,62.0775919000007,62.0775919000007,62.0775919000007,,006,P009,2025_Feb_01_1353,ConditionRich,2021.2.3,59.93881445850787,
31.0,31.75,21,0.75,Stimuli/P009/things_boy_05s.jpg,0,0,0.0,0,55,55,55,,,,,,,,,,,,,31.010689399998228,0.0106893999982276,None,62.34456069999942,62.34456069999942,62.34456069999942,62.34456069999942,62.34456069999942,62.34456069999942,62.34456069999942,62.34456069999942,62.34456069999942,62.34456069999942,,006,P009,2025_Feb_01_1353,ConditionRich,2021.2.3,59.93881445850787,
31.75,32.0,41,0.0,Stimuli/Blank.png,0,0,0.0,0,56,56,56,,,,,,,,,,,,,31.776893799997197,0.026893799997196766,None,63.09518830000161,63.09518830000161,63.09518830000161,63.09518830000161,63.09518830000161,63.09518830000161,63.09518830000161,63.09518830000161,63.09518830000161,63.09518830000161,,006,P009,2025_Feb_01_1353,ConditionRich,2021.2.3,59.93881445850787,
32.0,32.75,16,0.75,Stimuli/P009/sun_bqpyqljaflidcauh.jpg,1,0,0.75,0,57,57,57,,,,,,,,,,,,,32.010273199997755,0.010273199997755,1,63.328734200000326,63.328734200000326,63.328734200000326,63.328734200000326,63.328734200000326,63.328734200000326,63.328734200000326,64.06271560000096,63.328734200000326,63.328734200000326,0.44610929999907967,006,P009,2025_Feb_01_1353,ConditionRich,2021.2.3,59.93881445850787,
32.75,33.0,41,0.0,Stimuli/Blank.png,0,0,0.0,0,58,58,58,,,,,,,,,,,,,32.76147959999798,0.011479599997983314,None,64.07939859999897,64.07939859999897,64.07939859999897,64.07939859999897,64.07939859999897,64.07939859999897,64.07939859999897,64.07939859999897,64.07939859999897,64.07939859999897,,006,P009,2025_Feb_01_1353,ConditionRich,2021.2.3,59.93881445850787,
33.0,33.75,16,0.75,Stimuli/P009/sun_bqpyqljaflidcauh.jpg,0,0,0.0,0,59,59,59,,,,,,,,,,,,,33.01126479999948,0.011264799999480601,None,64.32961739999882,64.32961739999882,64.32961739999882,64.32961739999882,64.32961739999882,64.32961739999882,64.32961739999882,64.32961739999882,64.32961739999882,64.32961739999882,,006,P009,2025_Feb_01_1353,ConditionRich,2021.2.3,59.93881445850787,
33.75,34.0,41,0.0,Stimuli/Blank.png,0,0,0.0,0,60,60,60,,,,,,,,,,,,,33.76271749999796,0.012717499997961568,None,65.08028700000068,65.08028700000068,65.08028700000068,65.08028700000068,65.08028700000068,65.08028700000068,65.08028700000068,65.08028700000068,65.08028700000068,65.08028700000068,,006,P009,2025_Feb_01_1353,ConditionRich,2021.2.3,59.93881445850787,
34.0,34.75,16,0.75,Stimuli/P009/sun_bqpyqljaflidcauh.jpg,0,0,0.0,0,61,61,61,,,,,,,,,,,,,34.01287009999942,0.012870099999418017,None,65.34718649999922,65.34718649999922,65.34718649999922,65.34718649999922,65.34718649999922,65.34718649999922,65.34718649999922,65.34718649999922,65.34718649999922,65.34718649999922,,006,P009,2025_Feb_01_1353,ConditionRich,2021.2.3,59.93881445850787,
34.75,35.0,41,0.0,Stimuli/Blank.png,0,0,0.0,0,62,62,62,,,,,,,,,,,,,34.78086499999699,0.030864999996992992,None,66.11456810000163,66.11456810000163,66.11456810000163,66.11456810000163,66.11456810000163,66.11456810000163,66.11456810000163,66.11456810000163,66.11456810000163,66.11456810000163,,006,P009,2025_Feb_01_1353,ConditionRich,2021.2.3,59.93881445850787,
35.0,35.75,16,0.75,Stimuli/P009/sun_bqpyqljaflidcauh.jpg,0,0,0.0,0,63,63,63,,,,,,,,,,,,,35.03032719999828,0.030327199998282595,None,66.36475879999853,66.36475879999853,66.36475879999853,66.36475879999853,66.36475879999853,66.36475879999853,66.36475879999853,66.36475879999853,66.36475879999853,66.36475879999853,,006,P009,2025_Feb_01_1353,ConditionRich,2021.2.3,59.93881445850787,
35.75,36.0,41,0.0,Stimuli/Blank.png,0,0,0.0,0,64,64,64,,,,,,,,,,,,,35.7812946999984,0.031294699998397846,None,67.09873890000017,67.09873890000017,67.09873890000017,67.09873890000017,67.09873890000017,67.09873890000017,67.09873890000017,67.09873890000017,67.09873890000017,67.09873890000017,,006,P009,2025_Feb_01_1353,ConditionRich,2021.2.3,59.93881445850787,
36.0,36.75,12,0.75,Stimuli/P009/sun_birmwgkdtrlevcaf.jpg,0,0,0.0,0,65,65,65,,,,,,,,,,,,,36.0144444999969,0.01444449999689823,None,67.33226690000083,67.33226690000083,67.33226690000083,67.33226690000083,67.33226690000083,67.33226690000083,67.33226690000083,67.33226690000083,67.33226690000083,67.33226690000083,,006,P009,2025_Feb_01_1353,ConditionRich,2021.2.3,59.93881445850787,
36.75,37.0,41,0.0,Stimuli/Blank.png,0,0,0.0,0,66,66,66,,,,,,,,,,,,,36.76606829999946,0.016068299999460578,None,68.09963889999926,68.09963889999926,68.09963889999926,68.09963889999926,68.09963889999926,68.09963889999926,68.09963889999926,68.09963889999926,68.09963889999926,68.09963889999926,,006,P009,2025_Feb_01_1353,ConditionRich,2021.2.3,59.93881445850787,
37.0,37.75,12,0.75,Stimuli/P009/sun_birmwgkdtrlevcaf.jpg,0,0,0.0,0,67,67,67,,,,,,,,,,,,,37.014827299997705,0.014827299997705268,None,68.33315790000051,68.33315790000051,68.33315790000051,68.33315790000051,68.33315790000051,68.33315790000051,68.33315790000051,68.33315790000051,68.33315790000051,68.33315790000051,,006,P009,2025_Feb_01_1353,ConditionRich,2021.2.3,59.93881445850787,
37.75,38.0,41,0.0,Stimuli/Blank.png,0,0,0.0,0,68,68,68,,,,,,,,,,,,,37.76637109999865,0.016371099998650607,None,69.08512279999923,69.08512279999923,69.08512279999923,69.08512279999923,69.08512279999923,69.08512279999923,69.08512279999923,69.08512279999923,69.08512279999923,69.08512279999923,,006,P009,2025_Feb_01_1353,ConditionRich,2021.2.3,59.93881445850787,
38.0,38.75,12,0.75,Stimuli/P009/sun_birmwgkdtrlevcaf.jpg,0,0,0.0,0,69,69,69,,,,,,,,,,,,,38.015864499997406,0.0158644999974058,None,69.33404510000037,69.33404510000037,69.33404510000037,69.33404510000037,69.33404510000037,69.33404510000037,69.33404510000037,69.33404510000037,69.33404510000037,69.33404510000037,,006,P009,2025_Feb_01_1353,ConditionRich,2021.2.3,59.93881445850787,
38.75,39.0,41,0.0,Stimuli/Blank.png,0,0,0.0,0,70,70,70,,,,,,,,,,,,,38.75085249999756,0.0008524999975634273,None,70.08471189999909,70.08471189999909,70.08471189999909,70.08471189999909,70.08471189999909,70.08471189999909,70.08471189999909,70.08471189999909,70.08471189999909,70.08471189999909,,006,P009,2025_Feb_01_1353,ConditionRich,2021.2.3,59.93881445850787,
39.0,39.75,12,0.75,Stimuli/P009/sun_birmwgkdtrlevcaf.jpg,0,0,0.0,0,71,71,71,,,,,,,,,,,,,39.01736339999843,0.017363399998430395,None,70.33492230000047,70.33492230000047,70.33492230000047,70.33492230000047,70.33492230000047,70.33492230000047,70.33492230000047,70.33492230000047,70.33492230000047,70.33492230000047,,006,P009,2025_Feb_01_1353,ConditionRich,2021.2.3,59.93881445850787,
39.75,40.0,41,0.0,Stimuli/Blank.png,0,0,0.0,0,72,72,72,,,,,,,,,,,,,39.75046849999853,0.0004684999985329341,None,71.06888020000042,71.06888020000042,71.06888020000042,71.06888020000042,71.06888020000042,71.06888020000042,71.06888020000042,71.06888020000042,71.06888020000042,71.06888020000042,,006,P009,2025_Feb_01_1353,ConditionRich,2021.2.3,59.93881445850787,
40.0,40.75,31,0.75,Stimuli/P009/things_girl_05s.jpg,0,0,0.0,0,73,73,73,,,,,,,,,,,,,40.00098909999724,0.0009890999972412828,None,71.3191270999996,71.3191270999996,71.3191270999996,71.3191270999996,71.3191270999996,71.3191270999996,71.3191270999996,71.3191270999996,71.3191270999996,71.3191270999996,,006,P009,2025_Feb_01_1353,ConditionRich,2021.2.3,59.93881445850787,
40.75,41.0,41,0.0,Stimuli/Blank.png,0,0,0.0,0,74,74,74,,,,,,,,,,,,,40.75155139999697,0.0015513999969698489,None,72.06979000000138,72.06979000000138,72.06979000000138,72.06979000000138,72.06979000000138,72.06979000000138,72.06979000000138,72.06979000000138,72.06979000000138,72.06979000000138,,006,P009,2025_Feb_01_1353,ConditionRich,2021.2.3,59.93881445850787,
41.0,41.75,31,0.75,Stimuli/P009/things_girl_05s.jpg,0,0,0.0,0,75,75,75,,,,,,,,,,,,,41.00152779999917,0.0015277999991667457,None,72.32000770000013,72.32000770000013,72.32000770000013,72.32000770000013,72.32000770000013,72.32000770000013,72.32000770000013,72.32000770000013,72.32000770000013,72.32000770000013,,006,P009,2025_Feb_01_1353,ConditionRich,2021.2.3,59.93881445850787,
41.75,42.0,41,0.0,Stimuli/Blank.png,0,0,0.0,0,76,76,76,,,,,,,,,,,,,41.75434559999849,0.00434559999848716,None,73.0873642000006,73.0873642000006,73.0873642000006,73.0873642000006,73.0873642000006,73.0873642000006,73.0873642000006,73.0873642000006,73.0873642000006,73.0873642000006,,006,P009,2025_Feb_01_1353,ConditionRich,2021.2.3,59.93881445850787,
42.0,42.75,31,0.75,Stimuli/P009/things_girl_05s.jpg,0,0,0.0,0,77,77,77,,,,,,,,,,,,,42.02012569999715,0.02012569999715197,None,73.33757270000206,73.33757270000206,73.33757270000206,73.33757270000206,73.33757270000206,73.33757270000206,73.33757270000206,73.33757270000206,73.33757270000206,73.33757270000206,,006,P009,2025_Feb_01_1353,ConditionRich,2021.2.3,59.93881445850787,
42.75,43.0,41,0.0,Stimuli/Blank.png,0,0,0.0,0,78,78,78,,,,,,,,,,,,,42.75324009999895,0.0032400999989476986,None,74.0716104000021,74.0716104000021,74.0716104000021,74.0716104000021,74.0716104000021,74.0716104000021,74.0716104000021,74.0716104000021,74.0716104000021,74.0716104000021,,006,P009,2025_Feb_01_1353,ConditionRich,2021.2.3,59.93881445850787,
43.0,43.75,31,0.75,Stimuli/P009/things_girl_05s.jpg,0,0,0.0,0,79,79,79,,,,,,,,,,,,,43.00613959999828,0.006139599998277845,None,74.33847400000013,74.33847400000013,74.33847400000013,74.33847400000013,74.33847400000013,74.33847400000013,74.33847400000013,74.33847400000013,74.33847400000013,74.33847400000013,,006,P009,2025_Feb_01_1353,ConditionRich,2021.2.3,59.93881445850787,
43.75,44.0,41,0.0,Stimuli/Blank.png,0,0,0.0,0,80,80,80,,,,,,,,,,,,,43.770935599997756,0.02093559999775607,None,75.08912989999953,75.08912989999953,75.08912989999953,75.08912989999953,75.08912989999953,75.08912989999953,75.08912989999953,75.08912989999953,75.08912989999953,75.08912989999953,,006,P009,2025_Feb_01_1353,ConditionRich,2021.2.3,59.93881445850787,
44.0,44.75,7,0.75,Stimuli/P009/sun_apiogxmvvzfmtsmj.jpg,0,0,0.0,0,81,81,81,,,,,,,,,,,,,44.00477429999955,0.004774299999553477,None,75.32267800000045,75.32267800000045,75.32267800000045,75.32267800000045,75.32267800000045,75.32267800000045,75.32267800000045,75.32267800000045,75.32267800000045,75.32267800000045,,006,P009,2025_Feb_01_1353,ConditionRich,2021.2.3,59.93881445850787,
44.75,45.0,41,0.0,Stimuli/Blank.png,0,0,0.0,0,82,82,82,,,,,,,,,,,,,44.75551439999981,0.005514399999810848,None,76.07333450000078,76.07333450000078,76.07333450000078,76.07333450000078,76.07333450000078,76.07333450000078,76.07333450000078,76.07333450000078,76.07333450000078,76.07333450000078,,006,P009,2025_Feb_01_1353,ConditionRich,2021.2.3,59.93881445850787,
45.0,45.75,7,0.75,Stimuli/P009/sun_apiogxmvvzfmtsmj.jpg,0,0,0.0,0,83,83,83,,,,,,,,,,,,,45.005322299999534,0.0053222999995341524,None,76.32355530000132,76.32355530000132,76.32355530000132,76.32355530000132,76.32355530000132,76.32355530000132,76.32355530000132,76.32355530000132,76.32355530000132,76.32355530000132,,006,P009,2025_Feb_01_1353,ConditionRich,2021.2.3,59.93881445850787,
45.75,46.0,41,0.0,Stimuli/Blank.png,0,0,0.0,0,84,84,84,,,,,,,,,,,,,45.75594379999893,0.005943799998931354,None,77.0742195999992,77.0742195999992,77.0742195999992,77.0742195999992,77.0742195999992,77.0742195999992,77.0742195999992,77.0742195999992,77.0742195999992,77.0742195999992,,006,P009,2025_Feb_01_1353,ConditionRich,2021.2.3,59.93881445850787,
46.0,46.75,7,0.75,Stimuli/P009/sun_apiogxmvvzfmtsmj.jpg,0,0,0.0,0,85,85,85,,,,,,,,,,,,,46.006018699998094,0.006018699998094235,None,77.3244474000021,77.3244474000021,77.3244474000021,77.3244474000021,77.3244474000021,77.3244474000021,77.3244474000021,77.3244474000021,77.3244474000021,77.3244474000021,,006,P009,2025_Feb_01_1353,ConditionRich,2021.2.3,59.93881445850787,
46.75,47.0,41,0.0,Stimuli/Blank.png,0,0,0.0,0,86,86,86,,,,,,,,,,,,,46.75917019999906,0.009170199999061879,None,78.0917972999996,78.0917972999996,78.0917972999996,78.0917972999996,78.0917972999996,78.0917972999996,78.0917972999996,78.0917972999996,78.0917972999996,78.0917972999996,,006,P009,2025_Feb_01_1353,ConditionRich,2021.2.3,59.93881445850787,
47.0,47.75,7,0.75,Stimuli/P009/sun_apiogxmvvzfmtsmj.jpg,0,0,0.0,0,87,87,87,,,,,,,,,,,,,47.02386999999726,0.023869999997259583,None,78.34200520000013,78.34200520000013,78.34200520000013,78.34200520000013,78.34200520000013,78.34200520000013,78.34200520000013,78.34200520000013,78.34200520000013,78.34200520000013,,006,P009,2025_Feb_01_1353,ConditionRich,2021.2.3,59.93881445850787,
47.75,48.0,41,0.0,Stimuli/Blank.png,0,0,0.0,0,88,88,88,,,,,,,,,,,,,47.76089039999715,0.01089039999715169,None,79.09271269999954,79.09271269999954,79.09271269999954,79.09271269999954,79.09271269999954,79.09271269999954,79.09271269999954,79.09271269999954,79.09271269999954,79.09271269999954,,006,P009,2025_Feb_01_1353,ConditionRich,2021.2.3,59.93881445850787,
48.0,48.75,14,0.75,Stimuli/P009/sun_blaqxdebghixzyyw.jpg,0,0,0.0,0,89,89,89,,,,,,,,,,,,,48.025150999998004,0.02515099999800441,None,79.34289759999956,79.34289759999956,79.34289759999956,79.34289759999956,79.34289759999956,79.34289759999956,79.34289759999956,79.34289759999956,79.34289759999956,79.34289759999956,,006,P009,2025_Feb_01_1353,ConditionRich,2021.2.3,59.93881445850787,
48.75,49.0,41,0.0,Stimuli/Blank.png,0,0,0.0,0,90,90,90,,,,,,,,,,,,,48.7593343999979,0.00933439999789698,None,80.07689620000019,80.07689620000019,80.07689620000019,80.07689620000019,80.07689620000019,80.07689620000019,80.07689620000019,80.07689620000019,80.07689620000019,80.07689620000019,,006,P009,2025_Feb_01_1353,ConditionRich,2021.2.3,59.93881445850787,
49.0,49.75,14,0.75,Stimuli/P009/sun_blaqxdebghixzyyw.jpg,0,0,0.0,0,91,91,91,,,,,,,,,,,,,49.009955999998056,0.009955999998055631,None,80.32709950000208,80.32709950000208,80.32709950000208,80.32709950000208,80.32709950000208,80.32709950000208,80.32709950000208,80.32709950000208,80.32709950000208,80.32709950000208,,006,P009,2025_Feb_01_1353,ConditionRich,2021.2.3,59.93881445850787,
49.75,50.0,41,0.0,Stimuli/Blank.png,0,0,0.0,0,92,92,92,,,,,,,,,,,,,49.76124919999711,0.011249199997109827,None,81.09447799999907,81.09447799999907,81.09447799999907,81.09447799999907,81.09447799999907,81.09447799999907,81.09447799999907,81.09447799999907,81.09447799999907,81.09447799999907,,006,P009,2025_Feb_01_1353,ConditionRich,2021.2.3,59.93881445850787,
50.0,50.75,14,0.75,Stimuli/P009/sun_blaqxdebghixzyyw.jpg,0,0,0.0,0,93,93,93,,,,,,,,,,,,,50.027086499998404,0.02708649999840418,None,81.36134519999905,81.36134519999905,81.36134519999905,81.36134519999905,81.36134519999905,81.36134519999905,81.36134519999905,81.36134519999905,81.36134519999905,81.36134519999905,,006,P009,2025_Feb_01_1353,ConditionRich,2021.2.3,59.93881445850787,
50.75,51.0,41,0.0,Stimuli/Blank.png,0,0,0.0,0,94,94,94,,,,,,,,,,,,,50.77947209999911,0.02947209999911138,None,82.11202119999871,82.11202119999871,82.11202119999871,82.11202119999871,82.11202119999871,82.11202119999871,82.11202119999871,82.11202119999871,82.11202119999871,82.11202119999871,,006,P009,2025_Feb_01_1353,ConditionRich,2021.2.3,59.93881445850787,
51.0,51.75,14,0.75,Stimuli/P009/sun_blaqxdebghixzyyw.jpg,0,0,0.0,0,95,95,95,,,,,,,,,,,,,51.02925909999976,0.02925909999976284,None,82.36364289999983,82.36364289999983,82.36364289999983,82.36364289999983,82.36364289999983,82.36364289999983,82.36364289999983,82.36364289999983,82.36364289999983,82.36364289999983,,006,P009,2025_Feb_01_1353,ConditionRich,2021.2.3,59.93881445850787,
51.75,52.0,41,0.0,Stimuli/Blank.png,0,0,0.0,0,96,96,96,,,,,,,,,,,,,51.77967829999761,0.029678299997613067,None,83.11289720000059,83.11289720000059,83.11289720000059,83.11289720000059,83.11289720000059,83.11289720000059,83.11289720000059,83.11289720000059,83.11289720000059,83.11289720000059,,006,P009,2025_Feb_01_1353,ConditionRich,2021.2.3,59.93881445850787,
52.0,52.75,18,0.75,Stimuli/P009/sun_bwjdahsxcqepqqbm.jpg,0,0,0.0,0,97,97,97,,,,,,,,,,,,,52.0286715000002,0.028671500000200467,None,83.36311260000002,83.36311260000002,83.36311260000002,83.36311260000002,83.36311260000002,83.36311260000002,83.36311260000002,83.36311260000002,83.36311260000002,83.36311260000002,,006,P009,2025_Feb_01_1353,ConditionRich,2021.2.3,59.93881445850787,
52.75,53.0,41,0.0,Stimuli/Blank.png,0,0,0.0,0,98,98,98,,,,,,,,,,,,,52.778662599997915,0.028662599997915095,None,84.09709769999972,84.09709769999972,84.09709769999972,84.09709769999972,84.09709769999972,84.09709769999972,84.09709769999972,84.09709769999972,84.09709769999972,84.09709769999972,,006,P009,2025_Feb_01_1353,ConditionRich,2021.2.3,59.93881445850787,
53.0,53.75,18,0.75,Stimuli/P009/sun_bwjdahsxcqepqqbm.jpg,1,0,0.75,0,99,99,99,,,,,,,,,,,,,53.01455689999784,0.014556899997842265,1,84.3473339000011,84.3473339000011,84.3473339000011,84.3473339000011,84.3473339000011,84.3473339000011,84.3473339000011,85.08132349999869,84.3473339000011,84.3473339000011,0.48643710000033025,006,P009,2025_Feb_01_1353,ConditionRich,2021.2.3,59.93881445850787,
53.75,54.0,41,0.0,Stimuli/Blank.png,0,0,0.0,0,100,100,100,,,,,,,,,,,,,53.78026580000005,0.030265800000051968,None,85.09799059999932,85.09799059999932,85.09799059999932,85.09799059999932,85.09799059999932,85.09799059999932,85.09799059999932,85.09799059999932,85.09799059999932,85.09799059999932,,006,P009,2025_Feb_01_1353,ConditionRich,2021.2.3,59.93881445850787,
54.0,54.75,18,0.75,Stimuli/P009/sun_bwjdahsxcqepqqbm.jpg,0,0,0.0,0,101,101,101,,,,,,,,,,,,,54.013097399998514,0.013097399998514447,None,85.33151889999863,85.33151889999863,85.33151889999863,85.33151889999863,85.33151889999863,85.33151889999863,85.33151889999863,85.33151889999863,85.33151889999863,85.33151889999863,,006,P009,2025_Feb_01_1353,ConditionRich,2021.2.3,59.93881445850787,
54.75,55.0,41,0.0,Stimuli/Blank.png,0,0,0.0,0,102,102,102,,,,,,,,,,,,,54.7643345999968,0.014334599996800534,None,86.08218349999879,86.08218349999879,86.08218349999879,86.08218349999879,86.08218349999879,86.08218349999879,86.08218349999879,86.08218349999879,86.08218349999879,86.08218349999879,,006,P009,2025_Feb_01_1353,ConditionRich,2021.2.3,59.93881445850787,
55.0,55.75,18,0.75,Stimuli/P009/sun_bwjdahsxcqepqqbm.jpg,0,0,0.0,0,103,103,103,,,,,,,,,,,,,55.014060899997276,0.014060899997275556,None,86.33240880000085,86.33240880000085,86.33240880000085,86.33240880000085,86.33240880000085,86.33240880000085,86.33240880000085,86.33240880000085,86.33240880000085,86.33240880000085,,006,P009,2025_Feb_01_1353,ConditionRich,2021.2.3,59.93881445850787,
55.75,56.0,41,0.0,Stimuli/Blank.png,0,0,0.0,0,104,104,104,,,,,,,,,,,,,55.764865799999825,0.014865799999824958,None,87.08327890000146,87.08327890000146,87.08327890000146,87.08327890000146,87.08327890000146,87.08327890000146,87.08327890000146,87.08327890000146,87.08327890000146,87.08327890000146,,006,P009,2025_Feb_01_1353,ConditionRich,2021.2.3,59.93881445850787,
56.0,56.75,38,0.75,Stimuli/P009/things_roadsweeper_05s.jpg,0,0,0.0,0,105,105,105,,,,,,,,,,,,,56.01488479999898,0.01488479999898118,None,87.33329479999884,87.33329479999884,87.33329479999884,87.33329479999884,87.33329479999884,87.33329479999884,87.33329479999884,87.33329479999884,87.33329479999884,87.33329479999884,,006,P009,2025_Feb_01_1353,ConditionRich,2021.2.3,59.93881445850787,
56.75,57.0,41,0.0,Stimuli/Blank.png,0,0,0.0,0,106,106,106,,,,,,,,,,,,,56.76619819999905,0.01619819999905303,None,88.08395409999866,88.08395409999866,88.08395409999866,88.08395409999866,88.08395409999866,88.08395409999866,88.08395409999866,88.08395409999866,88.08395409999866,88.08395409999866,,006,P009,2025_Feb_01_1353,ConditionRich,2021.2.3,59.93881445850787,
57.0,57.75,38,0.75,Stimuli/P009/things_roadsweeper_05s.jpg,0,0,0.0,0,107,107,107,,,,,,,,,,,,,57.0000887999995,8.879999950295314e-05,None,88.33420509999996,88.33420509999996,88.33420509999996,88.33420509999996,88.33420509999996,88.33420509999996,88.33420509999996,88.33420509999996,88.33420509999996,88.33420509999996,,006,P009,2025_Feb_01_1353,ConditionRich,2021.2.3,59.93881445850787,
57.75,58.0,41,0.0,Stimuli/Blank.png,0,0,0.0,0,108,108,108,,,,,,,,,,,,,57.76694469999711,0.016944699997111456,None,89.08493989999988,89.08493989999988,89.08493989999988,89.08493989999988,89.08493989999988,89.08493989999988,89.08493989999988,89.08493989999988,89.08493989999988,89.08493989999988,,006,P009,2025_Feb_01_1353,ConditionRich,2021.2.3,59.93881445850787,
58.0,58.75,38,0.75,Stimuli/P009/things_roadsweeper_05s.jpg,0,0,0.0,0,109,109,109,,,,,,,,,,,,,57.99990339999931,-9.660000068834051e-05,None,89.31837870000163,89.31837870000163,89.31837870000163,89.31837870000163,89.31837870000163,89.31837870000163,89.31837870000163,89.31837870000163,89.31837870000163,89.31837870000163,,006,P009,2025_Feb_01_1353,ConditionRich,2021.2.3,59.93881445850787,
58.75,59.0,41,0.0,Stimuli/Blank.png,0,0,0.0,0,110,110,110,,,,,,,,,,,,,58.750688099997205,0.0006880999972054269,None,90.06904750000103,90.06904750000103,90.06904750000103,90.06904750000103,90.06904750000103,90.06904750000103,90.06904750000103,90.06904750000103,90.06904750000103,90.06904750000103,,006,P009,2025_Feb_01_1353,ConditionRich,2021.2.3,59.93881445850787,
59.0,59.75,38,0.75,Stimuli/P009/things_roadsweeper_05s.jpg,0,0,0.0,0,111,111,111,,,,,,,,,,,,,59.00096599999961,0.0009659999996074475,None,90.3192736000019,90.3192736000019,90.3192736000019,90.3192736000019,90.3192736000019,90.3192736000019,90.3192736000019,90.3192736000019,90.3192736000019,90.3192736000019,,006,P009,2025_Feb_01_1353,ConditionRich,2021.2.3,59.93881445850787,
59.75,60.0,41,0.0,Stimuli/Blank.png,0,0,0.0,0,112,112,112,,,,,,,,,,,,,59.75431380000009,0.0043138000000908505,None,91.08663180000076,91.08663180000076,91.08663180000076,91.08663180000076,91.08663180000076,91.08663180000076,91.08663180000076,91.08663180000076,91.08663180000076,91.08663180000076,,006,P009,2025_Feb_01_1353,ConditionRich,2021.2.3,59.93881445850787,
60.0,60.75,28,0.75,Stimuli/P009/things_face_05s.jpg,0,0,0.0,0,113,113,113,,,,,,,,,,,,,60.019309299997985,0.019309299997985363,None,91.33682630000112,91.33682630000112,91.33682630000112,91.33682630000112,91.33682630000112,91.33682630000112,91.33682630000112,91.33682630000112,91.33682630000112,91.33682630000112,,006,P009,2025_Feb_01_1353,ConditionRich,2021.2.3,59.93881445850787,
60.75,61.0,41,0.0,Stimuli/Blank.png,0,0,0.0,0,114,114,114,,,,,,,,,,,,,60.754386499997054,0.004386499997053761,None,92.08750879999934,92.08750879999934,92.08750879999934,92.08750879999934,92.08750879999934,92.08750879999934,92.08750879999934,92.08750879999934,92.08750879999934,92.08750879999934,,006,P009,2025_Feb_01_1353,ConditionRich,2021.2.3,59.93881445850787,
61.0,61.75,28,0.75,Stimuli/P009/things_face_05s.jpg,0,0,0.0,0,115,115,115,,,,,,,,,,,,,61.01940619999732,0.019406199997320073,None,92.33828740000172,92.33828740000172,92.33828740000172,92.33828740000172,92.33828740000172,92.33828740000172,92.33828740000172,92.33828740000172,92.33828740000172,92.33828740000172,,006,P009,2025_Feb_01_1353,ConditionRich,2021.2.3,59.93881445850787,
61.75,62.0,41,0.0,Stimuli/Blank.png,0,0,0.0,0,116,116,116,,,,,,,,,,,,,61.7550556999995,0.005055699999502394,None,93.07171400000152,93.07171400000152,93.07171400000152,93.07171400000152,93.07171400000152,93.07171400000152,93.07171400000152,93.07171400000152,93.07171400000152,93.07171400000152,,006,P009,2025_Feb_01_1353,ConditionRich,2021.2.3,59.93881445850787,
62.0,62.75,28,0.75,Stimuli/P009/things_face_05s.jpg,0,0,0.0,0,117,117,117,,,,,,,,,,,,,62.00431969999772,0.004319699997722637,None,93.32192120000036,93.32192120000036,93.32192120000036,93.32192120000036,93.32192120000036,93.32192120000036,93.32192120000036,93.32192120000036,93.32192120000036,93.32192120000036,,006,P009,2025_Feb_01_1353,ConditionRich,2021.2.3,59.93881445850787,
62.75,63.0,41,0.0,Stimuli/Blank.png,0,0,0.0,0,118,118,118,,,,,,,,,,,,,62.75434829999722,0.004348299997218419,None,94.0725835000012,94.0725835000012,94.0725835000012,94.0725835000012,94.0725835000012,94.0725835000012,94.0725835000012,94.0725835000012,94.0725835000012,94.0725835000012,,006,P009,2025_Feb_01_1353,ConditionRich,2021.2.3,59.93881445850787,
63.0,63.75,28,0.75,Stimuli/P009/things_face_05s.jpg,0,0,0.0,0,119,119,119,,,,,,,,,,,,,63.00513309999951,0.0051330999995116144,None,94.32281480000165,94.32281480000165,94.32281480000165,94.32281480000165,94.32281480000165,94.32281480000165,94.32281480000165,94.32281480000165,94.32281480000165,94.32281480000165,,006,P009,2025_Feb_01_1353,ConditionRich,2021.2.3,59.93881445850787,
63.75,64.0,41,0.0,Stimuli/Blank.png,0,0,0.0,0,120,120,120,,,,,,,,,,,,,63.75510249999934,0.005102499999338761,None,95.07347609999852,95.07347609999852,95.07347609999852,95.07347609999852,95.07347609999852,95.07347609999852,95.07347609999852,95.07347609999852,95.07347609999852,95.07347609999852,,006,P009,2025_Feb_01_1353,ConditionRich,2021.2.3,59.93881445850787,
64.0,64.75,40,0.75,Stimuli/P009/things_woman_05s.jpg,0,0,0.0,0,121,121,121,,,,,,,,,,,,,64.00600929999928,0.006009299999277573,None,95.32369380000091,95.32369380000091,95.32369380000091,95.32369380000091,95.32369380000091,95.32369380000091,95.32369380000091,95.32369380000091,95.32369380000091,95.32369380000091,,006,P009,2025_Feb_01_1353,ConditionRich,2021.2.3,59.93881445850787,
64.75,65.0,41,0.0,Stimuli/Blank.png,0,0,0.0,0,122,122,122,,,,,,,,,,,,,64.75651269999798,0.006512699997983873,None,96.07435560000158,96.07435560000158,96.07435560000158,96.07435560000158,96.07435560000158,96.07435560000158,96.07435560000158,96.07435560000158,96.07435560000158,96.07435560000158,,006,P009,2025_Feb_01_1353,ConditionRich,2021.2.3,59.93881445850787,
65.0,65.75,40,0.75,Stimuli/P009/things_woman_05s.jpg,0,0,0.0,0,123,123,123,,,,,,,,,,,,,65.00720149999688,0.007201499996881466,None,96.34128219999911,96.34128219999911,96.34128219999911,96.34128219999911,96.34128219999911,96.34128219999911,96.34128219999911,96.34128219999911,96.34128219999911,96.34128219999911,,006,P009,2025_Feb_01_1353,ConditionRich,2021.2.3,59.93881445850787,
65.75,66.0,41,0.0,Stimuli/Blank.png,0,0,0.0,0,124,124,124,,,,,,,,,,,,,65.77386899999692,0.023868999996921048,None,97.09193570000207,97.09193570000207,97.09193570000207,97.09193570000207,97.09193570000207,97.09193570000207,97.09193570000207,97.09193570000207,97.09193570000207,97.09193570000207,,006,P009,2025_Feb_01_1353,ConditionRich,2021.2.3,59.93881445850787,
66.0,66.75,40,0.75,Stimuli/P009/things_woman_05s.jpg,0,0,0.0,0,125,125,125,,,,,,,,,,,,,66.00751390000005,0.007513900000049034,None,97.34217440000066,97.34217440000066,97.34217440000066,97.34217440000066,97.34217440000066,97.34217440000066,97.34217440000066,97.34217440000066,97.34217440000066,97.34217440000066,,006,P009,2025_Feb_01_1353,ConditionRich,2021.2.3,59.93881445850787,
66.75,67.0,41,0.0,Stimuli/Blank.png,0,0,0.0,0,126,126,126,,,,,,,,,,,,,66.77443879999919,0.024438799999188632,None,98.09281900000133,98.09281900000133,98.09281900000133,98.09281900000133,98.09281900000133,98.09281900000133,98.09281900000133,98.09281900000133,98.09281900000133,98.09281900000133,,006,P009,2025_Feb_01_1353,ConditionRich,2021.2.3,59.93881445850787,
67.0,67.75,40,0.75,Stimuli/P009/things_woman_05s.jpg,0,0,0.0,0,127,127,127,,,,,,,,,,,,,67.01175329999751,0.011753299997508293,None,98.34304379999958,98.34304379999958,98.34304379999958,98.34304379999958,98.34304379999958,98.34304379999958,98.34304379999958,98.34304379999958,98.34304379999958,98.34304379999958,,006,P009,2025_Feb_01_1353,ConditionRich,2021.2.3,59.93881445850787,
67.75,68.0,41,0.0,Stimuli/Blank.png,0,0,0.0,0,128,128,128,,,,,,,,,,,,,67.77584149999893,0.025841499998932704,None,99.09368869999889,99.09368869999889,99.09368869999889,99.09368869999889,99.09368869999889,99.09368869999889,99.09368869999889,99.09368869999889,99.09368869999889,99.09368869999889,,006,P009,2025_Feb_01_1353,ConditionRich,2021.2.3,59.93881445850787,
68.0,68.75,10,0.75,Stimuli/P009/sun_bdkttewvyfdarikm.jpg,0,0,0.0,0,129,129,129,,,,,,,,,,,,,68.00908429999981,0.009084299999813084,None,99.32723360000091,99.32723360000091,99.32723360000091,99.32723360000091,99.32723360000091,99.32723360000091,99.32723360000091,99.32723360000091,99.32723360000091,99.32723360000091,,006,P009,2025_Feb_01_1353,ConditionRich,2021.2.3,59.93881445850787,
68.75,69.0,41,0.0,Stimuli/Blank.png,0,0,0.0,0,130,130,130,,,,,,,,,,,,,68.76041799999803,0.010417999998026062,None,100.09460580000086,100.09460580000086,100.09460580000086,100.09460580000086,100.09460580000086,100.09460580000086,100.09460580000086,100.09460580000086,100.09460580000086,100.09460580000086,,006,P009,2025_Feb_01_1353,ConditionRich,2021.2.3,59.93881445850787,
69.0,69.75,10,0.75,Stimuli/P009/sun_bdkttewvyfdarikm.jpg,0,0,0.0,0,131,131,131,,,,,,,,,,,,,69.02706869999747,0.027068699997471413,None,100.36149790000127,100.36149790000127,100.36149790000127,100.36149790000127,100.36149790000127,100.36149790000127,100.36149790000127,100.36149790000127,100.36149790000127,100.36149790000127,,006,P009,2025_Feb_01_1353,ConditionRich,2021.2.3,59.93881445850787,
69.75,70.0,41,0.0,Stimuli/Blank.png,0,0,0.0,0,132,132,132,,,,,,,,,,,,,69.77775349999865,0.027753499998652842,None,101.0954770999997,101.0954770999997,101.0954770999997,101.0954770999997,101.0954770999997,101.0954770999997,101.0954770999997,101.0954770999997,101.0954770999997,101.0954770999997,,006,P009,2025_Feb_01_1353,ConditionRich,2021.2.3,59.93881445850787,
70.0,70.75,10,0.75,Stimuli/P009/sun_bdkttewvyfdarikm.jpg,0,0,0.0,0,133,133,133,,,,,,,,,,,,,70.0105627999983,0.010562799998297123,None,101.32900270000027,101.32900270000027,101.32900270000027,101.32900270000027,101.32900270000027,101.32900270000027,101.32900270000027,101.32900270000027,101.32900270000027,101.32900270000027,,006,P009,2025_Feb_01_1353,ConditionRich,2021.2.3,59.93881445850787,
70.75,71.0,41,0.0,Stimuli/Blank.png,0,0,0.0,0,134,134,134,,,,,,,,,,,,,70.76218199999857,0.01218199999857461,None,102.07976319999943,102.07976319999943,102.07976319999943,102.07976319999943,102.07976319999943,102.07976319999943,102.07976319999943,102.07976319999943,102.07976319999943,102.07976319999943,,006,P009,2025_Feb_01_1353,ConditionRich,2021.2.3,59.93881445850787,
71.0,71.75,10,0.75,Stimuli/P009/sun_bdkttewvyfdarikm.jpg,0,0,0.0,0,135,135,135,,,,,,,,,,,,,71.01330649999727,0.013306499997270294,None,102.3298872000014,102.3298872000014,102.3298872000014,102.3298872000014,102.3298872000014,102.3298872000014,102.3298872000014,102.3298872000014,102.3298872000014,102.3298872000014,,006,P009,2025_Feb_01_1353,ConditionRich,2021.2.3,59.93881445850787,
71.75,72.0,41,0.0,Stimuli/Blank.png,0,0,0.0,0,136,136,136,,,,,,,,,,,,,71.76487069999712,0.014870699997118209,None,103.09724089999872,103.09724089999872,103.09724089999872,103.09724089999872,103.09724089999872,103.09724089999872,103.09724089999872,103.09724089999872,103.09724089999872,103.09724089999872,,006,P009,2025_Feb_01_1353,ConditionRich,2021.2.3,59.93881445850787,
72.0,72.75,25,0.75,Stimuli/P009/things_clothespin_05s.jpg,0,0,0.0,0,137,137,137,,,,,,,,,,,,,72.0296462999977,0.02964629999769386,None,103.34746390000146,103.34746390000146,103.34746390000146,103.34746390000146,103.34746390000146,103.34746390000146,103.34746390000146,103.34746390000146,103.34746390000146,103.34746390000146,,006,P009,2025_Feb_01_1353,ConditionRich,2021.2.3,59.93881445850787,
72.75,73.0,41,0.0,Stimuli/Blank.png,0,0,0.0,0,138,138,138,,,,,,,,,,,,,72.76426259999789,0.014262599997891812,None,104.08144449999963,104.08144449999963,104.08144449999963,104.08144449999963,104.08144449999963,104.08144449999963,104.08144449999963,104.08144449999963,104.08144449999963,104.08144449999963,,006,P009,2025_Feb_01_1353,ConditionRich,2021.2.3,59.93881445850787,
73.0,73.75,25,0.75,Stimuli/P009/things_clothespin_05s.jpg,0,0,0.0,0,139,139,139,,,,,,,,,,,,,73.01316739999675,0.013167399996746099,None,104.33166340000025,104.33166340000025,104.33166340000025,104.33166340000025,104.33166340000025,104.33166340000025,104.33166340000025,104.33166340000025,104.33166340000025,104.33166340000025,,006,P009,2025_Feb_01_1353,ConditionRich,2021.2.3,59.93881445850787,
73.75,74.0,41,0.0,Stimuli/Blank.png,0,0,0.0,0,140,140,140,,,,,,,,,,,,,73.7657822000001,0.01578220000010333,None,105.08232019999923,105.08232019999923,105.08232019999923,105.08232019999923,105.08232019999923,105.08232019999923,105.08232019999923,105.08232019999923,105.08232019999923,105.08232019999923,,006,P009,2025_Feb_01_1353,ConditionRich,2021.2.3,59.93881445850787,
74.0,74.75,25,0.75,Stimuli/P009/things_clothespin_05s.jpg,0,0,0.0,0,141,141,141,,,,,,,,,,,,,73.99830659999861,-0.0016934000013861805,None,105.3326492999986,105.3326492999986,105.3326492999986,105.3326492999986,105.3326492999986,105.3326492999986,105.3326492999986,105.3326492999986,105.3326492999986,105.3326492999986,,006,P009,2025_Feb_01_1353,ConditionRich,2021.2.3,59.93881445850787,
74.75,75.0,41,0.0,Stimuli/Blank.png,0,0,0.0,0,142,142,142,,,,,,,,,,,,,74.78202979999696,0.03202979999696254,None,106.09997510000176,106.09997510000176,106.09997510000176,106.09997510000176,106.09997510000176,106.09997510000176,106.09997510000176,106.09997510000176,106.09997510000176,106.09997510000176,,006,P009,2025_Feb_01_1353,ConditionRich,2021.2.3,59.93881445850787,
75.0,75.75,25,0.75,Stimuli/P009/things_clothespin_05s.jpg,0,0,0.0,0,143,143,143,,,,,,,,,,,,,75.01491489999898,0.014914899998984765,None,106.33341970000038,106.33341970000038,106.33341970000038,106.33341970000038,106.33341970000038,106.33341970000038,106.33341970000038,106.33341970000038,106.33341970000038,106.33341970000038,,006,P009,2025_Feb_01_1353,ConditionRich,2021.2.3,59.93881445850787,
75.75,76.0,41,0.0,Stimuli/Blank.png,0,0,0.0,0,144,144,144,,,,,,,,,,,,,75.76640359999874,0.016403599998739082,None,107.08417380000174,107.08417380000174,107.08417380000174,107.08417380000174,107.08417380000174,107.08417380000174,107.08417380000174,107.08417380000174,107.08417380000174,107.08417380000174,,006,P009,2025_Feb_01_1353,ConditionRich,2021.2.3,59.93881445850787,
76.0,76.75,4,0.75,Stimuli/P009/sun_afkzdukwewwzqtmr.jpg,0,0,0.0,0,145,145,145,,,,,,,,,,,,,75.99925019999864,-0.0007498000013583805,None,107.31763520000095,107.31763520000095,107.31763520000095,107.31763520000095,107.31763520000095,107.31763520000095,107.31763520000095,107.31763520000095,107.31763520000095,107.31763520000095,,006,P009,2025_Feb_01_1353,ConditionRich,2021.2.3,59.93881445850787,
76.75,77.0,41,0.0,Stimuli/Blank.png,0,0,0.0,0,146,146,146,,,,,,,,,,,,,76.74997099999746,-2.9000002541579306e-05,None,108.06830479999917,108.06830479999917,108.06830479999917,108.06830479999917,108.06830479999917,108.06830479999917,108.06830479999917,108.06830479999917,108.06830479999917,108.06830479999917,,006,P009,2025_Feb_01_1353,ConditionRich,2021.2.3,59.93881445850787,
77.0,77.75,4,0.75,Stimuli/P009/sun_afkzdukwewwzqtmr.jpg,0,0,0.0,0,147,147,147,,,,,,,,,,,,,77.00078909999866,0.000789099998655729,None,108.33517669999856,108.33517669999856,108.33517669999856,108.33517669999856,108.33517669999856,108.33517669999856,108.33517669999856,108.33517669999856,108.33517669999856,108.33517669999856,,006,P009,2025_Feb_01_1353,ConditionRich,2021.2.3,59.93881445850787,
77.75,78.0,41,0.0,Stimuli/Blank.png,0,0,0.0,0,148,148,148,,,,,,,,,,,,,77.76950089999809,0.01950089999809279,None,109.10256949999894,109.10256949999894,109.10256949999894,109.10256949999894,109.10256949999894,109.10256949999894,109.10256949999894,109.10256949999894,109.10256949999894,109.10256949999894,,006,P009,2025_Feb_01_1353,ConditionRich,2021.2.3,59.93881445850787,
78.0,78.75,4,0.75,Stimuli/P009/sun_afkzdukwewwzqtmr.jpg,0,0,0.0,0,149,149,149,,,,,,,,,,,,,78.01963989999786,0.019639899997855537,None,109.35278520000065,109.35278520000065,109.35278520000065,109.35278520000065,109.35278520000065,109.35278520000065,109.35278520000065,109.35278520000065,109.35278520000065,109.35278520000065,,006,P009,2025_Feb_01_1353,ConditionRich,2021.2.3,59.93881445850787,
78.75,79.0,41,0.0,Stimuli/Blank.png,0,0,0.0,0,150,150,150,,,,,,,,,,,,,78.76940130000003,0.019401300000026822,None,110.08674990000145,110.08674990000145,110.08674990000145,110.08674990000145,110.08674990000145,110.08674990000145,110.08674990000145,110.08674990000145,110.08674990000145,110.08674990000145,,006,P009,2025_Feb_01_1353,ConditionRich,2021.2.3,59.93881445850787,
79.0,79.75,4,0.75,Stimuli/P009/sun_afkzdukwewwzqtmr.jpg,1,0,0.75,0,151,151,151,,,,,,,,,,,,,79.00180379999802,0.0018037999980151653,1,110.33698989999903,110.33698989999903,110.33698989999903,110.33698989999903,110.33698989999903,110.33698989999903,110.33698989999903,111.0543347999992,110.33698989999903,110.33698989999903,0.45069130000047153,006,P009,2025_Feb_01_1353,ConditionRich,2021.2.3,59.93881445850787,
79.75,80.0,41,0.0,Stimuli/Blank.png,0,0,0.0,0,152,152,152,,,,,,,,,,,,,79.76932019999731,0.019320199997309828,None,111.08763739999995,111.08763739999995,111.08763739999995,111.08763739999995,111.08763739999995,111.08763739999995,111.08763739999995,111.08763739999995,111.08763739999995,111.08763739999995,,006,P009,2025_Feb_01_1353,ConditionRich,2021.2.3,59.93881445850787,
80.0,80.75,9,0.75,Stimuli/P009/sun_bdjkvwqqqycuixtc.jpg,0,0,0.0,0,153,153,153,,,,,,,,,,,,,80.00394450000022,0.003944500000216067,None,111.33791460000066,111.33791460000066,111.33791460000066,111.33791460000066,111.33791460000066,111.33791460000066,111.33791460000066,111.33791460000066,111.33791460000066,111.33791460000066,,006,P009,2025_Feb_01_1353,ConditionRich,2021.2.3,59.93881445850787,
80.75,81.0,41,0.0,Stimuli/Blank.png,0,0,0.0,0,154,154,154,,,,,,,,,,,,,80.77017469999919,0.020174699999188306,None,112.08851940000022,112.08851940000022,112.08851940000022,112.08851940000022,112.08851940000022,112.08851940000022,112.08851940000022,112.08851940000022,112.08851940000022,112.08851940000022,,006,P009,2025_Feb_01_1353,ConditionRich,2021.2.3,59.93881445850787,
81.0,81.75,9,0.75,Stimuli/P009/sun_bdjkvwqqqycuixtc.jpg,0,0,0.0,0,155,155,155,,,,,,,,,,,,,81.00427169999966,0.004271699999662815,None,112.32205710000198,112.32205710000198,112.32205710000198,112.32205710000198,112.32205710000198,112.32205710000198,112.32205710000198,112.32205710000198,112.32205710000198,112.32205710000198,,006,P009,2025_Feb_01_1353,ConditionRich,2021.2.3,59.93881445850787,
81.75,82.0,41,0.0,Stimuli/Blank.png,0,0,0.0,0,156,156,156,,,,,,,,,,,,,81.75509099999908,0.005090999999083579,None,113.07273200000054,113.07273200000054,113.07273200000054,113.07273200000054,113.07273200000054,113.07273200000054,113.07273200000054,113.07273200000054,113.07273200000054,113.07273200000054,,006,P009,2025_Feb_01_1353,ConditionRich,2021.2.3,59.93881445850787,
82.0,82.75,9,0.75,Stimuli/P009/sun_bdjkvwqqqycuixtc.jpg,0,0,0.0,0,157,157,157,,,,,,,,,,,,,82.00475290000031,0.004752900000312366,None,113.32294739999998,113.32294739999998,113.32294739999998,113.32294739999998,113.32294739999998,113.32294739999998,113.32294739999998,113.32294739999998,113.32294739999998,113.32294739999998,,006,P009,2025_Feb_01_1353,ConditionRich,2021.2.3,59.93881445850787,
82.75,83.0,41,0.0,Stimuli/Blank.png,0,0,0.0,0,158,158,158,,,,,,,,,,,,,82.75546499999837,0.005464999998366693,None,114.07361560000209,114.07361560000209,114.07361560000209,114.07361560000209,114.07361560000209,114.07361560000209,114.07361560000209,114.07361560000209,114.07361560000209,114.07361560000209,,006,P009,2025_Feb_01_1353,ConditionRich,2021.2.3,59.93881445850787,
83.0,83.75,9,0.75,Stimuli/P009/sun_bdjkvwqqqycuixtc.jpg,0,0,0.0,0,159,159,159,,,,,,,,,,,,,83.005370699997,0.005370699997001793,None,114.32382409999991,114.32382409999991,114.32382409999991,114.32382409999991,114.32382409999991,114.32382409999991,114.32382409999991,114.32382409999991,114.32382409999991,114.32382409999991,,006,P009,2025_Feb_01_1353,ConditionRich,2021.2.3,59.93881445850787,
83.75,84.0,41,0.0,Stimuli/Blank.png,0,0,0.0,0,160,160,160,,,,,,,,,,,,,83.75614349999887,0.0061434999988705385,None,115.07449730000008,115.07449730000008,115.07449730000008,115.07449730000008,115.07449730000008,115.07449730000008,115.07449730000008,115.07449730000008,115.07449730000008,115.07449730000008,,006,P009,2025_Feb_01_1353,ConditionRich,2021.2.3,59.93881445850787,
84.0,100.0,0,0.0,Stimuli/Blank.png,1,10,10.75,0,161,161,161,,,,,,,,,,,,,84.00651949999883,0.0065194999988307245,1,115.32472860000053,115.32472860000053,115.32472860000053,115.32472860000053,115.32472860000053,115.32472860000053,125.31689990000086,126.05091059999904,115.32472860000053,115.32472860000053,10.389997400001448,006,P009,2025_Feb_01_1353,ConditionRich,2021.2.3,59.93881445850787,
100.0,100.75,27,0.75,Stimuli/P009/things_curling_iron_05s.jpg,0,0,0.0,0,162,162,162,,,,,,,,,,,,,100.00410629999897,0.0041062999989662785,None,131.3222023999988,131.3222023999988,131.3222023999988,131.3222023999988,131.3222023999988,131.3222023999988,131.3222023999988,131.3222023999988,131.3222023999988,131.3222023999988,,006,P009,2025_Feb_01_1353,ConditionRich,2021.2.3,59.93881445850787,
100.75,101.0,41,0.0,Stimuli/Blank.png,0,0,0.0,0,163,163,163,,,,,,,,,,,,,100.75542769999811,0.005427699998108437,None,132.0728780999998,132.0728780999998,132.0728780999998,132.0728780999998,132.0728780999998,132.0728780999998,132.0728780999998,132.0728780999998,132.0728780999998,132.0728780999998,,006,P009,2025_Feb_01_1353,ConditionRich,2021.2.3,59.93881445850787,
101.0,101.75,27,0.75,Stimuli/P009/things_curling_iron_05s.jpg,0,0,0.0,0,164,164,164,,,,,,,,,,,,,101.00497170000017,0.004971700000169221,None,132.323079400001,132.323079400001,132.323079400001,132.323079400001,132.323079400001,132.323079400001,132.323079400001,132.323079400001,132.323079400001,132.323079400001,,006,P009,2025_Feb_01_1353,ConditionRich,2021.2.3,59.93881445850787,
101.75,102.0,41,0.0,Stimuli/Blank.png,0,0,0.0,0,165,165,165,,,,,,,,,,,,,101.75621479999973,0.006214799999725074,None,133.0737517000016,133.0737517000016,133.0737517000016,133.0737517000016,133.0737517000016,133.0737517000016,133.0737517000016,133.0737517000016,133.0737517000016,133.0737517000016,,006,P009,2025_Feb_01_1353,ConditionRich,2021.2.3,59.93881445850787,
102.0,102.75,27,0.75,Stimuli/P009/things_curling_iron_05s.jpg,0,0,0.0,0,166,166,166,,,,,,,,,,,,,102.00628320000033,0.006283200000325451,None,133.32410420000087,133.32410420000087,133.32410420000087,133.32410420000087,133.32410420000087,133.32410420000087,133.32410420000087,133.32410420000087,133.32410420000087,133.32410420000087,,006,P009,2025_Feb_01_1353,ConditionRich,2021.2.3,59.93881445850787,
102.75,103.0,41,0.0,Stimuli/Blank.png,0,0,0.0,0,167,167,167,,,,,,,,,,,,,102.75632419999965,0.0063241999996535014,None,134.07463899999857,134.07463899999857,134.07463899999857,134.07463899999857,134.07463899999857,134.07463899999857,134.07463899999857,134.07463899999857,134.07463899999857,134.07463899999857,,006,P009,2025_Feb_01_1353,ConditionRich,2021.2.3,59.93881445850787,
103.0,103.75,27,0.75,Stimuli/P009/things_curling_iron_05s.jpg,0,0,0.0,0,168,168,168,,,,,,,,,,,,,103.00745069999903,0.007450699999026256,None,134.32484449999902,134.32484449999902,134.32484449999902,134.32484449999902,134.32484449999902,134.32484449999902,134.32484449999902,134.32484449999902,134.32484449999902,134.32484449999902,,006,P009,2025_Feb_01_1353,ConditionRich,2021.2.3,59.93881445850787,
103.75,104.0,41,0.0,Stimuli/Blank.png,0,0,0.0,0,169,169,169,,,,,,,,,,,,,103.75780339999983,0.007803399999829708,None,135.07554199999868,135.07554199999868,135.07554199999868,135.07554199999868,135.07554199999868,135.07554199999868,135.07554199999868,135.07554199999868,135.07554199999868,135.07554199999868,,006,P009,2025_Feb_01_1353,ConditionRich,2021.2.3,59.93881445850787,
104.0,104.75,35,0.75,Stimuli/P009/things_mushroom_05n.jpg,0,0,0.0,0,170,170,170,,,,,,,,,,,,,104.00724949999858,0.007249499998579267,None,135.34244319999925,135.34244319999925,135.34244319999925,135.34244319999925,135.34244319999925,135.34244319999925,135.34244319999925,135.34244319999925,135.34244319999925,135.34244319999925,,006,P009,2025_Feb_01_1353,ConditionRich,2021.2.3,59.93881445850787,
104.75,105.0,41,0.0,Stimuli/Blank.png,0,0,0.0,0,171,171,171,,,,,,,,,,,,,104.77539809999871,0.025398099998710677,None,136.09310330000153,136.09310330000153,136.09310330000153,136.09310330000153,136.09310330000153,136.09310330000153,136.09310330000153,136.09310330000153,136.09310330000153,136.09310330000153,,006,P009,2025_Feb_01_1353,ConditionRich,2021.2.3,59.93881445850787,
105.0,105.75,35,0.75,Stimuli/P009/things_mushroom_05n.jpg,0,0,0.0,0,172,172,172,,,,,,,,,,,,,105.00885539999945,0.0088553999994474,None,136.3433116999986,136.3433116999986,136.3433116999986,136.3433116999986,136.3433116999986,136.3433116999986,136.3433116999986,136.3433116999986,136.3433116999986,136.3433116999986,,006,P009,2025_Feb_01_1353,ConditionRich,2021.2.3,59.93881445850787,
105.75,106.0,41,0.0,Stimuli/Blank.png,0,0,0.0,0,173,173,173,,,,,,,,,,,,,105.7758318999986,0.025831899998593144,None,137.09397779999927,137.09397779999927,137.09397779999927,137.09397779999927,137.09397779999927,137.09397779999927,137.09397779999927,137.09397779999927,137.09397779999927,137.09397779999927,,006,P009,2025_Feb_01_1353,ConditionRich,2021.2.3,59.93881445850787,
106.0,106.75,35,0.75,Stimuli/P009/things_mushroom_05n.jpg,0,0,0.0,0,174,174,174,,,,,,,,,,,,,106.00927899999806,0.00927899999805959,None,137.32753339999908,137.32753339999908,137.32753339999908,137.32753339999908,137.32753339999908,137.32753339999908,137.32753339999908,137.32753339999908,137.32753339999908,137.32753339999908,,006,P009,2025_Feb_01_1353,ConditionRich,2021.2.3,59.93881445850787,
106.75,107.0,41,0.0,Stimuli/Blank.png,0,0,0.0,0,175,175,175,,,,,,,,,,,,,106.76052709999931,0.01052709999930812,None,138.07817559999967,138.07817559999967,138.07817559999967,138.07817559999967,138.07817559999967,138.07817559999967,138.07817559999967,138.07817559999967,138.07817559999967,138.07817559999967,,006,P009,2025_Feb_01_1353,ConditionRich,2021.2.3,59.93881445850787,
107.0,107.75,35,0.75,Stimuli/P009/things_mushroom_05n.jpg,0,0,0.0,0,176,176,176,,,,,,,,,,,,,107.01072419999764,0.010724199997639516,None,138.34512240000186,138.34512240000186,138.34512240000186,138.34512240000186,138.34512240000186,138.34512240000186,138.34512240000186,138.34512240000186,138.34512240000186,138.34512240000186,,006,P009,2025_Feb_01_1353,ConditionRich,2021.2.3,59.93881445850787,
107.75,108.0,41,0.0,Stimuli/Blank.png,0,0,0.0,0,177,177,177,,,,,,,,,,,,,107.77967809999973,0.029678099999728147,None,139.11243860000104,139.11243860000104,139.11243860000104,139.11243860000104,139.11243860000104,139.11243860000104,139.11243860000104,139.11243860000104,139.11243860000104,139.11243860000104,,006,P009,2025_Feb_01_1353,ConditionRich,2021.2.3,59.93881445850787,
108.0,108.75,20,0.75,Stimuli/P009/sun_ddsiwinthvyejghq.jpg,0,0,0.0,0,178,178,178,,,,,,,,,,,,,108.02826459999778,0.02826459999778308,None,139.34597170000052,139.34597170000052,139.34597170000052,139.34597170000052,139.34597170000052,139.34597170000052,139.34597170000052,139.34597170000052,139.34597170000052,139.34597170000052,,006,P009,2025_Feb_01_1353,ConditionRich,2021.2.3,59.93881445850787,
108.75,109.0,41,0.0,Stimuli/Blank.png,0,0,0.0,0,179,179,179,,,,,,,,,,,,,108.76212010000017,0.012120100000174716,None,140.08001890000014,140.08001890000014,140.08001890000014,140.08001890000014,140.08001890000014,140.08001890000014,140.08001890000014,140.08001890000014,140.08001890000014,140.08001890000014,,006,P009,2025_Feb_01_1353,ConditionRich,2021.2.3,59.93881445850787,
109.0,109.75,20,0.75,Stimuli/P009/sun_ddsiwinthvyejghq.jpg,0,0,0.0,0,180,180,180,,,,,,,,,,,,,109.01271659999838,0.012716599998384481,None,140.34685220000028,140.34685220000028,140.34685220000028,140.34685220000028,140.34685220000028,140.34685220000028,140.34685220000028,140.34685220000028,140.34685220000028,140.34685220000028,,006,P009,2025_Feb_01_1353,ConditionRich,2021.2.3,59.93881445850787,
109.75,110.0,41,0.0,Stimuli/Blank.png,0,0,0.0,0,181,181,181,,,,,,,,,,,,,109.77977109999847,0.029771099998470163,None,141.09752130000197,141.09752130000197,141.09752130000197,141.09752130000197,141.09752130000197,141.09752130000197,141.09752130000197,141.09752130000197,141.09752130000197,141.09752130000197,,006,P009,2025_Feb_01_1353,ConditionRich,2021.2.3,59.93881445850787,
110.0,110.75,20,0.75,Stimuli/P009/sun_ddsiwinthvyejghq.jpg,0,0,0.0,0,182,182,182,,,,,,,,,,,,,110.01377499999944,0.013774999999441206,None,141.33105449999857,141.33105449999857,141.33105449999857,141.33105449999857,141.33105449999857,141.33105449999857,141.33105449999857,141.33105449999857,141.33105449999857,141.33105449999857,,006,P009,2025_Feb_01_1353,ConditionRich,2021.2.3,59.93881445850787,
110.75,111.0,41,0.0,Stimuli/Blank.png,0,0,0.0,0,183,183,183,,,,,,,,,,,,,110.7643571999979,0.01435719999790308,None,142.08170999999857,142.08170999999857,142.08170999999857,142.08170999999857,142.08170999999857,142.08170999999857,142.08170999999857,142.08170999999857,142.08170999999857,142.08170999999857,,006,P009,2025_Feb_01_1353,ConditionRich,2021.2.3,59.93881445850787,
111.0,111.75,20,0.75,Stimuli/P009/sun_ddsiwinthvyejghq.jpg,0,0,0.0,0,184,184,184,,,,,,,,,,,,,111.0142624,0.014262400000006892,None,142.34862639999847,142.34862639999847,142.34862639999847,142.34862639999847,142.34862639999847,142.34862639999847,142.34862639999847,142.34862639999847,142.34862639999847,142.34862639999847,,006,P009,2025_Feb_01_1353,ConditionRich,2021.2.3,59.93881445850787,
111.75,112.0,41,0.0,Stimuli/Blank.png,0,0,0.0,0,185,185,185,,,,,,,,,,,,,111.78093859999717,0.030938599997170968,None,143.0992815999998,143.0992815999998,143.0992815999998,143.0992815999998,143.0992815999998,143.0992815999998,143.0992815999998,143.0992815999998,143.0992815999998,143.0992815999998,,006,P009,2025_Feb_01_1353,ConditionRich,2021.2.3,59.93881445850787,
112.0,112.75,22,0.75,Stimuli/P009/things_butterfly_05s.jpg,0,0,0.0,0,186,186,186,,,,,,,,,,,,,112.01585960000011,0.01585960000011255,None,143.34950450000179,143.34950450000179,143.34950450000179,143.34950450000179,143.34950450000179,143.34950450000179,143.34950450000179,143.34950450000179,143.34950450000179,143.34950450000179,,006,P009,2025_Feb_01_1353,ConditionRich,2021.2.3,59.93881445850787,
112.75,113.0,41,0.0,Stimuli/Blank.png,0,0,0.0,0,187,187,187,,,,,,,,,,,,,112.76528329999928,0.015283299999282463,None,144.08344990000114,144.08344990000114,144.08344990000114,144.08344990000114,144.08344990000114,144.08344990000114,144.08344990000114,144.08344990000114,144.08344990000114,144.08344990000114,,006,P009,2025_Feb_01_1353,ConditionRich,2021.2.3,59.93881445850787,
113.0,113.75,22,0.75,Stimuli/P009/things_butterfly_05s.jpg,0,0,0.0,0,188,188,188,,,,,,,,,,,,,113.0157616999968,0.015761699996801326,None,144.33370389999982,144.33370389999982,144.33370389999982,144.33370389999982,144.33370389999982,144.33370389999982,144.33370389999982,144.33370389999982,144.33370389999982,144.33370389999982,,006,P009,2025_Feb_01_1353,ConditionRich,2021.2.3,59.93881445850787,
113.75,114.0,41,0.0,Stimuli/Blank.png,0,0,0.0,0,189,189,189,,,,,,,,,,,,,113.74990889999754,-9.110000246437266e-05,None,145.06769039999926,145.06769039999926,145.06769039999926,145.06769039999926,145.06769039999926,145.06769039999926,145.06769039999926,145.06769039999926,145.06769039999926,145.06769039999926,,006,P009,2025_Feb_01_1353,ConditionRich,2021.2.3,59.93881445850787,
114.0,114.75,22,0.75,Stimuli/P009/things_butterfly_05s.jpg,0,0,0.0,0,190,190,190,,,,,,,,,,,,,114.00020269999732,0.0002026999973168131,None,145.3179119999986,145.3179119999986,145.3179119999986,145.3179119999986,145.3179119999986,145.3179119999986,145.3179119999986,145.3179119999986,145.3179119999986,145.3179119999986,,006,P009,2025_Feb_01_1353,ConditionRich,2021.2.3,59.93881445850787,
114.75,115.0,41,0.0,Stimuli/Blank.png,0,0,0.0,0,191,191,191,,,,,,,,,,,,,114.75092629999926,0.0009262999992643017,None,146.06858769999963,146.06858769999963,146.06858769999963,146.06858769999963,146.06858769999963,146.06858769999963,146.06858769999963,146.06858769999963,146.06858769999963,146.06858769999963,,006,P009,2025_Feb_01_1353,ConditionRich,2021.2.3,59.93881445850787,
115.0,115.75,22,0.75,Stimuli/P009/things_butterfly_05s.jpg,0,0,0.0,0,192,192,192,,,,,,,,,,,,,115.00092959999893,0.0009295999989262782,None,146.31879710000067,146.31879710000067,146.31879710000067,146.31879710000067,146.31879710000067,146.31879710000067,146.31879710000067,146.31879710000067,146.31879710000067,146.31879710000067,,006,P009,2025_Feb_01_1353,ConditionRich,2021.2.3,59.93881445850787,
115.75,116.0,41,0.0,Stimuli/Blank.png,0,0,0.0,0,193,193,193,,,,,,,,,,,,,115.75229989999934,0.0022998999993433245,None,147.0695409,147.0695409,147.0695409,147.0695409,147.0695409,147.0695409,147.0695409,147.0695409,147.0695409,147.0695409,,006,P009,2025_Feb_01_1353,ConditionRich,2021.2.3,59.93881445850787,
116.0,116.75,37,0.75,Stimuli/P009/things_pug_05s.jpg,0,0,0.0,0,194,194,194,,,,,,,,,,,,,116.00135089999822,0.0013508999982150272,None,147.31968300000153,147.31968300000153,147.31968300000153,147.31968300000153,147.31968300000153,147.31968300000153,147.31968300000153,147.31968300000153,147.31968300000153,147.31968300000153,,006,P009,2025_Feb_01_1353,ConditionRich,2021.2.3,59.93881445850787,
116.75,117.0,41,0.0,Stimuli/Blank.png,0,0,0.0,0,195,195,195,,,,,,,,,,,,,116.75451979999707,0.00451979999706964,None,148.08703009999954,148.08703009999954,148.08703009999954,148.08703009999954,148.08703009999954,148.08703009999954,148.08703009999954,148.08703009999954,148.08703009999954,148.08703009999954,,006,P009,2025_Feb_01_1353,ConditionRich,2021.2.3,59.93881445850787,
117.0,117.75,37,0.75,Stimuli/P009/things_pug_05s.jpg,0,0,0.0,0,196,196,196,,,,,,,,,,,,,117.01943769999707,0.019437699997070013,None,148.3539353999986,148.3539353999986,148.3539353999986,148.3539353999986,148.3539353999986,148.3539353999986,148.3539353999986,148.3539353999986,148.3539353999986,148.3539353999986,,006,P009,2025_Feb_01_1353,ConditionRich,2021.2.3,59.93881445850787,
117.75,118.0,41,0.0,Stimuli/Blank.png,0,0,0.0,0,197,197,197,,,,,,,,,,,,,117.77095179999742,0.020951799997419585,None,149.10462180000104,149.10462180000104,149.10462180000104,149.10462180000104,149.10462180000104,149.10462180000104,149.10462180000104,149.10462180000104,149.10462180000104,149.10462180000104,,006,P009,2025_Feb_01_1353,ConditionRich,2021.2.3,59.93881445850787,
118.0,118.75,37,0.75,Stimuli/P009/things_pug_05s.jpg,0,0,0.0,0,198,198,198,,,,,,,,,,,,,118.0202778999992,0.0202778999992006,None,149.33812709999984,149.33812709999984,149.33812709999984,149.33812709999984,149.33812709999984,149.33812709999984,149.33812709999984,149.33812709999984,149.33812709999984,149.33812709999984,,006,P009,2025_Feb_01_1353,ConditionRich,2021.2.3,59.93881445850787,
118.75,119.0,41,0.0,Stimuli/Blank.png,0,0,0.0,0,199,199,199,,,,,,,,,,,,,118.75596119999682,0.005961199996818323,None,150.0888061000005,150.0888061000005,150.0888061000005,150.0888061000005,150.0888061000005,150.0888061000005,150.0888061000005,150.0888061000005,150.0888061000005,150.0888061000005,,006,P009,2025_Feb_01_1353,ConditionRich,2021.2.3,59.93881445850787,
119.0,119.75,37,0.75,Stimuli/P009/things_pug_05s.jpg,0,0,0.0,0,200,200,200,,,,,,,,,,,,,119.02053319999686,0.020533199996862095,None,150.3390275999991,150.3390275999991,150.3390275999991,150.3390275999991,150.3390275999991,150.3390275999991,150.3390275999991,150.3390275999991,150.3390275999991,150.3390275999991,,006,P009,2025_Feb_01_1353,ConditionRich,2021.2.3,59.93881445850787,
119.75,120.0,41,0.0,Stimuli/Blank.png,0,0,0.0,0,201,201,201,,,,,,,,,,,,,119.75600539999868,0.006005399998684879,None,151.08970590000172,151.08970590000172,151.08970590000172,151.08970590000172,151.08970590000172,151.08970590000172,151.08970590000172,151.08970590000172,151.08970590000172,151.08970590000172,,006,P009,2025_Feb_01_1353,ConditionRich,2021.2.3,59.93881445850787,
120.0,120.75,5,0.75,Stimuli/P009/sun_akqvdmuauoxeafrj.jpg,0,0,0.0,0,202,202,202,,,,,,,,,,,,,120.02237459999742,0.022374599997419864,None,151.3565927999989,151.3565927999989,151.3565927999989,151.3565927999989,151.3565927999989,151.3565927999989,151.3565927999989,151.3565927999989,151.3565927999989,151.3565927999989,,006,P009,2025_Feb_01_1353,ConditionRich,2021.2.3,59.93881445850787,
120.75,121.0,41,0.0,Stimuli/Blank.png,0,0,0.0,0,203,203,203,,,,,,,,,,,,,120.7728363999995,0.022836399999505375,None,152.09058060000098,152.09058060000098,152.09058060000098,152.09058060000098,152.09058060000098,152.09058060000098,152.09058060000098,152.09058060000098,152.09058060000098,152.09058060000098,,006,P009,2025_Feb_01_1353,ConditionRich,2021.2.3,59.93881445850787,
121.0,121.75,5,0.75,Stimuli/P009/sun_akqvdmuauoxeafrj.jpg,0,0,0.0,0,204,204,204,,,,,,,,,,,,,121.0056568,0.00565679999999702,None,152.3241049999997,152.3241049999997,152.3241049999997,152.3241049999997,152.3241049999997,152.3241049999997,152.3241049999997,152.3241049999997,152.3241049999997,152.3241049999997,,006,P009,2025_Feb_01_1353,ConditionRich,2021.2.3,59.93881445850787,
121.75,122.0,41,0.0,Stimuli/Blank.png,0,0,0.0,0,205,205,205,,,,,,,,,,,,,121.75937239999985,0.009372399999847403,None,153.09146640000108,153.09146640000108,153.09146640000108,153.09146640000108,153.09146640000108,153.09146640000108,153.09146640000108,153.09146640000108,153.09146640000108,153.09146640000108,,006,P009,2025_Feb_01_1353,ConditionRich,2021.2.3,59.93881445850787,
122.0,122.75,5,0.75,Stimuli/P009/sun_akqvdmuauoxeafrj.jpg,0,0,0.0,0,206,206,206,,,,,,,,,,,,,122.0243481999969,0.024348199996893527,None,153.35835700000098,153.35835700000098,153.35835700000098,153.35835700000098,153.35835700000098,153.35835700000098,153.35835700000098,153.35835700000098,153.35835700000098,153.35835700000098,,006,P009,2025_Feb_01_1353,ConditionRich,2021.2.3,59.93881445850787,
122.75,123.0,41,0.0,Stimuli/Blank.png,0,0,0.0,0,207,207,207,,,,,,,,,,,,,122.77414080000017,0.024140800000168383,None,154.09234189999916,154.09234189999916,154.09234189999916,154.09234189999916,154.09234189999916,154.09234189999916,154.09234189999916,154.09234189999916,154.09234189999916,154.09234189999916,,006,P009,2025_Feb_01_1353,ConditionRich,2021.2.3,59.93881445850787,
123.0,123.75,5,0.75,Stimuli/P009/sun_akqvdmuauoxeafrj.jpg,0,0,0.0,0,208,208,208,,,,,,,,,,,,,123.00995770000009,0.009957700000086334,None,154.34256280000045,154.34256280000045,154.34256280000045,154.34256280000045,154.34256280000045,154.34256280000045,154.34256280000045,154.34256280000045,154.34256280000045,154.34256280000045,,006,P009,2025_Feb_01_1353,ConditionRich,2021.2.3,59.93881445850787,
123.75,124.0,41,0.0,Stimuli/Blank.png,0,0,0.0,0,209,209,209,,,,,,,,,,,,,123.77550459999838,0.025504599998384947,None,155.09321629999977,155.09321629999977,155.09321629999977,155.09321629999977,155.09321629999977,155.09321629999977,155.09321629999977,155.09321629999977,155.09321629999977,155.09321629999977,,006,P009,2025_Feb_01_1353,ConditionRich,2021.2.3,59.93881445850787,
124.0,124.75,39,0.75,Stimuli/P009/things_tiara_05s.jpg,0,0,0.0,0,210,210,210,,,,,,,,,,,,,124.0098771999983,0.009877199998300057,None,155.34413430000131,155.34413430000131,155.34413430000131,155.34413430000131,155.34413430000131,155.34413430000131,155.34413430000131,155.34413430000131,155.34413430000131,155.34413430000131,,006,P009,2025_Feb_01_1353,ConditionRich,2021.2.3,59.93881445850787,
124.75,125.0,41,0.0,Stimuli/Blank.png,0,0,0.0,0,211,211,211,,,,,,,,,,,,,124.77589839999928,0.0258983999992779,None,156.0941109000014,156.0941109000014,156.0941109000014,156.0941109000014,156.0941109000014,156.0941109000014,156.0941109000014,156.0941109000014,156.0941109000014,156.0941109000014,,006,P009,2025_Feb_01_1353,ConditionRich,2021.2.3,59.93881445850787,
125.0,125.75,39,0.75,Stimuli/P009/things_tiara_05s.jpg,0,0,0.0,0,212,212,212,,,,,,,,,,,,,125.01039870000022,0.01039870000022347,None,156.32765590000054,156.32765590000054,156.32765590000054,156.32765590000054,156.32765590000054,156.32765590000054,156.32765590000054,156.32765590000054,156.32765590000054,156.32765590000054,,006,P009,2025_Feb_01_1353,ConditionRich,2021.2.3,59.93881445850787,
125.75,126.0,41,0.0,Stimuli/Blank.png,0,0,0.0,0,213,213,213,,,,,,,,,,,,,125.75995539999712,0.009955399997124914,None,157.07831069999884,157.07831069999884,157.07831069999884,157.07831069999884,157.07831069999884,157.07831069999884,157.07831069999884,157.07831069999884,157.07831069999884,157.07831069999884,,006,P009,2025_Feb_01_1353,ConditionRich,2021.2.3,59.93881445850787,
126.0,126.75,39,0.75,Stimuli/P009/things_tiara_05s.jpg,0,0,0.0,0,214,214,214,,,,,,,,,,,,,126.010241699998,0.01024169999800506,None,157.32853260000047,157.32853260000047,157.32853260000047,157.32853260000047,157.32853260000047,157.32853260000047,157.32853260000047,157.32853260000047,157.32853260000047,157.32853260000047,,006,P009,2025_Feb_01_1353,ConditionRich,2021.2.3,59.93881445850787,
126.75,127.0,41,0.0,Stimuli/Blank.png,0,0,0.0,0,215,215,215,,,,,,,,,,,,,126.76135429999704,0.011354299997037742,None,158.0792102000014,158.0792102000014,158.0792102000014,158.0792102000014,158.0792102000014,158.0792102000014,158.0792102000014,158.0792102000014,158.0792102000014,158.0792102000014,,006,P009,2025_Feb_01_1353,ConditionRich,2021.2.3,59.93881445850787,
127.0,127.75,39,0.75,Stimuli/P009/things_tiara_05s.jpg,0,0,0.0,0,216,216,216,,,,,,,,,,,,,127.0111309999993,0.011130999999295454,None,158.3460731999985,158.3460731999985,158.3460731999985,158.3460731999985,158.3460731999985,158.3460731999985,158.3460731999985,158.3460731999985,158.3460731999985,158.3460731999985,,006,P009,2025_Feb_01_1353,ConditionRich,2021.2.3,59.93881445850787,
127.75,128.0,41,0.0,Stimuli/Blank.png,0,0,0.0,0,217,217,217,,,,,,,,,,,,,127.7797458999994,0.029745899999397807,None,159.09677720000036,159.09677720000036,159.09677720000036,159.09677720000036,159.09677720000036,159.09677720000036,159.09677720000036,159.09677720000036,159.09677720000036,159.09677720000036,,006,P009,2025_Feb_01_1353,ConditionRich,2021.2.3,59.93881445850787,
128.0,128.75,23,0.75,Stimuli/P009/things_charger_05s.jpg,0,0,0.0,0,218,218,218,,,,,,,,,,,,,128.01184219999777,0.011842199997772695,None,159.33029840000017,159.33029840000017,159.33029840000017,159.33029840000017,159.33029840000017,159.33029840000017,159.33029840000017,159.33029840000017,159.33029840000017,159.33029840000017,,006,P009,2025_Feb_01_1353,ConditionRich,2021.2.3,59.93881445850787,
128.75,129.0,41,0.0,Stimuli/Blank.png,0,0,0.0,0,219,219,219,,,,,,,,,,,,,128.7632221999993,0.013222199999290751,None,160.08103029999984,160.08103029999984,160.08103029999984,160.08103029999984,160.08103029999984,160.08103029999984,160.08103029999984,160.08103029999984,160.08103029999984,160.08103029999984,,006,P009,2025_Feb_01_1353,ConditionRich,2021.2.3,59.93881445850787,
129.0,129.75,23,0.75,Stimuli/P009/things_charger_05s.jpg,0,0,0.0,0,220,220,220,,,,,,,,,,,,,129.01403229999778,0.014032299997779774,None,160.33171330000187,160.33171330000187,160.33171330000187,160.33171330000187,160.33171330000187,160.33171330000187,160.33171330000187,160.33171330000187,160.33171330000187,160.33171330000187,,006,P009,2025_Feb_01_1353,ConditionRich,2021.2.3,59.93881445850787,
129.75,130.0,41,0.0,Stimuli/Blank.png,0,0,0.0,0,221,221,221,,,,,,,,,,,,,129.76448829999936,0.014488299999356968,None,161.08185830000002,161.08185830000002,161.08185830000002,161.08185830000002,161.08185830000002,161.08185830000002,161.08185830000002,161.08185830000002,161.08185830000002,161.08185830000002,,006,P009,2025_Feb_01_1353,ConditionRich,2021.2.3,59.93881445850787,
130.0,130.75,23,0.75,Stimuli/P009/things_charger_05s.jpg,0,0,0.0,0,222,222,222,,,,,,,,,,,,,130.01510829999825,0.015108299998246366,None,161.3487771,161.3487771,161.3487771,161.3487771,161.3487771,161.3487771,161.3487771,161.3487771,161.3487771,161.3487771,,006,P009,2025_Feb_01_1353,ConditionRich,2021.2.3,59.93881445850787,
130.75,131.0,41,0.0,Stimuli/Blank.png,0,0,0.0,0,223,223,223,,,,,,,,,,,,,130.7657975000002,0.015797500000189757,None,162.08276200000182,162.08276200000182,162.08276200000182,162.08276200000182,162.08276200000182,162.08276200000182,162.08276200000182,162.08276200000182,162.08276200000182,162.08276200000182,,006,P009,2025_Feb_01_1353,ConditionRich,2021.2.3,59.93881445850787,
131.0,131.75,23,0.75,Stimuli/P009/things_charger_05s.jpg,0,0,0.0,0,224,224,224,,,,,,,,,,,,,130.99819569999818,-0.001804300001822412,None,162.31627930000104,162.31627930000104,162.31627930000104,162.31627930000104,162.31627930000104,162.31627930000104,162.31627930000104,162.31627930000104,162.31627930000104,162.31627930000104,,006,P009,2025_Feb_01_1353,ConditionRich,2021.2.3,59.93881445850787,
131.75,132.0,41,0.0,Stimuli/Blank.png,0,0,0.0,0,225,225,225,,,,,,,,,,,,,131.74908940000023,-0.0009105999997700565,None,163.06727700000192,163.06727700000192,163.06727700000192,163.06727700000192,163.06727700000192,163.06727700000192,163.06727700000192,163.06727700000192,163.06727700000192,163.06727700000192,,006,P009,2025_Feb_01_1353,ConditionRich,2021.2.3,59.93881445850787,
132.0,132.75,17,0.75,Stimuli/P009/sun_brkrfjpyfglmigkk.jpg,0,0,0.0,0,226,226,226,,,,,,,,,,,,,132.01553309999872,0.01553309999871999,None,163.3338532000016,163.3338532000016,163.3338532000016,163.3338532000016,163.3338532000016,163.3338532000016,163.3338532000016,163.3338532000016,163.3338532000016,163.3338532000016,,006,P009,2025_Feb_01_1353,ConditionRich,2021.2.3,59.93881445850787,
132.75,133.0,41,0.0,Stimuli/Blank.png,0,0,0.0,0,227,227,227,,,,,,,,,,,,,132.74951579999833,-0.0004842000016651582,None,164.06784340000013,164.06784340000013,164.06784340000013,164.06784340000013,164.06784340000013,164.06784340000013,164.06784340000013,164.06784340000013,164.06784340000013,164.06784340000013,,006,P009,2025_Feb_01_1353,ConditionRich,2021.2.3,59.93881445850787,
133.0,133.75,17,0.75,Stimuli/P009/sun_brkrfjpyfglmigkk.jpg,0,0,0.0,0,228,228,228,,,,,,,,,,,,,133.0002160999975,0.00021609999748761766,None,164.3180468999999,164.3180468999999,164.3180468999999,164.3180468999999,164.3180468999999,164.3180468999999,164.3180468999999,164.3180468999999,164.3180468999999,164.3180468999999,,006,P009,2025_Feb_01_1353,ConditionRich,2021.2.3,59.93881445850787,
133.75,134.0,41,0.0,Stimuli/Blank.png,0,0,0.0,0,229,229,229,,,,,,,,,,,,,133.7513911999995,0.0013911999994888902,None,165.06871030000184,165.06871030000184,165.06871030000184,165.06871030000184,165.06871030000184,165.06871030000184,165.06871030000184,165.06871030000184,165.06871030000184,165.06871030000184,,006,P009,2025_Feb_01_1353,ConditionRich,2021.2.3,59.93881445850787,
134.0,134.75,17,0.75,Stimuli/P009/sun_brkrfjpyfglmigkk.jpg,0,0,0.0,0,230,230,230,,,,,,,,,,,,,134.0004117999997,0.0004117999997106381,None,165.31893910000144,165.31893910000144,165.31893910000144,165.31893910000144,165.31893910000144,165.31893910000144,165.31893910000144,165.31893910000144,165.31893910000144,165.31893910000144,,006,P009,2025_Feb_01_1353,ConditionRich,2021.2.3,59.93881445850787,
134.75,135.0,41,0.0,Stimuli/Blank.png,0,0,0.0,0,231,231,231,,,,,,,,,,,,,134.75127979999888,0.0012797999988833908,None,166.06958020000093,166.06958020000093,166.06958020000093,166.06958020000093,166.06958020000093,166.06958020000093,166.06958020000093,166.06958020000093,166.06958020000093,166.06958020000093,,006,P009,2025_Feb_01_1353,ConditionRich,2021.2.3,59.93881445850787,
135.0,135.75,17,0.75,Stimuli/P009/sun_brkrfjpyfglmigkk.jpg,0,0,0.0,0,232,232,232,,,,,,,,,,,,,135.00187549999828,0.001875499998277519,None,166.3198295000002,166.3198295000002,166.3198295000002,166.3198295000002,166.3198295000002,166.3198295000002,166.3198295000002,166.3198295000002,166.3198295000002,166.3198295000002,,006,P009,2025_Feb_01_1353,ConditionRich,2021.2.3,59.93881445850787,
135.75,136.0,41,0.0,Stimuli/Blank.png,0,0,0.0,0,233,233,233,,,,,,,,,,,,,135.75472439999794,0.004724399997940054,None,167.08717160000015,167.08717160000015,167.08717160000015,167.08717160000015,167.08717160000015,167.08717160000015,167.08717160000015,167.08717160000015,167.08717160000015,167.08717160000015,,006,P009,2025_Feb_01_1353,ConditionRich,2021.2.3,59.93881445850787,
136.0,136.75,8,0.75,Stimuli/P009/sun_batcnoizlkeiqdtx.jpg,0,0,0.0,0,234,234,234,,,,,,,,,,,,,136.0189711999992,0.01897119999921415,None,167.33739140000034,167.33739140000034,167.33739140000034,167.33739140000034,167.33739140000034,167.33739140000034,167.33739140000034,167.33739140000034,167.33739140000034,167.33739140000034,,006,P009,2025_Feb_01_1353,ConditionRich,2021.2.3,59.93881445850787,
136.75,137.0,41,0.0,Stimuli/Blank.png,0,0,0.0,0,235,235,235,,,,,,,,,,,,,136.7550186999979,0.005018699997890508,None,168.08805570000186,168.08805570000186,168.08805570000186,168.08805570000186,168.08805570000186,168.08805570000186,168.08805570000186,168.08805570000186,168.08805570000186,168.08805570000186,,006,P009,2025_Feb_01_1353,ConditionRich,2021.2.3,59.93881445850787,
137.0,137.75,8,0.75,Stimuli/P009/sun_batcnoizlkeiqdtx.jpg,0,0,0.0,0,236,236,236,,,,,,,,,,,,,137.01984699999957,0.01984699999957229,None,168.3382789999996,168.3382789999996,168.3382789999996,168.3382789999996,168.3382789999996,168.3382789999996,168.3382789999996,168.3382789999996,168.3382789999996,168.3382789999996,,006,P009,2025_Feb_01_1353,ConditionRich,2021.2.3,59.93881445850787,
137.75,138.0,41,0.0,Stimuli/Blank.png,0,0,0.0,0,237,237,237,,,,,,,,,,,,,137.7553166999969,0.0053166999969107565,None,169.07225689999905,169.07225689999905,169.07225689999905,169.07225689999905,169.07225689999905,169.07225689999905,169.07225689999905,169.07225689999905,169.07225689999905,169.07225689999905,,006,P009,2025_Feb_01_1353,ConditionRich,2021.2.3,59.93881445850787,
138.0,138.75,8,0.75,Stimuli/P009/sun_batcnoizlkeiqdtx.jpg,1,0,0.75,0,238,238,238,,,,,,,,,,,,,138.00552649999736,0.005526499997358769,1,169.33922359999997,169.33922359999997,169.33922359999997,169.33922359999997,169.33922359999997,169.33922359999997,169.33922359999997,170.05645659999936,169.33922359999997,169.33922359999997,0.5265531000004557,006,P009,2025_Feb_01_1353,ConditionRich,2021.2.3,59.93881445850787,
138.75,139.0,41,0.0,Stimuli/Blank.png,0,0,0.0,0,239,239,239,,,,,,,,,,,,,138.77198869999847,0.02198869999847375,None,170.08991550000064,170.08991550000064,170.08991550000064,170.08991550000064,170.08991550000064,170.08991550000064,170.08991550000064,170.08991550000064,170.08991550000064,170.08991550000064,,006,P009,2025_Feb_01_1353,ConditionRich,2021.2.3,59.93881445850787,
139.0,139.75,8,0.75,Stimuli/P009/sun_batcnoizlkeiqdtx.jpg,0,0,0.0,0,240,240,240,,,,,,,,,,,,,139.00557059999846,0.0055705999984638765,None,170.3233603000008,170.3233603000008,170.3233603000008,170.3233603000008,170.3233603000008,170.3233603000008,170.3233603000008,170.3233603000008,170.3233603000008,170.3233603000008,,006,P009,2025_Feb_01_1353,ConditionRich,2021.2.3,59.93881445850787,
139.75,140.0,41,0.0,Stimuli/Blank.png,0,0,0.0,0,241,241,241,,,,,,,,,,,,,139.75614889999997,0.006148899999971036,None,171.07402699999875,171.07402699999875,171.07402699999875,171.07402699999875,171.07402699999875,171.07402699999875,171.07402699999875,171.07402699999875,171.07402699999875,171.07402699999875,,006,P009,2025_Feb_01_1353,ConditionRich,2021.2.3,59.93881445850787,
140.0,140.75,11,0.75,Stimuli/P009/sun_bfyvfqiimvdaxlqn.jpg,0,0,0.0,0,242,242,242,,,,,,,,,,,,,140.00648609999917,0.0064860999991651624,None,171.32424679999895,171.32424679999895,171.32424679999895,171.32424679999895,171.32424679999895,171.32424679999895,171.32424679999895,171.32424679999895,171.32424679999895,171.32424679999895,,006,P009,2025_Feb_01_1353,ConditionRich,2021.2.3,59.93881445850787,
140.75,141.0,41,0.0,Stimuli/Blank.png,0,0,0.0,0,243,243,243,,,,,,,,,,,,,140.75698629999897,0.006986299998970935,None,172.0749160000014,172.0749160000014,172.0749160000014,172.0749160000014,172.0749160000014,172.0749160000014,172.0749160000014,172.0749160000014,172.0749160000014,172.0749160000014,,006,P009,2025_Feb_01_1353,ConditionRich,2021.2.3,59.93881445850787,
141.0,141.75,11,0.75,Stimuli/P009/sun_bfyvfqiimvdaxlqn.jpg,0,0,0.0,0,244,244,244,,,,,,,,,,,,,141.00665209999715,0.006652099997154437,None,172.32513010000184,172.32513010000184,172.32513010000184,172.32513010000184,172.32513010000184,172.32513010000184,172.32513010000184,172.32513010000184,172.32513010000184,172.32513010000184,,006,P009,2025_Feb_01_1353,ConditionRich,2021.2.3,59.93881445850787,
141.75,142.0,41,0.0,Stimuli/Blank.png,0,0,0.0,0,245,245,245,,,,,,,,,,,,,141.75968779999675,0.00968779999675462,None,173.0924870000017,173.0924870000017,173.0924870000017,173.0924870000017,173.0924870000017,173.0924870000017,173.0924870000017,173.0924870000017,173.0924870000017,173.0924870000017,,006,P009,2025_Feb_01_1353,ConditionRich,2021.2.3,59.93881445850787,
142.0,142.75,11,0.75,Stimuli/P009/sun_bfyvfqiimvdaxlqn.jpg,0,0,0.0,0,246,246,246,,,,,,,,,,,,,142.0244316999997,0.02443169999969541,None,173.34270399999878,173.34270399999878,173.34270399999878,173.34270399999878,173.34270399999878,173.34270399999878,173.34270399999878,173.34270399999878,173.34270399999878,173.34270399999878,,006,P009,2025_Feb_01_1353,ConditionRich,2021.2.3,59.93881445850787,
142.75,143.0,41,0.0,Stimuli/Blank.png,0,0,0.0,0,247,247,247,,,,,,,,,,,,,142.75884529999894,0.008845299998938572,None,174.07668840000042,174.07668840000042,174.07668840000042,174.07668840000042,174.07668840000042,174.07668840000042,174.07668840000042,174.07668840000042,174.07668840000042,174.07668840000042,,006,P009,2025_Feb_01_1353,ConditionRich,2021.2.3,59.93881445850787,
143.0,143.75,11,0.75,Stimuli/P009/sun_bfyvfqiimvdaxlqn.jpg,0,0,0.0,0,248,248,248,,,,,,,,,,,,,143.00918029999957,0.009180299999570707,None,174.3435571000009,174.3435571000009,174.3435571000009,174.3435571000009,174.3435571000009,174.3435571000009,174.3435571000009,174.3435571000009,174.3435571000009,174.3435571000009,,006,P009,2025_Feb_01_1353,ConditionRich,2021.2.3,59.93881445850787,
143.75,144.0,41,0.0,Stimuli/Blank.png,0,0,0.0,0,249,249,249,,,,,,,,,,,,,143.776418999998,0.026418999997986248,None,175.09425700000065,175.09425700000065,175.09425700000065,175.09425700000065,175.09425700000065,175.09425700000065,175.09425700000065,175.09425700000065,175.09425700000065,175.09425700000065,,006,P009,2025_Feb_01_1353,ConditionRich,2021.2.3,59.93881445850787,
144.0,144.75,1,0.75,Stimuli/P009/sun_abqdlumenyzawlme.jpg,0,0,0.0,0,250,250,250,,,,,,,,,,,,,144.0105072999977,0.010507299997698283,None,175.32780320000165,175.32780320000165,175.32780320000165,175.32780320000165,175.32780320000165,175.32780320000165,175.32780320000165,175.32780320000165,175.32780320000165,175.32780320000165,,006,P009,2025_Feb_01_1353,ConditionRich,2021.2.3,59.93881445850787,
144.75,145.0,41,0.0,Stimuli/Blank.png,0,0,0.0,0,251,251,251,,,,,,,,,,,,,144.76084529999935,0.010845299999346025,None,176.07845240000097,176.07845240000097,176.07845240000097,176.07845240000097,176.07845240000097,176.07845240000097,176.07845240000097,176.07845240000097,176.07845240000097,176.07845240000097,,006,P009,2025_Feb_01_1353,ConditionRich,2021.2.3,59.93881445850787,
145.0,145.75,1,0.75,Stimuli/P009/sun_abqdlumenyzawlme.jpg,0,0,0.0,0,252,252,252,,,,,,,,,,,,,145.01170829999683,0.0117082999968261,None,176.34535179999875,176.34535179999875,176.34535179999875,176.34535179999875,176.34535179999875,176.34535179999875,176.34535179999875,176.34535179999875,176.34535179999875,176.34535179999875,,006,P009,2025_Feb_01_1353,ConditionRich,2021.2.3,59.93881445850787,
145.75,146.0,41,0.0,Stimuli/Blank.png,0,0,0.0,0,253,253,253,,,,,,,,,,,,,145.77970569999889,0.029705699998885393,None,177.1127192999993,177.1127192999993,177.1127192999993,177.1127192999993,177.1127192999993,177.1127192999993,177.1127192999993,177.1127192999993,177.1127192999993,177.1127192999993,,006,P009,2025_Feb_01_1353,ConditionRich,2021.2.3,59.93881445850787,
146.0,146.75,1,0.75,Stimuli/P009/sun_abqdlumenyzawlme.jpg,0,0,0.0,0,254,254,254,,,,,,,,,,,,,146.02983529999983,0.029835299999831477,None,177.36292849999882,177.36292849999882,177.36292849999882,177.36292849999882,177.36292849999882,177.36292849999882,177.36292849999882,177.36292849999882,177.36292849999882,177.36292849999882,,006,P009,2025_Feb_01_1353,ConditionRich,2021.2.3,59.93881445850787,
146.75,147.0,41,0.0,Stimuli/Blank.png,0,0,0.0,0,255,255,255,,,,,,,,,,,,,146.77913139999873,0.029131399998732377,None,178.09691100000055,178.09691100000055,178.09691100000055,178.09691100000055,178.09691100000055,178.09691100000055,178.09691100000055,178.09691100000055,178.09691100000055,178.09691100000055,,006,P009,2025_Feb_01_1353,ConditionRich,2021.2.3,59.93881445850787,
147.0,147.75,1,0.75,Stimuli/P009/sun_abqdlumenyzawlme.jpg,0,0,0.0,0,256,256,256,,,,,,,,,,,,,147.01450489999843,0.0145048999984283,None,178.3471399000009,178.3471399000009,178.3471399000009,178.3471399000009,178.3471399000009,178.3471399000009,178.3471399000009,178.3471399000009,178.3471399000009,178.3471399000009,,006,P009,2025_Feb_01_1353,ConditionRich,2021.2.3,59.93881445850787,
147.75,148.0,41,0.0,Stimuli/Blank.png,0,0,0.0,0,257,257,257,,,,,,,,,,,,,147.7806356000001,0.03063560000009602,None,179.1145069000013,179.1145069000013,179.1145069000013,179.1145069000013,179.1145069000013,179.1145069000013,179.1145069000013,179.1145069000013,179.1145069000013,179.1145069000013,,006,P009,2025_Feb_01_1353,ConditionRich,2021.2.3,59.93881445850787,
148.0,148.75,36,0.75,Stimuli/P009/things_pelican_05s.jpg,0,0,0.0,0,258,258,258,,,,,,,,,,,,,148.02997200000027,0.029972000000270782,None,179.34801059999882,179.34801059999882,179.34801059999882,179.34801059999882,179.34801059999882,179.34801059999882,179.34801059999882,179.34801059999882,179.34801059999882,179.34801059999882,,006,P009,2025_Feb_01_1353,ConditionRich,2021.2.3,59.93881445850787,
148.75,149.0,41,0.0,Stimuli/Blank.png,0,0,0.0,0,259,259,259,,,,,,,,,,,,,148.764510099998,0.014510099998005899,None,180.08200539999962,180.08200539999962,180.08200539999962,180.08200539999962,180.08200539999962,180.08200539999962,180.08200539999962,180.08200539999962,180.08200539999962,180.08200539999962,,006,P009,2025_Feb_01_1353,ConditionRich,2021.2.3,59.93881445850787,
149.0,149.75,36,0.75,Stimuli/P009/things_pelican_05s.jpg,0,0,0.0,0,260,260,260,,,,,,,,,,,,,149.01515879999715,0.015158799997152528,None,180.348928899999,180.348928899999,180.348928899999,180.348928899999,180.348928899999,180.348928899999,180.348928899999,180.348928899999,180.348928899999,180.348928899999,,006,P009,2025_Feb_01_1353,ConditionRich,2021.2.3,59.93881445850787,
149.75,150.0,41,0.0,Stimuli/Blank.png,0,0,0.0,0,261,261,261,,,,,,,,,,,,,149.76525709999987,0.01525709999987157,None,181.08287850000124,181.08287850000124,181.08287850000124,181.08287850000124,181.08287850000124,181.08287850000124,181.08287850000124,181.08287850000124,181.08287850000124,181.08287850000124,,006,P009,2025_Feb_01_1353,ConditionRich,2021.2.3,59.93881445850787,
