eventStartTime,eventEndTime,eventCond,imSize,imFile,responseEvent,fixRespStart,fixRespEnd,Events.thisRepN,Events.thisTrialN,Events.thisN,Events.thisIndex,Instructions.started,Instructions.stopped,participantReadyResponse.keys,participantReadyResponse.rt,participantReadyResponse.started,participantReadyResponse.stopped,startWaitforTrigger,triggerResponse.keys,triggerResponse.rt,triggerResponse.started,triggerResponse.stopped,globalTimer,actualStartTime,startTimingDiff,participantResponse.keys,participantResponse.started,participantResponse.stopped,image.started,image.stopped,fixationOutside.started,fixationOutside.stopped,fixationResponse.started,fixationResponse.stopped,fixationInside.started,fixationInside.stopped,participantResponse.rt,session,participant,date,expName,psychopyVersion,frameRate,
,,,,,,,,,,,,16.917027499999676,None,1,7.864239999998972,16.917027499999676,None,,,,,,,,,,,,,,,,,,,,,007,P009,2025_Feb_01_1406,ConditionRich,2021.2.3,59.91985120666156,
,,,,,,,,,,,,,,,,,,24.791802600000665,5,13.711171200000535,24.80596069999956,None,,,,,,,,,,,,,,,,007,P009,2025_Feb_01_1406,ConditionRich,2021.2.3,59.91985120666156,
0.0,4.0,0,0.0,Stimuli/Blank.png,0,0,0.0,0,0,0,0,,,,,,,,,,,,38.5221309999979,0.04819180000049528,0.04819180000049528,None,38.58476289999817,None,38.58476289999817,None,38.58476289999817,None,38.58476289999817,38.58476289999817,38.58476289999817,None,,007,P009,2025_Feb_01_1406,ConditionRich,2021.2.3,59.91985120666156,
4.0,7.75,14,0.75,Stimuli/P009/sun_blaqxdebghixzyyw.jpg,0,0,0.0,0,1,1,1,,,,,,,,,,,,,4.005952600000455,0.005952600000455277,None,42.555228299999726,42.555228299999726,42.555228299999726,42.555228299999726,42.555228299999726,42.555228299999726,42.555228299999726,42.555228299999726,42.555228299999726,42.555228299999726,,007,P009,2025_Feb_01_1406,ConditionRich,2021.2.3,59.91985120666156,
7.75,8.0,41,0.0,Stimuli/Blank.png,0,0,0.0,0,2,2,2,,,,,,,,,,,,,7.77362169999833,0.02362169999832986,None,46.32526349999898,46.32526349999898,46.32526349999898,46.32526349999898,46.32526349999898,46.32526349999898,46.32526349999898,46.32526349999898,46.32526349999898,46.32526349999898,,007,P009,2025_Feb_01_1406,ConditionRich,2021.2.3,59.91985120666156,
8.0,11.75,19,0.75,Stimuli/P009/sun_bwvfnogmotsvhofs.jpg,0,0,0.0,0,3,3,3,,,,,,,,,,,,,8.02378619999945,0.02378619999944931,None,46.57515649999914,46.57515649999914,46.57515649999914,46.57515649999914,46.57515649999914,46.57515649999914,46.57515649999914,46.57515649999914,46.57515649999914,46.57515649999914,,007,P009,2025_Feb_01_1406,ConditionRich,2021.2.3,59.91985120666156,
11.75,12.0,41,0.0,Stimuli/Blank.png,0,0,0.0,0,4,4,4,,,,,,,,,,,,,11.77582419999817,0.025824199998169206,None,50.311794699999155,50.311794699999155,50.311794699999155,50.311794699999155,50.311794699999155,50.311794699999155,50.311794699999155,50.311794699999155,50.311794699999155,50.311794699999155,,007,P009,2025_Feb_01_1406,ConditionRich,2021.2.3,59.91985120666156,
12.0,15.75,26,0.75,Stimuli/P009/things_cookie_sheet_05s.jpg,0,0,0.0,0,5,5,5,,,,,,,,,,,,,12.008635599999252,0.008635599999252008,None,50.545335399998294,50.545335399998294,50.545335399998294,50.545335399998294,50.545335399998294,50.545335399998294,50.545335399998294,50.545335399998294,50.545335399998294,50.545335399998294,,007,P009,2025_Feb_01_1406,ConditionRich,2021.2.3,59.91985120666156,
15.75,16.0,41,0.0,Stimuli/Blank.png,0,0,0.0,0,6,6,6,,,,,,,,,,,,,15.76391849999709,0.013918499997089384,None,54.3164285999992,54.3164285999992,54.3164285999992,54.3164285999992,54.3164285999992,54.3164285999992,54.3164285999992,54.3164285999992,54.3164285999992,54.3164285999992,,007,P009,2025_Feb_01_1406,ConditionRich,2021.2.3,59.91985120666156,
16.0,19.75,22,0.75,Stimuli/P009/things_butterfly_05s.jpg,0,0,0.0,0,7,7,7,,,,,,,,,,,,,16.029389499999525,0.02938949999952456,None,54.56555789999766,54.56555789999766,54.56555789999766,54.56555789999766,54.56555789999766,54.56555789999766,54.56555789999766,54.56555789999766,54.56555789999766,54.56555789999766,,007,P009,2025_Feb_01_1406,ConditionRich,2021.2.3,59.91985120666156,
19.75,20.0,41,0.0,Stimuli/Blank.png,0,0,0.0,0,8,8,8,,,,,,,,,,,,,19.74954219999927,-0.0004578000007313676,None,58.285525499999494,58.285525499999494,58.285525499999494,58.285525499999494,58.285525499999494,58.285525499999494,58.285525499999494,58.285525499999494,58.285525499999494,58.285525499999494,,007,P009,2025_Feb_01_1406,ConditionRich,2021.2.3,59.91985120666156,
20.0,23.75,11,0.75,Stimuli/P009/sun_bfyvfqiimvdaxlqn.jpg,0,0,0.0,0,9,9,9,,,,,,,,,,,,,19.999217699998553,-0.0007823000014468562,None,58.53570140000011,58.53570140000011,58.53570140000011,58.53570140000011,58.53570140000011,58.53570140000011,58.53570140000011,58.53570140000011,58.53570140000011,58.53570140000011,,007,P009,2025_Feb_01_1406,ConditionRich,2021.2.3,59.91985120666156,
23.75,24.0,41,0.0,Stimuli/Blank.png,0,0,0.0,0,10,10,10,,,,,,,,,,,,,23.753446599999734,0.003446599999733735,None,62.28906629999983,62.28906629999983,62.28906629999983,62.28906629999983,62.28906629999983,62.28906629999983,62.28906629999983,62.28906629999983,62.28906629999983,62.28906629999983,,007,P009,2025_Feb_01_1406,ConditionRich,2021.2.3,59.91985120666156,
24.0,27.75,18,0.75,Stimuli/P009/sun_bwjdahsxcqepqqbm.jpg,1,0,0.75,0,11,11,11,,,,,,,,,,,,,24.004151599998295,0.0041515999982948415,1,62.555950300000404,62.555950300000404,62.555950300000404,62.555950300000404,62.555950300000404,62.555950300000404,62.555950300000404,63.27329810000083,62.555950300000404,62.555950300000404,0.7417458999989321,007,P009,2025_Feb_01_1406,ConditionRich,2021.2.3,59.91985120666156,
27.75,28.0,41,0.0,Stimuli/Blank.png,0,0,0.0,0,12,12,12,,,,,,,,,,,,,27.77260749999914,0.02260749999913969,None,66.3092833999981,66.3092833999981,66.3092833999981,66.3092833999981,66.3092833999981,66.3092833999981,66.3092833999981,66.3092833999981,66.3092833999981,66.3092833999981,,007,P009,2025_Feb_01_1406,ConditionRich,2021.2.3,59.91985120666156,
28.0,31.75,10,0.75,Stimuli/P009/sun_bdkttewvyfdarikm.jpg,0,0,0.0,0,13,13,13,,,,,,,,,,,,,28.006629100000282,0.006629100000282051,None,66.55951709999863,66.55951709999863,66.55951709999863,66.55951709999863,66.55951709999863,66.55951709999863,66.55951709999863,66.55951709999863,66.55951709999863,66.55951709999863,,007,P009,2025_Feb_01_1406,ConditionRich,2021.2.3,59.91985120666156,
31.75,32.0,41,0.0,Stimuli/Blank.png,0,0,0.0,0,14,14,14,,,,,,,,,,,,,31.778796599999623,0.02879659999962314,None,70.32951350000076,70.32951350000076,70.32951350000076,70.32951350000076,70.32951350000076,70.32951350000076,70.32951350000076,70.32951350000076,70.32951350000076,70.32951350000076,,007,P009,2025_Feb_01_1406,ConditionRich,2021.2.3,59.91985120666156,
32.0,35.75,9,0.75,Stimuli/P009/sun_bdjkvwqqqycuixtc.jpg,1,1,1.75,0,15,15,15,,,,,,,,,,,,,32.028513699999166,0.02851369999916642,1,70.57974259999901,70.57974259999901,70.57974259999901,70.57974259999901,70.57974259999901,70.57974259999901,71.56392419999975,72.31458980000025,70.57974259999901,70.57974259999901,1.463603600001079,007,P009,2025_Feb_01_1406,ConditionRich,2021.2.3,59.91985120666156,
35.75,36.0,41,0.0,Stimuli/Blank.png,0,0,0.0,0,16,16,16,,,,,,,,,,,,,35.77971969999999,0.029719699999986915,None,74.31635789999928,74.31635789999928,74.31635789999928,74.31635789999928,74.31635789999928,74.31635789999928,74.31635789999928,74.31635789999928,74.31635789999928,74.31635789999928,,007,P009,2025_Feb_01_1406,ConditionRich,2021.2.3,59.91985120666156,
36.0,39.75,17,0.75,Stimuli/P009/sun_brkrfjpyfglmigkk.jpg,0,0,0.0,0,17,17,17,,,,,,,,,,,,,36.013650199998665,0.013650199998664903,None,74.54990469999757,74.54990469999757,74.54990469999757,74.54990469999757,74.54990469999757,74.54990469999757,74.54990469999757,74.54990469999757,74.54990469999757,74.54990469999757,,007,P009,2025_Feb_01_1406,ConditionRich,2021.2.3,59.91985120666156,
39.75,40.0,41,0.0,Stimuli/Blank.png,0,0,0.0,0,18,18,18,,,,,,,,,,,,,39.75074079999831,0.0007407999983115587,None,78.28661920000013,78.28661920000013,78.28661920000013,78.28661920000013,78.28661920000013,78.28661920000013,78.28661920000013,78.28661920000013,78.28661920000013,78.28661920000013,,007,P009,2025_Feb_01_1406,ConditionRich,2021.2.3,59.91985120666156,
40.0,43.75,31,0.75,Stimuli/P009/things_girl_05s.jpg,0,0,0.0,0,19,19,19,,,,,,,,,,,,,40.00001539999721,1.5399997209897265e-05,None,78.53676219999761,78.53676219999761,78.53676219999761,78.53676219999761,78.53676219999761,78.53676219999761,78.53676219999761,78.53676219999761,78.53676219999761,78.53676219999761,,007,P009,2025_Feb_01_1406,ConditionRich,2021.2.3,59.91985120666156,
43.75,44.0,41,0.0,Stimuli/Blank.png,0,0,0.0,0,20,20,20,,,,,,,,,,,,,43.754559599998174,0.004559599998174235,None,82.29009519999818,82.29009519999818,82.29009519999818,82.29009519999818,82.29009519999818,82.29009519999818,82.29009519999818,82.29009519999818,82.29009519999818,82.29009519999818,,007,P009,2025_Feb_01_1406,ConditionRich,2021.2.3,59.91985120666156,
44.0,47.75,15,0.75,Stimuli/P009/sun_boryivbddrnarrbo.jpg,1,3,3.75,0,21,21,21,,,,,,,,,,,,,44.004460299998755,0.0044602999987546355,1,82.55699119999917,82.55699119999917,82.55699119999917,82.55699119999917,82.55699119999917,82.55699119999917,85.52631929999916,86.27743679999912,82.55699119999917,82.55699119999917,3.341354699998192,007,P009,2025_Feb_01_1406,ConditionRich,2021.2.3,59.91985120666156,
47.75,48.0,41,0.0,Stimuli/Blank.png,0,0,0.0,0,22,22,22,,,,,,,,,,,,,47.774205300000176,0.024205300000176067,None,86.31027819999872,86.31027819999872,86.31027819999872,86.31027819999872,86.31027819999872,86.31027819999872,86.31027819999872,86.31027819999872,86.31027819999872,86.31027819999872,,007,P009,2025_Feb_01_1406,ConditionRich,2021.2.3,59.91985120666156,
48.0,51.75,7,0.75,Stimuli/P009/sun_apiogxmvvzfmtsmj.jpg,0,0,0.0,0,23,23,23,,,,,,,,,,,,,48.0072997999996,0.007299799999600509,None,86.54383489999964,86.54383489999964,86.54383489999964,86.54383489999964,86.54383489999964,86.54383489999964,86.54383489999964,86.54383489999964,86.54383489999964,86.54383489999964,,007,P009,2025_Feb_01_1406,ConditionRich,2021.2.3,59.91985120666156,
51.75,52.0,41,0.0,Stimuli/Blank.png,0,0,0.0,0,24,24,24,,,,,,,,,,,,,51.76033379999717,0.01033379999716999,None,90.2971636000002,90.2971636000002,90.2971636000002,90.2971636000002,90.2971636000002,90.2971636000002,90.2971636000002,90.2971636000002,90.2971636000002,90.2971636000002,,007,P009,2025_Feb_01_1406,ConditionRich,2021.2.3,59.91985120666156,
52.0,55.75,16,0.75,Stimuli/P009/sun_bqpyqljaflidcauh.jpg,0,0,0.0,0,25,25,25,,,,,,,,,,,,,52.011467500000435,0.011467500000435393,None,90.56408480000027,90.56408480000027,90.56408480000027,90.56408480000027,90.56408480000027,90.56408480000027,90.56408480000027,90.56408480000027,90.56408480000027,90.56408480000027,,007,P009,2025_Feb_01_1406,ConditionRich,2021.2.3,59.91985120666156,
55.75,56.0,41,0.0,Stimuli/Blank.png,0,0,0.0,0,26,26,26,,,,,,,,,,,,,55.78081399999792,0.030813999997917563,None,94.31738570000016,94.31738570000016,94.31738570000016,94.31738570000016,94.31738570000016,94.31738570000016,94.31738570000016,94.31738570000016,94.31738570000016,94.31738570000016,,007,P009,2025_Feb_01_1406,ConditionRich,2021.2.3,59.91985120666156,
56.0,59.75,37,0.75,Stimuli/P009/things_pug_05s.jpg,0,0,0.0,0,27,27,27,,,,,,,,,,,,,56.01474439999947,0.01474439999947208,None,94.5509295999982,94.5509295999982,94.5509295999982,94.5509295999982,94.5509295999982,94.5509295999982,94.5509295999982,94.5509295999982,94.5509295999982,94.5509295999982,,007,P009,2025_Feb_01_1406,ConditionRich,2021.2.3,59.91985120666156,
59.75,60.0,41,0.0,Stimuli/Blank.png,0,0,0.0,0,28,28,28,,,,,,,,,,,,,59.753595700000005,0.0035957000000053085,None,98.30425090000062,98.30425090000062,98.30425090000062,98.30425090000062,98.30425090000062,98.30425090000062,98.30425090000062,98.30425090000062,98.30425090000062,98.30425090000062,,007,P009,2025_Feb_01_1406,ConditionRich,2021.2.3,59.91985120666156,
60.0,63.75,3,0.75,Stimuli/P009/sun_aewgwsmvsgzleqhw.jpg,0,0,0.0,0,29,29,29,,,,,,,,,,,,,60.0184425999978,0.018442599997797515,None,98.55445989999862,98.55445989999862,98.55445989999862,98.55445989999862,98.55445989999862,98.55445989999862,98.55445989999862,98.55445989999862,98.55445989999862,98.55445989999862,,007,P009,2025_Feb_01_1406,ConditionRich,2021.2.3,59.91985120666156,
63.75,64.0,41,0.0,Stimuli/Blank.png,0,0,0.0,0,30,30,30,,,,,,,,,,,,,63.75432879999789,0.004328799997892929,None,102.2922209999997,102.2922209999997,102.2922209999997,102.2922209999997,102.2922209999997,102.2922209999997,102.2922209999997,102.2922209999997,102.2922209999997,102.2922209999997,,007,P009,2025_Feb_01_1406,ConditionRich,2021.2.3,59.91985120666156,
64.0,67.75,33,0.75,Stimuli/P009/things_lizard_05n.jpg,0,0,0.0,0,31,31,31,,,,,,,,,,,,,64.00541419999718,0.005414199997176183,None,102.541292599999,102.541292599999,102.541292599999,102.541292599999,102.541292599999,102.541292599999,102.541292599999,102.541292599999,102.541292599999,102.541292599999,,007,P009,2025_Feb_01_1406,ConditionRich,2021.2.3,59.91985120666156,
67.75,68.0,41,0.0,Stimuli/Blank.png,0,0,0.0,0,32,32,32,,,,,,,,,,,,,67.75858739999967,0.008587399999669287,None,106.29464999999982,106.29464999999982,106.29464999999982,106.29464999999982,106.29464999999982,106.29464999999982,106.29464999999982,106.29464999999982,106.29464999999982,106.29464999999982,,007,P009,2025_Feb_01_1406,ConditionRich,2021.2.3,59.91985120666156,
68.0,71.75,35,0.75,Stimuli/P009/things_mushroom_05n.jpg,0,0,0.0,0,33,33,33,,,,,,,,,,,,,68.00875919999817,0.008759199998166878,None,106.54486560000078,106.54486560000078,106.54486560000078,106.54486560000078,106.54486560000078,106.54486560000078,106.54486560000078,106.54486560000078,106.54486560000078,106.54486560000078,,007,P009,2025_Feb_01_1406,ConditionRich,2021.2.3,59.91985120666156,
71.75,72.0,41,0.0,Stimuli/Blank.png,0,0,0.0,0,34,34,34,,,,,,,,,,,,,71.76383899999928,0.013838999999279622,None,110.31487740000011,110.31487740000011,110.31487740000011,110.31487740000011,110.31487740000011,110.31487740000011,110.31487740000011,110.31487740000011,110.31487740000011,110.31487740000011,,007,P009,2025_Feb_01_1406,ConditionRich,2021.2.3,59.91985120666156,
72.0,75.75,8,0.75,Stimuli/P009/sun_batcnoizlkeiqdtx.jpg,0,0,0.0,0,35,35,35,,,,,,,,,,,,,72.02892599999905,0.028925999999046326,None,110.56509059999735,110.56509059999735,110.56509059999735,110.56509059999735,110.56509059999735,110.56509059999735,110.56509059999735,110.56509059999735,110.56509059999735,110.56509059999735,,007,P009,2025_Feb_01_1406,ConditionRich,2021.2.3,59.91985120666156,
75.75,76.0,41,0.0,Stimuli/Blank.png,0,0,0.0,0,36,36,36,,,,,,,,,,,,,75.76606669999819,0.016066699998191325,None,114.3017230000005,114.3017230000005,114.3017230000005,114.3017230000005,114.3017230000005,114.3017230000005,114.3017230000005,114.3017230000005,114.3017230000005,114.3017230000005,,007,P009,2025_Feb_01_1406,ConditionRich,2021.2.3,59.91985120666156,
76.0,79.75,21,0.75,Stimuli/P009/things_boy_05s.jpg,0,0,0.0,0,37,37,37,,,,,,,,,,,,,75.99982799999998,-0.0001720000000204891,None,114.55194979999942,114.55194979999942,114.55194979999942,114.55194979999942,114.55194979999942,114.55194979999942,114.55194979999942,114.55194979999942,114.55194979999942,114.55194979999942,,007,P009,2025_Feb_01_1406,ConditionRich,2021.2.3,59.91985120666156,
79.75,80.0,41,0.0,Stimuli/Blank.png,0,0,0.0,0,38,38,38,,,,,,,,,,,,,79.7685777000006,0.018577700000605546,None,118.30527419999999,118.30527419999999,118.30527419999999,118.30527419999999,118.30527419999999,118.30527419999999,118.30527419999999,118.30527419999999,118.30527419999999,118.30527419999999,,007,P009,2025_Feb_01_1406,ConditionRich,2021.2.3,59.91985120666156,
80.0,83.75,32,0.75,Stimuli/P009/things_hawk_05s.jpg,1,2,2.75,0,39,39,39,,,,,,,,,,,,,80.0051323000007,0.005132300000695977,1,118.55549459999747,118.55549459999747,118.55549459999747,118.55549459999747,118.55549459999747,118.55549459999747,120.54053550000026,121.29129760000069,118.55549459999747,118.55549459999747,2.3717501999999513,007,P009,2025_Feb_01_1406,ConditionRich,2021.2.3,59.91985120666156,
83.75,84.0,41,0.0,Stimuli/Blank.png,0,0,0.0,0,40,40,40,,,,,,,,,,,,,83.77542399999948,0.0254239999994752,None,122.32550529999935,122.32550529999935,122.32550529999935,122.32550529999935,122.32550529999935,122.32550529999935,122.32550529999935,122.32550529999935,122.32550529999935,122.32550529999935,,007,P009,2025_Feb_01_1406,ConditionRich,2021.2.3,59.91985120666156,
84.0,100.0,0,0.0,Stimuli/Blank.png,1,11,11.75,0,41,41,41,,,,,,,,,,,,,84.02270829999907,0.022708299999067094,None,122.55908020000061,122.55908020000061,122.55908020000061,122.55908020000061,122.55908020000061,122.55908020000061,133.53541159999804,134.2872217999975,122.55908020000061,122.55908020000061,,007,P009,2025_Feb_01_1406,ConditionRich,2021.2.3,59.91985120666156,
100.0,103.75,39,0.75,Stimuli/P009/things_tiara_05s.jpg,0,0,0.0,0,42,42,42,,,,,,,,,,,,,100.00450089999867,0.004500899998674868,None,138.5398471999979,138.5398471999979,138.5398471999979,138.5398471999979,138.5398471999979,138.5398471999979,138.5398471999979,138.5398471999979,138.5398471999979,138.5398471999979,,007,P009,2025_Feb_01_1406,ConditionRich,2021.2.3,59.91985120666156,
103.75,104.0,41,0.0,Stimuli/Blank.png,0,0,0.0,0,43,43,43,,,,,,,,,,,,,103.75635259999763,0.006352599997626385,None,142.2931561999976,142.2931561999976,142.2931561999976,142.2931561999976,142.2931561999976,142.2931561999976,142.2931561999976,142.2931561999976,142.2931561999976,142.2931561999976,,007,P009,2025_Feb_01_1406,ConditionRich,2021.2.3,59.91985120666156,
104.0,107.75,28,0.75,Stimuli/P009/things_face_05s.jpg,0,0,0.0,0,44,44,44,,,,,,,,,,,,,104.00684109999929,0.006841099999292055,None,142.54337730000043,142.54337730000043,142.54337730000043,142.54337730000043,142.54337730000043,142.54337730000043,142.54337730000043,142.54337730000043,142.54337730000043,142.54337730000043,,007,P009,2025_Feb_01_1406,ConditionRich,2021.2.3,59.91985120666156,
107.75,108.0,41,0.0,Stimuli/Blank.png,0,0,0.0,0,45,45,45,,,,,,,,,,,,,107.76006489999781,0.010064899997814791,None,146.29669529999956,146.29669529999956,146.29669529999956,146.29669529999956,146.29669529999956,146.29669529999956,146.29669529999956,146.29669529999956,146.29669529999956,146.29669529999956,,007,P009,2025_Feb_01_1406,ConditionRich,2021.2.3,59.91985120666156,
108.0,111.75,6,0.75,Stimuli/P009/sun_amkrwcyvinmsylsz.jpg,0,0,0.0,0,46,46,46,,,,,,,,,,,,,108.0108760999974,0.010876099997403799,None,146.5468766999984,146.5468766999984,146.5468766999984,146.5468766999984,146.5468766999984,146.5468766999984,146.5468766999984,146.5468766999984,146.5468766999984,146.5468766999984,,007,P009,2025_Feb_01_1406,ConditionRich,2021.2.3,59.91985120666156,
111.75,112.0,41,0.0,Stimuli/Blank.png,0,0,0.0,0,47,47,47,,,,,,,,,,,,,111.76475120000032,0.014751200000318931,None,150.3015376000003,150.3015376000003,150.3015376000003,150.3015376000003,150.3015376000003,150.3015376000003,150.3015376000003,150.3015376000003,150.3015376000003,150.3015376000003,,007,P009,2025_Feb_01_1406,ConditionRich,2021.2.3,59.91985120666156,
112.0,115.75,40,0.75,Stimuli/P009/things_woman_05s.jpg,0,0,0.0,0,48,48,48,,,,,,,,,,,,,112.0140513999977,0.014051399997697445,None,150.55045439999958,150.55045439999958,150.55045439999958,150.55045439999958,150.55045439999958,150.55045439999958,150.55045439999958,150.55045439999958,150.55045439999958,150.55045439999958,,007,P009,2025_Feb_01_1406,ConditionRich,2021.2.3,59.91985120666156,
115.75,116.0,41,0.0,Stimuli/Blank.png,0,0,0.0,0,49,49,49,,,,,,,,,,,,,115.75033939999776,0.00033939999775611795,None,154.28709030000027,154.28709030000027,154.28709030000027,154.28709030000027,154.28709030000027,154.28709030000027,154.28709030000027,154.28709030000027,154.28709030000027,154.28709030000027,,007,P009,2025_Feb_01_1406,ConditionRich,2021.2.3,59.91985120666156,
116.0,119.75,5,0.75,Stimuli/P009/sun_akqvdmuauoxeafrj.jpg,0,0,0.0,0,50,50,50,,,,,,,,,,,,,116.00066309999966,0.0006630999996559694,None,154.55399509999916,154.55399509999916,154.55399509999916,154.55399509999916,154.55399509999916,154.55399509999916,154.55399509999916,154.55399509999916,154.55399509999916,154.55399509999916,,007,P009,2025_Feb_01_1406,ConditionRich,2021.2.3,59.91985120666156,
119.75,120.0,41,0.0,Stimuli/Blank.png,0,0,0.0,0,51,51,51,,,,,,,,,,,,,119.77094699999725,0.020946999997249804,None,158.30734739999752,158.30734739999752,158.30734739999752,158.30734739999752,158.30734739999752,158.30734739999752,158.30734739999752,158.30734739999752,158.30734739999752,158.30734739999752,,007,P009,2025_Feb_01_1406,ConditionRich,2021.2.3,59.91985120666156,
120.0,123.75,30,0.75,Stimuli/P009/things_fire_05s.jpg,1,1,1.75,0,52,52,52,,,,,,,,,,,,,120.00511159999951,0.005111599999509053,1,158.54081849999784,158.54081849999784,158.54081849999784,158.54081849999784,158.54081849999784,158.54081849999784,159.5250543000002,160.27572940000027,158.54081849999784,158.54081849999784,1.4907907000015257,007,P009,2025_Feb_01_1406,ConditionRich,2021.2.3,59.91985120666156,
123.75,124.0,41,0.0,Stimuli/Blank.png,0,0,0.0,0,53,53,53,,,,,,,,,,,,,123.75744569999733,0.007445699997333577,None,162.29423069999757,162.29423069999757,162.29423069999757,162.29423069999757,162.29423069999757,162.29423069999757,162.29423069999757,162.29423069999757,162.29423069999757,162.29423069999757,,007,P009,2025_Feb_01_1406,ConditionRich,2021.2.3,59.91985120666156,
124.0,127.75,25,0.75,Stimuli/P009/things_clothespin_05s.jpg,0,0,0.0,0,54,54,54,,,,,,,,,,,,,124.00878829999783,0.008788299997831928,None,162.5611108999983,162.5611108999983,162.5611108999983,162.5611108999983,162.5611108999983,162.5611108999983,162.5611108999983,162.5611108999983,162.5611108999983,162.5611108999983,,007,P009,2025_Feb_01_1406,ConditionRich,2021.2.3,59.91985120666156,
127.75,128.0,41,0.0,Stimuli/Blank.png,0,0,0.0,0,55,55,55,,,,,,,,,,,,,127.77866269999868,0.028662699998676544,None,166.3144054000004,166.3144054000004,166.3144054000004,166.3144054000004,166.3144054000004,166.3144054000004,166.3144054000004,166.3144054000004,166.3144054000004,166.3144054000004,,007,P009,2025_Feb_01_1406,ConditionRich,2021.2.3,59.91985120666156,
128.0,131.75,38,0.75,Stimuli/P009/things_roadsweeper_05s.jpg,1,3,3.75,0,56,56,56,,,,,,,,,,,,,128.01121950000015,0.011219500000152038,1,166.56462649999958,166.56462649999958,166.56462649999958,166.56462649999958,166.56462649999958,166.56462649999958,169.53391980000015,170.28456989999904,166.56462649999958,166.56462649999958,3.374994300000253,007,P009,2025_Feb_01_1406,ConditionRich,2021.2.3,59.91985120666156,
131.75,132.0,41,0.0,Stimuli/Blank.png,0,0,0.0,0,57,57,57,,,,,,,,,,,,,131.78383589999794,0.03383589999793912,None,170.33462660000077,170.33462660000077,170.33462660000077,170.33462660000077,170.33462660000077,170.33462660000077,170.33462660000077,170.33462660000077,170.33462660000077,170.33462660000077,,007,P009,2025_Feb_01_1406,ConditionRich,2021.2.3,59.91985120666156,
132.0,135.75,34,0.75,Stimuli/P009/things_man_05s.jpg,0,0,0.0,0,58,58,58,,,,,,,,,,,,,132.01534919999904,0.0153491999990365,None,170.55147959999886,170.55147959999886,170.55147959999886,170.55147959999886,170.55147959999886,170.55147959999886,170.55147959999886,170.55147959999886,170.55147959999886,170.55147959999886,,007,P009,2025_Feb_01_1406,ConditionRich,2021.2.3,59.91985120666156,
135.75,136.0,41,0.0,Stimuli/Blank.png,0,0,0.0,0,59,59,59,,,,,,,,,,,,,135.75134329999855,0.0013432999985525385,None,174.28811909999786,174.28811909999786,174.28811909999786,174.28811909999786,174.28811909999786,174.28811909999786,174.28811909999786,174.28811909999786,174.28811909999786,174.28811909999786,,007,P009,2025_Feb_01_1406,ConditionRich,2021.2.3,59.91985120666156,
136.0,139.75,13,0.75,Stimuli/P009/sun_bjimvgwadfodioes.jpg,0,0,0.0,0,60,60,60,,,,,,,,,,,,,136.00417050000033,0.004170500000327593,None,174.55501639999784,174.55501639999784,174.55501639999784,174.55501639999784,174.55501639999784,174.55501639999784,174.55501639999784,174.55501639999784,174.55501639999784,174.55501639999784,,007,P009,2025_Feb_01_1406,ConditionRich,2021.2.3,59.91985120666156,
139.75,140.0,41,0.0,Stimuli/Blank.png,0,0,0.0,0,61,61,61,,,,,,,,,,,,,139.77309500000047,0.023095000000466825,None,178.30836139999883,178.30836139999883,178.30836139999883,178.30836139999883,178.30836139999883,178.30836139999883,178.30836139999883,178.30836139999883,178.30836139999883,178.30836139999883,,007,P009,2025_Feb_01_1406,ConditionRich,2021.2.3,59.91985120666156,
140.0,143.75,36,0.75,Stimuli/P009/things_pelican_05s.jpg,0,0,0.0,0,62,62,62,,,,,,,,,,,,,140.00608590000047,0.006085900000471156,None,178.54188710000017,178.54188710000017,178.54188710000017,178.54188710000017,178.54188710000017,178.54188710000017,178.54188710000017,178.54188710000017,178.54188710000017,178.54188710000017,,007,P009,2025_Feb_01_1406,ConditionRich,2021.2.3,59.91985120666156,
143.75,144.0,41,0.0,Stimuli/Blank.png,0,0,0.0,0,63,63,63,,,,,,,,,,,,,143.75957189999826,0.009571899998263689,None,182.29520169999887,182.29520169999887,182.29520169999887,182.29520169999887,182.29520169999887,182.29520169999887,182.29520169999887,182.29520169999887,182.29520169999887,182.29520169999887,,007,P009,2025_Feb_01_1406,ConditionRich,2021.2.3,59.91985120666156,
144.0,147.75,2,0.75,Stimuli/P009/sun_acvloibbxiqpiwnv.jpg,1,2,2.75,0,64,64,64,,,,,,,,,,,,,144.00887469999725,0.00887469999724999,1,182.54542070000025,182.54542070000025,182.54542070000025,182.54542070000025,182.54542070000025,182.54542070000025,184.5305903999979,185.28117009999914,182.54542070000025,182.54542070000025,2.4431021999989753,007,P009,2025_Feb_01_1406,ConditionRich,2021.2.3,59.91985120666156,
147.75,148.0,41,0.0,Stimuli/Blank.png,0,0,0.0,0,65,65,65,,,,,,,,,,,,,147.76508789999934,0.01508789999934379,None,186.31551469999977,186.31551469999977,186.31551469999977,186.31551469999977,186.31551469999977,186.31551469999977,186.31551469999977,186.31551469999977,186.31551469999977,186.31551469999977,,007,P009,2025_Feb_01_1406,ConditionRich,2021.2.3,59.91985120666156,
148.0,151.75,1,0.75,Stimuli/P009/sun_abqdlumenyzawlme.jpg,0,0,0.0,0,66,66,66,,,,,,,,,,,,,148.03046339999855,0.03046339999855263,None,186.58237689999805,186.58237689999805,186.58237689999805,186.58237689999805,186.58237689999805,186.58237689999805,186.58237689999805,186.58237689999805,186.58237689999805,186.58237689999805,,007,P009,2025_Feb_01_1406,ConditionRich,2021.2.3,59.91985120666156,
151.75,152.0,41,0.0,Stimuli/Blank.png,0,0,0.0,0,67,67,67,,,,,,,,,,,,,151.76554140000007,0.015541400000074646,None,190.30228639999768,190.30228639999768,190.30228639999768,190.30228639999768,190.30228639999768,190.30228639999768,190.30228639999768,190.30228639999768,190.30228639999768,190.30228639999768,,007,P009,2025_Feb_01_1406,ConditionRich,2021.2.3,59.91985120666156,
152.0,155.75,29,0.75,Stimuli/P009/things_fingerprint_05s.jpg,0,0,0.0,0,68,68,68,,,,,,,,,,,,,151.99910669999736,-0.000893300002644537,None,190.53582449999885,190.53582449999885,190.53582449999885,190.53582449999885,190.53582449999885,190.53582449999885,190.53582449999885,190.53582449999885,190.53582449999885,190.53582449999885,,007,P009,2025_Feb_01_1406,ConditionRich,2021.2.3,59.91985120666156,
155.75,156.0,41,0.0,Stimuli/Blank.png,0,0,0.0,0,69,69,69,,,,,,,,,,,,,155.75243659999978,0.0024365999997826293,None,194.28919289999976,194.28919289999976,194.28919289999976,194.28919289999976,194.28919289999976,194.28919289999976,194.28919289999976,194.28919289999976,194.28919289999976,194.28919289999976,,007,P009,2025_Feb_01_1406,ConditionRich,2021.2.3,59.91985120666156,
156.0,159.75,20,0.75,Stimuli/P009/sun_ddsiwinthvyejghq.jpg,0,0,0.0,0,70,70,70,,,,,,,,,,,,,156.00422699999763,0.00422699999762699,1,194.5560403999989,194.5560403999989,194.5560403999989,194.5560403999989,194.5560403999989,194.5560403999989,194.5560403999989,194.5560403999989,194.5560403999989,194.5560403999989,0.23437770000236924,007,P009,2025_Feb_01_1406,ConditionRich,2021.2.3,59.91985120666156,
159.75,160.0,41,0.0,Stimuli/Blank.png,0,0,0.0,0,71,71,71,,,,,,,,,,,,,159.77388009999777,0.02388009999776841,None,198.3093848999997,198.3093848999997,198.3093848999997,198.3093848999997,198.3093848999997,198.3093848999997,198.3093848999997,198.3093848999997,198.3093848999997,198.3093848999997,,007,P009,2025_Feb_01_1406,ConditionRich,2021.2.3,59.91985120666156,
160.0,163.75,24,0.75,Stimuli/P009/things_cigar_05n.jpg,0,0,0.0,0,72,72,72,,,,,,,,,,,,,160.00708219999797,0.007082199997967109,None,198.55958779999855,198.55958779999855,198.55958779999855,198.55958779999855,198.55958779999855,198.55958779999855,198.55958779999855,198.55958779999855,198.55958779999855,198.55958779999855,,007,P009,2025_Feb_01_1406,ConditionRich,2021.2.3,59.91985120666156,
163.75,164.0,41,0.0,Stimuli/Blank.png,0,0,0.0,0,73,73,73,,,,,,,,,,,,,163.77682749999803,0.02682749999803491,None,202.31292819999726,202.31292819999726,202.31292819999726,202.31292819999726,202.31292819999726,202.31292819999726,202.31292819999726,202.31292819999726,202.31292819999726,202.31292819999726,,007,P009,2025_Feb_01_1406,ConditionRich,2021.2.3,59.91985120666156,
164.0,167.75,27,0.75,Stimuli/P009/things_curling_iron_05s.jpg,0,0,0.0,0,74,74,74,,,,,,,,,,,,,164.00974700000006,0.009747000000061234,None,202.54644519999783,202.54644519999783,202.54644519999783,202.54644519999783,202.54644519999783,202.54644519999783,202.54644519999783,202.54644519999783,202.54644519999783,202.54644519999783,,007,P009,2025_Feb_01_1406,ConditionRich,2021.2.3,59.91985120666156,
167.75,168.0,41,0.0,Stimuli/Blank.png,0,0,0.0,0,75,75,75,,,,,,,,,,,,,167.76295459999892,0.012954599998920457,None,206.29976759999772,206.29976759999772,206.29976759999772,206.29976759999772,206.29976759999772,206.29976759999772,206.29976759999772,206.29976759999772,206.29976759999772,206.29976759999772,,007,P009,2025_Feb_01_1406,ConditionRich,2021.2.3,59.91985120666156,
168.0,171.75,4,0.75,Stimuli/P009/sun_afkzdukwewwzqtmr.jpg,1,1,1.75,0,76,76,76,,,,,,,,,,,,,168.0138393999987,0.01383939999868744,1,206.54998849999902,206.54998849999902,206.54998849999902,206.54998849999902,206.54998849999902,206.54998849999902,207.53419439999925,208.28485530000034,206.54998849999902,206.54998849999902,1.4354445999997552,007,P009,2025_Feb_01_1406,ConditionRich,2021.2.3,59.91985120666156,
171.75,172.0,41,0.0,Stimuli/Blank.png,0,0,0.0,0,77,77,77,,,,,,,,,,,,,171.75003079999806,3.079999805777334e-05,None,210.28662839999743,210.28662839999743,210.28662839999743,210.28662839999743,210.28662839999743,210.28662839999743,210.28662839999743,210.28662839999743,210.28662839999743,210.28662839999743,,007,P009,2025_Feb_01_1406,ConditionRich,2021.2.3,59.91985120666156,
172.0,175.75,23,0.75,Stimuli/P009/things_charger_05s.jpg,1,2,2.75,0,78,78,78,,,,,,,,,,,,,172.00214259999848,0.002142599998478545,1,210.5535267999985,210.5535267999985,210.5535267999985,210.5535267999985,210.5535267999985,210.5535267999985,212.52197969999906,213.27265819999957,210.5535267999985,210.5535267999985,2.370188999997481,007,P009,2025_Feb_01_1406,ConditionRich,2021.2.3,59.91985120666156,
175.75,176.0,41,0.0,Stimuli/Blank.png,0,0,0.0,0,79,79,79,,,,,,,,,,,,,175.77027619999717,0.020276199997169897,None,214.30685879999874,214.30685879999874,214.30685879999874,214.30685879999874,214.30685879999874,214.30685879999874,214.30685879999874,214.30685879999874,214.30685879999874,214.30685879999874,,007,P009,2025_Feb_01_1406,ConditionRich,2021.2.3,59.91985120666156,
176.0,179.75,12,0.75,Stimuli/P009/sun_birmwgkdtrlevcaf.jpg,0,0,0.0,0,80,80,80,,,,,,,,,,,,,176.00482600000032,0.0048260000003210735,None,214.55707599999732,214.55707599999732,214.55707599999732,214.55707599999732,214.55707599999732,214.55707599999732,214.55707599999732,214.55707599999732,214.55707599999732,214.55707599999732,,007,P009,2025_Feb_01_1406,ConditionRich,2021.2.3,59.91985120666156,
179.75,180.0,41,0.0,Stimuli/Blank.png,0,0,0.0,0,81,81,81,,,,,,,,,,,,,179.77523739999742,0.02523739999742247,None,218.31040999999823,218.31040999999823,218.31040999999823,218.31040999999823,218.31040999999823,218.31040999999823,218.31040999999823,218.31040999999823,218.31040999999823,218.31040999999823,,007,P009,2025_Feb_01_1406,ConditionRich,2021.2.3,59.91985120666156,
180.0,196.0,0,0.0,Stimuli/Blank.png,1,7,7.75,0,82,82,82,,,,,,,,,,,,,180.0082369999982,0.008236999998189276,1,218.54391029999897,218.54391029999897,218.54391029999897,218.54391029999897,218.54391029999897,218.54391029999897,225.5334745,226.28411849999975,218.54391029999897,218.54391029999897,7.427774899999349,007,P009,2025_Feb_01_1406,ConditionRich,2021.2.3,59.91985120666156,
196.0,199.75,14,0.75,Stimuli/P009/sun_blaqxdebghixzyyw.jpg,0,0,0.0,0,83,83,83,,,,,,,,,,,,,196.00488029999906,0.0048802999990584794,None,234.54142089999732,234.54142089999732,234.54142089999732,234.54142089999732,234.54142089999732,234.54142089999732,234.54142089999732,234.54142089999732,234.54142089999732,234.54142089999732,,007,P009,2025_Feb_01_1406,ConditionRich,2021.2.3,59.91985120666156,
199.75,200.0,41,0.0,Stimuli/Blank.png,0,0,0.0,0,84,84,84,,,,,,,,,,,,,199.75832459999947,0.008324599999468774,None,238.29471949999788,238.29471949999788,238.29471949999788,238.29471949999788,238.29471949999788,238.29471949999788,238.29471949999788,238.29471949999788,238.29471949999788,238.29471949999788,,007,P009,2025_Feb_01_1406,ConditionRich,2021.2.3,59.91985120666156,
200.0,203.75,5,0.75,Stimuli/P009/sun_akqvdmuauoxeafrj.jpg,1,0,0.75,0,85,85,85,,,,,,,,,,,,,200.00867559999824,0.008675599998241523,1,238.54496149999977,238.54496149999977,238.54496149999977,238.54496149999977,238.54496149999977,238.54496149999977,238.54496149999977,239.27894379999998,238.54496149999977,238.54496149999977,0.43650909999996657,007,P009,2025_Feb_01_1406,ConditionRich,2021.2.3,59.91985120666156,
203.75,204.0,41,0.0,Stimuli/Blank.png,0,0,0.0,0,86,86,86,,,,,,,,,,,,,203.7615979000002,0.011597900000197114,None,242.2983400999983,242.2983400999983,242.2983400999983,242.2983400999983,242.2983400999983,242.2983400999983,242.2983400999983,242.2983400999983,242.2983400999983,242.2983400999983,,007,P009,2025_Feb_01_1406,ConditionRich,2021.2.3,59.91985120666156,
204.0,207.75,10,0.75,Stimuli/P009/sun_bdkttewvyfdarikm.jpg,0,0,0.0,0,87,87,87,,,,,,,,,,,,,204.01385389999996,0.01385389999995823,None,242.56517890000032,242.56517890000032,242.56517890000032,242.56517890000032,242.56517890000032,242.56517890000032,242.56517890000032,242.56517890000032,242.56517890000032,242.56517890000032,,007,P009,2025_Feb_01_1406,ConditionRich,2021.2.3,59.91985120666156,
207.75,208.0,41,0.0,Stimuli/Blank.png,0,0,0.0,0,88,88,88,,,,,,,,,,,,,207.7651799999985,0.01517999999850872,None,246.30183150000084,246.30183150000084,246.30183150000084,246.30183150000084,246.30183150000084,246.30183150000084,246.30183150000084,246.30183150000084,246.30183150000084,246.30183150000084,,007,P009,2025_Feb_01_1406,ConditionRich,2021.2.3,59.91985120666156,
208.0,211.75,17,0.75,Stimuli/P009/sun_brkrfjpyfglmigkk.jpg,0,0,0.0,0,89,89,89,,,,,,,,,,,,,208.01581570000053,0.01581570000053034,None,246.55203360000087,246.55203360000087,246.55203360000087,246.55203360000087,246.55203360000087,246.55203360000087,246.55203360000087,246.55203360000087,246.55203360000087,246.55203360000087,,007,P009,2025_Feb_01_1406,ConditionRich,2021.2.3,59.91985120666156,
211.75,212.0,41,0.0,Stimuli/Blank.png,0,0,0.0,0,90,90,90,,,,,,,,,,,,,211.7532296999998,0.0032296999997925013,None,250.28868969999894,250.28868969999894,250.28868969999894,250.28868969999894,250.28868969999894,250.28868969999894,250.28868969999894,250.28868969999894,250.28868969999894,250.28868969999894,,007,P009,2025_Feb_01_1406,ConditionRich,2021.2.3,59.91985120666156,
212.0,215.75,19,0.75,Stimuli/P009/sun_bwvfnogmotsvhofs.jpg,1,2,2.75,0,91,91,91,,,,,,,,,,,,,212.0049760999973,0.004976099997293204,None,250.55558499999825,250.55558499999825,250.55558499999825,250.55558499999825,250.55558499999825,250.55558499999825,252.54066389999934,253.29137059999994,250.55558499999825,250.55558499999825,,007,P009,2025_Feb_01_1406,ConditionRich,2021.2.3,59.91985120666156,
215.75,216.0,41,0.0,Stimuli/Blank.png,0,0,0.0,0,92,92,92,,,,,,,,,,,,,215.77486999999746,0.02486999999746331,None,254.32559249999758,254.32559249999758,254.32559249999758,254.32559249999758,254.32559249999758,254.32559249999758,254.32559249999758,254.32559249999758,254.32559249999758,254.32559249999758,,007,P009,2025_Feb_01_1406,ConditionRich,2021.2.3,59.91985120666156,
216.0,219.75,38,0.75,Stimuli/P009/things_roadsweeper_05s.jpg,1,3,3.75,0,93,93,93,,,,,,,,,,,,,216.02247569999963,0.022475699999631615,1,254.5591217000001,254.5591217000001,254.5591217000001,254.5591217000001,254.5591217000001,254.5591217000001,257.5451011999976,None,254.5591217000001,254.5591217000001,3.497242500001448,007,P009,2025_Feb_01_1406,ConditionRich,2021.2.3,59.91985120666156,
219.75,220.0,41,0.0,Stimuli/Blank.png,0,0,0.0,0,94,94,94,,,,,,,,,,,,,219.75937989999875,0.009379899998748442,None,258.2957877999979,258.2957877999979,258.2957877999979,258.2957877999979,258.2957877999979,258.2957877999979,258.2957877999979,258.2957877999979,258.2957877999979,258.2957877999979,,007,P009,2025_Feb_01_1406,ConditionRich,2021.2.3,59.91985120666156,
220.0,223.75,26,0.75,Stimuli/P009/things_cookie_sheet_05s.jpg,0,0,0.0,0,95,95,95,,,,,,,,,,,,,220.00914790000024,0.00914790000024368,None,258.5459809999993,258.5459809999993,258.5459809999993,258.5459809999993,258.5459809999993,258.5459809999993,258.5459809999993,258.5459809999993,258.5459809999993,258.5459809999993,,007,P009,2025_Feb_01_1406,ConditionRich,2021.2.3,59.91985120666156,
223.75,224.0,41,0.0,Stimuli/Blank.png,0,0,0.0,0,96,96,96,,,,,,,,,,,,,223.76340010000058,0.013400100000581006,None,262.29932239999835,262.29932239999835,262.29932239999835,262.29932239999835,262.29932239999835,262.29932239999835,262.29932239999835,262.29932239999835,262.29932239999835,262.29932239999835,,007,P009,2025_Feb_01_1406,ConditionRich,2021.2.3,59.91985120666156,
224.0,227.75,13,0.75,Stimuli/P009/sun_bjimvgwadfodioes.jpg,1,2,2.75,0,97,97,97,,,,,,,,,,,,,224.0143308000006,0.014330800000607269,1,262.5662075,262.5662075,262.5662075,262.5662075,262.5662075,262.5662075,264.5346090999992,265.2866374000005,262.5662075,262.5662075,2.5363327999984904,007,P009,2025_Feb_01_1406,ConditionRich,2021.2.3,59.91985120666156,
227.75,228.0,41,0.0,Stimuli/Blank.png,0,0,0.0,0,98,98,98,,,,,,,,,,,,,227.7661350999988,0.016135099998791702,None,266.30284609999944,266.30284609999944,266.30284609999944,266.30284609999944,266.30284609999944,266.30284609999944,266.30284609999944,266.30284609999944,266.30284609999944,266.30284609999944,,007,P009,2025_Feb_01_1406,ConditionRich,2021.2.3,59.91985120666156,
228.0,231.75,12,0.75,Stimuli/P009/sun_birmwgkdtrlevcaf.jpg,0,0,0.0,0,99,99,99,,,,,,,,,,,,,228.00023229999715,0.0002322999971511308,None,266.5363746000003,266.5363746000003,266.5363746000003,266.5363746000003,266.5363746000003,266.5363746000003,266.5363746000003,266.5363746000003,266.5363746000003,266.5363746000003,,007,P009,2025_Feb_01_1406,ConditionRich,2021.2.3,59.91985120666156,
231.75,232.0,41,0.0,Stimuli/Blank.png,0,0,0.0,0,100,100,100,,,,,,,,,,,,,231.7534857999999,0.003485799999907613,None,270.2897051,270.2897051,270.2897051,270.2897051,270.2897051,270.2897051,270.2897051,270.2897051,270.2897051,270.2897051,,007,P009,2025_Feb_01_1406,ConditionRich,2021.2.3,59.91985120666156,
232.0,235.75,4,0.75,Stimuli/P009/sun_afkzdukwewwzqtmr.jpg,0,0,0.0,0,101,101,101,,,,,,,,,,,,,232.00384399999894,0.0038439999989350326,None,270.5566362999998,270.5566362999998,270.5566362999998,270.5566362999998,270.5566362999998,270.5566362999998,270.5566362999998,270.5566362999998,270.5566362999998,270.5566362999998,,007,P009,2025_Feb_01_1406,ConditionRich,2021.2.3,59.91985120666156,
235.75,236.0,41,0.0,Stimuli/Blank.png,0,0,0.0,0,102,102,102,,,,,,,,,,,,,235.7733578999978,0.02335789999779081,None,274.3099540000003,274.3099540000003,274.3099540000003,274.3099540000003,274.3099540000003,274.3099540000003,274.3099540000003,274.3099540000003,274.3099540000003,274.3099540000003,,007,P009,2025_Feb_01_1406,ConditionRich,2021.2.3,59.91985120666156,
236.0,239.75,37,0.75,Stimuli/P009/things_pug_05s.jpg,0,0,0.0,0,103,103,103,,,,,,,,,,,,,236.00745610000013,0.007456100000126753,None,274.5434628999974,274.5434628999974,274.5434628999974,274.5434628999974,274.5434628999974,274.5434628999974,274.5434628999974,274.5434628999974,274.5434628999974,274.5434628999974,,007,P009,2025_Feb_01_1406,ConditionRich,2021.2.3,59.91985120666156,
239.75,240.0,41,0.0,Stimuli/Blank.png,0,0,0.0,0,104,104,104,,,,,,,,,,,,,239.7607363999996,0.010736399999586865,None,278.29677529999753,278.29677529999753,278.29677529999753,278.29677529999753,278.29677529999753,278.29677529999753,278.29677529999753,278.29677529999753,278.29677529999753,278.29677529999753,,007,P009,2025_Feb_01_1406,ConditionRich,2021.2.3,59.91985120666156,
240.0,243.75,35,0.75,Stimuli/P009/things_mushroom_05n.jpg,0,0,0.0,0,105,105,105,,,,,,,,,,,,,240.01052440000058,0.010524400000576861,None,278.5637069000004,278.5637069000004,278.5637069000004,278.5637069000004,278.5637069000004,278.5637069000004,278.5637069000004,278.5637069000004,278.5637069000004,278.5637069000004,,007,P009,2025_Feb_01_1406,ConditionRich,2021.2.3,59.91985120666156,
243.75,244.0,41,0.0,Stimuli/Blank.png,0,0,0.0,0,106,106,106,,,,,,,,,,,,,243.78036399999837,0.030363999998371582,None,282.31701039999825,282.31701039999825,282.31701039999825,282.31701039999825,282.31701039999825,282.31701039999825,282.31701039999825,282.31701039999825,282.31701039999825,282.31701039999825,,007,P009,2025_Feb_01_1406,ConditionRich,2021.2.3,59.91985120666156,
244.0,247.75,9,0.75,Stimuli/P009/sun_bdjkvwqqqycuixtc.jpg,0,0,0.0,0,107,107,107,,,,,,,,,,,,,244.01464489999853,0.014644899998529581,None,282.56722609999997,282.56722609999997,282.56722609999997,282.56722609999997,282.56722609999997,282.56722609999997,282.56722609999997,282.56722609999997,282.56722609999997,282.56722609999997,,007,P009,2025_Feb_01_1406,ConditionRich,2021.2.3,59.91985120666156,
247.75,248.0,41,0.0,Stimuli/Blank.png,0,0,0.0,0,108,108,108,,,,,,,,,,,,,247.76819299999988,0.018192999999882886,None,286.3038906999973,286.3038906999973,286.3038906999973,286.3038906999973,286.3038906999973,286.3038906999973,286.3038906999973,286.3038906999973,286.3038906999973,286.3038906999973,,007,P009,2025_Feb_01_1406,ConditionRich,2021.2.3,59.91985120666156,
248.0,251.75,32,0.75,Stimuli/P009/things_hawk_05s.jpg,0,0,0.0,0,109,109,109,,,,,,,,,,,,,248.00104339999962,0.0010433999996166676,None,286.5374030999992,286.5374030999992,286.5374030999992,286.5374030999992,286.5374030999992,286.5374030999992,286.5374030999992,286.5374030999992,286.5374030999992,286.5374030999992,,007,P009,2025_Feb_01_1406,ConditionRich,2021.2.3,59.91985120666156,
251.75,252.0,41,0.0,Stimuli/Blank.png,0,0,0.0,0,110,110,110,,,,,,,,,,,,,251.75522679999995,0.005226799999945797,None,290.3073786999994,290.3073786999994,290.3073786999994,290.3073786999994,290.3073786999994,290.3073786999994,290.3073786999994,290.3073786999994,290.3073786999994,290.3073786999994,,007,P009,2025_Feb_01_1406,ConditionRich,2021.2.3,59.91985120666156,
252.0,255.75,23,0.75,Stimuli/P009/things_charger_05s.jpg,0,0,0.0,0,111,111,111,,,,,,,,,,,,,252.0222326999974,0.02223269999740296,None,290.57430869999735,290.57430869999735,290.57430869999735,290.57430869999735,290.57430869999735,290.57430869999735,290.57430869999735,290.57430869999735,290.57430869999735,290.57430869999735,,007,P009,2025_Feb_01_1406,ConditionRich,2021.2.3,59.91985120666156,
255.75,256.0,41,0.0,Stimuli/Blank.png,0,0,0.0,0,112,112,112,,,,,,,,,,,,,255.77438880000045,0.024388800000451738,None,294.3109764000001,294.3109764000001,294.3109764000001,294.3109764000001,294.3109764000001,294.3109764000001,294.3109764000001,294.3109764000001,294.3109764000001,294.3109764000001,,007,P009,2025_Feb_01_1406,ConditionRich,2021.2.3,59.91985120666156,
256.0,259.75,28,0.75,Stimuli/P009/things_face_05s.jpg,1,2,2.75,0,113,113,113,,,,,,,,,,,,,256.00976289999744,0.0097628999974404,1,294.56116499999916,294.56116499999916,294.56116499999916,294.56116499999916,294.56116499999916,294.56116499999916,296.54625459999806,297.2969692999977,294.56116499999916,294.56116499999916,3.147312900000543,007,P009,2025_Feb_01_1406,ConditionRich,2021.2.3,59.91985120666156,
259.75,260.0,41,0.0,Stimuli/Blank.png,0,0,0.0,0,114,114,114,,,,,,,,,,,,,259.7790399999976,0.029039999997621635,None,298.31451899999956,298.31451899999956,298.31451899999956,298.31451899999956,298.31451899999956,298.31451899999956,298.31451899999956,298.31451899999956,298.31451899999956,298.31451899999956,,007,P009,2025_Feb_01_1406,ConditionRich,2021.2.3,59.91985120666156,
260.0,263.75,27,0.75,Stimuli/P009/things_curling_iron_05s.jpg,0,0,0.0,0,115,115,115,,,,,,,,,,,,,260.013738499998,0.013738499997998588,None,298.5647177999999,298.5647177999999,298.5647177999999,298.5647177999999,298.5647177999999,298.5647177999999,298.5647177999999,298.5647177999999,298.5647177999999,298.5647177999999,,007,P009,2025_Feb_01_1406,ConditionRich,2021.2.3,59.91985120666156,
263.75,264.0,41,0.0,Stimuli/Blank.png,0,0,0.0,0,116,116,116,,,,,,,,,,,,,263.7654776999989,0.0154776999988826,None,302.3013654999995,302.3013654999995,302.3013654999995,302.3013654999995,302.3013654999995,302.3013654999995,302.3013654999995,302.3013654999995,302.3013654999995,302.3013654999995,,007,P009,2025_Feb_01_1406,ConditionRich,2021.2.3,59.91985120666156,
264.0,267.75,15,0.75,Stimuli/P009/sun_boryivbddrnarrbo.jpg,0,0,0.0,0,117,117,117,,,,,,,,,,,,,263.99927000000025,-0.0007299999997485429,None,302.5516131000004,302.5516131000004,302.5516131000004,302.5516131000004,302.5516131000004,302.5516131000004,302.5516131000004,302.5516131000004,302.5516131000004,302.5516131000004,,007,P009,2025_Feb_01_1406,ConditionRich,2021.2.3,59.91985120666156,
267.75,268.0,41,0.0,Stimuli/Blank.png,0,0,0.0,0,118,118,118,,,,,,,,,,,,,267.7685265,0.018526500000007218,None,306.30489229999876,306.30489229999876,306.30489229999876,306.30489229999876,306.30489229999876,306.30489229999876,306.30489229999876,306.30489229999876,306.30489229999876,306.30489229999876,,007,P009,2025_Feb_01_1406,ConditionRich,2021.2.3,59.91985120666156,
268.0,271.75,40,0.75,Stimuli/P009/things_woman_05s.jpg,0,0,0.0,0,119,119,119,,,,,,,,,,,,,268.0038332999975,0.0038332999974954873,None,306.55511829999887,306.55511829999887,306.55511829999887,306.55511829999887,306.55511829999887,306.55511829999887,306.55511829999887,306.55511829999887,306.55511829999887,306.55511829999887,,007,P009,2025_Feb_01_1406,ConditionRich,2021.2.3,59.91985120666156,
271.75,272.0,41,0.0,Stimuli/Blank.png,0,0,0.0,0,120,120,120,,,,,,,,,,,,,271.7716376999997,0.021637699999701,None,310.30848849999893,310.30848849999893,310.30848849999893,310.30848849999893,310.30848849999893,310.30848849999893,310.30848849999893,310.30848849999893,310.30848849999893,310.30848849999893,,007,P009,2025_Feb_01_1406,ConditionRich,2021.2.3,59.91985120666156,
272.0,275.75,24,0.75,Stimuli/P009/things_cigar_05n.jpg,0,0,0.0,0,121,121,121,,,,,,,,,,,,,272.0052829999986,0.005282999998598825,None,310.54196989999764,310.54196989999764,310.54196989999764,310.54196989999764,310.54196989999764,310.54196989999764,310.54196989999764,310.54196989999764,310.54196989999764,310.54196989999764,,007,P009,2025_Feb_01_1406,ConditionRich,2021.2.3,59.91985120666156,
275.75,276.0,41,0.0,Stimuli/Blank.png,0,0,0.0,0,122,122,122,,,,,,,,,,,,,275.7594489000003,0.009448900000279536,None,314.29529679999905,314.29529679999905,314.29529679999905,314.29529679999905,314.29529679999905,314.29529679999905,314.29529679999905,314.29529679999905,314.29529679999905,314.29529679999905,,007,P009,2025_Feb_01_1406,ConditionRich,2021.2.3,59.91985120666156,
276.0,292.0,0,0.0,Stimuli/Blank.png,1,1,1.75,0,123,123,123,,,,,,,,,,,,,276.0101845999998,0.010184599999774946,1,314.54552440000043,314.54552440000043,314.54552440000043,314.54552440000043,314.54552440000043,314.54552440000043,315.529720999999,316.28042060000007,314.54552440000043,314.54552440000043,1.4009788000003027,007,P009,2025_Feb_01_1406,ConditionRich,2021.2.3,59.91985120666156,
292.0,295.75,8,0.75,Stimuli/P009/sun_batcnoizlkeiqdtx.jpg,1,1,1.75,0,124,124,124,,,,,,,,,,,,,292.0064162999988,0.006416299998818431,1,330.5597482999983,330.5597482999983,330.5597482999983,330.5597482999983,330.5597482999983,330.5597482999983,331.5272936000001,332.2779111999989,330.5597482999983,330.5597482999983,1.4166973999999755,007,P009,2025_Feb_01_1406,ConditionRich,2021.2.3,59.91985120666156,
295.75,296.0,41,0.0,Stimuli/Blank.png,0,0,0.0,0,125,125,125,,,,,,,,,,,,,295.7798659999971,0.0298659999971278,None,334.32971089999774,334.32971089999774,334.32971089999774,334.32971089999774,334.32971089999774,334.32971089999774,334.32971089999774,334.32971089999774,334.32971089999774,334.32971089999774,,007,P009,2025_Feb_01_1406,ConditionRich,2021.2.3,59.91985120666156,
296.0,299.75,11,0.75,Stimuli/P009/sun_bfyvfqiimvdaxlqn.jpg,1,1,1.75,0,126,126,126,,,,,,,,,,,,,296.0276534000004,0.027653400000417605,None,334.56322929999806,334.56322929999806,334.56322929999806,334.56322929999806,334.56322929999806,334.56322929999806,335.54745849999745,336.2981374999981,334.56322929999806,334.56322929999806,,007,P009,2025_Feb_01_1406,ConditionRich,2021.2.3,59.91985120666156,
299.75,300.0,41,0.0,Stimuli/Blank.png,0,0,0.0,0,127,127,127,,,,,,,,,,,,,299.7635283999989,0.013528399998904206,None,338.29985849999866,338.29985849999866,338.29985849999866,338.29985849999866,338.29985849999866,338.29985849999866,338.29985849999866,338.29985849999866,338.29985849999866,338.29985849999866,,007,P009,2025_Feb_01_1406,ConditionRich,2021.2.3,59.91985120666156,
300.0,303.75,34,0.75,Stimuli/P009/things_man_05s.jpg,0,0,0.0,0,128,128,128,,,,,,,,,,,,,300.0147638999988,0.01476389999879757,None,338.55008259999886,338.55008259999886,338.55008259999886,338.55008259999886,338.55008259999886,338.55008259999886,338.55008259999886,338.55008259999886,338.55008259999886,338.55008259999886,,007,P009,2025_Feb_01_1406,ConditionRich,2021.2.3,59.91985120666156,
303.75,304.0,41,0.0,Stimuli/Blank.png,0,0,0.0,0,129,129,129,,,,,,,,,,,,,303.75059119999787,0.0005911999978707172,None,342.28671549999854,342.28671549999854,342.28671549999854,342.28671549999854,342.28671549999854,342.28671549999854,342.28671549999854,342.28671549999854,342.28671549999854,342.28671549999854,,007,P009,2025_Feb_01_1406,ConditionRich,2021.2.3,59.91985120666156,
304.0,307.75,29,0.75,Stimuli/P009/things_fingerprint_05s.jpg,0,0,0.0,0,130,130,130,,,,,,,,,,,,,304.0003321999975,0.0003321999975014478,None,342.53693679999924,342.53693679999924,342.53693679999924,342.53693679999924,342.53693679999924,342.53693679999924,342.53693679999924,342.53693679999924,342.53693679999924,342.53693679999924,,007,P009,2025_Feb_01_1406,ConditionRich,2021.2.3,59.91985120666156,
307.75,308.0,41,0.0,Stimuli/Blank.png,0,0,0.0,0,131,131,131,,,,,,,,,,,,,307.75346329999957,0.003463299999566516,None,346.2902589000005,346.2902589000005,346.2902589000005,346.2902589000005,346.2902589000005,346.2902589000005,346.2902589000005,346.2902589000005,346.2902589000005,346.2902589000005,,007,P009,2025_Feb_01_1406,ConditionRich,2021.2.3,59.91985120666156,
308.0,311.75,25,0.75,Stimuli/P009/things_clothespin_05s.jpg,0,0,0.0,0,132,132,132,,,,,,,,,,,,,308.0037384999996,0.0037384999995992985,None,346.54048129999865,346.54048129999865,346.54048129999865,346.54048129999865,346.54048129999865,346.54048129999865,346.54048129999865,346.54048129999865,346.54048129999865,346.54048129999865,,007,P009,2025_Feb_01_1406,ConditionRich,2021.2.3,59.91985120666156,
311.75,312.0,41,0.0,Stimuli/Blank.png,0,0,0.0,0,133,133,133,,,,,,,,,,,,,311.75928479999857,0.009284799998567905,None,350.31047150000086,350.31047150000086,350.31047150000086,350.31047150000086,350.31047150000086,350.31047150000086,350.31047150000086,350.31047150000086,350.31047150000086,350.31047150000086,,007,P009,2025_Feb_01_1406,ConditionRich,2021.2.3,59.91985120666156,
312.0,315.75,22,0.75,Stimuli/P009/things_butterfly_05s.jpg,1,2,2.75,0,134,134,134,,,,,,,,,,,,,312.0251438999985,0.025143899998511188,1,350.56070309999996,350.56070309999996,350.56070309999996,350.56070309999996,350.56070309999996,350.56070309999996,352.54579530000046,353.29649679999784,350.56070309999996,350.56070309999996,2.3459867000019585,007,P009,2025_Feb_01_1406,ConditionRich,2021.2.3,59.91985120666156,
315.75,316.0,41,0.0,Stimuli/Blank.png,0,0,0.0,0,135,135,135,,,,,,,,,,,,,315.7613590000001,0.011359000000084052,None,354.29743139999846,354.29743139999846,354.29743139999846,354.29743139999846,354.29743139999846,354.29743139999846,354.29743139999846,354.29743139999846,354.29743139999846,354.29743139999846,,007,P009,2025_Feb_01_1406,ConditionRich,2021.2.3,59.91985120666156,
316.0,319.75,20,0.75,Stimuli/P009/sun_ddsiwinthvyejghq.jpg,1,1,1.75,0,136,136,136,,,,,,,,,,,,,316.01535499999954,0.015354999999544816,1,354.56424010000046,354.56424010000046,354.56424010000046,354.56424010000046,354.56424010000046,354.56424010000046,355.54845139999816,356.29913739999756,354.56424010000046,354.56424010000046,1.3853806000006443,007,P009,2025_Feb_01_1406,ConditionRich,2021.2.3,59.91985120666156,
319.75,320.0,41,0.0,Stimuli/Blank.png,0,0,0.0,0,137,137,137,,,,,,,,,,,,,319.76441729999715,0.014417299997148803,None,358.30088109999997,358.30088109999997,358.30088109999997,358.30088109999997,358.30088109999997,358.30088109999997,358.30088109999997,358.30088109999997,358.30088109999997,358.30088109999997,,007,P009,2025_Feb_01_1406,ConditionRich,2021.2.3,59.91985120666156,
320.0,323.75,30,0.75,Stimuli/P009/things_fire_05s.jpg,0,0,0.0,0,138,138,138,,,,,,,,,,,,,320.0144368000001,0.014436800000112271,None,358.5511015999982,358.5511015999982,358.5511015999982,358.5511015999982,358.5511015999982,358.5511015999982,358.5511015999982,358.5511015999982,358.5511015999982,358.5511015999982,,007,P009,2025_Feb_01_1406,ConditionRich,2021.2.3,59.91985120666156,
323.75,324.0,41,0.0,Stimuli/Blank.png,0,0,0.0,0,139,139,139,,,,,,,,,,,,,323.7545237999984,0.004523799998423783,None,362.3044267000005,362.3044267000005,362.3044267000005,362.3044267000005,362.3044267000005,362.3044267000005,362.3044267000005,362.3044267000005,362.3044267000005,362.3044267000005,,007,P009,2025_Feb_01_1406,ConditionRich,2021.2.3,59.91985120666156,
324.0,327.75,21,0.75,Stimuli/P009/things_boy_05s.jpg,0,0,0.0,0,140,140,140,,,,,,,,,,,,,324.0197079999998,0.019707999999809545,None,362.5713429999996,362.5713429999996,362.5713429999996,362.5713429999996,362.5713429999996,362.5713429999996,362.5713429999996,362.5713429999996,362.5713429999996,362.5713429999996,,007,P009,2025_Feb_01_1406,ConditionRich,2021.2.3,59.91985120666156,
327.75,328.0,41,0.0,Stimuli/Blank.png,0,0,0.0,0,141,141,141,,,,,,,,,,,,,327.7721877999975,0.022187799997482216,None,366.3079894000002,366.3079894000002,366.3079894000002,366.3079894000002,366.3079894000002,366.3079894000002,366.3079894000002,366.3079894000002,366.3079894000002,366.3079894000002,,007,P009,2025_Feb_01_1406,ConditionRich,2021.2.3,59.91985120666156,
328.0,331.75,31,0.75,Stimuli/P009/things_girl_05s.jpg,0,0,0.0,0,142,142,142,,,,,,,,,,,,,328.0049005000001,0.004900500000076136,None,366.54151249999995,366.54151249999995,366.54151249999995,366.54151249999995,366.54151249999995,366.54151249999995,366.54151249999995,366.54151249999995,366.54151249999995,366.54151249999995,,007,P009,2025_Feb_01_1406,ConditionRich,2021.2.3,59.91985120666156,
331.75,332.0,41,0.0,Stimuli/Blank.png,0,0,0.0,0,143,143,143,,,,,,,,,,,,,331.75867669999934,0.008676699999341508,None,370.29483249999976,370.29483249999976,370.29483249999976,370.29483249999976,370.29483249999976,370.29483249999976,370.29483249999976,370.29483249999976,370.29483249999976,370.29483249999976,,007,P009,2025_Feb_01_1406,ConditionRich,2021.2.3,59.91985120666156,
332.0,335.75,6,0.75,Stimuli/P009/sun_amkrwcyvinmsylsz.jpg,0,0,0.0,0,144,144,144,,,,,,,,,,,,,332.0088601999996,0.00886019999961718,None,370.5450505999979,370.5450505999979,370.5450505999979,370.5450505999979,370.5450505999979,370.5450505999979,370.5450505999979,370.5450505999979,370.5450505999979,370.5450505999979,,007,P009,2025_Feb_01_1406,ConditionRich,2021.2.3,59.91985120666156,
335.75,336.0,41,0.0,Stimuli/Blank.png,0,0,0.0,0,145,145,145,,,,,,,,,,,,,335.76398779999727,0.013987799997266848,None,374.3150577999986,374.3150577999986,374.3150577999986,374.3150577999986,374.3150577999986,374.3150577999986,374.3150577999986,374.3150577999986,374.3150577999986,374.3150577999986,,007,P009,2025_Feb_01_1406,ConditionRich,2021.2.3,59.91985120666156,
336.0,339.75,33,0.75,Stimuli/P009/things_lizard_05n.jpg,0,0,0.0,0,146,146,146,,,,,,,,,,,,,336.0293340999997,0.02933409999968717,None,374.5819694999991,374.5819694999991,374.5819694999991,374.5819694999991,374.5819694999991,374.5819694999991,374.5819694999991,374.5819694999991,374.5819694999991,374.5819694999991,,007,P009,2025_Feb_01_1406,ConditionRich,2021.2.3,59.91985120666156,
339.75,340.0,41,0.0,Stimuli/Blank.png,0,0,0.0,0,147,147,147,,,,,,,,,,,,,339.76621089999753,0.01621089999753167,None,378.3019153999994,378.3019153999994,378.3019153999994,378.3019153999994,378.3019153999994,378.3019153999994,378.3019153999994,378.3019153999994,378.3019153999994,378.3019153999994,,007,P009,2025_Feb_01_1406,ConditionRich,2021.2.3,59.91985120666156,
340.0,343.75,7,0.75,Stimuli/P009/sun_apiogxmvvzfmtsmj.jpg,0,0,0.0,0,148,148,148,,,,,,,,,,,,,339.9994050999994,-0.000594900000578491,None,378.5521317999992,378.5521317999992,378.5521317999992,378.5521317999992,378.5521317999992,378.5521317999992,378.5521317999992,378.5521317999992,378.5521317999992,378.5521317999992,,007,P009,2025_Feb_01_1406,ConditionRich,2021.2.3,59.91985120666156,
343.75,344.0,41,0.0,Stimuli/Blank.png,0,0,0.0,0,149,149,149,,,,,,,,,,,,,343.7687294999996,0.01872949999960838,None,382.30545359999815,382.30545359999815,382.30545359999815,382.30545359999815,382.30545359999815,382.30545359999815,382.30545359999815,382.30545359999815,382.30545359999815,382.30545359999815,,007,P009,2025_Feb_01_1406,ConditionRich,2021.2.3,59.91985120666156,
344.0,347.75,3,0.75,Stimuli/P009/sun_aewgwsmvsgzleqhw.jpg,0,0,0.0,0,150,150,150,,,,,,,,,,,,,344.0053253999977,0.00532539999767323,None,382.55567840000003,382.55567840000003,382.55567840000003,382.55567840000003,382.55567840000003,382.55567840000003,382.55567840000003,382.55567840000003,382.55567840000003,382.55567840000003,,007,P009,2025_Feb_01_1406,ConditionRich,2021.2.3,59.91985120666156,
347.75,348.0,41,0.0,Stimuli/Blank.png,0,0,0.0,0,151,151,151,,,,,,,,,,,,,347.77367279999817,0.023672799998166738,None,386.32568209999954,386.32568209999954,386.32568209999954,386.32568209999954,386.32568209999954,386.32568209999954,386.32568209999954,386.32568209999954,386.32568209999954,386.32568209999954,,007,P009,2025_Feb_01_1406,ConditionRich,2021.2.3,59.91985120666156,
348.0,351.75,1,0.75,Stimuli/P009/sun_abqdlumenyzawlme.jpg,0,0,0.0,0,152,152,152,,,,,,,,,,,,,348.0241550999999,0.024155099999916274,None,386.57590779999737,386.57590779999737,386.57590779999737,386.57590779999737,386.57590779999737,386.57590779999737,386.57590779999737,386.57590779999737,386.57590779999737,386.57590779999737,,007,P009,2025_Feb_01_1406,ConditionRich,2021.2.3,59.91985120666156,
351.75,352.0,41,0.0,Stimuli/Blank.png,0,0,0.0,0,153,153,153,,,,,,,,,,,,,351.77651729999707,0.026517299997067312,None,390.3125325000001,390.3125325000001,390.3125325000001,390.3125325000001,390.3125325000001,390.3125325000001,390.3125325000001,390.3125325000001,390.3125325000001,390.3125325000001,,007,P009,2025_Feb_01_1406,ConditionRich,2021.2.3,59.91985120666156,
352.0,355.75,39,0.75,Stimuli/P009/things_tiara_05s.jpg,0,0,0.0,0,154,154,154,,,,,,,,,,,,,352.01099389999945,0.010993899999448331,None,390.56277299999783,390.56277299999783,390.56277299999783,390.56277299999783,390.56277299999783,390.56277299999783,390.56277299999783,390.56277299999783,390.56277299999783,390.56277299999783,,007,P009,2025_Feb_01_1406,ConditionRich,2021.2.3,59.91985120666156,
355.75,356.0,41,0.0,Stimuli/Blank.png,0,0,0.0,0,155,155,155,,,,,,,,,,,,,355.77940279999893,0.029402799998933915,None,394.3160831999994,394.3160831999994,394.3160831999994,394.3160831999994,394.3160831999994,394.3160831999994,394.3160831999994,394.3160831999994,394.3160831999994,394.3160831999994,,007,P009,2025_Feb_01_1406,ConditionRich,2021.2.3,59.91985120666156,
356.0,359.75,16,0.75,Stimuli/P009/sun_bqpyqljaflidcauh.jpg,0,0,0.0,0,156,156,156,,,,,,,,,,,,,356.0141478999976,0.014147899997624336,None,394.56629129999783,394.56629129999783,394.56629129999783,394.56629129999783,394.56629129999783,394.56629129999783,394.56629129999783,394.56629129999783,394.56629129999783,394.56629129999783,,007,P009,2025_Feb_01_1406,ConditionRich,2021.2.3,59.91985120666156,
359.75,360.0,41,0.0,Stimuli/Blank.png,0,0,0.0,0,157,157,157,,,,,,,,,,,,,359.76643989999866,0.016439899998658802,None,398.3029370999975,398.3029370999975,398.3029370999975,398.3029370999975,398.3029370999975,398.3029370999975,398.3029370999975,398.3029370999975,398.3029370999975,398.3029370999975,,007,P009,2025_Feb_01_1406,ConditionRich,2021.2.3,59.91985120666156,
360.0,363.75,2,0.75,Stimuli/P009/sun_acvloibbxiqpiwnv.jpg,0,0,0.0,0,158,158,158,,,,,,,,,,,,,359.99983879999854,-0.00016120000145747326,None,398.53649589999986,398.53649589999986,398.53649589999986,398.53649589999986,398.53649589999986,398.53649589999986,398.53649589999986,398.53649589999986,398.53649589999986,398.53649589999986,,007,P009,2025_Feb_01_1406,ConditionRich,2021.2.3,59.91985120666156,
363.75,364.0,41,0.0,Stimuli/Blank.png,0,0,0.0,0,159,159,159,,,,,,,,,,,,,363.7539574000002,0.0039574000002176035,None,402.28980539999975,402.28980539999975,402.28980539999975,402.28980539999975,402.28980539999975,402.28980539999975,402.28980539999975,402.28980539999975,402.28980539999975,402.28980539999975,,007,P009,2025_Feb_01_1406,ConditionRich,2021.2.3,59.91985120666156,
364.0,367.75,36,0.75,Stimuli/P009/things_pelican_05s.jpg,1,3,3.75,0,160,160,160,,,,,,,,,,,,,364.00460979999843,0.004609799998434028,1,402.556697,402.556697,402.556697,402.556697,402.556697,402.556697,405.52604489999794,406.2766993999976,402.556697,402.556697,3.4517962999998417,007,P009,2025_Feb_01_1406,ConditionRich,2021.2.3,59.91985120666156,
367.75,368.0,41,0.0,Stimuli/Blank.png,0,0,0.0,0,161,161,161,,,,,,,,,,,,,367.77411709999797,0.024117099997965852,None,406.3100142999974,406.3100142999974,406.3100142999974,406.3100142999974,406.3100142999974,406.3100142999974,406.3100142999974,406.3100142999974,406.3100142999974,406.3100142999974,,007,P009,2025_Feb_01_1406,ConditionRich,2021.2.3,59.91985120666156,
368.0,371.75,18,0.75,Stimuli/P009/sun_bwjdahsxcqepqqbm.jpg,0,0,0.0,0,162,162,162,,,,,,,,,,,,,368.0076885999988,0.0076885999988007825,None,406.5440717999991,406.5440717999991,406.5440717999991,406.5440717999991,406.5440717999991,406.5440717999991,406.5440717999991,406.5440717999991,406.5440717999991,406.5440717999991,,007,P009,2025_Feb_01_1406,ConditionRich,2021.2.3,59.91985120666156,
371.75,372.0,41,0.0,Stimuli/Blank.png,0,0,0.0,0,163,163,163,,,,,,,,,,,,,371.76026549999733,0.010265499997331062,None,410.29686709999805,410.29686709999805,410.29686709999805,410.29686709999805,410.29686709999805,410.29686709999805,410.29686709999805,410.29686709999805,410.29686709999805,410.29686709999805,,007,P009,2025_Feb_01_1406,ConditionRich,2021.2.3,59.91985120666156,
372.0,388.0,0,0.0,Stimuli/Blank.png,1,9,9.75,0,164,164,164,,,,,,,,,,,,,372.01089800000045,0.010898000000452157,1,410.5470916999984,410.5470916999984,410.5470916999984,410.5470916999984,410.5470916999984,410.5470916999984,419.5383813999979,420.2723776999992,410.5470916999984,410.5470916999984,9.340601299998525,007,P009,2025_Feb_01_1406,ConditionRich,2021.2.3,59.91985120666156,
