eventStartTime,eventEndTime,eventCond,imSize,imFile,responseEvent,fixRespStart,fixRespEnd,Events.thisRepN,Events.thisTrialN,Events.thisN,Events.thisIndex,Instructions.started,Instructions.stopped,participantReadyResponse.keys,participantReadyResponse.rt,participantReadyResponse.started,participantReadyResponse.stopped,startWaitforTrigger,triggerResponse.keys,triggerResponse.rt,triggerResponse.started,triggerResponse.stopped,globalTimer,actualStartTime,startTimingDiff,participantResponse.keys,participantResponse.started,participantResponse.stopped,image.started,image.stopped,fixationOutside.started,fixationOutside.stopped,fixationResponse.started,fixationResponse.stopped,fixationInside.started,fixationInside.stopped,participantResponse.rt,session,participant,date,expName,psychopyVersion,frameRate,
,,,,,,,,,,,,12.564712999999756,None,1,6.67326900000262,12.564712999999756,None,,,,,,,,,,,,,,,,,,,,,009,P009,2025_Feb_01_1421,ConditionRich,2021.2.3,59.94912717108232,
,,,,,,,,,,,,,,,,,,19.252781600000162,5,14.556790800001181,19.266043399999035,None,,,,,,,,,,,,,,,,009,P009,2025_Feb_01_1421,ConditionRich,2021.2.3,59.94912717108232,
0.0,4.0,0,0.0,Stimuli/Blank.png,0,0,0.0,0,0,0,0,,,,,,,,,,,,33.832181999998284,0.06676840000000084,0.06676840000000084,None,33.9122114999991,None,33.9122114999991,None,33.9122114999991,None,33.9122114999991,33.9122114999991,33.9122114999991,None,,009,P009,2025_Feb_01_1421,ConditionRich,2021.2.3,59.94912717108232,
4.0,4.75,4,0.75,Stimuli/P009/sun_afkzdukwewwzqtmr.jpg,0,0,0.0,0,1,1,1,,,,,,,,,,,,,4.005537700002606,0.005537700002605561,None,37.849321699999564,37.849321699999564,37.849321699999564,37.849321699999564,37.849321699999564,37.849321699999564,37.849321699999564,37.849321699999564,37.849321699999564,37.849321699999564,,009,P009,2025_Feb_01_1421,ConditionRich,2021.2.3,59.94912717108232,
4.75,5.0,41,0.0,Stimuli/Blank.png,0,0,0.0,0,2,2,2,,,,,,,,,,,,,4.75374980000197,0.003749800001969561,None,38.600106300000334,38.600106300000334,38.600106300000334,38.600106300000334,38.600106300000334,38.600106300000334,38.600106300000334,38.600106300000334,38.600106300000334,38.600106300000334,,009,P009,2025_Feb_01_1421,ConditionRich,2021.2.3,59.94912717108232,
5.0,5.75,4,0.75,Stimuli/P009/sun_afkzdukwewwzqtmr.jpg,0,0,0.0,0,3,3,3,,,,,,,,,,,,,5.0039327000013145,0.003932700001314515,None,38.86672610000096,38.86672610000096,38.86672610000096,38.86672610000096,38.86672610000096,38.86672610000096,38.86672610000096,38.86672610000096,38.86672610000096,38.86672610000096,,009,P009,2025_Feb_01_1421,ConditionRich,2021.2.3,59.94912717108232,
5.75,6.0,41,0.0,Stimuli/Blank.png,0,0,0.0,0,4,4,4,,,,,,,,,,,,,5.773135900002671,0.023135900002671406,None,39.63421020000169,39.63421020000169,39.63421020000169,39.63421020000169,39.63421020000169,39.63421020000169,39.63421020000169,39.63421020000169,39.63421020000169,39.63421020000169,,009,P009,2025_Feb_01_1421,ConditionRich,2021.2.3,59.94912717108232,
6.0,6.75,4,0.75,Stimuli/P009/sun_afkzdukwewwzqtmr.jpg,0,0,0.0,0,5,5,5,,,,,,,,,,,,,6.023436999999831,0.023436999999830732,None,39.88429679999899,39.88429679999899,39.88429679999899,39.88429679999899,39.88429679999899,39.88429679999899,39.88429679999899,39.88429679999899,39.88429679999899,39.88429679999899,,009,P009,2025_Feb_01_1421,ConditionRich,2021.2.3,59.94912717108232,
6.75,7.0,41,0.0,Stimuli/Blank.png,0,0,0.0,0,6,6,6,,,,,,,,,,,,,6.772061100000428,0.02206110000042827,None,40.61832960000174,40.61832960000174,40.61832960000174,40.61832960000174,40.61832960000174,40.61832960000174,40.61832960000174,40.61832960000174,40.61832960000174,40.61832960000174,,009,P009,2025_Feb_01_1421,ConditionRich,2021.2.3,59.94912717108232,
7.0,7.75,4,0.75,Stimuli/P009/sun_afkzdukwewwzqtmr.jpg,0,0,0.0,0,7,7,7,,,,,,,,,,,,,7.005765100002463,0.005765100002463441,None,40.85189729999911,40.85189729999911,40.85189729999911,40.85189729999911,40.85189729999911,40.85189729999911,40.85189729999911,40.85189729999911,40.85189729999911,40.85189729999911,,009,P009,2025_Feb_01_1421,ConditionRich,2021.2.3,59.94912717108232,
7.75,8.0,41,0.0,Stimuli/Blank.png,0,0,0.0,0,8,8,8,,,,,,,,,,,,,7.755900600001041,0.005900600001041312,None,41.60252689999834,41.60252689999834,41.60252689999834,41.60252689999834,41.60252689999834,41.60252689999834,41.60252689999834,41.60252689999834,41.60252689999834,41.60252689999834,,009,P009,2025_Feb_01_1421,ConditionRich,2021.2.3,59.94912717108232,
8.0,8.75,17,0.75,Stimuli/P009/sun_brkrfjpyfglmigkk.jpg,0,0,0.0,0,9,9,9,,,,,,,,,,,,,8.005987399999867,0.005987399999867193,None,41.86960900000122,41.86960900000122,41.86960900000122,41.86960900000122,41.86960900000122,41.86960900000122,41.86960900000122,41.86960900000122,41.86960900000122,41.86960900000122,,009,P009,2025_Feb_01_1421,ConditionRich,2021.2.3,59.94912717108232,
8.75,9.0,41,0.0,Stimuli/Blank.png,0,0,0.0,0,10,10,10,,,,,,,,,,,,,8.77436310000121,0.024363100001210114,None,42.63680419999946,42.63680419999946,42.63680419999946,42.63680419999946,42.63680419999946,42.63680419999946,42.63680419999946,42.63680419999946,42.63680419999946,42.63680419999946,,009,P009,2025_Feb_01_1421,ConditionRich,2021.2.3,59.94912717108232,
9.0,9.75,17,0.75,Stimuli/P009/sun_brkrfjpyfglmigkk.jpg,0,0,0.0,0,11,11,11,,,,,,,,,,,,,9.023630600000615,0.02363060000061523,None,42.87030379999851,42.87030379999851,42.87030379999851,42.87030379999851,42.87030379999851,42.87030379999851,42.87030379999851,42.87030379999851,42.87030379999851,42.87030379999851,,009,P009,2025_Feb_01_1421,ConditionRich,2021.2.3,59.94912717108232,
9.75,10.0,41,0.0,Stimuli/Blank.png,0,0,0.0,0,12,12,12,,,,,,,,,,,,,9.75880590000088,0.008805900000879774,None,43.604377299998305,43.604377299998305,43.604377299998305,43.604377299998305,43.604377299998305,43.604377299998305,43.604377299998305,43.604377299998305,43.604377299998305,43.604377299998305,,009,P009,2025_Feb_01_1421,ConditionRich,2021.2.3,59.94912717108232,
10.0,10.75,17,0.75,Stimuli/P009/sun_brkrfjpyfglmigkk.jpg,0,0,0.0,0,13,13,13,,,,,,,,,,,,,10.007766900002025,0.007766900002025068,None,43.85460310000053,43.85460310000053,43.85460310000053,43.85460310000053,43.85460310000053,43.85460310000053,43.85460310000053,43.85460310000053,43.85460310000053,43.85460310000053,,009,P009,2025_Feb_01_1421,ConditionRich,2021.2.3,59.94912717108232,
10.75,11.0,41,0.0,Stimuli/Blank.png,0,0,0.0,0,14,14,14,,,,,,,,,,,,,10.759848900001089,0.009848900001088623,None,44.6219663999982,44.6219663999982,44.6219663999982,44.6219663999982,44.6219663999982,44.6219663999982,44.6219663999982,44.6219663999982,44.6219663999982,44.6219663999982,,009,P009,2025_Feb_01_1421,ConditionRich,2021.2.3,59.94912717108232,
11.0,11.75,17,0.75,Stimuli/P009/sun_brkrfjpyfglmigkk.jpg,0,0,0.0,0,15,15,15,,,,,,,,,,,,,11.025371300002007,0.025371300002007047,None,44.87216329999865,44.87216329999865,44.87216329999865,44.87216329999865,44.87216329999865,44.87216329999865,44.87216329999865,44.87216329999865,44.87216329999865,44.87216329999865,,009,P009,2025_Feb_01_1421,ConditionRich,2021.2.3,59.94912717108232,
11.75,12.0,41,0.0,Stimuli/Blank.png,0,0,0.0,0,16,16,16,,,,,,,,,,,,,11.759474900001806,0.009474900001805509,None,45.60615740000139,45.60615740000139,45.60615740000139,45.60615740000139,45.60615740000139,45.60615740000139,45.60615740000139,45.60615740000139,45.60615740000139,45.60615740000139,,009,P009,2025_Feb_01_1421,ConditionRich,2021.2.3,59.94912717108232,
12.0,12.75,36,0.75,Stimuli/P009/things_pelican_05s.jpg,0,0,0.0,0,17,17,17,,,,,,,,,,,,,12.00974000000133,0.009740000001329463,None,45.87306230000104,45.87306230000104,45.87306230000104,45.87306230000104,45.87306230000104,45.87306230000104,45.87306230000104,45.87306230000104,45.87306230000104,45.87306230000104,,009,P009,2025_Feb_01_1421,ConditionRich,2021.2.3,59.94912717108232,
12.75,13.0,41,0.0,Stimuli/Blank.png,0,0,0.0,0,18,18,18,,,,,,,,,,,,,12.777628600000753,0.027628600000753067,None,46.623718999999255,46.623718999999255,46.623718999999255,46.623718999999255,46.623718999999255,46.623718999999255,46.623718999999255,46.623718999999255,46.623718999999255,46.623718999999255,,009,P009,2025_Feb_01_1421,ConditionRich,2021.2.3,59.94912717108232,
13.0,13.75,36,0.75,Stimuli/P009/things_pelican_05s.jpg,0,0,0.0,0,19,19,19,,,,,,,,,,,,,13.013421900002868,0.013421900002867915,None,46.873942300000635,46.873942300000635,46.873942300000635,46.873942300000635,46.873942300000635,46.873942300000635,46.873942300000635,46.873942300000635,46.873942300000635,46.873942300000635,,009,P009,2025_Feb_01_1421,ConditionRich,2021.2.3,59.94912717108232,
13.75,14.0,41,0.0,Stimuli/Blank.png,0,0,0.0,0,20,20,20,,,,,,,,,,,,,13.778597900000022,0.02859790000002249,None,47.62460750000173,47.62460750000173,47.62460750000173,47.62460750000173,47.62460750000173,47.62460750000173,47.62460750000173,47.62460750000173,47.62460750000173,47.62460750000173,,009,P009,2025_Feb_01_1421,ConditionRich,2021.2.3,59.94912717108232,
14.0,14.75,36,0.75,Stimuli/P009/things_pelican_05s.jpg,0,0,0.0,0,21,21,21,,,,,,,,,,,,,14.011358600000676,0.011358600000676233,None,47.8748368000015,47.8748368000015,47.8748368000015,47.8748368000015,47.8748368000015,47.8748368000015,47.8748368000015,47.8748368000015,47.8748368000015,47.8748368000015,,009,P009,2025_Feb_01_1421,ConditionRich,2021.2.3,59.94912717108232,
14.75,15.0,41,0.0,Stimuli/Blank.png,0,0,0.0,0,22,22,22,,,,,,,,,,,,,14.778803000001062,0.028803000001062173,None,48.625495799999044,48.625495799999044,48.625495799999044,48.625495799999044,48.625495799999044,48.625495799999044,48.625495799999044,48.625495799999044,48.625495799999044,48.625495799999044,,009,P009,2025_Feb_01_1421,ConditionRich,2021.2.3,59.94912717108232,
15.0,15.75,36,0.75,Stimuli/P009/things_pelican_05s.jpg,0,0,0.0,0,23,23,23,,,,,,,,,,,,,15.012929700002132,0.01292970000213245,None,48.85902300000089,48.85902300000089,48.85902300000089,48.85902300000089,48.85902300000089,48.85902300000089,48.85902300000089,48.85902300000089,48.85902300000089,48.85902300000089,,009,P009,2025_Feb_01_1421,ConditionRich,2021.2.3,59.94912717108232,
15.75,16.0,41,0.0,Stimuli/Blank.png,0,0,0.0,0,24,24,24,,,,,,,,,,,,,15.76445760000206,0.014457600002060644,None,49.60969439999826,49.60969439999826,49.60969439999826,49.60969439999826,49.60969439999826,49.60969439999826,49.60969439999826,49.60969439999826,49.60969439999826,49.60969439999826,,009,P009,2025_Feb_01_1421,ConditionRich,2021.2.3,59.94912717108232,
16.0,16.75,1,0.75,Stimuli/P009/sun_abqdlumenyzawlme.jpg,0,0,0.0,0,25,25,25,,,,,,,,,,,,,16.013189400000556,0.013189400000555906,None,49.85991510000167,49.85991510000167,49.85991510000167,49.85991510000167,49.85991510000167,49.85991510000167,49.85991510000167,49.85991510000167,49.85991510000167,49.85991510000167,,009,P009,2025_Feb_01_1421,ConditionRich,2021.2.3,59.94912717108232,
16.75,17.0,41,0.0,Stimuli/Blank.png,0,0,0.0,0,26,26,26,,,,,,,,,,,,,16.764342600003147,0.0143426000031468,None,50.61056910000116,50.61056910000116,50.61056910000116,50.61056910000116,50.61056910000116,50.61056910000116,50.61056910000116,50.61056910000116,50.61056910000116,50.61056910000116,,009,P009,2025_Feb_01_1421,ConditionRich,2021.2.3,59.94912717108232,
17.0,17.75,1,0.75,Stimuli/P009/sun_abqdlumenyzawlme.jpg,0,0,0.0,0,27,27,27,,,,,,,,,,,,,17.014244300000428,0.014244300000427756,None,50.86079450000034,50.86079450000034,50.86079450000034,50.86079450000034,50.86079450000034,50.86079450000034,50.86079450000034,50.86079450000034,50.86079450000034,50.86079450000034,,009,P009,2025_Feb_01_1421,ConditionRich,2021.2.3,59.94912717108232,
17.75,18.0,41,0.0,Stimuli/Blank.png,0,0,0.0,0,28,28,28,,,,,,,,,,,,,17.76566610000009,0.0156661000000895,None,51.61154270000043,51.61154270000043,51.61154270000043,51.61154270000043,51.61154270000043,51.61154270000043,51.61154270000043,51.61154270000043,51.61154270000043,51.61154270000043,,009,P009,2025_Feb_01_1421,ConditionRich,2021.2.3,59.94912717108232,
18.0,18.75,1,0.75,Stimuli/P009/sun_abqdlumenyzawlme.jpg,1,0,0.75,0,29,29,29,,,,,,,,,,,,,18.000393500002247,0.0003935000022465829,1,51.86169489999884,51.86169489999884,51.86169489999884,51.86169489999884,51.86169489999884,51.86169489999884,51.86169489999884,52.57898049999858,51.86169489999884,51.86169489999884,0.5162968000004184,009,P009,2025_Feb_01_1421,ConditionRich,2021.2.3,59.94912717108232,
18.75,19.0,41,0.0,Stimuli/Blank.png,0,0,0.0,0,30,30,30,,,,,,,,,,,,,18.768510300000344,0.018510300000343705,None,52.62905580000006,52.62905580000006,52.62905580000006,52.62905580000006,52.62905580000006,52.62905580000006,52.62905580000006,52.62905580000006,52.62905580000006,52.62905580000006,,009,P009,2025_Feb_01_1421,ConditionRich,2021.2.3,59.94912717108232,
19.0,19.75,1,0.75,Stimuli/P009/sun_abqdlumenyzawlme.jpg,0,0,0.0,0,31,31,31,,,,,,,,,,,,,19.01655910000045,0.01655910000044969,None,52.879248400000506,52.879248400000506,52.879248400000506,52.879248400000506,52.879248400000506,52.879248400000506,52.879248400000506,52.879248400000506,52.879248400000506,52.879248400000506,,009,P009,2025_Feb_01_1421,ConditionRich,2021.2.3,59.94912717108232,
19.75,20.0,41,0.0,Stimuli/Blank.png,0,0,0.0,0,32,32,32,,,,,,,,,,,,,19.76844490000076,0.018444900000758935,None,53.62991350000084,53.62991350000084,53.62991350000084,53.62991350000084,53.62991350000084,53.62991350000084,53.62991350000084,53.62991350000084,53.62991350000084,53.62991350000084,,009,P009,2025_Feb_01_1421,ConditionRich,2021.2.3,59.94912717108232,
20.0,20.75,30,0.75,Stimuli/P009/things_fire_05s.jpg,0,0,0.0,0,33,33,33,,,,,,,,,,,,,20.018719900002907,0.018719900002906797,None,53.8801429999985,53.8801429999985,53.8801429999985,53.8801429999985,53.8801429999985,53.8801429999985,53.8801429999985,53.8801429999985,53.8801429999985,53.8801429999985,,009,P009,2025_Feb_01_1421,ConditionRich,2021.2.3,59.94912717108232,
20.75,21.0,41,0.0,Stimuli/Blank.png,0,0,0.0,0,34,34,34,,,,,,,,,,,,,20.768019099999947,0.018019099999946775,None,54.61411759999828,54.61411759999828,54.61411759999828,54.61411759999828,54.61411759999828,54.61411759999828,54.61411759999828,54.61411759999828,54.61411759999828,54.61411759999828,,009,P009,2025_Feb_01_1421,ConditionRich,2021.2.3,59.94912717108232,
21.0,21.75,30,0.75,Stimuli/P009/things_fire_05s.jpg,0,0,0.0,0,35,35,35,,,,,,,,,,,,,21.00326110000242,0.0032611000024189707,None,54.86436269999831,54.86436269999831,54.86436269999831,54.86436269999831,54.86436269999831,54.86436269999831,54.86436269999831,54.86436269999831,54.86436269999831,54.86436269999831,,009,P009,2025_Feb_01_1421,ConditionRich,2021.2.3,59.94912717108232,
21.75,22.0,41,0.0,Stimuli/Blank.png,0,0,0.0,0,36,36,36,,,,,,,,,,,,,21.768267400002514,0.018267400002514478,None,55.6150075000005,55.6150075000005,55.6150075000005,55.6150075000005,55.6150075000005,55.6150075000005,55.6150075000005,55.6150075000005,55.6150075000005,55.6150075000005,,009,P009,2025_Feb_01_1421,ConditionRich,2021.2.3,59.94912717108232,
22.0,22.75,30,0.75,Stimuli/P009/things_fire_05s.jpg,0,0,0.0,0,37,37,37,,,,,,,,,,,,,22.00185970000166,0.001859700001659803,None,55.848538800000824,55.848538800000824,55.848538800000824,55.848538800000824,55.848538800000824,55.848538800000824,55.848538800000824,55.848538800000824,55.848538800000824,55.848538800000824,,009,P009,2025_Feb_01_1421,ConditionRich,2021.2.3,59.94912717108232,
22.75,23.0,41,0.0,Stimuli/Blank.png,0,0,0.0,0,38,38,38,,,,,,,,,,,,,22.75298760000078,0.0029876000007789116,None,56.599203699999634,56.599203699999634,56.599203699999634,56.599203699999634,56.599203699999634,56.599203699999634,56.599203699999634,56.599203699999634,56.599203699999634,56.599203699999634,,009,P009,2025_Feb_01_1421,ConditionRich,2021.2.3,59.94912717108232,
23.0,23.75,30,0.75,Stimuli/P009/things_fire_05s.jpg,0,0,0.0,0,39,39,39,,,,,,,,,,,,,23.003244800001994,0.003244800001994008,None,56.84940160000042,56.84940160000042,56.84940160000042,56.84940160000042,56.84940160000042,56.84940160000042,56.84940160000042,56.84940160000042,56.84940160000042,56.84940160000042,,009,P009,2025_Feb_01_1421,ConditionRich,2021.2.3,59.94912717108232,
23.75,24.0,41,0.0,Stimuli/Blank.png,0,0,0.0,0,40,40,40,,,,,,,,,,,,,23.754006400002254,0.00400640000225394,None,57.600096800000756,57.600096800000756,57.600096800000756,57.600096800000756,57.600096800000756,57.600096800000756,57.600096800000756,57.600096800000756,57.600096800000756,57.600096800000756,,009,P009,2025_Feb_01_1421,ConditionRich,2021.2.3,59.94912717108232,
24.0,24.75,26,0.75,Stimuli/P009/things_cookie_sheet_05s.jpg,0,0,0.0,0,41,41,41,,,,,,,,,,,,,24.004093000003195,0.004093000003194902,None,57.86699429999862,57.86699429999862,57.86699429999862,57.86699429999862,57.86699429999862,57.86699429999862,57.86699429999862,57.86699429999862,57.86699429999862,57.86699429999862,,009,P009,2025_Feb_01_1421,ConditionRich,2021.2.3,59.94912717108232,
24.75,25.0,41,0.0,Stimuli/Blank.png,0,0,0.0,0,42,42,42,,,,,,,,,,,,,24.77328110000235,0.023281100002350286,None,58.63434390000111,58.63434390000111,58.63434390000111,58.63434390000111,58.63434390000111,58.63434390000111,58.63434390000111,58.63434390000111,58.63434390000111,58.63434390000111,,009,P009,2025_Feb_01_1421,ConditionRich,2021.2.3,59.94912717108232,
25.0,25.75,26,0.75,Stimuli/P009/things_cookie_sheet_05s.jpg,0,0,0.0,0,43,43,43,,,,,,,,,,,,,25.02333010000075,0.023330100000748644,None,58.884622800000216,58.884622800000216,58.884622800000216,58.884622800000216,58.884622800000216,58.884622800000216,58.884622800000216,58.884622800000216,58.884622800000216,58.884622800000216,,009,P009,2025_Feb_01_1421,ConditionRich,2021.2.3,59.94912717108232,
25.75,26.0,41,0.0,Stimuli/Blank.png,0,0,0.0,0,44,44,44,,,,,,,,,,,,,25.774410000001808,0.02441000000180793,None,59.635193599999184,59.635193599999184,59.635193599999184,59.635193599999184,59.635193599999184,59.635193599999184,59.635193599999184,59.635193599999184,59.635193599999184,59.635193599999184,,009,P009,2025_Feb_01_1421,ConditionRich,2021.2.3,59.94912717108232,
26.0,26.75,26,0.75,Stimuli/P009/things_cookie_sheet_05s.jpg,0,0,0.0,0,45,45,45,,,,,,,,,,,,,26.023020200002065,0.023020200002065394,None,59.86876199999824,59.86876199999824,59.86876199999824,59.86876199999824,59.86876199999824,59.86876199999824,59.86876199999824,59.86876199999824,59.86876199999824,59.86876199999824,,009,P009,2025_Feb_01_1421,ConditionRich,2021.2.3,59.94912717108232,
26.75,27.0,41,0.0,Stimuli/Blank.png,0,0,0.0,0,46,46,46,,,,,,,,,,,,,26.758350200001587,0.008350200001586927,None,60.619436799999676,60.619436799999676,60.619436799999676,60.619436799999676,60.619436799999676,60.619436799999676,60.619436799999676,60.619436799999676,60.619436799999676,60.619436799999676,,009,P009,2025_Feb_01_1421,ConditionRich,2021.2.3,59.94912717108232,
27.0,27.75,26,0.75,Stimuli/P009/things_cookie_sheet_05s.jpg,0,0,0.0,0,47,47,47,,,,,,,,,,,,,27.022971400001552,0.022971400001551956,None,60.86964699999953,60.86964699999953,60.86964699999953,60.86964699999953,60.86964699999953,60.86964699999953,60.86964699999953,60.86964699999953,60.86964699999953,60.86964699999953,,009,P009,2025_Feb_01_1421,ConditionRich,2021.2.3,59.94912717108232,
27.75,28.0,41,0.0,Stimuli/Blank.png,0,0,0.0,0,48,48,48,,,,,,,,,,,,,27.760105500001373,0.010105500001373002,None,61.62032289999843,61.62032289999843,61.62032289999843,61.62032289999843,61.62032289999843,61.62032289999843,61.62032289999843,61.62032289999843,61.62032289999843,61.62032289999843,,009,P009,2025_Feb_01_1421,ConditionRich,2021.2.3,59.94912717108232,
28.0,28.75,12,0.75,Stimuli/P009/sun_birmwgkdtrlevcaf.jpg,0,0,0.0,0,49,49,49,,,,,,,,,,,,,28.023853500002588,0.02385350000258768,None,61.87056400000074,61.87056400000074,61.87056400000074,61.87056400000074,61.87056400000074,61.87056400000074,61.87056400000074,61.87056400000074,61.87056400000074,61.87056400000074,,009,P009,2025_Feb_01_1421,ConditionRich,2021.2.3,59.94912717108232,
28.75,29.0,41,0.0,Stimuli/Blank.png,0,0,0.0,0,50,50,50,,,,,,,,,,,,,28.7592876000017,0.009287600001698593,None,62.62122399999862,62.62122399999862,62.62122399999862,62.62122399999862,62.62122399999862,62.62122399999862,62.62122399999862,62.62122399999862,62.62122399999862,62.62122399999862,,009,P009,2025_Feb_01_1421,ConditionRich,2021.2.3,59.94912717108232,
29.0,29.75,12,0.75,Stimuli/P009/sun_birmwgkdtrlevcaf.jpg,0,0,0.0,0,51,51,51,,,,,,,,,,,,,29.025203600001987,0.02520360000198707,None,62.888555199999246,62.888555199999246,62.888555199999246,62.888555199999246,62.888555199999246,62.888555199999246,62.888555199999246,62.888555199999246,62.888555199999246,62.888555199999246,,009,P009,2025_Feb_01_1421,ConditionRich,2021.2.3,59.94912717108232,
29.75,30.0,41,0.0,Stimuli/Blank.png,0,0,0.0,0,52,52,52,,,,,,,,,,,,,29.775882800000545,0.025882800000545103,None,63.62209230000008,63.62209230000008,63.62209230000008,63.62209230000008,63.62209230000008,63.62209230000008,63.62209230000008,63.62209230000008,63.62209230000008,63.62209230000008,,009,P009,2025_Feb_01_1421,ConditionRich,2021.2.3,59.94912717108232,
30.0,30.75,12,0.75,Stimuli/P009/sun_birmwgkdtrlevcaf.jpg,0,0,0.0,0,53,53,53,,,,,,,,,,,,,30.00955299999987,0.009552999999868916,None,63.855624499999976,63.855624499999976,63.855624499999976,63.855624499999976,63.855624499999976,63.855624499999976,63.855624499999976,63.855624499999976,63.855624499999976,63.855624499999976,,009,P009,2025_Feb_01_1421,ConditionRich,2021.2.3,59.94912717108232,
30.75,31.0,41,0.0,Stimuli/Blank.png,0,0,0.0,0,54,54,54,,,,,,,,,,,,,30.760581000002276,0.010581000002275687,None,64.60628989999896,64.60628989999896,64.60628989999896,64.60628989999896,64.60628989999896,64.60628989999896,64.60628989999896,64.60628989999896,64.60628989999896,64.60628989999896,,009,P009,2025_Feb_01_1421,ConditionRich,2021.2.3,59.94912717108232,
31.0,31.75,12,0.75,Stimuli/P009/sun_birmwgkdtrlevcaf.jpg,1,0,0.75,0,55,55,55,,,,,,,,,,,,,31.00980470000286,0.009804700002860045,1,64.85651470000084,64.85651470000084,64.85651470000084,64.85651470000084,64.85651470000084,64.85651470000084,64.85651470000084,65.59050710000156,64.85651470000084,64.85651470000084,0.5044651999996859,009,P009,2025_Feb_01_1421,ConditionRich,2021.2.3,59.94912717108232,
31.75,32.0,41,0.0,Stimuli/Blank.png,0,0,0.0,0,56,56,56,,,,,,,,,,,,,31.760486800001672,0.010486800001672236,None,65.60717650000151,65.60717650000151,65.60717650000151,65.60717650000151,65.60717650000151,65.60717650000151,65.60717650000151,65.60717650000151,65.60717650000151,65.60717650000151,,009,P009,2025_Feb_01_1421,ConditionRich,2021.2.3,59.94912717108232,
32.0,32.75,37,0.75,Stimuli/P009/things_pug_05s.jpg,0,0,0.0,0,57,57,57,,,,,,,,,,,,,32.01213220000136,0.012132200001360616,None,65.87419420000151,65.87419420000151,65.87419420000151,65.87419420000151,65.87419420000151,65.87419420000151,65.87419420000151,65.87419420000151,65.87419420000151,65.87419420000151,,009,P009,2025_Feb_01_1421,ConditionRich,2021.2.3,59.94912717108232,
32.75,33.0,41,0.0,Stimuli/Blank.png,0,0,0.0,0,58,58,58,,,,,,,,,,,,,32.778021199999785,0.028021199999784585,None,66.62474590000056,66.62474590000056,66.62474590000056,66.62474590000056,66.62474590000056,66.62474590000056,66.62474590000056,66.62474590000056,66.62474590000056,66.62474590000056,,009,P009,2025_Feb_01_1421,ConditionRich,2021.2.3,59.94912717108232,
33.0,33.75,37,0.75,Stimuli/P009/things_pug_05s.jpg,0,0,0.0,0,59,59,59,,,,,,,,,,,,,33.01355270000204,0.013552700002037454,None,66.8750172,66.8750172,66.8750172,66.8750172,66.8750172,66.8750172,66.8750172,66.8750172,66.8750172,66.8750172,,009,P009,2025_Feb_01_1421,ConditionRich,2021.2.3,59.94912717108232,
33.75,34.0,41,0.0,Stimuli/Blank.png,0,0,0.0,0,60,60,60,,,,,,,,,,,,,33.778892800000904,0.028892800000903662,None,67.62563519999821,67.62563519999821,67.62563519999821,67.62563519999821,67.62563519999821,67.62563519999821,67.62563519999821,67.62563519999821,67.62563519999821,67.62563519999821,,009,P009,2025_Feb_01_1421,ConditionRich,2021.2.3,59.94912717108232,
34.0,34.75,37,0.75,Stimuli/P009/things_pug_05s.jpg,0,0,0.0,0,61,61,61,,,,,,,,,,,,,34.01369310000155,0.013693100001546554,None,67.85919099999956,67.85919099999956,67.85919099999956,67.85919099999956,67.85919099999956,67.85919099999956,67.85919099999956,67.85919099999956,67.85919099999956,67.85919099999956,,009,P009,2025_Feb_01_1421,ConditionRich,2021.2.3,59.94912717108232,
34.75,35.0,41,0.0,Stimuli/Blank.png,0,0,0.0,0,62,62,62,,,,,,,,,,,,,34.763693000000785,0.013693000000785105,None,68.60985730000175,68.60985730000175,68.60985730000175,68.60985730000175,68.60985730000175,68.60985730000175,68.60985730000175,68.60985730000175,68.60985730000175,68.60985730000175,,009,P009,2025_Feb_01_1421,ConditionRich,2021.2.3,59.94912717108232,
35.0,35.75,37,0.75,Stimuli/P009/things_pug_05s.jpg,0,0,0.0,0,63,63,63,,,,,,,,,,,,,35.014080500001,0.014080500001000473,None,68.87674049999987,68.87674049999987,68.87674049999987,68.87674049999987,68.87674049999987,68.87674049999987,68.87674049999987,68.87674049999987,68.87674049999987,68.87674049999987,,009,P009,2025_Feb_01_1421,ConditionRich,2021.2.3,59.94912717108232,
35.75,36.0,41,0.0,Stimuli/Blank.png,0,0,0.0,0,64,64,64,,,,,,,,,,,,,35.78051469999991,0.03051469999991241,None,69.62739399999919,69.62739399999919,69.62739399999919,69.62739399999919,69.62739399999919,69.62739399999919,69.62739399999919,69.62739399999919,69.62739399999919,69.62739399999919,,009,P009,2025_Feb_01_1421,ConditionRich,2021.2.3,59.94912717108232,
36.0,36.75,32,0.75,Stimuli/P009/things_hawk_05s.jpg,0,0,0.0,0,65,65,65,,,,,,,,,,,,,36.01427640000111,0.014276400001108414,None,69.8609460000007,69.8609460000007,69.8609460000007,69.8609460000007,69.8609460000007,69.8609460000007,69.8609460000007,69.8609460000007,69.8609460000007,69.8609460000007,,009,P009,2025_Feb_01_1421,ConditionRich,2021.2.3,59.94912717108232,
36.75,37.0,41,0.0,Stimuli/Blank.png,0,0,0.0,0,66,66,66,,,,,,,,,,,,,36.76497569999992,0.014975699999922654,None,70.61271900000065,70.61271900000065,70.61271900000065,70.61271900000065,70.61271900000065,70.61271900000065,70.61271900000065,70.61271900000065,70.61271900000065,70.61271900000065,,009,P009,2025_Feb_01_1421,ConditionRich,2021.2.3,59.94912717108232,
37.0,37.75,32,0.75,Stimuli/P009/things_hawk_05s.jpg,0,0,0.0,0,67,67,67,,,,,,,,,,,,,37.01602249999996,0.016022499999962747,None,70.86183320000055,70.86183320000055,70.86183320000055,70.86183320000055,70.86183320000055,70.86183320000055,70.86183320000055,70.86183320000055,70.86183320000055,70.86183320000055,,009,P009,2025_Feb_01_1421,ConditionRich,2021.2.3,59.94912717108232,
37.75,38.0,41,0.0,Stimuli/Blank.png,0,0,0.0,0,68,68,68,,,,,,,,,,,,,37.74910780000209,-0.0008921999979065731,None,71.59580849999838,71.59580849999838,71.59580849999838,71.59580849999838,71.59580849999838,71.59580849999838,71.59580849999838,71.59580849999838,71.59580849999838,71.59580849999838,,009,P009,2025_Feb_01_1421,ConditionRich,2021.2.3,59.94912717108232,
38.0,38.75,32,0.75,Stimuli/P009/things_hawk_05s.jpg,0,0,0.0,0,69,69,69,,,,,,,,,,,,,37.999636000000464,-0.0003639999995357357,None,71.84602610000002,71.84602610000002,71.84602610000002,71.84602610000002,71.84602610000002,71.84602610000002,71.84602610000002,71.84602610000002,71.84602610000002,71.84602610000002,,009,P009,2025_Feb_01_1421,ConditionRich,2021.2.3,59.94912717108232,
38.75,39.0,41,0.0,Stimuli/Blank.png,0,0,0.0,0,70,70,70,,,,,,,,,,,,,38.75025140000071,0.0002514000007067807,None,72.59679920000053,72.59679920000053,72.59679920000053,72.59679920000053,72.59679920000053,72.59679920000053,72.59679920000053,72.59679920000053,72.59679920000053,72.59679920000053,,009,P009,2025_Feb_01_1421,ConditionRich,2021.2.3,59.94912717108232,
39.0,39.75,32,0.75,Stimuli/P009/things_hawk_05s.jpg,0,0,0.0,0,71,71,71,,,,,,,,,,,,,39.001384700000926,0.0013847000009263866,None,72.86360459999923,72.86360459999923,72.86360459999923,72.86360459999923,72.86360459999923,72.86360459999923,72.86360459999923,72.86360459999923,72.86360459999923,72.86360459999923,,009,P009,2025_Feb_01_1421,ConditionRich,2021.2.3,59.94912717108232,
39.75,40.0,41,0.0,Stimuli/Blank.png,0,0,0.0,0,72,72,72,,,,,,,,,,,,,39.76880240000173,0.018802400001732167,None,73.61427209999965,73.61427209999965,73.61427209999965,73.61427209999965,73.61427209999965,73.61427209999965,73.61427209999965,73.61427209999965,73.61427209999965,73.61427209999965,,009,P009,2025_Feb_01_1421,ConditionRich,2021.2.3,59.94912717108232,
40.0,40.75,29,0.75,Stimuli/P009/things_fingerprint_05s.jpg,0,0,0.0,0,73,73,73,,,,,,,,,,,,,40.003224500000215,0.0032245000002149027,None,73.86448839999866,73.86448839999866,73.86448839999866,73.86448839999866,73.86448839999866,73.86448839999866,73.86448839999866,73.86448839999866,73.86448839999866,73.86448839999866,,009,P009,2025_Feb_01_1421,ConditionRich,2021.2.3,59.94912717108232,
40.75,41.0,41,0.0,Stimuli/Blank.png,0,0,0.0,0,74,74,74,,,,,,,,,,,,,40.76897810000082,0.01897810000082245,None,74.6151546000001,74.6151546000001,74.6151546000001,74.6151546000001,74.6151546000001,74.6151546000001,74.6151546000001,74.6151546000001,74.6151546000001,74.6151546000001,,009,P009,2025_Feb_01_1421,ConditionRich,2021.2.3,59.94912717108232,
41.0,41.75,29,0.75,Stimuli/P009/things_fingerprint_05s.jpg,0,0,0.0,0,75,75,75,,,,,,,,,,,,,41.00262890000158,0.002628900001582224,None,74.86536889999843,74.86536889999843,74.86536889999843,74.86536889999843,74.86536889999843,74.86536889999843,74.86536889999843,74.86536889999843,74.86536889999843,74.86536889999843,,009,P009,2025_Feb_01_1421,ConditionRich,2021.2.3,59.94912717108232,
41.75,42.0,41,0.0,Stimuli/Blank.png,0,0,0.0,0,76,76,76,,,,,,,,,,,,,41.7705962,0.020596199999999953,None,75.61611130000165,75.61611130000165,75.61611130000165,75.61611130000165,75.61611130000165,75.61611130000165,75.61611130000165,75.61611130000165,75.61611130000165,75.61611130000165,,009,P009,2025_Feb_01_1421,ConditionRich,2021.2.3,59.94912717108232,
42.0,42.75,29,0.75,Stimuli/P009/things_fingerprint_05s.jpg,0,0,0.0,0,77,77,77,,,,,,,,,,,,,42.00366930000018,0.0036693000001832843,None,75.84957660000146,75.84957660000146,75.84957660000146,75.84957660000146,75.84957660000146,75.84957660000146,75.84957660000146,75.84957660000146,75.84957660000146,75.84957660000146,,009,P009,2025_Feb_01_1421,ConditionRich,2021.2.3,59.94912717108232,
42.75,43.0,41,0.0,Stimuli/Blank.png,0,0,0.0,0,78,78,78,,,,,,,,,,,,,42.75406810000277,0.004068100002768915,None,76.6002507000012,76.6002507000012,76.6002507000012,76.6002507000012,76.6002507000012,76.6002507000012,76.6002507000012,76.6002507000012,76.6002507000012,76.6002507000012,,009,P009,2025_Feb_01_1421,ConditionRich,2021.2.3,59.94912717108232,
43.0,43.75,29,0.75,Stimuli/P009/things_fingerprint_05s.jpg,0,0,0.0,0,79,79,79,,,,,,,,,,,,,43.00450590000037,0.0045059000003675465,None,76.85046059999877,76.85046059999877,76.85046059999877,76.85046059999877,76.85046059999877,76.85046059999877,76.85046059999877,76.85046059999877,76.85046059999877,76.85046059999877,,009,P009,2025_Feb_01_1421,ConditionRich,2021.2.3,59.94912717108232,
43.75,44.0,41,0.0,Stimuli/Blank.png,0,0,0.0,0,80,80,80,,,,,,,,,,,,,43.75503040000331,0.005030400003306568,None,77.60112350000054,77.60112350000054,77.60112350000054,77.60112350000054,77.60112350000054,77.60112350000054,77.60112350000054,77.60112350000054,77.60112350000054,77.60112350000054,,009,P009,2025_Feb_01_1421,ConditionRich,2021.2.3,59.94912717108232,
44.0,44.75,19,0.75,Stimuli/P009/sun_bwvfnogmotsvhofs.jpg,0,0,0.0,0,81,81,81,,,,,,,,,,,,,44.00468750000073,0.004687500000727596,None,77.85134560000006,77.85134560000006,77.85134560000006,77.85134560000006,77.85134560000006,77.85134560000006,77.85134560000006,77.85134560000006,77.85134560000006,77.85134560000006,,009,P009,2025_Feb_01_1421,ConditionRich,2021.2.3,59.94912717108232,
44.75,45.0,41,0.0,Stimuli/Blank.png,0,0,0.0,0,82,82,82,,,,,,,,,,,,,44.75817530000131,0.00817530000131228,None,78.61869899999874,78.61869899999874,78.61869899999874,78.61869899999874,78.61869899999874,78.61869899999874,78.61869899999874,78.61869899999874,78.61869899999874,78.61869899999874,,009,P009,2025_Feb_01_1421,ConditionRich,2021.2.3,59.94912717108232,
45.0,45.75,19,0.75,Stimuli/P009/sun_bwvfnogmotsvhofs.jpg,1,0,0.75,0,83,83,83,,,,,,,,,,,,,45.02208830000018,0.022088300000177696,1,78.86890670000139,78.86890670000139,78.86890670000139,78.86890670000139,78.86890670000139,78.86890670000139,78.86890670000139,None,78.86890670000139,78.86890670000139,0.468105399999331,009,P009,2025_Feb_01_1421,ConditionRich,2021.2.3,59.94912717108232,
45.75,46.0,41,0.0,Stimuli/Blank.png,0,0,0.0,0,84,84,84,,,,,,,,,,,,,45.75981490000049,0.009814900000492344,None,79.61957800000164,79.61957800000164,79.61957800000164,79.61957800000164,79.61957800000164,79.61957800000164,79.61957800000164,79.61957800000164,79.61957800000164,79.61957800000164,,009,P009,2025_Feb_01_1421,ConditionRich,2021.2.3,59.94912717108232,
46.0,46.75,19,0.75,Stimuli/P009/sun_bwvfnogmotsvhofs.jpg,0,0,0.0,0,85,85,85,,,,,,,,,,,,,46.024282700000185,0.024282700000185287,None,79.88647389999824,79.88647389999824,79.88647389999824,79.88647389999824,79.88647389999824,79.88647389999824,79.88647389999824,79.88647389999824,79.88647389999824,79.88647389999824,,009,P009,2025_Feb_01_1421,ConditionRich,2021.2.3,59.94912717108232,
46.75,47.0,41,0.0,Stimuli/Blank.png,0,0,0.0,0,86,86,86,,,,,,,,,,,,,46.77433040000324,0.02433040000323672,None,80.6204613000009,80.6204613000009,80.6204613000009,80.6204613000009,80.6204613000009,80.6204613000009,80.6204613000009,80.6204613000009,80.6204613000009,80.6204613000009,,009,P009,2025_Feb_01_1421,ConditionRich,2021.2.3,59.94912717108232,
47.0,47.75,19,0.75,Stimuli/P009/sun_bwvfnogmotsvhofs.jpg,0,0,0.0,0,87,87,87,,,,,,,,,,,,,47.00785420000102,0.007854200001020217,None,80.87068369999906,80.87068369999906,80.87068369999906,80.87068369999906,80.87068369999906,80.87068369999906,80.87068369999906,80.87068369999906,80.87068369999906,80.87068369999906,,009,P009,2025_Feb_01_1421,ConditionRich,2021.2.3,59.94912717108232,
47.75,48.0,41,0.0,Stimuli/Blank.png,0,0,0.0,0,88,88,88,,,,,,,,,,,,,47.77450150000004,0.024501500000042142,None,81.62134570000126,81.62134570000126,81.62134570000126,81.62134570000126,81.62134570000126,81.62134570000126,81.62134570000126,81.62134570000126,81.62134570000126,81.62134570000126,,009,P009,2025_Feb_01_1421,ConditionRich,2021.2.3,59.94912717108232,
48.0,48.75,14,0.75,Stimuli/P009/sun_blaqxdebghixzyyw.jpg,0,0,0.0,0,89,89,89,,,,,,,,,,,,,48.00893670000005,0.008936700000049314,None,81.85488629999963,81.85488629999963,81.85488629999963,81.85488629999963,81.85488629999963,81.85488629999963,81.85488629999963,81.85488629999963,81.85488629999963,81.85488629999963,,009,P009,2025_Feb_01_1421,ConditionRich,2021.2.3,59.94912717108232,
48.75,49.0,41,0.0,Stimuli/Blank.png,0,0,0.0,0,90,90,90,,,,,,,,,,,,,48.758715400002984,0.008715400002984097,None,82.60555450000174,82.60555450000174,82.60555450000174,82.60555450000174,82.60555450000174,82.60555450000174,82.60555450000174,82.60555450000174,82.60555450000174,82.60555450000174,,009,P009,2025_Feb_01_1421,ConditionRich,2021.2.3,59.94912717108232,
49.0,49.75,14,0.75,Stimuli/P009/sun_blaqxdebghixzyyw.jpg,0,0,0.0,0,91,91,91,,,,,,,,,,,,,49.00938330000281,0.009383300002809847,None,82.85577850000118,82.85577850000118,82.85577850000118,82.85577850000118,82.85577850000118,82.85577850000118,82.85577850000118,82.85577850000118,82.85577850000118,82.85577850000118,,009,P009,2025_Feb_01_1421,ConditionRich,2021.2.3,59.94912717108232,
49.75,50.0,41,0.0,Stimuli/Blank.png,0,0,0.0,0,92,92,92,,,,,,,,,,,,,49.76016000000163,0.010160000001633307,None,83.60644179999872,83.60644179999872,83.60644179999872,83.60644179999872,83.60644179999872,83.60644179999872,83.60644179999872,83.60644179999872,83.60644179999872,83.60644179999872,,009,P009,2025_Feb_01_1421,ConditionRich,2021.2.3,59.94912717108232,
50.0,50.75,14,0.75,Stimuli/P009/sun_blaqxdebghixzyyw.jpg,0,0,0.0,0,93,93,93,,,,,,,,,,,,,50.01034980000259,0.010349800002586562,None,83.85666059999858,83.85666059999858,83.85666059999858,83.85666059999858,83.85666059999858,83.85666059999858,83.85666059999858,83.85666059999858,83.85666059999858,83.85666059999858,,009,P009,2025_Feb_01_1421,ConditionRich,2021.2.3,59.94912717108232,
50.75,51.0,41,0.0,Stimuli/Blank.png,0,0,0.0,0,94,94,94,,,,,,,,,,,,,50.76142650000111,0.011426500001107343,None,84.60734089999823,84.60734089999823,84.60734089999823,84.60734089999823,84.60734089999823,84.60734089999823,84.60734089999823,84.60734089999823,84.60734089999823,84.60734089999823,,009,P009,2025_Feb_01_1421,ConditionRich,2021.2.3,59.94912717108232,
51.0,51.75,14,0.75,Stimuli/P009/sun_blaqxdebghixzyyw.jpg,0,0,0.0,0,95,95,95,,,,,,,,,,,,,51.011505900001794,0.011505900001793634,None,84.87422380000135,84.87422380000135,84.87422380000135,84.87422380000135,84.87422380000135,84.87422380000135,84.87422380000135,84.87422380000135,84.87422380000135,84.87422380000135,,009,P009,2025_Feb_01_1421,ConditionRich,2021.2.3,59.94912717108232,
51.75,52.0,41,0.0,Stimuli/Blank.png,0,0,0.0,0,96,96,96,,,,,,,,,,,,,51.77909950000321,0.029099500003212597,None,85.624895500001,85.624895500001,85.624895500001,85.624895500001,85.624895500001,85.624895500001,85.624895500001,85.624895500001,85.624895500001,85.624895500001,,009,P009,2025_Feb_01_1421,ConditionRich,2021.2.3,59.94912717108232,
52.0,52.75,5,0.75,Stimuli/P009/sun_akqvdmuauoxeafrj.jpg,0,0,0.0,0,97,97,97,,,,,,,,,,,,,52.014408099999855,0.01440809999985504,None,85.87511699999959,85.87511699999959,85.87511699999959,85.87511699999959,85.87511699999959,85.87511699999959,85.87511699999959,85.87511699999959,85.87511699999959,85.87511699999959,,009,P009,2025_Feb_01_1421,ConditionRich,2021.2.3,59.94912717108232,
52.75,53.0,41,0.0,Stimuli/Blank.png,0,0,0.0,0,98,98,98,,,,,,,,,,,,,52.77895730000091,0.028957300000911346,None,86.62579249999908,86.62579249999908,86.62579249999908,86.62579249999908,86.62579249999908,86.62579249999908,86.62579249999908,86.62579249999908,86.62579249999908,86.62579249999908,,009,P009,2025_Feb_01_1421,ConditionRich,2021.2.3,59.94912717108232,
53.0,53.75,5,0.75,Stimuli/P009/sun_akqvdmuauoxeafrj.jpg,0,0,0.0,0,99,99,99,,,,,,,,,,,,,53.01316080000106,0.013160800001060124,None,86.85932070000126,86.85932070000126,86.85932070000126,86.85932070000126,86.85932070000126,86.85932070000126,86.85932070000126,86.85932070000126,86.85932070000126,86.85932070000126,,009,P009,2025_Feb_01_1421,ConditionRich,2021.2.3,59.94912717108232,
53.75,54.0,41,0.0,Stimuli/Blank.png,0,0,0.0,0,100,100,100,,,,,,,,,,,,,53.76384210000106,0.013842100001056679,None,87.60997570000109,87.60997570000109,87.60997570000109,87.60997570000109,87.60997570000109,87.60997570000109,87.60997570000109,87.60997570000109,87.60997570000109,87.60997570000109,,009,P009,2025_Feb_01_1421,ConditionRich,2021.2.3,59.94912717108232,
54.0,54.75,5,0.75,Stimuli/P009/sun_akqvdmuauoxeafrj.jpg,0,0,0.0,0,101,101,101,,,,,,,,,,,,,54.014631400001235,0.014631400001235306,None,87.87691669999913,87.87691669999913,87.87691669999913,87.87691669999913,87.87691669999913,87.87691669999913,87.87691669999913,87.87691669999913,87.87691669999913,87.87691669999913,,009,P009,2025_Feb_01_1421,ConditionRich,2021.2.3,59.94912717108232,
54.75,55.0,41,0.0,Stimuli/Blank.png,0,0,0.0,0,102,102,102,,,,,,,,,,,,,54.78149180000037,0.03149180000036722,None,88.6275659999992,88.6275659999992,88.6275659999992,88.6275659999992,88.6275659999992,88.6275659999992,88.6275659999992,88.6275659999992,88.6275659999992,88.6275659999992,,009,P009,2025_Feb_01_1421,ConditionRich,2021.2.3,59.94912717108232,
55.0,55.75,5,0.75,Stimuli/P009/sun_akqvdmuauoxeafrj.jpg,0,0,0.0,0,103,103,103,,,,,,,,,,,,,55.015783400001965,0.015783400001964765,None,88.87777840000126,88.87777840000126,88.87777840000126,88.87777840000126,88.87777840000126,88.87777840000126,88.87777840000126,88.87777840000126,88.87777840000126,88.87777840000126,,009,P009,2025_Feb_01_1421,ConditionRich,2021.2.3,59.94912717108232,
55.75,56.0,41,0.0,Stimuli/Blank.png,0,0,0.0,0,104,104,104,,,,,,,,,,,,,55.765009100003226,0.015009100003226195,None,89.61174970000138,89.61174970000138,89.61174970000138,89.61174970000138,89.61174970000138,89.61174970000138,89.61174970000138,89.61174970000138,89.61174970000138,89.61174970000138,,009,P009,2025_Feb_01_1421,ConditionRich,2021.2.3,59.94912717108232,
56.0,56.75,28,0.75,Stimuli/P009/things_face_05s.jpg,0,0,0.0,0,105,105,105,,,,,,,,,,,,,56.01520510000046,0.015205100000457605,None,89.86197190000166,89.86197190000166,89.86197190000166,89.86197190000166,89.86197190000166,89.86197190000166,89.86197190000166,89.86197190000166,89.86197190000166,89.86197190000166,,009,P009,2025_Feb_01_1421,ConditionRich,2021.2.3,59.94912717108232,
56.75,57.0,41,0.0,Stimuli/Blank.png,0,0,0.0,0,106,106,106,,,,,,,,,,,,,56.74935530000221,-0.0006446999977924861,None,90.59595410000111,90.59595410000111,90.59595410000111,90.59595410000111,90.59595410000111,90.59595410000111,90.59595410000111,90.59595410000111,90.59595410000111,90.59595410000111,,009,P009,2025_Feb_01_1421,ConditionRich,2021.2.3,59.94912717108232,
57.0,57.75,28,0.75,Stimuli/P009/things_face_05s.jpg,0,0,0.0,0,107,107,107,,,,,,,,,,,,,56.99947760000214,-0.0005223999978625216,None,90.8461896000008,90.8461896000008,90.8461896000008,90.8461896000008,90.8461896000008,90.8461896000008,90.8461896000008,90.8461896000008,90.8461896000008,90.8461896000008,,009,P009,2025_Feb_01_1421,ConditionRich,2021.2.3,59.94912717108232,
57.75,58.0,41,0.0,Stimuli/Blank.png,0,0,0.0,0,108,108,108,,,,,,,,,,,,,57.7535807000022,0.00358070000220323,None,91.61353709999821,91.61353709999821,91.61353709999821,91.61353709999821,91.61353709999821,91.61353709999821,91.61353709999821,91.61353709999821,91.61353709999821,91.61353709999821,,009,P009,2025_Feb_01_1421,ConditionRich,2021.2.3,59.94912717108232,
58.0,58.75,28,0.75,Stimuli/P009/things_face_05s.jpg,0,0,0.0,0,109,109,109,,,,,,,,,,,,,58.01802640000096,0.018026400000962894,None,91.88043079999989,91.88043079999989,91.88043079999989,91.88043079999989,91.88043079999989,91.88043079999989,91.88043079999989,91.88043079999989,91.88043079999989,91.88043079999989,,009,P009,2025_Feb_01_1421,ConditionRich,2021.2.3,59.94912717108232,
58.75,59.0,41,0.0,Stimuli/Blank.png,0,0,0.0,0,110,110,110,,,,,,,,,,,,,58.769185400000424,0.019185400000424124,None,92.6144177999995,92.6144177999995,92.6144177999995,92.6144177999995,92.6144177999995,92.6144177999995,92.6144177999995,92.6144177999995,92.6144177999995,92.6144177999995,,009,P009,2025_Feb_01_1421,ConditionRich,2021.2.3,59.94912717108232,
59.0,59.75,28,0.75,Stimuli/P009/things_face_05s.jpg,0,0,0.0,0,111,111,111,,,,,,,,,,,,,59.00349130000177,0.0034913000017695595,None,92.86463459999868,92.86463459999868,92.86463459999868,92.86463459999868,92.86463459999868,92.86463459999868,92.86463459999868,92.86463459999868,92.86463459999868,92.86463459999868,,009,P009,2025_Feb_01_1421,ConditionRich,2021.2.3,59.94912717108232,
59.75,60.0,41,0.0,Stimuli/Blank.png,0,0,0.0,0,112,112,112,,,,,,,,,,,,,59.770725800000946,0.020725800000946037,None,93.63199670000176,93.63199670000176,93.63199670000176,93.63199670000176,93.63199670000176,93.63199670000176,93.63199670000176,93.63199670000176,93.63199670000176,93.63199670000176,,009,P009,2025_Feb_01_1421,ConditionRich,2021.2.3,59.94912717108232,
60.0,60.75,16,0.75,Stimuli/P009/sun_bqpyqljaflidcauh.jpg,0,0,0.0,0,113,113,113,,,,,,,,,,,,,60.01928190000035,0.019281900000351015,None,93.86551730000065,93.86551730000065,93.86551730000065,93.86551730000065,93.86551730000065,93.86551730000065,93.86551730000065,93.86551730000065,93.86551730000065,93.86551730000065,,009,P009,2025_Feb_01_1421,ConditionRich,2021.2.3,59.94912717108232,
60.75,61.0,41,0.0,Stimuli/Blank.png,0,0,0.0,0,114,114,114,,,,,,,,,,,,,60.75343830000202,0.0034383000020170584,None,94.5995053000006,94.5995053000006,94.5995053000006,94.5995053000006,94.5995053000006,94.5995053000006,94.5995053000006,94.5995053000006,94.5995053000006,94.5995053000006,,009,P009,2025_Feb_01_1421,ConditionRich,2021.2.3,59.94912717108232,
61.0,61.75,16,0.75,Stimuli/P009/sun_bqpyqljaflidcauh.jpg,0,0,0.0,0,115,115,115,,,,,,,,,,,,,61.00394360000064,0.00394360000063898,None,94.86640400000033,94.86640400000033,94.86640400000033,94.86640400000033,94.86640400000033,94.86640400000033,94.86640400000033,94.86640400000033,94.86640400000033,94.86640400000033,,009,P009,2025_Feb_01_1421,ConditionRich,2021.2.3,59.94912717108232,
61.75,62.0,41,0.0,Stimuli/Blank.png,0,0,0.0,0,116,116,116,,,,,,,,,,,,,61.771024800000305,0.021024800000304822,None,95.61707979999846,95.61707979999846,95.61707979999846,95.61707979999846,95.61707979999846,95.61707979999846,95.61707979999846,95.61707979999846,95.61707979999846,95.61707979999846,,009,P009,2025_Feb_01_1421,ConditionRich,2021.2.3,59.94912717108232,
62.0,62.75,16,0.75,Stimuli/P009/sun_bqpyqljaflidcauh.jpg,0,0,0.0,0,117,117,117,,,,,,,,,,,,,62.00445010000112,0.004450100001122337,None,95.85060739999972,95.85060739999972,95.85060739999972,95.85060739999972,95.85060739999972,95.85060739999972,95.85060739999972,95.85060739999972,95.85060739999972,95.85060739999972,,009,P009,2025_Feb_01_1421,ConditionRich,2021.2.3,59.94912717108232,
62.75,63.0,41,0.0,Stimuli/Blank.png,0,0,0.0,0,118,118,118,,,,,,,,,,,,,62.75447820000045,0.004478200000448851,None,96.60128120000081,96.60128120000081,96.60128120000081,96.60128120000081,96.60128120000081,96.60128120000081,96.60128120000081,96.60128120000081,96.60128120000081,96.60128120000081,,009,P009,2025_Feb_01_1421,ConditionRich,2021.2.3,59.94912717108232,
63.0,63.75,16,0.75,Stimuli/P009/sun_bqpyqljaflidcauh.jpg,0,0,0.0,0,119,119,119,,,,,,,,,,,,,63.006307300001936,0.0063073000019358005,None,96.86817190000147,96.86817190000147,96.86817190000147,96.86817190000147,96.86817190000147,96.86817190000147,96.86817190000147,96.86817190000147,96.86817190000147,96.86817190000147,,009,P009,2025_Feb_01_1421,ConditionRich,2021.2.3,59.94912717108232,
63.75,64.0,41,0.0,Stimuli/Blank.png,0,0,0.0,0,120,120,120,,,,,,,,,,,,,63.77302860000054,0.02302860000054352,None,97.61884460000147,97.61884460000147,97.61884460000147,97.61884460000147,97.61884460000147,97.61884460000147,97.61884460000147,97.61884460000147,97.61884460000147,97.61884460000147,,009,P009,2025_Feb_01_1421,ConditionRich,2021.2.3,59.94912717108232,
64.0,64.75,31,0.75,Stimuli/P009/things_girl_05s.jpg,0,0,0.0,0,121,121,121,,,,,,,,,,,,,64.00570530000186,0.005705300001864089,None,97.85240329999942,97.85240329999942,97.85240329999942,97.85240329999942,97.85240329999942,97.85240329999942,97.85240329999942,97.85240329999942,97.85240329999942,97.85240329999942,,009,P009,2025_Feb_01_1421,ConditionRich,2021.2.3,59.94912717108232,
64.75,65.0,41,0.0,Stimuli/Blank.png,0,0,0.0,0,122,122,122,,,,,,,,,,,,,64.7565706000023,0.006570600002305582,None,98.60304679999899,98.60304679999899,98.60304679999899,98.60304679999899,98.60304679999899,98.60304679999899,98.60304679999899,98.60304679999899,98.60304679999899,98.60304679999899,,009,P009,2025_Feb_01_1421,ConditionRich,2021.2.3,59.94912717108232,
65.0,65.75,31,0.75,Stimuli/P009/things_girl_05s.jpg,0,0,0.0,0,123,123,123,,,,,,,,,,,,,65.00871640000332,0.008716400003322633,None,98.86995699999898,98.86995699999898,98.86995699999898,98.86995699999898,98.86995699999898,98.86995699999898,98.86995699999898,98.86995699999898,98.86995699999898,98.86995699999898,,009,P009,2025_Feb_01_1421,ConditionRich,2021.2.3,59.94912717108232,
65.75,66.0,41,0.0,Stimuli/Blank.png,0,0,0.0,0,124,124,124,,,,,,,,,,,,,65.77412270000059,0.024122700000589248,None,99.62061769999855,99.62061769999855,99.62061769999855,99.62061769999855,99.62061769999855,99.62061769999855,99.62061769999855,99.62061769999855,99.62061769999855,99.62061769999855,,009,P009,2025_Feb_01_1421,ConditionRich,2021.2.3,59.94912717108232,
66.0,66.75,31,0.75,Stimuli/P009/things_girl_05s.jpg,0,0,0.0,0,125,125,125,,,,,,,,,,,,,66.00735669999995,0.007356699999945704,None,99.85414690000107,99.85414690000107,99.85414690000107,99.85414690000107,99.85414690000107,99.85414690000107,99.85414690000107,99.85414690000107,99.85414690000107,99.85414690000107,,009,P009,2025_Feb_01_1421,ConditionRich,2021.2.3,59.94912717108232,
66.75,67.0,41,0.0,Stimuli/Blank.png,0,0,0.0,0,126,126,126,,,,,,,,,,,,,66.75908880000134,0.009088800001336494,None,100.60487999999896,100.60487999999896,100.60487999999896,100.60487999999896,100.60487999999896,100.60487999999896,100.60487999999896,100.60487999999896,100.60487999999896,100.60487999999896,,009,P009,2025_Feb_01_1421,ConditionRich,2021.2.3,59.94912717108232,
67.0,67.75,31,0.75,Stimuli/P009/things_girl_05s.jpg,0,0,0.0,0,127,127,127,,,,,,,,,,,,,67.0090721000015,0.009072100001503713,None,100.87173070000063,100.87173070000063,100.87173070000063,100.87173070000063,100.87173070000063,100.87173070000063,100.87173070000063,100.87173070000063,100.87173070000063,100.87173070000063,,009,P009,2025_Feb_01_1421,ConditionRich,2021.2.3,59.94912717108232,
67.75,68.0,41,0.0,Stimuli/Blank.png,0,0,0.0,0,128,128,128,,,,,,,,,,,,,67.77853830000095,0.028538300000946037,None,101.63906570000108,101.63906570000108,101.63906570000108,101.63906570000108,101.63906570000108,101.63906570000108,101.63906570000108,101.63906570000108,101.63906570000108,101.63906570000108,,009,P009,2025_Feb_01_1421,ConditionRich,2021.2.3,59.94912717108232,
68.0,68.75,8,0.75,Stimuli/P009/sun_batcnoizlkeiqdtx.jpg,0,0,0.0,0,129,129,129,,,,,,,,,,,,,68.02662370000326,0.02662370000325609,None,101.88928120000128,101.88928120000128,101.88928120000128,101.88928120000128,101.88928120000128,101.88928120000128,101.88928120000128,101.88928120000128,101.88928120000128,101.88928120000128,,009,P009,2025_Feb_01_1421,ConditionRich,2021.2.3,59.94912717108232,
68.75,69.0,41,0.0,Stimuli/Blank.png,0,0,0.0,0,130,130,130,,,,,,,,,,,,,68.77851130000272,0.02851130000271951,None,102.63995250000153,102.63995250000153,102.63995250000153,102.63995250000153,102.63995250000153,102.63995250000153,102.63995250000153,102.63995250000153,102.63995250000153,102.63995250000153,,009,P009,2025_Feb_01_1421,ConditionRich,2021.2.3,59.94912717108232,
69.0,69.75,8,0.75,Stimuli/P009/sun_batcnoizlkeiqdtx.jpg,0,0,0.0,0,131,131,131,,,,,,,,,,,,,69.02865630000088,0.02865630000087549,None,102.89017949999834,102.89017949999834,102.89017949999834,102.89017949999834,102.89017949999834,102.89017949999834,102.89017949999834,102.89017949999834,102.89017949999834,102.89017949999834,,009,P009,2025_Feb_01_1421,ConditionRich,2021.2.3,59.94912717108232,
69.75,70.0,41,0.0,Stimuli/Blank.png,0,0,0.0,0,132,132,132,,,,,,,,,,,,,69.77805730000182,0.028057300001819385,None,103.624162600001,103.624162600001,103.624162600001,103.624162600001,103.624162600001,103.624162600001,103.624162600001,103.624162600001,103.624162600001,103.624162600001,,009,P009,2025_Feb_01_1421,ConditionRich,2021.2.3,59.94912717108232,
70.0,70.75,8,0.75,Stimuli/P009/sun_batcnoizlkeiqdtx.jpg,0,0,0.0,0,133,133,133,,,,,,,,,,,,,70.01176170000326,0.011761700003262376,None,103.85769230000005,103.85769230000005,103.85769230000005,103.85769230000005,103.85769230000005,103.85769230000005,103.85769230000005,103.85769230000005,103.85769230000005,103.85769230000005,,009,P009,2025_Feb_01_1421,ConditionRich,2021.2.3,59.94912717108232,
70.75,71.0,41,0.0,Stimuli/Blank.png,0,0,0.0,0,134,134,134,,,,,,,,,,,,,70.76374100000248,0.013741000002482906,None,104.62509900000077,104.62509900000077,104.62509900000077,104.62509900000077,104.62509900000077,104.62509900000077,104.62509900000077,104.62509900000077,104.62509900000077,104.62509900000077,,009,P009,2025_Feb_01_1421,ConditionRich,2021.2.3,59.94912717108232,
71.0,71.75,8,0.75,Stimuli/P009/sun_batcnoizlkeiqdtx.jpg,0,0,0.0,0,135,135,135,,,,,,,,,,,,,71.02921260000221,0.02921260000221082,None,104.87526349999825,104.87526349999825,104.87526349999825,104.87526349999825,104.87526349999825,104.87526349999825,104.87526349999825,104.87526349999825,104.87526349999825,104.87526349999825,,009,P009,2025_Feb_01_1421,ConditionRich,2021.2.3,59.94912717108232,
71.75,72.0,41,0.0,Stimuli/Blank.png,0,0,0.0,0,136,136,136,,,,,,,,,,,,,71.76264650000303,0.01264650000302936,None,105.60924629999863,105.60924629999863,105.60924629999863,105.60924629999863,105.60924629999863,105.60924629999863,105.60924629999863,105.60924629999863,105.60924629999863,105.60924629999863,,009,P009,2025_Feb_01_1421,ConditionRich,2021.2.3,59.94912717108232,
72.0,72.75,39,0.75,Stimuli/P009/things_tiara_05s.jpg,1,0,0.75,0,137,137,137,,,,,,,,,,,,,72.01295949999985,0.012959499999851687,1,105.85946669999976,105.85946669999976,105.85946669999976,105.85946669999976,105.85946669999976,105.85946669999976,105.85946669999976,106.5934711000009,105.85946669999976,105.85946669999976,0.4155860999999277,009,P009,2025_Feb_01_1421,ConditionRich,2021.2.3,59.94912717108232,
72.75,73.0,41,0.0,Stimuli/Blank.png,0,0,0.0,0,138,138,138,,,,,,,,,,,,,72.76437179999994,0.01437179999993532,None,106.62684109999827,106.62684109999827,106.62684109999827,106.62684109999827,106.62684109999827,106.62684109999827,106.62684109999827,106.62684109999827,106.62684109999827,106.62684109999827,,009,P009,2025_Feb_01_1421,ConditionRich,2021.2.3,59.94912717108232,
73.0,73.75,39,0.75,Stimuli/P009/things_tiara_05s.jpg,0,0,0.0,0,139,139,139,,,,,,,,,,,,,73.03025080000225,0.03025080000224989,None,106.87702780000109,106.87702780000109,106.87702780000109,106.87702780000109,106.87702780000109,106.87702780000109,106.87702780000109,106.87702780000109,106.87702780000109,106.87702780000109,,009,P009,2025_Feb_01_1421,ConditionRich,2021.2.3,59.94912717108232,
73.75,74.0,41,0.0,Stimuli/Blank.png,0,0,0.0,0,140,140,140,,,,,,,,,,,,,73.76451850000012,0.014518500000122003,None,107.61102210000172,107.61102210000172,107.61102210000172,107.61102210000172,107.61102210000172,107.61102210000172,107.61102210000172,107.61102210000172,107.61102210000172,107.61102210000172,,009,P009,2025_Feb_01_1421,ConditionRich,2021.2.3,59.94912717108232,
74.0,74.75,39,0.75,Stimuli/P009/things_tiara_05s.jpg,0,0,0.0,0,141,141,141,,,,,,,,,,,,,74.01445370000147,0.01445370000146795,None,107.86125299999912,107.86125299999912,107.86125299999912,107.86125299999912,107.86125299999912,107.86125299999912,107.86125299999912,107.86125299999912,107.86125299999912,107.86125299999912,,009,P009,2025_Feb_01_1421,ConditionRich,2021.2.3,59.94912717108232,
74.75,75.0,41,0.0,Stimuli/Blank.png,0,0,0.0,0,142,142,142,,,,,,,,,,,,,74.76506300000256,0.015063000002555782,None,108.6119088000014,108.6119088000014,108.6119088000014,108.6119088000014,108.6119088000014,108.6119088000014,108.6119088000014,108.6119088000014,108.6119088000014,108.6119088000014,,009,P009,2025_Feb_01_1421,ConditionRich,2021.2.3,59.94912717108232,
75.0,75.75,39,0.75,Stimuli/P009/things_tiara_05s.jpg,0,0,0.0,0,143,143,143,,,,,,,,,,,,,75.01816410000174,0.018164100001740735,None,108.87880969999969,108.87880969999969,108.87880969999969,108.87880969999969,108.87880969999969,108.87880969999969,108.87880969999969,108.87880969999969,108.87880969999969,108.87880969999969,,009,P009,2025_Feb_01_1421,ConditionRich,2021.2.3,59.94912717108232,
75.75,76.0,41,0.0,Stimuli/Blank.png,0,0,0.0,0,144,144,144,,,,,,,,,,,,,75.76857200000086,0.01857200000085868,None,109.62947310000163,109.62947310000163,109.62947310000163,109.62947310000163,109.62947310000163,109.62947310000163,109.62947310000163,109.62947310000163,109.62947310000163,109.62947310000163,,009,P009,2025_Feb_01_1421,ConditionRich,2021.2.3,59.94912717108232,
76.0,76.75,7,0.75,Stimuli/P009/sun_apiogxmvvzfmtsmj.jpg,0,0,0.0,0,145,145,145,,,,,,,,,,,,,76.01608280000073,0.016082800000731368,None,109.88016409999909,109.88016409999909,109.88016409999909,109.88016409999909,109.88016409999909,109.88016409999909,109.88016409999909,109.88016409999909,109.88016409999909,109.88016409999909,,009,P009,2025_Feb_01_1421,ConditionRich,2021.2.3,59.94912717108232,
76.75,77.0,41,0.0,Stimuli/Blank.png,0,0,0.0,0,146,146,146,,,,,,,,,,,,,76.76769130000321,0.01769130000320729,None,110.6136789000011,110.6136789000011,110.6136789000011,110.6136789000011,110.6136789000011,110.6136789000011,110.6136789000011,110.6136789000011,110.6136789000011,110.6136789000011,,009,P009,2025_Feb_01_1421,ConditionRich,2021.2.3,59.94912717108232,
77.0,77.75,7,0.75,Stimuli/P009/sun_apiogxmvvzfmtsmj.jpg,0,0,0.0,0,147,147,147,,,,,,,,,,,,,77.00322120000055,0.003221200000552926,None,110.86390140000003,110.86390140000003,110.86390140000003,110.86390140000003,110.86390140000003,110.86390140000003,110.86390140000003,110.86390140000003,110.86390140000003,110.86390140000003,,009,P009,2025_Feb_01_1421,ConditionRich,2021.2.3,59.94912717108232,
77.75,78.0,41,0.0,Stimuli/Blank.png,0,0,0.0,0,148,148,148,,,,,,,,,,,,,77.76769320000312,0.01769320000312291,None,111.6145557000018,111.6145557000018,111.6145557000018,111.6145557000018,111.6145557000018,111.6145557000018,111.6145557000018,111.6145557000018,111.6145557000018,111.6145557000018,,009,P009,2025_Feb_01_1421,ConditionRich,2021.2.3,59.94912717108232,
78.0,78.75,7,0.75,Stimuli/P009/sun_apiogxmvvzfmtsmj.jpg,0,0,0.0,0,149,149,149,,,,,,,,,,,,,78.00283330000093,0.0028333000009297393,None,111.86481439999989,111.86481439999989,111.86481439999989,111.86481439999989,111.86481439999989,111.86481439999989,111.86481439999989,111.86481439999989,111.86481439999989,111.86481439999989,,009,P009,2025_Feb_01_1421,ConditionRich,2021.2.3,59.94912717108232,
78.75,79.0,41,0.0,Stimuli/Blank.png,0,0,0.0,0,150,150,150,,,,,,,,,,,,,78.76985419999983,0.01985419999982696,None,112.61544380000123,112.61544380000123,112.61544380000123,112.61544380000123,112.61544380000123,112.61544380000123,112.61544380000123,112.61544380000123,112.61544380000123,112.61544380000123,,009,P009,2025_Feb_01_1421,ConditionRich,2021.2.3,59.94912717108232,
79.0,79.75,7,0.75,Stimuli/P009/sun_apiogxmvvzfmtsmj.jpg,0,0,0.0,0,151,151,151,,,,,,,,,,,,,79.00357700000313,0.003577000003133435,None,112.865686000001,112.865686000001,112.865686000001,112.865686000001,112.865686000001,112.865686000001,112.865686000001,112.865686000001,112.865686000001,112.865686000001,,009,P009,2025_Feb_01_1421,ConditionRich,2021.2.3,59.94912717108232,
79.75,80.0,41,0.0,Stimuli/Blank.png,0,0,0.0,0,152,152,152,,,,,,,,,,,,,79.76951340000232,0.019513400002324488,None,113.6163278999993,113.6163278999993,113.6163278999993,113.6163278999993,113.6163278999993,113.6163278999993,113.6163278999993,113.6163278999993,113.6163278999993,113.6163278999993,,009,P009,2025_Feb_01_1421,ConditionRich,2021.2.3,59.94912717108232,
80.0,80.75,40,0.75,Stimuli/P009/things_woman_05s.jpg,0,0,0.0,0,153,153,153,,,,,,,,,,,,,80.00363260000086,0.0036326000008557457,None,113.84986890000073,113.84986890000073,113.84986890000073,113.84986890000073,113.84986890000073,113.84986890000073,113.84986890000073,113.84986890000073,113.84986890000073,113.84986890000073,,009,P009,2025_Feb_01_1421,ConditionRich,2021.2.3,59.94912717108232,
80.75,81.0,41,0.0,Stimuli/Blank.png,0,0,0.0,0,154,154,154,,,,,,,,,,,,,80.7537379000023,0.00373790000230656,None,114.60052899999937,114.60052899999937,114.60052899999937,114.60052899999937,114.60052899999937,114.60052899999937,114.60052899999937,114.60052899999937,114.60052899999937,114.60052899999937,,009,P009,2025_Feb_01_1421,ConditionRich,2021.2.3,59.94912717108232,
81.0,81.75,40,0.75,Stimuli/P009/things_woman_05s.jpg,0,0,0.0,0,155,155,155,,,,,,,,,,,,,81.00563780000084,0.005637800000840798,None,114.85074850000092,114.85074850000092,114.85074850000092,114.85074850000092,114.85074850000092,114.85074850000092,114.85074850000092,114.85074850000092,114.85074850000092,114.85074850000092,,009,P009,2025_Feb_01_1421,ConditionRich,2021.2.3,59.94912717108232,
81.75,82.0,41,0.0,Stimuli/Blank.png,0,0,0.0,0,156,156,156,,,,,,,,,,,,,81.75541390000217,0.005413900002167793,None,115.60141350000049,115.60141350000049,115.60141350000049,115.60141350000049,115.60141350000049,115.60141350000049,115.60141350000049,115.60141350000049,115.60141350000049,115.60141350000049,,009,P009,2025_Feb_01_1421,ConditionRich,2021.2.3,59.94912717108232,
82.0,82.75,40,0.75,Stimuli/P009/things_woman_05s.jpg,0,0,0.0,0,157,157,157,,,,,,,,,,,,,82.00501129999975,0.005011299999750918,None,115.85164040000018,115.85164040000018,115.85164040000018,115.85164040000018,115.85164040000018,115.85164040000018,115.85164040000018,115.85164040000018,115.85164040000018,115.85164040000018,,009,P009,2025_Feb_01_1421,ConditionRich,2021.2.3,59.94912717108232,
82.75,83.0,41,0.0,Stimuli/Blank.png,0,0,0.0,0,158,158,158,,,,,,,,,,,,,82.75563030000194,0.005630300001939759,None,116.60231159999967,116.60231159999967,116.60231159999967,116.60231159999967,116.60231159999967,116.60231159999967,116.60231159999967,116.60231159999967,116.60231159999967,116.60231159999967,,009,P009,2025_Feb_01_1421,ConditionRich,2021.2.3,59.94912717108232,
83.0,83.75,40,0.75,Stimuli/P009/things_woman_05s.jpg,0,0,0.0,0,159,159,159,,,,,,,,,,,,,83.00569360000009,0.005693600000086008,None,116.86921259999872,116.86921259999872,116.86921259999872,116.86921259999872,116.86921259999872,116.86921259999872,116.86921259999872,116.86921259999872,116.86921259999872,116.86921259999872,,009,P009,2025_Feb_01_1421,ConditionRich,2021.2.3,59.94912717108232,
83.75,84.0,41,0.0,Stimuli/Blank.png,0,0,0.0,0,160,160,160,,,,,,,,,,,,,83.77395530000285,0.02395530000285362,None,117.61987750000117,117.61987750000117,117.61987750000117,117.61987750000117,117.61987750000117,117.61987750000117,117.61987750000117,117.61987750000117,117.61987750000117,117.61987750000117,,009,P009,2025_Feb_01_1421,ConditionRich,2021.2.3,59.94912717108232,
84.0,100.0,0,0.0,Stimuli/Blank.png,1,8,8.75,0,161,161,161,,,,,,,,,,,,,84.00861090000035,0.00861090000034892,1,117.87012099999993,117.87012099999993,117.87012099999993,117.87012099999993,117.87012099999993,117.87012099999993,125.84378110000034,126.59447839999848,117.87012099999993,117.87012099999993,8.432144700000208,009,P009,2025_Feb_01_1421,ConditionRich,2021.2.3,59.94912717108232,
100.0,100.75,6,0.75,Stimuli/P009/sun_amkrwcyvinmsylsz.jpg,0,0,0.0,0,162,162,162,,,,,,,,,,,,,100.02088210000147,0.02088210000147228,None,133.88427260000026,133.88427260000026,133.88427260000026,133.88427260000026,133.88427260000026,133.88427260000026,133.88427260000026,133.88427260000026,133.88427260000026,133.88427260000026,,009,P009,2025_Feb_01_1421,ConditionRich,2021.2.3,59.94912717108232,
100.75,101.0,41,0.0,Stimuli/Blank.png,0,0,0.0,0,163,163,163,,,,,,,,,,,,,100.77358020000247,0.02358020000247052,None,134.63493730000118,134.63493730000118,134.63493730000118,134.63493730000118,134.63493730000118,134.63493730000118,134.63493730000118,134.63493730000118,134.63493730000118,134.63493730000118,,009,P009,2025_Feb_01_1421,ConditionRich,2021.2.3,59.94912717108232,
101.0,101.75,6,0.75,Stimuli/P009/sun_amkrwcyvinmsylsz.jpg,0,0,0.0,0,164,164,164,,,,,,,,,,,,,101.02376730000105,0.023767300001054537,None,134.88516000000163,134.88516000000163,134.88516000000163,134.88516000000163,134.88516000000163,134.88516000000163,134.88516000000163,134.88516000000163,134.88516000000163,134.88516000000163,,009,P009,2025_Feb_01_1421,ConditionRich,2021.2.3,59.94912717108232,
101.75,102.0,41,0.0,Stimuli/Blank.png,0,0,0.0,0,165,165,165,,,,,,,,,,,,,101.7738937000031,0.023893700003100093,None,135.6191429999999,135.6191429999999,135.6191429999999,135.6191429999999,135.6191429999999,135.6191429999999,135.6191429999999,135.6191429999999,135.6191429999999,135.6191429999999,,009,P009,2025_Feb_01_1421,ConditionRich,2021.2.3,59.94912717108232,
102.0,102.75,6,0.75,Stimuli/P009/sun_amkrwcyvinmsylsz.jpg,0,0,0.0,0,166,166,166,,,,,,,,,,,,,102.00733870000113,0.007338700001128018,None,135.86934960000144,135.86934960000144,135.86934960000144,135.86934960000144,135.86934960000144,135.86934960000144,135.86934960000144,135.86934960000144,135.86934960000144,135.86934960000144,,009,P009,2025_Feb_01_1421,ConditionRich,2021.2.3,59.94912717108232,
102.75,103.0,41,0.0,Stimuli/Blank.png,0,0,0.0,0,167,167,167,,,,,,,,,,,,,102.77451290000317,0.024512900003173854,None,136.6367183000002,136.6367183000002,136.6367183000002,136.6367183000002,136.6367183000002,136.6367183000002,136.6367183000002,136.6367183000002,136.6367183000002,136.6367183000002,,009,P009,2025_Feb_01_1421,ConditionRich,2021.2.3,59.94912717108232,
103.0,103.75,6,0.75,Stimuli/P009/sun_amkrwcyvinmsylsz.jpg,0,0,0.0,0,168,168,168,,,,,,,,,,,,,103.02417790000254,0.02417790000254172,None,136.8874582999997,136.8874582999997,136.8874582999997,136.8874582999997,136.8874582999997,136.8874582999997,136.8874582999997,136.8874582999997,136.8874582999997,136.8874582999997,,009,P009,2025_Feb_01_1421,ConditionRich,2021.2.3,59.94912717108232,
103.75,104.0,41,0.0,Stimuli/Blank.png,0,0,0.0,0,169,169,169,,,,,,,,,,,,,103.77473370000007,0.024733700000069803,None,137.62091149999833,137.62091149999833,137.62091149999833,137.62091149999833,137.62091149999833,137.62091149999833,137.62091149999833,137.62091149999833,137.62091149999833,137.62091149999833,,009,P009,2025_Feb_01_1421,ConditionRich,2021.2.3,59.94912717108232,
104.0,104.75,9,0.75,Stimuli/P009/sun_bdjkvwqqqycuixtc.jpg,1,0,0.75,0,170,170,170,,,,,,,,,,,,,104.00762720000057,0.007627200000570156,1,137.85444369999823,137.85444369999823,137.85444369999823,137.85444369999823,137.85444369999823,137.85444369999823,137.85444369999823,138.58842780000123,137.85444369999823,137.85444369999823,0.42555219999849214,009,P009,2025_Feb_01_1421,ConditionRich,2021.2.3,59.94912717108232,
104.75,105.0,41,0.0,Stimuli/Blank.png,0,0,0.0,0,171,171,171,,,,,,,,,,,,,104.75860350000221,0.00860350000220933,None,138.6051097999989,138.6051097999989,138.6051097999989,138.6051097999989,138.6051097999989,138.6051097999989,138.6051097999989,138.6051097999989,138.6051097999989,138.6051097999989,,009,P009,2025_Feb_01_1421,ConditionRich,2021.2.3,59.94912717108232,
105.0,105.75,9,0.75,Stimuli/P009/sun_bdjkvwqqqycuixtc.jpg,0,0,0.0,0,172,172,172,,,,,,,,,,,,,105.00910270000168,0.009102700001676567,None,138.87200849999863,138.87200849999863,138.87200849999863,138.87200849999863,138.87200849999863,138.87200849999863,138.87200849999863,138.87200849999863,138.87200849999863,138.87200849999863,,009,P009,2025_Feb_01_1421,ConditionRich,2021.2.3,59.94912717108232,
105.75,106.0,41,0.0,Stimuli/Blank.png,0,0,0.0,0,173,173,173,,,,,,,,,,,,,105.77611070000057,0.02611070000057225,None,139.62268979999862,139.62268979999862,139.62268979999862,139.62268979999862,139.62268979999862,139.62268979999862,139.62268979999862,139.62268979999862,139.62268979999862,139.62268979999862,,009,P009,2025_Feb_01_1421,ConditionRich,2021.2.3,59.94912717108232,
106.0,106.75,9,0.75,Stimuli/P009/sun_bdjkvwqqqycuixtc.jpg,0,0,0.0,0,174,174,174,,,,,,,,,,,,,106.00942120000036,0.009421200000360841,None,139.8562138999987,139.8562138999987,139.8562138999987,139.8562138999987,139.8562138999987,139.8562138999987,139.8562138999987,139.8562138999987,139.8562138999987,139.8562138999987,,009,P009,2025_Feb_01_1421,ConditionRich,2021.2.3,59.94912717108232,
106.75,107.0,41,0.0,Stimuli/Blank.png,0,0,0.0,0,175,175,175,,,,,,,,,,,,,106.76013240000248,0.01013240000247606,None,140.6068821000008,140.6068821000008,140.6068821000008,140.6068821000008,140.6068821000008,140.6068821000008,140.6068821000008,140.6068821000008,140.6068821000008,140.6068821000008,,009,P009,2025_Feb_01_1421,ConditionRich,2021.2.3,59.94912717108232,
107.0,107.75,9,0.75,Stimuli/P009/sun_bdjkvwqqqycuixtc.jpg,0,0,0.0,0,176,176,176,,,,,,,,,,,,,107.01107039999988,0.011070399999880465,None,140.87379090000104,140.87379090000104,140.87379090000104,140.87379090000104,140.87379090000104,140.87379090000104,140.87379090000104,140.87379090000104,140.87379090000104,140.87379090000104,,009,P009,2025_Feb_01_1421,ConditionRich,2021.2.3,59.94912717108232,
107.75,108.0,41,0.0,Stimuli/Blank.png,0,0,0.0,0,177,177,177,,,,,,,,,,,,,107.77772430000186,0.02772430000186432,None,141.6244504999995,141.6244504999995,141.6244504999995,141.6244504999995,141.6244504999995,141.6244504999995,141.6244504999995,141.6244504999995,141.6244504999995,141.6244504999995,,009,P009,2025_Feb_01_1421,ConditionRich,2021.2.3,59.94912717108232,
108.0,108.75,33,0.75,Stimuli/P009/things_lizard_05n.jpg,0,0,0.0,0,178,178,178,,,,,,,,,,,,,108.01323520000005,0.013235200000053737,None,141.8754759000003,141.8754759000003,141.8754759000003,141.8754759000003,141.8754759000003,141.8754759000003,141.8754759000003,141.8754759000003,141.8754759000003,141.8754759000003,,009,P009,2025_Feb_01_1421,ConditionRich,2021.2.3,59.94912717108232,
108.75,109.0,41,0.0,Stimuli/Blank.png,0,0,0.0,0,179,179,179,,,,,,,,,,,,,108.77921170000263,0.029211700002633734,None,142.62547099999938,142.62547099999938,142.62547099999938,142.62547099999938,142.62547099999938,142.62547099999938,142.62547099999938,142.62547099999938,142.62547099999938,142.62547099999938,,009,P009,2025_Feb_01_1421,ConditionRich,2021.2.3,59.94912717108232,
109.0,109.75,33,0.75,Stimuli/P009/things_lizard_05n.jpg,0,0,0.0,0,180,180,180,,,,,,,,,,,,,109.01294229999985,0.012942299999849638,None,142.8755858000004,142.8755858000004,142.8755858000004,142.8755858000004,142.8755858000004,142.8755858000004,142.8755858000004,142.8755858000004,142.8755858000004,142.8755858000004,,009,P009,2025_Feb_01_1421,ConditionRich,2021.2.3,59.94912717108232,
109.75,110.0,41,0.0,Stimuli/Blank.png,0,0,0.0,0,181,181,181,,,,,,,,,,,,,109.780199300003,0.03019930000300519,None,143.62621619999845,143.62621619999845,143.62621619999845,143.62621619999845,143.62621619999845,143.62621619999845,143.62621619999845,143.62621619999845,143.62621619999845,143.62621619999845,,009,P009,2025_Feb_01_1421,ConditionRich,2021.2.3,59.94912717108232,
110.0,110.75,33,0.75,Stimuli/P009/things_lizard_05n.jpg,0,0,0.0,0,182,182,182,,,,,,,,,,,,,110.01301539999986,0.013015399999858346,None,143.85975189999954,143.85975189999954,143.85975189999954,143.85975189999954,143.85975189999954,143.85975189999954,143.85975189999954,143.85975189999954,143.85975189999954,143.85975189999954,,009,P009,2025_Feb_01_1421,ConditionRich,2021.2.3,59.94912717108232,
110.75,111.0,41,0.0,Stimuli/Blank.png,0,0,0.0,0,183,183,183,,,,,,,,,,,,,110.76441940000223,0.014419400002225302,None,144.61043079999945,144.61043079999945,144.61043079999945,144.61043079999945,144.61043079999945,144.61043079999945,144.61043079999945,144.61043079999945,144.61043079999945,144.61043079999945,,009,P009,2025_Feb_01_1421,ConditionRich,2021.2.3,59.94912717108232,
111.0,111.75,33,0.75,Stimuli/P009/things_lizard_05n.jpg,0,0,0.0,0,184,184,184,,,,,,,,,,,,,111.01402400000006,0.014024000000063097,None,144.86064080000142,144.86064080000142,144.86064080000142,144.86064080000142,144.86064080000142,144.86064080000142,144.86064080000142,144.86064080000142,144.86064080000142,144.86064080000142,,009,P009,2025_Feb_01_1421,ConditionRich,2021.2.3,59.94912717108232,
111.75,112.0,41,0.0,Stimuli/Blank.png,0,0,0.0,0,185,185,185,,,,,,,,,,,,,111.76517299999978,0.015172999999776948,None,145.61128649999955,145.61128649999955,145.61128649999955,145.61128649999955,145.61128649999955,145.61128649999955,145.61128649999955,145.61128649999955,145.61128649999955,145.61128649999955,,009,P009,2025_Feb_01_1421,ConditionRich,2021.2.3,59.94912717108232,
112.0,112.75,13,0.75,Stimuli/P009/sun_bjimvgwadfodioes.jpg,0,0,0.0,0,186,186,186,,,,,,,,,,,,,112.01533800000107,0.015338000001065666,None,145.86152439999933,145.86152439999933,145.86152439999933,145.86152439999933,145.86152439999933,145.86152439999933,145.86152439999933,145.86152439999933,145.86152439999933,145.86152439999933,,009,P009,2025_Feb_01_1421,ConditionRich,2021.2.3,59.94912717108232,
112.75,113.0,41,0.0,Stimuli/Blank.png,0,0,0.0,0,187,187,187,,,,,,,,,,,,,112.74870090000331,-0.0012990999966859818,None,146.59552070000063,146.59552070000063,146.59552070000063,146.59552070000063,146.59552070000063,146.59552070000063,146.59552070000063,146.59552070000063,146.59552070000063,146.59552070000063,,009,P009,2025_Feb_01_1421,ConditionRich,2021.2.3,59.94912717108232,
113.0,113.75,13,0.75,Stimuli/P009/sun_bjimvgwadfodioes.jpg,0,0,0.0,0,188,188,188,,,,,,,,,,,,,113.00003500000093,3.5000000934815034e-05,None,146.86243770000146,146.86243770000146,146.86243770000146,146.86243770000146,146.86243770000146,146.86243770000146,146.86243770000146,146.86243770000146,146.86243770000146,146.86243770000146,,009,P009,2025_Feb_01_1421,ConditionRich,2021.2.3,59.94912717108232,
113.75,114.0,41,0.0,Stimuli/Blank.png,0,0,0.0,0,189,189,189,,,,,,,,,,,,,113.76781800000026,0.017818000000261236,None,147.61308179999833,147.61308179999833,147.61308179999833,147.61308179999833,147.61308179999833,147.61308179999833,147.61308179999833,147.61308179999833,147.61308179999833,147.61308179999833,,009,P009,2025_Feb_01_1421,ConditionRich,2021.2.3,59.94912717108232,
114.0,114.75,13,0.75,Stimuli/P009/sun_bjimvgwadfodioes.jpg,0,0,0.0,0,190,190,190,,,,,,,,,,,,,113.99998200000118,-1.799999881768599e-05,None,147.84659150000152,147.84659150000152,147.84659150000152,147.84659150000152,147.84659150000152,147.84659150000152,147.84659150000152,147.84659150000152,147.84659150000152,147.84659150000152,,009,P009,2025_Feb_01_1421,ConditionRich,2021.2.3,59.94912717108232,
114.75,115.0,41,0.0,Stimuli/Blank.png,0,0,0.0,0,191,191,191,,,,,,,,,,,,,114.75138660000084,0.0013866000008420087,None,148.59728280000127,148.59728280000127,148.59728280000127,148.59728280000127,148.59728280000127,148.59728280000127,148.59728280000127,148.59728280000127,148.59728280000127,148.59728280000127,,009,P009,2025_Feb_01_1421,ConditionRich,2021.2.3,59.94912717108232,
115.0,115.75,13,0.75,Stimuli/P009/sun_bjimvgwadfodioes.jpg,0,0,0.0,0,192,192,192,,,,,,,,,,,,,115.00065710000126,0.0006571000012627337,None,148.86419450000176,148.86419450000176,148.86419450000176,148.86419450000176,148.86419450000176,148.86419450000176,148.86419450000176,148.86419450000176,148.86419450000176,148.86419450000176,,009,P009,2025_Feb_01_1421,ConditionRich,2021.2.3,59.94912717108232,
115.75,116.0,41,0.0,Stimuli/Blank.png,0,0,0.0,0,193,193,193,,,,,,,,,,,,,115.76925649999976,0.01925649999975576,None,149.63154450000002,149.63154450000002,149.63154450000002,149.63154450000002,149.63154450000002,149.63154450000002,149.63154450000002,149.63154450000002,149.63154450000002,149.63154450000002,,009,P009,2025_Feb_01_1421,ConditionRich,2021.2.3,59.94912717108232,
116.0,116.75,21,0.75,Stimuli/P009/things_boy_05s.jpg,0,0,0.0,0,194,194,194,,,,,,,,,,,,,116.01945669999986,0.019456699999864213,None,149.8650774000016,149.8650774000016,149.8650774000016,149.8650774000016,149.8650774000016,149.8650774000016,149.8650774000016,149.8650774000016,149.8650774000016,149.8650774000016,,009,P009,2025_Feb_01_1421,ConditionRich,2021.2.3,59.94912717108232,
116.75,117.0,41,0.0,Stimuli/Blank.png,0,0,0.0,0,195,195,195,,,,,,,,,,,,,116.75307930000054,0.0030793000005360227,None,150.59906350000165,150.59906350000165,150.59906350000165,150.59906350000165,150.59906350000165,150.59906350000165,150.59906350000165,150.59906350000165,150.59906350000165,150.59906350000165,,009,P009,2025_Feb_01_1421,ConditionRich,2021.2.3,59.94912717108232,
117.0,117.75,21,0.75,Stimuli/P009/things_boy_05s.jpg,0,0,0.0,0,196,196,196,,,,,,,,,,,,,117.0031381000008,0.0031381000007968396,None,150.84927529999914,150.84927529999914,150.84927529999914,150.84927529999914,150.84927529999914,150.84927529999914,150.84927529999914,150.84927529999914,150.84927529999914,150.84927529999914,,009,P009,2025_Feb_01_1421,ConditionRich,2021.2.3,59.94912717108232,
117.75,118.0,41,0.0,Stimuli/Blank.png,0,0,0.0,0,197,197,197,,,,,,,,,,,,,117.75431490000119,0.004314900001190836,None,151.59995150000032,151.59995150000032,151.59995150000032,151.59995150000032,151.59995150000032,151.59995150000032,151.59995150000032,151.59995150000032,151.59995150000032,151.59995150000032,,009,P009,2025_Feb_01_1421,ConditionRich,2021.2.3,59.94912717108232,
118.0,118.75,21,0.75,Stimuli/P009/things_boy_05s.jpg,0,0,0.0,0,198,198,198,,,,,,,,,,,,,118.00336280000192,0.0033628000019234605,None,151.85013270000127,151.85013270000127,151.85013270000127,151.85013270000127,151.85013270000127,151.85013270000127,151.85013270000127,151.85013270000127,151.85013270000127,151.85013270000127,,009,P009,2025_Feb_01_1421,ConditionRich,2021.2.3,59.94912717108232,
118.75,119.0,41,0.0,Stimuli/Blank.png,0,0,0.0,0,199,199,199,,,,,,,,,,,,,118.75486749999982,0.004867499999818392,None,152.60082200000033,152.60082200000033,152.60082200000033,152.60082200000033,152.60082200000033,152.60082200000033,152.60082200000033,152.60082200000033,152.60082200000033,152.60082200000033,,009,P009,2025_Feb_01_1421,ConditionRich,2021.2.3,59.94912717108232,
119.0,119.75,21,0.75,Stimuli/P009/things_boy_05s.jpg,0,0,0.0,0,200,200,200,,,,,,,,,,,,,119.0042297,0.004229699999996228,None,152.8510395000012,152.8510395000012,152.8510395000012,152.8510395000012,152.8510395000012,152.8510395000012,152.8510395000012,152.8510395000012,152.8510395000012,152.8510395000012,,009,P009,2025_Feb_01_1421,ConditionRich,2021.2.3,59.94912717108232,
119.75,120.0,41,0.0,Stimuli/Blank.png,0,0,0.0,0,201,201,201,,,,,,,,,,,,,119.75501540000187,0.00501540000186651,None,153.6017079000012,153.6017079000012,153.6017079000012,153.6017079000012,153.6017079000012,153.6017079000012,153.6017079000012,153.6017079000012,153.6017079000012,153.6017079000012,,009,P009,2025_Feb_01_1421,ConditionRich,2021.2.3,59.94912717108232,
120.0,120.75,35,0.75,Stimuli/P009/things_mushroom_05n.jpg,0,0,0.0,0,202,202,202,,,,,,,,,,,,,120.00527730000249,0.0052773000024899375,None,153.86861359999966,153.86861359999966,153.86861359999966,153.86861359999966,153.86861359999966,153.86861359999966,153.86861359999966,153.86861359999966,153.86861359999966,153.86861359999966,,009,P009,2025_Feb_01_1421,ConditionRich,2021.2.3,59.94912717108232,
120.75,121.0,41,0.0,Stimuli/Blank.png,0,0,0.0,0,203,203,203,,,,,,,,,,,,,120.77333760000329,0.023337600003287662,None,154.61928270000135,154.61928270000135,154.61928270000135,154.61928270000135,154.61928270000135,154.61928270000135,154.61928270000135,154.61928270000135,154.61928270000135,154.61928270000135,,009,P009,2025_Feb_01_1421,ConditionRich,2021.2.3,59.94912717108232,
121.0,121.75,35,0.75,Stimuli/P009/things_mushroom_05n.jpg,0,0,0.0,0,204,204,204,,,,,,,,,,,,,121.00838740000108,0.008387400001083734,None,154.86951090000002,154.86951090000002,154.86951090000002,154.86951090000002,154.86951090000002,154.86951090000002,154.86951090000002,154.86951090000002,154.86951090000002,154.86951090000002,,009,P009,2025_Feb_01_1421,ConditionRich,2021.2.3,59.94912717108232,
121.75,122.0,41,0.0,Stimuli/Blank.png,0,0,0.0,0,205,205,205,,,,,,,,,,,,,121.77408230000219,0.024082300002191914,None,155.62017059999926,155.62017059999926,155.62017059999926,155.62017059999926,155.62017059999926,155.62017059999926,155.62017059999926,155.62017059999926,155.62017059999926,155.62017059999926,,009,P009,2025_Feb_01_1421,ConditionRich,2021.2.3,59.94912717108232,
122.0,122.75,35,0.75,Stimuli/P009/things_mushroom_05n.jpg,0,0,0.0,0,206,206,206,,,,,,,,,,,,,122.0076461000026,0.007646100002602907,None,155.87038210000173,155.87038210000173,155.87038210000173,155.87038210000173,155.87038210000173,155.87038210000173,155.87038210000173,155.87038210000173,155.87038210000173,155.87038210000173,,009,P009,2025_Feb_01_1421,ConditionRich,2021.2.3,59.94912717108232,
122.75,123.0,41,0.0,Stimuli/Blank.png,0,0,0.0,0,207,207,207,,,,,,,,,,,,,122.77467500000057,0.024675000000570435,None,156.62104399999953,156.62104399999953,156.62104399999953,156.62104399999953,156.62104399999953,156.62104399999953,156.62104399999953,156.62104399999953,156.62104399999953,156.62104399999953,,009,P009,2025_Feb_01_1421,ConditionRich,2021.2.3,59.94912717108232,
123.0,123.75,35,0.75,Stimuli/P009/things_mushroom_05n.jpg,0,0,0.0,0,208,208,208,,,,,,,,,,,,,123.00928060000297,0.009280600002966821,None,156.87126680000074,156.87126680000074,156.87126680000074,156.87126680000074,156.87126680000074,156.87126680000074,156.87126680000074,156.87126680000074,156.87126680000074,156.87126680000074,,009,P009,2025_Feb_01_1421,ConditionRich,2021.2.3,59.94912717108232,
123.75,124.0,41,0.0,Stimuli/Blank.png,0,0,0.0,0,209,209,209,,,,,,,,,,,,,123.77534240000023,0.025342400000226917,None,157.62193760000082,157.62193760000082,157.62193760000082,157.62193760000082,157.62193760000082,157.62193760000082,157.62193760000082,157.62193760000082,157.62193760000082,157.62193760000082,,009,P009,2025_Feb_01_1421,ConditionRich,2021.2.3,59.94912717108232,
124.0,124.75,10,0.75,Stimuli/P009/sun_bdkttewvyfdarikm.jpg,0,0,0.0,0,210,210,210,,,,,,,,,,,,,124.0093048000017,0.009304800001700642,None,157.85549979999996,157.85549979999996,157.85549979999996,157.85549979999996,157.85549979999996,157.85549979999996,157.85549979999996,157.85549979999996,157.85549979999996,157.85549979999996,,009,P009,2025_Feb_01_1421,ConditionRich,2021.2.3,59.94912717108232,
124.75,125.0,41,0.0,Stimuli/Blank.png,0,0,0.0,0,211,211,211,,,,,,,,,,,,,124.76000879999992,0.010008799999923212,None,158.60613659999945,158.60613659999945,158.60613659999945,158.60613659999945,158.60613659999945,158.60613659999945,158.60613659999945,158.60613659999945,158.60613659999945,158.60613659999945,,009,P009,2025_Feb_01_1421,ConditionRich,2021.2.3,59.94912717108232,
125.0,125.75,10,0.75,Stimuli/P009/sun_bdkttewvyfdarikm.jpg,0,0,0.0,0,212,212,212,,,,,,,,,,,,,125.0095175000024,0.009517500002402812,None,158.85635840000032,158.85635840000032,158.85635840000032,158.85635840000032,158.85635840000032,158.85635840000032,158.85635840000032,158.85635840000032,158.85635840000032,158.85635840000032,,009,P009,2025_Feb_01_1421,ConditionRich,2021.2.3,59.94912717108232,
125.75,126.0,41,0.0,Stimuli/Blank.png,0,0,0.0,0,213,213,213,,,,,,,,,,,,,125.76018620000104,0.010186200001044199,None,159.60702519999904,159.60702519999904,159.60702519999904,159.60702519999904,159.60702519999904,159.60702519999904,159.60702519999904,159.60702519999904,159.60702519999904,159.60702519999904,,009,P009,2025_Feb_01_1421,ConditionRich,2021.2.3,59.94912717108232,
126.0,126.75,10,0.75,Stimuli/P009/sun_bdkttewvyfdarikm.jpg,0,0,0.0,0,214,214,214,,,,,,,,,,,,,126.01104630000191,0.011046300001908094,None,159.87394810000114,159.87394810000114,159.87394810000114,159.87394810000114,159.87394810000114,159.87394810000114,159.87394810000114,159.87394810000114,159.87394810000114,159.87394810000114,,009,P009,2025_Feb_01_1421,ConditionRich,2021.2.3,59.94912717108232,
126.75,127.0,41,0.0,Stimuli/Blank.png,0,0,0.0,0,215,215,215,,,,,,,,,,,,,126.77780790000179,0.027807900001789676,None,160.6252502999996,160.6252502999996,160.6252502999996,160.6252502999996,160.6252502999996,160.6252502999996,160.6252502999996,160.6252502999996,160.6252502999996,160.6252502999996,,009,P009,2025_Feb_01_1421,ConditionRich,2021.2.3,59.94912717108232,
127.0,127.75,10,0.75,Stimuli/P009/sun_bdkttewvyfdarikm.jpg,0,0,0.0,0,216,216,216,,,,,,,,,,,,,127.01252590000149,0.012525900001492118,None,160.87485089999973,160.87485089999973,160.87485089999973,160.87485089999973,160.87485089999973,160.87485089999973,160.87485089999973,160.87485089999973,160.87485089999973,160.87485089999973,,009,P009,2025_Feb_01_1421,ConditionRich,2021.2.3,59.94912717108232,
127.75,128.0,41,0.0,Stimuli/Blank.png,0,0,0.0,0,217,217,217,,,,,,,,,,,,,127.77877600000284,0.028776000002835644,None,161.6254790999992,161.6254790999992,161.6254790999992,161.6254790999992,161.6254790999992,161.6254790999992,161.6254790999992,161.6254790999992,161.6254790999992,161.6254790999992,,009,P009,2025_Feb_01_1421,ConditionRich,2021.2.3,59.94912717108232,
128.0,128.75,27,0.75,Stimuli/P009/things_curling_iron_05s.jpg,0,0,0.0,0,218,218,218,,,,,,,,,,,,,128.0128095,0.012809500000003027,None,161.85901620000004,161.85901620000004,161.85901620000004,161.85901620000004,161.85901620000004,161.85901620000004,161.85901620000004,161.85901620000004,161.85901620000004,161.85901620000004,,009,P009,2025_Feb_01_1421,ConditionRich,2021.2.3,59.94912717108232,
128.75,129.0,41,0.0,Stimuli/Blank.png,0,0,0.0,0,219,219,219,,,,,,,,,,,,,128.76360170000044,0.013601700000435812,None,162.6096820999992,162.6096820999992,162.6096820999992,162.6096820999992,162.6096820999992,162.6096820999992,162.6096820999992,162.6096820999992,162.6096820999992,162.6096820999992,,009,P009,2025_Feb_01_1421,ConditionRich,2021.2.3,59.94912717108232,
129.0,129.75,27,0.75,Stimuli/P009/things_curling_iron_05s.jpg,0,0,0.0,0,220,220,220,,,,,,,,,,,,,129.01490090000152,0.014900900001521222,None,162.8766026000012,162.8766026000012,162.8766026000012,162.8766026000012,162.8766026000012,162.8766026000012,162.8766026000012,162.8766026000012,162.8766026000012,162.8766026000012,,009,P009,2025_Feb_01_1421,ConditionRich,2021.2.3,59.94912717108232,
129.75,130.0,41,0.0,Stimuli/Blank.png,0,0,0.0,0,221,221,221,,,,,,,,,,,,,129.78041040000244,0.03041040000243811,None,163.62724389999858,163.62724389999858,163.62724389999858,163.62724389999858,163.62724389999858,163.62724389999858,163.62724389999858,163.62724389999858,163.62724389999858,163.62724389999858,,009,P009,2025_Feb_01_1421,ConditionRich,2021.2.3,59.94912717108232,
130.0,130.75,27,0.75,Stimuli/P009/things_curling_iron_05s.jpg,0,0,0.0,0,222,222,222,,,,,,,,,,,,,130.01431060000323,0.014310600003227592,None,163.86078940000152,163.86078940000152,163.86078940000152,163.86078940000152,163.86078940000152,163.86078940000152,163.86078940000152,163.86078940000152,163.86078940000152,163.86078940000152,,009,P009,2025_Feb_01_1421,ConditionRich,2021.2.3,59.94912717108232,
130.75,131.0,41,0.0,Stimuli/Blank.png,0,0,0.0,0,223,223,223,,,,,,,,,,,,,130.76503270000103,0.015032700001029298,None,164.61144209999838,164.61144209999838,164.61144209999838,164.61144209999838,164.61144209999838,164.61144209999838,164.61144209999838,164.61144209999838,164.61144209999838,164.61144209999838,,009,P009,2025_Feb_01_1421,ConditionRich,2021.2.3,59.94912717108232,
131.0,131.75,27,0.75,Stimuli/P009/things_curling_iron_05s.jpg,0,0,0.0,0,224,224,224,,,,,,,,,,,,,131.01511850000315,0.015118500003154622,None,164.86166909999884,164.86166909999884,164.86166909999884,164.86166909999884,164.86166909999884,164.86166909999884,164.86166909999884,164.86166909999884,164.86166909999884,164.86166909999884,,009,P009,2025_Feb_01_1421,ConditionRich,2021.2.3,59.94912717108232,
131.75,132.0,41,0.0,Stimuli/Blank.png,0,0,0.0,0,225,225,225,,,,,,,,,,,,,131.74881900000037,-0.001180999999633059,None,165.59566450000057,165.59566450000057,165.59566450000057,165.59566450000057,165.59566450000057,165.59566450000057,165.59566450000057,165.59566450000057,165.59566450000057,165.59566450000057,,009,P009,2025_Feb_01_1421,ConditionRich,2021.2.3,59.94912717108232,
132.0,132.75,24,0.75,Stimuli/P009/things_cigar_05n.jpg,0,0,0.0,0,226,226,226,,,,,,,,,,,,,131.9992028000015,-0.0007971999984874856,None,165.84587230000034,165.84587230000034,165.84587230000034,165.84587230000034,165.84587230000034,165.84587230000034,165.84587230000034,165.84587230000034,165.84587230000034,165.84587230000034,,009,P009,2025_Feb_01_1421,ConditionRich,2021.2.3,59.94912717108232,
132.75,133.0,41,0.0,Stimuli/Blank.png,0,0,0.0,0,227,227,227,,,,,,,,,,,,,132.7497151000025,-0.0002848999974958133,None,166.5965428999989,166.5965428999989,166.5965428999989,166.5965428999989,166.5965428999989,166.5965428999989,166.5965428999989,166.5965428999989,166.5965428999989,166.5965428999989,,009,P009,2025_Feb_01_1421,ConditionRich,2021.2.3,59.94912717108232,
133.0,133.75,24,0.75,Stimuli/P009/things_cigar_05n.jpg,0,0,0.0,0,228,228,228,,,,,,,,,,,,,133.00008359999993,8.35999999253545e-05,None,166.84675730000163,166.84675730000163,166.84675730000163,166.84675730000163,166.84675730000163,166.84675730000163,166.84675730000163,166.84675730000163,166.84675730000163,166.84675730000163,,009,P009,2025_Feb_01_1421,ConditionRich,2021.2.3,59.94912717108232,
133.75,134.0,41,0.0,Stimuli/Blank.png,0,0,0.0,0,229,229,229,,,,,,,,,,,,,133.7507422000017,0.0007422000016958918,None,167.59743349999917,167.59743349999917,167.59743349999917,167.59743349999917,167.59743349999917,167.59743349999917,167.59743349999917,167.59743349999917,167.59743349999917,167.59743349999917,,009,P009,2025_Feb_01_1421,ConditionRich,2021.2.3,59.94912717108232,
134.0,134.75,24,0.75,Stimuli/P009/things_cigar_05n.jpg,0,0,0.0,0,230,230,230,,,,,,,,,,,,,134.0016988000025,0.0016988000024866778,None,167.86433119999856,167.86433119999856,167.86433119999856,167.86433119999856,167.86433119999856,167.86433119999856,167.86433119999856,167.86433119999856,167.86433119999856,167.86433119999856,,009,P009,2025_Feb_01_1421,ConditionRich,2021.2.3,59.94912717108232,
134.75,135.0,41,0.0,Stimuli/Blank.png,0,0,0.0,0,231,231,231,,,,,,,,,,,,,134.7689019999998,0.018901999999798136,None,168.61499280000135,168.61499280000135,168.61499280000135,168.61499280000135,168.61499280000135,168.61499280000135,168.61499280000135,168.61499280000135,168.61499280000135,168.61499280000135,,009,P009,2025_Feb_01_1421,ConditionRich,2021.2.3,59.94912717108232,
135.0,135.75,24,0.75,Stimuli/P009/things_cigar_05n.jpg,0,0,0.0,0,232,232,232,,,,,,,,,,,,,135.00445620000028,0.004456200000277022,None,168.86521809999977,168.86521809999977,168.86521809999977,168.86521809999977,168.86521809999977,168.86521809999977,168.86521809999977,168.86521809999977,168.86521809999977,168.86521809999977,,009,P009,2025_Feb_01_1421,ConditionRich,2021.2.3,59.94912717108232,
135.75,136.0,41,0.0,Stimuli/Blank.png,0,0,0.0,0,233,233,233,,,,,,,,,,,,,135.76920729999983,0.019207299999834504,None,169.61588530000154,169.61588530000154,169.61588530000154,169.61588530000154,169.61588530000154,169.61588530000154,169.61588530000154,169.61588530000154,169.61588530000154,169.61588530000154,,009,P009,2025_Feb_01_1421,ConditionRich,2021.2.3,59.94912717108232,
136.0,136.75,3,0.75,Stimuli/P009/sun_aewgwsmvsgzleqhw.jpg,0,0,0.0,0,234,234,234,,,,,,,,,,,,,136.0030738000023,0.003073800002312055,None,169.84942109999974,169.84942109999974,169.84942109999974,169.84942109999974,169.84942109999974,169.84942109999974,169.84942109999974,169.84942109999974,169.84942109999974,169.84942109999974,,009,P009,2025_Feb_01_1421,ConditionRich,2021.2.3,59.94912717108232,
136.75,137.0,41,0.0,Stimuli/Blank.png,0,0,0.0,0,235,235,235,,,,,,,,,,,,,136.75388100000055,0.003881000000546919,None,170.60008599999856,170.60008599999856,170.60008599999856,170.60008599999856,170.60008599999856,170.60008599999856,170.60008599999856,170.60008599999856,170.60008599999856,170.60008599999856,,009,P009,2025_Feb_01_1421,ConditionRich,2021.2.3,59.94912717108232,
137.0,137.75,3,0.75,Stimuli/P009/sun_aewgwsmvsgzleqhw.jpg,0,0,0.0,0,236,236,236,,,,,,,,,,,,,137.0041749000011,0.004174900001089554,None,170.8503098000001,170.8503098000001,170.8503098000001,170.8503098000001,170.8503098000001,170.8503098000001,170.8503098000001,170.8503098000001,170.8503098000001,170.8503098000001,,009,P009,2025_Feb_01_1421,ConditionRich,2021.2.3,59.94912717108232,
137.75,138.0,41,0.0,Stimuli/Blank.png,0,0,0.0,0,237,237,237,,,,,,,,,,,,,137.75429510000322,0.004295100003218977,None,171.6009610000001,171.6009610000001,171.6009610000001,171.6009610000001,171.6009610000001,171.6009610000001,171.6009610000001,171.6009610000001,171.6009610000001,171.6009610000001,,009,P009,2025_Feb_01_1421,ConditionRich,2021.2.3,59.94912717108232,
138.0,138.75,3,0.75,Stimuli/P009/sun_aewgwsmvsgzleqhw.jpg,1,0,0.75,0,238,238,238,,,,,,,,,,,,,138.00535590000072,0.005355900000722613,None,171.85119639999903,171.85119639999903,171.85119639999903,171.85119639999903,171.85119639999903,171.85119639999903,171.85119639999903,172.58517030000075,171.85119639999903,171.85119639999903,,009,P009,2025_Feb_01_1421,ConditionRich,2021.2.3,59.94912717108232,
138.75,139.0,41,0.0,Stimuli/Blank.png,0,0,0.0,0,239,239,239,,,,,,,,,,,,,138.75566380000237,0.00566380000236677,None,172.60185199999978,172.60185199999978,172.60185199999978,172.60185199999978,172.60185199999978,172.60185199999978,172.60185199999978,172.60185199999978,172.60185199999978,172.60185199999978,,009,P009,2025_Feb_01_1421,ConditionRich,2021.2.3,59.94912717108232,
139.0,139.75,3,0.75,Stimuli/P009/sun_aewgwsmvsgzleqhw.jpg,0,0,0.0,0,240,240,240,,,,,,,,,,,,,139.0082078000014,0.008207800001400756,None,172.86877000000095,172.86877000000095,172.86877000000095,172.86877000000095,172.86877000000095,172.86877000000095,172.86877000000095,172.86877000000095,172.86877000000095,172.86877000000095,,009,P009,2025_Feb_01_1421,ConditionRich,2021.2.3,59.94912717108232,
139.75,140.0,41,0.0,Stimuli/Blank.png,0,0,0.0,0,241,241,241,,,,,,,,,,,,,139.77354639999976,0.02354639999975916,None,173.61943959999917,173.61943959999917,173.61943959999917,173.61943959999917,173.61943959999917,173.61943959999917,173.61943959999917,173.61943959999917,173.61943959999917,173.61943959999917,,009,P009,2025_Feb_01_1421,ConditionRich,2021.2.3,59.94912717108232,
140.0,140.75,20,0.75,Stimuli/P009/sun_ddsiwinthvyejghq.jpg,0,0,0.0,0,242,242,242,,,,,,,,,,,,,140.0068936000025,0.006893600002513267,None,173.86963879999894,173.86963879999894,173.86963879999894,173.86963879999894,173.86963879999894,173.86963879999894,173.86963879999894,173.86963879999894,173.86963879999894,173.86963879999894,,009,P009,2025_Feb_01_1421,ConditionRich,2021.2.3,59.94912717108232,
140.75,141.0,41,0.0,Stimuli/Blank.png,0,0,0.0,0,243,243,243,,,,,,,,,,,,,140.77419809999992,0.024198099999921396,None,174.62031500000012,174.62031500000012,174.62031500000012,174.62031500000012,174.62031500000012,174.62031500000012,174.62031500000012,174.62031500000012,174.62031500000012,174.62031500000012,,009,P009,2025_Feb_01_1421,ConditionRich,2021.2.3,59.94912717108232,
141.0,141.75,20,0.75,Stimuli/P009/sun_ddsiwinthvyejghq.jpg,0,0,0.0,0,244,244,244,,,,,,,,,,,,,141.00772490000236,0.007724900002358481,None,174.8538522000017,174.8538522000017,174.8538522000017,174.8538522000017,174.8538522000017,174.8538522000017,174.8538522000017,174.8538522000017,174.8538522000017,174.8538522000017,,009,P009,2025_Feb_01_1421,ConditionRich,2021.2.3,59.94912717108232,
141.75,142.0,41,0.0,Stimuli/Blank.png,0,0,0.0,0,245,245,245,,,,,,,,,,,,,141.75938040000256,0.009380400002555689,None,175.62120610000056,175.62120610000056,175.62120610000056,175.62120610000056,175.62120610000056,175.62120610000056,175.62120610000056,175.62120610000056,175.62120610000056,175.62120610000056,,009,P009,2025_Feb_01_1421,ConditionRich,2021.2.3,59.94912717108232,
142.0,142.75,20,0.75,Stimuli/P009/sun_ddsiwinthvyejghq.jpg,0,0,0.0,0,246,246,246,,,,,,,,,,,,,142.02540180000142,0.02540180000141845,None,175.88811070000156,175.88811070000156,175.88811070000156,175.88811070000156,175.88811070000156,175.88811070000156,175.88811070000156,175.88811070000156,175.88811070000156,175.88811070000156,,009,P009,2025_Feb_01_1421,ConditionRich,2021.2.3,59.94912717108232,
142.75,143.0,41,0.0,Stimuli/Blank.png,0,0,0.0,0,247,247,247,,,,,,,,,,,,,142.77607380000336,0.026073800003359793,None,176.62211540000135,176.62211540000135,176.62211540000135,176.62211540000135,176.62211540000135,176.62211540000135,176.62211540000135,176.62211540000135,176.62211540000135,176.62211540000135,,009,P009,2025_Feb_01_1421,ConditionRich,2021.2.3,59.94912717108232,
143.0,143.75,20,0.75,Stimuli/P009/sun_ddsiwinthvyejghq.jpg,0,0,0.0,0,248,248,248,,,,,,,,,,,,,143.00946210000257,0.009462100002565421,None,176.85561759999837,176.85561759999837,176.85561759999837,176.85561759999837,176.85561759999837,176.85561759999837,176.85561759999837,176.85561759999837,176.85561759999837,176.85561759999837,,009,P009,2025_Feb_01_1421,ConditionRich,2021.2.3,59.94912717108232,
143.75,144.0,41,0.0,Stimuli/Blank.png,0,0,0.0,0,249,249,249,,,,,,,,,,,,,143.75961129999996,0.009611299999960465,None,177.60628580000048,177.60628580000048,177.60628580000048,177.60628580000048,177.60628580000048,177.60628580000048,177.60628580000048,177.60628580000048,177.60628580000048,177.60628580000048,,009,P009,2025_Feb_01_1421,ConditionRich,2021.2.3,59.94912717108232,
144.0,144.75,38,0.75,Stimuli/P009/things_roadsweeper_05s.jpg,1,0,0.75,0,250,250,250,,,,,,,,,,,,,144.01050000000032,0.010500000000320142,1,177.87319330000173,177.87319330000173,177.87319330000173,177.87319330000173,177.87319330000173,177.87319330000173,177.87319330000173,178.59052840000004,177.87319330000173,177.87319330000173,0.4270213000017975,009,P009,2025_Feb_01_1421,ConditionRich,2021.2.3,59.94912717108232,
144.75,145.0,41,0.0,Stimuli/Blank.png,0,0,0.0,0,251,251,251,,,,,,,,,,,,,144.77778670000043,0.027786700000433484,None,178.62385690000156,178.62385690000156,178.62385690000156,178.62385690000156,178.62385690000156,178.62385690000156,178.62385690000156,178.62385690000156,178.62385690000156,178.62385690000156,,009,P009,2025_Feb_01_1421,ConditionRich,2021.2.3,59.94912717108232,
145.0,145.75,38,0.75,Stimuli/P009/things_roadsweeper_05s.jpg,0,0,0.0,0,252,252,252,,,,,,,,,,,,,145.01347400000304,0.01347400000304333,None,178.8741673000004,178.8741673000004,178.8741673000004,178.8741673000004,178.8741673000004,178.8741673000004,178.8741673000004,178.8741673000004,178.8741673000004,178.8741673000004,,009,P009,2025_Feb_01_1421,ConditionRich,2021.2.3,59.94912717108232,
145.75,146.0,41,0.0,Stimuli/Blank.png,0,0,0.0,0,253,253,253,,,,,,,,,,,,,145.77876230000038,0.028762300000380492,None,179.62473930000124,179.62473930000124,179.62473930000124,179.62473930000124,179.62473930000124,179.62473930000124,179.62473930000124,179.62473930000124,179.62473930000124,179.62473930000124,,009,P009,2025_Feb_01_1421,ConditionRich,2021.2.3,59.94912717108232,
146.0,146.75,38,0.75,Stimuli/P009/things_roadsweeper_05s.jpg,0,0,0.0,0,254,254,254,,,,,,,,,,,,,146.0120824000005,0.012082400000508642,None,179.85828440000114,179.85828440000114,179.85828440000114,179.85828440000114,179.85828440000114,179.85828440000114,179.85828440000114,179.85828440000114,179.85828440000114,179.85828440000114,,009,P009,2025_Feb_01_1421,ConditionRich,2021.2.3,59.94912717108232,
146.75,147.0,41,0.0,Stimuli/Blank.png,0,0,0.0,0,255,255,255,,,,,,,,,,,,,146.7626674000021,0.012667400002101203,None,180.60893139999826,180.60893139999826,180.60893139999826,180.60893139999826,180.60893139999826,180.60893139999826,180.60893139999826,180.60893139999826,180.60893139999826,180.60893139999826,,009,P009,2025_Feb_01_1421,ConditionRich,2021.2.3,59.94912717108232,
147.0,147.75,38,0.75,Stimuli/P009/things_roadsweeper_05s.jpg,0,0,0.0,0,256,256,256,,,,,,,,,,,,,147.0133405000015,0.013340500001504552,None,180.87583409999934,180.87583409999934,180.87583409999934,180.87583409999934,180.87583409999934,180.87583409999934,180.87583409999934,180.87583409999934,180.87583409999934,180.87583409999934,,009,P009,2025_Feb_01_1421,ConditionRich,2021.2.3,59.94912717108232,
147.75,148.0,41,0.0,Stimuli/Blank.png,0,0,0.0,0,257,257,257,,,,,,,,,,,,,147.78027670000301,0.030276700003014412,None,181.6264986999995,181.6264986999995,181.6264986999995,181.6264986999995,181.6264986999995,181.6264986999995,181.6264986999995,181.6264986999995,181.6264986999995,181.6264986999995,,009,P009,2025_Feb_01_1421,ConditionRich,2021.2.3,59.94912717108232,
148.0,148.75,34,0.75,Stimuli/P009/things_man_05s.jpg,0,0,0.0,0,258,258,258,,,,,,,,,,,,,148.01321240000107,0.013212400001066271,None,181.86004680000042,181.86004680000042,181.86004680000042,181.86004680000042,181.86004680000042,181.86004680000042,181.86004680000042,181.86004680000042,181.86004680000042,181.86004680000042,,009,P009,2025_Feb_01_1421,ConditionRich,2021.2.3,59.94912717108232,
148.75,149.0,41,0.0,Stimuli/Blank.png,0,0,0.0,0,259,259,259,,,,,,,,,,,,,148.76452490000156,0.014524900001561036,None,182.61071559999982,182.61071559999982,182.61071559999982,182.61071559999982,182.61071559999982,182.61071559999982,182.61071559999982,182.61071559999982,182.61071559999982,182.61071559999982,,009,P009,2025_Feb_01_1421,ConditionRich,2021.2.3,59.94912717108232,
149.0,149.75,34,0.75,Stimuli/P009/things_man_05s.jpg,0,0,0.0,0,260,260,260,,,,,,,,,,,,,149.01455180000266,0.014551800002664095,None,182.86094349999985,182.86094349999985,182.86094349999985,182.86094349999985,182.86094349999985,182.86094349999985,182.86094349999985,182.86094349999985,182.86094349999985,182.86094349999985,,009,P009,2025_Feb_01_1421,ConditionRich,2021.2.3,59.94912717108232,
149.75,150.0,41,0.0,Stimuli/Blank.png,0,0,0.0,0,261,261,261,,,,,,,,,,,,,149.76585180000257,0.015851800002565142,None,183.61160110000128,183.61160110000128,183.61160110000128,183.61160110000128,183.61160110000128,183.61160110000128,183.61160110000128,183.61160110000128,183.61160110000128,183.61160110000128,,009,P009,2025_Feb_01_1421,ConditionRich,2021.2.3,59.94912717108232,
