eventStartTime,eventEndTime,eventCond,imSize,imFile,responseEvent,fixRespStart,fixRespEnd,Events.thisRepN,Events.thisTrialN,Events.thisN,Events.thisIndex,Instructions.started,Instructions.stopped,participantReadyResponse.keys,participantReadyResponse.rt,participantReadyResponse.started,participantReadyResponse.stopped,startWaitforTrigger,triggerResponse.keys,triggerResponse.rt,triggerResponse.started,triggerResponse.stopped,globalTimer,actualStartTime,startTimingDiff,participantResponse.keys,participantResponse.started,participantResponse.stopped,image.started,image.stopped,fixationOutside.started,fixationOutside.stopped,fixationResponse.started,fixationResponse.stopped,fixationInside.started,fixationInside.stopped,participantResponse.rt,session,participant,date,expName,psychopyVersion,frameRate,
,,,,,,,,,,,,11.176258499999676,None,1,7.898186200000055,11.176258499999676,None,,,,,,,,,,,,,,,,,,,,,004,P010,2025_Feb_01_1527,ConditionRich,2021.2.3,59.922831377874196,
,,,,,,,,,,,,,,,,,,19.07901490000222,5,13.889372000001458,19.091990299999452,None,,,,,,,,,,,,,,,,004,P010,2025_Feb_01_1527,ConditionRich,2021.2.3,59.922831377874196,
0.0,4.0,0,0.0,Stimuli/Blank.png,0,0.0,0.0,0,0,0,0,,,,,,,,,,,,32.991488600000594,0.0290649000016856,0.0290649000016856,None,33.03766700000051,None,33.03766700000051,None,33.03766700000051,None,33.03766700000051,33.03766700000051,33.03766700000051,None,,004,P010,2025_Feb_01_1527,ConditionRich,2021.2.3,59.922831377874196,
4.0,4.75,15,0.75,Stimuli/P010/sun_boryivbddrnarrbo.jpg,0,0.0,0.0,0,1,1,1,,,,,,,,,,,,,4.003148100000544,0.0031481000005442183,None,37.00814349999928,37.00814349999928,37.00814349999928,37.00814349999928,37.00814349999928,37.00814349999928,37.00814349999928,37.00814349999928,37.00814349999928,37.00814349999928,,004,P010,2025_Feb_01_1527,ConditionRich,2021.2.3,59.922831377874196,
4.75,8.0,41,0.0,Stimuli/Blank.png,1,2.25,3.0,0,2,2,2,,,,,,,,,,,,,4.75388219999877,0.003882199998770375,1,37.7755227000016,37.7755227000016,37.7755227000016,37.7755227000016,37.7755227000016,37.7755227000016,39.993771400000696,40.7444671000012,37.7755227000016,37.7755227000016,2.5968022999986715,004,P010,2025_Feb_01_1527,ConditionRich,2021.2.3,59.922831377874196,
8.0,8.75,23,0.75,Stimuli/P010/things_charger_05s.jpg,0,0.0,0.0,0,3,3,3,,,,,,,,,,,,,8.02267650000067,0.022676500000670785,None,41.02801180000097,41.02801180000097,41.02801180000097,41.02801180000097,41.02801180000097,41.02801180000097,41.02801180000097,41.02801180000097,41.02801180000097,41.02801180000097,,004,P010,2025_Feb_01_1527,ConditionRich,2021.2.3,59.922831377874196,
8.75,12.0,41,0.0,Stimuli/Blank.png,0,0.0,0.0,0,4,4,4,,,,,,,,,,,,,8.75784570000178,0.007845700001780642,None,41.7786995000024,41.7786995000024,41.7786995000024,41.7786995000024,41.7786995000024,41.7786995000024,41.7786995000024,41.7786995000024,41.7786995000024,41.7786995000024,,004,P010,2025_Feb_01_1527,ConditionRich,2021.2.3,59.922831377874196,
12.0,12.75,26,0.75,Stimuli/P010/things_cookie_sheet_05s.jpg,0,0.0,0.0,0,5,5,5,,,,,,,,,,,,,12.027557199999137,0.027557199999137083,None,45.04823680000118,45.04823680000118,45.04823680000118,45.04823680000118,45.04823680000118,45.04823680000118,45.04823680000118,45.04823680000118,45.04823680000118,45.04823680000118,,004,P010,2025_Feb_01_1527,ConditionRich,2021.2.3,59.922831377874196,
12.75,16.0,41,0.0,Stimuli/Blank.png,0,0.0,0.0,0,6,6,6,,,,,,,,,,,,,12.776953799999319,0.026953799999319017,None,45.782227100000455,45.782227100000455,45.782227100000455,45.782227100000455,45.782227100000455,45.782227100000455,45.782227100000455,45.782227100000455,45.782227100000455,45.782227100000455,,004,P010,2025_Feb_01_1527,ConditionRich,2021.2.3,59.922831377874196,
16.0,16.75,4,0.75,Stimuli/P010/sun_afkzdukwewwzqtmr.jpg,0,0.0,0.0,0,7,7,7,,,,,,,,,,,,,16.01282440000068,0.012824400000681635,None,49.018411600001855,49.018411600001855,49.018411600001855,49.018411600001855,49.018411600001855,49.018411600001855,49.018411600001855,49.018411600001855,49.018411600001855,49.018411600001855,,004,P010,2025_Feb_01_1527,ConditionRich,2021.2.3,59.922831377874196,
16.75,20.0,41,0.0,Stimuli/Blank.png,1,2.25,3.0,0,8,8,8,,,,,,,,,,,,,16.763832000000548,0.01383200000054785,1,49.76909050000177,49.76909050000177,49.76909050000177,49.76909050000177,49.76909050000177,49.76909050000177,52.004396799999085,52.75505089999933,49.76909050000177,49.76909050000177,2.71530420000272,004,P010,2025_Feb_01_1527,ConditionRich,2021.2.3,59.922831377874196,
20.0,20.75,38,0.75,Stimuli/P010/things_roadsweeper_05s.jpg,0,0.0,0.0,0,9,9,9,,,,,,,,,,,,,19.99925870000152,-0.0007412999984808266,None,53.005272599999444,53.005272599999444,53.005272599999444,53.005272599999444,53.005272599999444,53.005272599999444,53.005272599999444,53.005272599999444,53.005272599999444,53.005272599999444,,004,P010,2025_Feb_01_1527,ConditionRich,2021.2.3,59.922831377874196,
20.75,24.0,41,0.0,Stimuli/Blank.png,0,0.0,0.0,0,10,10,10,,,,,,,,,,,,,20.75284710000051,0.0028471000005083624,None,53.77262940000219,53.77262940000219,53.77262940000219,53.77262940000219,53.77262940000219,53.77262940000219,53.77262940000219,53.77262940000219,53.77262940000219,53.77262940000219,,004,P010,2025_Feb_01_1527,ConditionRich,2021.2.3,59.922831377874196,
24.0,24.75,30,0.75,Stimuli/P010/things_fire_05s.jpg,0,0.0,0.0,0,11,11,11,,,,,,,,,,,,,24.022456800001237,0.022456800001236843,None,57.04218459999902,57.04218459999902,57.04218459999902,57.04218459999902,57.04218459999902,57.04218459999902,57.04218459999902,57.04218459999902,57.04218459999902,57.04218459999902,,004,P010,2025_Feb_01_1527,ConditionRich,2021.2.3,59.922831377874196,
24.75,28.0,41,0.0,Stimuli/Blank.png,0,0.0,0.0,0,12,12,12,,,,,,,,,,,,,24.770015000001877,0.020015000001876615,None,57.77616240000134,57.77616240000134,57.77616240000134,57.77616240000134,57.77616240000134,57.77616240000134,57.77616240000134,57.77616240000134,57.77616240000134,57.77616240000134,,004,P010,2025_Feb_01_1527,ConditionRich,2021.2.3,59.922831377874196,
28.0,28.75,14,0.75,Stimuli/P010/sun_blaqxdebghixzyyw.jpg,0,0.0,0.0,0,13,13,13,,,,,,,,,,,,,28.006356400001096,0.006356400001095608,None,61.012362600002234,61.012362600002234,61.012362600002234,61.012362600002234,61.012362600002234,61.012362600002234,61.012362600002234,61.012362600002234,61.012362600002234,61.012362600002234,,004,P010,2025_Feb_01_1527,ConditionRich,2021.2.3,59.922831377874196,
28.75,32.0,41,0.0,Stimuli/Blank.png,0,0.0,0.0,0,14,14,14,,,,,,,,,,,,,28.758068099999946,0.008068099999945844,None,61.76302900000155,61.76302900000155,61.76302900000155,61.76302900000155,61.76302900000155,61.76302900000155,61.76302900000155,61.76302900000155,61.76302900000155,61.76302900000155,,004,P010,2025_Feb_01_1527,ConditionRich,2021.2.3,59.922831377874196,
32.0,32.75,9,0.75,Stimuli/P010/sun_bdjkvwqqqycuixtc.jpg,0,0.0,0.0,0,15,15,15,,,,,,,,,,,,,32.00984310000058,0.009843100000580307,None,65.03258360000109,65.03258360000109,65.03258360000109,65.03258360000109,65.03258360000109,65.03258360000109,65.03258360000109,65.03258360000109,65.03258360000109,65.03258360000109,,004,P010,2025_Feb_01_1527,ConditionRich,2021.2.3,59.922831377874196,
32.75,36.0,41,0.0,Stimuli/Blank.png,0,0.0,0.0,0,16,16,16,,,,,,,,,,,,,32.77817940000023,0.02817940000022645,None,65.78325050000058,65.78325050000058,65.78325050000058,65.78325050000058,65.78325050000058,65.78325050000058,65.78325050000058,65.78325050000058,65.78325050000058,65.78325050000058,,004,P010,2025_Feb_01_1527,ConditionRich,2021.2.3,59.922831377874196,
36.0,36.75,21,0.75,Stimuli/P010/things_boy_05s.jpg,0,0.0,0.0,0,17,17,17,,,,,,,,,,,,,36.01341859999957,0.01341859999956796,None,69.0194491000002,69.0194491000002,69.0194491000002,69.0194491000002,69.0194491000002,69.0194491000002,69.0194491000002,69.0194491000002,69.0194491000002,69.0194491000002,,004,P010,2025_Feb_01_1527,ConditionRich,2021.2.3,59.922831377874196,
36.75,40.0,41,0.0,Stimuli/Blank.png,0,0.0,0.0,0,18,18,18,,,,,,,,,,,,,36.76396450000175,0.013964500001748092,None,69.77010399999926,69.77010399999926,69.77010399999926,69.77010399999926,69.77010399999926,69.77010399999926,69.77010399999926,69.77010399999926,69.77010399999926,69.77010399999926,,004,P010,2025_Feb_01_1527,ConditionRich,2021.2.3,59.922831377874196,
40.0,40.75,27,0.75,Stimuli/P010/things_curling_iron_05s.jpg,1,0.0,0.75,0,19,19,19,,,,,,,,,,,,,40.00316799999928,0.0031679999992775265,1,73.02297890000045,73.02297890000045,73.02297890000045,73.02297890000045,73.02297890000045,73.02297890000045,73.02297890000045,73.75699150000219,73.02297890000045,73.02297890000045,0.46639109999887296,004,P010,2025_Feb_01_1527,ConditionRich,2021.2.3,59.922831377874196,
40.75,44.0,41,0.0,Stimuli/Blank.png,0,0.0,0.0,0,20,20,20,,,,,,,,,,,,,40.76881030000004,0.018810300000041025,None,73.7903475000021,73.7903475000021,73.7903475000021,73.7903475000021,73.7903475000021,73.7903475000021,73.7903475000021,73.7903475000021,73.7903475000021,73.7903475000021,,004,P010,2025_Feb_01_1527,ConditionRich,2021.2.3,59.922831377874196,
44.0,44.75,36,0.75,Stimuli/P010/things_pelican_05s.jpg,0,0.0,0.0,0,21,21,21,,,,,,,,,,,,,44.02246860000014,0.022468600000138395,None,77.0432088000016,77.0432088000016,77.0432088000016,77.0432088000016,77.0432088000016,77.0432088000016,77.0432088000016,77.0432088000016,77.0432088000016,77.0432088000016,,004,P010,2025_Feb_01_1527,ConditionRich,2021.2.3,59.922831377874196,
44.75,48.0,41,0.0,Stimuli/Blank.png,0,0.0,0.0,0,22,22,22,,,,,,,,,,,,,44.77194090000194,0.021940900001936825,None,77.77725339999961,77.77725339999961,77.77725339999961,77.77725339999961,77.77725339999961,77.77725339999961,77.77725339999961,77.77725339999961,77.77725339999961,77.77725339999961,,004,P010,2025_Feb_01_1527,ConditionRich,2021.2.3,59.922831377874196,
48.0,48.75,31,0.75,Stimuli/P010/things_girl_05s.jpg,0,0.0,0.0,0,23,23,23,,,,,,,,,,,,,48.00843779999923,0.008437799999228446,None,81.01339860000007,81.01339860000007,81.01339860000007,81.01339860000007,81.01339860000007,81.01339860000007,81.01339860000007,81.01339860000007,81.01339860000007,81.01339860000007,,004,P010,2025_Feb_01_1527,ConditionRich,2021.2.3,59.922831377874196,
48.75,52.0,41,0.0,Stimuli/Blank.png,0,0.0,0.0,0,24,24,24,,,,,,,,,,,,,48.75819020000199,0.008190200001990888,None,81.76405430000159,81.76405430000159,81.76405430000159,81.76405430000159,81.76405430000159,81.76405430000159,81.76405430000159,81.76405430000159,81.76405430000159,81.76405430000159,,004,P010,2025_Feb_01_1527,ConditionRich,2021.2.3,59.922831377874196,
52.0,52.75,35,0.75,Stimuli/P010/things_mushroom_05n.jpg,0,0.0,0.0,0,25,25,25,,,,,,,,,,,,,52.01366929999858,0.013669299998582574,None,85.03366689999893,85.03366689999893,85.03366689999893,85.03366689999893,85.03366689999893,85.03366689999893,85.03366689999893,85.03366689999893,85.03366689999893,85.03366689999893,,004,P010,2025_Feb_01_1527,ConditionRich,2021.2.3,59.922831377874196,
52.75,56.0,41,0.0,Stimuli/Blank.png,0,0.0,0.0,0,26,26,26,,,,,,,,,,,,,52.77832950000084,0.02832950000083656,None,85.78427980000197,85.78427980000197,85.78427980000197,85.78427980000197,85.78427980000197,85.78427980000197,85.78427980000197,85.78427980000197,85.78427980000197,85.78427980000197,,004,P010,2025_Feb_01_1527,ConditionRich,2021.2.3,59.922831377874196,
56.0,56.75,24,0.75,Stimuli/P010/things_cigar_05n.jpg,0,0.0,0.0,0,27,27,27,,,,,,,,,,,,,56.0153739999987,0.015373999998701038,None,89.03715480000028,89.03715480000028,89.03715480000028,89.03715480000028,89.03715480000028,89.03715480000028,89.03715480000028,89.03715480000028,89.03715480000028,89.03715480000028,,004,P010,2025_Feb_01_1527,ConditionRich,2021.2.3,59.922831377874196,
56.75,60.0,41,0.0,Stimuli/Blank.png,0,0.0,0.0,0,28,28,28,,,,,,,,,,,,,56.767720499999996,0.01772049999999581,None,89.78783370000019,89.78783370000019,89.78783370000019,89.78783370000019,89.78783370000019,89.78783370000019,89.78783370000019,89.78783370000019,89.78783370000019,89.78783370000019,,004,P010,2025_Feb_01_1527,ConditionRich,2021.2.3,59.922831377874196,
60.0,60.75,1,0.75,Stimuli/P010/sun_abqdlumenyzawlme.jpg,1,0.0,0.75,0,29,29,29,,,,,,,,,,,,,60.01894019999963,0.018940199999633478,1,93.02400750000015,93.02400750000015,93.02400750000015,93.02400750000015,93.02400750000015,93.02400750000015,93.02400750000015,None,93.02400750000015,93.02400750000015,0.5485225999982504,004,P010,2025_Feb_01_1527,ConditionRich,2021.2.3,59.922831377874196,
60.75,64.0,41,0.0,Stimuli/Blank.png,0,0.0,0.0,0,30,30,30,,,,,,,,,,,,,60.753721699999005,0.003721699999005068,None,93.75799209999968,93.75799209999968,93.75799209999968,93.75799209999968,93.75799209999968,93.75799209999968,93.75799209999968,93.75799209999968,93.75799209999968,93.75799209999968,,004,P010,2025_Feb_01_1527,ConditionRich,2021.2.3,59.922831377874196,
64.0,64.75,22,0.75,Stimuli/P010/things_butterfly_05s.jpg,0,0.0,0.0,0,31,31,31,,,,,,,,,,,,,64.00532480000038,0.005324800000380492,None,97.02755959999922,97.02755959999922,97.02755959999922,97.02755959999922,97.02755959999922,97.02755959999922,97.02755959999922,97.02755959999922,97.02755959999922,97.02755959999922,,004,P010,2025_Feb_01_1527,ConditionRich,2021.2.3,59.922831377874196,
64.75,68.0,41,0.0,Stimuli/Blank.png,0,0.0,0.0,0,32,32,32,,,,,,,,,,,,,64.77261609999914,0.022616099999140715,None,97.77824360000159,97.77824360000159,97.77824360000159,97.77824360000159,97.77824360000159,97.77824360000159,97.77824360000159,97.77824360000159,97.77824360000159,97.77824360000159,,004,P010,2025_Feb_01_1527,ConditionRich,2021.2.3,59.922831377874196,
68.0,68.75,7,0.75,Stimuli/P010/sun_apiogxmvvzfmtsmj.jpg,1,0.0,0.75,0,33,33,33,,,,,,,,,,,,,68.00844290000168,0.008442900001682574,None,101.01438250000137,101.01438250000137,101.01438250000137,101.01438250000137,101.01438250000137,101.01438250000137,101.01438250000137,101.74839939999947,101.01438250000137,101.01438250000137,,004,P010,2025_Feb_01_1527,ConditionRich,2021.2.3,59.922831377874196,
68.75,72.0,41,0.0,Stimuli/Blank.png,0,0.0,0.0,0,34,34,34,,,,,,,,,,,,,68.759105000001,0.009105000001000008,1,101.76507320000019,101.76507320000019,101.76507320000019,101.76507320000019,101.76507320000019,101.76507320000019,101.76507320000019,101.76507320000019,101.76507320000019,101.76507320000019,0.19253290000051493,004,P010,2025_Feb_01_1527,ConditionRich,2021.2.3,59.922831377874196,
72.0,72.75,25,0.75,Stimuli/P010/things_clothespin_05s.jpg,0,0.0,0.0,0,35,35,35,,,,,,,,,,,,,72.01259620000201,0.012596200002008118,None,105.01795050000146,105.01795050000146,105.01795050000146,105.01795050000146,105.01795050000146,105.01795050000146,105.01795050000146,105.01795050000146,105.01795050000146,105.01795050000146,,004,P010,2025_Feb_01_1527,ConditionRich,2021.2.3,59.922831377874196,
72.75,76.0,41,0.0,Stimuli/Blank.png,0,0.0,0.0,0,36,36,36,,,,,,,,,,,,,72.76278490000186,0.012784900001861388,None,105.76861719999943,105.76861719999943,105.76861719999943,105.76861719999943,105.76861719999943,105.76861719999943,105.76861719999943,105.76861719999943,105.76861719999943,105.76861719999943,,004,P010,2025_Feb_01_1527,ConditionRich,2021.2.3,59.922831377874196,
76.0,76.75,10,0.75,Stimuli/P010/sun_bdkttewvyfdarikm.jpg,0,0.0,0.0,0,37,37,37,,,,,,,,,,,,,76.0153919000004,0.015391900000395253,None,109.02149189999909,109.02149189999909,109.02149189999909,109.02149189999909,109.02149189999909,109.02149189999909,109.02149189999909,109.02149189999909,109.02149189999909,109.02149189999909,,004,P010,2025_Feb_01_1527,ConditionRich,2021.2.3,59.922831377874196,
76.75,80.0,41,0.0,Stimuli/Blank.png,0,0.0,0.0,0,38,38,38,,,,,,,,,,,,,76.74948389999918,-0.0005161000008229166,None,109.75547469999947,109.75547469999947,109.75547469999947,109.75547469999947,109.75547469999947,109.75547469999947,109.75547469999947,109.75547469999947,109.75547469999947,109.75547469999947,,004,P010,2025_Feb_01_1527,ConditionRich,2021.2.3,59.922831377874196,
80.0,80.75,33,0.75,Stimuli/P010/things_lizard_05n.jpg,0,0.0,0.0,0,39,39,39,,,,,,,,,,,,,80.00254080000013,0.0025408000001334585,None,113.00879770000029,113.00879770000029,113.00879770000029,113.00879770000029,113.00879770000029,113.00879770000029,113.00879770000029,113.00879770000029,113.00879770000029,113.00879770000029,,004,P010,2025_Feb_01_1527,ConditionRich,2021.2.3,59.922831377874196,
80.75,84.0,41,0.0,Stimuli/Blank.png,0,0.0,0.0,0,40,40,40,,,,,,,,,,,,,80.75330029999895,0.00330029999895487,None,113.75901990000057,113.75901990000057,113.75901990000057,113.75901990000057,113.75901990000057,113.75901990000057,113.75901990000057,113.75901990000057,113.75901990000057,113.75901990000057,,004,P010,2025_Feb_01_1527,ConditionRich,2021.2.3,59.922831377874196,
84.0,100.0,0,0.0,Stimuli/Blank.png,1,10.0,10.75,0,41,41,41,,,,,,,,,,,,,84.0070678000011,0.007067800001095748,1,117.01189850000083,117.01189850000083,117.01189850000083,117.01189850000083,117.01189850000083,117.01189850000083,127.00406710000243,127.75480479999896,117.01189850000083,117.01189850000083,10.329820300001302,004,P010,2025_Feb_01_1527,ConditionRich,2021.2.3,59.922831377874196,
100.0,100.75,19,0.75,Stimuli/P010/sun_bwvfnogmotsvhofs.jpg,0,0.0,0.0,0,42,42,42,,,,,,,,,,,,,100.00342490000185,0.003424900001846254,None,133.00937270000213,133.00937270000213,133.00937270000213,133.00937270000213,133.00937270000213,133.00937270000213,133.00937270000213,133.00937270000213,133.00937270000213,133.00937270000213,,004,P010,2025_Feb_01_1527,ConditionRich,2021.2.3,59.922831377874196,
100.75,104.0,41,0.0,Stimuli/Blank.png,0,0.0,0.0,0,43,43,43,,,,,,,,,,,,,100.75477580000006,0.004775800000061281,None,133.760059799999,133.760059799999,133.760059799999,133.760059799999,133.760059799999,133.760059799999,133.760059799999,133.760059799999,133.760059799999,133.760059799999,,004,P010,2025_Feb_01_1527,ConditionRich,2021.2.3,59.922831377874196,
104.0,104.75,17,0.75,Stimuli/P010/sun_brkrfjpyfglmigkk.jpg,0,0.0,0.0,0,44,44,44,,,,,,,,,,,,,104.00715040000068,0.007150400000682566,None,137.01288990000103,137.01288990000103,137.01288990000103,137.01288990000103,137.01288990000103,137.01288990000103,137.01288990000103,137.01288990000103,137.01288990000103,137.01288990000103,,004,P010,2025_Feb_01_1527,ConditionRich,2021.2.3,59.922831377874196,
104.75,108.0,41,0.0,Stimuli/Blank.png,1,0.25,1.0,0,45,45,45,,,,,,,,,,,,,104.7586904000018,0.008690400001796661,1,137.78028669999912,137.78028669999912,137.78028669999912,137.78028669999912,137.78028669999912,137.78028669999912,137.99714529999983,138.74776980000024,137.78028669999912,137.78028669999912,0.843380199999956,004,P010,2025_Feb_01_1527,ConditionRich,2021.2.3,59.922831377874196,
108.0,108.75,32,0.75,Stimuli/P010/things_hawk_05s.jpg,1,0.0,0.75,0,46,46,46,,,,,,,,,,,,,108.02716209999926,0.027162099999259226,None,141.03313609999896,141.03313609999896,141.03313609999896,141.03313609999896,141.03313609999896,141.03313609999896,141.03313609999896,None,141.03313609999896,141.03313609999896,,004,P010,2025_Feb_01_1527,ConditionRich,2021.2.3,59.922831377874196,
108.75,112.0,41,0.0,Stimuli/Blank.png,0,0.0,0.0,0,47,47,47,,,,,,,,,,,,,108.76176549999946,0.011765499999455642,None,141.76709069999924,141.76709069999924,141.76709069999924,141.76709069999924,141.76709069999924,141.76709069999924,141.76709069999924,141.76709069999924,141.76709069999924,141.76709069999924,,004,P010,2025_Feb_01_1527,ConditionRich,2021.2.3,59.922831377874196,
112.0,112.75,39,0.75,Stimuli/P010/things_tiara_05s.jpg,0,0.0,0.0,0,48,48,48,,,,,,,,,,,,,112.0142812999984,0.014281299998401664,None,145.01999409999917,145.01999409999917,145.01999409999917,145.01999409999917,145.01999409999917,145.01999409999917,145.01999409999917,145.01999409999917,145.01999409999917,145.01999409999917,,004,P010,2025_Feb_01_1527,ConditionRich,2021.2.3,59.922831377874196,
112.75,116.0,41,0.0,Stimuli/Blank.png,0,0.0,0.0,0,49,49,49,,,,,,,,,,,,,112.76454580000063,0.01454580000063288,None,145.7706674000001,145.7706674000001,145.7706674000001,145.7706674000001,145.7706674000001,145.7706674000001,145.7706674000001,145.7706674000001,145.7706674000001,145.7706674000001,,004,P010,2025_Feb_01_1527,ConditionRich,2021.2.3,59.922831377874196,
116.0,116.75,16,0.75,Stimuli/P010/sun_bqpyqljaflidcauh.jpg,0,0.0,0.0,0,50,50,50,,,,,,,,,,,,,116.0036059999984,0.0036059999983990565,None,149.0235345000001,149.0235345000001,149.0235345000001,149.0235345000001,149.0235345000001,149.0235345000001,149.0235345000001,149.0235345000001,149.0235345000001,149.0235345000001,,004,P010,2025_Feb_01_1527,ConditionRich,2021.2.3,59.922831377874196,
116.75,120.0,41,0.0,Stimuli/Blank.png,0,0.0,0.0,0,51,51,51,,,,,,,,,,,,,116.76815029999852,0.018150299998524133,None,149.77419830000144,149.77419830000144,149.77419830000144,149.77419830000144,149.77419830000144,149.77419830000144,149.77419830000144,149.77419830000144,149.77419830000144,149.77419830000144,,004,P010,2025_Feb_01_1527,ConditionRich,2021.2.3,59.922831377874196,
120.0,120.75,40,0.75,Stimuli/P010/things_woman_05s.jpg,0,0.0,0.0,0,52,52,52,,,,,,,,,,,,,120.00467610000123,0.004676100001233863,None,153.0104042999992,153.0104042999992,153.0104042999992,153.0104042999992,153.0104042999992,153.0104042999992,153.0104042999992,153.0104042999992,153.0104042999992,153.0104042999992,,004,P010,2025_Feb_01_1527,ConditionRich,2021.2.3,59.922831377874196,
120.75,124.0,41,0.0,Stimuli/Blank.png,0,0.0,0.0,0,53,53,53,,,,,,,,,,,,,120.75748640000165,0.007486400001653237,None,153.77775889999975,153.77775889999975,153.77775889999975,153.77775889999975,153.77775889999975,153.77775889999975,153.77775889999975,153.77775889999975,153.77775889999975,153.77775889999975,,004,P010,2025_Feb_01_1527,ConditionRich,2021.2.3,59.922831377874196,
124.0,124.75,18,0.75,Stimuli/P010/sun_bwjdahsxcqepqqbm.jpg,0,0.0,0.0,0,54,54,54,,,,,,,,,,,,,124.02490089999992,0.02490089999992051,None,157.0473079000003,157.0473079000003,157.0473079000003,157.0473079000003,157.0473079000003,157.0473079000003,157.0473079000003,157.0473079000003,157.0473079000003,157.0473079000003,,004,P010,2025_Feb_01_1527,ConditionRich,2021.2.3,59.922831377874196,
124.75,128.0,41,0.0,Stimuli/Blank.png,1,1.25,2.0,0,55,55,55,,,,,,,,,,,,,124.77737459999844,0.027374599998438498,1,157.79798149999988,157.79798149999988,157.79798149999988,157.79798149999988,157.79798149999988,157.79798149999988,159.032395000002,159.7830642000008,157.79798149999988,157.79798149999988,1.6695276999998896,004,P010,2025_Feb_01_1527,ConditionRich,2021.2.3,59.922831377874196,
128.0,128.75,20,0.75,Stimuli/P010/sun_ddsiwinthvyejghq.jpg,0,0.0,0.0,0,56,56,56,,,,,,,,,,,,,128.02829719999863,0.028297199998633005,None,161.0341784000011,161.0341784000011,161.0341784000011,161.0341784000011,161.0341784000011,161.0341784000011,161.0341784000011,161.0341784000011,161.0341784000011,161.0341784000011,,004,P010,2025_Feb_01_1527,ConditionRich,2021.2.3,59.922831377874196,
128.75,132.0,41,0.0,Stimuli/Blank.png,0,0.0,0.0,0,57,57,57,,,,,,,,,,,,,128.76210400000127,0.012104000001272652,None,161.7681545000014,161.7681545000014,161.7681545000014,161.7681545000014,161.7681545000014,161.7681545000014,161.7681545000014,161.7681545000014,161.7681545000014,161.7681545000014,,004,P010,2025_Feb_01_1527,ConditionRich,2021.2.3,59.922831377874196,
132.0,132.75,5,0.75,Stimuli/P010/sun_akqvdmuauoxeafrj.jpg,0,0.0,0.0,0,58,58,58,,,,,,,,,,,,,132.01507960000163,0.015079600001627114,None,165.03771340000094,165.03771340000094,165.03771340000094,165.03771340000094,165.03771340000094,165.03771340000094,165.03771340000094,165.03771340000094,165.03771340000094,165.03771340000094,,004,P010,2025_Feb_01_1527,ConditionRich,2021.2.3,59.922831377874196,
132.75,136.0,41,0.0,Stimuli/Blank.png,0,0.0,0.0,0,59,59,59,,,,,,,,,,,,,132.76679539999895,0.016795399998954963,None,165.77172530000098,165.77172530000098,165.77172530000098,165.77172530000098,165.77172530000098,165.77172530000098,165.77172530000098,165.77172530000098,165.77172530000098,165.77172530000098,,004,P010,2025_Feb_01_1527,ConditionRich,2021.2.3,59.922831377874196,
136.0,136.75,28,0.75,Stimuli/P010/things_face_05s.jpg,0,0.0,0.0,0,60,60,60,,,,,,,,,,,,,136.00241559999995,0.002415599999949336,None,169.02455190000182,169.02455190000182,169.02455190000182,169.02455190000182,169.02455190000182,169.02455190000182,169.02455190000182,169.02455190000182,169.02455190000182,169.02455190000182,,004,P010,2025_Feb_01_1527,ConditionRich,2021.2.3,59.922831377874196,
136.75,140.0,41,0.0,Stimuli/Blank.png,0,0.0,0.0,0,61,61,61,,,,,,,,,,,,,136.76936529999875,0.01936529999875347,None,169.77522580000004,169.77522580000004,169.77522580000004,169.77522580000004,169.77522580000004,169.77522580000004,169.77522580000004,169.77522580000004,169.77522580000004,169.77522580000004,,004,P010,2025_Feb_01_1527,ConditionRich,2021.2.3,59.922831377874196,
140.0,140.75,37,0.75,Stimuli/P010/things_pug_05s.jpg,0,0.0,0.0,0,62,62,62,,,,,,,,,,,,,140.00719129999925,0.007191299999249168,None,173.0281114999998,173.0281114999998,173.0281114999998,173.0281114999998,173.0281114999998,173.0281114999998,173.0281114999998,173.0281114999998,173.0281114999998,173.0281114999998,,004,P010,2025_Feb_01_1527,ConditionRich,2021.2.3,59.922831377874196,
140.75,144.0,41,0.0,Stimuli/Blank.png,0,0.0,0.0,0,63,63,63,,,,,,,,,,,,,140.77344449999873,0.02344449999873177,None,173.77876620000097,173.77876620000097,173.77876620000097,173.77876620000097,173.77876620000097,173.77876620000097,173.77876620000097,173.77876620000097,173.77876620000097,173.77876620000097,,004,P010,2025_Feb_01_1527,ConditionRich,2021.2.3,59.922831377874196,
144.0,144.75,34,0.75,Stimuli/P010/things_man_05s.jpg,0,0.0,0.0,0,64,64,64,,,,,,,,,,,,,144.0094336000002,0.00943360000019311,None,177.0149648000006,177.0149648000006,177.0149648000006,177.0149648000006,177.0149648000006,177.0149648000006,177.0149648000006,177.0149648000006,177.0149648000006,177.0149648000006,,004,P010,2025_Feb_01_1527,ConditionRich,2021.2.3,59.922831377874196,
144.75,148.0,41,0.0,Stimuli/Blank.png,0,0.0,0.0,0,65,65,65,,,,,,,,,,,,,144.76274810000177,0.0127481000017724,None,177.78232260000004,177.78232260000004,177.78232260000004,177.78232260000004,177.78232260000004,177.78232260000004,177.78232260000004,177.78232260000004,177.78232260000004,177.78232260000004,,004,P010,2025_Feb_01_1527,ConditionRich,2021.2.3,59.922831377874196,
148.0,148.75,3,0.75,Stimuli/P010/sun_aewgwsmvsgzleqhw.jpg,0,0.0,0.0,0,66,66,66,,,,,,,,,,,,,148.02953010000056,0.02953010000055656,None,181.05188890000136,181.05188890000136,181.05188890000136,181.05188890000136,181.05188890000136,181.05188890000136,181.05188890000136,181.05188890000136,181.05188890000136,181.05188890000136,,004,P010,2025_Feb_01_1527,ConditionRich,2021.2.3,59.922831377874196,
148.75,152.0,41,0.0,Stimuli/Blank.png,0,0.0,0.0,0,67,67,67,,,,,,,,,,,,,148.77993939999942,0.029939399999420857,None,181.78599029999896,181.78599029999896,181.78599029999896,181.78599029999896,181.78599029999896,181.78599029999896,181.78599029999896,181.78599029999896,181.78599029999896,181.78599029999896,,004,P010,2025_Feb_01_1527,ConditionRich,2021.2.3,59.922831377874196,
152.0,152.75,6,0.75,Stimuli/P010/sun_amkrwcyvinmsylsz.jpg,0,0.0,0.0,0,68,68,68,,,,,,,,,,,,,151.99957910000012,-0.0004208999998809304,None,185.0053681999998,185.0053681999998,185.0053681999998,185.0053681999998,185.0053681999998,185.0053681999998,185.0053681999998,185.0053681999998,185.0053681999998,185.0053681999998,,004,P010,2025_Feb_01_1527,ConditionRich,2021.2.3,59.922831377874196,
152.75,156.0,41,0.0,Stimuli/Blank.png,0,0.0,0.0,0,69,69,69,,,,,,,,,,,,,152.74998050000067,-1.9499999325489625e-05,None,185.75609030000123,185.75609030000123,185.75609030000123,185.75609030000123,185.75609030000123,185.75609030000123,185.75609030000123,185.75609030000123,185.75609030000123,185.75609030000123,,004,P010,2025_Feb_01_1527,ConditionRich,2021.2.3,59.922831377874196,
156.0,156.75,11,0.75,Stimuli/P010/sun_bfyvfqiimvdaxlqn.jpg,0,0.0,0.0,0,70,70,70,,,,,,,,,,,,,156.0029304000018,0.0029304000017873477,None,189.0088696999992,189.0088696999992,189.0088696999992,189.0088696999992,189.0088696999992,189.0088696999992,189.0088696999992,189.0088696999992,189.0088696999992,189.0088696999992,,004,P010,2025_Feb_01_1527,ConditionRich,2021.2.3,59.922831377874196,
156.75,160.0,41,0.0,Stimuli/Blank.png,0,0.0,0.0,0,71,71,71,,,,,,,,,,,,,156.75348840000152,0.0034884000015154015,None,189.7595680000013,189.7595680000013,189.7595680000013,189.7595680000013,189.7595680000013,189.7595680000013,189.7595680000013,189.7595680000013,189.7595680000013,189.7595680000013,,004,P010,2025_Feb_01_1527,ConditionRich,2021.2.3,59.922831377874196,
160.0,160.75,2,0.75,Stimuli/P010/sun_acvloibbxiqpiwnv.jpg,0,0.0,0.0,0,72,72,72,,,,,,,,,,,,,160.0075657999987,0.00756579999870155,None,193.02914930000043,193.02914930000043,193.02914930000043,193.02914930000043,193.02914930000043,193.02914930000043,193.02914930000043,193.02914930000043,193.02914930000043,193.02914930000043,,004,P010,2025_Feb_01_1527,ConditionRich,2021.2.3,59.922831377874196,
160.75,164.0,41,0.0,Stimuli/Blank.png,0,0.0,0.0,0,73,73,73,,,,,,,,,,,,,160.77381909999895,0.023819099998945603,None,193.77979630000118,193.77979630000118,193.77979630000118,193.77979630000118,193.77979630000118,193.77979630000118,193.77979630000118,193.77979630000118,193.77979630000118,193.77979630000118,,004,P010,2025_Feb_01_1527,ConditionRich,2021.2.3,59.922831377874196,
164.0,164.75,8,0.75,Stimuli/P010/sun_batcnoizlkeiqdtx.jpg,0,0.0,0.0,0,74,74,74,,,,,,,,,,,,,164.01085969999986,0.010859699999855366,None,197.01598190000004,197.01598190000004,197.01598190000004,197.01598190000004,197.01598190000004,197.01598190000004,197.01598190000004,197.01598190000004,197.01598190000004,197.01598190000004,,004,P010,2025_Feb_01_1527,ConditionRich,2021.2.3,59.922831377874196,
164.75,168.0,41,0.0,Stimuli/Blank.png,0,0.0,0.0,0,75,75,75,,,,,,,,,,,,,164.7630758999985,0.013075899998511886,None,197.78337470000042,197.78337470000042,197.78337470000042,197.78337470000042,197.78337470000042,197.78337470000042,197.78337470000042,197.78337470000042,197.78337470000042,197.78337470000042,,004,P010,2025_Feb_01_1527,ConditionRich,2021.2.3,59.922831377874196,
168.0,168.75,29,0.75,Stimuli/P010/things_fingerprint_05s.jpg,0,0.0,0.0,0,76,76,76,,,,,,,,,,,,,168.01420560000042,0.014205600000423146,None,201.01956380000047,201.01956380000047,201.01956380000047,201.01956380000047,201.01956380000047,201.01956380000047,201.01956380000047,201.01956380000047,201.01956380000047,201.01956380000047,,004,P010,2025_Feb_01_1527,ConditionRich,2021.2.3,59.922831377874196,
168.75,172.0,41,0.0,Stimuli/Blank.png,0,0.0,0.0,0,77,77,77,,,,,,,,,,,,,168.76466580000124,0.014665800001239404,None,201.7701909000025,201.7701909000025,201.7701909000025,201.7701909000025,201.7701909000025,201.7701909000025,201.7701909000025,201.7701909000025,201.7701909000025,201.7701909000025,,004,P010,2025_Feb_01_1527,ConditionRich,2021.2.3,59.922831377874196,
172.0,172.75,12,0.75,Stimuli/P010/sun_birmwgkdtrlevcaf.jpg,0,0.0,0.0,0,78,78,78,,,,,,,,,,,,,172.00341019999905,0.0034101999990525655,None,205.0230803000013,205.0230803000013,205.0230803000013,205.0230803000013,205.0230803000013,205.0230803000013,205.0230803000013,205.0230803000013,205.0230803000013,205.0230803000013,,004,P010,2025_Feb_01_1527,ConditionRich,2021.2.3,59.922831377874196,
172.75,176.0,41,0.0,Stimuli/Blank.png,0,0.0,0.0,0,79,79,79,,,,,,,,,,,,,172.76843780000127,0.018437800001265714,None,205.77373269999953,205.77373269999953,205.77373269999953,205.77373269999953,205.77373269999953,205.77373269999953,205.77373269999953,205.77373269999953,205.77373269999953,205.77373269999953,,004,P010,2025_Feb_01_1527,ConditionRich,2021.2.3,59.922831377874196,
176.0,176.75,13,0.75,Stimuli/P010/sun_bjimvgwadfodioes.jpg,0,0.0,0.0,0,80,80,80,,,,,,,,,,,,,176.0039911999993,0.003991199999290984,None,209.00992419999966,209.00992419999966,209.00992419999966,209.00992419999966,209.00992419999966,209.00992419999966,209.00992419999966,209.00992419999966,209.00992419999966,209.00992419999966,,004,P010,2025_Feb_01_1527,ConditionRich,2021.2.3,59.922831377874196,
176.75,180.0,41,0.0,Stimuli/Blank.png,1,2.25,3.0,0,81,81,81,,,,,,,,,,,,,176.7551523000002,0.005152300000190735,1,209.76067740000144,209.76067740000144,209.76067740000144,209.76067740000144,209.76067740000144,209.76067740000144,211.9959426000023,212.7465841000012,209.76067740000144,209.76067740000144,2.8758630999982415,004,P010,2025_Feb_01_1527,ConditionRich,2021.2.3,59.922831377874196,
180.0,196.0,0,0.0,Stimuli/Blank.png,1,12.0,12.75,0,82,82,82,,,,,,,,,,,,,180.0082293000014,0.008229300001403317,1,213.01348060000237,213.01348060000237,213.01348060000237,213.01348060000237,213.01348060000237,213.01348060000237,225.00741109999944,225.75807070000155,213.01348060000237,213.01348060000237,12.397078299996792,004,P010,2025_Feb_01_1527,ConditionRich,2021.2.3,59.922831377874196,
196.0,196.75,35,0.75,Stimuli/P010/things_mushroom_05n.jpg,0,0.0,0.0,0,83,83,83,,,,,,,,,,,,,196.00565740000093,0.005657400000927737,None,229.02764279999974,229.02764279999974,229.02764279999974,229.02764279999974,229.02764279999974,229.02764279999974,229.02764279999974,229.02764279999974,229.02764279999974,229.02764279999974,,004,P010,2025_Feb_01_1527,ConditionRich,2021.2.3,59.922831377874196,
196.75,200.0,41,0.0,Stimuli/Blank.png,0,0.0,0.0,0,84,84,84,,,,,,,,,,,,,196.77321289999963,0.02321289999963483,None,229.77828000000227,229.77828000000227,229.77828000000227,229.77828000000227,229.77828000000227,229.77828000000227,229.77828000000227,229.77828000000227,229.77828000000227,229.77828000000227,,004,P010,2025_Feb_01_1527,ConditionRich,2021.2.3,59.922831377874196,
200.0,200.75,26,0.75,Stimuli/P010/things_cookie_sheet_05s.jpg,0,0.0,0.0,0,85,85,85,,,,,,,,,,,,,200.0086354999985,0.008635499998490559,None,233.01449370000046,233.01449370000046,233.01449370000046,233.01449370000046,233.01449370000046,233.01449370000046,233.01449370000046,233.01449370000046,233.01449370000046,233.01449370000046,,004,P010,2025_Feb_01_1527,ConditionRich,2021.2.3,59.922831377874196,
200.75,204.0,41,0.0,Stimuli/Blank.png,0,0.0,0.0,0,86,86,86,,,,,,,,,,,,,200.75955170000088,0.009551700000884011,None,233.76516489999995,233.76516489999995,233.76516489999995,233.76516489999995,233.76516489999995,233.76516489999995,233.76516489999995,233.76516489999995,233.76516489999995,233.76516489999995,,004,P010,2025_Feb_01_1527,ConditionRich,2021.2.3,59.922831377874196,
204.0,204.75,33,0.75,Stimuli/P010/things_lizard_05n.jpg,0,0.0,0.0,0,87,87,87,,,,,,,,,,,,,204.01262860000134,0.012628600001335144,None,237.0180313000019,237.0180313000019,237.0180313000019,237.0180313000019,237.0180313000019,237.0180313000019,237.0180313000019,237.0180313000019,237.0180313000019,237.0180313000019,,004,P010,2025_Feb_01_1527,ConditionRich,2021.2.3,59.922831377874196,
204.75,208.0,41,0.0,Stimuli/Blank.png,0,0.0,0.0,0,88,88,88,,,,,,,,,,,,,204.76418230000127,0.014182300001266412,None,237.78539400000227,237.78539400000227,237.78539400000227,237.78539400000227,237.78539400000227,237.78539400000227,237.78539400000227,237.78539400000227,237.78539400000227,237.78539400000227,,004,P010,2025_Feb_01_1527,ConditionRich,2021.2.3,59.922831377874196,
208.0,208.75,10,0.75,Stimuli/P010/sun_bdkttewvyfdarikm.jpg,0,0.0,0.0,0,89,89,89,,,,,,,,,,,,,208.01702650000152,0.017026500001520617,1,241.0383905000017,241.0383905000017,241.0383905000017,241.0383905000017,241.0383905000017,241.0383905000017,241.0383905000017,241.0383905000017,241.0383905000017,241.0383905000017,0.4684655999990355,004,P010,2025_Feb_01_1527,ConditionRich,2021.2.3,59.922831377874196,
208.75,212.0,41,0.0,Stimuli/Blank.png,0,0.0,0.0,0,90,90,90,,,,,,,,,,,,,208.76748909999878,0.017489099998783786,None,241.78894130000117,241.78894130000117,241.78894130000117,241.78894130000117,241.78894130000117,241.78894130000117,241.78894130000117,241.78894130000117,241.78894130000117,241.78894130000117,,004,P010,2025_Feb_01_1527,ConditionRich,2021.2.3,59.922831377874196,
212.0,212.75,2,0.75,Stimuli/P010/sun_acvloibbxiqpiwnv.jpg,0,0.0,0.0,0,91,91,91,,,,,,,,,,,,,212.02017720000003,0.020177200000034645,None,245.02512080000088,245.02512080000088,245.02512080000088,245.02512080000088,245.02512080000088,245.02512080000088,245.02512080000088,245.02512080000088,245.02512080000088,245.02512080000088,,004,P010,2025_Feb_01_1527,ConditionRich,2021.2.3,59.922831377874196,
212.75,216.0,41,0.0,Stimuli/Blank.png,0,0.0,0.0,0,92,92,92,,,,,,,,,,,,,212.7531502999991,0.0031502999991062097,None,245.7590979000015,245.7590979000015,245.7590979000015,245.7590979000015,245.7590979000015,245.7590979000015,245.7590979000015,245.7590979000015,245.7590979000015,245.7590979000015,,004,P010,2025_Feb_01_1527,ConditionRich,2021.2.3,59.922831377874196,
216.0,216.75,36,0.75,Stimuli/P010/things_pelican_05s.jpg,0,0.0,0.0,0,93,93,93,,,,,,,,,,,,,216.00593389999995,0.0059338999999454245,None,249.02866020000147,249.02866020000147,249.02866020000147,249.02866020000147,249.02866020000147,249.02866020000147,249.02866020000147,249.02866020000147,249.02866020000147,249.02866020000147,,004,P010,2025_Feb_01_1527,ConditionRich,2021.2.3,59.922831377874196,
216.75,220.0,41,0.0,Stimuli/Blank.png,0,0.0,0.0,0,94,94,94,,,,,,,,,,,,,216.77315920000183,0.02315920000182814,None,249.77932440000222,249.77932440000222,249.77932440000222,249.77932440000222,249.77932440000222,249.77932440000222,249.77932440000222,249.77932440000222,249.77932440000222,249.77932440000222,,004,P010,2025_Feb_01_1527,ConditionRich,2021.2.3,59.922831377874196,
220.0,220.75,39,0.75,Stimuli/P010/things_tiara_05s.jpg,0,0.0,0.0,0,95,95,95,,,,,,,,,,,,,220.01002320000043,0.010023200000432553,None,253.0322230999991,253.0322230999991,253.0322230999991,253.0322230999991,253.0322230999991,253.0322230999991,253.0322230999991,253.0322230999991,253.0322230999991,253.0322230999991,,004,P010,2025_Feb_01_1527,ConditionRich,2021.2.3,59.922831377874196,
220.75,224.0,41,0.0,Stimuli/Blank.png,0,0.0,0.0,0,96,96,96,,,,,,,,,,,,,220.77702789999967,0.02702789999966626,None,253.78286110000045,253.78286110000045,253.78286110000045,253.78286110000045,253.78286110000045,253.78286110000045,253.78286110000045,253.78286110000045,253.78286110000045,253.78286110000045,,004,P010,2025_Feb_01_1527,ConditionRich,2021.2.3,59.922831377874196,
224.0,224.75,18,0.75,Stimuli/P010/sun_bwjdahsxcqepqqbm.jpg,0,0.0,0.0,0,97,97,97,,,,,,,,,,,,,224.01421050000135,0.014210500001354376,None,257.01906710000185,257.01906710000185,257.01906710000185,257.01906710000185,257.01906710000185,257.01906710000185,257.01906710000185,257.01906710000185,257.01906710000185,257.01906710000185,,004,P010,2025_Feb_01_1527,ConditionRich,2021.2.3,59.922831377874196,
224.75,228.0,41,0.0,Stimuli/Blank.png,0,0.0,0.0,0,98,98,98,,,,,,,,,,,,,224.76372130000163,0.013721300001634518,None,257.7697220000009,257.7697220000009,257.7697220000009,257.7697220000009,257.7697220000009,257.7697220000009,257.7697220000009,257.7697220000009,257.7697220000009,257.7697220000009,,004,P010,2025_Feb_01_1527,ConditionRich,2021.2.3,59.922831377874196,
228.0,228.75,37,0.75,Stimuli/P010/things_pug_05s.jpg,0,0.0,0.0,0,99,99,99,,,,,,,,,,,,,228.0004031999997,0.0004031999997096136,None,261.0059156000025,261.0059156000025,261.0059156000025,261.0059156000025,261.0059156000025,261.0059156000025,261.0059156000025,261.0059156000025,261.0059156000025,261.0059156000025,,004,P010,2025_Feb_01_1527,ConditionRich,2021.2.3,59.922831377874196,
228.75,232.0,41,0.0,Stimuli/Blank.png,0,0.0,0.0,0,100,100,100,,,,,,,,,,,,,228.75262350000048,0.0026235000004817266,None,261.77326639999956,261.77326639999956,261.77326639999956,261.77326639999956,261.77326639999956,261.77326639999956,261.77326639999956,261.77326639999956,261.77326639999956,261.77326639999956,,004,P010,2025_Feb_01_1527,ConditionRich,2021.2.3,59.922831377874196,
232.0,232.75,4,0.75,Stimuli/P010/sun_afkzdukwewwzqtmr.jpg,0,0.0,0.0,0,101,101,101,,,,,,,,,,,,,232.02007579999918,0.020075799999176525,None,265.0261375000009,265.0261375000009,265.0261375000009,265.0261375000009,265.0261375000009,265.0261375000009,265.0261375000009,265.0261375000009,265.0261375000009,265.0261375000009,,004,P010,2025_Feb_01_1527,ConditionRich,2021.2.3,59.922831377874196,
232.75,236.0,41,0.0,Stimuli/Blank.png,1,0.25,1.0,0,102,102,102,,,,,,,,,,,,,232.7540795999994,0.004079599999386119,1,265.7601214999995,265.7601214999995,265.7601214999995,265.7601214999995,265.7601214999995,265.7601214999995,265.9936551999999,266.74431860000186,265.7601214999995,265.7601214999995,0.6086412999975437,004,P010,2025_Feb_01_1527,ConditionRich,2021.2.3,59.922831377874196,
236.0,236.75,3,0.75,Stimuli/P010/sun_aewgwsmvsgzleqhw.jpg,0,0.0,0.0,0,103,103,103,,,,,,,,,,,,,236.00690000000031,0.006900000000314321,None,269.0130055000009,269.0130055000009,269.0130055000009,269.0130055000009,269.0130055000009,269.0130055000009,269.0130055000009,269.0130055000009,269.0130055000009,269.0130055000009,,004,P010,2025_Feb_01_1527,ConditionRich,2021.2.3,59.922831377874196,
236.75,240.0,41,0.0,Stimuli/Blank.png,1,2.25,3.0,0,104,104,104,,,,,,,,,,,,,236.75794410000162,0.007944100001623156,1,269.7636640000019,269.7636640000019,269.7636640000019,269.7636640000019,269.7636640000019,269.7636640000019,271.99902830000065,272.74970609999946,269.7636640000019,269.7636640000019,2.7079021999998076,004,P010,2025_Feb_01_1527,ConditionRich,2021.2.3,59.922831377874196,
240.0,240.75,17,0.75,Stimuli/P010/sun_brkrfjpyfglmigkk.jpg,0,0.0,0.0,0,105,105,105,,,,,,,,,,,,,240.01048060000176,0.010480600001756102,None,273.01654469999994,273.01654469999994,273.01654469999994,273.01654469999994,273.01654469999994,273.01654469999994,273.01654469999994,273.01654469999994,273.01654469999994,273.01654469999994,,004,P010,2025_Feb_01_1527,ConditionRich,2021.2.3,59.922831377874196,
240.75,244.0,41,0.0,Stimuli/Blank.png,0,0.0,0.0,0,106,106,106,,,,,,,,,,,,,240.76367820000087,0.013678200000867946,None,273.78389810000226,273.78389810000226,273.78389810000226,273.78389810000226,273.78389810000226,273.78389810000226,273.78389810000226,273.78389810000226,273.78389810000226,273.78389810000226,,004,P010,2025_Feb_01_1527,ConditionRich,2021.2.3,59.922831377874196,
244.0,244.75,16,0.75,Stimuli/P010/sun_bqpyqljaflidcauh.jpg,1,0.0,0.75,0,107,107,107,,,,,,,,,,,,,244.01479319999999,0.014793199999985518,1,277.0200877999996,277.0200877999996,277.0200877999996,277.0200877999996,277.0200877999996,277.0200877999996,277.0200877999996,277.7540375999997,277.0200877999996,277.0200877999996,0.5176363999999012,004,P010,2025_Feb_01_1527,ConditionRich,2021.2.3,59.922831377874196,
244.75,248.0,41,0.0,Stimuli/Blank.png,0,0.0,0.0,0,108,108,108,,,,,,,,,,,,,244.76539350000166,0.015393500001664506,None,277.7707478000011,277.7707478000011,277.7707478000011,277.7707478000011,277.7707478000011,277.7707478000011,277.7707478000011,277.7707478000011,277.7707478000011,277.7707478000011,,004,P010,2025_Feb_01_1527,ConditionRich,2021.2.3,59.922831377874196,
248.0,248.75,11,0.75,Stimuli/P010/sun_bfyvfqiimvdaxlqn.jpg,0,0.0,0.0,0,109,109,109,,,,,,,,,,,,,248.00250249999954,0.002502499999536667,None,281.02361640000163,281.02361640000163,281.02361640000163,281.02361640000163,281.02361640000163,281.02361640000163,281.02361640000163,281.02361640000163,281.02361640000163,281.02361640000163,,004,P010,2025_Feb_01_1527,ConditionRich,2021.2.3,59.922831377874196,
248.75,252.0,41,0.0,Stimuli/Blank.png,0,0.0,0.0,0,110,110,110,,,,,,,,,,,,,248.76856770000086,0.018567700000858167,None,281.7742873999996,281.7742873999996,281.7742873999996,281.7742873999996,281.7742873999996,281.7742873999996,281.7742873999996,281.7742873999996,281.7742873999996,281.7742873999996,,004,P010,2025_Feb_01_1527,ConditionRich,2021.2.3,59.922831377874196,
252.0,252.75,29,0.75,Stimuli/P010/things_fingerprint_05s.jpg,0,0.0,0.0,0,111,111,111,,,,,,,,,,,,,252.0060889000015,0.006088900001486763,None,285.0271606000024,285.0271606000024,285.0271606000024,285.0271606000024,285.0271606000024,285.0271606000024,285.0271606000024,285.0271606000024,285.0271606000024,285.0271606000024,,004,P010,2025_Feb_01_1527,ConditionRich,2021.2.3,59.922831377874196,
252.75,256.0,41,0.0,Stimuli/Blank.png,0,0.0,0.0,0,112,112,112,,,,,,,,,,,,,252.77229920000173,0.022299200001725694,None,285.7778332000016,285.7778332000016,285.7778332000016,285.7778332000016,285.7778332000016,285.7778332000016,285.7778332000016,285.7778332000016,285.7778332000016,285.7778332000016,,004,P010,2025_Feb_01_1527,ConditionRich,2021.2.3,59.922831377874196,
256.0,256.75,34,0.75,Stimuli/P010/things_man_05s.jpg,0,0.0,0.0,0,113,113,113,,,,,,,,,,,,,256.0080405000008,0.008040500000788597,None,289.0140207000004,289.0140207000004,289.0140207000004,289.0140207000004,289.0140207000004,289.0140207000004,289.0140207000004,289.0140207000004,289.0140207000004,289.0140207000004,,004,P010,2025_Feb_01_1527,ConditionRich,2021.2.3,59.922831377874196,
256.75,260.0,41,0.0,Stimuli/Blank.png,1,0.25,1.0,0,114,114,114,,,,,,,,,,,,,256.7590142000008,0.009014200000819983,1,289.7646875999999,289.7646875999999,289.7646875999999,289.7646875999999,289.7646875999999,289.7646875999999,289.9982412999998,290.74887820000004,289.7646875999999,289.7646875999999,0.694946899999195,004,P010,2025_Feb_01_1527,ConditionRich,2021.2.3,59.922831377874196,
260.0,260.75,21,0.75,Stimuli/P010/things_boy_05s.jpg,0,0.0,0.0,0,115,115,115,,,,,,,,,,,,,260.0124409000018,0.01244090000182041,None,293.034238799999,293.034238799999,293.034238799999,293.034238799999,293.034238799999,293.034238799999,293.034238799999,293.034238799999,293.034238799999,293.034238799999,,004,P010,2025_Feb_01_1527,ConditionRich,2021.2.3,59.922831377874196,
260.75,264.0,41,0.0,Stimuli/Blank.png,0,0.0,0.0,0,116,116,116,,,,,,,,,,,,,260.77955940000174,0.029559400001744507,None,293.7849019999994,293.7849019999994,293.7849019999994,293.7849019999994,293.7849019999994,293.7849019999994,293.7849019999994,293.7849019999994,293.7849019999994,293.7849019999994,,004,P010,2025_Feb_01_1527,ConditionRich,2021.2.3,59.922831377874196,
264.0,264.75,7,0.75,Stimuli/P010/sun_apiogxmvvzfmtsmj.jpg,0,0.0,0.0,0,117,117,117,,,,,,,,,,,,,263.9984559000004,-0.0015440999995917082,None,297.0044240999996,297.0044240999996,297.0044240999996,297.0044240999996,297.0044240999996,297.0044240999996,297.0044240999996,297.0044240999996,297.0044240999996,297.0044240999996,,004,P010,2025_Feb_01_1527,ConditionRich,2021.2.3,59.922831377874196,
264.75,268.0,41,0.0,Stimuli/Blank.png,0,0.0,0.0,0,118,118,118,,,,,,,,,,,,,264.74890420000156,-0.0010957999984384514,None,297.7550947000018,297.7550947000018,297.7550947000018,297.7550947000018,297.7550947000018,297.7550947000018,297.7550947000018,297.7550947000018,297.7550947000018,297.7550947000018,,004,P010,2025_Feb_01_1527,ConditionRich,2021.2.3,59.922831377874196,
268.0,268.75,31,0.75,Stimuli/P010/things_girl_05s.jpg,0,0.0,0.0,0,119,119,119,,,,,,,,,,,,,268.0031076999985,0.003107699998508906,None,301.0246451999992,301.0246451999992,301.0246451999992,301.0246451999992,301.0246451999992,301.0246451999992,301.0246451999992,301.0246451999992,301.0246451999992,301.0246451999992,,004,P010,2025_Feb_01_1527,ConditionRich,2021.2.3,59.922831377874196,
268.75,272.0,41,0.0,Stimuli/Blank.png,1,0.25,1.0,0,120,120,120,,,,,,,,,,,,,268.76962600000115,0.019626000001153443,1,301.77537700000175,301.77537700000175,301.77537700000175,301.77537700000175,301.77537700000175,301.77537700000175,302.0088512000002,302.7595657999991,301.77537700000175,301.77537700000175,0.8662057000001369,004,P010,2025_Feb_01_1527,ConditionRich,2021.2.3,59.922831377874196,
272.0,272.75,9,0.75,Stimuli/P010/sun_bdjkvwqqqycuixtc.jpg,0,0.0,0.0,0,121,121,121,,,,,,,,,,,,,272.00721310000154,0.007213100001536077,None,305.028208300002,305.028208300002,305.028208300002,305.028208300002,305.028208300002,305.028208300002,305.028208300002,305.028208300002,305.028208300002,305.028208300002,,004,P010,2025_Feb_01_1527,ConditionRich,2021.2.3,59.922831377874196,
272.75,276.0,41,0.0,Stimuli/Blank.png,0,0.0,0.0,0,122,122,122,,,,,,,,,,,,,272.77337550000084,0.023375500000838656,None,305.778860800001,305.778860800001,305.778860800001,305.778860800001,305.778860800001,305.778860800001,305.778860800001,305.778860800001,305.778860800001,305.778860800001,,004,P010,2025_Feb_01_1527,ConditionRich,2021.2.3,59.922831377874196,
276.0,292.0,0,0.0,Stimuli/Blank.png,1,2.0,2.75,0,123,123,123,,,,,,,,,,,,,276.0097194000009,0.009719400000903988,1,309.0150453999995,309.0150453999995,309.0150453999995,309.0150453999995,309.0150453999995,309.0150453999995,311.00014600000213,311.7507888,309.0150453999995,309.0150453999995,3.783564800000022,004,P010,2025_Feb_01_1527,ConditionRich,2021.2.3,59.922831377874196,
292.0,292.75,27,0.75,Stimuli/P010/things_curling_iron_05s.jpg,1,0.0,0.75,0,124,124,124,,,,,,,,,,,,,292.0076201000011,0.007620100001076935,1,325.0292001000016,325.0292001000016,325.0292001000016,325.0292001000016,325.0292001000016,325.0292001000016,325.0292001000016,325.74655039999925,325.0292001000016,325.0292001000016,0.4956242000007478,004,P010,2025_Feb_01_1527,ConditionRich,2021.2.3,59.922831377874196,
292.75,296.0,41,0.0,Stimuli/Blank.png,0,0.0,0.0,0,125,125,125,,,,,,,,,,,,,292.7738375000008,0.023837500000809086,None,325.77987270000085,325.77987270000085,325.77987270000085,325.77987270000085,325.77987270000085,325.77987270000085,325.77987270000085,325.77987270000085,325.77987270000085,325.77987270000085,,004,P010,2025_Feb_01_1527,ConditionRich,2021.2.3,59.922831377874196,
296.0,296.75,20,0.75,Stimuli/P010/sun_ddsiwinthvyejghq.jpg,0,0.0,0.0,0,126,126,126,,,,,,,,,,,,,296.00997039999856,0.009970399998564972,None,329.0160767000016,329.0160767000016,329.0160767000016,329.0160767000016,329.0160767000016,329.0160767000016,329.0160767000016,329.0160767000016,329.0160767000016,329.0160767000016,,004,P010,2025_Feb_01_1527,ConditionRich,2021.2.3,59.922831377874196,
296.75,300.0,41,0.0,Stimuli/Blank.png,0,0.0,0.0,0,127,127,127,,,,,,,,,,,,,296.76302529999884,0.013025299998844275,None,329.7834161999999,329.7834161999999,329.7834161999999,329.7834161999999,329.7834161999999,329.7834161999999,329.7834161999999,329.7834161999999,329.7834161999999,329.7834161999999,,004,P010,2025_Feb_01_1527,ConditionRich,2021.2.3,59.922831377874196,
300.0,300.75,14,0.75,Stimuli/P010/sun_blaqxdebghixzyyw.jpg,0,0.0,0.0,0,128,128,128,,,,,,,,,,,,,300.014028900001,0.014028900000994327,None,333.0196066999997,333.0196066999997,333.0196066999997,333.0196066999997,333.0196066999997,333.0196066999997,333.0196066999997,333.0196066999997,333.0196066999997,333.0196066999997,,004,P010,2025_Feb_01_1527,ConditionRich,2021.2.3,59.922831377874196,
300.75,304.0,41,0.0,Stimuli/Blank.png,0,0.0,0.0,0,129,129,129,,,,,,,,,,,,,300.7642835000006,0.014283500000601634,None,333.770272400001,333.770272400001,333.770272400001,333.770272400001,333.770272400001,333.770272400001,333.770272400001,333.770272400001,333.770272400001,333.770272400001,,004,P010,2025_Feb_01_1527,ConditionRich,2021.2.3,59.922831377874196,
304.0,304.75,1,0.75,Stimuli/P010/sun_abqdlumenyzawlme.jpg,0,0.0,0.0,0,130,130,130,,,,,,,,,,,,,304.0019328999988,0.0019328999987919815,None,337.02315400000225,337.02315400000225,337.02315400000225,337.02315400000225,337.02315400000225,337.02315400000225,337.02315400000225,337.02315400000225,337.02315400000225,337.02315400000225,,004,P010,2025_Feb_01_1527,ConditionRich,2021.2.3,59.922831377874196,
304.75,308.0,41,0.0,Stimuli/Blank.png,0,0.0,0.0,0,131,131,131,,,,,,,,,,,,,304.7684388000016,0.01843880000160425,None,337.77381289999903,337.77381289999903,337.77381289999903,337.77381289999903,337.77381289999903,337.77381289999903,337.77381289999903,337.77381289999903,337.77381289999903,337.77381289999903,,004,P010,2025_Feb_01_1527,ConditionRich,2021.2.3,59.922831377874196,
308.0,308.75,6,0.75,Stimuli/P010/sun_amkrwcyvinmsylsz.jpg,0,0.0,0.0,0,132,132,132,,,,,,,,,,,,,308.0039910000014,0.003991000001406064,None,341.0099842999989,341.0099842999989,341.0099842999989,341.0099842999989,341.0099842999989,341.0099842999989,341.0099842999989,341.0099842999989,341.0099842999989,341.0099842999989,,004,P010,2025_Feb_01_1527,ConditionRich,2021.2.3,59.922831377874196,
308.75,312.0,41,0.0,Stimuli/Blank.png,1,2.25,3.0,0,133,133,133,,,,,,,,,,,,,308.75527109999894,0.005271099998935824,1,341.7606749000006,341.7606749000006,341.7606749000006,341.7606749000006,341.7606749000006,341.7606749000006,343.9960290000017,344.7466712000023,341.7606749000006,341.7606749000006,2.7592775000011898,004,P010,2025_Feb_01_1527,ConditionRich,2021.2.3,59.922831377874196,
312.0,312.75,13,0.75,Stimuli/P010/sun_bjimvgwadfodioes.jpg,0,0.0,0.0,0,134,134,134,,,,,,,,,,,,,312.00807279999935,0.008072799999354174,None,345.01354849999916,345.01354849999916,345.01354849999916,345.01354849999916,345.01354849999916,345.01354849999916,345.01354849999916,345.01354849999916,345.01354849999916,345.01354849999916,,004,P010,2025_Feb_01_1527,ConditionRich,2021.2.3,59.922831377874196,
312.75,316.0,41,0.0,Stimuli/Blank.png,0,0.0,0.0,0,135,135,135,,,,,,,,,,,,,312.75864609999917,0.008646099999168655,None,345.7642099000004,345.7642099000004,345.7642099000004,345.7642099000004,345.7642099000004,345.7642099000004,345.7642099000004,345.7642099000004,345.7642099000004,345.7642099000004,,004,P010,2025_Feb_01_1527,ConditionRich,2021.2.3,59.922831377874196,
316.0,316.75,30,0.75,Stimuli/P010/things_fire_05s.jpg,0,0.0,0.0,0,136,136,136,,,,,,,,,,,,,316.0139013000007,0.013901300000725314,None,349.033801900001,349.033801900001,349.033801900001,349.033801900001,349.033801900001,349.033801900001,349.033801900001,349.033801900001,349.033801900001,349.033801900001,,004,P010,2025_Feb_01_1527,ConditionRich,2021.2.3,59.922831377874196,
316.75,320.0,41,0.0,Stimuli/Blank.png,0,0.0,0.0,0,137,137,137,,,,,,,,,,,,,316.77871420000156,0.02871420000155922,None,349.7845507999991,349.7845507999991,349.7845507999991,349.7845507999991,349.7845507999991,349.7845507999991,349.7845507999991,349.7845507999991,349.7845507999991,349.7845507999991,,004,P010,2025_Feb_01_1527,ConditionRich,2021.2.3,59.922831377874196,
320.0,320.75,38,0.75,Stimuli/P010/things_roadsweeper_05s.jpg,0,0.0,0.0,0,138,138,138,,,,,,,,,,,,,320.01767069999914,0.017670699999143835,None,353.0373557000021,353.0373557000021,353.0373557000021,353.0373557000021,353.0373557000021,353.0373557000021,353.0373557000021,353.0373557000021,353.0373557000021,353.0373557000021,,004,P010,2025_Feb_01_1527,ConditionRich,2021.2.3,59.922831377874196,
320.75,324.0,41,0.0,Stimuli/Blank.png,0,0.0,0.0,0,139,139,139,,,,,,,,,,,,,320.7678831000012,0.017883100001199637,None,353.7879877000014,353.7879877000014,353.7879877000014,353.7879877000014,353.7879877000014,353.7879877000014,353.7879877000014,353.7879877000014,353.7879877000014,353.7879877000014,,004,P010,2025_Feb_01_1527,ConditionRich,2021.2.3,59.922831377874196,
324.0,324.75,15,0.75,Stimuli/P010/sun_boryivbddrnarrbo.jpg,0,0.0,0.0,0,140,140,140,,,,,,,,,,,,,324.01881030000004,0.018810300000041025,None,357.0408779999998,357.0408779999998,357.0408779999998,357.0408779999998,357.0408779999998,357.0408779999998,357.0408779999998,357.0408779999998,357.0408779999998,357.0408779999998,,004,P010,2025_Feb_01_1527,ConditionRich,2021.2.3,59.922831377874196,
324.75,328.0,41,0.0,Stimuli/Blank.png,0,0.0,0.0,0,141,141,141,,,,,,,,,,,,,324.76940000000104,0.019400000001041917,None,357.77483810000194,357.77483810000194,357.77483810000194,357.77483810000194,357.77483810000194,357.77483810000194,357.77483810000194,357.77483810000194,357.77483810000194,357.77483810000194,,004,P010,2025_Feb_01_1527,ConditionRich,2021.2.3,59.922831377874196,
328.0,328.75,5,0.75,Stimuli/P010/sun_akqvdmuauoxeafrj.jpg,0,0.0,0.0,0,142,142,142,,,,,,,,,,,,,328.0053818000015,0.005381800001487136,None,361.0277301000024,361.0277301000024,361.0277301000024,361.0277301000024,361.0277301000024,361.0277301000024,361.0277301000024,361.0277301000024,361.0277301000024,361.0277301000024,,004,P010,2025_Feb_01_1527,ConditionRich,2021.2.3,59.922831377874196,
328.75,332.0,41,0.0,Stimuli/Blank.png,0,0.0,0.0,0,143,143,143,,,,,,,,,,,,,328.77317029999904,0.023170299999037525,None,361.7783856999995,361.7783856999995,361.7783856999995,361.7783856999995,361.7783856999995,361.7783856999995,361.7783856999995,361.7783856999995,361.7783856999995,361.7783856999995,,004,P010,2025_Feb_01_1527,ConditionRich,2021.2.3,59.922831377874196,
332.0,332.75,25,0.75,Stimuli/P010/things_clothespin_05s.jpg,0,0.0,0.0,0,144,144,144,,,,,,,,,,,,,332.008746800002,0.008746800001972588,None,365.01457239999945,365.01457239999945,365.01457239999945,365.01457239999945,365.01457239999945,365.01457239999945,365.01457239999945,365.01457239999945,365.01457239999945,365.01457239999945,,004,P010,2025_Feb_01_1527,ConditionRich,2021.2.3,59.922831377874196,
332.75,336.0,41,0.0,Stimuli/Blank.png,0,0.0,0.0,0,145,145,145,,,,,,,,,,,,,332.75948509999944,0.009485099999437807,None,365.7652326000025,365.7652326000025,365.7652326000025,365.7652326000025,365.7652326000025,365.7652326000025,365.7652326000025,365.7652326000025,365.7652326000025,365.7652326000025,,004,P010,2025_Feb_01_1527,ConditionRich,2021.2.3,59.922831377874196,
336.0,336.75,8,0.75,Stimuli/P010/sun_batcnoizlkeiqdtx.jpg,0,0.0,0.0,0,146,146,146,,,,,,,,,,,,,336.01314170000114,0.013141700001142453,None,369.03481499999907,369.03481499999907,369.03481499999907,369.03481499999907,369.03481499999907,369.03481499999907,369.03481499999907,369.03481499999907,369.03481499999907,369.03481499999907,,004,P010,2025_Feb_01_1527,ConditionRich,2021.2.3,59.922831377874196,
336.75,340.0,41,0.0,Stimuli/Blank.png,0,0.0,0.0,0,147,147,147,,,,,,,,,,,,,336.7794533000015,0.029453300001478055,None,369.7854752000021,369.7854752000021,369.7854752000021,369.7854752000021,369.7854752000021,369.7854752000021,369.7854752000021,369.7854752000021,369.7854752000021,369.7854752000021,,004,P010,2025_Feb_01_1527,ConditionRich,2021.2.3,59.922831377874196,
340.0,340.75,12,0.75,Stimuli/P010/sun_birmwgkdtrlevcaf.jpg,0,0.0,0.0,0,148,148,148,,,,,,,,,,,,,340.0177825999999,0.017782599999918602,None,373.03833719999966,373.03833719999966,373.03833719999966,373.03833719999966,373.03833719999966,373.03833719999966,373.03833719999966,373.03833719999966,373.03833719999966,373.03833719999966,,004,P010,2025_Feb_01_1527,ConditionRich,2021.2.3,59.922831377874196,
340.75,344.0,41,0.0,Stimuli/Blank.png,1,1.25,2.0,0,149,149,149,,,,,,,,,,,,,340.76829160000125,0.018291600001248298,1,373.789034100002,373.789034100002,373.789034100002,373.789034100002,373.789034100002,373.789034100002,375.0234696000007,375.77408859999923,373.789034100002,373.789034100002,1.6926437000001897,004,P010,2025_Feb_01_1527,ConditionRich,2021.2.3,59.922831377874196,
344.0,344.75,22,0.75,Stimuli/P010/things_butterfly_05s.jpg,0,0.0,0.0,0,150,150,150,,,,,,,,,,,,,344.01929369999925,0.019293699999252567,None,377.0418849000016,377.0418849000016,377.0418849000016,377.0418849000016,377.0418849000016,377.0418849000016,377.0418849000016,377.0418849000016,377.0418849000016,377.0418849000016,,004,P010,2025_Feb_01_1527,ConditionRich,2021.2.3,59.922831377874196,
344.75,348.0,41,0.0,Stimuli/Blank.png,1,1.25,2.0,0,151,151,151,,,,,,,,,,,,,344.76965819999896,0.01965819999895757,1,377.7758544999997,377.7758544999997,377.7758544999997,377.7758544999997,377.7758544999997,377.7758544999997,379.01028360000055,379.76094060000105,377.7758544999997,377.7758544999997,1.6999739999992016,004,P010,2025_Feb_01_1527,ConditionRich,2021.2.3,59.922831377874196,
348.0,348.75,23,0.75,Stimuli/P010/things_charger_05s.jpg,0,0.0,0.0,0,152,152,152,,,,,,,,,,,,,348.005970000002,0.005970000001980225,None,381.0120577000016,381.0120577000016,381.0120577000016,381.0120577000016,381.0120577000016,381.0120577000016,381.0120577000016,381.0120577000016,381.0120577000016,381.0120577000016,,004,P010,2025_Feb_01_1527,ConditionRich,2021.2.3,59.922831377874196,
348.75,352.0,41,0.0,Stimuli/Blank.png,0,0.0,0.0,0,153,153,153,,,,,,,,,,,,,348.75724700000137,0.007247000001370907,None,381.76271500000075,381.76271500000075,381.76271500000075,381.76271500000075,381.76271500000075,381.76271500000075,381.76271500000075,381.76271500000075,381.76271500000075,381.76271500000075,,004,P010,2025_Feb_01_1527,ConditionRich,2021.2.3,59.922831377874196,
352.0,352.75,24,0.75,Stimuli/P010/things_cigar_05n.jpg,0,0.0,0.0,0,154,154,154,,,,,,,,,,,,,352.0096252000003,0.009625200000300538,None,385.0322812000013,385.0322812000013,385.0322812000013,385.0322812000013,385.0322812000013,385.0322812000013,385.0322812000013,385.0322812000013,385.0322812000013,385.0322812000013,,004,P010,2025_Feb_01_1527,ConditionRich,2021.2.3,59.922831377874196,
352.75,356.0,41,0.0,Stimuli/Blank.png,0,0.0,0.0,0,155,155,155,,,,,,,,,,,,,352.77697199999966,0.0269719999996596,None,385.78294580000147,385.78294580000147,385.78294580000147,385.78294580000147,385.78294580000147,385.78294580000147,385.78294580000147,385.78294580000147,385.78294580000147,385.78294580000147,,004,P010,2025_Feb_01_1527,ConditionRich,2021.2.3,59.922831377874196,
356.0,356.75,40,0.75,Stimuli/P010/things_woman_05s.jpg,0,0.0,0.0,0,156,156,156,,,,,,,,,,,,,356.0142115000017,0.014211500001692912,None,389.03581789999953,389.03581789999953,389.03581789999953,389.03581789999953,389.03581789999953,389.03581789999953,389.03581789999953,389.03581789999953,389.03581789999953,389.03581789999953,,004,P010,2025_Feb_01_1527,ConditionRich,2021.2.3,59.922831377874196,
356.75,360.0,41,0.0,Stimuli/Blank.png,0,0.0,0.0,0,157,157,157,,,,,,,,,,,,,356.78107589999854,0.03107589999854099,None,389.7865032000009,389.7865032000009,389.7865032000009,389.7865032000009,389.7865032000009,389.7865032000009,389.7865032000009,389.7865032000009,389.7865032000009,389.7865032000009,,004,P010,2025_Feb_01_1527,ConditionRich,2021.2.3,59.922831377874196,
360.0,360.75,28,0.75,Stimuli/P010/things_face_05s.jpg,0,0.0,0.0,0,158,158,158,,,,,,,,,,,,,359.99993149999864,-6.850000136182643e-05,None,393.0059996000018,393.0059996000018,393.0059996000018,393.0059996000018,393.0059996000018,393.0059996000018,393.0059996000018,393.0059996000018,393.0059996000018,393.0059996000018,,004,P010,2025_Feb_01_1527,ConditionRich,2021.2.3,59.922831377874196,
360.75,364.0,41,0.0,Stimuli/Blank.png,0,0.0,0.0,0,159,159,159,,,,,,,,,,,,,360.7519949000016,0.0019949000015913043,None,393.7566611000002,393.7566611000002,393.7566611000002,393.7566611000002,393.7566611000002,393.7566611000002,393.7566611000002,393.7566611000002,393.7566611000002,393.7566611000002,,004,P010,2025_Feb_01_1527,ConditionRich,2021.2.3,59.922831377874196,
364.0,364.75,19,0.75,Stimuli/P010/sun_bwvfnogmotsvhofs.jpg,0,0.0,0.0,0,160,160,160,,,,,,,,,,,,,364.0037722999987,0.003772299998672679,None,397.0095447999993,397.0095447999993,397.0095447999993,397.0095447999993,397.0095447999993,397.0095447999993,397.0095447999993,397.0095447999993,397.0095447999993,397.0095447999993,,004,P010,2025_Feb_01_1527,ConditionRich,2021.2.3,59.922831377874196,
364.75,368.0,41,0.0,Stimuli/Blank.png,0,0.0,0.0,0,161,161,161,,,,,,,,,,,,,364.7542098999984,0.0042098999983863905,None,397.76021219999893,397.76021219999893,397.76021219999893,397.76021219999893,397.76021219999893,397.76021219999893,397.76021219999893,397.76021219999893,397.76021219999893,397.76021219999893,,004,P010,2025_Feb_01_1527,ConditionRich,2021.2.3,59.922831377874196,
368.0,368.75,32,0.75,Stimuli/P010/things_hawk_05s.jpg,0,0.0,0.0,0,162,162,162,,,,,,,,,,,,,368.00739780000004,0.007397800000035204,None,401.01307630000156,401.01307630000156,401.01307630000156,401.01307630000156,401.01307630000156,401.01307630000156,401.01307630000156,401.01307630000156,401.01307630000156,401.01307630000156,,004,P010,2025_Feb_01_1527,ConditionRich,2021.2.3,59.922831377874196,
368.75,372.0,41,0.0,Stimuli/Blank.png,0,0.0,0.0,0,163,163,163,,,,,,,,,,,,,368.75873290000163,0.008732900001632515,None,401.78043679999973,401.78043679999973,401.78043679999973,401.78043679999973,401.78043679999973,401.78043679999973,401.78043679999973,401.78043679999973,401.78043679999973,401.78043679999973,,004,P010,2025_Feb_01_1527,ConditionRich,2021.2.3,59.922831377874196,
372.0,388.0,0,0.0,Stimuli/Blank.png,1,5.0,5.75,0,164,164,164,,,,,,,,,,,,,372.0285253000002,0.02852530000018305,1,405.03330560000177,405.03330560000177,405.03330560000177,405.03330560000177,405.03330560000177,405.03330560000177,410.0210837000013,410.7717429000004,405.03330560000177,405.03330560000177,5.310383099997125,004,P010,2025_Feb_01_1527,ConditionRich,2021.2.3,59.922831377874196,
