eventStartTime,eventEndTime,eventCond,imSize,imFile,responseEvent,fixRespStart,fixRespEnd,Events.thisRepN,Events.thisTrialN,Events.thisN,Events.thisIndex,Instructions.started,Instructions.stopped,participantReadyResponse.keys,participantReadyResponse.rt,participantReadyResponse.started,participantReadyResponse.stopped,startWaitforTrigger,triggerResponse.keys,triggerResponse.rt,triggerResponse.started,triggerResponse.stopped,globalTimer,actualStartTime,startTimingDiff,participantResponse.keys,participantResponse.started,participantResponse.stopped,image.started,image.stopped,fixationOutside.started,fixationOutside.stopped,fixationResponse.started,fixationResponse.stopped,fixationInside.started,fixationInside.stopped,participantResponse.rt,session,participant,date,expName,psychopyVersion,frameRate,
,,,,,,,,,,,,11.38247919999776,None,1,5.8341485999990255,11.38247919999776,None,,,,,,,,,,,,,,,,,,,,,002,P010,2025_Feb_01_1506,ConditionRich,2021.2.3,59.96997902810934,
,,,,,,,,,,,,,,,,,,17.229356100000587,5,14.371073700000125,17.242466399999103,None,,,,,,,,,,,,,,,,002,P010,2025_Feb_01_1506,ConditionRich,2021.2.3,59.96997902810934,
0.0,4.0,0,0.0,Stimuli/Blank.png,0,0,0.0,0,0,0,0,,,,,,,,,,,,31.626133699999627,0.02964119999887771,0.02964119999887771,None,31.671849399997882,None,31.671849399997882,None,31.671849399997882,None,31.671849399997882,31.671849399997882,31.671849399997882,None,,002,P010,2025_Feb_01_1506,ConditionRich,2021.2.3,59.96997902810934,
4.0,7.75,35,0.75,Stimuli/P010/things_mushroom_05n.jpg,0,0,0.0,0,1,1,1,,,,,,,,,,,,,4.002586899998278,0.0025868999982776586,None,35.642304500001046,35.642304500001046,35.642304500001046,35.642304500001046,35.642304500001046,35.642304500001046,35.642304500001046,35.642304500001046,35.642304500001046,35.642304500001046,,002,P010,2025_Feb_01_1506,ConditionRich,2021.2.3,59.96997902810934,
7.75,8.0,41,0.0,Stimuli/Blank.png,0,0,0.0,0,2,2,2,,,,,,,,,,,,,7.755590199998551,0.0055901999985508155,None,39.395752899999934,39.395752899999934,39.395752899999934,39.395752899999934,39.395752899999934,39.395752899999934,39.395752899999934,39.395752899999934,39.395752899999934,39.395752899999934,,002,P010,2025_Feb_01_1506,ConditionRich,2021.2.3,59.96997902810934,
8.0,11.75,2,0.75,Stimuli/P010/sun_acvloibbxiqpiwnv.jpg,0,0,0.0,0,3,3,3,,,,,,,,,,,,,8.005707799999072,0.005707799999072449,None,39.64570439999807,39.64570439999807,39.64570439999807,39.64570439999807,39.64570439999807,39.64570439999807,39.64570439999807,39.64570439999807,39.64570439999807,39.64570439999807,,002,P010,2025_Feb_01_1506,ConditionRich,2021.2.3,59.96997902810934,
11.75,12.0,41,0.0,Stimuli/Blank.png,0,0,0.0,0,4,4,4,,,,,,,,,,,,,11.759407499997906,0.009407499997905688,None,43.399154999999155,43.399154999999155,43.399154999999155,43.399154999999155,43.399154999999155,43.399154999999155,43.399154999999155,43.399154999999155,43.399154999999155,43.399154999999155,,002,P010,2025_Feb_01_1506,ConditionRich,2021.2.3,59.96997902810934,
12.0,15.75,31,0.75,Stimuli/P010/things_girl_05s.jpg,0,0,0.0,0,5,5,5,,,,,,,,,,,,,12.0094969999991,0.009496999999100808,None,43.64937859999918,43.64937859999918,43.64937859999918,43.64937859999918,43.64937859999918,43.64937859999918,43.64937859999918,43.64937859999918,43.64937859999918,43.64937859999918,,002,P010,2025_Feb_01_1506,ConditionRich,2021.2.3,59.96997902810934,
15.75,16.0,41,0.0,Stimuli/Blank.png,0,0,0.0,0,6,6,6,,,,,,,,,,,,,15.761965199999395,0.011965199999394827,None,47.40267759999915,47.40267759999915,47.40267759999915,47.40267759999915,47.40267759999915,47.40267759999915,47.40267759999915,47.40267759999915,47.40267759999915,47.40267759999915,,002,P010,2025_Feb_01_1506,ConditionRich,2021.2.3,59.96997902810934,
16.0,19.75,16,0.75,Stimuli/P010/sun_bqpyqljaflidcauh.jpg,0,0,0.0,0,7,7,7,,,,,,,,,,,,,16.012953599998582,0.012953599998581922,None,47.65290549999918,47.65290549999918,47.65290549999918,47.65290549999918,47.65290549999918,47.65290549999918,47.65290549999918,47.65290549999918,47.65290549999918,47.65290549999918,,002,P010,2025_Feb_01_1506,ConditionRich,2021.2.3,59.96997902810934,
19.75,20.0,41,0.0,Stimuli/Blank.png,0,0,0.0,0,8,8,8,,,,,,,,,,,,,19.749806799998623,-0.00019320000137668103,None,51.40623810000034,51.40623810000034,51.40623810000034,51.40623810000034,51.40623810000034,51.40623810000034,51.40623810000034,51.40623810000034,51.40623810000034,51.40623810000034,,002,P010,2025_Feb_01_1506,ConditionRich,2021.2.3,59.96997902810934,
20.0,23.75,34,0.75,Stimuli/P010/things_man_05s.jpg,0,0,0.0,0,9,9,9,,,,,,,,,,,,,20.016390599997976,0.016390599997976096,None,51.656452100000024,51.656452100000024,51.656452100000024,51.656452100000024,51.656452100000024,51.656452100000024,51.656452100000024,51.656452100000024,51.656452100000024,51.656452100000024,,002,P010,2025_Feb_01_1506,ConditionRich,2021.2.3,59.96997902810934,
23.75,24.0,41,0.0,Stimuli/Blank.png,0,0,0.0,0,10,10,10,,,,,,,,,,,,,23.75306450000062,0.003064500000618864,None,55.39309929999945,55.39309929999945,55.39309929999945,55.39309929999945,55.39309929999945,55.39309929999945,55.39309929999945,55.39309929999945,55.39309929999945,55.39309929999945,,002,P010,2025_Feb_01_1506,ConditionRich,2021.2.3,59.96997902810934,
24.0,27.75,3,0.75,Stimuli/P010/sun_aewgwsmvsgzleqhw.jpg,0,0,0.0,0,11,11,11,,,,,,,,,,,,,24.00261789999786,0.0026178999978583306,None,55.64331989999846,55.64331989999846,55.64331989999846,55.64331989999846,55.64331989999846,55.64331989999846,55.64331989999846,55.64331989999846,55.64331989999846,55.64331989999846,,002,P010,2025_Feb_01_1506,ConditionRich,2021.2.3,59.96997902810934,
27.75,28.0,41,0.0,Stimuli/Blank.png,0,0,0.0,0,12,12,12,,,,,,,,,,,,,27.756523100000777,0.006523100000777049,None,59.3966279999986,59.3966279999986,59.3966279999986,59.3966279999986,59.3966279999986,59.3966279999986,59.3966279999986,59.3966279999986,59.3966279999986,59.3966279999986,,002,P010,2025_Feb_01_1506,ConditionRich,2021.2.3,59.96997902810934,
28.0,31.75,30,0.75,Stimuli/P010/things_fire_05s.jpg,1,2,2.75,0,13,13,13,,,,,,,,,,,,,28.006649899998592,0.006649899998592446,1,59.66353969999909,59.66353969999909,59.66353969999909,59.66353969999909,59.66353969999909,59.66353969999909,61.63194359999761,62.38264530000015,59.66353969999909,59.66353969999909,2.84380930000043,002,P010,2025_Feb_01_1506,ConditionRich,2021.2.3,59.96997902810934,
31.75,32.0,41,0.0,Stimuli/Blank.png,0,0,0.0,0,14,14,14,,,,,,,,,,,,,31.776445700001204,0.026445700001204386,None,63.416851099998894,63.416851099998894,63.416851099998894,63.416851099998894,63.416851099998894,63.416851099998894,63.416851099998894,63.416851099998894,63.416851099998894,63.416851099998894,,002,P010,2025_Feb_01_1506,ConditionRich,2021.2.3,59.96997902810934,
32.0,35.75,27,0.75,Stimuli/P010/things_curling_iron_05s.jpg,0,0,0.0,0,15,15,15,,,,,,,,,,,,,32.00962140000047,0.009621400000469293,None,63.650396699998964,63.650396699998964,63.650396699998964,63.650396699998964,63.650396699998964,63.650396699998964,63.650396699998964,63.650396699998964,63.650396699998964,63.650396699998964,,002,P010,2025_Feb_01_1506,ConditionRich,2021.2.3,59.96997902810934,
35.75,36.0,41,0.0,Stimuli/Blank.png,0,0,0.0,0,16,16,16,,,,,,,,,,,,,35.766001799998776,0.016001799998775823,None,67.42040360000101,67.42040360000101,67.42040360000101,67.42040360000101,67.42040360000101,67.42040360000101,67.42040360000101,67.42040360000101,67.42040360000101,67.42040360000101,,002,P010,2025_Feb_01_1506,ConditionRich,2021.2.3,59.96997902810934,
36.0,39.75,14,0.75,Stimuli/P010/sun_blaqxdebghixzyyw.jpg,1,3,3.75,0,17,17,17,,,,,,,,,,,,,36.0137794000002,0.013779400000203168,1,67.653938200001,67.653938200001,67.653938200001,67.653938200001,67.653938200001,67.653938200001,70.63993549999941,None,67.653938200001,67.653938200001,3.4944235000002664,002,P010,2025_Feb_01_1506,ConditionRich,2021.2.3,59.96997902810934,
39.75,40.0,41,0.0,Stimuli/Blank.png,0,0,0.0,0,18,18,18,,,,,,,,,,,,,39.750948199998675,0.0009481999986746814,None,71.39058110000042,71.39058110000042,71.39058110000042,71.39058110000042,71.39058110000042,71.39058110000042,71.39058110000042,71.39058110000042,71.39058110000042,71.39058110000042,,002,P010,2025_Feb_01_1506,ConditionRich,2021.2.3,59.96997902810934,
40.0,43.75,24,0.75,Stimuli/P010/things_cigar_05n.jpg,0,0,0.0,0,19,19,19,,,,,,,,,,,,,40.00161989999833,0.0016198999983316753,None,71.65747429999828,71.65747429999828,71.65747429999828,71.65747429999828,71.65747429999828,71.65747429999828,71.65747429999828,71.65747429999828,71.65747429999828,71.65747429999828,,002,P010,2025_Feb_01_1506,ConditionRich,2021.2.3,59.96997902810934,
43.75,44.0,41,0.0,Stimuli/Blank.png,0,0,0.0,0,20,20,20,,,,,,,,,,,,,43.76998409999942,0.019984099999419414,None,75.41079600000012,75.41079600000012,75.41079600000012,75.41079600000012,75.41079600000012,75.41079600000012,75.41079600000012,75.41079600000012,75.41079600000012,75.41079600000012,,002,P010,2025_Feb_01_1506,ConditionRich,2021.2.3,59.96997902810934,
44.0,47.75,39,0.75,Stimuli/P010/things_tiara_05s.jpg,0,0,0.0,0,21,21,21,,,,,,,,,,,,,44.00361640000119,0.0036164000011922326,None,75.64434020000044,75.64434020000044,75.64434020000044,75.64434020000044,75.64434020000044,75.64434020000044,75.64434020000044,75.64434020000044,75.64434020000044,75.64434020000044,,002,P010,2025_Feb_01_1506,ConditionRich,2021.2.3,59.96997902810934,
47.75,48.0,41,0.0,Stimuli/Blank.png,0,0,0.0,0,22,22,22,,,,,,,,,,,,,47.75975810000091,0.009758100000908598,None,79.41435199999978,79.41435199999978,79.41435199999978,79.41435199999978,79.41435199999978,79.41435199999978,79.41435199999978,79.41435199999978,79.41435199999978,79.41435199999978,,002,P010,2025_Feb_01_1506,ConditionRich,2021.2.3,59.96997902810934,
48.0,51.75,10,0.75,Stimuli/P010/sun_bdkttewvyfdarikm.jpg,0,0,0.0,0,23,23,23,,,,,,,,,,,,,48.02382899999793,0.023828999997931533,None,79.66456099999778,79.66456099999778,79.66456099999778,79.66456099999778,79.66456099999778,79.66456099999778,79.66456099999778,79.66456099999778,79.66456099999778,79.66456099999778,,002,P010,2025_Feb_01_1506,ConditionRich,2021.2.3,59.96997902810934,
51.75,52.0,41,0.0,Stimuli/Blank.png,0,0,0.0,0,24,24,24,,,,,,,,,,,,,51.76146410000001,0.011464100000011967,None,83.40120680000109,83.40120680000109,83.40120680000109,83.40120680000109,83.40120680000109,83.40120680000109,83.40120680000109,83.40120680000109,83.40120680000109,83.40120680000109,,002,P010,2025_Feb_01_1506,ConditionRich,2021.2.3,59.96997902810934,
52.0,55.75,21,0.75,Stimuli/P010/things_boy_05s.jpg,1,0,0.75,0,25,25,25,,,,,,,,,,,,,52.011346200000844,0.011346200000843965,1,83.65142650000053,83.65142650000053,83.65142650000053,83.65142650000053,83.65142650000053,83.65142650000053,83.65142650000053,84.38542139999845,83.65142650000053,83.65142650000053,0.404940100001113,002,P010,2025_Feb_01_1506,ConditionRich,2021.2.3,59.96997902810934,
55.75,56.0,41,0.0,Stimuli/Blank.png,0,0,0.0,0,26,26,26,,,,,,,,,,,,,55.76532550000047,0.015325500000471948,None,87.40475660000084,87.40475660000084,87.40475660000084,87.40475660000084,87.40475660000084,87.40475660000084,87.40475660000084,87.40475660000084,87.40475660000084,87.40475660000084,,002,P010,2025_Feb_01_1506,ConditionRich,2021.2.3,59.96997902810934,
56.0,59.75,18,0.75,Stimuli/P010/sun_bwjdahsxcqepqqbm.jpg,0,0,0.0,0,27,27,27,,,,,,,,,,,,,56.01488199999949,0.014881999999488471,None,87.65496119999807,87.65496119999807,87.65496119999807,87.65496119999807,87.65496119999807,87.65496119999807,87.65496119999807,87.65496119999807,87.65496119999807,87.65496119999807,,002,P010,2025_Feb_01_1506,ConditionRich,2021.2.3,59.96997902810934,
59.75,60.0,41,0.0,Stimuli/Blank.png,0,0,0.0,0,28,28,28,,,,,,,,,,,,,59.75206559999788,0.0020655999978771433,None,91.39162329999817,91.39162329999817,91.39162329999817,91.39162329999817,91.39162329999817,91.39162329999817,91.39162329999817,91.39162329999817,91.39162329999817,91.39162329999817,,002,P010,2025_Feb_01_1506,ConditionRich,2021.2.3,59.96997902810934,
60.0,63.75,8,0.75,Stimuli/P010/sun_batcnoizlkeiqdtx.jpg,0,0,0.0,0,29,29,29,,,,,,,,,,,,,60.00153259999934,0.0015325999993365258,None,91.64183179999964,91.64183179999964,91.64183179999964,91.64183179999964,91.64183179999964,91.64183179999964,91.64183179999964,91.64183179999964,91.64183179999964,91.64183179999964,,002,P010,2025_Feb_01_1506,ConditionRich,2021.2.3,59.96997902810934,
63.75,64.0,41,0.0,Stimuli/Blank.png,0,0,0.0,0,30,30,30,,,,,,,,,,,,,63.75436079999781,0.004360799997812137,None,95.39514889999919,95.39514889999919,95.39514889999919,95.39514889999919,95.39514889999919,95.39514889999919,95.39514889999919,95.39514889999919,95.39514889999919,95.39514889999919,,002,P010,2025_Feb_01_1506,ConditionRich,2021.2.3,59.96997902810934,
64.0,67.75,28,0.75,Stimuli/P010/things_face_05s.jpg,0,0,0.0,0,31,31,31,,,,,,,,,,,,,64.00516040000002,0.0051604000000224914,None,95.64537279999786,95.64537279999786,95.64537279999786,95.64537279999786,95.64537279999786,95.64537279999786,95.64537279999786,95.64537279999786,95.64537279999786,95.64537279999786,,002,P010,2025_Feb_01_1506,ConditionRich,2021.2.3,59.96997902810934,
67.75,68.0,41,0.0,Stimuli/Blank.png,0,0,0.0,0,32,32,32,,,,,,,,,,,,,67.7612369999988,0.011236999998800457,None,99.41538379999838,99.41538379999838,99.41538379999838,99.41538379999838,99.41538379999838,99.41538379999838,99.41538379999838,99.41538379999838,99.41538379999838,99.41538379999838,,002,P010,2025_Feb_01_1506,ConditionRich,2021.2.3,59.96997902810934,
68.0,71.75,9,0.75,Stimuli/P010/sun_bdjkvwqqqycuixtc.jpg,0,0,0.0,0,33,33,33,,,,,,,,,,,,,68.02479669999957,0.024796699999569682,None,99.66559749999942,99.66559749999942,99.66559749999942,99.66559749999942,99.66559749999942,99.66559749999942,99.66559749999942,99.66559749999942,99.66559749999942,99.66559749999942,,002,P010,2025_Feb_01_1506,ConditionRich,2021.2.3,59.96997902810934,
71.75,72.0,41,0.0,Stimuli/Blank.png,0,0,0.0,0,34,34,34,,,,,,,,,,,,,71.76141279999865,0.01141279999865219,None,103.40223419999893,103.40223419999893,103.40223419999893,103.40223419999893,103.40223419999893,103.40223419999893,103.40223419999893,103.40223419999893,103.40223419999893,103.40223419999893,,002,P010,2025_Feb_01_1506,ConditionRich,2021.2.3,59.96997902810934,
72.0,75.75,20,0.75,Stimuli/P010/sun_ddsiwinthvyejghq.jpg,0,0,0.0,0,35,35,35,,,,,,,,,,,,,72.01166759999978,0.011667599999782396,None,103.66915560000052,103.66915560000052,103.66915560000052,103.66915560000052,103.66915560000052,103.66915560000052,103.66915560000052,103.66915560000052,103.66915560000052,103.66915560000052,,002,P010,2025_Feb_01_1506,ConditionRich,2021.2.3,59.96997902810934,
75.75,76.0,41,0.0,Stimuli/Blank.png,0,0,0.0,0,36,36,36,,,,,,,,,,,,,75.78168799999912,0.03168799999912153,None,107.42246019999948,107.42246019999948,107.42246019999948,107.42246019999948,107.42246019999948,107.42246019999948,107.42246019999948,107.42246019999948,107.42246019999948,107.42246019999948,,002,P010,2025_Feb_01_1506,ConditionRich,2021.2.3,59.96997902810934,
76.0,79.75,26,0.75,Stimuli/P010/things_cookie_sheet_05s.jpg,1,2,2.75,0,37,37,37,,,,,,,,,,,,,76.01622309999948,0.016223099999479018,1,107.65600669999912,107.65600669999912,107.65600669999912,107.65600669999912,107.65600669999912,107.65600669999912,109.64105589999963,110.3917963999993,107.65600669999912,107.65600669999912,2.582528299997648,002,P010,2025_Feb_01_1506,ConditionRich,2021.2.3,59.96997902810934,
79.75,80.0,41,0.0,Stimuli/Blank.png,0,0,0.0,0,38,38,38,,,,,,,,,,,,,79.75328620000073,0.0032862000007298775,None,111.3926509999983,111.3926509999983,111.3926509999983,111.3926509999983,111.3926509999983,111.3926509999983,111.3926509999983,111.3926509999983,111.3926509999983,111.3926509999983,,002,P010,2025_Feb_01_1506,ConditionRich,2021.2.3,59.96997902810934,
80.0,83.75,15,0.75,Stimuli/P010/sun_boryivbddrnarrbo.jpg,0,0,0.0,0,39,39,39,,,,,,,,,,,,,80.00213829999848,0.0021382999984780326,None,111.6595367000009,111.6595367000009,111.6595367000009,111.6595367000009,111.6595367000009,111.6595367000009,111.6595367000009,111.6595367000009,111.6595367000009,111.6595367000009,,002,P010,2025_Feb_01_1506,ConditionRich,2021.2.3,59.96997902810934,
83.75,84.0,41,0.0,Stimuli/Blank.png,0,0,0.0,0,40,40,40,,,,,,,,,,,,,83.77475699999923,0.024756999999226537,None,115.42955849999998,115.42955849999998,115.42955849999998,115.42955849999998,115.42955849999998,115.42955849999998,115.42955849999998,115.42955849999998,115.42955849999998,115.42955849999998,,002,P010,2025_Feb_01_1506,ConditionRich,2021.2.3,59.96997902810934,
84.0,100.0,0,0.0,Stimuli/Blank.png,1,4,4.75,0,41,41,41,,,,,,,,,,,,,84.02235160000055,0.022351600000547478,1,115.6630817999976,115.6630817999976,115.6630817999976,115.6630817999976,115.6630817999976,115.6630817999976,119.64994110000043,120.40062159999798,115.6630817999976,115.6630817999976,4.642420800002583,002,P010,2025_Feb_01_1506,ConditionRich,2021.2.3,59.96997902810934,
100.0,103.75,37,0.75,Stimuli/P010/things_pug_05s.jpg,0,0,0.0,0,42,42,42,,,,,,,,,,,,,100.00346549999813,0.0034654999981285073,None,131.6438918999993,131.6438918999993,131.6438918999993,131.6438918999993,131.6438918999993,131.6438918999993,131.6438918999993,131.6438918999993,131.6438918999993,131.6438918999993,,002,P010,2025_Feb_01_1506,ConditionRich,2021.2.3,59.96997902810934,
103.75,104.0,41,0.0,Stimuli/Blank.png,0,0,0.0,0,43,43,43,,,,,,,,,,,,,103.75715670000136,0.00715670000136015,None,135.39726449999944,135.39726449999944,135.39726449999944,135.39726449999944,135.39726449999944,135.39726449999944,135.39726449999944,135.39726449999944,135.39726449999944,135.39726449999944,,002,P010,2025_Feb_01_1506,ConditionRich,2021.2.3,59.96997902810934,
104.0,107.75,36,0.75,Stimuli/P010/things_pelican_05s.jpg,0,0,0.0,0,44,44,44,,,,,,,,,,,,,104.00695009999981,0.0069500999998126645,None,135.66413000000102,135.66413000000102,135.66413000000102,135.66413000000102,135.66413000000102,135.66413000000102,135.66413000000102,135.66413000000102,135.66413000000102,135.66413000000102,,002,P010,2025_Feb_01_1506,ConditionRich,2021.2.3,59.96997902810934,
107.75,108.0,41,0.0,Stimuli/Blank.png,0,0,0.0,0,45,45,45,,,,,,,,,,,,,107.77682350000032,0.026823500000318745,None,139.41743470000074,139.41743470000074,139.41743470000074,139.41743470000074,139.41743470000074,139.41743470000074,139.41743470000074,139.41743470000074,139.41743470000074,139.41743470000074,,002,P010,2025_Feb_01_1506,ConditionRich,2021.2.3,59.96997902810934,
108.0,111.75,11,0.75,Stimuli/P010/sun_bfyvfqiimvdaxlqn.jpg,1,3,3.75,0,46,46,46,,,,,,,,,,,,,108.01154889999816,0.011548899998160778,1,139.65097650000098,139.65097650000098,139.65097650000098,139.65097650000098,139.65097650000098,139.65097650000098,142.63699149999957,143.38764889999948,139.65097650000098,139.65097650000098,3.5895482000014454,002,P010,2025_Feb_01_1506,ConditionRich,2021.2.3,59.96997902810934,
111.75,112.0,41,0.0,Stimuli/Blank.png,0,0,0.0,0,47,47,47,,,,,,,,,,,,,111.76499669999976,0.014996699999755947,None,143.40429749999748,143.40429749999748,143.40429749999748,143.40429749999748,143.40429749999748,143.40429749999748,143.40429749999748,143.40429749999748,143.40429749999748,143.40429749999748,,002,P010,2025_Feb_01_1506,ConditionRich,2021.2.3,59.96997902810934,
112.0,115.75,29,0.75,Stimuli/P010/things_fingerprint_05s.jpg,0,0,0.0,0,48,48,48,,,,,,,,,,,,,112.01428469999883,0.01428469999882509,None,143.6545182000009,143.6545182000009,143.6545182000009,143.6545182000009,143.6545182000009,143.6545182000009,143.6545182000009,143.6545182000009,143.6545182000009,143.6545182000009,,002,P010,2025_Feb_01_1506,ConditionRich,2021.2.3,59.96997902810934,
115.75,116.0,41,0.0,Stimuli/Blank.png,0,0,0.0,0,49,49,49,,,,,,,,,,,,,115.75046369999836,0.000463699998363154,None,147.39115649999803,147.39115649999803,147.39115649999803,147.39115649999803,147.39115649999803,147.39115649999803,147.39115649999803,147.39115649999803,147.39115649999803,147.39115649999803,,002,P010,2025_Feb_01_1506,ConditionRich,2021.2.3,59.96997902810934,
116.0,119.75,6,0.75,Stimuli/P010/sun_amkrwcyvinmsylsz.jpg,0,0,0.0,0,50,50,50,,,,,,,,,,,,,116.00087809999968,0.0008780999996815808,None,147.64133619999848,147.64133619999848,147.64133619999848,147.64133619999848,147.64133619999848,147.64133619999848,147.64133619999848,147.64133619999848,147.64133619999848,147.64133619999848,,002,P010,2025_Feb_01_1506,ConditionRich,2021.2.3,59.96997902810934,
119.75,120.0,41,0.0,Stimuli/Blank.png,0,0,0.0,0,51,51,51,,,,,,,,,,,,,119.75397080000039,0.003970800000388408,None,151.39470489999803,151.39470489999803,151.39470489999803,151.39470489999803,151.39470489999803,151.39470489999803,151.39470489999803,151.39470489999803,151.39470489999803,151.39470489999803,,002,P010,2025_Feb_01_1506,ConditionRich,2021.2.3,59.96997902810934,
120.0,123.75,19,0.75,Stimuli/P010/sun_bwvfnogmotsvhofs.jpg,0,0,0.0,0,52,52,52,,,,,,,,,,,,,120.00475789999837,0.0047578999983670656,None,151.6449227999983,151.6449227999983,151.6449227999983,151.6449227999983,151.6449227999983,151.6449227999983,151.6449227999983,151.6449227999983,151.6449227999983,151.6449227999983,,002,P010,2025_Feb_01_1506,ConditionRich,2021.2.3,59.96997902810934,
123.75,124.0,41,0.0,Stimuli/Blank.png,0,0,0.0,0,53,53,53,,,,,,,,,,,,,123.76019760000054,0.010197600000537932,None,155.41492769999968,155.41492769999968,155.41492769999968,155.41492769999968,155.41492769999968,155.41492769999968,155.41492769999968,155.41492769999968,155.41492769999968,155.41492769999968,,002,P010,2025_Feb_01_1506,ConditionRich,2021.2.3,59.96997902810934,
124.0,127.75,22,0.75,Stimuli/P010/things_butterfly_05s.jpg,0,0,0.0,0,54,54,54,,,,,,,,,,,,,124.02510099999927,0.025100999999267515,None,155.66514240000106,155.66514240000106,155.66514240000106,155.66514240000106,155.66514240000106,155.66514240000106,155.66514240000106,155.66514240000106,155.66514240000106,155.66514240000106,,002,P010,2025_Feb_01_1506,ConditionRich,2021.2.3,59.96997902810934,
127.75,128.0,41,0.0,Stimuli/Blank.png,0,0,0.0,0,55,55,55,,,,,,,,,,,,,127.7615842999985,0.011584299998503411,None,159.40178309999828,159.40178309999828,159.40178309999828,159.40178309999828,159.40178309999828,159.40178309999828,159.40178309999828,159.40178309999828,159.40178309999828,159.40178309999828,,002,P010,2025_Feb_01_1506,ConditionRich,2021.2.3,59.96997902810934,
128.0,131.75,38,0.75,Stimuli/P010/things_roadsweeper_05s.jpg,1,2,2.75,0,56,56,56,,,,,,,,,,,,,128.012053800001,0.01205380000101286,1,159.65201199999865,159.65201199999865,159.65201199999865,159.65201199999865,159.65201199999865,159.65201199999865,161.63706339999771,162.3877571999983,159.65201199999865,159.65201199999865,2.358460399998876,002,P010,2025_Feb_01_1506,ConditionRich,2021.2.3,59.96997902810934,
131.75,132.0,41,0.0,Stimuli/Blank.png,0,0,0.0,0,57,57,57,,,,,,,,,,,,,131.76556770000025,0.015567700000246987,None,163.40531859999828,163.40531859999828,163.40531859999828,163.40531859999828,163.40531859999828,163.40531859999828,163.40531859999828,163.40531859999828,163.40531859999828,163.40531859999828,,002,P010,2025_Feb_01_1506,ConditionRich,2021.2.3,59.96997902810934,
132.0,135.75,25,0.75,Stimuli/P010/things_clothespin_05s.jpg,0,0,0.0,0,58,58,58,,,,,,,,,,,,,131.99992980000025,-7.019999975454994e-05,None,163.6555096000011,163.6555096000011,163.6555096000011,163.6555096000011,163.6555096000011,163.6555096000011,163.6555096000011,163.6555096000011,163.6555096000011,163.6555096000011,,002,P010,2025_Feb_01_1506,ConditionRich,2021.2.3,59.96997902810934,
135.75,136.0,41,0.0,Stimuli/Blank.png,0,0,0.0,0,59,59,59,,,,,,,,,,,,,135.7685980999995,0.018598099999508122,None,167.40892489999896,167.40892489999896,167.40892489999896,167.40892489999896,167.40892489999896,167.40892489999896,167.40892489999896,167.40892489999896,167.40892489999896,167.40892489999896,,002,P010,2025_Feb_01_1506,ConditionRich,2021.2.3,59.96997902810934,
136.0,139.75,13,0.75,Stimuli/P010/sun_bjimvgwadfodioes.jpg,0,0,0.0,0,60,60,60,,,,,,,,,,,,,136.0016977999985,0.0016977999985101633,None,167.64240570000038,167.64240570000038,167.64240570000038,167.64240570000038,167.64240570000038,167.64240570000038,167.64240570000038,167.64240570000038,167.64240570000038,167.64240570000038,,002,P010,2025_Feb_01_1506,ConditionRich,2021.2.3,59.96997902810934,
139.75,140.0,41,0.0,Stimuli/Blank.png,0,0,0.0,0,61,61,61,,,,,,,,,,,,,139.7557717999989,0.005771799998910865,None,171.39573480000035,171.39573480000035,171.39573480000035,171.39573480000035,171.39573480000035,171.39573480000035,171.39573480000035,171.39573480000035,171.39573480000035,171.39573480000035,,002,P010,2025_Feb_01_1506,ConditionRich,2021.2.3,59.96997902810934,
140.0,143.75,5,0.75,Stimuli/P010/sun_akqvdmuauoxeafrj.jpg,0,0,0.0,0,62,62,62,,,,,,,,,,,,,140.00588309999875,0.005883099998754915,None,171.64595189999818,171.64595189999818,171.64595189999818,171.64595189999818,171.64595189999818,171.64595189999818,171.64595189999818,171.64595189999818,171.64595189999818,171.64595189999818,,002,P010,2025_Feb_01_1506,ConditionRich,2021.2.3,59.96997902810934,
143.75,144.0,41,0.0,Stimuli/Blank.png,0,0,0.0,0,63,63,63,,,,,,,,,,,,,143.76002959999823,0.010029599998233607,None,175.39928539999892,175.39928539999892,175.39928539999892,175.39928539999892,175.39928539999892,175.39928539999892,175.39928539999892,175.39928539999892,175.39928539999892,175.39928539999892,,002,P010,2025_Feb_01_1506,ConditionRich,2021.2.3,59.96997902810934,
144.0,147.75,1,0.75,Stimuli/P010/sun_abqdlumenyzawlme.jpg,0,0,0.0,0,64,64,64,,,,,,,,,,,,,144.00876849999986,0.008768499999860069,None,175.64950849999877,175.64950849999877,175.64950849999877,175.64950849999877,175.64950849999877,175.64950849999877,175.64950849999877,175.64950849999877,175.64950849999877,175.64950849999877,,002,P010,2025_Feb_01_1506,ConditionRich,2021.2.3,59.96997902810934,
147.75,148.0,41,0.0,Stimuli/Blank.png,0,0,0.0,0,65,65,65,,,,,,,,,,,,,147.76214519999849,0.012145199998485623,None,179.40287469999748,179.40287469999748,179.40287469999748,179.40287469999748,179.40287469999748,179.40287469999748,179.40287469999748,179.40287469999748,179.40287469999748,179.40287469999748,,002,P010,2025_Feb_01_1506,ConditionRich,2021.2.3,59.96997902810934,
148.0,151.75,33,0.75,Stimuli/P010/things_lizard_05n.jpg,0,0,0.0,0,66,66,66,,,,,,,,,,,,,148.01230209999994,0.012302099999942584,None,179.6697252999984,179.6697252999984,179.6697252999984,179.6697252999984,179.6697252999984,179.6697252999984,179.6697252999984,179.6697252999984,179.6697252999984,179.6697252999984,,002,P010,2025_Feb_01_1506,ConditionRich,2021.2.3,59.96997902810934,
151.75,152.0,41,0.0,Stimuli/Blank.png,0,0,0.0,0,67,67,67,,,,,,,,,,,,,151.78226359999826,0.03226359999825945,None,183.4231292000004,183.4231292000004,183.4231292000004,183.4231292000004,183.4231292000004,183.4231292000004,183.4231292000004,183.4231292000004,183.4231292000004,183.4231292000004,,002,P010,2025_Feb_01_1506,ConditionRich,2021.2.3,59.96997902810934,
152.0,155.75,40,0.75,Stimuli/P010/things_woman_05s.jpg,0,0,0.0,0,68,68,68,,,,,,,,,,,,,151.9995057999986,-0.000494200001412537,None,183.63985519999915,183.63985519999915,183.63985519999915,183.63985519999915,183.63985519999915,183.63985519999915,183.63985519999915,183.63985519999915,183.63985519999915,183.63985519999915,,002,P010,2025_Feb_01_1506,ConditionRich,2021.2.3,59.96997902810934,
155.75,156.0,41,0.0,Stimuli/Blank.png,0,0,0.0,0,69,69,69,,,,,,,,,,,,,155.75321899999835,0.003218999998352956,None,187.39322529999845,187.39322529999845,187.39322529999845,187.39322529999845,187.39322529999845,187.39322529999845,187.39322529999845,187.39322529999845,187.39322529999845,187.39322529999845,,002,P010,2025_Feb_01_1506,ConditionRich,2021.2.3,59.96997902810934,
156.0,159.75,17,0.75,Stimuli/P010/sun_brkrfjpyfglmigkk.jpg,0,0,0.0,0,70,70,70,,,,,,,,,,,,,156.00268099999812,0.0026809999981196597,None,187.66011810000055,187.66011810000055,187.66011810000055,187.66011810000055,187.66011810000055,187.66011810000055,187.66011810000055,187.66011810000055,187.66011810000055,187.66011810000055,,002,P010,2025_Feb_01_1506,ConditionRich,2021.2.3,59.96997902810934,
159.75,160.0,41,0.0,Stimuli/Blank.png,0,0,0.0,0,71,71,71,,,,,,,,,,,,,159.77425579999908,0.024255799999082228,None,191.41346189999967,191.41346189999967,191.41346189999967,191.41346189999967,191.41346189999967,191.41346189999967,191.41346189999967,191.41346189999967,191.41346189999967,191.41346189999967,,002,P010,2025_Feb_01_1506,ConditionRich,2021.2.3,59.96997902810934,
160.0,163.75,4,0.75,Stimuli/P010/sun_afkzdukwewwzqtmr.jpg,1,3,3.75,0,72,72,72,,,,,,,,,,,,,160.0068769999998,0.006876999999803957,1,191.6469737999978,191.6469737999978,191.6469737999978,191.6469737999978,191.6469737999978,191.6469737999978,194.63299299999926,195.38364459999866,191.6469737999978,191.6469737999978,3.445505499999854,002,P010,2025_Feb_01_1506,ConditionRich,2021.2.3,59.96997902810934,
163.75,164.0,41,0.0,Stimuli/Blank.png,0,0,0.0,0,73,73,73,,,,,,,,,,,,,163.76041759999862,0.010417599998618243,None,195.40030579999802,195.40030579999802,195.40030579999802,195.40030579999802,195.40030579999802,195.40030579999802,195.40030579999802,195.40030579999802,195.40030579999802,195.40030579999802,,002,P010,2025_Feb_01_1506,ConditionRich,2021.2.3,59.96997902810934,
164.0,167.75,23,0.75,Stimuli/P010/things_charger_05s.jpg,0,0,0.0,0,74,74,74,,,,,,,,,,,,,164.0098794000005,0.009879400000500027,None,195.65056990000085,195.65056990000085,195.65056990000085,195.65056990000085,195.65056990000085,195.65056990000085,195.65056990000085,195.65056990000085,195.65056990000085,195.65056990000085,,002,P010,2025_Feb_01_1506,ConditionRich,2021.2.3,59.96997902810934,
167.75,168.0,41,0.0,Stimuli/Blank.png,0,0,0.0,0,75,75,75,,,,,,,,,,,,,167.76436159999867,0.014361599998665042,None,199.40384699999777,199.40384699999777,199.40384699999777,199.40384699999777,199.40384699999777,199.40384699999777,199.40384699999777,199.40384699999777,199.40384699999777,199.40384699999777,,002,P010,2025_Feb_01_1506,ConditionRich,2021.2.3,59.96997902810934,
168.0,171.75,32,0.75,Stimuli/P010/things_hawk_05s.jpg,0,0,0.0,0,76,76,76,,,,,,,,,,,,,168.0149038999989,0.01490389999889885,None,199.65406549999898,199.65406549999898,199.65406549999898,199.65406549999898,199.65406549999898,199.65406549999898,199.65406549999898,199.65406549999898,199.65406549999898,199.65406549999898,,002,P010,2025_Feb_01_1506,ConditionRich,2021.2.3,59.96997902810934,
171.75,172.0,41,0.0,Stimuli/Blank.png,0,0,0.0,0,77,77,77,,,,,,,,,,,,,171.75226199999815,0.0022619999981543515,None,203.40738969999802,203.40738969999802,203.40738969999802,203.40738969999802,203.40738969999802,203.40738969999802,203.40738969999802,203.40738969999802,203.40738969999802,203.40738969999802,,002,P010,2025_Feb_01_1506,ConditionRich,2021.2.3,59.96997902810934,
172.0,175.75,12,0.75,Stimuli/P010/sun_birmwgkdtrlevcaf.jpg,1,3,3.75,0,78,78,78,,,,,,,,,,,,,172.01687440000023,0.016874400000233436,1,203.67429400000037,203.67429400000037,203.67429400000037,203.67429400000037,203.67429400000037,203.67429400000037,206.64360579999993,207.39427339999747,203.67429400000037,203.67429400000037,3.48019469999781,002,P010,2025_Feb_01_1506,ConditionRich,2021.2.3,59.96997902810934,
175.75,176.0,41,0.0,Stimuli/Blank.png,0,0,0.0,0,79,79,79,,,,,,,,,,,,,175.77093709999826,0.020937099998263875,None,207.41091949999827,207.41091949999827,207.41091949999827,207.41091949999827,207.41091949999827,207.41091949999827,207.41091949999827,207.41091949999827,207.41091949999827,207.41091949999827,,002,P010,2025_Feb_01_1506,ConditionRich,2021.2.3,59.96997902810934,
176.0,179.75,7,0.75,Stimuli/P010/sun_apiogxmvvzfmtsmj.jpg,0,0,0.0,0,80,80,80,,,,,,,,,,,,,176.0044087999995,0.004408799999509938,None,207.66115379999974,207.66115379999974,207.66115379999974,207.66115379999974,207.66115379999974,207.66115379999974,207.66115379999974,207.66115379999974,207.66115379999974,207.66115379999974,,002,P010,2025_Feb_01_1506,ConditionRich,2021.2.3,59.96997902810934,
179.75,180.0,41,0.0,Stimuli/Blank.png,0,0,0.0,0,81,81,81,,,,,,,,,,,,,179.7737147000007,0.023714700000709854,None,211.4145239999998,211.4145239999998,211.4145239999998,211.4145239999998,211.4145239999998,211.4145239999998,211.4145239999998,211.4145239999998,211.4145239999998,211.4145239999998,,002,P010,2025_Feb_01_1506,ConditionRich,2021.2.3,59.96997902810934,
180.0,196.0,0,0.0,Stimuli/Blank.png,1,11,11.75,0,82,82,82,,,,,,,,,,,,,180.00832150000133,0.008321500001329696,1,211.6480191999981,211.6480191999981,211.6480191999981,211.6480191999981,211.6480191999981,211.6480191999981,222.6410623999982,223.39176840000073,211.6480191999981,211.6480191999981,11.42452559999947,002,P010,2025_Feb_01_1506,ConditionRich,2021.2.3,59.96997902810934,
196.0,199.75,27,0.75,Stimuli/P010/things_curling_iron_05s.jpg,0,0,0.0,0,83,83,83,,,,,,,,,,,,,196.00568919999932,0.005689199999324046,None,227.64550020000024,227.64550020000024,227.64550020000024,227.64550020000024,227.64550020000024,227.64550020000024,227.64550020000024,227.64550020000024,227.64550020000024,227.64550020000024,,002,P010,2025_Feb_01_1506,ConditionRich,2021.2.3,59.96997902810934,
199.75,200.0,41,0.0,Stimuli/Blank.png,0,0,0.0,0,84,84,84,,,,,,,,,,,,,199.7602869000002,0.010286900000210153,None,231.41550020000068,231.41550020000068,231.41550020000068,231.41550020000068,231.41550020000068,231.41550020000068,231.41550020000068,231.41550020000068,231.41550020000068,231.41550020000068,,002,P010,2025_Feb_01_1506,ConditionRich,2021.2.3,59.96997902810934,
200.0,203.75,26,0.75,Stimuli/P010/things_cookie_sheet_05s.jpg,0,0,0.0,0,85,85,85,,,,,,,,,,,,,200.02575969999816,0.025759699998161523,None,231.66572649999944,231.66572649999944,231.66572649999944,231.66572649999944,231.66572649999944,231.66572649999944,231.66572649999944,231.66572649999944,231.66572649999944,231.66572649999944,,002,P010,2025_Feb_01_1506,ConditionRich,2021.2.3,59.96997902810934,
203.75,204.0,41,0.0,Stimuli/Blank.png,0,0,0.0,0,86,86,86,,,,,,,,,,,,,203.76237820000097,0.012378200000966899,None,235.40235449999818,235.40235449999818,235.40235449999818,235.40235449999818,235.40235449999818,235.40235449999818,235.40235449999818,235.40235449999818,235.40235449999818,235.40235449999818,,002,P010,2025_Feb_01_1506,ConditionRich,2021.2.3,59.96997902810934,
204.0,207.75,39,0.75,Stimuli/P010/things_tiara_05s.jpg,0,0,0.0,0,87,87,87,,,,,,,,,,,,,204.01182189999963,0.011821899999631569,None,235.65257569999812,235.65257569999812,235.65257569999812,235.65257569999812,235.65257569999812,235.65257569999812,235.65257569999812,235.65257569999812,235.65257569999812,235.65257569999812,,002,P010,2025_Feb_01_1506,ConditionRich,2021.2.3,59.96997902810934,
207.75,208.0,41,0.0,Stimuli/Blank.png,0,0,0.0,0,88,88,88,,,,,,,,,,,,,207.7656347000011,0.01563470000110101,None,239.4058984000003,239.4058984000003,239.4058984000003,239.4058984000003,239.4058984000003,239.4058984000003,239.4058984000003,239.4058984000003,239.4058984000003,239.4058984000003,,002,P010,2025_Feb_01_1506,ConditionRich,2021.2.3,59.96997902810934,
208.0,211.75,22,0.75,Stimuli/P010/things_butterfly_05s.jpg,0,0,0.0,0,89,89,89,,,,,,,,,,,,,207.9994286000001,-0.0005713999998988584,None,239.65614709999863,239.65614709999863,239.65614709999863,239.65614709999863,239.65614709999863,239.65614709999863,239.65614709999863,239.65614709999863,239.65614709999863,239.65614709999863,,002,P010,2025_Feb_01_1506,ConditionRich,2021.2.3,59.96997902810934,
211.75,212.0,41,0.0,Stimuli/Blank.png,0,0,0.0,0,90,90,90,,,,,,,,,,,,,211.7688218000003,0.018821800000296207,None,243.40944279999894,243.40944279999894,243.40944279999894,243.40944279999894,243.40944279999894,243.40944279999894,243.40944279999894,243.40944279999894,243.40944279999894,243.40944279999894,,002,P010,2025_Feb_01_1506,ConditionRich,2021.2.3,59.96997902810934,
212.0,215.75,4,0.75,Stimuli/P010/sun_afkzdukwewwzqtmr.jpg,0,0,0.0,0,91,91,91,,,,,,,,,,,,,212.00223750000077,0.002237500000774162,None,243.64298229999986,243.64298229999986,243.64298229999986,243.64298229999986,243.64298229999986,243.64298229999986,243.64298229999986,243.64298229999986,243.64298229999986,243.64298229999986,,002,P010,2025_Feb_01_1506,ConditionRich,2021.2.3,59.96997902810934,
215.75,216.0,41,0.0,Stimuli/Blank.png,0,0,0.0,0,92,92,92,,,,,,,,,,,,,215.75633749999906,0.006337499999062857,None,247.39630679999755,247.39630679999755,247.39630679999755,247.39630679999755,247.39630679999755,247.39630679999755,247.39630679999755,247.39630679999755,247.39630679999755,247.39630679999755,,002,P010,2025_Feb_01_1506,ConditionRich,2021.2.3,59.96997902810934,
216.0,219.75,13,0.75,Stimuli/P010/sun_bjimvgwadfodioes.jpg,0,0,0.0,0,93,93,93,,,,,,,,,,,,,216.00642069999958,0.006420699999580393,None,247.6465231000002,247.6465231000002,247.6465231000002,247.6465231000002,247.6465231000002,247.6465231000002,247.6465231000002,247.6465231000002,247.6465231000002,247.6465231000002,,002,P010,2025_Feb_01_1506,ConditionRich,2021.2.3,59.96997902810934,
219.75,220.0,41,0.0,Stimuli/Blank.png,0,0,0.0,0,94,94,94,,,,,,,,,,,,,219.75980939999863,0.009809399998630397,None,251.39985510000042,251.39985510000042,251.39985510000042,251.39985510000042,251.39985510000042,251.39985510000042,251.39985510000042,251.39985510000042,251.39985510000042,251.39985510000042,,002,P010,2025_Feb_01_1506,ConditionRich,2021.2.3,59.96997902810934,
220.0,223.75,36,0.75,Stimuli/P010/things_pelican_05s.jpg,0,0,0.0,0,95,95,95,,,,,,,,,,,,,220.0095360999985,0.009536099998513237,None,251.65059420000034,251.65059420000034,251.65059420000034,251.65059420000034,251.65059420000034,251.65059420000034,251.65059420000034,251.65059420000034,251.65059420000034,251.65059420000034,,002,P010,2025_Feb_01_1506,ConditionRich,2021.2.3,59.96997902810934,
223.75,224.0,41,0.0,Stimuli/Blank.png,0,0,0.0,0,96,96,96,,,,,,,,,,,,,223.76527290000013,0.015272900000127265,None,255.42007190000004,255.42007190000004,255.42007190000004,255.42007190000004,255.42007190000004,255.42007190000004,255.42007190000004,255.42007190000004,255.42007190000004,255.42007190000004,,002,P010,2025_Feb_01_1506,ConditionRich,2021.2.3,59.96997902810934,
224.0,227.75,10,0.75,Stimuli/P010/sun_bdkttewvyfdarikm.jpg,1,3,3.75,0,97,97,97,,,,,,,,,,,,,224.03079660000003,0.030796600000030594,1,255.68695989999833,255.68695989999833,255.68695989999833,255.68695989999833,255.68695989999833,255.68695989999833,258.6562608999993,None,255.68695989999833,255.68695989999833,3.461590300001262,002,P010,2025_Feb_01_1506,ConditionRich,2021.2.3,59.96997902810934,
227.75,228.0,41,0.0,Stimuli/Blank.png,0,0,0.0,0,98,98,98,,,,,,,,,,,,,227.7669750999994,0.01697509999939939,None,259.40699010000026,259.40699010000026,259.40699010000026,259.40699010000026,259.40699010000026,259.40699010000026,259.40699010000026,259.40699010000026,259.40699010000026,259.40699010000026,,002,P010,2025_Feb_01_1506,ConditionRich,2021.2.3,59.96997902810934,
228.0,231.75,21,0.75,Stimuli/P010/things_boy_05s.jpg,1,2,2.75,0,99,99,99,,,,,,,,,,,,,227.99980399999913,-0.00019600000086938962,1,259.64046880000024,259.64046880000024,259.64046880000024,259.64046880000024,259.64046880000024,259.64046880000024,261.6255530999988,262.37620909999896,259.64046880000024,259.64046880000024,2.5110969000015757,002,P010,2025_Feb_01_1506,ConditionRich,2021.2.3,59.96997902810934,
231.75,232.0,41,0.0,Stimuli/Blank.png,0,0,0.0,0,100,100,100,,,,,,,,,,,,,231.7553416999981,0.005341699998098193,None,263.4104907000001,263.4104907000001,263.4104907000001,263.4104907000001,263.4104907000001,263.4104907000001,263.4104907000001,263.4104907000001,263.4104907000001,263.4104907000001,,002,P010,2025_Feb_01_1506,ConditionRich,2021.2.3,59.96997902810934,
232.0,235.75,18,0.75,Stimuli/P010/sun_bwjdahsxcqepqqbm.jpg,1,3,3.75,0,101,101,101,,,,,,,,,,,,,232.02061640000102,0.02061640000101761,1,263.67738309999913,263.67738309999913,263.67738309999913,263.67738309999913,263.67738309999913,263.67738309999913,266.64663400000063,267.3973611000001,263.67738309999913,263.67738309999913,3.6331705000011425,002,P010,2025_Feb_01_1506,ConditionRich,2021.2.3,59.96997902810934,
235.75,236.0,41,0.0,Stimuli/Blank.png,0,0,0.0,0,102,102,102,,,,,,,,,,,,,235.77641210000002,0.026412100000015926,None,267.4307043000008,267.4307043000008,267.4307043000008,267.4307043000008,267.4307043000008,267.4307043000008,267.4307043000008,267.4307043000008,267.4307043000008,267.4307043000008,,002,P010,2025_Feb_01_1506,ConditionRich,2021.2.3,59.96997902810934,
236.0,239.75,17,0.75,Stimuli/P010/sun_brkrfjpyfglmigkk.jpg,0,0,0.0,0,103,103,103,,,,,,,,,,,,,236.02432659999977,0.024326599999767495,None,267.68090669999947,267.68090669999947,267.68090669999947,267.68090669999947,267.68090669999947,267.68090669999947,267.68090669999947,267.68090669999947,267.68090669999947,267.68090669999947,,002,P010,2025_Feb_01_1506,ConditionRich,2021.2.3,59.96997902810934,
239.75,240.0,41,0.0,Stimuli/Blank.png,0,0,0.0,0,104,104,104,,,,,,,,,,,,,239.7770343000011,0.027034300001105294,None,271.4175482999999,271.4175482999999,271.4175482999999,271.4175482999999,271.4175482999999,271.4175482999999,271.4175482999999,271.4175482999999,271.4175482999999,271.4175482999999,,002,P010,2025_Feb_01_1506,ConditionRich,2021.2.3,59.96997902810934,
240.0,243.75,34,0.75,Stimuli/P010/things_man_05s.jpg,0,0,0.0,0,105,105,105,,,,,,,,,,,,,240.01069450000068,0.010694500000681728,None,271.65108770000006,271.65108770000006,271.65108770000006,271.65108770000006,271.65108770000006,271.65108770000006,271.65108770000006,271.65108770000006,271.65108770000006,271.65108770000006,,002,P010,2025_Feb_01_1506,ConditionRich,2021.2.3,59.96997902810934,
243.75,244.0,41,0.0,Stimuli/Blank.png,0,0,0.0,0,106,106,106,,,,,,,,,,,,,243.76368269999875,0.013682699998753378,None,275.4045038999975,275.4045038999975,275.4045038999975,275.4045038999975,275.4045038999975,275.4045038999975,275.4045038999975,275.4045038999975,275.4045038999975,275.4045038999975,,002,P010,2025_Feb_01_1506,ConditionRich,2021.2.3,59.96997902810934,
244.0,247.75,30,0.75,Stimuli/P010/things_fire_05s.jpg,1,3,3.75,0,107,107,107,,,,,,,,,,,,,244.01542659999905,0.01542659999904572,None,275.6713170000003,275.6713170000003,275.6713170000003,275.6713170000003,275.6713170000003,275.6713170000003,278.65729210000063,279.3913250000005,275.6713170000003,275.6713170000003,,002,P010,2025_Feb_01_1506,ConditionRich,2021.2.3,59.96997902810934,
247.75,248.0,41,0.0,Stimuli/Blank.png,0,0,0.0,0,108,108,108,,,,,,,,,,,,,247.7698734000005,0.01987340000050608,None,279.42464800000016,279.42464800000016,279.42464800000016,279.42464800000016,279.42464800000016,279.42464800000016,279.42464800000016,279.42464800000016,279.42464800000016,279.42464800000016,,002,P010,2025_Feb_01_1506,ConditionRich,2021.2.3,59.96997902810934,
248.0,251.75,6,0.75,Stimuli/P010/sun_amkrwcyvinmsylsz.jpg,1,2,2.75,0,109,109,109,,,,,,,,,,,,,248.02005110000027,0.020051100000273436,1,279.6748633999996,279.6748633999996,279.6748633999996,279.6748633999996,279.6748633999996,279.6748633999996,281.65994189999765,282.4106151999986,279.6748633999996,279.6748633999996,2.351724500000273,002,P010,2025_Feb_01_1506,ConditionRich,2021.2.3,59.96997902810934,
251.75,252.0,41,0.0,Stimuli/Blank.png,0,0,0.0,0,110,110,110,,,,,,,,,,,,,251.77102169999853,0.021021699998527765,None,283.41149270000096,283.41149270000096,283.41149270000096,283.41149270000096,283.41149270000096,283.41149270000096,283.41149270000096,283.41149270000096,283.41149270000096,283.41149270000096,,002,P010,2025_Feb_01_1506,ConditionRich,2021.2.3,59.96997902810934,
252.0,255.75,16,0.75,Stimuli/P010/sun_bqpyqljaflidcauh.jpg,0,0,0.0,0,111,111,111,,,,,,,,,,,,,252.00466339999912,0.004663399999117246,None,283.64503909999985,283.64503909999985,283.64503909999985,283.64503909999985,283.64503909999985,283.64503909999985,283.64503909999985,283.64503909999985,283.64503909999985,283.64503909999985,,002,P010,2025_Feb_01_1506,ConditionRich,2021.2.3,59.96997902810934,
255.75,256.0,41,0.0,Stimuli/Blank.png,0,0,0.0,0,112,112,112,,,,,,,,,,,,,255.76004710000052,0.010047100000520004,None,287.41504200000054,287.41504200000054,287.41504200000054,287.41504200000054,287.41504200000054,287.41504200000054,287.41504200000054,287.41504200000054,287.41504200000054,287.41504200000054,,002,P010,2025_Feb_01_1506,ConditionRich,2021.2.3,59.96997902810934,
256.0,259.75,5,0.75,Stimuli/P010/sun_akqvdmuauoxeafrj.jpg,0,0,0.0,0,113,113,113,,,,,,,,,,,,,256.0258486999992,0.025848699999187374,None,287.681951999999,287.681951999999,287.681951999999,287.681951999999,287.681951999999,287.681951999999,287.681951999999,287.681951999999,287.681951999999,287.681951999999,,002,P010,2025_Feb_01_1506,ConditionRich,2021.2.3,59.96997902810934,
259.75,260.0,41,0.0,Stimuli/Blank.png,0,0,0.0,0,114,114,114,,,,,,,,,,,,,259.78011649999826,0.030116499998257495,None,291.43524559999787,291.43524559999787,291.43524559999787,291.43524559999787,291.43524559999787,291.43524559999787,291.43524559999787,291.43524559999787,291.43524559999787,291.43524559999787,,002,P010,2025_Feb_01_1506,ConditionRich,2021.2.3,59.96997902810934,
260.0,263.75,11,0.75,Stimuli/P010/sun_bfyvfqiimvdaxlqn.jpg,0,0,0.0,0,115,115,115,,,,,,,,,,,,,260.02915759999814,0.02915759999814327,None,291.68547939999917,291.68547939999917,291.68547939999917,291.68547939999917,291.68547939999917,291.68547939999917,291.68547939999917,291.68547939999917,291.68547939999917,291.68547939999917,,002,P010,2025_Feb_01_1506,ConditionRich,2021.2.3,59.96997902810934,
263.75,264.0,41,0.0,Stimuli/Blank.png,0,0,0.0,0,116,116,116,,,,,,,,,,,,,263.7658029999984,0.015802999998413725,None,295.4054479999977,295.4054479999977,295.4054479999977,295.4054479999977,295.4054479999977,295.4054479999977,295.4054479999977,295.4054479999977,295.4054479999977,295.4054479999977,,002,P010,2025_Feb_01_1506,ConditionRich,2021.2.3,59.96997902810934,
264.0,267.75,32,0.75,Stimuli/P010/things_hawk_05s.jpg,0,0,0.0,0,117,117,117,,,,,,,,,,,,,263.99871540000095,-0.001284599999053171,None,295.63897129999896,295.63897129999896,295.63897129999896,295.63897129999896,295.63897129999896,295.63897129999896,295.63897129999896,295.63897129999896,295.63897129999896,295.63897129999896,,002,P010,2025_Feb_01_1506,ConditionRich,2021.2.3,59.96997902810934,
267.75,268.0,41,0.0,Stimuli/Blank.png,0,0,0.0,0,118,118,118,,,,,,,,,,,,,267.7517857999992,0.0017857999991974793,None,299.3922939999975,299.3922939999975,299.3922939999975,299.3922939999975,299.3922939999975,299.3922939999975,299.3922939999975,299.3922939999975,299.3922939999975,299.3922939999975,,002,P010,2025_Feb_01_1506,ConditionRich,2021.2.3,59.96997902810934,
268.0,271.75,23,0.75,Stimuli/P010/things_charger_05s.jpg,0,0,0.0,0,119,119,119,,,,,,,,,,,,,268.0024083999997,0.002408399999694666,None,299.6424922999977,299.6424922999977,299.6424922999977,299.6424922999977,299.6424922999977,299.6424922999977,299.6424922999977,299.6424922999977,299.6424922999977,299.6424922999977,,002,P010,2025_Feb_01_1506,ConditionRich,2021.2.3,59.96997902810934,
271.75,272.0,41,0.0,Stimuli/Blank.png,0,0,0.0,0,120,120,120,,,,,,,,,,,,,271.7566872999996,0.006687299999612151,None,303.4125402999998,303.4125402999998,303.4125402999998,303.4125402999998,303.4125402999998,303.4125402999998,303.4125402999998,303.4125402999998,303.4125402999998,303.4125402999998,,002,P010,2025_Feb_01_1506,ConditionRich,2021.2.3,59.96997902810934,
272.0,275.75,9,0.75,Stimuli/P010/sun_bdjkvwqqqycuixtc.jpg,0,0,0.0,0,121,121,121,,,,,,,,,,,,,272.02195850000135,0.021958500001346692,None,303.66275379999934,303.66275379999934,303.66275379999934,303.66275379999934,303.66275379999934,303.66275379999934,303.66275379999934,303.66275379999934,303.66275379999934,303.66275379999934,,002,P010,2025_Feb_01_1506,ConditionRich,2021.2.3,59.96997902810934,
275.75,276.0,41,0.0,Stimuli/Blank.png,0,0,0.0,0,122,122,122,,,,,,,,,,,,,275.7595521000003,0.00955210000029183,None,307.39939439999944,307.39939439999944,307.39939439999944,307.39939439999944,307.39939439999944,307.39939439999944,307.39939439999944,307.39939439999944,307.39939439999944,307.39939439999944,,002,P010,2025_Feb_01_1506,ConditionRich,2021.2.3,59.96997902810934,
276.0,292.0,0,0.0,Stimuli/Blank.png,1,13,13.75,0,123,123,123,,,,,,,,,,,,,276.0103116999999,0.01031169999987469,1,307.6663195000001,307.6663195000001,307.6663195000001,307.6663195000001,307.6663195000001,307.6663195000001,320.6444272000008,321.3950877999996,307.6663195000001,307.6663195000001,13.511241600001085,002,P010,2025_Feb_01_1506,ConditionRich,2021.2.3,59.96997902810934,
292.0,295.75,25,0.75,Stimuli/P010/things_clothespin_05s.jpg,0,0,0.0,0,124,124,124,,,,,,,,,,,,,292.02615109999897,0.026151099998969585,None,323.68045829999755,323.68045829999755,323.68045829999755,323.68045829999755,323.68045829999755,323.68045829999755,323.68045829999755,323.68045829999755,323.68045829999755,323.68045829999755,,002,P010,2025_Feb_01_1506,ConditionRich,2021.2.3,59.96997902810934,
295.75,296.0,41,0.0,Stimuli/Blank.png,0,0,0.0,0,125,125,125,,,,,,,,,,,,,295.77713779999976,0.027137799999763956,None,327.41708559999825,327.41708559999825,327.41708559999825,327.41708559999825,327.41708559999825,327.41708559999825,327.41708559999825,327.41708559999825,327.41708559999825,327.41708559999825,,002,P010,2025_Feb_01_1506,ConditionRich,2021.2.3,59.96997902810934,
296.0,299.75,37,0.75,Stimuli/P010/things_pug_05s.jpg,0,0,0.0,0,126,126,126,,,,,,,,,,,,,296.01029180000114,0.010291800001141382,None,327.6506367000002,327.6506367000002,327.6506367000002,327.6506367000002,327.6506367000002,327.6506367000002,327.6506367000002,327.6506367000002,327.6506367000002,327.6506367000002,,002,P010,2025_Feb_01_1506,ConditionRich,2021.2.3,59.96997902810934,
299.75,300.0,41,0.0,Stimuli/Blank.png,0,0,0.0,0,127,127,127,,,,,,,,,,,,,299.76615169999786,0.016151699997863034,None,331.42064839999875,331.42064839999875,331.42064839999875,331.42064839999875,331.42064839999875,331.42064839999875,331.42064839999875,331.42064839999875,331.42064839999875,331.42064839999875,,002,P010,2025_Feb_01_1506,ConditionRich,2021.2.3,59.96997902810934,
300.0,303.75,29,0.75,Stimuli/P010/things_fingerprint_05s.jpg,1,1,1.75,0,128,128,128,,,,,,,,,,,,,300.01430450000043,0.014304500000434928,1,331.6708547999988,331.6708547999988,331.6708547999988,331.6708547999988,331.6708547999988,331.6708547999988,332.638422,333.3890504999981,331.6708547999988,331.6708547999988,1.6168837000004714,002,P010,2025_Feb_01_1506,ConditionRich,2021.2.3,59.96997902810934,
303.75,304.0,41,0.0,Stimuli/Blank.png,0,0,0.0,0,129,129,129,,,,,,,,,,,,,303.7675061000009,0.017506100000900915,None,335.40749199999846,335.40749199999846,335.40749199999846,335.40749199999846,335.40749199999846,335.40749199999846,335.40749199999846,335.40749199999846,335.40749199999846,335.40749199999846,,002,P010,2025_Feb_01_1506,ConditionRich,2021.2.3,59.96997902810934,
304.0,307.75,35,0.75,Stimuli/P010/things_mushroom_05n.jpg,0,0,0.0,0,130,130,130,,,,,,,,,,,,,304.0010460000012,0.0010460000012244564,None,335.6410264999977,335.6410264999977,335.6410264999977,335.6410264999977,335.6410264999977,335.6410264999977,335.6410264999977,335.6410264999977,335.6410264999977,335.6410264999977,,002,P010,2025_Feb_01_1506,ConditionRich,2021.2.3,59.96997902810934,
307.75,308.0,41,0.0,Stimuli/Blank.png,0,0,0.0,0,131,131,131,,,,,,,,,,,,,307.75658979999935,0.006589799999346724,None,339.41103889999795,339.41103889999795,339.41103889999795,339.41103889999795,339.41103889999795,339.41103889999795,339.41103889999795,339.41103889999795,339.41103889999795,339.41103889999795,,002,P010,2025_Feb_01_1506,ConditionRich,2021.2.3,59.96997902810934,
308.0,311.75,8,0.75,Stimuli/P010/sun_batcnoizlkeiqdtx.jpg,0,0,0.0,0,132,132,132,,,,,,,,,,,,,308.0216173000008,0.021617300000798423,None,339.6779432000003,339.6779432000003,339.6779432000003,339.6779432000003,339.6779432000003,339.6779432000003,339.6779432000003,339.6779432000003,339.6779432000003,339.6779432000003,,002,P010,2025_Feb_01_1506,ConditionRich,2021.2.3,59.96997902810934,
311.75,312.0,41,0.0,Stimuli/Blank.png,0,0,0.0,0,133,133,133,,,,,,,,,,,,,311.77449590000106,0.024495900001056725,None,343.41457900000023,343.41457900000023,343.41457900000023,343.41457900000023,343.41457900000023,343.41457900000023,343.41457900000023,343.41457900000023,343.41457900000023,343.41457900000023,,002,P010,2025_Feb_01_1506,ConditionRich,2021.2.3,59.96997902810934,
312.0,315.75,40,0.75,Stimuli/P010/things_woman_05s.jpg,1,1,1.75,0,134,134,134,,,,,,,,,,,,,312.0100123000011,0.010012300001108088,1,343.6648024999995,343.6648024999995,343.6648024999995,343.6648024999995,343.6648024999995,343.6648024999995,344.64899429999787,345.39965830000074,343.6648024999995,343.6648024999995,1.5428001999971457,002,P010,2025_Feb_01_1506,ConditionRich,2021.2.3,59.96997902810934,
315.75,316.0,41,0.0,Stimuli/Blank.png,0,0,0.0,0,135,135,135,,,,,,,,,,,,,315.78009589999783,0.03009589999783202,None,347.43480519999866,347.43480519999866,347.43480519999866,347.43480519999866,347.43480519999866,347.43480519999866,347.43480519999866,347.43480519999866,347.43480519999866,347.43480519999866,,002,P010,2025_Feb_01_1506,ConditionRich,2021.2.3,59.96997902810934,
316.0,319.75,7,0.75,Stimuli/P010/sun_apiogxmvvzfmtsmj.jpg,0,0,0.0,0,136,136,136,,,,,,,,,,,,,316.0291560000005,0.029156000000511995,None,347.68499209999936,347.68499209999936,347.68499209999936,347.68499209999936,347.68499209999936,347.68499209999936,347.68499209999936,347.68499209999936,347.68499209999936,347.68499209999936,,002,P010,2025_Feb_01_1506,ConditionRich,2021.2.3,59.96997902810934,
319.75,320.0,41,0.0,Stimuli/Blank.png,0,0,0.0,0,137,137,137,,,,,,,,,,,,,319.76574999999866,0.015749999998661224,None,351.40499369999816,351.40499369999816,351.40499369999816,351.40499369999816,351.40499369999816,351.40499369999816,351.40499369999816,351.40499369999816,351.40499369999816,351.40499369999816,,002,P010,2025_Feb_01_1506,ConditionRich,2021.2.3,59.96997902810934,
320.0,323.75,31,0.75,Stimuli/P010/things_girl_05s.jpg,0,0,0.0,0,138,138,138,,,,,,,,,,,,,320.0003938000009,0.0003938000008929521,None,351.6552002999997,351.6552002999997,351.6552002999997,351.6552002999997,351.6552002999997,351.6552002999997,351.6552002999997,351.6552002999997,351.6552002999997,351.6552002999997,,002,P010,2025_Feb_01_1506,ConditionRich,2021.2.3,59.96997902810934,
323.75,324.0,41,0.0,Stimuli/Blank.png,0,0,0.0,0,139,139,139,,,,,,,,,,,,,323.7704511000011,0.020451100001082523,None,355.42521230000057,355.42521230000057,355.42521230000057,355.42521230000057,355.42521230000057,355.42521230000057,355.42521230000057,355.42521230000057,355.42521230000057,355.42521230000057,,002,P010,2025_Feb_01_1506,ConditionRich,2021.2.3,59.96997902810934,
324.0,327.75,24,0.75,Stimuli/P010/things_cigar_05n.jpg,1,1,1.75,0,140,140,140,,,,,,,,,,,,,324.02027330000055,0.020273300000553718,1,355.6754234,355.6754234,355.6754234,355.6754234,355.6754234,355.6754234,356.6596241999978,357.41028390000065,355.6754234,355.6754234,1.8104053999995813,002,P010,2025_Feb_01_1506,ConditionRich,2021.2.3,59.96997902810934,
327.75,328.0,41,0.0,Stimuli/Blank.png,0,0,0.0,0,141,141,141,,,,,,,,,,,,,327.77153479999834,0.021534799998335075,None,359.4120613999985,359.4120613999985,359.4120613999985,359.4120613999985,359.4120613999985,359.4120613999985,359.4120613999985,359.4120613999985,359.4120613999985,359.4120613999985,,002,P010,2025_Feb_01_1506,ConditionRich,2021.2.3,59.96997902810934,
328.0,331.75,3,0.75,Stimuli/P010/sun_aewgwsmvsgzleqhw.jpg,0,0,0.0,0,142,142,142,,,,,,,,,,,,,328.0054734000005,0.005473400000482798,None,359.66230949999954,359.66230949999954,359.66230949999954,359.66230949999954,359.66230949999954,359.66230949999954,359.66230949999954,359.66230949999954,359.66230949999954,359.66230949999954,,002,P010,2025_Feb_01_1506,ConditionRich,2021.2.3,59.96997902810934,
331.75,332.0,41,0.0,Stimuli/Blank.png,0,0,0.0,0,143,143,143,,,,,,,,,,,,,331.7758518999981,0.0258518999980879,None,363.41560910000044,363.41560910000044,363.41560910000044,363.41560910000044,363.41560910000044,363.41560910000044,363.41560910000044,363.41560910000044,363.41560910000044,363.41560910000044,,002,P010,2025_Feb_01_1506,ConditionRich,2021.2.3,59.96997902810934,
332.0,335.75,20,0.75,Stimuli/P010/sun_ddsiwinthvyejghq.jpg,0,0,0.0,0,144,144,144,,,,,,,,,,,,,332.0093300999979,0.009330099997896468,None,363.6658138999992,363.6658138999992,363.6658138999992,363.6658138999992,363.6658138999992,363.6658138999992,363.6658138999992,363.6658138999992,363.6658138999992,363.6658138999992,,002,P010,2025_Feb_01_1506,ConditionRich,2021.2.3,59.96997902810934,
335.75,336.0,41,0.0,Stimuli/Blank.png,0,0,0.0,0,145,145,145,,,,,,,,,,,,,335.7803075999982,0.030307599998195656,None,367.43589950000023,367.43589950000023,367.43589950000023,367.43589950000023,367.43589950000023,367.43589950000023,367.43589950000023,367.43589950000023,367.43589950000023,367.43589950000023,,002,P010,2025_Feb_01_1506,ConditionRich,2021.2.3,59.96997902810934,
336.0,339.75,12,0.75,Stimuli/P010/sun_birmwgkdtrlevcaf.jpg,0,0,0.0,0,146,146,146,,,,,,,,,,,,,336.0293325999992,0.029332599999179365,None,367.68604179999966,367.68604179999966,367.68604179999966,367.68604179999966,367.68604179999966,367.68604179999966,367.68604179999966,367.68604179999966,367.68604179999966,367.68604179999966,,002,P010,2025_Feb_01_1506,ConditionRich,2021.2.3,59.96997902810934,
339.75,340.0,41,0.0,Stimuli/Blank.png,0,0,0.0,0,147,147,147,,,,,,,,,,,,,339.7659094999981,0.015909499998087995,None,371.40600509999786,371.40600509999786,371.40600509999786,371.40600509999786,371.40600509999786,371.40600509999786,371.40600509999786,371.40600509999786,371.40600509999786,371.40600509999786,,002,P010,2025_Feb_01_1506,ConditionRich,2021.2.3,59.96997902810934,
340.0,343.75,28,0.75,Stimuli/P010/things_face_05s.jpg,0,0,0.0,0,148,148,148,,,,,,,,,,,,,340.0018519000005,0.0018519000004744157,None,371.65619069999957,371.65619069999957,371.65619069999957,371.65619069999957,371.65619069999957,371.65619069999957,371.65619069999957,371.65619069999957,371.65619069999957,371.65619069999957,,002,P010,2025_Feb_01_1506,ConditionRich,2021.2.3,59.96997902810934,
343.75,344.0,41,0.0,Stimuli/Blank.png,0,0,0.0,0,149,149,149,,,,,,,,,,,,,343.77004579999993,0.02004579999993439,None,375.4095234999986,375.4095234999986,375.4095234999986,375.4095234999986,375.4095234999986,375.4095234999986,375.4095234999986,375.4095234999986,375.4095234999986,375.4095234999986,,002,P010,2025_Feb_01_1506,ConditionRich,2021.2.3,59.96997902810934,
344.0,347.75,14,0.75,Stimuli/P010/sun_blaqxdebghixzyyw.jpg,0,0,0.0,0,150,150,150,,,,,,,,,,,,,344.002334599998,0.0023345999979937915,None,375.6430880000007,375.6430880000007,375.6430880000007,375.6430880000007,375.6430880000007,375.6430880000007,375.6430880000007,375.6430880000007,375.6430880000007,375.6430880000007,,002,P010,2025_Feb_01_1506,ConditionRich,2021.2.3,59.96997902810934,
347.75,348.0,41,0.0,Stimuli/Blank.png,0,0,0.0,0,151,151,151,,,,,,,,,,,,,347.75672570000097,0.0067257000009703916,None,379.3964042999978,379.3964042999978,379.3964042999978,379.3964042999978,379.3964042999978,379.3964042999978,379.3964042999978,379.3964042999978,379.3964042999978,379.3964042999978,,002,P010,2025_Feb_01_1506,ConditionRich,2021.2.3,59.96997902810934,
348.0,351.75,15,0.75,Stimuli/P010/sun_boryivbddrnarrbo.jpg,1,3,3.75,0,152,152,152,,,,,,,,,,,,,348.00587799999994,0.0058779999999387655,1,379.6466288999982,379.6466288999982,379.6466288999982,379.6466288999982,379.6466288999982,379.6466288999982,382.6326463999976,383.38323599999785,379.6466288999982,379.6466288999982,3.47344769999836,002,P010,2025_Feb_01_1506,ConditionRich,2021.2.3,59.96997902810934,
351.75,352.0,41,0.0,Stimuli/Blank.png,0,0,0.0,0,153,153,153,,,,,,,,,,,,,351.7597348999989,0.009734899998875335,None,383.3999466999994,383.3999466999994,383.3999466999994,383.3999466999994,383.3999466999994,383.3999466999994,383.3999466999994,383.3999466999994,383.3999466999994,383.3999466999994,,002,P010,2025_Feb_01_1506,ConditionRich,2021.2.3,59.96997902810934,
352.0,355.75,38,0.75,Stimuli/P010/things_roadsweeper_05s.jpg,0,0,0.0,0,154,154,154,,,,,,,,,,,,,352.010650799999,0.01065079999898444,None,383.66688579999754,383.66688579999754,383.66688579999754,383.66688579999754,383.66688579999754,383.66688579999754,383.66688579999754,383.66688579999754,383.66688579999754,383.66688579999754,,002,P010,2025_Feb_01_1506,ConditionRich,2021.2.3,59.96997902810934,
355.75,356.0,41,0.0,Stimuli/Blank.png,0,0,0.0,0,155,155,155,,,,,,,,,,,,,355.77938580000045,0.029385800000454765,None,387.4201744999991,387.4201744999991,387.4201744999991,387.4201744999991,387.4201744999991,387.4201744999991,387.4201744999991,387.4201744999991,387.4201744999991,387.4201744999991,,002,P010,2025_Feb_01_1506,ConditionRich,2021.2.3,59.96997902810934,
356.0,359.75,1,0.75,Stimuli/P010/sun_abqdlumenyzawlme.jpg,0,0,0.0,0,156,156,156,,,,,,,,,,,,,356.0160672999991,0.016067299999122042,None,387.6704119999995,387.6704119999995,387.6704119999995,387.6704119999995,387.6704119999995,387.6704119999995,387.6704119999995,387.6704119999995,387.6704119999995,387.6704119999995,,002,P010,2025_Feb_01_1506,ConditionRich,2021.2.3,59.96997902810934,
359.75,360.0,41,0.0,Stimuli/Blank.png,0,0,0.0,0,157,157,157,,,,,,,,,,,,,359.76678399999946,0.01678399999946123,None,391.40714899999875,391.40714899999875,391.40714899999875,391.40714899999875,391.40714899999875,391.40714899999875,391.40714899999875,391.40714899999875,391.40714899999875,391.40714899999875,,002,P010,2025_Feb_01_1506,ConditionRich,2021.2.3,59.96997902810934,
360.0,363.75,33,0.75,Stimuli/P010/things_lizard_05n.jpg,1,1,1.75,0,158,158,158,,,,,,,,,,,,,360.000695499999,0.0006954999989829957,1,391.6572701999976,391.6572701999976,391.6572701999976,391.6572701999976,391.6572701999976,391.6572701999976,392.62477020000006,393.37544160000107,391.6572701999976,391.6572701999976,1.9896028999974078,002,P010,2025_Feb_01_1506,ConditionRich,2021.2.3,59.96997902810934,
363.75,364.0,41,0.0,Stimuli/Blank.png,0,0,0.0,0,159,159,159,,,,,,,,,,,,,363.769855999999,0.019855999998981133,None,395.41057499999806,395.41057499999806,395.41057499999806,395.41057499999806,395.41057499999806,395.41057499999806,395.41057499999806,395.41057499999806,395.41057499999806,395.41057499999806,,002,P010,2025_Feb_01_1506,ConditionRich,2021.2.3,59.96997902810934,
364.0,367.75,2,0.75,Stimuli/P010/sun_acvloibbxiqpiwnv.jpg,0,0,0.0,0,160,160,160,,,,,,,,,,,,,364.00576569999976,0.00576569999975618,None,395.6608019999985,395.6608019999985,395.6608019999985,395.6608019999985,395.6608019999985,395.6608019999985,395.6608019999985,395.6608019999985,395.6608019999985,395.6608019999985,,002,P010,2025_Feb_01_1506,ConditionRich,2021.2.3,59.96997902810934,
367.75,368.0,41,0.0,Stimuli/Blank.png,0,0,0.0,0,161,161,161,,,,,,,,,,,,,367.7752948999987,0.025294899998698384,None,399.43079999999827,399.43079999999827,399.43079999999827,399.43079999999827,399.43079999999827,399.43079999999827,399.43079999999827,399.43079999999827,399.43079999999827,399.43079999999827,,002,P010,2025_Feb_01_1506,ConditionRich,2021.2.3,59.96997902810934,
368.0,371.75,19,0.75,Stimuli/P010/sun_bwvfnogmotsvhofs.jpg,0,0,0.0,0,162,162,162,,,,,,,,,,,,,368.0264028999991,0.026402899999084184,None,399.6810191000004,399.6810191000004,399.6810191000004,399.6810191000004,399.6810191000004,399.6810191000004,399.6810191000004,399.6810191000004,399.6810191000004,399.6810191000004,,002,P010,2025_Feb_01_1506,ConditionRich,2021.2.3,59.96997902810934,
371.75,372.0,41,0.0,Stimuli/Blank.png,0,0,0.0,0,163,163,163,,,,,,,,,,,,,371.7783578999988,0.028357899998809444,None,403.41767600000094,403.41767600000094,403.41767600000094,403.41767600000094,403.41767600000094,403.41767600000094,403.41767600000094,403.41767600000094,403.41767600000094,403.41767600000094,,002,P010,2025_Feb_01_1506,ConditionRich,2021.2.3,59.96997902810934,
372.0,388.0,0,0.0,Stimuli/Blank.png,1,10,10.75,0,164,164,164,,,,,,,,,,,,,372.0104508000004,0.010450800000398885,1,403.651200100001,403.651200100001,403.651200100001,403.651200100001,403.651200100001,403.651200100001,413.6267000000007,414.3773508999984,403.651200100001,403.651200100001,10.291628000002675,002,P010,2025_Feb_01_1506,ConditionRich,2021.2.3,59.96997902810934,
