eventStartTime,eventEndTime,eventCond,imSize,imFile,responseEvent,fixRespStart,fixRespEnd,Events.thisRepN,Events.thisTrialN,Events.thisN,Events.thisIndex,Instructions.started,Instructions.stopped,participantReadyResponse.keys,participantReadyResponse.rt,participantReadyResponse.started,participantReadyResponse.stopped,startWaitforTrigger,triggerResponse.keys,triggerResponse.rt,triggerResponse.started,triggerResponse.stopped,globalTimer,actualStartTime,startTimingDiff,participantResponse.keys,participantResponse.started,participantResponse.stopped,image.started,image.stopped,fixationOutside.started,fixationOutside.stopped,fixationResponse.started,fixationResponse.stopped,fixationInside.started,fixationInside.stopped,participantResponse.rt,session,participant,date,expName,psychopyVersion,frameRate,
,,,,,,,,,,,,11.915205499997683,None,1,2.5943967000021075,11.915205499997683,None,,,,,,,,,,,,,,,,,,,,,008,P010,2025_Feb_01_1602,ConditionRich,2021.2.3,59.93292307237785,
,,,,,,,,,,,,,,,,,,14.522630399998889,5,15.287577999999485,14.535188399997423,None,,,,,,,,,,,,,,,,008,P010,2025_Feb_01_1602,ConditionRich,2021.2.3,59.93292307237785,
0.0,4.0,0,0.0,Stimuli/Blank.png,0,0,0.0,0,0,0,0,,,,,,,,,,,,29.83607249999841,0.030617300002631964,0.030617300002631964,None,29.882107599998562,None,29.882107599998562,None,29.882107599998562,None,29.882107599998562,29.882107599998562,29.882107599998562,None,,008,P010,2025_Feb_01_1602,ConditionRich,2021.2.3,59.93292307237785,
4.0,7.75,37,0.75,Stimuli/P010/things_pug_05s.jpg,1,1,1.75,0,1,1,1,,,,,,,,,,,,,4.002414800001134,0.002414800001133699,1,33.85280209999837,33.85280209999837,33.85280209999837,33.85280209999837,33.85280209999837,33.85280209999837,34.83651950000058,35.5871808999982,33.85280209999837,33.85280209999837,1.3870295000015176,008,P010,2025_Feb_01_1602,ConditionRich,2021.2.3,59.93292307237785,
7.75,8.0,41,0.0,Stimuli/Blank.png,0,0,0.0,0,2,2,2,,,,,,,,,,,,,7.755656300003466,0.005656300003465731,None,37.60586820000026,37.60586820000026,37.60586820000026,37.60586820000026,37.60586820000026,37.60586820000026,37.60586820000026,37.60586820000026,37.60586820000026,37.60586820000026,,008,P010,2025_Feb_01_1602,ConditionRich,2021.2.3,59.93292307237785,
8.0,11.75,1,0.75,Stimuli/P010/sun_abqdlumenyzawlme.jpg,0,0,0.0,0,3,3,3,,,,,,,,,,,,,8.005294000002323,0.0052940000023227185,None,37.855807100000675,37.855807100000675,37.855807100000675,37.855807100000675,37.855807100000675,37.855807100000675,37.855807100000675,37.855807100000675,37.855807100000675,37.855807100000675,,008,P010,2025_Feb_01_1602,ConditionRich,2021.2.3,59.93292307237785,
11.75,12.0,41,0.0,Stimuli/Blank.png,0,0,0.0,0,4,4,4,,,,,,,,,,,,,11.759864200001175,0.00986420000117505,None,41.60929469999974,41.60929469999974,41.60929469999974,41.60929469999974,41.60929469999974,41.60929469999974,41.60929469999974,41.60929469999974,41.60929469999974,41.60929469999974,,008,P010,2025_Feb_01_1602,ConditionRich,2021.2.3,59.93292307237785,
12.0,15.75,22,0.75,Stimuli/P010/things_butterfly_05s.jpg,0,0,0.0,0,5,5,5,,,,,,,,,,,,,12.008847300003254,0.008847300003253622,None,41.85955669999748,41.85955669999748,41.85955669999748,41.85955669999748,41.85955669999748,41.85955669999748,41.85955669999748,41.85955669999748,41.85955669999748,41.85955669999748,,008,P010,2025_Feb_01_1602,ConditionRich,2021.2.3,59.93292307237785,
15.75,16.0,41,0.0,Stimuli/Blank.png,0,0,0.0,0,6,6,6,,,,,,,,,,,,,15.763113900000462,0.013113900000462309,None,45.612957400000596,45.612957400000596,45.612957400000596,45.612957400000596,45.612957400000596,45.612957400000596,45.612957400000596,45.612957400000596,45.612957400000596,45.612957400000596,,008,P010,2025_Feb_01_1602,ConditionRich,2021.2.3,59.93292307237785,
16.0,19.75,12,0.75,Stimuli/P010/sun_birmwgkdtrlevcaf.jpg,0,0,0.0,0,7,7,7,,,,,,,,,,,,,16.013544900000852,0.013544900000852067,None,45.879826599997614,45.879826599997614,45.879826599997614,45.879826599997614,45.879826599997614,45.879826599997614,45.879826599997614,45.879826599997614,45.879826599997614,45.879826599997614,,008,P010,2025_Feb_01_1602,ConditionRich,2021.2.3,59.93292307237785,
19.75,20.0,41,0.0,Stimuli/Blank.png,0,0,0.0,0,8,8,8,,,,,,,,,,,,,19.765905500000372,0.01590550000037183,None,49.61647019999873,49.61647019999873,49.61647019999873,49.61647019999873,49.61647019999873,49.61647019999873,49.61647019999873,49.61647019999873,49.61647019999873,49.61647019999873,,008,P010,2025_Feb_01_1602,ConditionRich,2021.2.3,59.93292307237785,
20.0,23.75,30,0.75,Stimuli/P010/things_fire_05s.jpg,0,0,0.0,0,9,9,9,,,,,,,,,,,,,19.999944900002447,-5.509999755304307e-05,None,49.85001299999931,49.85001299999931,49.85001299999931,49.85001299999931,49.85001299999931,49.85001299999931,49.85001299999931,49.85001299999931,49.85001299999931,49.85001299999931,,008,P010,2025_Feb_01_1602,ConditionRich,2021.2.3,59.93292307237785,
23.75,24.0,41,0.0,Stimuli/Blank.png,0,0,0.0,0,10,10,10,,,,,,,,,,,,,23.75486290000117,0.004862900001171511,None,53.62004139999772,53.62004139999772,53.62004139999772,53.62004139999772,53.62004139999772,53.62004139999772,53.62004139999772,53.62004139999772,53.62004139999772,53.62004139999772,,008,P010,2025_Feb_01_1602,ConditionRich,2021.2.3,59.93292307237785,
24.0,27.75,9,0.75,Stimuli/P010/sun_bdjkvwqqqycuixtc.jpg,0,0,0.0,0,11,11,11,,,,,,,,,,,,,24.02025649999996,0.020256499999959487,None,53.870226200000616,53.870226200000616,53.870226200000616,53.870226200000616,53.870226200000616,53.870226200000616,53.870226200000616,53.870226200000616,53.870226200000616,53.870226200000616,,008,P010,2025_Feb_01_1602,ConditionRich,2021.2.3,59.93292307237785,
27.75,28.0,41,0.0,Stimuli/Blank.png,0,0,0.0,0,12,12,12,,,,,,,,,,,,,27.756349000002956,0.006349000002956018,None,57.606868299997586,57.606868299997586,57.606868299997586,57.606868299997586,57.606868299997586,57.606868299997586,57.606868299997586,57.606868299997586,57.606868299997586,57.606868299997586,,008,P010,2025_Feb_01_1602,ConditionRich,2021.2.3,59.93292307237785,
28.0,31.75,31,0.75,Stimuli/P010/things_girl_05s.jpg,0,0,0.0,0,13,13,13,,,,,,,,,,,,,28.007240900002216,0.007240900002216222,None,57.8737801999996,57.8737801999996,57.8737801999996,57.8737801999996,57.8737801999996,57.8737801999996,57.8737801999996,57.8737801999996,57.8737801999996,57.8737801999996,,008,P010,2025_Feb_01_1602,ConditionRich,2021.2.3,59.93292307237785,
31.75,32.0,41,0.0,Stimuli/Blank.png,0,0,0.0,0,14,14,14,,,,,,,,,,,,,31.776978100002452,0.026978100002452265,None,61.627190999999584,61.627190999999584,61.627190999999584,61.627190999999584,61.627190999999584,61.627190999999584,61.627190999999584,61.627190999999584,61.627190999999584,61.627190999999584,,008,P010,2025_Feb_01_1602,ConditionRich,2021.2.3,59.93292307237785,
32.0,35.75,14,0.75,Stimuli/P010/sun_blaqxdebghixzyyw.jpg,0,0,0.0,0,15,15,15,,,,,,,,,,,,,32.010899800003244,0.010899800003244309,None,61.87743059999775,61.87743059999775,61.87743059999775,61.87743059999775,61.87743059999775,61.87743059999775,61.87743059999775,61.87743059999775,61.87743059999775,61.87743059999775,,008,P010,2025_Feb_01_1602,ConditionRich,2021.2.3,59.93292307237785,
35.75,36.0,41,0.0,Stimuli/Blank.png,0,0,0.0,0,16,16,16,,,,,,,,,,,,,35.78138420000323,0.031384200003230944,None,65.6306599999989,65.6306599999989,65.6306599999989,65.6306599999989,65.6306599999989,65.6306599999989,65.6306599999989,65.6306599999989,65.6306599999989,65.6306599999989,,008,P010,2025_Feb_01_1602,ConditionRich,2021.2.3,59.93292307237785,
36.0,39.75,13,0.75,Stimuli/P010/sun_bjimvgwadfodioes.jpg,0,0,0.0,0,17,17,17,,,,,,,,,,,,,36.014604600000894,0.014604600000893697,None,65.86418290000074,65.86418290000074,65.86418290000074,65.86418290000074,65.86418290000074,65.86418290000074,65.86418290000074,65.86418290000074,65.86418290000074,65.86418290000074,,008,P010,2025_Feb_01_1602,ConditionRich,2021.2.3,59.93292307237785,
39.75,40.0,41,0.0,Stimuli/Blank.png,0,0,0.0,0,18,18,18,,,,,,,,,,,,,39.75033380000241,0.0003338000024086796,None,69.60081549999813,69.60081549999813,69.60081549999813,69.60081549999813,69.60081549999813,69.60081549999813,69.60081549999813,69.60081549999813,69.60081549999813,69.60081549999813,,008,P010,2025_Feb_01_1602,ConditionRich,2021.2.3,59.93292307237785,
40.0,43.75,7,0.75,Stimuli/P010/sun_apiogxmvvzfmtsmj.jpg,0,0,0.0,0,19,19,19,,,,,,,,,,,,,40.00135510000109,0.0013551000010920689,None,69.86774220000007,69.86774220000007,69.86774220000007,69.86774220000007,69.86774220000007,69.86774220000007,69.86774220000007,69.86774220000007,69.86774220000007,69.86774220000007,,008,P010,2025_Feb_01_1602,ConditionRich,2021.2.3,59.93292307237785,
43.75,44.0,41,0.0,Stimuli/Blank.png,0,0,0.0,0,20,20,20,,,,,,,,,,,,,43.77103530000022,0.02103530000022147,None,73.6210362999991,73.6210362999991,73.6210362999991,73.6210362999991,73.6210362999991,73.6210362999991,73.6210362999991,73.6210362999991,73.6210362999991,73.6210362999991,,008,P010,2025_Feb_01_1602,ConditionRich,2021.2.3,59.93292307237785,
44.0,47.75,24,0.75,Stimuli/P010/things_cigar_05n.jpg,0,0,0.0,0,21,21,21,,,,,,,,,,,,,44.00459700000283,0.004597000002831919,None,73.85458709999875,73.85458709999875,73.85458709999875,73.85458709999875,73.85458709999875,73.85458709999875,73.85458709999875,73.85458709999875,73.85458709999875,73.85458709999875,,008,P010,2025_Feb_01_1602,ConditionRich,2021.2.3,59.93292307237785,
47.75,48.0,41,0.0,Stimuli/Blank.png,0,0,0.0,0,22,22,22,,,,,,,,,,,,,47.75719510000272,0.007195100002718391,None,77.60799810000026,77.60799810000026,77.60799810000026,77.60799810000026,77.60799810000026,77.60799810000026,77.60799810000026,77.60799810000026,77.60799810000026,77.60799810000026,,008,P010,2025_Feb_01_1602,ConditionRich,2021.2.3,59.93292307237785,
48.0,51.75,39,0.75,Stimuli/P010/things_tiara_05s.jpg,0,0,0.0,0,23,23,23,,,,,,,,,,,,,48.00862340000094,0.008623400000942638,None,77.85812969999824,77.85812969999824,77.85812969999824,77.85812969999824,77.85812969999824,77.85812969999824,77.85812969999824,77.85812969999824,77.85812969999824,77.85812969999824,,008,P010,2025_Feb_01_1602,ConditionRich,2021.2.3,59.93292307237785,
51.75,52.0,41,0.0,Stimuli/Blank.png,0,0,0.0,0,24,24,24,,,,,,,,,,,,,51.76141880000068,0.011418800000683405,None,81.61144539999805,81.61144539999805,81.61144539999805,81.61144539999805,81.61144539999805,81.61144539999805,81.61144539999805,81.61144539999805,81.61144539999805,81.61144539999805,,008,P010,2025_Feb_01_1602,ConditionRich,2021.2.3,59.93292307237785,
52.0,55.75,4,0.75,Stimuli/P010/sun_afkzdukwewwzqtmr.jpg,1,1,1.75,0,25,25,25,,,,,,,,,,,,,52.01118170000336,0.011181700003362494,1,81.86166569999841,81.86166569999841,81.86166569999841,81.86166569999841,81.86166569999841,81.86166569999841,82.84590430000026,83.59657180000067,81.86166569999841,81.86166569999841,1.5559448999993037,008,P010,2025_Feb_01_1602,ConditionRich,2021.2.3,59.93292307237785,
55.75,56.0,41,0.0,Stimuli/Blank.png,0,0,0.0,0,26,26,26,,,,,,,,,,,,,55.764497400003165,0.01449740000316524,None,85.61499639999965,85.61499639999965,85.61499639999965,85.61499639999965,85.61499639999965,85.61499639999965,85.61499639999965,85.61499639999965,85.61499639999965,85.61499639999965,,008,P010,2025_Feb_01_1602,ConditionRich,2021.2.3,59.93292307237785,
56.0,59.75,2,0.75,Stimuli/P010/sun_acvloibbxiqpiwnv.jpg,0,0,0.0,0,27,27,27,,,,,,,,,,,,,56.015531300003204,0.015531300003203796,None,85.86520639999799,85.86520639999799,85.86520639999799,85.86520639999799,85.86520639999799,85.86520639999799,85.86520639999799,85.86520639999799,85.86520639999799,85.86520639999799,,008,P010,2025_Feb_01_1602,ConditionRich,2021.2.3,59.93292307237785,
59.75,60.0,41,0.0,Stimuli/Blank.png,0,0,0.0,0,28,28,28,,,,,,,,,,,,,59.751257000003534,0.0012570000035339035,None,89.6018468000002,89.6018468000002,89.6018468000002,89.6018468000002,89.6018468000002,89.6018468000002,89.6018468000002,89.6018468000002,89.6018468000002,89.6018468000002,,008,P010,2025_Feb_01_1602,ConditionRich,2021.2.3,59.93292307237785,
60.0,63.75,20,0.75,Stimuli/P010/sun_ddsiwinthvyejghq.jpg,0,0,0.0,0,29,29,29,,,,,,,,,,,,,60.002039000002696,0.0020390000026964117,None,89.85204499999963,89.85204499999963,89.85204499999963,89.85204499999963,89.85204499999963,89.85204499999963,89.85204499999963,89.85204499999963,89.85204499999963,89.85204499999963,,008,P010,2025_Feb_01_1602,ConditionRich,2021.2.3,59.93292307237785,
63.75,64.0,41,0.0,Stimuli/Blank.png,0,0,0.0,0,30,30,30,,,,,,,,,,,,,63.75532980000207,0.005329800002073171,None,93.60539939999944,93.60539939999944,93.60539939999944,93.60539939999944,93.60539939999944,93.60539939999944,93.60539939999944,93.60539939999944,93.60539939999944,93.60539939999944,,008,P010,2025_Feb_01_1602,ConditionRich,2021.2.3,59.93292307237785,
64.0,67.75,27,0.75,Stimuli/P010/things_curling_iron_05s.jpg,0,0,0.0,0,31,31,31,,,,,,,,,,,,,64.00565910000296,0.005659100002958439,None,93.8556138999993,93.8556138999993,93.8556138999993,93.8556138999993,93.8556138999993,93.8556138999993,93.8556138999993,93.8556138999993,93.8556138999993,93.8556138999993,,008,P010,2025_Feb_01_1602,ConditionRich,2021.2.3,59.93292307237785,
67.75,68.0,41,0.0,Stimuli/Blank.png,0,0,0.0,0,32,32,32,,,,,,,,,,,,,67.76027450000038,0.010274500000377884,None,97.62562439999965,97.62562439999965,97.62562439999965,97.62562439999965,97.62562439999965,97.62562439999965,97.62562439999965,97.62562439999965,97.62562439999965,97.62562439999965,,008,P010,2025_Feb_01_1602,ConditionRich,2021.2.3,59.93292307237785,
68.0,71.75,5,0.75,Stimuli/P010/sun_akqvdmuauoxeafrj.jpg,0,0,0.0,0,33,33,33,,,,,,,,,,,,,68.02583300000333,0.025833000003331108,None,97.87636030000067,97.87636030000067,97.87636030000067,97.87636030000067,97.87636030000067,97.87636030000067,97.87636030000067,97.87636030000067,97.87636030000067,97.87636030000067,,008,P010,2025_Feb_01_1602,ConditionRich,2021.2.3,59.93292307237785,
71.75,72.0,41,0.0,Stimuli/Blank.png,0,0,0.0,0,34,34,34,,,,,,,,,,,,,71.76185330000226,0.011853300002258038,None,101.61247569999978,101.61247569999978,101.61247569999978,101.61247569999978,101.61247569999978,101.61247569999978,101.61247569999978,101.61247569999978,101.61247569999978,101.61247569999978,,008,P010,2025_Feb_01_1602,ConditionRich,2021.2.3,59.93292307237785,
72.0,75.75,19,0.75,Stimuli/P010/sun_bwvfnogmotsvhofs.jpg,1,0,0.75,0,35,35,35,,,,,,,,,,,,,72.01206129999991,0.0120612999999139,1,101.87940610000078,101.87940610000078,101.87940610000078,101.87940610000078,101.87940610000078,101.87940610000078,101.87940610000078,102.59667289999925,101.87940610000078,101.87940610000078,0.6031268999977328,008,P010,2025_Feb_01_1602,ConditionRich,2021.2.3,59.93292307237785,
75.75,76.0,41,0.0,Stimuli/Blank.png,0,0,0.0,0,36,36,36,,,,,,,,,,,,,75.78212260000146,0.03212260000145761,None,105.63270560000092,105.63270560000092,105.63270560000092,105.63270560000092,105.63270560000092,105.63270560000092,105.63270560000092,105.63270560000092,105.63270560000092,105.63270560000092,,008,P010,2025_Feb_01_1602,ConditionRich,2021.2.3,59.93292307237785,
76.0,79.75,15,0.75,Stimuli/P010/sun_boryivbddrnarrbo.jpg,1,0,0.75,0,37,37,37,,,,,,,,,,,,,76.00028590000147,0.00028590000147232786,None,105.86622169999828,105.86622169999828,105.86622169999828,105.86622169999828,105.86622169999828,105.86622169999828,105.86622169999828,106.58354419999887,105.86622169999828,105.86622169999828,,008,P010,2025_Feb_01_1602,ConditionRich,2021.2.3,59.93292307237785,
79.75,80.0,41,0.0,Stimuli/Blank.png,0,0,0.0,0,38,38,38,,,,,,,,,,,,,79.77036450000014,0.02036450000014156,None,109.61957029999758,109.61957029999758,109.61957029999758,109.61957029999758,109.61957029999758,109.61957029999758,109.61957029999758,109.61957029999758,109.61957029999758,109.61957029999758,,008,P010,2025_Feb_01_1602,ConditionRich,2021.2.3,59.93292307237785,
80.0,83.75,25,0.75,Stimuli/P010/things_clothespin_05s.jpg,0,0,0.0,0,39,39,39,,,,,,,,,,,,,80.00237470000138,0.0023747000013827346,None,109.86979710000014,109.86979710000014,109.86979710000014,109.86979710000014,109.86979710000014,109.86979710000014,109.86979710000014,109.86979710000014,109.86979710000014,109.86979710000014,,008,P010,2025_Feb_01_1602,ConditionRich,2021.2.3,59.93292307237785,
83.75,84.0,41,0.0,Stimuli/Blank.png,0,0,0.0,0,40,40,40,,,,,,,,,,,,,83.77242740000293,0.022427400002925424,None,113.62310609999986,113.62310609999986,113.62310609999986,113.62310609999986,113.62310609999986,113.62310609999986,113.62310609999986,113.62310609999986,113.62310609999986,113.62310609999986,,008,P010,2025_Feb_01_1602,ConditionRich,2021.2.3,59.93292307237785,
84.0,100.0,0,0.0,Stimuli/Blank.png,1,9,9.75,0,41,41,41,,,,,,,,,,,,,84.0059207000013,0.005920700001297519,1,113.85664429999815,113.85664429999815,113.85664429999815,113.85664429999815,113.85664429999815,113.85664429999815,122.83130189999792,123.58195449999766,113.85664429999815,113.85664429999815,9.48800680000204,008,P010,2025_Feb_01_1602,ConditionRich,2021.2.3,59.93292307237785,
100.0,103.75,18,0.75,Stimuli/P010/sun_bwjdahsxcqepqqbm.jpg,0,0,0.0,0,42,42,42,,,,,,,,,,,,,100.00379690000045,0.003796900000452297,None,129.85413730000073,129.85413730000073,129.85413730000073,129.85413730000073,129.85413730000073,129.85413730000073,129.85413730000073,129.85413730000073,129.85413730000073,129.85413730000073,,008,P010,2025_Feb_01_1602,ConditionRich,2021.2.3,59.93292307237785,
103.75,104.0,41,0.0,Stimuli/Blank.png,0,0,0.0,0,43,43,43,,,,,,,,,,,,,103.75809140000274,0.008091400002740556,None,133.6074750000007,133.6074750000007,133.6074750000007,133.6074750000007,133.6074750000007,133.6074750000007,133.6074750000007,133.6074750000007,133.6074750000007,133.6074750000007,,008,P010,2025_Feb_01_1602,ConditionRich,2021.2.3,59.93292307237785,
104.0,107.75,35,0.75,Stimuli/P010/things_mushroom_05n.jpg,0,0,0.0,0,44,44,44,,,,,,,,,,,,,104.00695980000091,0.006959800000913674,None,133.87436869999874,133.87436869999874,133.87436869999874,133.87436869999874,133.87436869999874,133.87436869999874,133.87436869999874,133.87436869999874,133.87436869999874,133.87436869999874,,008,P010,2025_Feb_01_1602,ConditionRich,2021.2.3,59.93292307237785,
107.75,108.0,41,0.0,Stimuli/Blank.png,0,0,0.0,0,45,45,45,,,,,,,,,,,,,107.77708220000204,0.027082200002041645,None,137.62767969999913,137.62767969999913,137.62767969999913,137.62767969999913,137.62767969999913,137.62767969999913,137.62767969999913,137.62767969999913,137.62767969999913,137.62767969999913,,008,P010,2025_Feb_01_1602,ConditionRich,2021.2.3,59.93292307237785,
108.0,111.75,21,0.75,Stimuli/P010/things_boy_05s.jpg,1,2,2.75,0,46,46,46,,,,,,,,,,,,,108.01056800000151,0.0105680000015127,1,137.86121920000005,137.86121920000005,137.86121920000005,137.86121920000005,137.86121920000005,137.86121920000005,139.84626189999835,140.59700990000056,137.86121920000005,137.86121920000005,2.4673418999991554,008,P010,2025_Feb_01_1602,ConditionRich,2021.2.3,59.93292307237785,
111.75,112.0,41,0.0,Stimuli/Blank.png,0,0,0.0,0,47,47,47,,,,,,,,,,,,,111.7648251999999,0.014825199999904726,None,141.614540999999,141.614540999999,141.614540999999,141.614540999999,141.614540999999,141.614540999999,141.614540999999,141.614540999999,141.614540999999,141.614540999999,,008,P010,2025_Feb_01_1602,ConditionRich,2021.2.3,59.93292307237785,
112.0,115.75,36,0.75,Stimuli/P010/things_pelican_05s.jpg,1,0,0.75,0,48,48,48,,,,,,,,,,,,,112.0149455000028,0.014945500002795598,1,141.86476140000013,141.86476140000013,141.86476140000013,141.86476140000013,141.86476140000013,141.86476140000013,141.86476140000013,142.5987602999994,141.86476140000013,141.86476140000013,0.45677470000009635,008,P010,2025_Feb_01_1602,ConditionRich,2021.2.3,59.93292307237785,
115.75,116.0,41,0.0,Stimuli/Blank.png,0,0,0.0,0,49,49,49,,,,,,,,,,,,,115.75097900000037,0.0009790000003704336,None,145.6013955999988,145.6013955999988,145.6013955999988,145.6013955999988,145.6013955999988,145.6013955999988,145.6013955999988,145.6013955999988,145.6013955999988,145.6013955999988,,008,P010,2025_Feb_01_1602,ConditionRich,2021.2.3,59.93292307237785,
116.0,119.75,6,0.75,Stimuli/P010/sun_amkrwcyvinmsylsz.jpg,1,0,0.75,0,50,50,50,,,,,,,,,,,,,116.00100120000207,0.0010012000020651612,1,145.8516313,145.8516313,145.8516313,145.8516313,145.8516313,145.8516313,145.8516313,146.585598499998,145.8516313,145.8516313,0.5789590000022145,008,P010,2025_Feb_01_1602,ConditionRich,2021.2.3,59.93292307237785,
119.75,120.0,41,0.0,Stimuli/Blank.png,0,0,0.0,0,51,51,51,,,,,,,,,,,,,119.75588229999994,0.005882299999939278,None,149.60495099999753,149.60495099999753,149.60495099999753,149.60495099999753,149.60495099999753,149.60495099999753,149.60495099999753,149.60495099999753,149.60495099999753,149.60495099999753,,008,P010,2025_Feb_01_1602,ConditionRich,2021.2.3,59.93292307237785,
120.0,123.75,38,0.75,Stimuli/P010/things_roadsweeper_05s.jpg,0,0,0.0,0,52,52,52,,,,,,,,,,,,,120.00444570000036,0.004445700000360375,None,149.85516579999967,149.85516579999967,149.85516579999967,149.85516579999967,149.85516579999967,149.85516579999967,149.85516579999967,149.85516579999967,149.85516579999967,149.85516579999967,,008,P010,2025_Feb_01_1602,ConditionRich,2021.2.3,59.93292307237785,
123.75,124.0,41,0.0,Stimuli/Blank.png,0,0,0.0,0,53,53,53,,,,,,,,,,,,,123.75992940000287,0.0099294000028749,None,153.6251725999973,153.6251725999973,153.6251725999973,153.6251725999973,153.6251725999973,153.6251725999973,153.6251725999973,153.6251725999973,153.6251725999973,153.6251725999973,,008,P010,2025_Feb_01_1602,ConditionRich,2021.2.3,59.93292307237785,
124.0,127.75,10,0.75,Stimuli/P010/sun_bdkttewvyfdarikm.jpg,0,0,0.0,0,54,54,54,,,,,,,,,,,,,124.025493000001,0.025493000001006294,None,153.87538639999912,153.87538639999912,153.87538639999912,153.87538639999912,153.87538639999912,153.87538639999912,153.87538639999912,153.87538639999912,153.87538639999912,153.87538639999912,,008,P010,2025_Feb_01_1602,ConditionRich,2021.2.3,59.93292307237785,
127.75,128.0,41,0.0,Stimuli/Blank.png,0,0,0.0,0,55,55,55,,,,,,,,,,,,,127.761290800001,0.011290800001006573,None,157.6120224999977,157.6120224999977,157.6120224999977,157.6120224999977,157.6120224999977,157.6120224999977,157.6120224999977,157.6120224999977,157.6120224999977,157.6120224999977,,008,P010,2025_Feb_01_1602,ConditionRich,2021.2.3,59.93292307237785,
128.0,131.75,3,0.75,Stimuli/P010/sun_aewgwsmvsgzleqhw.jpg,0,0,0.0,0,56,56,56,,,,,,,,,,,,,128.01165780000156,0.011657800001557916,None,157.86225659999764,157.86225659999764,157.86225659999764,157.86225659999764,157.86225659999764,157.86225659999764,157.86225659999764,157.86225659999764,157.86225659999764,157.86225659999764,,008,P010,2025_Feb_01_1602,ConditionRich,2021.2.3,59.93292307237785,
131.75,132.0,41,0.0,Stimuli/Blank.png,0,0,0.0,0,57,57,57,,,,,,,,,,,,,131.76636200000212,0.016362000002118293,None,161.6155856999976,161.6155856999976,161.6155856999976,161.6155856999976,161.6155856999976,161.6155856999976,161.6155856999976,161.6155856999976,161.6155856999976,161.6155856999976,,008,P010,2025_Feb_01_1602,ConditionRich,2021.2.3,59.93292307237785,
132.0,135.75,11,0.75,Stimuli/P010/sun_bfyvfqiimvdaxlqn.jpg,0,0,0.0,0,58,58,58,,,,,,,,,,,,,131.99868560000323,-0.0013143999967724085,None,161.84910989999844,161.84910989999844,161.84910989999844,161.84910989999844,161.84910989999844,161.84910989999844,161.84910989999844,161.84910989999844,161.84910989999844,161.84910989999844,,008,P010,2025_Feb_01_1602,ConditionRich,2021.2.3,59.93292307237785,
135.75,136.0,41,0.0,Stimuli/Blank.png,0,0,0.0,0,59,59,59,,,,,,,,,,,,,135.7525600000008,0.002560000000812579,None,165.6024331999979,165.6024331999979,165.6024331999979,165.6024331999979,165.6024331999979,165.6024331999979,165.6024331999979,165.6024331999979,165.6024331999979,165.6024331999979,,008,P010,2025_Feb_01_1602,ConditionRich,2021.2.3,59.93292307237785,
136.0,139.75,29,0.75,Stimuli/P010/things_fingerprint_05s.jpg,0,0,0.0,0,60,60,60,,,,,,,,,,,,,136.00260210000124,0.002602100001240615,None,165.85264649999954,165.85264649999954,165.85264649999954,165.85264649999954,165.85264649999954,165.85264649999954,165.85264649999954,165.85264649999954,165.85264649999954,165.85264649999954,,008,P010,2025_Feb_01_1602,ConditionRich,2021.2.3,59.93292307237785,
139.75,140.0,41,0.0,Stimuli/Blank.png,0,0,0.0,0,61,61,61,,,,,,,,,,,,,139.75767140000244,0.007671400002436712,None,169.62265619999744,169.62265619999744,169.62265619999744,169.62265619999744,169.62265619999744,169.62265619999744,169.62265619999744,169.62265619999744,169.62265619999744,169.62265619999744,,008,P010,2025_Feb_01_1602,ConditionRich,2021.2.3,59.93292307237785,
140.0,143.75,16,0.75,Stimuli/P010/sun_bqpyqljaflidcauh.jpg,1,0,0.75,0,62,62,62,,,,,,,,,,,,,140.02214230000027,0.022142300000268733,1,169.87289079999755,169.87289079999755,169.87289079999755,169.87289079999755,169.87289079999755,169.87289079999755,169.87289079999755,170.6070671999987,169.87289079999755,169.87289079999755,0.7537787000001117,008,P010,2025_Feb_01_1602,ConditionRich,2021.2.3,59.93292307237785,
143.75,144.0,41,0.0,Stimuli/Blank.png,0,0,0.0,0,63,63,63,,,,,,,,,,,,,143.75887010000224,0.008870100002241088,None,173.6095162999991,173.6095162999991,173.6095162999991,173.6095162999991,173.6095162999991,173.6095162999991,173.6095162999991,173.6095162999991,173.6095162999991,173.6095162999991,,008,P010,2025_Feb_01_1602,ConditionRich,2021.2.3,59.93292307237785,
144.0,147.75,28,0.75,Stimuli/P010/things_face_05s.jpg,1,1,1.75,0,64,64,64,,,,,,,,,,,,,144.0094799000035,0.009479900003498187,1,173.85973190000004,173.85973190000004,173.85973190000004,173.85973190000004,173.85973190000004,173.85973190000004,174.84396449999986,175.59460109999782,173.85973190000004,173.85973190000004,1.4090406999966945,008,P010,2025_Feb_01_1602,ConditionRich,2021.2.3,59.93292307237785,
147.75,148.0,41,0.0,Stimuli/Blank.png,0,0,0.0,0,65,65,65,,,,,,,,,,,,,147.76541890000226,0.015418900002259761,None,177.62976340000023,177.62976340000023,177.62976340000023,177.62976340000023,177.62976340000023,177.62976340000023,177.62976340000023,177.62976340000023,177.62976340000023,177.62976340000023,,008,P010,2025_Feb_01_1602,ConditionRich,2021.2.3,59.93292307237785,
148.0,151.75,8,0.75,Stimuli/P010/sun_batcnoizlkeiqdtx.jpg,0,0,0.0,0,66,66,66,,,,,,,,,,,,,148.0292690000024,0.029269000002386747,None,177.87995699999738,177.87995699999738,177.87995699999738,177.87995699999738,177.87995699999738,177.87995699999738,177.87995699999738,177.87995699999738,177.87995699999738,177.87995699999738,,008,P010,2025_Feb_01_1602,ConditionRich,2021.2.3,59.93292307237785,
151.75,152.0,41,0.0,Stimuli/Blank.png,0,0,0.0,0,67,67,67,,,,,,,,,,,,,151.74920180000117,-0.0007981999988260213,None,181.59991509999963,181.59991509999963,181.59991509999963,181.59991509999963,181.59991509999963,181.59991509999963,181.59991509999963,181.59991509999963,181.59991509999963,181.59991509999963,,008,P010,2025_Feb_01_1602,ConditionRich,2021.2.3,59.93292307237785,
152.0,155.75,40,0.75,Stimuli/P010/things_woman_05s.jpg,0,0,0.0,0,68,68,68,,,,,,,,,,,,,152.00014440000086,0.0001444000008632429,None,181.85014379999848,181.85014379999848,181.85014379999848,181.85014379999848,181.85014379999848,181.85014379999848,181.85014379999848,181.85014379999848,181.85014379999848,181.85014379999848,,008,P010,2025_Feb_01_1602,ConditionRich,2021.2.3,59.93292307237785,
155.75,156.0,41,0.0,Stimuli/Blank.png,0,0,0.0,0,69,69,69,,,,,,,,,,,,,155.7562312000009,0.006231200000911485,None,185.62016179999773,185.62016179999773,185.62016179999773,185.62016179999773,185.62016179999773,185.62016179999773,185.62016179999773,185.62016179999773,185.62016179999773,185.62016179999773,,008,P010,2025_Feb_01_1602,ConditionRich,2021.2.3,59.93292307237785,
156.0,159.75,32,0.75,Stimuli/P010/things_hawk_05s.jpg,0,0,0.0,0,70,70,70,,,,,,,,,,,,,156.0206266000023,0.020626600002287887,None,185.87035689999902,185.87035689999902,185.87035689999902,185.87035689999902,185.87035689999902,185.87035689999902,185.87035689999902,185.87035689999902,185.87035689999902,185.87035689999902,,008,P010,2025_Feb_01_1602,ConditionRich,2021.2.3,59.93292307237785,
159.75,160.0,41,0.0,Stimuli/Blank.png,0,0,0.0,0,71,71,71,,,,,,,,,,,,,159.7573317000024,0.007331700002396246,None,189.60700200000065,189.60700200000065,189.60700200000065,189.60700200000065,189.60700200000065,189.60700200000065,189.60700200000065,189.60700200000065,189.60700200000065,189.60700200000065,,008,P010,2025_Feb_01_1602,ConditionRich,2021.2.3,59.93292307237785,
160.0,163.75,34,0.75,Stimuli/P010/things_man_05s.jpg,0,0,0.0,0,72,72,72,,,,,,,,,,,,,160.00644340000144,0.006443400001444388,None,189.85722349999924,189.85722349999924,189.85722349999924,189.85722349999924,189.85722349999924,189.85722349999924,189.85722349999924,189.85722349999924,189.85722349999924,189.85722349999924,,008,P010,2025_Feb_01_1602,ConditionRich,2021.2.3,59.93292307237785,
163.75,164.0,41,0.0,Stimuli/Blank.png,0,0,0.0,0,73,73,73,,,,,,,,,,,,,163.76097910000317,0.010979100003169151,None,193.6105451000003,193.6105451000003,193.6105451000003,193.6105451000003,193.6105451000003,193.6105451000003,193.6105451000003,193.6105451000003,193.6105451000003,193.6105451000003,,008,P010,2025_Feb_01_1602,ConditionRich,2021.2.3,59.93292307237785,
164.0,167.75,26,0.75,Stimuli/P010/things_cookie_sheet_05s.jpg,0,0,0.0,0,74,74,74,,,,,,,,,,,,,164.01042540000344,0.01042540000344161,None,193.86077060000025,193.86077060000025,193.86077060000025,193.86077060000025,193.86077060000025,193.86077060000025,193.86077060000025,193.86077060000025,193.86077060000025,193.86077060000025,,008,P010,2025_Feb_01_1602,ConditionRich,2021.2.3,59.93292307237785,
167.75,168.0,41,0.0,Stimuli/Blank.png,0,0,0.0,0,75,75,75,,,,,,,,,,,,,167.76550170000337,0.015501700003369479,None,197.6307803999989,197.6307803999989,197.6307803999989,197.6307803999989,197.6307803999989,197.6307803999989,197.6307803999989,197.6307803999989,197.6307803999989,197.6307803999989,,008,P010,2025_Feb_01_1602,ConditionRich,2021.2.3,59.93292307237785,
168.0,171.75,33,0.75,Stimuli/P010/things_lizard_05n.jpg,0,0,0.0,0,76,76,76,,,,,,,,,,,,,168.01358729999993,0.013587299999926472,None,197.86430330000076,197.86430330000076,197.86430330000076,197.86430330000076,197.86430330000076,197.86430330000076,197.86430330000076,197.86430330000076,197.86430330000076,197.86430330000076,,008,P010,2025_Feb_01_1602,ConditionRich,2021.2.3,59.93292307237785,
171.75,172.0,41,0.0,Stimuli/Blank.png,0,0,0.0,0,77,77,77,,,,,,,,,,,,,171.75033360000089,0.0003336000008857809,None,201.60094989999925,201.60094989999925,201.60094989999925,201.60094989999925,201.60094989999925,201.60094989999925,201.60094989999925,201.60094989999925,201.60094989999925,201.60094989999925,,008,P010,2025_Feb_01_1602,ConditionRich,2021.2.3,59.93292307237785,
172.0,175.75,23,0.75,Stimuli/P010/things_charger_05s.jpg,0,0,0.0,0,78,78,78,,,,,,,,,,,,,172.00093650000053,0.0009365000005345792,None,201.85116600000038,201.85116600000038,201.85116600000038,201.85116600000038,201.85116600000038,201.85116600000038,201.85116600000038,201.85116600000038,201.85116600000038,201.85116600000038,,008,P010,2025_Feb_01_1602,ConditionRich,2021.2.3,59.93292307237785,
175.75,176.0,41,0.0,Stimuli/Blank.png,0,0,0.0,0,79,79,79,,,,,,,,,,,,,175.75459840000258,0.004598400002578273,None,205.6044927999974,205.6044927999974,205.6044927999974,205.6044927999974,205.6044927999974,205.6044927999974,205.6044927999974,205.6044927999974,205.6044927999974,205.6044927999974,,008,P010,2025_Feb_01_1602,ConditionRich,2021.2.3,59.93292307237785,
176.0,179.75,17,0.75,Stimuli/P010/sun_brkrfjpyfglmigkk.jpg,0,0,0.0,0,80,80,80,,,,,,,,,,,,,176.00419740000143,0.004197400001430651,None,205.8547178000008,205.8547178000008,205.8547178000008,205.8547178000008,205.8547178000008,205.8547178000008,205.8547178000008,205.8547178000008,205.8547178000008,205.8547178000008,,008,P010,2025_Feb_01_1602,ConditionRich,2021.2.3,59.93292307237785,
179.75,180.0,41,0.0,Stimuli/Blank.png,0,0,0.0,0,81,81,81,,,,,,,,,,,,,179.76000280000153,0.010002800001529977,None,209.62473259999751,209.62473259999751,209.62473259999751,209.62473259999751,209.62473259999751,209.62473259999751,209.62473259999751,209.62473259999751,209.62473259999751,209.62473259999751,,008,P010,2025_Feb_01_1602,ConditionRich,2021.2.3,59.93292307237785,
180.0,196.0,0,0.0,Stimuli/Blank.png,1,7,7.75,0,82,82,82,,,,,,,,,,,,,180.02419070000178,0.024190700001781806,1,209.87504009999975,209.87504009999975,209.87504009999975,209.87504009999975,209.87504009999975,209.87504009999975,216.86444449999908,217.6151084999983,209.87504009999975,209.87504009999975,7.478540399999474,008,P010,2025_Feb_01_1602,ConditionRich,2021.2.3,59.93292307237785,
196.0,199.75,18,0.75,Stimuli/P010/sun_bwjdahsxcqepqqbm.jpg,0,0,0.0,0,83,83,83,,,,,,,,,,,,,196.00580750000154,0.005807500001537846,None,225.8557492,225.8557492,225.8557492,225.8557492,225.8557492,225.8557492,225.8557492,225.8557492,225.8557492,225.8557492,,008,P010,2025_Feb_01_1602,ConditionRich,2021.2.3,59.93292307237785,
199.75,200.0,41,0.0,Stimuli/Blank.png,0,0,0.0,0,84,84,84,,,,,,,,,,,,,199.76033400000233,0.010334000002330868,None,229.62574769999992,229.62574769999992,229.62574769999992,229.62574769999992,229.62574769999992,229.62574769999992,229.62574769999992,229.62574769999992,229.62574769999992,229.62574769999992,,008,P010,2025_Feb_01_1602,ConditionRich,2021.2.3,59.93292307237785,
200.0,203.75,36,0.75,Stimuli/P010/things_pelican_05s.jpg,0,0,0.0,0,85,85,85,,,,,,,,,,,,,200.02625660000194,0.026256600001943298,None,229.89266569999745,229.89266569999745,229.89266569999745,229.89266569999745,229.89266569999745,229.89266569999745,229.89266569999745,229.89266569999745,229.89266569999745,229.89266569999745,,008,P010,2025_Feb_01_1602,ConditionRich,2021.2.3,59.93292307237785,
203.75,204.0,41,0.0,Stimuli/Blank.png,0,0,0.0,0,86,86,86,,,,,,,,,,,,,203.77942860000257,0.029428600002574967,None,233.62925189999805,233.62925189999805,233.62925189999805,233.62925189999805,233.62925189999805,233.62925189999805,233.62925189999805,233.62925189999805,233.62925189999805,233.62925189999805,,008,P010,2025_Feb_01_1602,ConditionRich,2021.2.3,59.93292307237785,
204.0,207.75,21,0.75,Stimuli/P010/things_boy_05s.jpg,0,0,0.0,0,87,87,87,,,,,,,,,,,,,204.01526379999996,0.015263799999956973,None,233.8795093000008,233.8795093000008,233.8795093000008,233.8795093000008,233.8795093000008,233.8795093000008,233.8795093000008,233.8795093000008,233.8795093000008,233.8795093000008,,008,P010,2025_Feb_01_1602,ConditionRich,2021.2.3,59.93292307237785,
207.75,208.0,41,0.0,Stimuli/Blank.png,0,0,0.0,0,88,88,88,,,,,,,,,,,,,207.76641630000086,0.0164163000008557,None,237.61613939999734,237.61613939999734,237.61613939999734,237.61613939999734,237.61613939999734,237.61613939999734,237.61613939999734,237.61613939999734,237.61613939999734,237.61613939999734,,008,P010,2025_Feb_01_1602,ConditionRich,2021.2.3,59.93292307237785,
208.0,211.75,22,0.75,Stimuli/P010/things_butterfly_05s.jpg,0,0,0.0,0,89,89,89,,,,,,,,,,,,,208.00017880000087,0.00017880000086734071,None,237.86636490000092,237.86636490000092,237.86636490000092,237.86636490000092,237.86636490000092,237.86636490000092,237.86636490000092,237.86636490000092,237.86636490000092,237.86636490000092,,008,P010,2025_Feb_01_1602,ConditionRich,2021.2.3,59.93292307237785,
211.75,212.0,41,0.0,Stimuli/Blank.png,0,0,0.0,0,90,90,90,,,,,,,,,,,,,211.7705500000011,0.020550000001094304,None,241.6197033999997,241.6197033999997,241.6197033999997,241.6197033999997,241.6197033999997,241.6197033999997,241.6197033999997,241.6197033999997,241.6197033999997,241.6197033999997,,008,P010,2025_Feb_01_1602,ConditionRich,2021.2.3,59.93292307237785,
212.0,215.75,5,0.75,Stimuli/P010/sun_akqvdmuauoxeafrj.jpg,0,0,0.0,0,91,91,91,,,,,,,,,,,,,212.00257300000158,0.002573000001575565,None,241.8699158999989,241.8699158999989,241.8699158999989,241.8699158999989,241.8699158999989,241.8699158999989,241.8699158999989,241.8699158999989,241.8699158999989,241.8699158999989,,008,P010,2025_Feb_01_1602,ConditionRich,2021.2.3,59.93292307237785,
215.75,216.0,41,0.0,Stimuli/Blank.png,0,0,0.0,0,92,92,92,,,,,,,,,,,,,215.77324210000006,0.023242100000061328,None,245.6232338000009,245.6232338000009,245.6232338000009,245.6232338000009,245.6232338000009,245.6232338000009,245.6232338000009,245.6232338000009,245.6232338000009,245.6232338000009,,008,P010,2025_Feb_01_1602,ConditionRich,2021.2.3,59.93292307237785,
216.0,219.75,27,0.75,Stimuli/P010/things_curling_iron_05s.jpg,1,2,2.75,0,93,93,93,,,,,,,,,,,,,216.00607440000022,0.006074400000215974,1,245.85676039999817,245.85676039999817,245.85676039999817,245.85676039999817,245.85676039999817,245.85676039999817,247.84186190000037,248.59250889999748,245.85676039999817,245.85676039999817,2.3371871000017563,008,P010,2025_Feb_01_1602,ConditionRich,2021.2.3,59.93292307237785,
219.75,220.0,41,0.0,Stimuli/Blank.png,0,0,0.0,0,94,94,94,,,,,,,,,,,,,219.76000380000187,0.010003800001868512,None,249.61008289999882,249.61008289999882,249.61008289999882,249.61008289999882,249.61008289999882,249.61008289999882,249.61008289999882,249.61008289999882,249.61008289999882,249.61008289999882,,008,P010,2025_Feb_01_1602,ConditionRich,2021.2.3,59.93292307237785,
220.0,223.75,16,0.75,Stimuli/P010/sun_bqpyqljaflidcauh.jpg,0,0,0.0,0,95,95,95,,,,,,,,,,,,,220.01027590000012,0.010275900000124238,None,249.86031979999825,249.86031979999825,249.86031979999825,249.86031979999825,249.86031979999825,249.86031979999825,249.86031979999825,249.86031979999825,249.86031979999825,249.86031979999825,,008,P010,2025_Feb_01_1602,ConditionRich,2021.2.3,59.93292307237785,
223.75,224.0,41,0.0,Stimuli/Blank.png,0,0,0.0,0,96,96,96,,,,,,,,,,,,,223.76499070000136,0.014990700001362711,None,253.63031649999903,253.63031649999903,253.63031649999903,253.63031649999903,253.63031649999903,253.63031649999903,253.63031649999903,253.63031649999903,253.63031649999903,253.63031649999903,,008,P010,2025_Feb_01_1602,ConditionRich,2021.2.3,59.93292307237785,
224.0,227.75,37,0.75,Stimuli/P010/things_pug_05s.jpg,0,0,0.0,0,97,97,97,,,,,,,,,,,,,224.03091340000174,0.03091340000173659,None,253.88053030000083,253.88053030000083,253.88053030000083,253.88053030000083,253.88053030000083,253.88053030000083,253.88053030000083,253.88053030000083,253.88053030000083,253.88053030000083,,008,P010,2025_Feb_01_1602,ConditionRich,2021.2.3,59.93292307237785,
227.75,228.0,41,0.0,Stimuli/Blank.png,0,0,0.0,0,98,98,98,,,,,,,,,,,,,227.75042720000056,0.00042720000055851415,None,257.6004949999988,257.6004949999988,257.6004949999988,257.6004949999988,257.6004949999988,257.6004949999988,257.6004949999988,257.6004949999988,257.6004949999988,257.6004949999988,,008,P010,2025_Feb_01_1602,ConditionRich,2021.2.3,59.93292307237785,
228.0,231.75,39,0.75,Stimuli/P010/things_tiara_05s.jpg,1,2,2.75,0,99,99,99,,,,,,,,,,,,,228.0009624000013,0.0009624000012991019,1,257.85072709999804,257.85072709999804,257.85072709999804,257.85072709999804,257.85072709999804,257.85072709999804,259.83577349999905,260.58645369999795,257.85072709999804,257.85072709999804,2.495228399999178,008,P010,2025_Feb_01_1602,ConditionRich,2021.2.3,59.93292307237785,
231.75,232.0,41,0.0,Stimuli/Blank.png,0,0,0.0,0,100,100,100,,,,,,,,,,,,,231.75551310000083,0.005513100000825943,None,261.6207184999985,261.6207184999985,261.6207184999985,261.6207184999985,261.6207184999985,261.6207184999985,261.6207184999985,261.6207184999985,261.6207184999985,261.6207184999985,,008,P010,2025_Feb_01_1602,ConditionRich,2021.2.3,59.93292307237785,
232.0,235.75,25,0.75,Stimuli/P010/things_clothespin_05s.jpg,0,0,0.0,0,101,101,101,,,,,,,,,,,,,232.02029700000276,0.02029700000275625,None,261.87093749999985,261.87093749999985,261.87093749999985,261.87093749999985,261.87093749999985,261.87093749999985,261.87093749999985,261.87093749999985,261.87093749999985,261.87093749999985,,008,P010,2025_Feb_01_1602,ConditionRich,2021.2.3,59.93292307237785,
235.75,236.0,41,0.0,Stimuli/Blank.png,0,0,0.0,0,102,102,102,,,,,,,,,,,,,235.7574674000025,0.0074674000024970155,None,265.607573199999,265.607573199999,265.607573199999,265.607573199999,265.607573199999,265.607573199999,265.607573199999,265.607573199999,265.607573199999,265.607573199999,,008,P010,2025_Feb_01_1602,ConditionRich,2021.2.3,59.93292307237785,
236.0,239.75,38,0.75,Stimuli/P010/things_roadsweeper_05s.jpg,0,0,0.0,0,103,103,103,,,,,,,,,,,,,236.00721110000086,0.007211100000859005,None,265.87449529999867,265.87449529999867,265.87449529999867,265.87449529999867,265.87449529999867,265.87449529999867,265.87449529999867,265.87449529999867,265.87449529999867,265.87449529999867,,008,P010,2025_Feb_01_1602,ConditionRich,2021.2.3,59.93292307237785,
239.75,240.0,41,0.0,Stimuli/Blank.png,0,0,0.0,0,104,104,104,,,,,,,,,,,,,239.78000470000188,0.030004700001882156,None,269.6444957999993,269.6444957999993,269.6444957999993,269.6444957999993,269.6444957999993,269.6444957999993,269.6444957999993,269.6444957999993,269.6444957999993,269.6444957999993,,008,P010,2025_Feb_01_1602,ConditionRich,2021.2.3,59.93292307237785,
240.0,243.75,6,0.75,Stimuli/P010/sun_amkrwcyvinmsylsz.jpg,1,0,0.75,0,105,105,105,,,,,,,,,,,,,240.0284750000028,0.02847500000279979,1,269.89469689999896,269.89469689999896,269.89469689999896,269.89469689999896,269.89469689999896,269.89469689999896,269.89469689999896,270.6120364999988,269.89469689999896,269.89469689999896,2.107978000000003,008,P010,2025_Feb_01_1602,ConditionRich,2021.2.3,59.93292307237785,
243.75,244.0,41,0.0,Stimuli/Blank.png,0,0,0.0,0,106,106,106,,,,,,,,,,,,,243.78126500000144,0.03126500000144006,None,273.6313408999995,273.6313408999995,273.6313408999995,273.6313408999995,273.6313408999995,273.6313408999995,273.6313408999995,273.6313408999995,273.6313408999995,273.6313408999995,,008,P010,2025_Feb_01_1602,ConditionRich,2021.2.3,59.93292307237785,
244.0,247.75,23,0.75,Stimuli/P010/things_charger_05s.jpg,0,0,0.0,0,107,107,107,,,,,,,,,,,,,244.01420380000127,0.014203800001268974,None,273.86488140000074,273.86488140000074,273.86488140000074,273.86488140000074,273.86488140000074,273.86488140000074,273.86488140000074,273.86488140000074,273.86488140000074,273.86488140000074,,008,P010,2025_Feb_01_1602,ConditionRich,2021.2.3,59.93292307237785,
247.75,248.0,41,0.0,Stimuli/Blank.png,0,0,0.0,0,108,108,108,,,,,,,,,,,,,247.75142230000347,0.0014223000034689903,None,277.6015221999987,277.6015221999987,277.6015221999987,277.6015221999987,277.6015221999987,277.6015221999987,277.6015221999987,277.6015221999987,277.6015221999987,277.6015221999987,,008,P010,2025_Feb_01_1602,ConditionRich,2021.2.3,59.93292307237785,
248.0,251.75,7,0.75,Stimuli/P010/sun_apiogxmvvzfmtsmj.jpg,0,0,0.0,0,109,109,109,,,,,,,,,,,,,248.0015467000012,0.001546700001199497,None,277.85174579999875,277.85174579999875,277.85174579999875,277.85174579999875,277.85174579999875,277.85174579999875,277.85174579999875,277.85174579999875,277.85174579999875,277.85174579999875,,008,P010,2025_Feb_01_1602,ConditionRich,2021.2.3,59.93292307237785,
251.75,252.0,41,0.0,Stimuli/Blank.png,0,0,0.0,0,110,110,110,,,,,,,,,,,,,251.75516900000002,0.005169000000023516,None,281.60506039999746,281.60506039999746,281.60506039999746,281.60506039999746,281.60506039999746,281.60506039999746,281.60506039999746,281.60506039999746,281.60506039999746,281.60506039999746,,008,P010,2025_Feb_01_1602,ConditionRich,2021.2.3,59.93292307237785,
252.0,255.75,26,0.75,Stimuli/P010/things_cookie_sheet_05s.jpg,0,0,0.0,0,111,111,111,,,,,,,,,,,,,252.00472320000335,0.004723200003354577,None,281.8552786,281.8552786,281.8552786,281.8552786,281.8552786,281.8552786,281.8552786,281.8552786,281.8552786,281.8552786,,008,P010,2025_Feb_01_1602,ConditionRich,2021.2.3,59.93292307237785,
255.75,256.0,41,0.0,Stimuli/Blank.png,0,0,0.0,0,112,112,112,,,,,,,,,,,,,255.7602289000024,0.010228900002402952,None,285.62529879999784,285.62529879999784,285.62529879999784,285.62529879999784,285.62529879999784,285.62529879999784,285.62529879999784,285.62529879999784,285.62529879999784,285.62529879999784,,008,P010,2025_Feb_01_1602,ConditionRich,2021.2.3,59.93292307237785,
256.0,259.75,3,0.75,Stimuli/P010/sun_aewgwsmvsgzleqhw.jpg,0,0,0.0,0,113,113,113,,,,,,,,,,,,,256.02569890000086,0.025698900000861613,None,285.8755232000003,285.8755232000003,285.8755232000003,285.8755232000003,285.8755232000003,285.8755232000003,285.8755232000003,285.8755232000003,285.8755232000003,285.8755232000003,,008,P010,2025_Feb_01_1602,ConditionRich,2021.2.3,59.93292307237785,
259.75,260.0,41,0.0,Stimuli/Blank.png,0,0,0.0,0,114,114,114,,,,,,,,,,,,,259.76230110000324,0.012301100003242027,None,289.61223600000085,289.61223600000085,289.61223600000085,289.61223600000085,289.61223600000085,289.61223600000085,289.61223600000085,289.61223600000085,289.61223600000085,289.61223600000085,,008,P010,2025_Feb_01_1602,ConditionRich,2021.2.3,59.93292307237785,
260.0,263.75,11,0.75,Stimuli/P010/sun_bfyvfqiimvdaxlqn.jpg,0,0,0.0,0,115,115,115,,,,,,,,,,,,,260.0119132,0.011913199999980861,None,289.8623654000003,289.8623654000003,289.8623654000003,289.8623654000003,289.8623654000003,289.8623654000003,289.8623654000003,289.8623654000003,289.8623654000003,289.8623654000003,,008,P010,2025_Feb_01_1602,ConditionRich,2021.2.3,59.93292307237785,
263.75,264.0,41,0.0,Stimuli/Blank.png,0,0,0.0,0,116,116,116,,,,,,,,,,,,,263.7656717000027,0.015671700002712896,None,293.61569079999754,293.61569079999754,293.61569079999754,293.61569079999754,293.61569079999754,293.61569079999754,293.61569079999754,293.61569079999754,293.61569079999754,293.61569079999754,,008,P010,2025_Feb_01_1602,ConditionRich,2021.2.3,59.93292307237785,
264.0,267.75,8,0.75,Stimuli/P010/sun_batcnoizlkeiqdtx.jpg,1,1,1.75,0,117,117,117,,,,,,,,,,,,,264.00129190000007,0.0012919000000692904,1,293.86591639999824,293.86591639999824,293.86591639999824,293.86591639999824,293.86591639999824,293.86591639999824,294.8500991000001,295.6007647999977,293.86591639999824,293.86591639999824,1.4667884000009508,008,P010,2025_Feb_01_1602,ConditionRich,2021.2.3,59.93292307237785,
267.75,268.0,41,0.0,Stimuli/Blank.png,0,0,0.0,0,118,118,118,,,,,,,,,,,,,267.76872580000054,0.018725800000538584,None,297.6193096999996,297.6193096999996,297.6193096999996,297.6193096999996,297.6193096999996,297.6193096999996,297.6193096999996,297.6193096999996,297.6193096999996,297.6193096999996,,008,P010,2025_Feb_01_1602,ConditionRich,2021.2.3,59.93292307237785,
268.0,271.75,29,0.75,Stimuli/P010/things_fingerprint_05s.jpg,0,0,0.0,0,119,119,119,,,,,,,,,,,,,268.0022422000002,0.0022422000001824927,None,297.8527776999981,297.8527776999981,297.8527776999981,297.8527776999981,297.8527776999981,297.8527776999981,297.8527776999981,297.8527776999981,297.8527776999981,297.8527776999981,,008,P010,2025_Feb_01_1602,ConditionRich,2021.2.3,59.93292307237785,
271.75,272.0,41,0.0,Stimuli/Blank.png,0,0,0.0,0,120,120,120,,,,,,,,,,,,,271.75609050000276,0.006090500002756016,None,301.6060956000001,301.6060956000001,301.6060956000001,301.6060956000001,301.6060956000001,301.6060956000001,301.6060956000001,301.6060956000001,301.6060956000001,301.6060956000001,,008,P010,2025_Feb_01_1602,ConditionRich,2021.2.3,59.93292307237785,
272.0,275.75,19,0.75,Stimuli/P010/sun_bwvfnogmotsvhofs.jpg,0,0,0.0,0,121,121,121,,,,,,,,,,,,,272.00559270000304,0.005592700003035134,None,301.8563092000004,301.8563092000004,301.8563092000004,301.8563092000004,301.8563092000004,301.8563092000004,301.8563092000004,301.8563092000004,301.8563092000004,301.8563092000004,,008,P010,2025_Feb_01_1602,ConditionRich,2021.2.3,59.93292307237785,
275.75,276.0,41,0.0,Stimuli/Blank.png,0,0,0.0,0,122,122,122,,,,,,,,,,,,,275.7589328000031,0.008932800003094599,None,305.6096723999981,305.6096723999981,305.6096723999981,305.6096723999981,305.6096723999981,305.6096723999981,305.6096723999981,305.6096723999981,305.6096723999981,305.6096723999981,,008,P010,2025_Feb_01_1602,ConditionRich,2021.2.3,59.93292307237785,
276.0,292.0,0,0.0,Stimuli/Blank.png,1,7,7.75,0,123,123,123,,,,,,,,,,,,,276.0099027000033,0.00990270000329474,1,305.85985639999853,305.85985639999853,305.85985639999853,305.85985639999853,305.85985639999853,305.85985639999853,312.84936580000067,313.6000232000006,305.85985639999853,305.85985639999853,7.55486910000036,008,P010,2025_Feb_01_1602,ConditionRich,2021.2.3,59.93292307237785,
292.0,295.75,10,0.75,Stimuli/P010/sun_bdkttewvyfdarikm.jpg,0,0,0.0,0,124,124,124,,,,,,,,,,,,,292.00766210000074,0.007662100000743521,None,321.8740163000002,321.8740163000002,321.8740163000002,321.8740163000002,321.8740163000002,321.8740163000002,321.8740163000002,321.8740163000002,321.8740163000002,321.8740163000002,,008,P010,2025_Feb_01_1602,ConditionRich,2021.2.3,59.93292307237785,
295.75,296.0,41,0.0,Stimuli/Blank.png,0,0,0.0,0,125,125,125,,,,,,,,,,,,,295.77674900000056,0.026749000000563683,None,325.62731989999884,325.62731989999884,325.62731989999884,325.62731989999884,325.62731989999884,325.62731989999884,325.62731989999884,325.62731989999884,325.62731989999884,325.62731989999884,,008,P010,2025_Feb_01_1602,ConditionRich,2021.2.3,59.93292307237785,
296.0,299.75,31,0.75,Stimuli/P010/things_girl_05s.jpg,0,0,0.0,0,126,126,126,,,,,,,,,,,,,296.01096600000164,0.010966000001644716,None,325.8608767000005,325.8608767000005,325.8608767000005,325.8608767000005,325.8608767000005,325.8608767000005,325.8608767000005,325.8608767000005,325.8608767000005,325.8608767000005,,008,P010,2025_Feb_01_1602,ConditionRich,2021.2.3,59.93292307237785,
299.75,300.0,41,0.0,Stimuli/Blank.png,0,0,0.0,0,127,127,127,,,,,,,,,,,,,299.7655838999999,0.0155838999999105,None,329.630889,329.630889,329.630889,329.630889,329.630889,329.630889,329.630889,329.630889,329.630889,329.630889,,008,P010,2025_Feb_01_1602,ConditionRich,2021.2.3,59.93292307237785,
300.0,303.75,1,0.75,Stimuli/P010/sun_abqdlumenyzawlme.jpg,1,1,1.75,0,128,128,128,,,,,,,,,,,,,300.01653030000307,0.016530300003068987,1,329.881106599998,329.881106599998,329.881106599998,329.881106599998,329.881106599998,329.881106599998,330.8652968999995,331.63265039999897,329.881106599998,329.881106599998,1.8559054999968794,008,P010,2025_Feb_01_1602,ConditionRich,2021.2.3,59.93292307237785,
303.75,304.0,41,0.0,Stimuli/Blank.png,0,0,0.0,0,129,129,129,,,,,,,,,,,,,303.7675518000033,0.017551800003275275,None,333.61838349999744,333.61838349999744,333.61838349999744,333.61838349999744,333.61838349999744,333.61838349999744,333.61838349999744,333.61838349999744,333.61838349999744,333.61838349999744,,008,P010,2025_Feb_01_1602,ConditionRich,2021.2.3,59.93292307237785,
304.0,307.75,24,0.75,Stimuli/P010/things_cigar_05n.jpg,1,1,1.75,0,130,130,130,,,,,,,,,,,,,304.0007519000028,0.0007519000027969014,1,333.8513485000003,333.8513485000003,333.8513485000003,333.8513485000003,333.8513485000003,333.8513485000003,334.835478099998,335.58614979999766,333.8513485000003,333.8513485000003,1.409417899998516,008,P010,2025_Feb_01_1602,ConditionRich,2021.2.3,59.93292307237785,
307.75,308.0,41,0.0,Stimuli/Blank.png,0,0,0.0,0,131,131,131,,,,,,,,,,,,,307.75478980000116,0.004789800001162803,None,337.60460669999884,337.60460669999884,337.60460669999884,337.60460669999884,337.60460669999884,337.60460669999884,337.60460669999884,337.60460669999884,337.60460669999884,337.60460669999884,,008,P010,2025_Feb_01_1602,ConditionRich,2021.2.3,59.93292307237785,
308.0,311.75,32,0.75,Stimuli/P010/things_hawk_05s.jpg,0,0,0.0,0,132,132,132,,,,,,,,,,,,,308.00447090000307,0.00447090000307071,None,337.85481739999886,337.85481739999886,337.85481739999886,337.85481739999886,337.85481739999886,337.85481739999886,337.85481739999886,337.85481739999886,337.85481739999886,337.85481739999886,,008,P010,2025_Feb_01_1602,ConditionRich,2021.2.3,59.93292307237785,
311.75,312.0,41,0.0,Stimuli/Blank.png,0,0,0.0,0,133,133,133,,,,,,,,,,,,,311.76011110000036,0.01011110000035842,None,341.62482570000066,341.62482570000066,341.62482570000066,341.62482570000066,341.62482570000066,341.62482570000066,341.62482570000066,341.62482570000066,341.62482570000066,341.62482570000066,,008,P010,2025_Feb_01_1602,ConditionRich,2021.2.3,59.93292307237785,
312.0,315.75,9,0.75,Stimuli/P010/sun_bdjkvwqqqycuixtc.jpg,0,0,0.0,0,134,134,134,,,,,,,,,,,,,312.0243009000005,0.02430090000052587,None,341.8750405999999,341.8750405999999,341.8750405999999,341.8750405999999,341.8750405999999,341.8750405999999,341.8750405999999,341.8750405999999,341.8750405999999,341.8750405999999,,008,P010,2025_Feb_01_1602,ConditionRich,2021.2.3,59.93292307237785,
315.75,316.0,41,0.0,Stimuli/Blank.png,0,0,0.0,0,135,135,135,,,,,,,,,,,,,315.76114860000234,0.0111486000023433,None,345.61168539999926,345.61168539999926,345.61168539999926,345.61168539999926,345.61168539999926,345.61168539999926,345.61168539999926,345.61168539999926,345.61168539999926,345.61168539999926,,008,P010,2025_Feb_01_1602,ConditionRich,2021.2.3,59.93292307237785,
316.0,319.75,14,0.75,Stimuli/P010/sun_blaqxdebghixzyyw.jpg,1,2,2.75,0,136,136,136,,,,,,,,,,,,,316.0113248000016,0.011324800001602853,1,345.86190089999945,345.86190089999945,345.86190089999945,345.86190089999945,345.86190089999945,345.86190089999945,347.8470464999991,348.59769550000055,345.86190089999945,345.86190089999945,2.459873800002242,008,P010,2025_Feb_01_1602,ConditionRich,2021.2.3,59.93292307237785,
319.75,320.0,41,0.0,Stimuli/Blank.png,0,0,0.0,0,137,137,137,,,,,,,,,,,,,319.76581890000307,0.015818900003068848,None,349.61524719999943,349.61524719999943,349.61524719999943,349.61524719999943,349.61524719999943,349.61524719999943,349.61524719999943,349.61524719999943,349.61524719999943,349.61524719999943,,008,P010,2025_Feb_01_1602,ConditionRich,2021.2.3,59.93292307237785,
320.0,323.75,2,0.75,Stimuli/P010/sun_acvloibbxiqpiwnv.jpg,0,0,0.0,0,138,138,138,,,,,,,,,,,,,320.0002029000025,0.00020290000247769058,None,349.8654482999991,349.8654482999991,349.8654482999991,349.8654482999991,349.8654482999991,349.8654482999991,349.8654482999991,349.8654482999991,349.8654482999991,349.8654482999991,,008,P010,2025_Feb_01_1602,ConditionRich,2021.2.3,59.93292307237785,
323.75,324.0,41,0.0,Stimuli/Blank.png,0,0,0.0,0,139,139,139,,,,,,,,,,,,,323.77028540000174,0.020285400001739617,None,353.63545130000057,353.63545130000057,353.63545130000057,353.63545130000057,353.63545130000057,353.63545130000057,353.63545130000057,353.63545130000057,353.63545130000057,353.63545130000057,,008,P010,2025_Feb_01_1602,ConditionRich,2021.2.3,59.93292307237785,
324.0,327.75,4,0.75,Stimuli/P010/sun_afkzdukwewwzqtmr.jpg,1,0,0.75,0,140,140,140,,,,,,,,,,,,,324.0189680000003,0.018968000000313623,1,353.86898629999996,353.86898629999996,353.86898629999996,353.86898629999996,353.86898629999996,353.86898629999996,353.86898629999996,354.6029732999996,353.86898629999996,353.86898629999996,0.4619481000008818,008,P010,2025_Feb_01_1602,ConditionRich,2021.2.3,59.93292307237785,
327.75,328.0,41,0.0,Stimuli/Blank.png,0,0,0.0,0,141,141,141,,,,,,,,,,,,,327.756609,0.006609000000025844,None,357.60561379999854,357.60561379999854,357.60561379999854,357.60561379999854,357.60561379999854,357.60561379999854,357.60561379999854,357.60561379999854,357.60561379999854,357.60561379999854,,008,P010,2025_Feb_01_1602,ConditionRich,2021.2.3,59.93292307237785,
328.0,331.75,12,0.75,Stimuli/P010/sun_birmwgkdtrlevcaf.jpg,0,0,0.0,0,142,142,142,,,,,,,,,,,,,328.0064440000024,0.006444000002375105,None,357.87255019999793,357.87255019999793,357.87255019999793,357.87255019999793,357.87255019999793,357.87255019999793,357.87255019999793,357.87255019999793,357.87255019999793,357.87255019999793,,008,P010,2025_Feb_01_1602,ConditionRich,2021.2.3,59.93292307237785,
331.75,332.0,41,0.0,Stimuli/Blank.png,0,0,0.0,0,143,143,143,,,,,,,,,,,,,331.77590770000097,0.02590770000097109,None,361.62586269999883,361.62586269999883,361.62586269999883,361.62586269999883,361.62586269999883,361.62586269999883,361.62586269999883,361.62586269999883,361.62586269999883,361.62586269999883,,008,P010,2025_Feb_01_1602,ConditionRich,2021.2.3,59.93292307237785,
332.0,335.75,30,0.75,Stimuli/P010/things_fire_05s.jpg,0,0,0.0,0,144,144,144,,,,,,,,,,,,,332.0114386000023,0.011438600002293242,None,361.87607819999903,361.87607819999903,361.87607819999903,361.87607819999903,361.87607819999903,361.87607819999903,361.87607819999903,361.87607819999903,361.87607819999903,361.87607819999903,,008,P010,2025_Feb_01_1602,ConditionRich,2021.2.3,59.93292307237785,
335.75,336.0,41,0.0,Stimuli/Blank.png,0,0,0.0,0,145,145,145,,,,,,,,,,,,,335.7806193000033,0.030619300003309036,None,365.64607980000073,365.64607980000073,365.64607980000073,365.64607980000073,365.64607980000073,365.64607980000073,365.64607980000073,365.64607980000073,365.64607980000073,365.64607980000073,,008,P010,2025_Feb_01_1602,ConditionRich,2021.2.3,59.93292307237785,
336.0,339.75,28,0.75,Stimuli/P010/things_face_05s.jpg,0,0,0.0,0,146,146,146,,,,,,,,,,,,,336.0290683000021,0.029068300002109027,None,365.8795939999982,365.8795939999982,365.8795939999982,365.8795939999982,365.8795939999982,365.8795939999982,365.8795939999982,365.8795939999982,365.8795939999982,365.8795939999982,,008,P010,2025_Feb_01_1602,ConditionRich,2021.2.3,59.93292307237785,
339.75,340.0,41,0.0,Stimuli/Blank.png,0,0,0.0,0,147,147,147,,,,,,,,,,,,,339.7508385000001,0.0008385000000998843,None,369.6162556999989,369.6162556999989,369.6162556999989,369.6162556999989,369.6162556999989,369.6162556999989,369.6162556999989,369.6162556999989,369.6162556999989,369.6162556999989,,008,P010,2025_Feb_01_1602,ConditionRich,2021.2.3,59.93292307237785,
340.0,343.75,33,0.75,Stimuli/P010/things_lizard_05n.jpg,0,0,0.0,0,148,148,148,,,,,,,,,,,,,340.0165605000002,0.016560500000196043,None,369.86695229999896,369.86695229999896,369.86695229999896,369.86695229999896,369.86695229999896,369.86695229999896,369.86695229999896,369.86695229999896,369.86695229999896,369.86695229999896,,008,P010,2025_Feb_01_1602,ConditionRich,2021.2.3,59.93292307237785,
343.75,344.0,41,0.0,Stimuli/Blank.png,0,0,0.0,0,149,149,149,,,,,,,,,,,,,343.75520250000045,0.005202500000450527,None,373.6198325999976,373.6198325999976,373.6198325999976,373.6198325999976,373.6198325999976,373.6198325999976,373.6198325999976,373.6198325999976,373.6198325999976,373.6198325999976,,008,P010,2025_Feb_01_1602,ConditionRich,2021.2.3,59.93292307237785,
344.0,347.75,40,0.75,Stimuli/P010/things_woman_05s.jpg,0,0,0.0,0,150,150,150,,,,,,,,,,,,,344.0198589000029,0.01985890000287327,None,373.8700451000004,373.8700451000004,373.8700451000004,373.8700451000004,373.8700451000004,373.8700451000004,373.8700451000004,373.8700451000004,373.8700451000004,373.8700451000004,,008,P010,2025_Feb_01_1602,ConditionRich,2021.2.3,59.93292307237785,
347.75,348.0,41,0.0,Stimuli/Blank.png,0,0,0.0,0,151,151,151,,,,,,,,,,,,,347.75608920000013,0.0060892000001331326,None,377.60665599999993,377.60665599999993,377.60665599999993,377.60665599999993,377.60665599999993,377.60665599999993,377.60665599999993,377.60665599999993,377.60665599999993,377.60665599999993,,008,P010,2025_Feb_01_1602,ConditionRich,2021.2.3,59.93292307237785,
348.0,351.75,13,0.75,Stimuli/P010/sun_bjimvgwadfodioes.jpg,0,0,0.0,0,152,152,152,,,,,,,,,,,,,348.00631000000067,0.00631000000066706,None,377.8568754000007,377.8568754000007,377.8568754000007,377.8568754000007,377.8568754000007,377.8568754000007,377.8568754000007,377.8568754000007,377.8568754000007,377.8568754000007,,008,P010,2025_Feb_01_1602,ConditionRich,2021.2.3,59.93292307237785,
351.75,352.0,41,0.0,Stimuli/Blank.png,0,0,0.0,0,153,153,153,,,,,,,,,,,,,351.76006620000044,0.010066200000437675,None,381.61020070000086,381.61020070000086,381.61020070000086,381.61020070000086,381.61020070000086,381.61020070000086,381.61020070000086,381.61020070000086,381.61020070000086,381.61020070000086,,008,P010,2025_Feb_01_1602,ConditionRich,2021.2.3,59.93292307237785,
352.0,355.75,34,0.75,Stimuli/P010/things_man_05s.jpg,0,0,0.0,0,154,154,154,,,,,,,,,,,,,352.0113035000031,0.01130350000312319,None,381.8604204000003,381.8604204000003,381.8604204000003,381.8604204000003,381.8604204000003,381.8604204000003,381.8604204000003,381.8604204000003,381.8604204000003,381.8604204000003,,008,P010,2025_Feb_01_1602,ConditionRich,2021.2.3,59.93292307237785,
355.75,356.0,41,0.0,Stimuli/Blank.png,0,0,0.0,0,155,155,155,,,,,,,,,,,,,355.7644680000012,0.014468000001215842,None,385.6137459999991,385.6137459999991,385.6137459999991,385.6137459999991,385.6137459999991,385.6137459999991,385.6137459999991,385.6137459999991,385.6137459999991,385.6137459999991,,008,P010,2025_Feb_01_1602,ConditionRich,2021.2.3,59.93292307237785,
356.0,359.75,17,0.75,Stimuli/P010/sun_brkrfjpyfglmigkk.jpg,0,0,0.0,0,156,156,156,,,,,,,,,,,,,356.0163820000016,0.01638200000161305,None,385.8806466999995,385.8806466999995,385.8806466999995,385.8806466999995,385.8806466999995,385.8806466999995,385.8806466999995,385.8806466999995,385.8806466999995,385.8806466999995,,008,P010,2025_Feb_01_1602,ConditionRich,2021.2.3,59.93292307237785,
359.75,360.0,41,0.0,Stimuli/Blank.png,0,0,0.0,0,157,157,157,,,,,,,,,,,,,359.76766430000134,0.01766430000134278,None,389.6173734999975,389.6173734999975,389.6173734999975,389.6173734999975,389.6173734999975,389.6173734999975,389.6173734999975,389.6173734999975,389.6173734999975,389.6173734999975,,008,P010,2025_Feb_01_1602,ConditionRich,2021.2.3,59.93292307237785,
360.0,363.75,35,0.75,Stimuli/P010/things_mushroom_05n.jpg,0,0,0.0,0,158,158,158,,,,,,,,,,,,,360.00097970000206,0.0009797000020626,None,389.8508284999989,389.8508284999989,389.8508284999989,389.8508284999989,389.8508284999989,389.8508284999989,389.8508284999989,389.8508284999989,389.8508284999989,389.8508284999989,,008,P010,2025_Feb_01_1602,ConditionRich,2021.2.3,59.93292307237785,
363.75,364.0,41,0.0,Stimuli/Blank.png,0,0,0.0,0,159,159,159,,,,,,,,,,,,,363.7553985000013,0.005398500001319917,None,393.6208315999975,393.6208315999975,393.6208315999975,393.6208315999975,393.6208315999975,393.6208315999975,393.6208315999975,393.6208315999975,393.6208315999975,393.6208315999975,,008,P010,2025_Feb_01_1602,ConditionRich,2021.2.3,59.93292307237785,
364.0,367.75,20,0.75,Stimuli/P010/sun_ddsiwinthvyejghq.jpg,0,0,0.0,0,160,160,160,,,,,,,,,,,,,364.0211937000022,0.021193700002186233,None,393.8710534999991,393.8710534999991,393.8710534999991,393.8710534999991,393.8710534999991,393.8710534999991,393.8710534999991,393.8710534999991,393.8710534999991,393.8710534999991,,008,P010,2025_Feb_01_1602,ConditionRich,2021.2.3,59.93292307237785,
367.75,368.0,41,0.0,Stimuli/Blank.png,0,0,0.0,0,161,161,161,,,,,,,,,,,,,367.75813050000215,0.008130500002152985,None,397.60775939999803,397.60775939999803,397.60775939999803,397.60775939999803,397.60775939999803,397.60775939999803,397.60775939999803,397.60775939999803,397.60775939999803,397.60775939999803,,008,P010,2025_Feb_01_1602,ConditionRich,2021.2.3,59.93292307237785,
368.0,371.75,15,0.75,Stimuli/P010/sun_boryivbddrnarrbo.jpg,0,0,0.0,0,162,162,162,,,,,,,,,,,,,368.00744080000004,0.007440800000040326,None,397.8745932999991,397.8745932999991,397.8745932999991,397.8745932999991,397.8745932999991,397.8745932999991,397.8745932999991,397.8745932999991,397.8745932999991,397.8745932999991,,008,P010,2025_Feb_01_1602,ConditionRich,2021.2.3,59.93292307237785,
371.75,372.0,41,0.0,Stimuli/Blank.png,0,0,0.0,0,163,163,163,,,,,,,,,,,,,371.77719570000045,0.027195700000447687,None,401.62791300000026,401.62791300000026,401.62791300000026,401.62791300000026,401.62791300000026,401.62791300000026,401.62791300000026,401.62791300000026,401.62791300000026,401.62791300000026,,008,P010,2025_Feb_01_1602,ConditionRich,2021.2.3,59.93292307237785,
372.0,388.0,0,0.0,Stimuli/Blank.png,1,9,9.75,0,164,164,164,,,,,,,,,,,,,372.01075480000145,0.010754800001450349,None,401.86144570000033,401.86144570000033,401.86144570000033,401.86144570000033,401.86144570000033,401.86144570000033,410.8361100000002,411.58670509999865,401.86144570000033,401.86144570000033,,008,P010,2025_Feb_01_1602,ConditionRich,2021.2.3,59.93292307237785,
