eventStartTime,eventEndTime,eventCond,imSize,imFile,responseEvent,fixRespStart,fixRespEnd,Events.thisRepN,Events.thisTrialN,Events.thisN,Events.thisIndex,Instructions.started,Instructions.stopped,participantReadyResponse.keys,participantReadyResponse.rt,participantReadyResponse.started,participantReadyResponse.stopped,startWaitforTrigger,triggerResponse.keys,triggerResponse.rt,triggerResponse.started,triggerResponse.stopped,globalTimer,actualStartTime,startTimingDiff,participantResponse.keys,participantResponse.started,participantResponse.stopped,image.started,image.stopped,fixationOutside.started,fixationOutside.stopped,fixationResponse.started,fixationResponse.stopped,fixationInside.started,fixationInside.stopped,participantResponse.rt,session,participant,date,expName,psychopyVersion,frameRate,
,,,,,,,,,,,,12.361964100000478,None,1,4.554114099999424,12.361964100000478,None,,,,,,,,,,,,,,,,,,,,,005,P010,2025_Feb_01_1534,ConditionRich,2021.2.3,59.93206101548278,
,,,,,,,,,,,,,,,,,,16.929013200002373,5,13.64338620000126,16.941520300002594,None,,,,,,,,,,,,,,,,005,P010,2025_Feb_01_1534,ConditionRich,2021.2.3,59.93206101548278,
0.0,4.0,0,0.0,Stimuli/Blank.png,0,0,0.0,0,0,0,0,,,,,,,,,,,,30.591396700001496,0.04251680000015767,0.04251680000015767,None,30.65365600000223,None,30.65365600000223,None,30.65365600000223,None,30.65365600000223,30.65365600000223,30.65365600000223,None,,005,P010,2025_Feb_01_1534,ConditionRich,2021.2.3,59.93206101548278,
4.0,7.75,21,0.75,Stimuli/P010/things_boy_05s.jpg,0,0,0.0,0,1,1,1,,,,,,,,,,,,,4.018373099999735,0.018373099999735132,None,34.62407400000302,34.62407400000302,34.62407400000302,34.62407400000302,34.62407400000302,34.62407400000302,34.62407400000302,34.62407400000302,34.62407400000302,34.62407400000302,,005,P010,2025_Feb_01_1534,ConditionRich,2021.2.3,59.93206101548278,
7.75,8.0,41,0.0,Stimuli/Blank.png,0,0,0.0,0,2,2,2,,,,,,,,,,,,,7.754359000002296,0.004359000002295943,None,38.3607677,38.3607677,38.3607677,38.3607677,38.3607677,38.3607677,38.3607677,38.3607677,38.3607677,38.3607677,,005,P010,2025_Feb_01_1534,ConditionRich,2021.2.3,59.93206101548278,
8.0,11.75,27,0.75,Stimuli/P010/things_curling_iron_05s.jpg,0,0,0.0,0,3,3,3,,,,,,,,,,,,,8.005465099999128,0.005465099999128142,None,38.61064140000235,38.61064140000235,38.61064140000235,38.61064140000235,38.61064140000235,38.61064140000235,38.61064140000235,38.61064140000235,38.61064140000235,38.61064140000235,,005,P010,2025_Feb_01_1534,ConditionRich,2021.2.3,59.93206101548278,
11.75,12.0,41,0.0,Stimuli/Blank.png,0,0,0.0,0,4,4,4,,,,,,,,,,,,,11.760009300000092,0.01000930000009248,None,42.38066340000296,42.38066340000296,42.38066340000296,42.38066340000296,42.38066340000296,42.38066340000296,42.38066340000296,42.38066340000296,42.38066340000296,42.38066340000296,,005,P010,2025_Feb_01_1534,ConditionRich,2021.2.3,59.93206101548278,
12.0,15.75,12,0.75,Stimuli/P010/sun_birmwgkdtrlevcaf.jpg,0,0,0.0,0,5,5,5,,,,,,,,,,,,,12.025886200000969,0.02588620000096853,None,42.630865000002814,42.630865000002814,42.630865000002814,42.630865000002814,42.630865000002814,42.630865000002814,42.630865000002814,42.630865000002814,42.630865000002814,42.630865000002814,,005,P010,2025_Feb_01_1534,ConditionRich,2021.2.3,59.93206101548278,
15.75,16.0,41,0.0,Stimuli/Blank.png,0,0,0.0,0,6,6,6,,,,,,,,,,,,,15.76172470000165,0.01172470000165049,None,46.36750960000063,46.36750960000063,46.36750960000063,46.36750960000063,46.36750960000063,46.36750960000063,46.36750960000063,46.36750960000063,46.36750960000063,46.36750960000063,,005,P010,2025_Feb_01_1534,ConditionRich,2021.2.3,59.93206101548278,
16.0,19.75,17,0.75,Stimuli/P010/sun_brkrfjpyfglmigkk.jpg,1,3,3.75,0,7,7,7,,,,,,,,,,,,,16.01215020000018,0.012150200000178302,1,46.61773060000269,46.61773060000269,46.61773060000269,46.61773060000269,46.61773060000269,46.61773060000269,49.60369870000068,50.354385900001944,46.61773060000269,46.61773060000269,3.421316100000695,005,P010,2025_Feb_01_1534,ConditionRich,2021.2.3,59.93206101548278,
19.75,20.0,41,0.0,Stimuli/Blank.png,0,0,0.0,0,8,8,8,,,,,,,,,,,,,19.765973600002326,0.01597360000232584,None,50.37105110000266,50.37105110000266,50.37105110000266,50.37105110000266,50.37105110000266,50.37105110000266,50.37105110000266,50.37105110000266,50.37105110000266,50.37105110000266,,005,P010,2025_Feb_01_1534,ConditionRich,2021.2.3,59.93206101548278,
20.0,23.75,25,0.75,Stimuli/P010/things_clothespin_05s.jpg,0,0,0.0,0,9,9,9,,,,,,,,,,,,,19.999767799999972,-0.00023220000002766028,None,50.621265000001586,50.621265000001586,50.621265000001586,50.621265000001586,50.621265000001586,50.621265000001586,50.621265000001586,50.621265000001586,50.621265000001586,50.621265000001586,,005,P010,2025_Feb_01_1534,ConditionRich,2021.2.3,59.93206101548278,
23.75,24.0,41,0.0,Stimuli/Blank.png,0,0,0.0,0,10,10,10,,,,,,,,,,,,,23.771179600000323,0.021179600000323262,None,54.39127720000033,54.39127720000033,54.39127720000033,54.39127720000033,54.39127720000033,54.39127720000033,54.39127720000033,54.39127720000033,54.39127720000033,54.39127720000033,,005,P010,2025_Feb_01_1534,ConditionRich,2021.2.3,59.93206101548278,
24.0,27.75,36,0.75,Stimuli/P010/things_pelican_05s.jpg,0,0,0.0,0,11,11,11,,,,,,,,,,,,,24.018807399999787,0.018807399999786867,None,54.62481310000294,54.62481310000294,54.62481310000294,54.62481310000294,54.62481310000294,54.62481310000294,54.62481310000294,54.62481310000294,54.62481310000294,54.62481310000294,,005,P010,2025_Feb_01_1534,ConditionRich,2021.2.3,59.93206101548278,
27.75,28.0,41,0.0,Stimuli/Blank.png,0,0,0.0,0,12,12,12,,,,,,,,,,,,,27.755548000001,0.005548000000999309,None,58.36145490000126,58.36145490000126,58.36145490000126,58.36145490000126,58.36145490000126,58.36145490000126,58.36145490000126,58.36145490000126,58.36145490000126,58.36145490000126,,005,P010,2025_Feb_01_1534,ConditionRich,2021.2.3,59.93206101548278,
28.0,31.75,40,0.75,Stimuli/P010/things_woman_05s.jpg,0,0,0.0,0,13,13,13,,,,,,,,,,,,,28.006317499999568,0.006317499999568099,None,58.61163750000196,58.61163750000196,58.61163750000196,58.61163750000196,58.61163750000196,58.61163750000196,58.61163750000196,58.61163750000196,58.61163750000196,58.61163750000196,,005,P010,2025_Feb_01_1534,ConditionRich,2021.2.3,59.93206101548278,
31.75,32.0,41,0.0,Stimuli/Blank.png,0,0,0.0,0,14,14,14,,,,,,,,,,,,,31.759745399998792,0.009745399998791981,None,62.36499510000067,62.36499510000067,62.36499510000067,62.36499510000067,62.36499510000067,62.36499510000067,62.36499510000067,62.36499510000067,62.36499510000067,62.36499510000067,,005,P010,2025_Feb_01_1534,ConditionRich,2021.2.3,59.93206101548278,
32.0,35.75,20,0.75,Stimuli/P010/sun_ddsiwinthvyejghq.jpg,0,0,0.0,0,15,15,15,,,,,,,,,,,,,32.00970710000183,0.009707100001833169,None,62.61521260000154,62.61521260000154,62.61521260000154,62.61521260000154,62.61521260000154,62.61521260000154,62.61521260000154,62.61521260000154,62.61521260000154,62.61521260000154,,005,P010,2025_Feb_01_1534,ConditionRich,2021.2.3,59.93206101548278,
35.75,36.0,41,0.0,Stimuli/Blank.png,0,0,0.0,0,16,16,16,,,,,,,,,,,,,35.7632463000009,0.013246300000901101,None,66.36853760000304,66.36853760000304,66.36853760000304,66.36853760000304,66.36853760000304,66.36853760000304,66.36853760000304,66.36853760000304,66.36853760000304,66.36853760000304,,005,P010,2025_Feb_01_1534,ConditionRich,2021.2.3,59.93206101548278,
36.0,39.75,16,0.75,Stimuli/P010/sun_bqpyqljaflidcauh.jpg,0,0,0.0,0,17,17,17,,,,,,,,,,,,,36.01281999999992,0.012819999999919673,None,66.63541850000183,66.63541850000183,66.63541850000183,66.63541850000183,66.63541850000183,66.63541850000183,66.63541850000183,66.63541850000183,66.63541850000183,66.63541850000183,,005,P010,2025_Feb_01_1534,ConditionRich,2021.2.3,59.93206101548278,
39.75,40.0,41,0.0,Stimuli/Blank.png,0,0,0.0,0,18,18,18,,,,,,,,,,,,,39.76606739999988,0.01606739999988349,None,70.3720811000021,70.3720811000021,70.3720811000021,70.3720811000021,70.3720811000021,70.3720811000021,70.3720811000021,70.3720811000021,70.3720811000021,70.3720811000021,,005,P010,2025_Feb_01_1534,ConditionRich,2021.2.3,59.93206101548278,
40.0,43.75,10,0.75,Stimuli/P010/sun_bdkttewvyfdarikm.jpg,1,0,0.75,0,19,19,19,,,,,,,,,,,,,40.00069359999907,0.0006935999990673736,1,70.62229790000129,70.62229790000129,70.62229790000129,70.62229790000129,70.62229790000129,70.62229790000129,70.62229790000129,71.33959230000255,70.62229790000129,70.62229790000129,0.6967726000002585,005,P010,2025_Feb_01_1534,ConditionRich,2021.2.3,59.93206101548278,
43.75,44.0,41,0.0,Stimuli/Blank.png,0,0,0.0,0,20,20,20,,,,,,,,,,,,,43.77048780000041,0.02048780000041006,None,74.37562030000117,74.37562030000117,74.37562030000117,74.37562030000117,74.37562030000117,74.37562030000117,74.37562030000117,74.37562030000117,74.37562030000117,74.37562030000117,,005,P010,2025_Feb_01_1534,ConditionRich,2021.2.3,59.93206101548278,
44.0,47.75,33,0.75,Stimuli/P010/things_lizard_05n.jpg,0,0,0.0,0,21,21,21,,,,,,,,,,,,,44.00615530000141,0.006155300001410069,None,74.62580470000103,74.62580470000103,74.62580470000103,74.62580470000103,74.62580470000103,74.62580470000103,74.62580470000103,74.62580470000103,74.62580470000103,74.62580470000103,,005,P010,2025_Feb_01_1534,ConditionRich,2021.2.3,59.93206101548278,
47.75,48.0,41,0.0,Stimuli/Blank.png,0,0,0.0,0,22,22,22,,,,,,,,,,,,,47.77537669999947,0.025376699999469565,None,78.39584540000214,78.39584540000214,78.39584540000214,78.39584540000214,78.39584540000214,78.39584540000214,78.39584540000214,78.39584540000214,78.39584540000214,78.39584540000214,,005,P010,2025_Feb_01_1534,ConditionRich,2021.2.3,59.93206101548278,
48.0,51.75,34,0.75,Stimuli/P010/things_man_05s.jpg,0,0,0.0,0,23,23,23,,,,,,,,,,,,,48.02333379999982,0.02333379999981844,None,78.646064200002,78.646064200002,78.646064200002,78.646064200002,78.646064200002,78.646064200002,78.646064200002,78.646064200002,78.646064200002,78.646064200002,,005,P010,2025_Feb_01_1534,ConditionRich,2021.2.3,59.93206101548278,
51.75,52.0,41,0.0,Stimuli/Blank.png,0,0,0.0,0,24,24,24,,,,,,,,,,,,,51.77747670000099,0.027476700000988785,None,82.38271270000041,82.38271270000041,82.38271270000041,82.38271270000041,82.38271270000041,82.38271270000041,82.38271270000041,82.38271270000041,82.38271270000041,82.38271270000041,,005,P010,2025_Feb_01_1534,ConditionRich,2021.2.3,59.93206101548278,
52.0,55.75,38,0.75,Stimuli/P010/things_roadsweeper_05s.jpg,0,0,0.0,0,25,25,25,,,,,,,,,,,,,52.01116720000209,0.011167200002091704,None,82.6329138000001,82.6329138000001,82.6329138000001,82.6329138000001,82.6329138000001,82.6329138000001,82.6329138000001,82.6329138000001,82.6329138000001,82.6329138000001,,005,P010,2025_Feb_01_1534,ConditionRich,2021.2.3,59.93206101548278,
55.75,56.0,41,0.0,Stimuli/Blank.png,0,0,0.0,0,26,26,26,,,,,,,,,,,,,55.780748699999094,0.030748699999094242,None,86.38623770000049,86.38623770000049,86.38623770000049,86.38623770000049,86.38623770000049,86.38623770000049,86.38623770000049,86.38623770000049,86.38623770000049,86.38623770000049,,005,P010,2025_Feb_01_1534,ConditionRich,2021.2.3,59.93206101548278,
56.0,59.75,8,0.75,Stimuli/P010/sun_batcnoizlkeiqdtx.jpg,0,0,0.0,0,27,27,27,,,,,,,,,,,,,56.01386750000165,0.013867500001651933,None,86.61977160000242,86.61977160000242,86.61977160000242,86.61977160000242,86.61977160000242,86.61977160000242,86.61977160000242,86.61977160000242,86.61977160000242,86.61977160000242,,005,P010,2025_Feb_01_1534,ConditionRich,2021.2.3,59.93206101548278,
59.75,60.0,41,0.0,Stimuli/Blank.png,0,0,0.0,0,28,28,28,,,,,,,,,,,,,59.75074070000119,0.0007407000011880882,None,90.35641430000032,90.35641430000032,90.35641430000032,90.35641430000032,90.35641430000032,90.35641430000032,90.35641430000032,90.35641430000032,90.35641430000032,90.35641430000032,,005,P010,2025_Feb_01_1534,ConditionRich,2021.2.3,59.93206101548278,
60.0,63.75,35,0.75,Stimuli/P010/things_mushroom_05n.jpg,0,0,0.0,0,29,29,29,,,,,,,,,,,,,60.00119210000048,0.0011921000004804228,None,90.60661090000212,90.60661090000212,90.60661090000212,90.60661090000212,90.60661090000212,90.60661090000212,90.60661090000212,90.60661090000212,90.60661090000212,90.60661090000212,,005,P010,2025_Feb_01_1534,ConditionRich,2021.2.3,59.93206101548278,
63.75,64.0,41,0.0,Stimuli/Blank.png,0,0,0.0,0,30,30,30,,,,,,,,,,,,,63.755096000000776,0.005096000000776257,None,94.35996500000329,94.35996500000329,94.35996500000329,94.35996500000329,94.35996500000329,94.35996500000329,94.35996500000329,94.35996500000329,94.35996500000329,94.35996500000329,,005,P010,2025_Feb_01_1534,ConditionRich,2021.2.3,59.93206101548278,
64.0,67.75,31,0.75,Stimuli/P010/things_girl_05s.jpg,0,0,0.0,0,31,31,31,,,,,,,,,,,,,64.0042136000011,0.004213600001094164,None,94.61018080000213,94.61018080000213,94.61018080000213,94.61018080000213,94.61018080000213,94.61018080000213,94.61018080000213,94.61018080000213,94.61018080000213,94.61018080000213,,005,P010,2025_Feb_01_1534,ConditionRich,2021.2.3,59.93206101548278,
67.75,68.0,41,0.0,Stimuli/Blank.png,0,0,0.0,0,32,32,32,,,,,,,,,,,,,67.76055500000075,0.010555000000749715,None,98.38019940000231,98.38019940000231,98.38019940000231,98.38019940000231,98.38019940000231,98.38019940000231,98.38019940000231,98.38019940000231,98.38019940000231,98.38019940000231,,005,P010,2025_Feb_01_1534,ConditionRich,2021.2.3,59.93206101548278,
68.0,71.75,2,0.75,Stimuli/P010/sun_acvloibbxiqpiwnv.jpg,0,0,0.0,0,33,33,33,,,,,,,,,,,,,68.0245849999992,0.024584999999206048,None,98.63039690000005,98.63039690000005,98.63039690000005,98.63039690000005,98.63039690000005,98.63039690000005,98.63039690000005,98.63039690000005,98.63039690000005,98.63039690000005,,005,P010,2025_Feb_01_1534,ConditionRich,2021.2.3,59.93206101548278,
71.75,72.0,41,0.0,Stimuli/Blank.png,0,0,0.0,0,34,34,34,,,,,,,,,,,,,71.76183130000209,0.01183130000208621,None,102.36717310000313,102.36717310000313,102.36717310000313,102.36717310000313,102.36717310000313,102.36717310000313,102.36717310000313,102.36717310000313,102.36717310000313,102.36717310000313,,005,P010,2025_Feb_01_1534,ConditionRich,2021.2.3,59.93206101548278,
72.0,75.75,23,0.75,Stimuli/P010/things_charger_05s.jpg,1,1,1.75,0,35,35,35,,,,,,,,,,,,,72.01130170000033,0.011301700000331039,1,102.61726030000136,102.61726030000136,102.61726030000136,102.61726030000136,102.61726030000136,102.61726030000136,103.60145290000219,104.35212440000032,102.61726030000136,102.61726030000136,1.45770149999953,005,P010,2025_Feb_01_1534,ConditionRich,2021.2.3,59.93206101548278,
75.75,76.0,41,0.0,Stimuli/Blank.png,0,0,0.0,0,36,36,36,,,,,,,,,,,,,75.7652788000014,0.01527880000139703,None,106.37058620000244,106.37058620000244,106.37058620000244,106.37058620000244,106.37058620000244,106.37058620000244,106.37058620000244,106.37058620000244,106.37058620000244,106.37058620000244,,005,P010,2025_Feb_01_1534,ConditionRich,2021.2.3,59.93206101548278,
76.0,79.75,3,0.75,Stimuli/P010/sun_aewgwsmvsgzleqhw.jpg,0,0,0.0,0,37,37,37,,,,,,,,,,,,,76.01538860000073,0.015388600000733277,None,106.62080590000187,106.62080590000187,106.62080590000187,106.62080590000187,106.62080590000187,106.62080590000187,106.62080590000187,106.62080590000187,106.62080590000187,106.62080590000187,,005,P010,2025_Feb_01_1534,ConditionRich,2021.2.3,59.93206101548278,
79.75,80.0,41,0.0,Stimuli/Blank.png,0,0,0.0,0,38,38,38,,,,,,,,,,,,,79.75208120000025,0.002081200000247918,None,110.35743320000256,110.35743320000256,110.35743320000256,110.35743320000256,110.35743320000256,110.35743320000256,110.35743320000256,110.35743320000256,110.35743320000256,110.35743320000256,,005,P010,2025_Feb_01_1534,ConditionRich,2021.2.3,59.93206101548278,
80.0,83.75,1,0.75,Stimuli/P010/sun_abqdlumenyzawlme.jpg,1,3,3.75,0,39,39,39,,,,,,,,,,,,,80.00166610000088,0.0016661000008753035,1,110.60766460000013,110.60766460000013,110.60766460000013,110.60766460000013,110.60766460000013,110.60766460000013,113.59368350000295,114.3443213999999,110.60766460000013,110.60766460000013,3.584451999999146,005,P010,2025_Feb_01_1534,ConditionRich,2021.2.3,59.93206101548278,
83.75,84.0,41,0.0,Stimuli/Blank.png,0,0,0.0,0,40,40,40,,,,,,,,,,,,,83.7556485999994,0.005648599999403814,None,114.36098360000324,114.36098360000324,114.36098360000324,114.36098360000324,114.36098360000324,114.36098360000324,114.36098360000324,114.36098360000324,114.36098360000324,114.36098360000324,,005,P010,2025_Feb_01_1534,ConditionRich,2021.2.3,59.93206101548278,
84.0,100.0,0,0.0,Stimuli/Blank.png,1,2,2.75,0,41,41,41,,,,,,,,,,,,,84.00604630000089,0.00604630000088946,None,114.61117290000038,114.61117290000038,114.61117290000038,114.61117290000038,114.61117290000038,114.61117290000038,116.59628480000174,117.3469522000014,114.61117290000038,114.61117290000038,,005,P010,2025_Feb_01_1534,ConditionRich,2021.2.3,59.93206101548278,
100.0,103.75,14,0.75,Stimuli/P010/sun_blaqxdebghixzyyw.jpg,0,0,0.0,0,42,42,42,,,,,,,,,,,,,100.0050642999995,0.005064299999503419,None,130.62536360000013,130.62536360000013,130.62536360000013,130.62536360000013,130.62536360000013,130.62536360000013,130.62536360000013,130.62536360000013,130.62536360000013,130.62536360000013,,005,P010,2025_Feb_01_1534,ConditionRich,2021.2.3,59.93206101548278,
103.75,104.0,41,0.0,Stimuli/Blank.png,0,0,0.0,0,43,43,43,,,,,,,,,,,,,103.7753956000015,0.025395600001502316,None,134.395382900002,134.395382900002,134.395382900002,134.395382900002,134.395382900002,134.395382900002,134.395382900002,134.395382900002,134.395382900002,134.395382900002,,005,P010,2025_Feb_01_1534,ConditionRich,2021.2.3,59.93206101548278,
104.0,107.75,5,0.75,Stimuli/P010/sun_akqvdmuauoxeafrj.jpg,0,0,0.0,0,44,44,44,,,,,,,,,,,,,104.02357910000137,0.023579100001370534,None,134.64565180000136,134.64565180000136,134.64565180000136,134.64565180000136,134.64565180000136,134.64565180000136,134.64565180000136,134.64565180000136,134.64565180000136,134.64565180000136,,005,P010,2025_Feb_01_1534,ConditionRich,2021.2.3,59.93206101548278,
107.75,108.0,41,0.0,Stimuli/Blank.png,0,0,0.0,0,45,45,45,,,,,,,,,,,,,107.77620699999898,0.026206999998976244,None,138.38222710000264,138.38222710000264,138.38222710000264,138.38222710000264,138.38222710000264,138.38222710000264,138.38222710000264,138.38222710000264,138.38222710000264,138.38222710000264,,005,P010,2025_Feb_01_1534,ConditionRich,2021.2.3,59.93206101548278,
108.0,111.75,26,0.75,Stimuli/P010/things_cookie_sheet_05s.jpg,0,0,0.0,0,46,46,46,,,,,,,,,,,,,108.0123237000007,0.012323700000706594,None,138.63255590000335,138.63255590000335,138.63255590000335,138.63255590000335,138.63255590000335,138.63255590000335,138.63255590000335,138.63255590000335,138.63255590000335,138.63255590000335,,005,P010,2025_Feb_01_1534,ConditionRich,2021.2.3,59.93206101548278,
111.75,112.0,41,0.0,Stimuli/Blank.png,0,0,0.0,0,47,47,47,,,,,,,,,,,,,111.78037240000049,0.030372400000487687,None,142.38577369999985,142.38577369999985,142.38577369999985,142.38577369999985,142.38577369999985,142.38577369999985,142.38577369999985,142.38577369999985,142.38577369999985,142.38577369999985,,005,P010,2025_Feb_01_1534,ConditionRich,2021.2.3,59.93206101548278,
112.0,115.75,39,0.75,Stimuli/P010/things_tiara_05s.jpg,1,1,1.75,0,48,48,48,,,,,,,,,,,,,112.01553609999974,0.015536099999735598,1,142.63599570000224,142.63599570000224,142.63599570000224,142.63599570000224,142.63599570000224,142.63599570000224,143.62018180000086,144.3708645000006,142.63599570000224,142.63599570000224,1.4491314000006241,005,P010,2025_Feb_01_1534,ConditionRich,2021.2.3,59.93206101548278,
115.75,116.0,41,0.0,Stimuli/Blank.png,0,0,0.0,0,49,49,49,,,,,,,,,,,,,115.76678119999997,0.01678119999996852,None,146.37263540000276,146.37263540000276,146.37263540000276,146.37263540000276,146.37263540000276,146.37263540000276,146.37263540000276,146.37263540000276,146.37263540000276,146.37263540000276,,005,P010,2025_Feb_01_1534,ConditionRich,2021.2.3,59.93206101548278,
116.0,119.75,6,0.75,Stimuli/P010/sun_amkrwcyvinmsylsz.jpg,0,0,0.0,0,50,50,50,,,,,,,,,,,,,116.0008467000007,0.0008467000006930903,None,146.60612660000334,146.60612660000334,146.60612660000334,146.60612660000334,146.60612660000334,146.60612660000334,146.60612660000334,146.60612660000334,146.60612660000334,146.60612660000334,,005,P010,2025_Feb_01_1534,ConditionRich,2021.2.3,59.93206101548278,
119.75,120.0,41,0.0,Stimuli/Blank.png,0,0,0.0,0,51,51,51,,,,,,,,,,,,,119.75634799999898,0.006347999998979503,None,150.3761798000014,150.3761798000014,150.3761798000014,150.3761798000014,150.3761798000014,150.3761798000014,150.3761798000014,150.3761798000014,150.3761798000014,150.3761798000014,,005,P010,2025_Feb_01_1534,ConditionRich,2021.2.3,59.93206101548278,
120.0,123.75,28,0.75,Stimuli/P010/things_face_05s.jpg,0,0,0.0,0,52,52,52,,,,,,,,,,,,,120.02084749999995,0.020847499999945285,None,150.62639550000313,150.62639550000313,150.62639550000313,150.62639550000313,150.62639550000313,150.62639550000313,150.62639550000313,150.62639550000313,150.62639550000313,150.62639550000313,,005,P010,2025_Feb_01_1534,ConditionRich,2021.2.3,59.93206101548278,
123.75,124.0,41,0.0,Stimuli/Blank.png,0,0,0.0,0,53,53,53,,,,,,,,,,,,,123.75792899999942,0.007928999999421649,None,154.3631185000013,154.3631185000013,154.3631185000013,154.3631185000013,154.3631185000013,154.3631185000013,154.3631185000013,154.3631185000013,154.3631185000013,154.3631185000013,,005,P010,2025_Feb_01_1534,ConditionRich,2021.2.3,59.93206101548278,
124.0,127.75,18,0.75,Stimuli/P010/sun_bwjdahsxcqepqqbm.jpg,0,0,0.0,0,54,54,54,,,,,,,,,,,,,124.00774590000219,0.0077459000021917745,None,154.61324779999995,154.61324779999995,154.61324779999995,154.61324779999995,154.61324779999995,154.61324779999995,154.61324779999995,154.61324779999995,154.61324779999995,154.61324779999995,,005,P010,2025_Feb_01_1534,ConditionRich,2021.2.3,59.93206101548278,
127.75,128.0,41,0.0,Stimuli/Blank.png,0,0,0.0,0,55,55,55,,,,,,,,,,,,,127.76123160000134,0.011231600001337938,None,158.36655050000263,158.36655050000263,158.36655050000263,158.36655050000263,158.36655050000263,158.36655050000263,158.36655050000263,158.36655050000263,158.36655050000263,158.36655050000263,,005,P010,2025_Feb_01_1534,ConditionRich,2021.2.3,59.93206101548278,
128.0,131.75,32,0.75,Stimuli/P010/things_hawk_05s.jpg,0,0,0.0,0,56,56,56,,,,,,,,,,,,,128.01103810000131,0.011038100001314888,None,158.6167858000008,158.6167858000008,158.6167858000008,158.6167858000008,158.6167858000008,158.6167858000008,158.6167858000008,158.6167858000008,158.6167858000008,158.6167858000008,,005,P010,2025_Feb_01_1534,ConditionRich,2021.2.3,59.93206101548278,
131.75,132.0,41,0.0,Stimuli/Blank.png,0,0,0.0,0,57,57,57,,,,,,,,,,,,,131.76416470000186,0.014164700001856545,None,162.37011490000077,162.37011490000077,162.37011490000077,162.37011490000077,162.37011490000077,162.37011490000077,162.37011490000077,162.37011490000077,162.37011490000077,162.37011490000077,,005,P010,2025_Feb_01_1534,ConditionRich,2021.2.3,59.93206101548278,
132.0,135.75,7,0.75,Stimuli/P010/sun_apiogxmvvzfmtsmj.jpg,0,0,0.0,0,58,58,58,,,,,,,,,,,,,132.01445840000088,0.014458400000876281,None,162.62032800000088,162.62032800000088,162.62032800000088,162.62032800000088,162.62032800000088,162.62032800000088,162.62032800000088,162.62032800000088,162.62032800000088,162.62032800000088,,005,P010,2025_Feb_01_1534,ConditionRich,2021.2.3,59.93206101548278,
135.75,136.0,41,0.0,Stimuli/Blank.png,0,0,0.0,0,59,59,59,,,,,,,,,,,,,135.75169499999902,0.0016949999990174547,None,166.3569779999998,166.3569779999998,166.3569779999998,166.3569779999998,166.3569779999998,166.3569779999998,166.3569779999998,166.3569779999998,166.3569779999998,166.3569779999998,,005,P010,2025_Feb_01_1534,ConditionRich,2021.2.3,59.93206101548278,
136.0,139.75,19,0.75,Stimuli/P010/sun_bwvfnogmotsvhofs.jpg,1,2,2.75,0,60,60,60,,,,,,,,,,,,,136.00145410000187,0.0014541000018652994,1,166.60715530000016,166.60715530000016,166.60715530000016,166.60715530000016,166.60715530000016,166.60715530000016,168.5923229,169.34294520000185,166.60715530000016,166.60715530000016,2.8168408000019554,005,P010,2025_Feb_01_1534,ConditionRich,2021.2.3,59.93206101548278,
139.75,140.0,41,0.0,Stimuli/Blank.png,0,0,0.0,0,61,61,61,,,,,,,,,,,,,139.75508310000077,0.005083100000774721,None,170.36051340000267,170.36051340000267,170.36051340000267,170.36051340000267,170.36051340000267,170.36051340000267,170.36051340000267,170.36051340000267,170.36051340000267,170.36051340000267,,005,P010,2025_Feb_01_1534,ConditionRich,2021.2.3,59.93206101548278,
140.0,143.75,24,0.75,Stimuli/P010/things_cigar_05n.jpg,0,0,0.0,0,62,62,62,,,,,,,,,,,,,140.00471929999912,0.004719299999123905,None,170.61073020000185,170.61073020000185,170.61073020000185,170.61073020000185,170.61073020000185,170.61073020000185,170.61073020000185,170.61073020000185,170.61073020000185,170.61073020000185,,005,P010,2025_Feb_01_1534,ConditionRich,2021.2.3,59.93206101548278,
143.75,144.0,41,0.0,Stimuli/Blank.png,0,0,0.0,0,63,63,63,,,,,,,,,,,,,143.7602149000013,0.01021490000130143,None,174.38074840000263,174.38074840000263,174.38074840000263,174.38074840000263,174.38074840000263,174.38074840000263,174.38074840000263,174.38074840000263,174.38074840000263,174.38074840000263,,005,P010,2025_Feb_01_1534,ConditionRich,2021.2.3,59.93206101548278,
144.0,147.75,13,0.75,Stimuli/P010/sun_bjimvgwadfodioes.jpg,0,0,0.0,0,64,64,64,,,,,,,,,,,,,144.02493200000026,0.024932000000262633,None,174.63095280000198,174.63095280000198,174.63095280000198,174.63095280000198,174.63095280000198,174.63095280000198,174.63095280000198,174.63095280000198,174.63095280000198,174.63095280000198,,005,P010,2025_Feb_01_1534,ConditionRich,2021.2.3,59.93206101548278,
147.75,148.0,41,0.0,Stimuli/Blank.png,0,0,0.0,0,65,65,65,,,,,,,,,,,,,147.76195740000185,0.011957400001847418,None,178.36768550000124,178.36768550000124,178.36768550000124,178.36768550000124,178.36768550000124,178.36768550000124,178.36768550000124,178.36768550000124,178.36768550000124,178.36768550000124,,005,P010,2025_Feb_01_1534,ConditionRich,2021.2.3,59.93206101548278,
148.0,151.75,30,0.75,Stimuli/P010/things_fire_05s.jpg,1,2,2.75,0,66,66,66,,,,,,,,,,,,,148.01211590000094,0.012115900000935653,1,178.6178120000004,178.6178120000004,178.6178120000004,178.6178120000004,178.6178120000004,178.6178120000004,180.60290640000312,181.35357250000015,178.6178120000004,178.6178120000004,2.6095703999999387,005,P010,2025_Feb_01_1534,ConditionRich,2021.2.3,59.93206101548278,
151.75,152.0,41,0.0,Stimuli/Blank.png,0,0,0.0,0,67,67,67,,,,,,,,,,,,,151.76581630000146,0.01581630000146106,None,182.37113630000022,182.37113630000022,182.37113630000022,182.37113630000022,182.37113630000022,182.37113630000022,182.37113630000022,182.37113630000022,182.37113630000022,182.37113630000022,,005,P010,2025_Feb_01_1534,ConditionRich,2021.2.3,59.93206101548278,
152.0,155.75,9,0.75,Stimuli/P010/sun_bdjkvwqqqycuixtc.jpg,0,0,0.0,0,68,68,68,,,,,,,,,,,,,151.9991121000021,-0.0008878999979060609,None,182.60468230000333,182.60468230000333,182.60468230000333,182.60468230000333,182.60468230000333,182.60468230000333,182.60468230000333,182.60468230000333,182.60468230000333,182.60468230000333,,005,P010,2025_Feb_01_1534,ConditionRich,2021.2.3,59.93206101548278,
155.75,156.0,41,0.0,Stimuli/Blank.png,0,0,0.0,0,69,69,69,,,,,,,,,,,,,155.75211069999932,0.0021106999993207864,None,186.35800150000068,186.35800150000068,186.35800150000068,186.35800150000068,186.35800150000068,186.35800150000068,186.35800150000068,186.35800150000068,186.35800150000068,186.35800150000068,,005,P010,2025_Feb_01_1534,ConditionRich,2021.2.3,59.93206101548278,
156.0,159.75,37,0.75,Stimuli/P010/things_pug_05s.jpg,0,0,0.0,0,70,70,70,,,,,,,,,,,,,156.00220809999882,0.002208099998824764,None,186.60822160000316,186.60822160000316,186.60822160000316,186.60822160000316,186.60822160000316,186.60822160000316,186.60822160000316,186.60822160000316,186.60822160000316,186.60822160000316,,005,P010,2025_Feb_01_1534,ConditionRich,2021.2.3,59.93206101548278,
159.75,160.0,41,0.0,Stimuli/Blank.png,0,0,0.0,0,71,71,71,,,,,,,,,,,,,159.75602849999996,0.0060284999999566935,None,190.36153940000077,190.36153940000077,190.36153940000077,190.36153940000077,190.36153940000077,190.36153940000077,190.36153940000077,190.36153940000077,190.36153940000077,190.36153940000077,,005,P010,2025_Feb_01_1534,ConditionRich,2021.2.3,59.93206101548278,
160.0,163.75,4,0.75,Stimuli/P010/sun_afkzdukwewwzqtmr.jpg,0,0,0.0,0,72,72,72,,,,,,,,,,,,,160.0065739999991,0.006573999999091029,None,190.6284360000027,190.6284360000027,190.6284360000027,190.6284360000027,190.6284360000027,190.6284360000027,190.6284360000027,190.6284360000027,190.6284360000027,190.6284360000027,,005,P010,2025_Feb_01_1534,ConditionRich,2021.2.3,59.93206101548278,
163.75,164.0,41,0.0,Stimuli/Blank.png,0,0,0.0,0,73,73,73,,,,,,,,,,,,,163.77657499999987,0.026574999999866122,None,194.3817553000008,194.3817553000008,194.3817553000008,194.3817553000008,194.3817553000008,194.3817553000008,194.3817553000008,194.3817553000008,194.3817553000008,194.3817553000008,,005,P010,2025_Feb_01_1534,ConditionRich,2021.2.3,59.93206101548278,
164.0,167.75,22,0.75,Stimuli/P010/things_butterfly_05s.jpg,1,3,3.75,0,74,74,74,,,,,,,,,,,,,164.0092904000012,0.009290400001191301,1,194.61530029999994,194.61530029999994,194.61530029999994,194.61530029999994,194.61530029999994,194.61530029999994,197.60127530000318,198.35193510000317,194.61530029999994,194.61530029999994,3.4617417000008572,005,P010,2025_Feb_01_1534,ConditionRich,2021.2.3,59.93206101548278,
167.75,168.0,41,0.0,Stimuli/Blank.png,0,0,0.0,0,75,75,75,,,,,,,,,,,,,167.7626433000005,0.012643300000490854,None,198.36861580000186,198.36861580000186,198.36861580000186,198.36861580000186,198.36861580000186,198.36861580000186,198.36861580000186,198.36861580000186,198.36861580000186,198.36861580000186,,005,P010,2025_Feb_01_1534,ConditionRich,2021.2.3,59.93206101548278,
168.0,171.75,15,0.75,Stimuli/P010/sun_boryivbddrnarrbo.jpg,0,0,0.0,0,76,76,76,,,,,,,,,,,,,168.01432700000078,0.014327000000776025,None,198.63552150000032,198.63552150000032,198.63552150000032,198.63552150000032,198.63552150000032,198.63552150000032,198.63552150000032,198.63552150000032,198.63552150000032,198.63552150000032,,005,P010,2025_Feb_01_1534,ConditionRich,2021.2.3,59.93206101548278,
171.75,172.0,41,0.0,Stimuli/Blank.png,0,0,0.0,0,77,77,77,,,,,,,,,,,,,171.76619480000227,0.016194800002267584,None,202.37215760000254,202.37215760000254,202.37215760000254,202.37215760000254,202.37215760000254,202.37215760000254,202.37215760000254,202.37215760000254,202.37215760000254,202.37215760000254,,005,P010,2025_Feb_01_1534,ConditionRich,2021.2.3,59.93206101548278,
172.0,175.75,11,0.75,Stimuli/P010/sun_bfyvfqiimvdaxlqn.jpg,0,0,0.0,0,78,78,78,,,,,,,,,,,,,172.0009577000019,0.0009577000018907711,None,202.6057127000022,202.6057127000022,202.6057127000022,202.6057127000022,202.6057127000022,202.6057127000022,202.6057127000022,202.6057127000022,202.6057127000022,202.6057127000022,,005,P010,2025_Feb_01_1534,ConditionRich,2021.2.3,59.93206101548278,
175.75,176.0,41,0.0,Stimuli/Blank.png,0,0,0.0,0,79,79,79,,,,,,,,,,,,,175.7533180999999,0.003318099999887636,None,206.3590346000019,206.3590346000019,206.3590346000019,206.3590346000019,206.3590346000019,206.3590346000019,206.3590346000019,206.3590346000019,206.3590346000019,206.3590346000019,,005,P010,2025_Feb_01_1534,ConditionRich,2021.2.3,59.93206101548278,
176.0,179.75,29,0.75,Stimuli/P010/things_fingerprint_05s.jpg,0,0,0.0,0,80,80,80,,,,,,,,,,,,,176.00562590000118,0.005625900001177797,None,206.6259276000019,206.6259276000019,206.6259276000019,206.6259276000019,206.6259276000019,206.6259276000019,206.6259276000019,206.6259276000019,206.6259276000019,206.6259276000019,,005,P010,2025_Feb_01_1534,ConditionRich,2021.2.3,59.93206101548278,
179.75,180.0,41,0.0,Stimuli/Blank.png,0,0,0.0,0,81,81,81,,,,,,,,,,,,,179.77535980000175,0.025359800001751864,None,210.39593890000106,210.39593890000106,210.39593890000106,210.39593890000106,210.39593890000106,210.39593890000106,210.39593890000106,210.39593890000106,210.39593890000106,210.39593890000106,,005,P010,2025_Feb_01_1534,ConditionRich,2021.2.3,59.93206101548278,
180.0,196.0,0,0.0,Stimuli/Blank.png,1,1,1.75,0,82,82,82,,,,,,,,,,,,,180.02598410000064,0.025984100000641774,1,210.6461476000004,210.6461476000004,210.6461476000004,210.6461476000004,210.6461476000004,210.6461476000004,211.63034940000216,212.381043100002,210.6461476000004,210.6461476000004,1.4729189000026963,005,P010,2025_Feb_01_1534,ConditionRich,2021.2.3,59.93206101548278,
196.0,199.75,3,0.75,Stimuli/P010/sun_aewgwsmvsgzleqhw.jpg,0,0,0.0,0,83,83,83,,,,,,,,,,,,,196.02127680000194,0.02127680000194232,None,226.62695090000125,226.62695090000125,226.62695090000125,226.62695090000125,226.62695090000125,226.62695090000125,226.62695090000125,226.62695090000125,226.62695090000125,226.62695090000125,,005,P010,2025_Feb_01_1534,ConditionRich,2021.2.3,59.93206101548278,
199.75,200.0,41,0.0,Stimuli/Blank.png,0,0,0.0,0,84,84,84,,,,,,,,,,,,,199.76037559999895,0.010375599998951657,None,230.38028430000122,230.38028430000122,230.38028430000122,230.38028430000122,230.38028430000122,230.38028430000122,230.38028430000122,230.38028430000122,230.38028430000122,230.38028430000122,,005,P010,2025_Feb_01_1534,ConditionRich,2021.2.3,59.93206101548278,
200.0,203.75,12,0.75,Stimuli/P010/sun_birmwgkdtrlevcaf.jpg,0,0,0.0,0,85,85,85,,,,,,,,,,,,,200.02479440000025,0.02479440000024624,None,230.63049010000032,230.63049010000032,230.63049010000032,230.63049010000032,230.63049010000032,230.63049010000032,230.63049010000032,230.63049010000032,230.63049010000032,230.63049010000032,,005,P010,2025_Feb_01_1534,ConditionRich,2021.2.3,59.93206101548278,
203.75,204.0,41,0.0,Stimuli/Blank.png,0,0,0.0,0,86,86,86,,,,,,,,,,,,,203.76125980000143,0.011259800001425901,None,234.367121700001,234.367121700001,234.367121700001,234.367121700001,234.367121700001,234.367121700001,234.367121700001,234.367121700001,234.367121700001,234.367121700001,,005,P010,2025_Feb_01_1534,ConditionRich,2021.2.3,59.93206101548278,
204.0,207.75,18,0.75,Stimuli/P010/sun_bwjdahsxcqepqqbm.jpg,1,2,2.75,0,87,87,87,,,,,,,,,,,,,204.0113373000022,0.01133730000219657,1,234.61735240000053,234.61735240000053,234.61735240000053,234.61735240000053,234.61735240000053,234.61735240000053,236.60243430000264,237.35314050000306,234.61735240000053,234.61735240000053,2.6380332999979146,005,P010,2025_Feb_01_1534,ConditionRich,2021.2.3,59.93206101548278,
207.75,208.0,41,0.0,Stimuli/Blank.png,0,0,0.0,0,88,88,88,,,,,,,,,,,,,207.76525440000114,0.015254400001140311,None,238.37067320000278,238.37067320000278,238.37067320000278,238.37067320000278,238.37067320000278,238.37067320000278,238.37067320000278,238.37067320000278,238.37067320000278,238.37067320000278,,005,P010,2025_Feb_01_1534,ConditionRich,2021.2.3,59.93206101548278,
208.0,211.75,39,0.75,Stimuli/P010/things_tiara_05s.jpg,1,1,1.75,0,89,89,89,,,,,,,,,,,,,208.0154790000015,0.015479000001505483,1,238.62087280000196,238.62087280000196,238.62087280000196,238.62087280000196,238.62087280000196,238.62087280000196,239.60509110000203,240.35575430000245,238.62087280000196,238.62087280000196,1.4921802000026219,005,P010,2025_Feb_01_1534,ConditionRich,2021.2.3,59.93206101548278,
211.75,212.0,41,0.0,Stimuli/Blank.png,0,0,0.0,0,90,90,90,,,,,,,,,,,,,211.75245450000148,0.0024545000014768448,None,242.35760930000106,242.35760930000106,242.35760930000106,242.35760930000106,242.35760930000106,242.35760930000106,242.35760930000106,242.35760930000106,242.35760930000106,242.35760930000106,,005,P010,2025_Feb_01_1534,ConditionRich,2021.2.3,59.93206101548278,
212.0,215.75,8,0.75,Stimuli/P010/sun_batcnoizlkeiqdtx.jpg,0,0,0.0,0,91,91,91,,,,,,,,,,,,,212.00190139999904,0.0019013999990420416,None,242.6077495999998,242.6077495999998,242.6077495999998,242.6077495999998,242.6077495999998,242.6077495999998,242.6077495999998,242.6077495999998,242.6077495999998,242.6077495999998,,005,P010,2025_Feb_01_1534,ConditionRich,2021.2.3,59.93206101548278,
215.75,216.0,41,0.0,Stimuli/Blank.png,0,0,0.0,0,92,92,92,,,,,,,,,,,,,215.75692870000057,0.006928700000571553,None,246.36108770000283,246.36108770000283,246.36108770000283,246.36108770000283,246.36108770000283,246.36108770000283,246.36108770000283,246.36108770000283,246.36108770000283,246.36108770000283,,005,P010,2025_Feb_01_1534,ConditionRich,2021.2.3,59.93206101548278,
216.0,219.75,35,0.75,Stimuli/P010/things_mushroom_05n.jpg,0,0,0.0,0,93,93,93,,,,,,,,,,,,,216.0064057999989,0.006405799998901784,None,246.61130760000015,246.61130760000015,246.61130760000015,246.61130760000015,246.61130760000015,246.61130760000015,246.61130760000015,246.61130760000015,246.61130760000015,246.61130760000015,,005,P010,2025_Feb_01_1534,ConditionRich,2021.2.3,59.93206101548278,
219.75,220.0,41,0.0,Stimuli/Blank.png,0,0,0.0,0,94,94,94,,,,,,,,,,,,,219.76152860000002,0.011528600000019651,None,250.38131040000007,250.38131040000007,250.38131040000007,250.38131040000007,250.38131040000007,250.38131040000007,250.38131040000007,250.38131040000007,250.38131040000007,250.38131040000007,,005,P010,2025_Feb_01_1534,ConditionRich,2021.2.3,59.93206101548278,
220.0,223.75,5,0.75,Stimuli/P010/sun_akqvdmuauoxeafrj.jpg,0,0,0.0,0,95,95,95,,,,,,,,,,,,,220.02627370000118,0.026273700001183897,None,250.63152130000162,250.63152130000162,250.63152130000162,250.63152130000162,250.63152130000162,250.63152130000162,250.63152130000162,250.63152130000162,250.63152130000162,250.63152130000162,,005,P010,2025_Feb_01_1534,ConditionRich,2021.2.3,59.93206101548278,
223.75,224.0,41,0.0,Stimuli/Blank.png,0,0,0.0,0,96,96,96,,,,,,,,,,,,,223.76509140000053,0.015091400000528665,None,254.3848407000005,254.3848407000005,254.3848407000005,254.3848407000005,254.3848407000005,254.3848407000005,254.3848407000005,254.3848407000005,254.3848407000005,254.3848407000005,,005,P010,2025_Feb_01_1534,ConditionRich,2021.2.3,59.93206101548278,
224.0,227.75,23,0.75,Stimuli/P010/things_charger_05s.jpg,0,0,0.0,0,97,97,97,,,,,,,,,,,,,224.03045819999898,0.030458199998975033,None,254.63505900000018,254.63505900000018,254.63505900000018,254.63505900000018,254.63505900000018,254.63505900000018,254.63505900000018,254.63505900000018,254.63505900000018,254.63505900000018,,005,P010,2025_Feb_01_1534,ConditionRich,2021.2.3,59.93206101548278,
227.75,228.0,41,0.0,Stimuli/Blank.png,0,0,0.0,0,98,98,98,,,,,,,,,,,,,227.7496682000019,-0.00033179999809362926,None,258.3550262000026,258.3550262000026,258.3550262000026,258.3550262000026,258.3550262000026,258.3550262000026,258.3550262000026,258.3550262000026,258.3550262000026,258.3550262000026,,005,P010,2025_Feb_01_1534,ConditionRich,2021.2.3,59.93206101548278,
228.0,231.75,27,0.75,Stimuli/P010/things_curling_iron_05s.jpg,1,2,2.75,0,99,99,99,,,,,,,,,,,,,227.99998380000034,-1.6199999663513154e-05,1,258.60524760000044,258.60524760000044,258.60524760000044,258.60524760000044,258.60524760000044,258.60524760000044,260.59034210000027,261.34098500000255,258.60524760000044,258.60524760000044,2.520032299999002,005,P010,2025_Feb_01_1534,ConditionRich,2021.2.3,59.93206101548278,
231.75,232.0,41,0.0,Stimuli/Blank.png,0,0,0.0,0,100,100,100,,,,,,,,,,,,,231.7524873000002,0.0024873000002116896,None,262.3586286999998,262.3586286999998,262.3586286999998,262.3586286999998,262.3586286999998,262.3586286999998,262.3586286999998,262.3586286999998,262.3586286999998,262.3586286999998,,005,P010,2025_Feb_01_1534,ConditionRich,2021.2.3,59.93206101548278,
232.0,235.75,24,0.75,Stimuli/P010/things_cigar_05n.jpg,0,0,0.0,0,101,101,101,,,,,,,,,,,,,232.0035069000005,0.0035069000005023554,None,262.6254528000027,262.6254528000027,262.6254528000027,262.6254528000027,262.6254528000027,262.6254528000027,262.6254528000027,262.6254528000027,262.6254528000027,262.6254528000027,,005,P010,2025_Feb_01_1534,ConditionRich,2021.2.3,59.93206101548278,
235.75,236.0,41,0.0,Stimuli/Blank.png,0,0,0.0,0,102,102,102,,,,,,,,,,,,,235.77272470000025,0.022724700000253506,None,266.3787706000003,266.3787706000003,266.3787706000003,266.3787706000003,266.3787706000003,266.3787706000003,266.3787706000003,266.3787706000003,266.3787706000003,266.3787706000003,,005,P010,2025_Feb_01_1534,ConditionRich,2021.2.3,59.93206101548278,
236.0,239.75,36,0.75,Stimuli/P010/things_pelican_05s.jpg,0,0,0.0,0,103,103,103,,,,,,,,,,,,,236.00667579999936,0.006675799999356968,None,266.61231450000196,266.61231450000196,266.61231450000196,266.61231450000196,266.61231450000196,266.61231450000196,266.61231450000196,266.61231450000196,266.61231450000196,266.61231450000196,,005,P010,2025_Feb_01_1534,ConditionRich,2021.2.3,59.93206101548278,
239.75,240.0,41,0.0,Stimuli/Blank.png,0,0,0.0,0,104,104,104,,,,,,,,,,,,,239.76031720000174,0.010317200001736637,None,270.36563810000007,270.36563810000007,270.36563810000007,270.36563810000007,270.36563810000007,270.36563810000007,270.36563810000007,270.36563810000007,270.36563810000007,270.36563810000007,,005,P010,2025_Feb_01_1534,ConditionRich,2021.2.3,59.93206101548278,
240.0,243.75,37,0.75,Stimuli/P010/things_pug_05s.jpg,0,0,0.0,0,105,105,105,,,,,,,,,,,,,240.01059030000033,0.010590300000330899,None,270.61586610000086,270.61586610000086,270.61586610000086,270.61586610000086,270.61586610000086,270.61586610000086,270.61586610000086,270.61586610000086,270.61586610000086,270.61586610000086,,005,P010,2025_Feb_01_1534,ConditionRich,2021.2.3,59.93206101548278,
243.75,244.0,41,0.0,Stimuli/Blank.png,0,0,0.0,0,106,106,106,,,,,,,,,,,,,243.76522639999894,0.015226399998937268,None,274.3858657000019,274.3858657000019,274.3858657000019,274.3858657000019,274.3858657000019,274.3858657000019,274.3858657000019,274.3858657000019,274.3858657000019,274.3858657000019,,005,P010,2025_Feb_01_1534,ConditionRich,2021.2.3,59.93206101548278,
244.0,247.75,38,0.75,Stimuli/P010/things_roadsweeper_05s.jpg,1,3,3.75,0,107,107,107,,,,,,,,,,,,,244.0308346999991,0.030834699999104487,1,274.63608810000005,278.35605900000155,274.63608810000005,278.35605900000155,274.63608810000005,278.35605900000155,277.6220977000012,None,274.63608810000005,278.35605900000155,3.4841474999993807,005,P010,2025_Feb_01_1534,ConditionRich,2021.2.3,59.93206101548278,
247.75,248.0,41,0.0,Stimuli/Blank.png,0,0,0.0,0,108,108,108,,,,,,,,,,,,,247.76759239999956,0.01759239999955753,None,278.3727192000006,None,278.3727192000006,None,278.3727192000006,None,278.3727192000006,278.3727192000006,278.3727192000006,None,,005,P010,2025_Feb_01_1534,ConditionRich,2021.2.3,59.93206101548278,
248.0,251.75,28,0.75,Stimuli/P010/things_face_05s.jpg,1,1,1.75,0,109,109,109,,,,,,,,,,,,,248.00099090000003,0.0009909000000334345,None,278.6062634000009,278.6062634000009,278.6062634000009,278.6062634000009,278.6062634000009,278.6062634000009,279.5904545000012,280.34113760000037,278.6062634000009,278.6062634000009,,005,P010,2025_Feb_01_1534,ConditionRich,2021.2.3,59.93206101548278,
251.75,252.0,41,0.0,Stimuli/Blank.png,0,0,0.0,0,110,110,110,,,,,,,,,,,,,251.75551199999973,0.005511999999725958,None,282.3762619000008,282.3762619000008,282.3762619000008,282.3762619000008,282.3762619000008,282.3762619000008,282.3762619000008,282.3762619000008,282.3762619000008,282.3762619000008,,005,P010,2025_Feb_01_1534,ConditionRich,2021.2.3,59.93206101548278,
252.0,255.75,11,0.75,Stimuli/P010/sun_bfyvfqiimvdaxlqn.jpg,0,0,0.0,0,111,111,111,,,,,,,,,,,,,252.02212630000213,0.02212630000212812,None,282.64318490000005,282.64318490000005,282.64318490000005,282.64318490000005,282.64318490000005,282.64318490000005,282.64318490000005,282.64318490000005,282.64318490000005,282.64318490000005,,005,P010,2025_Feb_01_1534,ConditionRich,2021.2.3,59.93206101548278,
255.75,256.0,41,0.0,Stimuli/Blank.png,0,0,0.0,0,112,112,112,,,,,,,,,,,,,255.77575119999892,0.025751199998921948,None,286.39648410000154,286.39648410000154,286.39648410000154,286.39648410000154,286.39648410000154,286.39648410000154,286.39648410000154,286.39648410000154,286.39648410000154,286.39648410000154,,005,P010,2025_Feb_01_1534,ConditionRich,2021.2.3,59.93206101548278,
256.0,259.75,19,0.75,Stimuli/P010/sun_bwvfnogmotsvhofs.jpg,0,0,0.0,0,113,113,113,,,,,,,,,,,,,256.0247264999998,0.024726499999815132,None,286.6300293000022,286.6300293000022,286.6300293000022,286.6300293000022,286.6300293000022,286.6300293000022,286.6300293000022,286.6300293000022,286.6300293000022,286.6300293000022,,005,P010,2025_Feb_01_1534,ConditionRich,2021.2.3,59.93206101548278,
259.75,260.0,41,0.0,Stimuli/Blank.png,0,0,0.0,0,114,114,114,,,,,,,,,,,,,259.7607482000021,0.010748200002126396,None,290.366661,290.366661,290.366661,290.366661,290.366661,290.366661,290.366661,290.366661,290.366661,290.366661,,005,P010,2025_Feb_01_1534,ConditionRich,2021.2.3,59.93206101548278,
260.0,263.75,25,0.75,Stimuli/P010/things_clothespin_05s.jpg,0,0,0.0,0,115,115,115,,,,,,,,,,,,,260.01155519999884,0.011555199998838361,None,290.6168850000031,290.6168850000031,290.6168850000031,290.6168850000031,290.6168850000031,290.6168850000031,290.6168850000031,290.6168850000031,290.6168850000031,290.6168850000031,,005,P010,2025_Feb_01_1534,ConditionRich,2021.2.3,59.93206101548278,
263.75,264.0,41,0.0,Stimuli/Blank.png,0,0,0.0,0,116,116,116,,,,,,,,,,,,,263.7653320999998,0.0153320999997959,None,294.37020440000197,294.37020440000197,294.37020440000197,294.37020440000197,294.37020440000197,294.37020440000197,294.37020440000197,294.37020440000197,294.37020440000197,294.37020440000197,,005,P010,2025_Feb_01_1534,ConditionRich,2021.2.3,59.93206101548278,
264.0,267.75,33,0.75,Stimuli/P010/things_lizard_05n.jpg,0,0,0.0,0,117,117,117,,,,,,,,,,,,,264.0159295000012,0.01592950000122073,None,294.6371102000012,294.6371102000012,294.6371102000012,294.6371102000012,294.6371102000012,294.6371102000012,294.6371102000012,294.6371102000012,294.6371102000012,294.6371102000012,,005,P010,2025_Feb_01_1534,ConditionRich,2021.2.3,59.93206101548278,
267.75,268.0,41,0.0,Stimuli/Blank.png,0,0,0.0,0,118,118,118,,,,,,,,,,,,,267.7677575000016,0.017757500001607696,None,298.373803100003,298.373803100003,298.373803100003,298.373803100003,298.373803100003,298.373803100003,298.373803100003,298.373803100003,298.373803100003,298.373803100003,,005,P010,2025_Feb_01_1534,ConditionRich,2021.2.3,59.93206101548278,
268.0,271.75,15,0.75,Stimuli/P010/sun_boryivbddrnarrbo.jpg,0,0,0.0,0,119,119,119,,,,,,,,,,,,,268.00179480000224,0.0017948000022443011,None,298.6072682000013,298.6072682000013,298.6072682000013,298.6072682000013,298.6072682000013,298.6072682000013,298.6072682000013,298.6072682000013,298.6072682000013,298.6072682000013,,005,P010,2025_Feb_01_1534,ConditionRich,2021.2.3,59.93206101548278,
271.75,272.0,41,0.0,Stimuli/Blank.png,0,0,0.0,0,120,120,120,,,,,,,,,,,,,271.7556841000005,0.005684100000507897,None,302.36060570000336,302.36060570000336,302.36060570000336,302.36060570000336,302.36060570000336,302.36060570000336,302.36060570000336,302.36060570000336,302.36060570000336,302.36060570000336,,005,P010,2025_Feb_01_1534,ConditionRich,2021.2.3,59.93206101548278,
272.0,275.75,6,0.75,Stimuli/P010/sun_amkrwcyvinmsylsz.jpg,0,0,0.0,0,121,121,121,,,,,,,,,,,,,272.0064596000011,0.006459600001107901,None,302.6274967999998,302.6274967999998,302.6274967999998,302.6274967999998,302.6274967999998,302.6274967999998,302.6274967999998,302.6274967999998,302.6274967999998,302.6274967999998,,005,P010,2025_Feb_01_1534,ConditionRich,2021.2.3,59.93206101548278,
275.75,276.0,41,0.0,Stimuli/Blank.png,0,0,0.0,0,122,122,122,,,,,,,,,,,,,275.7763760000016,0.026376000001619104,None,306.39751570000226,306.39751570000226,306.39751570000226,306.39751570000226,306.39751570000226,306.39751570000226,306.39751570000226,306.39751570000226,306.39751570000226,306.39751570000226,,005,P010,2025_Feb_01_1534,ConditionRich,2021.2.3,59.93206101548278,
276.0,292.0,0,0.0,Stimuli/Blank.png,1,13,13.75,0,123,123,123,,,,,,,,,,,,,276.0252459000003,0.025245900000300026,1,306.63104020000173,306.63104020000173,306.63104020000173,306.63104020000173,306.63104020000173,306.63104020000173,319.60921990000134,320.3599103000015,306.63104020000173,306.63104020000173,13.394112900001346,005,P010,2025_Feb_01_1534,ConditionRich,2021.2.3,59.93206101548278,
292.0,295.75,9,0.75,Stimuli/P010/sun_bdjkvwqqqycuixtc.jpg,1,1,1.75,0,124,124,124,,,,,,,,,,,,,292.00709890000144,0.007098900001437869,1,322.6285506000022,322.6285506000022,322.6285506000022,322.6285506000022,322.6285506000022,322.6285506000022,323.59605280000324,324.34671270000035,322.6285506000022,322.6285506000022,1.3675882999996247,005,P010,2025_Feb_01_1534,ConditionRich,2021.2.3,59.93206101548278,
295.75,296.0,41,0.0,Stimuli/Blank.png,0,0,0.0,0,125,125,125,,,,,,,,,,,,,295.7766874000008,0.026687400000810158,None,326.38184940000065,326.38184940000065,326.38184940000065,326.38184940000065,326.38184940000065,326.38184940000065,326.38184940000065,326.38184940000065,326.38184940000065,326.38184940000065,,005,P010,2025_Feb_01_1534,ConditionRich,2021.2.3,59.93206101548278,
296.0,299.75,30,0.75,Stimuli/P010/things_fire_05s.jpg,1,0,0.75,0,126,126,126,,,,,,,,,,,,,296.0100138000016,0.010013800001615891,None,326.6154051000012,326.6154051000012,326.6154051000012,326.6154051000012,326.6154051000012,326.6154051000012,326.6154051000012,327.3494016000004,326.6154051000012,326.6154051000012,,005,P010,2025_Feb_01_1534,ConditionRich,2021.2.3,59.93206101548278,
299.75,300.0,41,0.0,Stimuli/Blank.png,0,0,0.0,0,127,127,127,,,,,,,,,,,,,299.7627055000012,0.012705500001175096,None,330.3687867000008,330.3687867000008,330.3687867000008,330.3687867000008,330.3687867000008,330.3687867000008,330.3687867000008,330.3687867000008,330.3687867000008,330.3687867000008,,005,P010,2025_Feb_01_1534,ConditionRich,2021.2.3,59.93206101548278,
300.0,303.75,13,0.75,Stimuli/P010/sun_bjimvgwadfodioes.jpg,1,2,2.75,0,128,128,128,,,,,,,,,,,,,300.0129378999991,0.012937899999087676,1,330.63562040000033,330.63562040000033,330.63562040000033,330.63562040000033,330.63562040000033,330.63562040000033,332.60407260000284,333.35467560000325,330.63562040000033,330.63562040000033,2.4016802000005555,005,P010,2025_Feb_01_1534,ConditionRich,2021.2.3,59.93206101548278,
303.75,304.0,41,0.0,Stimuli/Blank.png,0,0,0.0,0,129,129,129,,,,,,,,,,,,,303.76623050000126,0.016230500001256587,None,334.3722534000008,334.3722534000008,334.3722534000008,334.3722534000008,334.3722534000008,334.3722534000008,334.3722534000008,334.3722534000008,334.3722534000008,334.3722534000008,,005,P010,2025_Feb_01_1534,ConditionRich,2021.2.3,59.93206101548278,
304.0,307.75,22,0.75,Stimuli/P010/things_butterfly_05s.jpg,1,3,3.75,0,130,130,130,,,,,,,,,,,,,304.0005648000006,0.0005648000005749054,1,334.6224841000003,334.6224841000003,334.6224841000003,334.6224841000003,334.6224841000003,334.6224841000003,337.5917589000019,338.34250480000264,334.6224841000003,334.6224841000003,3.4587053999966884,005,P010,2025_Feb_01_1534,ConditionRich,2021.2.3,59.93206101548278,
307.75,308.0,41,0.0,Stimuli/Blank.png,0,0,0.0,0,131,131,131,,,,,,,,,,,,,307.77049350000016,0.020493500000156928,None,338.3758031000034,338.3758031000034,338.3758031000034,338.3758031000034,338.3758031000034,338.3758031000034,338.3758031000034,338.3758031000034,338.3758031000034,338.3758031000034,,005,P010,2025_Feb_01_1534,ConditionRich,2021.2.3,59.93206101548278,
308.0,311.75,31,0.75,Stimuli/P010/things_girl_05s.jpg,1,1,1.75,0,132,132,132,,,,,,,,,,,,,308.0056334000001,0.0056334000000788365,1,338.6260194000024,338.6260194000024,338.6260194000024,338.6260194000024,338.6260194000024,338.6260194000024,339.6102176000022,340.3608834000006,338.6260194000024,338.6260194000024,1.4231704999983776,005,P010,2025_Feb_01_1534,ConditionRich,2021.2.3,59.93206101548278,
311.75,312.0,41,0.0,Stimuli/Blank.png,0,0,0.0,0,133,133,133,,,,,,,,,,,,,311.7755326000006,0.02553260000058799,None,342.3960205000003,342.3960205000003,342.3960205000003,342.3960205000003,342.3960205000003,342.3960205000003,342.3960205000003,342.3960205000003,342.3960205000003,342.3960205000003,,005,P010,2025_Feb_01_1534,ConditionRich,2021.2.3,59.93206101548278,
312.0,315.75,26,0.75,Stimuli/P010/things_cookie_sheet_05s.jpg,0,0,0.0,0,134,134,134,,,,,,,,,,,,,312.0265959999997,0.026595999999699416,None,342.6462449999999,342.6462449999999,342.6462449999999,342.6462449999999,342.6462449999999,342.6462449999999,342.6462449999999,342.6462449999999,342.6462449999999,342.6462449999999,,005,P010,2025_Feb_01_1534,ConditionRich,2021.2.3,59.93206101548278,
315.75,316.0,41,0.0,Stimuli/Blank.png,0,0,0.0,0,135,135,135,,,,,,,,,,,,,315.7767960000019,0.02679600000192295,None,346.38289440000153,346.38289440000153,346.38289440000153,346.38289440000153,346.38289440000153,346.38289440000153,346.38289440000153,346.38289440000153,346.38289440000153,346.38289440000153,,005,P010,2025_Feb_01_1534,ConditionRich,2021.2.3,59.93206101548278,
316.0,319.75,34,0.75,Stimuli/P010/things_man_05s.jpg,0,0,0.0,0,136,136,136,,,,,,,,,,,,,316.01139310000144,0.01139310000144178,None,346.61642490000304,346.61642490000304,346.61642490000304,346.61642490000304,346.61642490000304,346.61642490000304,346.61642490000304,346.61642490000304,346.61642490000304,346.61642490000304,,005,P010,2025_Feb_01_1534,ConditionRich,2021.2.3,59.93206101548278,
319.75,320.0,41,0.0,Stimuli/Blank.png,0,0,0.0,0,137,137,137,,,,,,,,,,,,,319.76476059999914,0.014760599999135593,None,350.369746700002,350.369746700002,350.369746700002,350.369746700002,350.369746700002,350.369746700002,350.369746700002,350.369746700002,350.369746700002,350.369746700002,,005,P010,2025_Feb_01_1534,ConditionRich,2021.2.3,59.93206101548278,
320.0,323.75,14,0.75,Stimuli/P010/sun_blaqxdebghixzyyw.jpg,0,0,0.0,0,138,138,138,,,,,,,,,,,,,320.0148819999995,0.014881999999488471,None,350.63663820000147,350.63663820000147,350.63663820000147,350.63663820000147,350.63663820000147,350.63663820000147,350.63663820000147,350.63663820000147,350.63663820000147,350.63663820000147,,005,P010,2025_Feb_01_1534,ConditionRich,2021.2.3,59.93206101548278,
323.75,324.0,41,0.0,Stimuli/Blank.png,0,0,0.0,0,139,139,139,,,,,,,,,,,,,323.76859630000035,0.01859630000035395,None,354.3732900000032,354.3732900000032,354.3732900000032,354.3732900000032,354.3732900000032,354.3732900000032,354.3732900000032,354.3732900000032,354.3732900000032,354.3732900000032,,005,P010,2025_Feb_01_1534,ConditionRich,2021.2.3,59.93206101548278,
324.0,327.75,32,0.75,Stimuli/P010/things_hawk_05s.jpg,0,0,0.0,0,140,140,140,,,,,,,,,,,,,324.000977300002,0.00097730000197771,None,354.60681860000113,354.60681860000113,354.60681860000113,354.60681860000113,354.60681860000113,354.60681860000113,354.60681860000113,354.60681860000113,354.60681860000113,354.60681860000113,,005,P010,2025_Feb_01_1534,ConditionRich,2021.2.3,59.93206101548278,
327.75,328.0,41,0.0,Stimuli/Blank.png,0,0,0.0,0,141,141,141,,,,,,,,,,,,,327.7548496999989,0.004849699998885626,None,358.3601493000024,358.3601493000024,358.3601493000024,358.3601493000024,358.3601493000024,358.3601493000024,358.3601493000024,358.3601493000024,358.3601493000024,358.3601493000024,,005,P010,2025_Feb_01_1534,ConditionRich,2021.2.3,59.93206101548278,
328.0,331.75,1,0.75,Stimuli/P010/sun_abqdlumenyzawlme.jpg,0,0,0.0,0,142,142,142,,,,,,,,,,,,,328.0050095000006,0.005009500000596745,None,358.62704430000304,358.62704430000304,358.62704430000304,358.62704430000304,358.62704430000304,358.62704430000304,358.62704430000304,358.62704430000304,358.62704430000304,358.62704430000304,,005,P010,2025_Feb_01_1534,ConditionRich,2021.2.3,59.93206101548278,
331.75,332.0,41,0.0,Stimuli/Blank.png,0,0,0.0,0,143,143,143,,,,,,,,,,,,,331.77498050000213,0.024980500002129702,None,362.380360500003,362.380360500003,362.380360500003,362.380360500003,362.380360500003,362.380360500003,362.380360500003,362.380360500003,362.380360500003,362.380360500003,,005,P010,2025_Feb_01_1534,ConditionRich,2021.2.3,59.93206101548278,
332.0,335.75,29,0.75,Stimuli/P010/things_fingerprint_05s.jpg,0,0,0.0,0,144,144,144,,,,,,,,,,,,,332.0080995999997,0.008099599999695783,None,362.6305859000022,362.6305859000022,362.6305859000022,362.6305859000022,362.6305859000022,362.6305859000022,362.6305859000022,362.6305859000022,362.6305859000022,362.6305859000022,,005,P010,2025_Feb_01_1534,ConditionRich,2021.2.3,59.93206101548278,
335.75,336.0,41,0.0,Stimuli/Blank.png,0,0,0.0,0,145,145,145,,,,,,,,,,,,,335.78045570000177,0.030455700001766672,None,366.4005902000026,366.4005902000026,366.4005902000026,366.4005902000026,366.4005902000026,366.4005902000026,366.4005902000026,366.4005902000026,366.4005902000026,366.4005902000026,,005,P010,2025_Feb_01_1534,ConditionRich,2021.2.3,59.93206101548278,
336.0,339.75,4,0.75,Stimuli/P010/sun_afkzdukwewwzqtmr.jpg,0,0,0.0,0,146,146,146,,,,,,,,,,,,,336.03096070000174,0.030960700001742225,None,366.6507767000003,366.6507767000003,366.6507767000003,366.6507767000003,366.6507767000003,366.6507767000003,366.6507767000003,366.6507767000003,366.6507767000003,366.6507767000003,,005,P010,2025_Feb_01_1534,ConditionRich,2021.2.3,59.93206101548278,
339.75,340.0,41,0.0,Stimuli/Blank.png,0,0,0.0,0,147,147,147,,,,,,,,,,,,,339.7649703999996,0.014970399999583606,None,370.3707609000012,370.3707609000012,370.3707609000012,370.3707609000012,370.3707609000012,370.3707609000012,370.3707609000012,370.3707609000012,370.3707609000012,370.3707609000012,,005,P010,2025_Feb_01_1534,ConditionRich,2021.2.3,59.93206101548278,
340.0,343.75,7,0.75,Stimuli/P010/sun_apiogxmvvzfmtsmj.jpg,0,0,0.0,0,148,148,148,,,,,,,,,,,,,340.0151678000002,0.01516780000019935,None,370.62098049999986,370.62098049999986,370.62098049999986,370.62098049999986,370.62098049999986,370.62098049999986,370.62098049999986,370.62098049999986,370.62098049999986,370.62098049999986,,005,P010,2025_Feb_01_1534,ConditionRich,2021.2.3,59.93206101548278,
343.75,344.0,41,0.0,Stimuli/Blank.png,0,0,0.0,0,149,149,149,,,,,,,,,,,,,343.7518197999998,0.0018197999997937586,None,374.3577679000009,374.3577679000009,374.3577679000009,374.3577679000009,374.3577679000009,374.3577679000009,374.3577679000009,374.3577679000009,374.3577679000009,374.3577679000009,,005,P010,2025_Feb_01_1534,ConditionRich,2021.2.3,59.93206101548278,
344.0,347.75,40,0.75,Stimuli/P010/things_woman_05s.jpg,0,0,0.0,0,150,150,150,,,,,,,,,,,,,344.00181710000106,0.0018171000010624994,None,374.60788610000236,374.60788610000236,374.60788610000236,374.60788610000236,374.60788610000236,374.60788610000236,374.60788610000236,374.60788610000236,374.60788610000236,374.60788610000236,,005,P010,2025_Feb_01_1534,ConditionRich,2021.2.3,59.93206101548278,
347.75,348.0,41,0.0,Stimuli/Blank.png,0,0,0.0,0,151,151,151,,,,,,,,,,,,,347.7558351000007,0.005835100000695093,None,378.361168200001,378.361168200001,378.361168200001,378.361168200001,378.361168200001,378.361168200001,378.361168200001,378.361168200001,378.361168200001,378.361168200001,,005,P010,2025_Feb_01_1534,ConditionRich,2021.2.3,59.93206101548278,
348.0,351.75,17,0.75,Stimuli/P010/sun_brkrfjpyfglmigkk.jpg,0,0,0.0,0,152,152,152,,,,,,,,,,,,,348.0065547000013,0.006554700001288438,None,378.62808080000104,378.62808080000104,378.62808080000104,378.62808080000104,378.62808080000104,378.62808080000104,378.62808080000104,378.62808080000104,378.62808080000104,378.62808080000104,,005,P010,2025_Feb_01_1534,ConditionRich,2021.2.3,59.93206101548278,
351.75,352.0,41,0.0,Stimuli/Blank.png,0,0,0.0,0,153,153,153,,,,,,,,,,,,,351.7762068000011,0.026206800001091324,None,382.3813964000001,382.3813964000001,382.3813964000001,382.3813964000001,382.3813964000001,382.3813964000001,382.3813964000001,382.3813964000001,382.3813964000001,382.3813964000001,,005,P010,2025_Feb_01_1534,ConditionRich,2021.2.3,59.93206101548278,
352.0,355.75,21,0.75,Stimuli/P010/things_boy_05s.jpg,0,0,0.0,0,154,154,154,,,,,,,,,,,,,352.00995740000144,0.009957400001439964,None,382.61494660000244,382.61494660000244,382.61494660000244,382.61494660000244,382.61494660000244,382.61494660000244,382.61494660000244,382.61494660000244,382.61494660000244,382.61494660000244,,005,P010,2025_Feb_01_1534,ConditionRich,2021.2.3,59.93206101548278,
355.75,356.0,41,0.0,Stimuli/Blank.png,0,0,0.0,0,155,155,155,,,,,,,,,,,,,355.76270139999906,0.012701399999059504,None,386.3683234000018,386.3683234000018,386.3683234000018,386.3683234000018,386.3683234000018,386.3683234000018,386.3683234000018,386.3683234000018,386.3683234000018,386.3683234000018,,005,P010,2025_Feb_01_1534,ConditionRich,2021.2.3,59.93206101548278,
356.0,359.75,10,0.75,Stimuli/P010/sun_bdkttewvyfdarikm.jpg,0,0,0.0,0,156,156,156,,,,,,,,,,,,,356.0137375000013,0.01373750000129803,None,386.6351445,386.6351445,386.6351445,386.6351445,386.6351445,386.6351445,386.6351445,386.6351445,386.6351445,386.6351445,,005,P010,2025_Feb_01_1534,ConditionRich,2021.2.3,59.93206101548278,
359.75,360.0,41,0.0,Stimuli/Blank.png,0,0,0.0,0,157,157,157,,,,,,,,,,,,,359.76647690000027,0.01647690000027069,None,390.3717837000004,390.3717837000004,390.3717837000004,390.3717837000004,390.3717837000004,390.3717837000004,390.3717837000004,390.3717837000004,390.3717837000004,390.3717837000004,,005,P010,2025_Feb_01_1534,ConditionRich,2021.2.3,59.93206101548278,
360.0,363.75,20,0.75,Stimuli/P010/sun_ddsiwinthvyejghq.jpg,0,0,0.0,0,158,158,158,,,,,,,,,,,,,360.00026920000164,0.0002692000016395468,None,390.62200160000066,390.62200160000066,390.62200160000066,390.62200160000066,390.62200160000066,390.62200160000066,390.62200160000066,390.62200160000066,390.62200160000066,390.62200160000066,,005,P010,2025_Feb_01_1534,ConditionRich,2021.2.3,59.93206101548278,
363.75,364.0,41,0.0,Stimuli/Blank.png,0,0,0.0,0,159,159,159,,,,,,,,,,,,,363.7694024000011,0.019402400001126807,None,394.37536620000174,394.37536620000174,394.37536620000174,394.37536620000174,394.37536620000174,394.37536620000174,394.37536620000174,394.37536620000174,394.37536620000174,394.37536620000174,,005,P010,2025_Feb_01_1534,ConditionRich,2021.2.3,59.93206101548278,
364.0,367.75,2,0.75,Stimuli/P010/sun_acvloibbxiqpiwnv.jpg,0,0,0.0,0,160,160,160,,,,,,,,,,,,,364.00371019999875,0.0037101999987498857,None,394.60887640000146,394.60887640000146,394.60887640000146,394.60887640000146,394.60887640000146,394.60887640000146,394.60887640000146,394.60887640000146,394.60887640000146,394.60887640000146,,005,P010,2025_Feb_01_1534,ConditionRich,2021.2.3,59.93206101548278,
367.75,368.0,41,0.0,Stimuli/Blank.png,0,0,0.0,0,161,161,161,,,,,,,,,,,,,367.75641069999983,0.006410699999833014,None,398.36219410000194,398.36219410000194,398.36219410000194,398.36219410000194,398.36219410000194,398.36219410000194,398.36219410000194,398.36219410000194,398.36219410000194,398.36219410000194,,005,P010,2025_Feb_01_1534,ConditionRich,2021.2.3,59.93206101548278,
368.0,371.75,16,0.75,Stimuli/P010/sun_bqpyqljaflidcauh.jpg,0,0,0.0,0,162,162,162,,,,,,,,,,,,,368.0067850000014,0.006785000001400476,None,398.6124114000013,398.6124114000013,398.6124114000013,398.6124114000013,398.6124114000013,398.6124114000013,398.6124114000013,398.6124114000013,398.6124114000013,398.6124114000013,,005,P010,2025_Feb_01_1534,ConditionRich,2021.2.3,59.93206101548278,
371.75,372.0,41,0.0,Stimuli/Blank.png,0,0,0.0,0,163,163,163,,,,,,,,,,,,,371.75968339999963,0.009683399999630637,None,402.3657560000029,402.3657560000029,402.3657560000029,402.3657560000029,402.3657560000029,402.3657560000029,402.3657560000029,402.3657560000029,402.3657560000029,402.3657560000029,,005,P010,2025_Feb_01_1534,ConditionRich,2021.2.3,59.93206101548278,
372.0,388.0,0,0.0,Stimuli/Blank.png,1,1,1.75,0,164,164,164,,,,,,,,,,,,,372.01072829999976,0.010728299999755109,None,402.6159637000019,402.6159637000019,402.6159637000019,402.6159637000019,402.6159637000019,402.6159637000019,403.60017340000195,404.35083060000034,402.6159637000019,402.6159637000019,,005,P010,2025_Feb_01_1534,ConditionRich,2021.2.3,59.93206101548278,
