eventStartTime,eventEndTime,eventCond,imSize,imFile,responseEvent,fixRespStart,fixRespEnd,Events.thisRepN,Events.thisTrialN,Events.thisN,Events.thisIndex,Instructions.started,Instructions.stopped,participantReadyResponse.keys,participantReadyResponse.rt,participantReadyResponse.started,participantReadyResponse.stopped,startWaitforTrigger,triggerResponse.keys,triggerResponse.rt,triggerResponse.started,triggerResponse.stopped,globalTimer,actualStartTime,startTimingDiff,participantResponse.keys,participantResponse.started,participantResponse.stopped,image.started,image.stopped,fixationOutside.started,fixationOutside.stopped,fixationResponse.started,fixationResponse.stopped,fixationInside.started,fixationInside.stopped,participantResponse.rt,session,participant,date,expName,psychopyVersion,frameRate,
,,,,,,,,,,,,11.16643380000096,None,1,14.602882999999565,11.16643380000096,None,,,,,,,,,,,,,,,,,,,,,001,P010,2025_Feb_01_1459,ConditionRich,2021.2.3,59.956387723027376,
,,,,,,,,,,,,,,,,,,25.773188800001662,5,15.113916599999357,25.786468400001468,None,,,,,,,,,,,,,,,,001,P010,2025_Feb_01_1459,ConditionRich,2021.2.3,59.956387723027376,
0.0,4.0,0,0.0,Stimuli/Blank.png,0,0.0,0.0,0,0,0,0,,,,,,,,,,,,40.90336920000118,0.026169600001594517,0.026169600001594517,None,40.94983340000181,None,40.94983340000181,None,40.94983340000181,None,40.94983340000181,40.94983340000181,40.94983340000181,None,,001,P010,2025_Feb_01_1459,ConditionRich,2021.2.3,59.956387723027376,
4.0,4.75,40,0.75,Stimuli/P010/things_woman_05s.jpg,0,0.0,0.0,0,1,1,1,,,,,,,,,,,,,4.020404400002008,0.020404400002007606,None,44.953730299999734,44.953730299999734,44.953730299999734,44.953730299999734,44.953730299999734,44.953730299999734,44.953730299999734,44.953730299999734,44.953730299999734,44.953730299999734,,001,P010,2025_Feb_01_1459,ConditionRich,2021.2.3,59.956387723027376,
4.75,8.0,41,0.0,Stimuli/Blank.png,0,0.0,0.0,0,2,2,2,,,,,,,,,,,,,4.77069720000145,0.020697200001450256,None,45.704330200002005,45.704330200002005,45.704330200002005,45.704330200002005,45.704330200002005,45.704330200002005,45.704330200002005,45.704330200002005,45.704330200002005,45.704330200002005,,001,P010,2025_Feb_01_1459,ConditionRich,2021.2.3,59.956387723027376,
8.0,8.75,33,0.75,Stimuli/P010/things_lizard_05n.jpg,0,0.0,0.0,0,3,3,3,,,,,,,,,,,,,8.024847399999999,0.024847399999998743,None,48.97358919999897,48.97358919999897,48.97358919999897,48.97358919999897,48.97358919999897,48.97358919999897,48.97358919999897,48.97358919999897,48.97358919999897,48.97358919999897,,001,P010,2025_Feb_01_1459,ConditionRich,2021.2.3,59.956387723027376,
8.75,12.0,41,0.0,Stimuli/Blank.png,0,0.0,0.0,0,4,4,4,,,,,,,,,,,,,8.791050100000575,0.041050100000575185,None,49.70759299999918,49.70759299999918,49.70759299999918,49.70759299999918,49.70759299999918,49.70759299999918,49.70759299999918,49.70759299999918,49.70759299999918,49.70759299999918,,001,P010,2025_Feb_01_1459,ConditionRich,2021.2.3,59.956387723027376,
12.0,12.75,15,0.75,Stimuli/P010/sun_boryivbddrnarrbo.jpg,0,0.0,0.0,0,5,5,5,,,,,,,,,,,,,12.00941370000146,0.009413700001459802,None,52.943793400001596,52.943793400001596,52.943793400001596,52.943793400001596,52.943793400001596,52.943793400001596,52.943793400001596,52.943793400001596,52.943793400001596,52.943793400001596,,001,P010,2025_Feb_01_1459,ConditionRich,2021.2.3,59.956387723027376,
12.75,16.0,41,0.0,Stimuli/Blank.png,1,1.25,2.0,0,6,6,6,,,,,,,,,,,,,12.776999100002286,0.02699910000228556,1,53.69444690000091,53.69444690000091,53.69444690000091,53.69444690000091,53.69444690000091,53.69444690000091,54.928910099999484,55.67957540000134,53.69444690000091,53.69444690000091,1.8869973000000755,001,P010,2025_Feb_01_1459,ConditionRich,2021.2.3,59.956387723027376,
16.0,16.75,32,0.75,Stimuli/P010/things_hawk_05s.jpg,0,0.0,0.0,0,7,7,7,,,,,,,,,,,,,16.01272600000084,0.012726000000839122,None,56.94731270000193,56.94731270000193,56.94731270000193,56.94731270000193,56.94731270000193,56.94731270000193,56.94731270000193,56.94731270000193,56.94731270000193,56.94731270000193,,001,P010,2025_Feb_01_1459,ConditionRich,2021.2.3,59.956387723027376,
16.75,20.0,41,0.0,Stimuli/Blank.png,0,0.0,0.0,0,8,8,8,,,,,,,,,,,,,16.78068490000078,0.030684900000778725,None,57.69797910000125,57.69797910000125,57.69797910000125,57.69797910000125,57.69797910000125,57.69797910000125,57.69797910000125,57.69797910000125,57.69797910000125,57.69797910000125,,001,P010,2025_Feb_01_1459,ConditionRich,2021.2.3,59.956387723027376,
20.0,20.75,35,0.75,Stimuli/P010/things_mushroom_05n.jpg,0,0.0,0.0,0,9,9,9,,,,,,,,,,,,,19.999785100000736,-0.00021489999926416203,None,60.950852300000406,60.950852300000406,60.950852300000406,60.950852300000406,60.950852300000406,60.950852300000406,60.950852300000406,60.950852300000406,60.950852300000406,60.950852300000406,,001,P010,2025_Feb_01_1459,ConditionRich,2021.2.3,59.956387723027376,
20.75,24.0,41,0.0,Stimuli/Blank.png,0,0.0,0.0,0,10,10,10,,,,,,,,,,,,,20.785388100001,0.035388100001000566,None,61.70154960000218,61.70154960000218,61.70154960000218,61.70154960000218,61.70154960000218,61.70154960000218,61.70154960000218,61.70154960000218,61.70154960000218,61.70154960000218,,001,P010,2025_Feb_01_1459,ConditionRich,2021.2.3,59.956387723027376,
24.0,24.75,22,0.75,Stimuli/P010/things_butterfly_05s.jpg,0,0.0,0.0,0,11,11,11,,,,,,,,,,,,,24.00468340000225,0.004683400002249982,None,64.93768750000163,64.93768750000163,64.93768750000163,64.93768750000163,64.93768750000163,64.93768750000163,64.93768750000163,64.93768750000163,64.93768750000163,64.93768750000163,,001,P010,2025_Feb_01_1459,ConditionRich,2021.2.3,59.956387723027376,
24.75,28.0,41,0.0,Stimuli/Blank.png,0,0.0,0.0,0,12,12,12,,,,,,,,,,,,,24.770989500000724,0.020989500000723638,None,65.6883815000001,65.6883815000001,65.6883815000001,65.6883815000001,65.6883815000001,65.6883815000001,65.6883815000001,65.6883815000001,65.6883815000001,65.6883815000001,,001,P010,2025_Feb_01_1459,ConditionRich,2021.2.3,59.956387723027376,
28.0,28.75,27,0.75,Stimuli/P010/things_curling_iron_05s.jpg,0,0.0,0.0,0,13,13,13,,,,,,,,,,,,,28.00964450000174,0.009644500001741108,None,68.94123620000028,68.94123620000028,68.94123620000028,68.94123620000028,68.94123620000028,68.94123620000028,68.94123620000028,68.94123620000028,68.94123620000028,68.94123620000028,,001,P010,2025_Feb_01_1459,ConditionRich,2021.2.3,59.956387723027376,
28.75,32.0,41,0.0,Stimuli/Blank.png,0,0.0,0.0,0,14,14,14,,,,,,,,,,,,,28.774901100001443,0.02490110000144341,None,69.69192680000197,69.69192680000197,69.69192680000197,69.69192680000197,69.69192680000197,69.69192680000197,69.69192680000197,69.69192680000197,69.69192680000197,69.69192680000197,,001,P010,2025_Feb_01_1459,ConditionRich,2021.2.3,59.956387723027376,
32.0,32.75,31,0.75,Stimuli/P010/things_girl_05s.jpg,0,0.0,0.0,0,15,15,15,,,,,,,,,,,,,32.010171800000535,0.010171800000534859,None,72.96147959999871,72.96147959999871,72.96147959999871,72.96147959999871,72.96147959999871,72.96147959999871,72.96147959999871,72.96147959999871,72.96147959999871,72.96147959999871,,001,P010,2025_Feb_01_1459,ConditionRich,2021.2.3,59.956387723027376,
32.75,36.0,41,0.0,Stimuli/Blank.png,0,0.0,0.0,0,16,16,16,,,,,,,,,,,,,32.79488520000086,0.044885200000862824,None,73.71214569999938,73.71214569999938,73.71214569999938,73.71214569999938,73.71214569999938,73.71214569999938,73.71214569999938,73.71214569999938,73.71214569999938,73.71214569999938,,001,P010,2025_Feb_01_1459,ConditionRich,2021.2.3,59.956387723027376,
36.0,36.75,9,0.75,Stimuli/P010/sun_bdjkvwqqqycuixtc.jpg,0,0.0,0.0,0,17,17,17,,,,,,,,,,,,,36.013602800001536,0.013602800001535797,None,76.96503949999897,76.96503949999897,76.96503949999897,76.96503949999897,76.96503949999897,76.96503949999897,76.96503949999897,76.96503949999897,76.96503949999897,76.96503949999897,,001,P010,2025_Feb_01_1459,ConditionRich,2021.2.3,59.956387723027376,
36.75,40.0,41,0.0,Stimuli/Blank.png,0,0.0,0.0,0,18,18,18,,,,,,,,,,,,,36.799895500000275,0.049895500000275206,None,77.73237320000044,77.73237320000044,77.73237320000044,77.73237320000044,77.73237320000044,77.73237320000044,77.73237320000044,77.73237320000044,77.73237320000044,77.73237320000044,,001,P010,2025_Feb_01_1459,ConditionRich,2021.2.3,59.956387723027376,
40.0,40.75,37,0.75,Stimuli/P010/things_pug_05s.jpg,0,0.0,0.0,0,19,19,19,,,,,,,,,,,,,40.017274000001635,0.017274000001634704,None,80.95187760000044,80.95187760000044,80.95187760000044,80.95187760000044,80.95187760000044,80.95187760000044,80.95187760000044,80.95187760000044,80.95187760000044,80.95187760000044,,001,P010,2025_Feb_01_1459,ConditionRich,2021.2.3,59.956387723027376,
40.75,44.0,41,0.0,Stimuli/Blank.png,0,0.0,0.0,0,20,20,20,,,,,,,,,,,,,40.76986370000304,0.01986370000304305,None,81.70254850000128,81.70254850000128,81.70254850000128,81.70254850000128,81.70254850000128,81.70254850000128,81.70254850000128,81.70254850000128,81.70254850000128,81.70254850000128,,001,P010,2025_Feb_01_1459,ConditionRich,2021.2.3,59.956387723027376,
44.0,44.75,10,0.75,Stimuli/P010/sun_bdkttewvyfdarikm.jpg,0,0.0,0.0,0,21,21,21,,,,,,,,,,,,,44.02082880000307,0.02082880000307341,None,84.95541189999858,84.95541189999858,84.95541189999858,84.95541189999858,84.95541189999858,84.95541189999858,84.95541189999858,84.95541189999858,84.95541189999858,84.95541189999858,,001,P010,2025_Feb_01_1459,ConditionRich,2021.2.3,59.956387723027376,
44.75,48.0,41,0.0,Stimuli/Blank.png,0,0.0,0.0,0,22,22,22,,,,,,,,,,,,,44.77153550000003,0.02153550000002724,None,85.68939730000056,85.68939730000056,85.68939730000056,85.68939730000056,85.68939730000056,85.68939730000056,85.68939730000056,85.68939730000056,85.68939730000056,85.68939730000056,,001,P010,2025_Feb_01_1459,ConditionRich,2021.2.3,59.956387723027376,
48.0,48.75,30,0.75,Stimuli/P010/things_fire_05s.jpg,0,0.0,0.0,0,23,23,23,,,,,,,,,,,,,48.01076230000035,0.010762300000351388,None,88.95895810000002,88.95895810000002,88.95895810000002,88.95895810000002,88.95895810000002,88.95895810000002,88.95895810000002,88.95895810000002,88.95895810000002,88.95895810000002,,001,P010,2025_Feb_01_1459,ConditionRich,2021.2.3,59.956387723027376,
48.75,52.0,41,0.0,Stimuli/Blank.png,0,0.0,0.0,0,24,24,24,,,,,,,,,,,,,48.79168130000107,0.041681300001073396,None,89.70964100000128,89.70964100000128,89.70964100000128,89.70964100000128,89.70964100000128,89.70964100000128,89.70964100000128,89.70964100000128,89.70964100000128,89.70964100000128,,001,P010,2025_Feb_01_1459,ConditionRich,2021.2.3,59.956387723027376,
52.0,52.75,26,0.75,Stimuli/P010/things_cookie_sheet_05s.jpg,1,0.0,0.75,0,25,25,25,,,,,,,,,,,,,52.011297100001684,0.011297100001684157,1,92.94581649999964,92.94581649999964,92.94581649999964,92.94581649999964,92.94581649999964,92.94581649999964,92.94581649999964,93.67983910000112,92.94581649999964,92.94581649999964,0.6718599999985599,001,P010,2025_Feb_01_1459,ConditionRich,2021.2.3,59.956387723027376,
52.75,56.0,41,0.0,Stimuli/Blank.png,0,0.0,0.0,0,26,26,26,,,,,,,,,,,,,52.780205700000806,0.030205700000806246,None,93.69648980000056,93.69648980000056,93.69648980000056,93.69648980000056,93.69648980000056,93.69648980000056,93.69648980000056,93.69648980000056,93.69648980000056,93.69648980000056,,001,P010,2025_Feb_01_1459,ConditionRich,2021.2.3,59.956387723027376,
56.0,56.75,34,0.75,Stimuli/P010/things_man_05s.jpg,0,0.0,0.0,0,27,27,27,,,,,,,,,,,,,56.00102870000046,0.001028700000460958,None,96.93269320000036,96.93269320000036,96.93269320000036,96.93269320000036,96.93269320000036,96.93269320000036,96.93269320000036,96.93269320000036,96.93269320000036,96.93269320000036,,001,P010,2025_Feb_01_1459,ConditionRich,2021.2.3,59.956387723027376,
56.75,60.0,41,0.0,Stimuli/Blank.png,0,0.0,0.0,0,28,28,28,,,,,,,,,,,,,56.766075999999885,0.016075999999884516,None,97.68334890000187,97.68334890000187,97.68334890000187,97.68334890000187,97.68334890000187,97.68334890000187,97.68334890000187,97.68334890000187,97.68334890000187,97.68334890000187,,001,P010,2025_Feb_01_1459,ConditionRich,2021.2.3,59.956387723027376,
60.0,60.75,17,0.75,Stimuli/P010/sun_brkrfjpyfglmigkk.jpg,1,0.0,0.75,0,29,29,29,,,,,,,,,,,,,60.00156440000137,0.0015644000013708137,1,100.93621650000205,100.93621650000205,100.93621650000205,100.93621650000205,100.93621650000205,100.93621650000205,100.93621650000205,101.65357890000087,100.93621650000205,100.93621650000205,0.6574633999989601,001,P010,2025_Feb_01_1459,ConditionRich,2021.2.3,59.956387723027376,
60.75,64.0,41,0.0,Stimuli/Blank.png,0,0.0,0.0,0,30,30,30,,,,,,,,,,,,,60.769430000000284,0.019430000000284053,None,101.6868867000012,101.6868867000012,101.6868867000012,101.6868867000012,101.6868867000012,101.6868867000012,101.6868867000012,101.6868867000012,101.6868867000012,101.6868867000012,,001,P010,2025_Feb_01_1459,ConditionRich,2021.2.3,59.956387723027376,
64.0,64.75,3,0.75,Stimuli/P010/sun_aewgwsmvsgzleqhw.jpg,0,0.0,0.0,0,31,31,31,,,,,,,,,,,,,64.00542359999963,0.005423599999630824,None,104.939760199999,104.939760199999,104.939760199999,104.939760199999,104.939760199999,104.939760199999,104.939760199999,104.939760199999,104.939760199999,104.939760199999,,001,P010,2025_Feb_01_1459,ConditionRich,2021.2.3,59.956387723027376,
64.75,68.0,41,0.0,Stimuli/Blank.png,0,0.0,0.0,0,32,32,32,,,,,,,,,,,,,64.77314810000098,0.023148100000980776,None,105.69047349999892,105.69047349999892,105.69047349999892,105.69047349999892,105.69047349999892,105.69047349999892,105.69047349999892,105.69047349999892,105.69047349999892,105.69047349999892,,001,P010,2025_Feb_01_1459,ConditionRich,2021.2.3,59.956387723027376,
68.0,68.75,39,0.75,Stimuli/P010/things_tiara_05s.jpg,0,0.0,0.0,0,33,33,33,,,,,,,,,,,,,68.00862910000069,0.008629100000689505,None,108.92658010000014,108.92658010000014,108.92658010000014,108.92658010000014,108.92658010000014,108.92658010000014,108.92658010000014,108.92658010000014,108.92658010000014,108.92658010000014,,001,P010,2025_Feb_01_1459,ConditionRich,2021.2.3,59.956387723027376,
68.75,72.0,41,0.0,Stimuli/Blank.png,0,0.0,0.0,0,34,34,34,,,,,,,,,,,,,68.76031650000004,0.01031650000004447,None,109.67729070000132,109.67729070000132,109.67729070000132,109.67729070000132,109.67729070000132,109.67729070000132,109.67729070000132,109.67729070000132,109.67729070000132,109.67729070000132,,001,P010,2025_Feb_01_1459,ConditionRich,2021.2.3,59.956387723027376,
72.0,72.75,8,0.75,Stimuli/P010/sun_batcnoizlkeiqdtx.jpg,0,0.0,0.0,0,35,35,35,,,,,,,,,,,,,72.01272390000304,0.01272390000303858,None,112.94685329999993,112.94685329999993,112.94685329999993,112.94685329999993,112.94685329999993,112.94685329999993,112.94685329999993,112.94685329999993,112.94685329999993,112.94685329999993,,001,P010,2025_Feb_01_1459,ConditionRich,2021.2.3,59.956387723027376,
72.75,76.0,41,0.0,Stimuli/Blank.png,1,1.25,2.0,0,36,36,36,,,,,,,,,,,,,72.77946570000131,0.029465700001310324,1,113.69750230000136,113.69750230000136,113.69750230000136,113.69750230000136,113.69750230000136,113.69750230000136,114.93192379999891,115.68258620000051,113.69750230000136,113.69750230000136,1.933888499999739,001,P010,2025_Feb_01_1459,ConditionRich,2021.2.3,59.956387723027376,
76.0,76.75,25,0.75,Stimuli/P010/things_clothespin_05s.jpg,0,0.0,0.0,0,37,37,37,,,,,,,,,,,,,76.01576110000315,0.015761100003146566,None,116.95038410000052,116.95038410000052,116.95038410000052,116.95038410000052,116.95038410000052,116.95038410000052,116.95038410000052,116.95038410000052,116.95038410000052,116.95038410000052,,001,P010,2025_Feb_01_1459,ConditionRich,2021.2.3,59.956387723027376,
76.75,80.0,41,0.0,Stimuli/Blank.png,1,0.25,1.0,0,38,38,38,,,,,,,,,,,,,76.76718220000112,0.017182200001116144,1,117.68437510000149,117.68437510000149,117.68437510000149,117.68437510000149,117.68437510000149,117.68437510000149,117.91794110000046,118.66860860000088,117.68437510000149,117.68437510000149,0.8740133999999671,001,P010,2025_Feb_01_1459,ConditionRich,2021.2.3,59.956387723027376,
80.0,80.75,1,0.75,Stimuli/P010/sun_abqdlumenyzawlme.jpg,0,0.0,0.0,0,39,39,39,,,,,,,,,,,,,80.00347239999974,0.0034723999997368082,None,120.93723959999988,120.93723959999988,120.93723959999988,120.93723959999988,120.93723959999988,120.93723959999988,120.93723959999988,120.93723959999988,120.93723959999988,120.93723959999988,,001,P010,2025_Feb_01_1459,ConditionRich,2021.2.3,59.956387723027376,
80.75,84.0,41,0.0,Stimuli/Blank.png,0,0.0,0.0,0,40,40,40,,,,,,,,,,,,,80.77014070000223,0.020140700002230005,None,121.68790490000174,121.68790490000174,121.68790490000174,121.68790490000174,121.68790490000174,121.68790490000174,121.68790490000174,121.68790490000174,121.68790490000174,121.68790490000174,,001,P010,2025_Feb_01_1459,ConditionRich,2021.2.3,59.956387723027376,
84.0,100.0,0,0.0,Stimuli/Blank.png,1,13.0,13.75,0,41,41,41,,,,,,,,,,,,,84.00629889999982,0.006298899999819696,1,124.92410930000187,124.92410930000187,124.92410930000187,124.92410930000187,124.92410930000187,124.92410930000187,137.90223960000003,138.6536371000002,124.92410930000187,124.92410930000187,13.61323899999843,001,P010,2025_Feb_01_1459,ConditionRich,2021.2.3,59.956387723027376,
100.0,100.75,5,0.75,Stimuli/P010/sun_akqvdmuauoxeafrj.jpg,0,0.0,0.0,0,42,42,42,,,,,,,,,,,,,100.00525630000266,0.005256300002656644,None,140.93825099999958,140.93825099999958,140.93825099999958,140.93825099999958,140.93825099999958,140.93825099999958,140.93825099999958,140.93825099999958,140.93825099999958,140.93825099999958,,001,P010,2025_Feb_01_1459,ConditionRich,2021.2.3,59.956387723027376,
100.75,104.0,41,0.0,Stimuli/Blank.png,0,0.0,0.0,0,43,43,43,,,,,,,,,,,,,100.77111789999981,0.021117899999808287,None,141.6889642999995,141.6889642999995,141.6889642999995,141.6889642999995,141.6889642999995,141.6889642999995,141.6889642999995,141.6889642999995,141.6889642999995,141.6889642999995,,001,P010,2025_Feb_01_1459,ConditionRich,2021.2.3,59.956387723027376,
104.0,104.75,4,0.75,Stimuli/P010/sun_afkzdukwewwzqtmr.jpg,0,0.0,0.0,0,44,44,44,,,,,,,,,,,,,104.00718400000187,0.007184000001871027,None,144.94180739999865,144.94180739999865,144.94180739999865,144.94180739999865,144.94180739999865,144.94180739999865,144.94180739999865,144.94180739999865,144.94180739999865,144.94180739999865,,001,P010,2025_Feb_01_1459,ConditionRich,2021.2.3,59.956387723027376,
104.75,108.0,41,0.0,Stimuli/Blank.png,0,0.0,0.0,0,45,45,45,,,,,,,,,,,,,104.77552430000287,0.025524300002871314,None,145.70914730000004,145.70914730000004,145.70914730000004,145.70914730000004,145.70914730000004,145.70914730000004,145.70914730000004,145.70914730000004,145.70914730000004,145.70914730000004,,001,P010,2025_Feb_01_1459,ConditionRich,2021.2.3,59.956387723027376,
108.0,108.75,18,0.75,Stimuli/P010/sun_bwjdahsxcqepqqbm.jpg,0,0.0,0.0,0,46,46,46,,,,,,,,,,,,,108.02969230000235,0.029692300002352567,None,148.97870189999958,148.97870189999958,148.97870189999958,148.97870189999958,148.97870189999958,148.97870189999958,148.97870189999958,148.97870189999958,148.97870189999958,148.97870189999958,,001,P010,2025_Feb_01_1459,ConditionRich,2021.2.3,59.956387723027376,
108.75,112.0,41,0.0,Stimuli/Blank.png,0,0.0,0.0,0,47,47,47,,,,,,,,,,,,,108.79479680000077,0.04479680000076769,None,149.71269570000004,149.71269570000004,149.71269570000004,149.71269570000004,149.71269570000004,149.71269570000004,149.71269570000004,149.71269570000004,149.71269570000004,149.71269570000004,,001,P010,2025_Feb_01_1459,ConditionRich,2021.2.3,59.956387723027376,
112.0,112.75,23,0.75,Stimuli/P010/things_charger_05s.jpg,0,0.0,0.0,0,48,48,48,,,,,,,,,,,,,112.01423430000068,0.014234300000680378,None,152.9489151000016,152.9489151000016,152.9489151000016,152.9489151000016,152.9489151000016,152.9489151000016,152.9489151000016,152.9489151000016,152.9489151000016,152.9489151000016,,001,P010,2025_Feb_01_1459,ConditionRich,2021.2.3,59.956387723027376,
112.75,116.0,41,0.0,Stimuli/Blank.png,1,1.25,2.0,0,49,49,49,,,,,,,,,,,,,112.78479050000169,0.034790500001690816,1,153.71624119999979,153.71624119999979,153.71624119999979,153.71624119999979,153.71624119999979,153.71624119999979,154.95065560000148,155.70131680000122,153.71624119999979,153.71624119999979,1.7383147000000463,001,P010,2025_Feb_01_1459,ConditionRich,2021.2.3,59.956387723027376,
116.0,116.75,24,0.75,Stimuli/P010/things_cigar_05n.jpg,0,0.0,0.0,0,50,50,50,,,,,,,,,,,,,116.02003690000129,0.020036900001286995,None,156.96916870000132,156.96916870000132,156.96916870000132,156.96916870000132,156.96916870000132,156.96916870000132,156.96916870000132,156.96916870000132,156.96916870000132,156.96916870000132,,001,P010,2025_Feb_01_1459,ConditionRich,2021.2.3,59.956387723027376,
116.75,120.0,41,0.0,Stimuli/Blank.png,0,0.0,0.0,0,51,51,51,,,,,,,,,,,,,116.78577960000257,0.03577960000257008,None,157.70307630000025,157.70307630000025,157.70307630000025,157.70307630000025,157.70307630000025,157.70307630000025,157.70307630000025,157.70307630000025,157.70307630000025,157.70307630000025,,001,P010,2025_Feb_01_1459,ConditionRich,2021.2.3,59.956387723027376,
120.0,120.75,36,0.75,Stimuli/P010/things_pelican_05s.jpg,0,0.0,0.0,0,52,52,52,,,,,,,,,,,,,120.00564990000203,0.005649900002026698,None,160.93926560000182,160.93926560000182,160.93926560000182,160.93926560000182,160.93926560000182,160.93926560000182,160.93926560000182,160.93926560000182,160.93926560000182,160.93926560000182,,001,P010,2025_Feb_01_1459,ConditionRich,2021.2.3,59.956387723027376,
120.75,124.0,41,0.0,Stimuli/Blank.png,0,0.0,0.0,0,53,53,53,,,,,,,,,,,,,120.77268390000245,0.022683900002448354,None,161.68995749999885,161.68995749999885,161.68995749999885,161.68995749999885,161.68995749999885,161.68995749999885,161.68995749999885,161.68995749999885,161.68995749999885,161.68995749999885,,001,P010,2025_Feb_01_1459,ConditionRich,2021.2.3,59.956387723027376,
124.0,124.75,16,0.75,Stimuli/P010/sun_bqpyqljaflidcauh.jpg,0,0.0,0.0,0,54,54,54,,,,,,,,,,,,,124.01087950000147,0.010879500001465203,None,164.94283329999962,164.94283329999962,164.94283329999962,164.94283329999962,164.94283329999962,164.94283329999962,164.94283329999962,164.94283329999962,164.94283329999962,164.94283329999962,,001,P010,2025_Feb_01_1459,ConditionRich,2021.2.3,59.956387723027376,
124.75,128.0,41,0.0,Stimuli/Blank.png,0,0.0,0.0,0,55,55,55,,,,,,,,,,,,,124.77572040000086,0.025720400000864174,None,165.69349249999868,165.69349249999868,165.69349249999868,165.69349249999868,165.69349249999868,165.69349249999868,165.69349249999868,165.69349249999868,165.69349249999868,165.69349249999868,,001,P010,2025_Feb_01_1459,ConditionRich,2021.2.3,59.956387723027376,
128.0,128.75,21,0.75,Stimuli/P010/things_boy_05s.jpg,0,0.0,0.0,0,56,56,56,,,,,,,,,,,,,128.01179500000217,0.01179500000216649,None,168.94633149999936,168.94633149999936,168.94633149999936,168.94633149999936,168.94633149999936,168.94633149999936,168.94633149999936,168.94633149999936,168.94633149999936,168.94633149999936,,001,P010,2025_Feb_01_1459,ConditionRich,2021.2.3,59.956387723027376,
128.75,132.0,41,0.0,Stimuli/Blank.png,1,2.25,3.0,0,57,57,57,,,,,,,,,,,,,128.78025470000284,0.030254700002842583,1,169.6970289000019,169.6970289000019,169.6970289000019,169.6970289000019,169.6970289000019,169.6970289000019,171.932338300001,172.68303409999862,169.6970289000019,169.6970289000019,2.908454399999755,001,P010,2025_Feb_01_1459,ConditionRich,2021.2.3,59.956387723027376,
132.0,132.75,2,0.75,Stimuli/P010/sun_acvloibbxiqpiwnv.jpg,0,0.0,0.0,0,58,58,58,,,,,,,,,,,,,132.0003714000013,0.00037140000131330453,None,172.9498937999997,172.9498937999997,172.9498937999997,172.9498937999997,172.9498937999997,172.9498937999997,172.9498937999997,172.9498937999997,172.9498937999997,172.9498937999997,,001,P010,2025_Feb_01_1459,ConditionRich,2021.2.3,59.956387723027376,
132.75,136.0,41,0.0,Stimuli/Blank.png,0,0.0,0.0,0,59,59,59,,,,,,,,,,,,,132.78467160000218,0.03467160000218428,None,173.7172501999994,173.7172501999994,173.7172501999994,173.7172501999994,173.7172501999994,173.7172501999994,173.7172501999994,173.7172501999994,173.7172501999994,173.7172501999994,,001,P010,2025_Feb_01_1459,ConditionRich,2021.2.3,59.956387723027376,
136.0,136.75,28,0.75,Stimuli/P010/things_face_05s.jpg,0,0.0,0.0,0,60,60,60,,,,,,,,,,,,,136.01904339999965,0.01904339999964577,None,176.97015290000127,176.97015290000127,176.97015290000127,176.97015290000127,176.97015290000127,176.97015290000127,176.97015290000127,176.97015290000127,176.97015290000127,176.97015290000127,,001,P010,2025_Feb_01_1459,ConditionRich,2021.2.3,59.956387723027376,
136.75,140.0,41,0.0,Stimuli/Blank.png,0,0.0,0.0,0,61,61,61,,,,,,,,,,,,,136.78692960000262,0.036929600002622465,None,177.70419000000038,177.70419000000038,177.70419000000038,177.70419000000038,177.70419000000038,177.70419000000038,177.70419000000038,177.70419000000038,177.70419000000038,177.70419000000038,,001,P010,2025_Feb_01_1459,ConditionRich,2021.2.3,59.956387723027376,
140.0,140.75,29,0.75,Stimuli/P010/things_fingerprint_05s.jpg,0,0.0,0.0,0,62,62,62,,,,,,,,,,,,,140.00589870000113,0.00589870000112569,None,180.9403029999994,180.9403029999994,180.9403029999994,180.9403029999994,180.9403029999994,180.9403029999994,180.9403029999994,180.9403029999994,180.9403029999994,180.9403029999994,,001,P010,2025_Feb_01_1459,ConditionRich,2021.2.3,59.956387723027376,
140.75,144.0,41,0.0,Stimuli/Blank.png,0,0.0,0.0,0,63,63,63,,,,,,,,,,,,,140.77580710000257,0.025807100002566585,None,181.7076545000018,181.7076545000018,181.7076545000018,181.7076545000018,181.7076545000018,181.7076545000018,181.7076545000018,181.7076545000018,181.7076545000018,181.7076545000018,,001,P010,2025_Feb_01_1459,ConditionRich,2021.2.3,59.956387723027376,
144.0,144.75,7,0.75,Stimuli/P010/sun_apiogxmvvzfmtsmj.jpg,0,0.0,0.0,0,64,64,64,,,,,,,,,,,,,144.02689950000058,0.02689950000058161,None,184.9604932000002,184.9604932000002,184.9604932000002,184.9604932000002,184.9604932000002,184.9604932000002,184.9604932000002,184.9604932000002,184.9604932000002,184.9604932000002,,001,P010,2025_Feb_01_1459,ConditionRich,2021.2.3,59.956387723027376,
144.75,148.0,41,0.0,Stimuli/Blank.png,0,0.0,0.0,0,65,65,65,,,,,,,,,,,,,144.77712650000103,0.027126500001031673,None,185.6945076000011,185.6945076000011,185.6945076000011,185.6945076000011,185.6945076000011,185.6945076000011,185.6945076000011,185.6945076000011,185.6945076000011,185.6945076000011,,001,P010,2025_Feb_01_1459,ConditionRich,2021.2.3,59.956387723027376,
148.0,148.75,11,0.75,Stimuli/P010/sun_bfyvfqiimvdaxlqn.jpg,0,0.0,0.0,0,66,66,66,,,,,,,,,,,,,148.0132819999999,0.013281999999890104,None,188.9640614000018,188.9640614000018,188.9640614000018,188.9640614000018,188.9640614000018,188.9640614000018,188.9640614000018,188.9640614000018,188.9640614000018,188.9640614000018,,001,P010,2025_Feb_01_1459,ConditionRich,2021.2.3,59.956387723027376,
148.75,152.0,41,0.0,Stimuli/Blank.png,0,0.0,0.0,0,67,67,67,,,,,,,,,,,,,148.7971385000019,0.04713850000189268,None,189.71483680000165,189.71483680000165,189.71483680000165,189.71483680000165,189.71483680000165,189.71483680000165,189.71483680000165,189.71483680000165,189.71483680000165,189.71483680000165,,001,P010,2025_Feb_01_1459,ConditionRich,2021.2.3,59.956387723027376,
152.0,152.75,14,0.75,Stimuli/P010/sun_blaqxdebghixzyyw.jpg,1,0.0,0.75,0,68,68,68,,,,,,,,,,,,,152.00116049999997,0.0011604999999690335,1,192.93428660000063,192.93428660000063,192.93428660000063,192.93428660000063,192.93428660000063,192.93428660000063,192.93428660000063,193.66826270000092,192.93428660000063,192.93428660000063,0.581190399996558,001,P010,2025_Feb_01_1459,ConditionRich,2021.2.3,59.956387723027376,
152.75,156.0,41,0.0,Stimuli/Blank.png,0,0.0,0.0,0,69,69,69,,,,,,,,,,,,,152.77015400000164,0.02015400000163936,None,193.7016248,193.7016248,193.7016248,193.7016248,193.7016248,193.7016248,193.7016248,193.7016248,193.7016248,193.7016248,,001,P010,2025_Feb_01_1459,ConditionRich,2021.2.3,59.956387723027376,
156.0,156.75,19,0.75,Stimuli/P010/sun_bwvfnogmotsvhofs.jpg,0,0.0,0.0,0,70,70,70,,,,,,,,,,,,,156.02081090000138,0.020810900001379196,None,196.97116300000198,196.97116300000198,196.97116300000198,196.97116300000198,196.97116300000198,196.97116300000198,196.97116300000198,196.97116300000198,196.97116300000198,196.97116300000198,,001,P010,2025_Feb_01_1459,ConditionRich,2021.2.3,59.956387723027376,
156.75,160.0,41,0.0,Stimuli/Blank.png,0,0.0,0.0,0,71,71,71,,,,,,,,,,,,,156.78807230000166,0.03807230000165873,None,197.7051395999988,197.7051395999988,197.7051395999988,197.7051395999988,197.7051395999988,197.7051395999988,197.7051395999988,197.7051395999988,197.7051395999988,197.7051395999988,,001,P010,2025_Feb_01_1459,ConditionRich,2021.2.3,59.956387723027376,
160.0,160.75,13,0.75,Stimuli/P010/sun_bjimvgwadfodioes.jpg,0,0.0,0.0,0,72,72,72,,,,,,,,,,,,,160.00804440000138,0.008044400001381291,None,200.9413186999991,200.9413186999991,200.9413186999991,200.9413186999991,200.9413186999991,200.9413186999991,200.9413186999991,200.9413186999991,200.9413186999991,200.9413186999991,,001,P010,2025_Feb_01_1459,ConditionRich,2021.2.3,59.956387723027376,
160.75,164.0,41,0.0,Stimuli/Blank.png,0,0.0,0.0,0,73,73,73,,,,,,,,,,,,,160.77394190000268,0.023941900002682814,None,201.6919984999986,201.6919984999986,201.6919984999986,201.6919984999986,201.6919984999986,201.6919984999986,201.6919984999986,201.6919984999986,201.6919984999986,201.6919984999986,,001,P010,2025_Feb_01_1459,ConditionRich,2021.2.3,59.956387723027376,
164.0,164.75,20,0.75,Stimuli/P010/sun_ddsiwinthvyejghq.jpg,0,0.0,0.0,0,74,74,74,,,,,,,,,,,,,164.010896900003,0.01089690000299015,None,204.94488869999986,204.94488869999986,204.94488869999986,204.94488869999986,204.94488869999986,204.94488869999986,204.94488869999986,204.94488869999986,204.94488869999986,204.94488869999986,,001,P010,2025_Feb_01_1459,ConditionRich,2021.2.3,59.956387723027376,
164.75,168.0,41,0.0,Stimuli/Blank.png,1,0.25,1.0,0,75,75,75,,,,,,,,,,,,,164.78007270000307,0.030072700003074715,1,205.71220950000134,205.71220950000134,205.71220950000134,205.71220950000134,205.71220950000134,205.71220950000134,205.94580250000217,206.69640459999937,205.71220950000134,205.71220950000134,0.7702530999995361,001,P010,2025_Feb_01_1459,ConditionRich,2021.2.3,59.956387723027376,
168.0,168.75,6,0.75,Stimuli/P010/sun_amkrwcyvinmsylsz.jpg,0,0.0,0.0,0,76,76,76,,,,,,,,,,,,,168.01393610000014,0.01393610000013723,None,208.94841430000088,208.94841430000088,208.94841430000088,208.94841430000088,208.94841430000088,208.94841430000088,208.94841430000088,208.94841430000088,208.94841430000088,208.94841430000088,,001,P010,2025_Feb_01_1459,ConditionRich,2021.2.3,59.956387723027376,
168.75,172.0,41,0.0,Stimuli/Blank.png,0,0.0,0.0,0,77,77,77,,,,,,,,,,,,,168.7811834000022,0.031183400002191775,None,209.69907199999943,209.69907199999943,209.69907199999943,209.69907199999943,209.69907199999943,209.69907199999943,209.69907199999943,209.69907199999943,209.69907199999943,209.69907199999943,,001,P010,2025_Feb_01_1459,ConditionRich,2021.2.3,59.956387723027376,
172.0,172.75,12,0.75,Stimuli/P010/sun_birmwgkdtrlevcaf.jpg,0,0.0,0.0,0,78,78,78,,,,,,,,,,,,,172.0012815000009,0.001281500000914093,None,212.93525729999965,212.93525729999965,212.93525729999965,212.93525729999965,212.93525729999965,212.93525729999965,212.93525729999965,212.93525729999965,212.93525729999965,212.93525729999965,,001,P010,2025_Feb_01_1459,ConditionRich,2021.2.3,59.956387723027376,
172.75,176.0,41,0.0,Stimuli/Blank.png,0,0.0,0.0,0,79,79,79,,,,,,,,,,,,,172.77091540000038,0.020915400000376394,None,213.70261609999943,213.70261609999943,213.70261609999943,213.70261609999943,213.70261609999943,213.70261609999943,213.70261609999943,213.70261609999943,213.70261609999943,213.70261609999943,,001,P010,2025_Feb_01_1459,ConditionRich,2021.2.3,59.956387723027376,
176.0,176.75,38,0.75,Stimuli/P010/things_roadsweeper_05s.jpg,0,0.0,0.0,0,80,80,80,,,,,,,,,,,,,176.0208468000019,0.020846800001891097,None,216.95549820000087,216.95549820000087,216.95549820000087,216.95549820000087,216.95549820000087,216.95549820000087,216.95549820000087,216.95549820000087,216.95549820000087,216.95549820000087,,001,P010,2025_Feb_01_1459,ConditionRich,2021.2.3,59.956387723027376,
176.75,180.0,41,0.0,Stimuli/Blank.png,0,0.0,0.0,0,81,81,81,,,,,,,,,,,,,176.7722446000007,0.02224460000070394,None,217.68955450000067,217.68955450000067,217.68955450000067,217.68955450000067,217.68955450000067,217.68955450000067,217.68955450000067,217.68955450000067,217.68955450000067,217.68955450000067,,001,P010,2025_Feb_01_1459,ConditionRich,2021.2.3,59.956387723027376,
180.0,196.0,0,0.0,Stimuli/Blank.png,1,2.0,2.75,0,82,82,82,,,,,,,,,,,,,180.00981300000058,0.009813000000576722,1,220.94234489999872,220.94234489999872,220.94234489999872,220.94234489999872,220.94234489999872,220.94234489999872,222.9274327000021,223.678130100001,220.94234489999872,220.94234489999872,2.4731618000005255,001,P010,2025_Feb_01_1459,ConditionRich,2021.2.3,59.956387723027376,
196.0,196.75,28,0.75,Stimuli/P010/things_face_05s.jpg,0,0.0,0.0,0,83,83,83,,,,,,,,,,,,,196.0230920000031,0.023092000003089197,None,236.95650749999913,236.95650749999913,236.95650749999913,236.95650749999913,236.95650749999913,236.95650749999913,236.95650749999913,236.95650749999913,236.95650749999913,236.95650749999913,,001,P010,2025_Feb_01_1459,ConditionRich,2021.2.3,59.956387723027376,
196.75,200.0,41,0.0,Stimuli/Blank.png,0,0.0,0.0,0,84,84,84,,,,,,,,,,,,,196.77523330000258,0.025233300002582837,None,237.70718800000031,237.70718800000031,237.70718800000031,237.70718800000031,237.70718800000031,237.70718800000031,237.70718800000031,237.70718800000031,237.70718800000031,237.70718800000031,,001,P010,2025_Feb_01_1459,ConditionRich,2021.2.3,59.956387723027376,
200.0,200.75,39,0.75,Stimuli/P010/things_tiara_05s.jpg,1,0.0,0.75,0,85,85,85,,,,,,,,,,,,,200.02609030000167,0.026090300001669675,None,240.94336530000146,240.94336530000146,240.94336530000146,240.94336530000146,240.94336530000146,240.94336530000146,240.94336530000146,None,240.94336530000146,240.94336530000146,,001,P010,2025_Feb_01_1459,ConditionRich,2021.2.3,59.956387723027376,
200.75,204.0,41,0.0,Stimuli/Blank.png,0,0.0,0.0,0,86,86,86,,,,,,,,,,,,,200.75992810000025,0.009928100000252016,1,241.67735119999998,241.67735119999998,241.67735119999998,241.67735119999998,241.67735119999998,241.67735119999998,241.67735119999998,241.67735119999998,241.67735119999998,241.67735119999998,0.05313000000023749,001,P010,2025_Feb_01_1459,ConditionRich,2021.2.3,59.956387723027376,
204.0,204.75,1,0.75,Stimuli/P010/sun_abqdlumenyzawlme.jpg,0,0.0,0.0,0,87,87,87,,,,,,,,,,,,,204.01318970000284,0.013189700002840254,None,244.94690999999875,244.94690999999875,244.94690999999875,244.94690999999875,244.94690999999875,244.94690999999875,244.94690999999875,244.94690999999875,244.94690999999875,244.94690999999875,,001,P010,2025_Feb_01_1459,ConditionRich,2021.2.3,59.956387723027376,
204.75,208.0,41,0.0,Stimuli/Blank.png,0,0.0,0.0,0,88,88,88,,,,,,,,,,,,,204.7802268000014,0.03022680000140099,None,245.69757440000103,245.69757440000103,245.69757440000103,245.69757440000103,245.69757440000103,245.69757440000103,245.69757440000103,245.69757440000103,245.69757440000103,245.69757440000103,,001,P010,2025_Feb_01_1459,ConditionRich,2021.2.3,59.956387723027376,
208.0,208.75,16,0.75,Stimuli/P010/sun_bqpyqljaflidcauh.jpg,0,0.0,0.0,0,89,89,89,,,,,,,,,,,,,208.00044560000242,0.0004456000024219975,None,248.933778300001,248.933778300001,248.933778300001,248.933778300001,248.933778300001,248.933778300001,248.933778300001,248.933778300001,248.933778300001,248.933778300001,,001,P010,2025_Feb_01_1459,ConditionRich,2021.2.3,59.956387723027376,
208.75,212.0,41,0.0,Stimuli/Blank.png,1,2.25,3.0,0,90,90,90,,,,,,,,,,,,,208.76642650000213,0.016426500002125977,1,249.68442100000175,249.68442100000175,249.68442100000175,249.68442100000175,249.68442100000175,249.68442100000175,251.91979210000136,252.67044349999924,249.68442100000175,249.68442100000175,3.153157299999293,001,P010,2025_Feb_01_1459,ConditionRich,2021.2.3,59.956387723027376,
212.0,212.75,17,0.75,Stimuli/P010/sun_brkrfjpyfglmigkk.jpg,0,0.0,0.0,0,91,91,91,,,,,,,,,,,,,212.0050549000007,0.005054900000686757,None,252.93730739999955,252.93730739999955,252.93730739999955,252.93730739999955,252.93730739999955,252.93730739999955,252.93730739999955,252.93730739999955,252.93730739999955,252.93730739999955,,001,P010,2025_Feb_01_1459,ConditionRich,2021.2.3,59.956387723027376,
212.75,216.0,41,0.0,Stimuli/Blank.png,1,1.25,2.0,0,92,92,92,,,,,,,,,,,,,212.76994820000255,0.01994820000254549,1,253.68796959999963,253.68796959999963,253.68796959999963,253.68796959999963,253.68796959999963,253.68796959999963,254.92239759999939,255.67312949999905,253.68796959999963,253.68796959999963,1.578570800000307,001,P010,2025_Feb_01_1459,ConditionRich,2021.2.3,59.956387723027376,
216.0,216.75,37,0.75,Stimuli/P010/things_pug_05s.jpg,0,0.0,0.0,0,93,93,93,,,,,,,,,,,,,216.00720580000052,0.007205800000519957,None,256.9408500999998,256.9408500999998,256.9408500999998,256.9408500999998,256.9408500999998,256.9408500999998,256.9408500999998,256.9408500999998,256.9408500999998,256.9408500999998,,001,P010,2025_Feb_01_1459,ConditionRich,2021.2.3,59.956387723027376,
216.75,220.0,41,0.0,Stimuli/Blank.png,1,0.25,1.0,0,94,94,94,,,,,,,,,,,,,216.77405120000185,0.024051200001849793,1,257.69151200000124,257.69151200000124,257.69151200000124,257.69151200000124,257.69151200000124,257.69151200000124,257.92505510000046,258.67573790000097,257.69151200000124,257.69151200000124,0.6389948000032746,001,P010,2025_Feb_01_1459,ConditionRich,2021.2.3,59.956387723027376,
220.0,220.75,35,0.75,Stimuli/P010/things_mushroom_05n.jpg,0,0.0,0.0,0,95,95,95,,,,,,,,,,,,,220.01051310000184,0.010513100001844577,None,260.94438620000074,260.94438620000074,260.94438620000074,260.94438620000074,260.94438620000074,260.94438620000074,260.94438620000074,260.94438620000074,260.94438620000074,260.94438620000074,,001,P010,2025_Feb_01_1459,ConditionRich,2021.2.3,59.956387723027376,
220.75,224.0,41,0.0,Stimuli/Blank.png,0,0.0,0.0,0,96,96,96,,,,,,,,,,,,,220.7801443999997,0.03014439999969909,None,261.71173830000043,261.71173830000043,261.71173830000043,261.71173830000043,261.71173830000043,261.71173830000043,261.71173830000043,261.71173830000043,261.71173830000043,261.71173830000043,,001,P010,2025_Feb_01_1459,ConditionRich,2021.2.3,59.956387723027376,
224.0,224.75,32,0.75,Stimuli/P010/things_hawk_05s.jpg,0,0.0,0.0,0,97,97,97,,,,,,,,,,,,,224.01407780000227,0.014077800002269214,None,264.94792230000166,264.94792230000166,264.94792230000166,264.94792230000166,264.94792230000166,264.94792230000166,264.94792230000166,264.94792230000166,264.94792230000166,264.94792230000166,,001,P010,2025_Feb_01_1459,ConditionRich,2021.2.3,59.956387723027376,
224.75,228.0,41,0.0,Stimuli/Blank.png,0,0.0,0.0,0,98,98,98,,,,,,,,,,,,,224.78085880000071,0.030858800000714837,None,265.69878320000134,265.69878320000134,265.69878320000134,265.69878320000134,265.69878320000134,265.69878320000134,265.69878320000134,265.69878320000134,265.69878320000134,265.69878320000134,,001,P010,2025_Feb_01_1459,ConditionRich,2021.2.3,59.956387723027376,
228.0,228.75,25,0.75,Stimuli/P010/things_clothespin_05s.jpg,0,0.0,0.0,0,99,99,99,,,,,,,,,,,,,228.0002932000025,0.00029320000248844735,None,268.9181090999991,268.9181090999991,268.9181090999991,268.9181090999991,268.9181090999991,268.9181090999991,268.9181090999991,268.9181090999991,268.9181090999991,268.9181090999991,,001,P010,2025_Feb_01_1459,ConditionRich,2021.2.3,59.956387723027376,
228.75,232.0,41,0.0,Stimuli/Blank.png,0,0.0,0.0,0,100,100,100,,,,,,,,,,,,,228.75093950000155,0.0009395000015501864,None,269.66876830000183,269.66876830000183,269.66876830000183,269.66876830000183,269.66876830000183,269.66876830000183,269.66876830000183,269.66876830000183,269.66876830000183,269.66876830000183,,001,P010,2025_Feb_01_1459,ConditionRich,2021.2.3,59.956387723027376,
232.0,232.75,2,0.75,Stimuli/P010/sun_acvloibbxiqpiwnv.jpg,0,0.0,0.0,0,101,101,101,,,,,,,,,,,,,232.00445500000205,0.004455000002053566,None,272.9216579000022,272.9216579000022,272.9216579000022,272.9216579000022,272.9216579000022,272.9216579000022,272.9216579000022,272.9216579000022,272.9216579000022,272.9216579000022,,001,P010,2025_Feb_01_1459,ConditionRich,2021.2.3,59.956387723027376,
232.75,236.0,41,0.0,Stimuli/Blank.png,0,0.0,0.0,0,102,102,102,,,,,,,,,,,,,232.75553090000176,0.0055309000017587095,None,273.6723134999993,273.6723134999993,273.6723134999993,273.6723134999993,273.6723134999993,273.6723134999993,273.6723134999993,273.6723134999993,273.6723134999993,273.6723134999993,,001,P010,2025_Feb_01_1459,ConditionRich,2021.2.3,59.956387723027376,
236.0,236.75,38,0.75,Stimuli/P010/things_roadsweeper_05s.jpg,0,0.0,0.0,0,103,103,103,,,,,,,,,,,,,236.00719329999993,0.007193299999926239,None,276.9418704000018,276.9418704000018,276.9418704000018,276.9418704000018,276.9418704000018,276.9418704000018,276.9418704000018,276.9418704000018,276.9418704000018,276.9418704000018,,001,P010,2025_Feb_01_1459,ConditionRich,2021.2.3,59.956387723027376,
236.75,240.0,41,0.0,Stimuli/Blank.png,0,0.0,0.0,0,104,104,104,,,,,,,,,,,,,236.77553570000237,0.025535700002365047,None,277.6925310000006,277.6925310000006,277.6925310000006,277.6925310000006,277.6925310000006,277.6925310000006,277.6925310000006,277.6925310000006,277.6925310000006,277.6925310000006,,001,P010,2025_Feb_01_1459,ConditionRich,2021.2.3,59.956387723027376,
240.0,240.75,9,0.75,Stimuli/P010/sun_bdjkvwqqqycuixtc.jpg,0,0.0,0.0,0,105,105,105,,,,,,,,,,,,,240.01083890000154,0.010838900001544971,None,280.92872910000006,280.92872910000006,280.92872910000006,280.92872910000006,280.92872910000006,280.92872910000006,280.92872910000006,280.92872910000006,280.92872910000006,280.92872910000006,,001,P010,2025_Feb_01_1459,ConditionRich,2021.2.3,59.956387723027376,
240.75,244.0,41,0.0,Stimuli/Blank.png,0,0.0,0.0,0,106,106,106,,,,,,,,,,,,,240.76341810000304,0.01341810000303667,None,281.67939620000107,281.67939620000107,281.67939620000107,281.67939620000107,281.67939620000107,281.67939620000107,281.67939620000107,281.67939620000107,281.67939620000107,281.67939620000107,,001,P010,2025_Feb_01_1459,ConditionRich,2021.2.3,59.956387723027376,
244.0,244.75,40,0.75,Stimuli/P010/things_woman_05s.jpg,0,0.0,0.0,0,107,107,107,,,,,,,,,,,,,243.99769200000082,-0.002307999999175081,None,284.915576899999,284.915576899999,284.915576899999,284.915576899999,284.915576899999,284.915576899999,284.915576899999,284.915576899999,284.915576899999,284.915576899999,,001,P010,2025_Feb_01_1459,ConditionRich,2021.2.3,59.956387723027376,
244.75,248.0,41,0.0,Stimuli/Blank.png,0,0.0,0.0,0,108,108,108,,,,,,,,,,,,,244.76551269999982,0.015512699999817414,None,285.6829393000007,285.6829393000007,285.6829393000007,285.6829393000007,285.6829393000007,285.6829393000007,285.6829393000007,285.6829393000007,285.6829393000007,285.6829393000007,,001,P010,2025_Feb_01_1459,ConditionRich,2021.2.3,59.956387723027376,
248.0,248.75,3,0.75,Stimuli/P010/sun_aewgwsmvsgzleqhw.jpg,0,0.0,0.0,0,109,109,109,,,,,,,,,,,,,248.00111590000233,0.001115900002332637,None,288.91911880000043,288.91911880000043,288.91911880000043,288.91911880000043,288.91911880000043,288.91911880000043,288.91911880000043,288.91911880000043,288.91911880000043,288.91911880000043,,001,P010,2025_Feb_01_1459,ConditionRich,2021.2.3,59.956387723027376,
248.75,252.0,41,0.0,Stimuli/Blank.png,0,0.0,0.0,0,110,110,110,,,,,,,,,,,,,248.75176869999996,0.0017686999999568798,None,289.6697841999994,289.6697841999994,289.6697841999994,289.6697841999994,289.6697841999994,289.6697841999994,289.6697841999994,289.6697841999994,289.6697841999994,289.6697841999994,,001,P010,2025_Feb_01_1459,ConditionRich,2021.2.3,59.956387723027376,
252.0,252.75,19,0.75,Stimuli/P010/sun_bwvfnogmotsvhofs.jpg,0,0.0,0.0,0,111,111,111,,,,,,,,,,,,,252.00485250000202,0.004852500002016313,None,292.92266160000145,292.92266160000145,292.92266160000145,292.92266160000145,292.92266160000145,292.92266160000145,292.92266160000145,292.92266160000145,292.92266160000145,292.92266160000145,,001,P010,2025_Feb_01_1459,ConditionRich,2021.2.3,59.956387723027376,
252.75,256.0,41,0.0,Stimuli/Blank.png,0,0.0,0.0,0,112,112,112,,,,,,,,,,,,,252.7554373000021,0.005437300002085976,None,293.6733271000012,293.6733271000012,293.6733271000012,293.6733271000012,293.6733271000012,293.6733271000012,293.6733271000012,293.6733271000012,293.6733271000012,293.6733271000012,,001,P010,2025_Feb_01_1459,ConditionRich,2021.2.3,59.956387723027376,
256.0,256.75,15,0.75,Stimuli/P010/sun_boryivbddrnarrbo.jpg,0,0.0,0.0,0,113,113,113,,,,,,,,,,,,,256.01108810000005,0.011088100000051782,None,296.94291290000183,296.94291290000183,296.94291290000183,296.94291290000183,296.94291290000183,296.94291290000183,296.94291290000183,296.94291290000183,296.94291290000183,296.94291290000183,,001,P010,2025_Feb_01_1459,ConditionRich,2021.2.3,59.956387723027376,
256.75,260.0,41,0.0,Stimuli/Blank.png,0,0.0,0.0,0,114,114,114,,,,,,,,,,,,,256.7760003000003,0.026000300000305288,None,297.69354830000157,297.69354830000157,297.69354830000157,297.69354830000157,297.69354830000157,297.69354830000157,297.69354830000157,297.69354830000157,297.69354830000157,297.69354830000157,,001,P010,2025_Feb_01_1459,ConditionRich,2021.2.3,59.956387723027376,
260.0,260.75,18,0.75,Stimuli/P010/sun_bwjdahsxcqepqqbm.jpg,0,0.0,0.0,0,115,115,115,,,,,,,,,,,,,260.0125637000019,0.012563700001919642,None,300.9464221999988,300.9464221999988,300.9464221999988,300.9464221999988,300.9464221999988,300.9464221999988,300.9464221999988,300.9464221999988,300.9464221999988,300.9464221999988,,001,P010,2025_Feb_01_1459,ConditionRich,2021.2.3,59.956387723027376,
260.75,264.0,41,0.0,Stimuli/Blank.png,0,0.0,0.0,0,116,116,116,,,,,,,,,,,,,260.78034050000133,0.03034050000132993,None,301.6971049999993,301.6971049999993,301.6971049999993,301.6971049999993,301.6971049999993,301.6971049999993,301.6971049999993,301.6971049999993,301.6971049999993,301.6971049999993,,001,P010,2025_Feb_01_1459,ConditionRich,2021.2.3,59.956387723027376,
264.0,264.75,34,0.75,Stimuli/P010/things_man_05s.jpg,0,0.0,0.0,0,117,117,117,,,,,,,,,,,,,263.9990758000022,-0.0009241999978257809,None,304.9166002999991,304.9166002999991,304.9166002999991,304.9166002999991,304.9166002999991,304.9166002999991,304.9166002999991,304.9166002999991,304.9166002999991,304.9166002999991,,001,P010,2025_Feb_01_1459,ConditionRich,2021.2.3,59.956387723027376,
264.75,268.0,41,0.0,Stimuli/Blank.png,0,0.0,0.0,0,118,118,118,,,,,,,,,,,,,264.74990850000177,-9.14999982342124e-05,None,305.66727059999903,305.66727059999903,305.66727059999903,305.66727059999903,305.66727059999903,305.66727059999903,305.66727059999903,305.66727059999903,305.66727059999903,305.66727059999903,,001,P010,2025_Feb_01_1459,ConditionRich,2021.2.3,59.956387723027376,
268.0,268.75,5,0.75,Stimuli/P010/sun_akqvdmuauoxeafrj.jpg,0,0.0,0.0,0,119,119,119,,,,,,,,,,,,,268.003124400002,0.003124400001979666,None,308.9368420999999,308.9368420999999,308.9368420999999,308.9368420999999,308.9368420999999,308.9368420999999,308.9368420999999,308.9368420999999,308.9368420999999,308.9368420999999,,001,P010,2025_Feb_01_1459,ConditionRich,2021.2.3,59.956387723027376,
268.75,272.0,41,0.0,Stimuli/Blank.png,0,0.0,0.0,0,120,120,120,,,,,,,,,,,,,268.76945030000206,0.01945030000206316,None,309.68748849999974,309.68748849999974,309.68748849999974,309.68748849999974,309.68748849999974,309.68748849999974,309.68748849999974,309.68748849999974,309.68748849999974,309.68748849999974,,001,P010,2025_Feb_01_1459,ConditionRich,2021.2.3,59.956387723027376,
272.0,272.75,33,0.75,Stimuli/P010/things_lizard_05n.jpg,0,0.0,0.0,0,121,121,121,,,,,,,,,,,,,272.00594770000316,0.005947700003162026,None,312.9236951000021,312.9236951000021,312.9236951000021,312.9236951000021,312.9236951000021,312.9236951000021,312.9236951000021,312.9236951000021,312.9236951000021,312.9236951000021,,001,P010,2025_Feb_01_1459,ConditionRich,2021.2.3,59.956387723027376,
272.75,276.0,41,0.0,Stimuli/Blank.png,0,0.0,0.0,0,122,122,122,,,,,,,,,,,,,272.7566452000028,0.006645200002822094,None,313.674343900002,313.674343900002,313.674343900002,313.674343900002,313.674343900002,313.674343900002,313.674343900002,313.674343900002,313.674343900002,313.674343900002,,001,P010,2025_Feb_01_1459,ConditionRich,2021.2.3,59.956387723027376,
276.0,292.0,0,0.0,Stimuli/Blank.png,1,12.0,12.75,0,123,123,123,,,,,,,,,,,,,276.0105610999999,0.0105610999999044,1,316.92723019999903,316.92723019999903,316.92723019999903,316.92723019999903,316.92723019999903,316.92723019999903,328.9211710999989,329.6718303999987,316.92723019999903,316.92723019999903,12.625481099999888,001,P010,2025_Feb_01_1459,ConditionRich,2021.2.3,59.956387723027376,
292.0,292.75,7,0.75,Stimuli/P010/sun_apiogxmvvzfmtsmj.jpg,0,0.0,0.0,0,124,124,124,,,,,,,,,,,,,292.0085605000022,0.008560500002204208,None,332.9413850000019,332.9413850000019,332.9413850000019,332.9413850000019,332.9413850000019,332.9413850000019,332.9413850000019,332.9413850000019,332.9413850000019,332.9413850000019,,001,P010,2025_Feb_01_1459,ConditionRich,2021.2.3,59.956387723027376,
292.75,296.0,41,0.0,Stimuli/Blank.png,0,0.0,0.0,0,125,125,125,,,,,,,,,,,,,292.7753632000022,0.02536320000217529,None,333.692062099999,333.692062099999,333.692062099999,333.692062099999,333.692062099999,333.692062099999,333.692062099999,333.692062099999,333.692062099999,333.692062099999,,001,P010,2025_Feb_01_1459,ConditionRich,2021.2.3,59.956387723027376,
296.0,296.75,27,0.75,Stimuli/P010/things_curling_iron_05s.jpg,1,0.0,0.75,0,126,126,126,,,,,,,,,,,,,296.0110321000029,0.011032100002921652,1,336.9282510000012,336.9282510000012,336.9282510000012,336.9282510000012,336.9282510000012,336.9282510000012,336.9282510000012,337.6622332000006,336.9282510000012,336.9282510000012,0.4373052999981155,001,P010,2025_Feb_01_1459,ConditionRich,2021.2.3,59.956387723027376,
296.75,300.0,41,0.0,Stimuli/Blank.png,0,0.0,0.0,0,127,127,127,,,,,,,,,,,,,296.7616581000002,0.011658100000204286,None,337.6789140000001,337.6789140000001,337.6789140000001,337.6789140000001,337.6789140000001,337.6789140000001,337.6789140000001,337.6789140000001,337.6789140000001,337.6789140000001,,001,P010,2025_Feb_01_1459,ConditionRich,2021.2.3,59.956387723027376,
300.0,300.75,12,0.75,Stimuli/P010/sun_birmwgkdtrlevcaf.jpg,0,0.0,0.0,0,128,128,128,,,,,,,,,,,,,300.01447090000147,0.01447090000147,None,340.9484721000008,340.9484721000008,340.9484721000008,340.9484721000008,340.9484721000008,340.9484721000008,340.9484721000008,340.9484721000008,340.9484721000008,340.9484721000008,,001,P010,2025_Feb_01_1459,ConditionRich,2021.2.3,59.956387723027376,
300.75,304.0,41,0.0,Stimuli/Blank.png,0,0.0,0.0,0,129,129,129,,,,,,,,,,,,,300.78190370000084,0.03190370000083931,None,341.69913169999927,341.69913169999927,341.69913169999927,341.69913169999927,341.69913169999927,341.69913169999927,341.69913169999927,341.69913169999927,341.69913169999927,341.69913169999927,,001,P010,2025_Feb_01_1459,ConditionRich,2021.2.3,59.956387723027376,
304.0,304.75,11,0.75,Stimuli/P010/sun_bfyvfqiimvdaxlqn.jpg,0,0.0,0.0,0,130,130,130,,,,,,,,,,,,,304.0010581000024,0.001058100002410356,None,344.9353443,344.9353443,344.9353443,344.9353443,344.9353443,344.9353443,344.9353443,344.9353443,344.9353443,344.9353443,,001,P010,2025_Feb_01_1459,ConditionRich,2021.2.3,59.956387723027376,
304.75,308.0,41,0.0,Stimuli/Blank.png,0,0.0,0.0,0,131,131,131,,,,,,,,,,,,,304.7699016000006,0.019901600000594044,None,345.70269570000164,345.70269570000164,345.70269570000164,345.70269570000164,345.70269570000164,345.70269570000164,345.70269570000164,345.70269570000164,345.70269570000164,345.70269570000164,,001,P010,2025_Feb_01_1459,ConditionRich,2021.2.3,59.956387723027376,
308.0,308.75,26,0.75,Stimuli/P010/things_cookie_sheet_05s.jpg,0,0.0,0.0,0,132,132,132,,,,,,,,,,,,,308.02118770000016,0.02118770000015502,None,348.93886399999974,348.93886399999974,348.93886399999974,348.93886399999974,348.93886399999974,348.93886399999974,348.93886399999974,348.93886399999974,348.93886399999974,348.93886399999974,,001,P010,2025_Feb_01_1459,ConditionRich,2021.2.3,59.956387723027376,
308.75,312.0,41,0.0,Stimuli/Blank.png,0,0.0,0.0,0,133,133,133,,,,,,,,,,,,,308.75556900000083,0.005569000000832602,None,349.67285130000164,349.67285130000164,349.67285130000164,349.67285130000164,349.67285130000164,349.67285130000164,349.67285130000164,349.67285130000164,349.67285130000164,349.67285130000164,,001,P010,2025_Feb_01_1459,ConditionRich,2021.2.3,59.956387723027376,
312.0,312.75,6,0.75,Stimuli/P010/sun_amkrwcyvinmsylsz.jpg,0,0.0,0.0,0,134,134,134,,,,,,,,,,,,,312.0107797000019,0.010779700001876336,None,352.9424098999989,352.9424098999989,352.9424098999989,352.9424098999989,352.9424098999989,352.9424098999989,352.9424098999989,352.9424098999989,352.9424098999989,352.9424098999989,,001,P010,2025_Feb_01_1459,ConditionRich,2021.2.3,59.956387723027376,
312.75,316.0,41,0.0,Stimuli/Blank.png,0,0.0,0.0,0,135,135,135,,,,,,,,,,,,,312.775866400003,0.02586640000299667,None,353.69307879999906,353.69307879999906,353.69307879999906,353.69307879999906,353.69307879999906,353.69307879999906,353.69307879999906,353.69307879999906,353.69307879999906,353.69307879999906,,001,P010,2025_Feb_01_1459,ConditionRich,2021.2.3,59.956387723027376,
316.0,316.75,14,0.75,Stimuli/P010/sun_blaqxdebghixzyyw.jpg,0,0.0,0.0,0,136,136,136,,,,,,,,,,,,,316.01140060000034,0.01140060000034282,None,356.92926910000097,356.92926910000097,356.92926910000097,356.92926910000097,356.92926910000097,356.92926910000097,356.92926910000097,356.92926910000097,356.92926910000097,356.92926910000097,,001,P010,2025_Feb_01_1459,ConditionRich,2021.2.3,59.956387723027376,
316.75,320.0,41,0.0,Stimuli/Blank.png,0,0.0,0.0,0,137,137,137,,,,,,,,,,,,,316.76498530000026,0.014985300000262214,None,357.69663299999957,357.69663299999957,357.69663299999957,357.69663299999957,357.69663299999957,357.69663299999957,357.69663299999957,357.69663299999957,357.69663299999957,357.69663299999957,,001,P010,2025_Feb_01_1459,ConditionRich,2021.2.3,59.956387723027376,
320.0,320.75,36,0.75,Stimuli/P010/things_pelican_05s.jpg,0,0.0,0.0,0,138,138,138,,,,,,,,,,,,,320.01584170000206,0.015841700002056314,None,360.9494636999989,360.9494636999989,360.9494636999989,360.9494636999989,360.9494636999989,360.9494636999989,360.9494636999989,360.9494636999989,360.9494636999989,360.9494636999989,,001,P010,2025_Feb_01_1459,ConditionRich,2021.2.3,59.956387723027376,
320.75,324.0,41,0.0,Stimuli/Blank.png,1,0.25,1.0,0,139,139,139,,,,,,,,,,,,,320.7664870000008,0.016487000000779517,1,361.68344380000053,361.68344380000053,361.68344380000053,361.68344380000053,361.68344380000053,361.68344380000053,361.91700950000086,362.66768260000026,361.68344380000053,361.68344380000053,0.666260300000431,001,P010,2025_Feb_01_1459,ConditionRich,2021.2.3,59.956387723027376,
324.0,324.75,29,0.75,Stimuli/P010/things_fingerprint_05s.jpg,0,0.0,0.0,0,140,140,140,,,,,,,,,,,,,324.00231520000307,0.00231520000306773,None,364.919666400001,364.919666400001,364.919666400001,364.919666400001,364.919666400001,364.919666400001,364.919666400001,364.919666400001,364.919666400001,364.919666400001,,001,P010,2025_Feb_01_1459,ConditionRich,2021.2.3,59.956387723027376,
324.75,328.0,41,0.0,Stimuli/Blank.png,0,0.0,0.0,0,141,141,141,,,,,,,,,,,,,324.7552023999997,0.005202399999689078,None,365.6870243000012,365.6870243000012,365.6870243000012,365.6870243000012,365.6870243000012,365.6870243000012,365.6870243000012,365.6870243000012,365.6870243000012,365.6870243000012,,001,P010,2025_Feb_01_1459,ConditionRich,2021.2.3,59.956387723027376,
328.0,328.75,8,0.75,Stimuli/P010/sun_batcnoizlkeiqdtx.jpg,0,0.0,0.0,0,142,142,142,,,,,,,,,,,,,328.023202700002,0.02320270000200253,None,368.9565713000011,368.9565713000011,368.9565713000011,368.9565713000011,368.9565713000011,368.9565713000011,368.9565713000011,368.9565713000011,368.9565713000011,368.9565713000011,,001,P010,2025_Feb_01_1459,ConditionRich,2021.2.3,59.956387723027376,
328.75,332.0,41,0.0,Stimuli/Blank.png,0,0.0,0.0,0,143,143,143,,,,,,,,,,,,,328.77470879999964,0.024708799999643816,None,369.70721160000176,369.70721160000176,369.70721160000176,369.70721160000176,369.70721160000176,369.70721160000176,369.70721160000176,369.70721160000176,369.70721160000176,369.70721160000176,,001,P010,2025_Feb_01_1459,ConditionRich,2021.2.3,59.956387723027376,
332.0,332.75,21,0.75,Stimuli/P010/things_boy_05s.jpg,0,0.0,0.0,0,144,144,144,,,,,,,,,,,,,332.02598410000064,0.025984100000641774,None,372.9434062,372.9434062,372.9434062,372.9434062,372.9434062,372.9434062,372.9434062,372.9434062,372.9434062,372.9434062,,001,P010,2025_Feb_01_1459,ConditionRich,2021.2.3,59.956387723027376,
332.75,336.0,41,0.0,Stimuli/Blank.png,0,0.0,0.0,0,145,145,145,,,,,,,,,,,,,332.75982020000083,0.009820200000831392,None,373.6773863000017,373.6773863000017,373.6773863000017,373.6773863000017,373.6773863000017,373.6773863000017,373.6773863000017,373.6773863000017,373.6773863000017,373.6773863000017,,001,P010,2025_Feb_01_1459,ConditionRich,2021.2.3,59.956387723027376,
336.0,336.75,13,0.75,Stimuli/P010/sun_bjimvgwadfodioes.jpg,0,0.0,0.0,0,146,146,146,,,,,,,,,,,,,336.01327140000285,0.013271400002849987,None,376.9469682000017,376.9469682000017,376.9469682000017,376.9469682000017,376.9469682000017,376.9469682000017,376.9469682000017,376.9469682000017,376.9469682000017,376.9469682000017,,001,P010,2025_Feb_01_1459,ConditionRich,2021.2.3,59.956387723027376,
336.75,340.0,41,0.0,Stimuli/Blank.png,0,0.0,0.0,0,147,147,147,,,,,,,,,,,,,336.7797283,0.02972829999998794,None,377.69763420000163,377.69763420000163,377.69763420000163,377.69763420000163,377.69763420000163,377.69763420000163,377.69763420000163,377.69763420000163,377.69763420000163,377.69763420000163,,001,P010,2025_Feb_01_1459,ConditionRich,2021.2.3,59.956387723027376,
340.0,340.75,20,0.75,Stimuli/P010/sun_ddsiwinthvyejghq.jpg,0,0.0,0.0,0,148,148,148,,,,,,,,,,,,,339.9992628,-0.0007372000000032131,None,380.91714200000206,380.91714200000206,380.91714200000206,380.91714200000206,380.91714200000206,380.91714200000206,380.91714200000206,380.91714200000206,380.91714200000206,380.91714200000206,,001,P010,2025_Feb_01_1459,ConditionRich,2021.2.3,59.956387723027376,
340.75,344.0,41,0.0,Stimuli/Blank.png,1,0.25,1.0,0,149,149,149,,,,,,,,,,,,,340.75045930000124,0.00045930000123917125,1,381.6678353999996,381.6678353999996,381.6678353999996,381.6678353999996,381.6678353999996,381.6678353999996,381.90141289999883,382.652010400001,381.6678353999996,381.6678353999996,0.6868300999994972,001,P010,2025_Feb_01_1459,ConditionRich,2021.2.3,59.956387723027376,
344.0,344.75,31,0.75,Stimuli/P010/things_girl_05s.jpg,0,0.0,0.0,0,150,150,150,,,,,,,,,,,,,344.0053430000007,0.0053430000007210765,None,384.9373651999995,384.9373651999995,384.9373651999995,384.9373651999995,384.9373651999995,384.9373651999995,384.9373651999995,384.9373651999995,384.9373651999995,384.9373651999995,,001,P010,2025_Feb_01_1459,ConditionRich,2021.2.3,59.956387723027376,
344.75,348.0,41,0.0,Stimuli/Blank.png,0,0.0,0.0,0,151,151,151,,,,,,,,,,,,,344.77086220000274,0.020862200002738973,None,385.68805000000066,385.68805000000066,385.68805000000066,385.68805000000066,385.68805000000066,385.68805000000066,385.68805000000066,385.68805000000066,385.68805000000066,385.68805000000066,,001,P010,2025_Feb_01_1459,ConditionRich,2021.2.3,59.956387723027376,
348.0,348.75,10,0.75,Stimuli/P010/sun_bdkttewvyfdarikm.jpg,0,0.0,0.0,0,152,152,152,,,,,,,,,,,,,348.0062878000026,0.006287800002610311,None,388.9409233000006,388.9409233000006,388.9409233000006,388.9409233000006,388.9409233000006,388.9409233000006,388.9409233000006,388.9409233000006,388.9409233000006,388.9409233000006,,001,P010,2025_Feb_01_1459,ConditionRich,2021.2.3,59.956387723027376,
348.75,352.0,41,0.0,Stimuli/Blank.png,0,0.0,0.0,0,153,153,153,,,,,,,,,,,,,348.7743066000003,0.024306600000272738,None,389.6915697000004,389.6915697000004,389.6915697000004,389.6915697000004,389.6915697000004,389.6915697000004,389.6915697000004,389.6915697000004,389.6915697000004,389.6915697000004,,001,P010,2025_Feb_01_1459,ConditionRich,2021.2.3,59.956387723027376,
352.0,352.75,23,0.75,Stimuli/P010/things_charger_05s.jpg,0,0.0,0.0,0,154,154,154,,,,,,,,,,,,,352.01066530000026,0.010665300000255229,None,392.9277680000014,392.9277680000014,392.9277680000014,392.9277680000014,392.9277680000014,392.9277680000014,392.9277680000014,392.9277680000014,392.9277680000014,392.9277680000014,,001,P010,2025_Feb_01_1459,ConditionRich,2021.2.3,59.956387723027376,
352.75,356.0,41,0.0,Stimuli/Blank.png,0,0.0,0.0,0,155,155,155,,,,,,,,,,,,,352.7604009000024,0.010400900002423441,None,393.67842720000044,393.67842720000044,393.67842720000044,393.67842720000044,393.67842720000044,393.67842720000044,393.67842720000044,393.67842720000044,393.67842720000044,393.67842720000044,,001,P010,2025_Feb_01_1459,ConditionRich,2021.2.3,59.956387723027376,
356.0,356.75,4,0.75,Stimuli/P010/sun_afkzdukwewwzqtmr.jpg,0,0.0,0.0,0,156,156,156,,,,,,,,,,,,,356.01485429999957,0.014854299999569776,None,396.9479859999992,396.9479859999992,396.9479859999992,396.9479859999992,396.9479859999992,396.9479859999992,396.9479859999992,396.9479859999992,396.9479859999992,396.9479859999992,,001,P010,2025_Feb_01_1459,ConditionRich,2021.2.3,59.956387723027376,
356.75,360.0,41,0.0,Stimuli/Blank.png,0,0.0,0.0,0,157,157,157,,,,,,,,,,,,,356.7813253000022,0.03132530000220868,None,397.6986504000015,397.6986504000015,397.6986504000015,397.6986504000015,397.6986504000015,397.6986504000015,397.6986504000015,397.6986504000015,397.6986504000015,397.6986504000015,,001,P010,2025_Feb_01_1459,ConditionRich,2021.2.3,59.956387723027376,
360.0,360.75,22,0.75,Stimuli/P010/things_butterfly_05s.jpg,0,0.0,0.0,0,158,158,158,,,,,,,,,,,,,360.0010441000013,0.0010441000013088342,None,400.93486760000087,400.93486760000087,400.93486760000087,400.93486760000087,400.93486760000087,400.93486760000087,400.93486760000087,400.93486760000087,400.93486760000087,400.93486760000087,,001,P010,2025_Feb_01_1459,ConditionRich,2021.2.3,59.956387723027376,
360.75,364.0,41,0.0,Stimuli/Blank.png,0,0.0,0.0,0,159,159,159,,,,,,,,,,,,,360.76988530000017,0.01988530000016908,None,401.7021993999988,401.7021993999988,401.7021993999988,401.7021993999988,401.7021993999988,401.7021993999988,401.7021993999988,401.7021993999988,401.7021993999988,401.7021993999988,,001,P010,2025_Feb_01_1459,ConditionRich,2021.2.3,59.956387723027376,
364.0,364.75,30,0.75,Stimuli/P010/things_fire_05s.jpg,0,0.0,0.0,0,160,160,160,,,,,,,,,,,,,364.02045510000244,0.020455100002436666,None,404.93839260000095,404.93839260000095,404.93839260000095,404.93839260000095,404.93839260000095,404.93839260000095,404.93839260000095,404.93839260000095,404.93839260000095,404.93839260000095,,001,P010,2025_Feb_01_1459,ConditionRich,2021.2.3,59.956387723027376,
364.75,368.0,41,0.0,Stimuli/Blank.png,0,0.0,0.0,0,161,161,161,,,,,,,,,,,,,364.75509260000035,0.0050926000003528316,None,405.67237530000057,405.67237530000057,405.67237530000057,405.67237530000057,405.67237530000057,405.67237530000057,405.67237530000057,405.67237530000057,405.67237530000057,405.67237530000057,,001,P010,2025_Feb_01_1459,ConditionRich,2021.2.3,59.956387723027376,
368.0,368.75,24,0.75,Stimuli/P010/things_cigar_05n.jpg,0,0.0,0.0,0,162,162,162,,,,,,,,,,,,,368.0098214000027,0.009821400002692826,None,408.9419301000016,408.9419301000016,408.9419301000016,408.9419301000016,408.9419301000016,408.9419301000016,408.9419301000016,408.9419301000016,408.9419301000016,408.9419301000016,,001,P010,2025_Feb_01_1459,ConditionRich,2021.2.3,59.956387723027376,
368.75,372.0,41,0.0,Stimuli/Blank.png,1,0.25,1.0,0,163,163,163,,,,,,,,,,,,,368.77580880000096,0.02580880000095931,1,409.69259779999993,409.69259779999993,409.69259779999993,409.69259779999993,409.69259779999993,409.69259779999993,409.926155000001,410.67688890000136,409.69259779999993,409.69259779999993,0.6673111999989487,001,P010,2025_Feb_01_1459,ConditionRich,2021.2.3,59.956387723027376,
372.0,388.0,0,0.0,Stimuli/Blank.png,1,13.0,13.75,0,164,164,164,,,,,,,,,,,,,372.0109948999998,0.010994899999786867,1,412.92878740000015,412.92878740000015,412.92878740000015,412.92878740000015,412.92878740000015,412.92878740000015,425.9069304000004,426.6576263999996,412.92878740000015,412.92878740000015,13.382912199998827,001,P010,2025_Feb_01_1459,ConditionRich,2021.2.3,59.956387723027376,
