eventStartTime,eventEndTime,eventCond,imSize,imFile,responseEvent,fixRespStart,fixRespEnd,Events.thisRepN,Events.thisTrialN,Events.thisN,Events.thisIndex,Instructions.started,Instructions.stopped,participantReadyResponse.keys,participantReadyResponse.rt,participantReadyResponse.started,participantReadyResponse.stopped,startWaitforTrigger,triggerResponse.keys,triggerResponse.rt,triggerResponse.started,triggerResponse.stopped,globalTimer,actualStartTime,startTimingDiff,participantResponse.keys,participantResponse.started,participantResponse.stopped,image.started,image.stopped,fixationOutside.started,fixationOutside.stopped,fixationResponse.started,fixationResponse.stopped,fixationInside.started,fixationInside.stopped,participantResponse.rt,session,participant,date,expName,psychopyVersion,frameRate,
,,,,,,,,,,,,11.165500600000087,None,1,14.162065300002723,11.165500600000087,None,,,,,,,,,,,,,,,,,,,,,007,P010,2025_Feb_01_1554,ConditionRich,2021.2.3,59.93374923454152,
,,,,,,,,,,,,,,,,,,25.33789539999998,5,15.802522800000588,25.350171599999157,None,,,,,,,,,,,,,,,,007,P010,2025_Feb_01_1554,ConditionRich,2021.2.3,59.93374923454152,
0.0,4.0,0,0.0,Stimuli/Blank.png,0,0.0,0.0,0,0,0,0,,,,,,,,,,,,41.168132399998285,0.042564799998217495,0.042564799998217495,None,41.23081639999873,None,41.23081639999873,None,41.23081639999873,None,41.23081639999873,41.23081639999873,41.23081639999873,None,,007,P010,2025_Feb_01_1554,ConditionRich,2021.2.3,59.93374923454152,
4.0,4.75,25,0.75,Stimuli/P010/things_clothespin_05s.jpg,0,0.0,0.0,0,1,1,1,,,,,,,,,,,,,4.020046399997227,0.020046399997227127,None,45.21798999999737,45.21798999999737,45.21798999999737,45.21798999999737,45.21798999999737,45.21798999999737,45.21798999999737,45.21798999999737,45.21798999999737,45.21798999999737,,007,P010,2025_Feb_01_1554,ConditionRich,2021.2.3,59.93374923454152,
4.75,8.0,41,0.0,Stimuli/Blank.png,1,0.25,1.0,0,2,2,2,,,,,,,,,,,,,4.769530599998689,0.019530599998688558,1,45.95192529999986,45.95192529999986,45.95192529999986,45.95192529999986,45.95192529999986,45.95192529999986,46.185181299999385,46.93585759999769,45.95192529999986,45.95192529999986,0.6404732000009972,007,P010,2025_Feb_01_1554,ConditionRich,2021.2.3,59.93374923454152,
8.0,8.75,15,0.75,Stimuli/P010/sun_boryivbddrnarrbo.jpg,0,0.0,0.0,0,3,3,3,,,,,,,,,,,,,8.005429999997432,0.005429999997431878,None,49.187825899996824,49.187825899996824,49.187825899996824,49.187825899996824,49.187825899996824,49.187825899996824,49.187825899996824,49.187825899996824,49.187825899996824,49.187825899996824,,007,P010,2025_Feb_01_1554,ConditionRich,2021.2.3,59.93374923454152,
8.75,12.0,41,0.0,Stimuli/Blank.png,0,0.0,0.0,0,4,4,4,,,,,,,,,,,,,8.755808799996885,0.0058087999968847726,None,49.93848859999707,49.93848859999707,49.93848859999707,49.93848859999707,49.93848859999707,49.93848859999707,49.93848859999707,49.93848859999707,49.93848859999707,49.93848859999707,,007,P010,2025_Feb_01_1554,ConditionRich,2021.2.3,59.93374923454152,
12.0,12.75,10,0.75,Stimuli/P010/sun_bdkttewvyfdarikm.jpg,0,0.0,0.0,0,5,5,5,,,,,,,,,,,,,12.008625899998151,0.008625899998150999,None,53.19136669999716,53.19136669999716,53.19136669999716,53.19136669999716,53.19136669999716,53.19136669999716,53.19136669999716,53.19136669999716,53.19136669999716,53.19136669999716,,007,P010,2025_Feb_01_1554,ConditionRich,2021.2.3,59.93374923454152,
12.75,16.0,41,0.0,Stimuli/Blank.png,0,0.0,0.0,0,6,6,6,,,,,,,,,,,,,12.759397499998158,0.00939749999815831,None,53.942033999999694,53.942033999999694,53.942033999999694,53.942033999999694,53.942033999999694,53.942033999999694,53.942033999999694,53.942033999999694,53.942033999999694,53.942033999999694,,007,P010,2025_Feb_01_1554,ConditionRich,2021.2.3,59.93374923454152,
16.0,16.75,14,0.75,Stimuli/P010/sun_blaqxdebghixzyyw.jpg,0,0.0,0.0,0,7,7,7,,,,,,,,,,,,,16.01217479999832,0.01217479999831994,None,57.194915899999614,57.194915899999614,57.194915899999614,57.194915899999614,57.194915899999614,57.194915899999614,57.194915899999614,57.194915899999614,57.194915899999614,57.194915899999614,,007,P010,2025_Feb_01_1554,ConditionRich,2021.2.3,59.93374923454152,
16.75,20.0,41,0.0,Stimuli/Blank.png,0,0.0,0.0,0,8,8,8,,,,,,,,,,,,,16.765221499998006,0.015221499998006038,None,57.96228289999999,57.96228289999999,57.96228289999999,57.96228289999999,57.96228289999999,57.96228289999999,57.96228289999999,57.96228289999999,57.96228289999999,57.96228289999999,,007,P010,2025_Feb_01_1554,ConditionRich,2021.2.3,59.93374923454152,
20.0,20.75,29,0.75,Stimuli/P010/things_fingerprint_05s.jpg,0,0.0,0.0,0,9,9,9,,,,,,,,,,,,,20.01574079999773,0.015740799997729482,None,61.19844869999724,61.19844869999724,61.19844869999724,61.19844869999724,61.19844869999724,61.19844869999724,61.19844869999724,61.19844869999724,61.19844869999724,61.19844869999724,,007,P010,2025_Feb_01_1554,ConditionRich,2021.2.3,59.93374923454152,
20.75,24.0,41,0.0,Stimuli/Blank.png,0,0.0,0.0,0,10,10,10,,,,,,,,,,,,,20.75032849999843,0.0003284999984316528,None,61.93246409999847,61.93246409999847,61.93246409999847,61.93246409999847,61.93246409999847,61.93246409999847,61.93246409999847,61.93246409999847,61.93246409999847,61.93246409999847,,007,P010,2025_Feb_01_1554,ConditionRich,2021.2.3,59.93374923454152,
24.0,24.75,21,0.75,Stimuli/P010/things_boy_05s.jpg,0,0.0,0.0,0,11,11,11,,,,,,,,,,,,,24.003366499997355,0.0033664999973552767,None,65.18532189999678,65.18532189999678,65.18532189999678,65.18532189999678,65.18532189999678,65.18532189999678,65.18532189999678,65.18532189999678,65.18532189999678,65.18532189999678,,007,P010,2025_Feb_01_1554,ConditionRich,2021.2.3,59.93374923454152,
24.75,28.0,41,0.0,Stimuli/Blank.png,0,0.0,0.0,0,12,12,12,,,,,,,,,,,,,24.75609699999768,0.006096999997680541,None,65.9526780999986,65.9526780999986,65.9526780999986,65.9526780999986,65.9526780999986,65.9526780999986,65.9526780999986,65.9526780999986,65.9526780999986,65.9526780999986,,007,P010,2025_Feb_01_1554,ConditionRich,2021.2.3,59.93374923454152,
28.0,28.75,5,0.75,Stimuli/P010/sun_akqvdmuauoxeafrj.jpg,0,0.0,0.0,0,13,13,13,,,,,,,,,,,,,28.02399189999778,0.02399189999778173,None,69.2222066999966,69.2222066999966,69.2222066999966,69.2222066999966,69.2222066999966,69.2222066999966,69.2222066999966,69.2222066999966,69.2222066999966,69.2222066999966,,007,P010,2025_Feb_01_1554,ConditionRich,2021.2.3,59.93374923454152,
28.75,32.0,41,0.0,Stimuli/Blank.png,0,0.0,0.0,0,14,14,14,,,,,,,,,,,,,28.774134199997206,0.02413419999720645,None,69.95620339999732,69.95620339999732,69.95620339999732,69.95620339999732,69.95620339999732,69.95620339999732,69.95620339999732,69.95620339999732,69.95620339999732,69.95620339999732,,007,P010,2025_Feb_01_1554,ConditionRich,2021.2.3,59.93374923454152,
32.0,32.75,9,0.75,Stimuli/P010/sun_bdjkvwqqqycuixtc.jpg,0,0.0,0.0,0,15,15,15,,,,,,,,,,,,,32.009676099998615,0.009676099998614518,None,73.1923984999994,73.1923984999994,73.1923984999994,73.1923984999994,73.1923984999994,73.1923984999994,73.1923984999994,73.1923984999994,73.1923984999994,73.1923984999994,,007,P010,2025_Feb_01_1554,ConditionRich,2021.2.3,59.93374923454152,
32.75,36.0,41,0.0,Stimuli/Blank.png,0,0.0,0.0,0,16,16,16,,,,,,,,,,,,,32.76138009999704,0.011380099997040816,None,73.94305749999694,73.94305749999694,73.94305749999694,73.94305749999694,73.94305749999694,73.94305749999694,73.94305749999694,73.94305749999694,73.94305749999694,73.94305749999694,,007,P010,2025_Feb_01_1554,ConditionRich,2021.2.3,59.93374923454152,
36.0,36.75,28,0.75,Stimuli/P010/things_face_05s.jpg,0,0.0,0.0,0,17,17,17,,,,,,,,,,,,,36.01465059999828,0.014650599998276448,None,77.21261279999817,77.21261279999817,77.21261279999817,77.21261279999817,77.21261279999817,77.21261279999817,77.21261279999817,77.21261279999817,77.21261279999817,77.21261279999817,,007,P010,2025_Feb_01_1554,ConditionRich,2021.2.3,59.93374923454152,
36.75,40.0,41,0.0,Stimuli/Blank.png,0,0.0,0.0,0,18,18,18,,,,,,,,,,,,,36.78139149999697,0.031391499996971106,None,77.96329659999901,77.96329659999901,77.96329659999901,77.96329659999901,77.96329659999901,77.96329659999901,77.96329659999901,77.96329659999901,77.96329659999901,77.96329659999901,,007,P010,2025_Feb_01_1554,ConditionRich,2021.2.3,59.93374923454152,
40.0,40.75,23,0.75,Stimuli/P010/things_charger_05s.jpg,0,0.0,0.0,0,19,19,19,,,,,,,,,,,,,40.00100179999936,0.0010017999993578997,None,81.18279819999952,81.18279819999952,81.18279819999952,81.18279819999952,81.18279819999952,81.18279819999952,81.18279819999952,81.18279819999952,81.18279819999952,81.18279819999952,,007,P010,2025_Feb_01_1554,ConditionRich,2021.2.3,59.93374923454152,
40.75,44.0,41,0.0,Stimuli/Blank.png,0,0.0,0.0,0,20,20,20,,,,,,,,,,,,,40.75080170000001,0.0008017000000108965,None,81.93348659999901,81.93348659999901,81.93348659999901,81.93348659999901,81.93348659999901,81.93348659999901,81.93348659999901,81.93348659999901,81.93348659999901,81.93348659999901,,007,P010,2025_Feb_01_1554,ConditionRich,2021.2.3,59.93374923454152,
44.0,44.75,2,0.75,Stimuli/P010/sun_acvloibbxiqpiwnv.jpg,0,0.0,0.0,0,21,21,21,,,,,,,,,,,,,44.00475229999938,0.004752299999381648,None,85.18633449999834,85.18633449999834,85.18633449999834,85.18633449999834,85.18633449999834,85.18633449999834,85.18633449999834,85.18633449999834,85.18633449999834,85.18633449999834,,007,P010,2025_Feb_01_1554,ConditionRich,2021.2.3,59.93374923454152,
44.75,48.0,41,0.0,Stimuli/Blank.png,0,0.0,0.0,0,22,22,22,,,,,,,,,,,,,44.75532519999979,0.00532519999978831,None,85.93701609999698,85.93701609999698,85.93701609999698,85.93701609999698,85.93701609999698,85.93701609999698,85.93701609999698,85.93701609999698,85.93701609999698,85.93701609999698,,007,P010,2025_Feb_01_1554,ConditionRich,2021.2.3,59.93374923454152,
48.0,48.75,26,0.75,Stimuli/P010/things_cookie_sheet_05s.jpg,0,0.0,0.0,0,23,23,23,,,,,,,,,,,,,48.00987679999889,0.009876799998892238,None,89.2065569999977,89.2065569999977,89.2065569999977,89.2065569999977,89.2065569999977,89.2065569999977,89.2065569999977,89.2065569999977,89.2065569999977,89.2065569999977,,007,P010,2025_Feb_01_1554,ConditionRich,2021.2.3,59.93374923454152,
48.75,52.0,41,0.0,Stimuli/Blank.png,0,0.0,0.0,0,24,24,24,,,,,,,,,,,,,48.7751274000002,0.025127400000201305,None,89.95723569999973,89.95723569999973,89.95723569999973,89.95723569999973,89.95723569999973,89.95723569999973,89.95723569999973,89.95723569999973,89.95723569999973,89.95723569999973,,007,P010,2025_Feb_01_1554,ConditionRich,2021.2.3,59.93374923454152,
52.0,52.75,4,0.75,Stimuli/P010/sun_afkzdukwewwzqtmr.jpg,0,0.0,0.0,0,25,25,25,,,,,,,,,,,,,52.010708399997384,0.010708399997383822,None,93.1934162999969,93.1934162999969,93.1934162999969,93.1934162999969,93.1934162999969,93.1934162999969,93.1934162999969,93.1934162999969,93.1934162999969,93.1934162999969,,007,P010,2025_Feb_01_1554,ConditionRich,2021.2.3,59.93374923454152,
52.75,56.0,41,0.0,Stimuli/Blank.png,1,1.25,2.0,0,26,26,26,,,,,,,,,,,,,52.761423599997215,0.011423599997215206,1,93.94407809999757,93.94407809999757,93.94407809999757,93.94407809999757,93.94407809999757,93.94407809999757,95.17856269999902,95.92921249999927,93.94407809999757,93.94407809999757,1.620377399998688,007,P010,2025_Feb_01_1554,ConditionRich,2021.2.3,59.93374923454152,
56.0,56.75,27,0.75,Stimuli/P010/things_curling_iron_05s.jpg,0,0.0,0.0,0,27,27,27,,,,,,,,,,,,,56.01495269999941,0.014952699999412289,None,97.19695599999977,97.19695599999977,97.19695599999977,97.19695599999977,97.19695599999977,97.19695599999977,97.19695599999977,97.19695599999977,97.19695599999977,97.19695599999977,,007,P010,2025_Feb_01_1554,ConditionRich,2021.2.3,59.93374923454152,
56.75,60.0,41,0.0,Stimuli/Blank.png,0,0.0,0.0,0,28,28,28,,,,,,,,,,,,,56.76557539999703,0.015575399997032946,None,97.94762099999934,97.94762099999934,97.94762099999934,97.94762099999934,97.94762099999934,97.94762099999934,97.94762099999934,97.94762099999934,97.94762099999934,97.94762099999934,,007,P010,2025_Feb_01_1554,ConditionRich,2021.2.3,59.93374923454152,
60.0,60.75,1,0.75,Stimuli/P010/sun_abqdlumenyzawlme.jpg,0,0.0,0.0,0,29,29,29,,,,,,,,,,,,,60.001536699997814,0.0015366999978141394,None,101.18382089999795,101.18382089999795,101.18382089999795,101.18382089999795,101.18382089999795,101.18382089999795,101.18382089999795,101.18382089999795,101.18382089999795,101.18382089999795,,007,P010,2025_Feb_01_1554,ConditionRich,2021.2.3,59.93374923454152,
60.75,64.0,41,0.0,Stimuli/Blank.png,0,0.0,0.0,0,30,30,30,,,,,,,,,,,,,60.751956999996764,0.0019569999967643525,None,101.93448729999727,101.93448729999727,101.93448729999727,101.93448729999727,101.93448729999727,101.93448729999727,101.93448729999727,101.93448729999727,101.93448729999727,101.93448729999727,,007,P010,2025_Feb_01_1554,ConditionRich,2021.2.3,59.93374923454152,
64.0,64.75,24,0.75,Stimuli/P010/things_cigar_05n.jpg,0,0.0,0.0,0,31,31,31,,,,,,,,,,,,,64.00527650000004,0.005276500000036322,None,105.20407919999707,105.20407919999707,105.20407919999707,105.20407919999707,105.20407919999707,105.20407919999707,105.20407919999707,105.20407919999707,105.20407919999707,105.20407919999707,,007,P010,2025_Feb_01_1554,ConditionRich,2021.2.3,59.93374923454152,
64.75,68.0,41,0.0,Stimuli/Blank.png,1,0.25,1.0,0,32,32,32,,,,,,,,,,,,,64.77561269999933,0.02561269999932847,1,105.97139549999702,105.97139549999702,105.97139549999702,105.97139549999702,105.97139549999702,105.97139549999702,106.20492109999759,106.95561649999945,105.97139549999702,105.97139549999702,0.6171695000011823,007,P010,2025_Feb_01_1554,ConditionRich,2021.2.3,59.93374923454152,
68.0,68.75,11,0.75,Stimuli/P010/sun_bfyvfqiimvdaxlqn.jpg,0,0.0,0.0,0,33,33,33,,,,,,,,,,,,,68.02489229999992,0.024892299999919487,None,109.20758159999968,109.20758159999968,109.20758159999968,109.20758159999968,109.20758159999968,109.20758159999968,109.20758159999968,109.20758159999968,109.20758159999968,109.20758159999968,,007,P010,2025_Feb_01_1554,ConditionRich,2021.2.3,59.93374923454152,
68.75,72.0,41,0.0,Stimuli/Blank.png,0,0.0,0.0,0,34,34,34,,,,,,,,,,,,,68.75945749999664,0.009457499996642582,None,109.94156019999718,109.94156019999718,109.94156019999718,109.94156019999718,109.94156019999718,109.94156019999718,109.94156019999718,109.94156019999718,109.94156019999718,109.94156019999718,,007,P010,2025_Feb_01_1554,ConditionRich,2021.2.3,59.93374923454152,
72.0,72.75,3,0.75,Stimuli/P010/sun_aewgwsmvsgzleqhw.jpg,0,0.0,0.0,0,35,35,35,,,,,,,,,,,,,72.01205659999687,0.01205659999686759,None,113.1944377999971,113.1944377999971,113.1944377999971,113.1944377999971,113.1944377999971,113.1944377999971,113.1944377999971,113.1944377999971,113.1944377999971,113.1944377999971,,007,P010,2025_Feb_01_1554,ConditionRich,2021.2.3,59.93374923454152,
72.75,76.0,41,0.0,Stimuli/Blank.png,0,0.0,0.0,0,36,36,36,,,,,,,,,,,,,72.76327429999947,0.013274299999466166,None,113.94511459999921,113.94511459999921,113.94511459999921,113.94511459999921,113.94511459999921,113.94511459999921,113.94511459999921,113.94511459999921,113.94511459999921,113.94511459999921,,007,P010,2025_Feb_01_1554,ConditionRich,2021.2.3,59.93374923454152,
76.0,76.75,12,0.75,Stimuli/P010/sun_birmwgkdtrlevcaf.jpg,1,0.0,0.75,0,37,37,37,,,,,,,,,,,,,75.99931209999704,-0.0006879000029584859,1,117.18130049999672,117.18130049999672,117.18130049999672,117.18130049999672,117.18130049999672,117.18130049999672,117.18130049999672,117.91530609999973,117.18130049999672,117.18130049999672,0.4651119000009203,007,P010,2025_Feb_01_1554,ConditionRich,2021.2.3,59.93374923454152,
76.75,80.0,41,0.0,Stimuli/Blank.png,0,0.0,0.0,0,38,38,38,,,,,,,,,,,,,76.7501416999985,0.00014169999849400483,None,117.9319773999996,117.9319773999996,117.9319773999996,117.9319773999996,117.9319773999996,117.9319773999996,117.9319773999996,117.9319773999996,117.9319773999996,117.9319773999996,,007,P010,2025_Feb_01_1554,ConditionRich,2021.2.3,59.93374923454152,
80.0,80.75,36,0.75,Stimuli/P010/things_pelican_05s.jpg,0,0.0,0.0,0,39,39,39,,,,,,,,,,,,,80.00277229999847,0.0027722999984689523,None,121.20155019999947,121.20155019999947,121.20155019999947,121.20155019999947,121.20155019999947,121.20155019999947,121.20155019999947,121.20155019999947,121.20155019999947,121.20155019999947,,007,P010,2025_Feb_01_1554,ConditionRich,2021.2.3,59.93374923454152,
80.75,84.0,41,0.0,Stimuli/Blank.png,0,0.0,0.0,0,40,40,40,,,,,,,,,,,,,80.7705836999994,0.020583699999406235,None,121.9521969999987,121.9521969999987,121.9521969999987,121.9521969999987,121.9521969999987,121.9521969999987,121.9521969999987,121.9521969999987,121.9521969999987,121.9521969999987,,007,P010,2025_Feb_01_1554,ConditionRich,2021.2.3,59.93374923454152,
84.0,100.0,0,0.0,Stimuli/Blank.png,1,6.0,6.75,0,41,41,41,,,,,,,,,,,,,84.00668829999995,0.0066882999999506865,1,125.18838759999926,125.18838759999926,125.18838759999926,125.18838759999926,125.18838759999926,125.18838759999926,131.17700739999782,131.92769009999756,125.18838759999926,125.18838759999926,6.3450803000014275,007,P010,2025_Feb_01_1554,ConditionRich,2021.2.3,59.93374923454152,
100.0,100.75,8,0.75,Stimuli/P010/sun_batcnoizlkeiqdtx.jpg,0,0.0,0.0,0,42,42,42,,,,,,,,,,,,,100.00315719999708,0.003157199997076532,None,141.1858663999992,141.1858663999992,141.1858663999992,141.1858663999992,141.1858663999992,141.1858663999992,141.1858663999992,141.1858663999992,141.1858663999992,141.1858663999992,,007,P010,2025_Feb_01_1554,ConditionRich,2021.2.3,59.93374923454152,
100.75,104.0,41,0.0,Stimuli/Blank.png,1,0.25,1.0,0,43,43,43,,,,,,,,,,,,,100.75535769999988,0.005357699999876786,1,141.93654849999803,141.93654849999803,141.93654849999803,141.93654849999803,141.93654849999803,141.93654849999803,142.17011109999657,142.9207506999992,141.93654849999803,141.93654849999803,0.6251197999990836,007,P010,2025_Feb_01_1554,ConditionRich,2021.2.3,59.93374923454152,
104.0,104.75,38,0.75,Stimuli/P010/things_roadsweeper_05s.jpg,0,0.0,0.0,0,44,44,44,,,,,,,,,,,,,104.00741199999902,0.007411999999021646,None,145.20610149999993,145.20610149999993,145.20610149999993,145.20610149999993,145.20610149999993,145.20610149999993,145.20610149999993,145.20610149999993,145.20610149999993,145.20610149999993,,007,P010,2025_Feb_01_1554,ConditionRich,2021.2.3,59.93374923454152,
104.75,108.0,41,0.0,Stimuli/Blank.png,0,0.0,0.0,0,45,45,45,,,,,,,,,,,,,104.77542679999897,0.02542679999896791,None,145.95675469999696,145.95675469999696,145.95675469999696,145.95675469999696,145.95675469999696,145.95675469999696,145.95675469999696,145.95675469999696,145.95675469999696,145.95675469999696,,007,P010,2025_Feb_01_1554,ConditionRich,2021.2.3,59.93374923454152,
108.0,108.75,34,0.75,Stimuli/P010/things_man_05s.jpg,1,0.0,0.75,0,46,46,46,,,,,,,,,,,,,108.01036380000005,0.010363800000050105,1,149.1929472999982,149.1929472999982,149.1929472999982,149.1929472999982,149.1929472999982,149.1929472999982,149.1929472999982,149.92692819999866,149.1929472999982,149.1929472999982,0.4345772999986366,007,P010,2025_Feb_01_1554,ConditionRich,2021.2.3,59.93374923454152,
108.75,112.0,41,0.0,Stimuli/Blank.png,0,0.0,0.0,0,47,47,47,,,,,,,,,,,,,108.76192529999753,0.011925299997528782,None,149.9436113999982,149.9436113999982,149.9436113999982,149.9436113999982,149.9436113999982,149.9436113999982,149.9436113999982,149.9436113999982,149.9436113999982,149.9436113999982,,007,P010,2025_Feb_01_1554,ConditionRich,2021.2.3,59.93374923454152,
112.0,112.75,30,0.75,Stimuli/P010/things_fire_05s.jpg,0,0.0,0.0,0,48,48,48,,,,,,,,,,,,,112.01363429999765,0.013634299997647759,None,153.19649109999955,153.19649109999955,153.19649109999955,153.19649109999955,153.19649109999955,153.19649109999955,153.19649109999955,153.19649109999955,153.19649109999955,153.19649109999955,,007,P010,2025_Feb_01_1554,ConditionRich,2021.2.3,59.93374923454152,
112.75,116.0,41,0.0,Stimuli/Blank.png,0,0.0,0.0,0,49,49,49,,,,,,,,,,,,,112.76499329999933,0.014993299999332521,None,153.94716179999887,153.94716179999887,153.94716179999887,153.94716179999887,153.94716179999887,153.94716179999887,153.94716179999887,153.94716179999887,153.94716179999887,153.94716179999887,,007,P010,2025_Feb_01_1554,ConditionRich,2021.2.3,59.93374923454152,
116.0,116.75,18,0.75,Stimuli/P010/sun_bwjdahsxcqepqqbm.jpg,0,0.0,0.0,0,50,50,50,,,,,,,,,,,,,116.00179319999734,0.0017931999973370694,None,157.18336179999824,157.18336179999824,157.18336179999824,157.18336179999824,157.18336179999824,157.18336179999824,157.18336179999824,157.18336179999824,157.18336179999824,157.18336179999824,,007,P010,2025_Feb_01_1554,ConditionRich,2021.2.3,59.93374923454152,
116.75,120.0,41,0.0,Stimuli/Blank.png,0,0.0,0.0,0,51,51,51,,,,,,,,,,,,,116.751604699999,0.001604699999006698,None,157.9340149999989,157.9340149999989,157.9340149999989,157.9340149999989,157.9340149999989,157.9340149999989,157.9340149999989,157.9340149999989,157.9340149999989,157.9340149999989,,007,P010,2025_Feb_01_1554,ConditionRich,2021.2.3,59.93374923454152,
120.0,120.75,22,0.75,Stimuli/P010/things_butterfly_05s.jpg,0,0.0,0.0,0,52,52,52,,,,,,,,,,,,,120.00417709999965,0.004177099999651546,None,161.18688859999747,161.18688859999747,161.18688859999747,161.18688859999747,161.18688859999747,161.18688859999747,161.18688859999747,161.18688859999747,161.18688859999747,161.18688859999747,,007,P010,2025_Feb_01_1554,ConditionRich,2021.2.3,59.93374923454152,
120.75,124.0,41,0.0,Stimuli/Blank.png,0,0.0,0.0,0,53,53,53,,,,,,,,,,,,,120.75637799999822,0.0063779999982216395,None,161.93756909999865,161.93756909999865,161.93756909999865,161.93756909999865,161.93756909999865,161.93756909999865,161.93756909999865,161.93756909999865,161.93756909999865,161.93756909999865,,007,P010,2025_Feb_01_1554,ConditionRich,2021.2.3,59.93374923454152,
124.0,124.75,39,0.75,Stimuli/P010/things_tiara_05s.jpg,0,0.0,0.0,0,54,54,54,,,,,,,,,,,,,124.00771379999787,0.007713799997873139,None,165.20712319999802,165.20712319999802,165.20712319999802,165.20712319999802,165.20712319999802,165.20712319999802,165.20712319999802,165.20712319999802,165.20712319999802,165.20712319999802,,007,P010,2025_Feb_01_1554,ConditionRich,2021.2.3,59.93374923454152,
124.75,128.0,41,0.0,Stimuli/Blank.png,0,0.0,0.0,0,55,55,55,,,,,,,,,,,,,124.7750954999974,0.025095499997405568,None,165.9577778999992,165.9577778999992,165.9577778999992,165.9577778999992,165.9577778999992,165.9577778999992,165.9577778999992,165.9577778999992,165.9577778999992,165.9577778999992,,007,P010,2025_Feb_01_1554,ConditionRich,2021.2.3,59.93374923454152,
128.0,128.75,37,0.75,Stimuli/P010/things_pug_05s.jpg,0,0.0,0.0,0,56,56,56,,,,,,,,,,,,,128.01179789999878,0.011797899998782668,None,169.1939698999995,169.1939698999995,169.1939698999995,169.1939698999995,169.1939698999995,169.1939698999995,169.1939698999995,169.1939698999995,169.1939698999995,169.1939698999995,,007,P010,2025_Feb_01_1554,ConditionRich,2021.2.3,59.93374923454152,
128.75,132.0,41,0.0,Stimuli/Blank.png,1,0.25,1.0,0,57,57,57,,,,,,,,,,,,,128.76267409999855,0.012674099998548627,1,169.94464569999764,169.94464569999764,169.94464569999764,169.94464569999764,169.94464569999764,169.94464569999764,170.17817499999728,170.92887869999686,169.94464569999764,169.94464569999764,0.6208559000006062,007,P010,2025_Feb_01_1554,ConditionRich,2021.2.3,59.93374923454152,
132.0,132.75,40,0.75,Stimuli/P010/things_woman_05s.jpg,0,0.0,0.0,0,58,58,58,,,,,,,,,,,,,132.01497309999831,0.014973099998314865,None,173.19751709999764,173.19751709999764,173.19751709999764,173.19751709999764,173.19751709999764,173.19751709999764,173.19751709999764,173.19751709999764,173.19751709999764,173.19751709999764,,007,P010,2025_Feb_01_1554,ConditionRich,2021.2.3,59.93374923454152,
132.75,136.0,41,0.0,Stimuli/Blank.png,0,0.0,0.0,0,59,59,59,,,,,,,,,,,,,132.76604979999684,0.016049799996835645,None,173.948189499999,173.948189499999,173.948189499999,173.948189499999,173.948189499999,173.948189499999,173.948189499999,173.948189499999,173.948189499999,173.948189499999,,007,P010,2025_Feb_01_1554,ConditionRich,2021.2.3,59.93374923454152,
136.0,136.75,20,0.75,Stimuli/P010/sun_ddsiwinthvyejghq.jpg,0,0.0,0.0,0,60,60,60,,,,,,,,,,,,,136.00203150000016,0.0020315000001573935,None,177.18437029999768,177.18437029999768,177.18437029999768,177.18437029999768,177.18437029999768,177.18437029999768,177.18437029999768,177.18437029999768,177.18437029999768,177.18437029999768,,007,P010,2025_Feb_01_1554,ConditionRich,2021.2.3,59.93374923454152,
136.75,140.0,41,0.0,Stimuli/Blank.png,0,0.0,0.0,0,61,61,61,,,,,,,,,,,,,136.7548990999967,0.0048990999966918025,None,177.951720699999,177.951720699999,177.951720699999,177.951720699999,177.951720699999,177.951720699999,177.951720699999,177.951720699999,177.951720699999,177.951720699999,,007,P010,2025_Feb_01_1554,ConditionRich,2021.2.3,59.93374923454152,
140.0,140.75,35,0.75,Stimuli/P010/things_mushroom_05n.jpg,0,0.0,0.0,0,62,62,62,,,,,,,,,,,,,140.0225040999976,0.0225040999976045,None,181.22129069999937,181.22129069999937,181.22129069999937,181.22129069999937,181.22129069999937,181.22129069999937,181.22129069999937,181.22129069999937,181.22129069999937,181.22129069999937,,007,P010,2025_Feb_01_1554,ConditionRich,2021.2.3,59.93374923454152,
140.75,144.0,41,0.0,Stimuli/Blank.png,0,0.0,0.0,0,63,63,63,,,,,,,,,,,,,140.77486749999662,0.02486749999661697,None,181.97195449999708,181.97195449999708,181.97195449999708,181.97195449999708,181.97195449999708,181.97195449999708,181.97195449999708,181.97195449999708,181.97195449999708,181.97195449999708,,007,P010,2025_Feb_01_1554,ConditionRich,2021.2.3,59.93374923454152,
144.0,144.75,13,0.75,Stimuli/P010/sun_bjimvgwadfodioes.jpg,0,0.0,0.0,0,64,64,64,,,,,,,,,,,,,144.02537929999744,0.025379299997439375,None,185.20814179999797,185.20814179999797,185.20814179999797,185.20814179999797,185.20814179999797,185.20814179999797,185.20814179999797,185.20814179999797,185.20814179999797,185.20814179999797,,007,P010,2025_Feb_01_1554,ConditionRich,2021.2.3,59.93374923454152,
144.75,148.0,41,0.0,Stimuli/Blank.png,0,0.0,0.0,0,65,65,65,,,,,,,,,,,,,144.75949169999876,0.00949169999876176,None,185.94212969999717,185.94212969999717,185.94212969999717,185.94212969999717,185.94212969999717,185.94212969999717,185.94212969999717,185.94212969999717,185.94212969999717,185.94212969999717,,007,P010,2025_Feb_01_1554,ConditionRich,2021.2.3,59.93374923454152,
148.0,148.75,19,0.75,Stimuli/P010/sun_bwvfnogmotsvhofs.jpg,0,0.0,0.0,0,66,66,66,,,,,,,,,,,,,148.01251129999946,0.01251129999945988,None,189.21170509999865,189.21170509999865,189.21170509999865,189.21170509999865,189.21170509999865,189.21170509999865,189.21170509999865,189.21170509999865,189.21170509999865,189.21170509999865,,007,P010,2025_Feb_01_1554,ConditionRich,2021.2.3,59.93374923454152,
148.75,152.0,41,0.0,Stimuli/Blank.png,1,1.25,2.0,0,67,67,67,,,,,,,,,,,,,148.78034839999964,0.030348399999638787,1,189.96236339999814,189.96236339999814,189.96236339999814,189.96236339999814,189.96236339999814,189.96236339999814,191.19676959999924,191.9474272999978,189.96236339999814,189.96236339999814,1.8231311999988975,007,P010,2025_Feb_01_1554,ConditionRich,2021.2.3,59.93374923454152,
152.0,152.75,33,0.75,Stimuli/P010/things_lizard_05n.jpg,0,0.0,0.0,0,68,68,68,,,,,,,,,,,,,151.99946759999875,-0.0005324000012478791,None,193.18182869999873,193.18182869999873,193.18182869999873,193.18182869999873,193.18182869999873,193.18182869999873,193.18182869999873,193.18182869999873,193.18182869999873,193.18182869999873,,007,P010,2025_Feb_01_1554,ConditionRich,2021.2.3,59.93374923454152,
152.75,156.0,41,0.0,Stimuli/Blank.png,1,0.25,1.0,0,69,69,69,,,,,,,,,,,,,152.75044519999938,0.00044519999937620014,1,193.93253169999662,193.93253169999662,193.93253169999662,193.93253169999662,193.93253169999662,193.93253169999662,194.1660809999994,194.91672199999812,193.93253169999662,193.93253169999662,0.9451908999981242,007,P010,2025_Feb_01_1554,ConditionRich,2021.2.3,59.93374923454152,
156.0,156.75,6,0.75,Stimuli/P010/sun_amkrwcyvinmsylsz.jpg,0,0.0,0.0,0,70,70,70,,,,,,,,,,,,,156.00268319999668,0.002683199996681651,None,197.20209749999776,197.20209749999776,197.20209749999776,197.20209749999776,197.20209749999776,197.20209749999776,197.20209749999776,197.20209749999776,197.20209749999776,197.20209749999776,,007,P010,2025_Feb_01_1554,ConditionRich,2021.2.3,59.93374923454152,
156.75,160.0,41,0.0,Stimuli/Blank.png,0,0.0,0.0,0,71,71,71,,,,,,,,,,,,,156.77065839999705,0.020658399997046217,None,197.95274079999945,197.95274079999945,197.95274079999945,197.95274079999945,197.95274079999945,197.95274079999945,197.95274079999945,197.95274079999945,197.95274079999945,197.95274079999945,,007,P010,2025_Feb_01_1554,ConditionRich,2021.2.3,59.93374923454152,
160.0,160.75,16,0.75,Stimuli/P010/sun_bqpyqljaflidcauh.jpg,0,0.0,0.0,0,72,72,72,,,,,,,,,,,,,160.00624439999956,0.006244399999559391,None,201.18894399999772,201.18894399999772,201.18894399999772,201.18894399999772,201.18894399999772,201.18894399999772,201.18894399999772,201.18894399999772,201.18894399999772,201.18894399999772,,007,P010,2025_Feb_01_1554,ConditionRich,2021.2.3,59.93374923454152,
160.75,164.0,41,0.0,Stimuli/Blank.png,0,0.0,0.0,0,73,73,73,,,,,,,,,,,,,160.75758499999938,0.0075849999993806705,None,201.93968699999823,201.93968699999823,201.93968699999823,201.93968699999823,201.93968699999823,201.93968699999823,201.93968699999823,201.93968699999823,201.93968699999823,201.93968699999823,,007,P010,2025_Feb_01_1554,ConditionRich,2021.2.3,59.93374923454152,
164.0,164.75,31,0.75,Stimuli/P010/things_girl_05s.jpg,0,0.0,0.0,0,74,74,74,,,,,,,,,,,,,164.01047619999736,0.010476199997356161,None,205.19247459999679,205.19247459999679,205.19247459999679,205.19247459999679,205.19247459999679,205.19247459999679,205.19247459999679,205.19247459999679,205.19247459999679,205.19247459999679,,007,P010,2025_Feb_01_1554,ConditionRich,2021.2.3,59.93374923454152,
164.75,168.0,41,0.0,Stimuli/Blank.png,0,0.0,0.0,0,75,75,75,,,,,,,,,,,,,164.76058189999821,0.010581899998214794,None,205.94313939999847,205.94313939999847,205.94313939999847,205.94313939999847,205.94313939999847,205.94313939999847,205.94313939999847,205.94313939999847,205.94313939999847,205.94313939999847,,007,P010,2025_Feb_01_1554,ConditionRich,2021.2.3,59.93374923454152,
168.0,168.75,32,0.75,Stimuli/P010/things_hawk_05s.jpg,0,0.0,0.0,0,76,76,76,,,,,,,,,,,,,168.01433799999722,0.01433799999722396,None,209.1960285999994,209.1960285999994,209.1960285999994,209.1960285999994,209.1960285999994,209.1960285999994,209.1960285999994,209.1960285999994,209.1960285999994,209.1960285999994,,007,P010,2025_Feb_01_1554,ConditionRich,2021.2.3,59.93374923454152,
168.75,172.0,41,0.0,Stimuli/Blank.png,0,0.0,0.0,0,77,77,77,,,,,,,,,,,,,168.76490999999805,0.014909999998053536,None,209.94668610000008,209.94668610000008,209.94668610000008,209.94668610000008,209.94668610000008,209.94668610000008,209.94668610000008,209.94668610000008,209.94668610000008,209.94668610000008,,007,P010,2025_Feb_01_1554,ConditionRich,2021.2.3,59.93374923454152,
172.0,172.75,17,0.75,Stimuli/P010/sun_brkrfjpyfglmigkk.jpg,0,0.0,0.0,0,78,78,78,,,,,,,,,,,,,172.00086829999782,0.0008682999978191219,None,213.19958829999814,213.19958829999814,213.19958829999814,213.19958829999814,213.19958829999814,213.19958829999814,213.19958829999814,213.19958829999814,213.19958829999814,213.19958829999814,,007,P010,2025_Feb_01_1554,ConditionRich,2021.2.3,59.93374923454152,
172.75,176.0,41,0.0,Stimuli/Blank.png,0,0.0,0.0,0,79,79,79,,,,,,,,,,,,,172.768887299997,0.018887299997004448,None,213.9502474999972,213.9502474999972,213.9502474999972,213.9502474999972,213.9502474999972,213.9502474999972,213.9502474999972,213.9502474999972,213.9502474999972,213.9502474999972,,007,P010,2025_Feb_01_1554,ConditionRich,2021.2.3,59.93374923454152,
176.0,176.75,7,0.75,Stimuli/P010/sun_apiogxmvvzfmtsmj.jpg,0,0.0,0.0,0,80,80,80,,,,,,,,,,,,,176.00446069999816,0.004460699998162454,None,217.20311649999712,217.20311649999712,217.20311649999712,217.20311649999712,217.20311649999712,217.20311649999712,217.20311649999712,217.20311649999712,217.20311649999712,217.20311649999712,,007,P010,2025_Feb_01_1554,ConditionRich,2021.2.3,59.93374923454152,
176.75,180.0,41,0.0,Stimuli/Blank.png,0,0.0,0.0,0,81,81,81,,,,,,,,,,,,,176.77095709999776,0.020957099997758633,None,217.95376229999965,217.95376229999965,217.95376229999965,217.95376229999965,217.95376229999965,217.95376229999965,217.95376229999965,217.95376229999965,217.95376229999965,217.95376229999965,,007,P010,2025_Feb_01_1554,ConditionRich,2021.2.3,59.93374923454152,
180.0,196.0,0,0.0,Stimuli/Blank.png,1,10.0,10.75,0,82,82,82,,,,,,,,,,,,,180.00736649999817,0.007366499998170184,1,221.19011229999887,221.19011229999887,221.19011229999887,221.19011229999887,221.19011229999887,221.19011229999887,231.16543869999805,231.91613849999703,221.19011229999887,221.19011229999887,10.45064469999852,007,P010,2025_Feb_01_1554,ConditionRich,2021.2.3,59.93374923454152,
196.0,196.75,5,0.75,Stimuli/P010/sun_akqvdmuauoxeafrj.jpg,0,0.0,0.0,0,83,83,83,,,,,,,,,,,,,196.00468379999802,0.004683799998019822,None,237.18744419999712,237.18744419999712,237.18744419999712,237.18744419999712,237.18744419999712,237.18744419999712,237.18744419999712,237.18744419999712,237.18744419999712,237.18744419999712,,007,P010,2025_Feb_01_1554,ConditionRich,2021.2.3,59.93374923454152,
196.75,200.0,41,0.0,Stimuli/Blank.png,0,0.0,0.0,0,84,84,84,,,,,,,,,,,,,196.75621150000006,0.006211500000063097,None,237.93810089999897,237.93810089999897,237.93810089999897,237.93810089999897,237.93810089999897,237.93810089999897,237.93810089999897,237.93810089999897,237.93810089999897,237.93810089999897,,007,P010,2025_Feb_01_1554,ConditionRich,2021.2.3,59.93374923454152,
200.0,200.75,38,0.75,Stimuli/P010/things_roadsweeper_05s.jpg,0,0.0,0.0,0,85,85,85,,,,,,,,,,,,,200.01026039999851,0.010260399998514913,None,241.20766999999978,241.20766999999978,241.20766999999978,241.20766999999978,241.20766999999978,241.20766999999978,241.20766999999978,241.20766999999978,241.20766999999978,241.20766999999978,,007,P010,2025_Feb_01_1554,ConditionRich,2021.2.3,59.93374923454152,
200.75,204.0,41,0.0,Stimuli/Blank.png,0,0.0,0.0,0,86,86,86,,,,,,,,,,,,,200.77574619999723,0.02574619999722927,None,241.95831949999774,241.95831949999774,241.95831949999774,241.95831949999774,241.95831949999774,241.95831949999774,241.95831949999774,241.95831949999774,241.95831949999774,241.95831949999774,,007,P010,2025_Feb_01_1554,ConditionRich,2021.2.3,59.93374923454152,
204.0,204.75,30,0.75,Stimuli/P010/things_fire_05s.jpg,0,0.0,0.0,0,87,87,87,,,,,,,,,,,,,204.01254869999684,0.012548699996841606,None,245.21120939999673,245.21120939999673,245.21120939999673,245.21120939999673,245.21120939999673,245.21120939999673,245.21120939999673,245.21120939999673,245.21120939999673,245.21120939999673,,007,P010,2025_Feb_01_1554,ConditionRich,2021.2.3,59.93374923454152,
204.75,208.0,41,0.0,Stimuli/Blank.png,0,0.0,0.0,0,88,88,88,,,,,,,,,,,,,204.7793838999969,0.029383899996901164,None,245.96187299999656,245.96187299999656,245.96187299999656,245.96187299999656,245.96187299999656,245.96187299999656,245.96187299999656,245.96187299999656,245.96187299999656,245.96187299999656,,007,P010,2025_Feb_01_1554,ConditionRich,2021.2.3,59.93374923454152,
208.0,208.75,25,0.75,Stimuli/P010/things_clothespin_05s.jpg,0,0.0,0.0,0,89,89,89,,,,,,,,,,,,,208.01584099999673,0.01584099999672617,None,249.19806119999703,249.19806119999703,249.19806119999703,249.19806119999703,249.19806119999703,249.19806119999703,249.19806119999703,249.19806119999703,249.19806119999703,249.19806119999703,,007,P010,2025_Feb_01_1554,ConditionRich,2021.2.3,59.93374923454152,
208.75,212.0,41,0.0,Stimuli/Blank.png,1,2.25,3.0,0,90,90,90,,,,,,,,,,,,,208.74984229999973,-0.00015770000027259812,1,249.9321491999981,249.9321491999981,249.9321491999981,249.9321491999981,249.9321491999981,249.9321491999981,252.16735319999862,252.918018999997,249.9321491999981,249.9321491999981,2.7596207999995386,007,P010,2025_Feb_01_1554,ConditionRich,2021.2.3,59.93374923454152,
212.0,212.75,14,0.75,Stimuli/P010/sun_blaqxdebghixzyyw.jpg,0,0.0,0.0,0,91,91,91,,,,,,,,,,,,,212.00503149999713,0.005031499997130595,None,253.2016057999972,253.2016057999972,253.2016057999972,253.2016057999972,253.2016057999972,253.2016057999972,253.2016057999972,253.2016057999972,253.2016057999972,253.2016057999972,,007,P010,2025_Feb_01_1554,ConditionRich,2021.2.3,59.93374923454152,
212.75,216.0,41,0.0,Stimuli/Blank.png,1,0.25,1.0,0,92,92,92,,,,,,,,,,,,,212.7701703999992,0.020170399999187794,1,253.9522700999987,253.9522700999987,253.9522700999987,253.9522700999987,253.9522700999987,253.9522700999987,254.18580609999844,254.93650369999887,253.9522700999987,253.9522700999987,0.6696248000007472,007,P010,2025_Feb_01_1554,ConditionRich,2021.2.3,59.93374923454152,
216.0,216.75,35,0.75,Stimuli/P010/things_mushroom_05n.jpg,0,0.0,0.0,0,93,93,93,,,,,,,,,,,,,216.0062287999972,0.0062287999971886165,None,257.205165899999,257.205165899999,257.205165899999,257.205165899999,257.205165899999,257.205165899999,257.205165899999,257.205165899999,257.205165899999,257.205165899999,,007,P010,2025_Feb_01_1554,ConditionRich,2021.2.3,59.93374923454152,
216.75,220.0,41,0.0,Stimuli/Blank.png,0,0.0,0.0,0,94,94,94,,,,,,,,,,,,,216.7754595999977,0.025459599997702753,None,257.97251539999706,257.97251539999706,257.97251539999706,257.97251539999706,257.97251539999706,257.97251539999706,257.97251539999706,257.97251539999706,257.97251539999706,257.97251539999706,,007,P010,2025_Feb_01_1554,ConditionRich,2021.2.3,59.93374923454152,
220.0,220.75,40,0.75,Stimuli/P010/things_woman_05s.jpg,0,0.0,0.0,0,95,95,95,,,,,,,,,,,,,220.02600399999938,0.026003999999375083,None,261.2086918999994,261.2086918999994,261.2086918999994,261.2086918999994,261.2086918999994,261.2086918999994,261.2086918999994,261.2086918999994,261.2086918999994,261.2086918999994,,007,P010,2025_Feb_01_1554,ConditionRich,2021.2.3,59.93374923454152,
220.75,224.0,41,0.0,Stimuli/Blank.png,1,0.25,1.0,0,96,96,96,,,,,,,,,,,,,220.76079819999723,0.01079819999722531,1,261.94266909999715,261.94266909999715,261.94266909999715,261.94266909999715,261.94266909999715,261.94266909999715,262.17621489999874,262.9268642999996,261.94266909999715,261.94266909999715,0.6820536000013817,007,P010,2025_Feb_01_1554,ConditionRich,2021.2.3,59.93374923454152,
224.0,224.75,39,0.75,Stimuli/P010/things_tiara_05s.jpg,0,0.0,0.0,0,97,97,97,,,,,,,,,,,,,224.01504509999722,0.015045099997223588,None,265.21222529999795,265.21222529999795,265.21222529999795,265.21222529999795,265.21222529999795,265.21222529999795,265.21222529999795,265.21222529999795,265.21222529999795,265.21222529999795,,007,P010,2025_Feb_01_1554,ConditionRich,2021.2.3,59.93374923454152,
224.75,228.0,41,0.0,Stimuli/Blank.png,0,0.0,0.0,0,98,98,98,,,,,,,,,,,,,224.7653771999976,0.015377199997601565,None,265.9629036999977,265.9629036999977,265.9629036999977,265.9629036999977,265.9629036999977,265.9629036999977,265.9629036999977,265.9629036999977,265.9629036999977,265.9629036999977,,007,P010,2025_Feb_01_1554,ConditionRich,2021.2.3,59.93374923454152,
228.0,228.75,11,0.75,Stimuli/P010/sun_bfyvfqiimvdaxlqn.jpg,0,0.0,0.0,0,99,99,99,,,,,,,,,,,,,228.0175309999977,0.017530999997688923,None,269.21578359999694,269.21578359999694,269.21578359999694,269.21578359999694,269.21578359999694,269.21578359999694,269.21578359999694,269.21578359999694,269.21578359999694,269.21578359999694,,007,P010,2025_Feb_01_1554,ConditionRich,2021.2.3,59.93374923454152,
228.75,232.0,41,0.0,Stimuli/Blank.png,0,0.0,0.0,0,100,100,100,,,,,,,,,,,,,228.76837539999906,0.018375399999058573,None,269.9497771999995,269.9497771999995,269.9497771999995,269.9497771999995,269.9497771999995,269.9497771999995,269.9497771999995,269.9497771999995,269.9497771999995,269.9497771999995,,007,P010,2025_Feb_01_1554,ConditionRich,2021.2.3,59.93374923454152,
232.0,232.75,9,0.75,Stimuli/P010/sun_bdjkvwqqqycuixtc.jpg,0,0.0,0.0,0,101,101,101,,,,,,,,,,,,,232.00530259999869,0.005302599998685764,None,273.20263539999723,273.20263539999723,273.20263539999723,273.20263539999723,273.20263539999723,273.20263539999723,273.20263539999723,273.20263539999723,273.20263539999723,273.20263539999723,,007,P010,2025_Feb_01_1554,ConditionRich,2021.2.3,59.93374923454152,
232.75,236.0,41,0.0,Stimuli/Blank.png,0,0.0,0.0,0,102,102,102,,,,,,,,,,,,,232.77069149999807,0.02069149999806541,None,273.95329409999977,273.95329409999977,273.95329409999977,273.95329409999977,273.95329409999977,273.95329409999977,273.95329409999977,273.95329409999977,273.95329409999977,273.95329409999977,,007,P010,2025_Feb_01_1554,ConditionRich,2021.2.3,59.93374923454152,
236.0,236.75,17,0.75,Stimuli/P010/sun_brkrfjpyfglmigkk.jpg,0,0.0,0.0,0,103,103,103,,,,,,,,,,,,,236.00695019999694,0.006950199996936135,None,277.20618609999656,277.20618609999656,277.20618609999656,277.20618609999656,277.20618609999656,277.20618609999656,277.20618609999656,277.20618609999656,277.20618609999656,277.20618609999656,,007,P010,2025_Feb_01_1554,ConditionRich,2021.2.3,59.93374923454152,
236.75,240.0,41,0.0,Stimuli/Blank.png,0,0.0,0.0,0,104,104,104,,,,,,,,,,,,,236.7747849999978,0.0247849999977916,None,277.9568360999983,277.9568360999983,277.9568360999983,277.9568360999983,277.9568360999983,277.9568360999983,277.9568360999983,277.9568360999983,277.9568360999983,277.9568360999983,,007,P010,2025_Feb_01_1554,ConditionRich,2021.2.3,59.93374923454152,
240.0,240.75,10,0.75,Stimuli/P010/sun_bdkttewvyfdarikm.jpg,0,0.0,0.0,0,105,105,105,,,,,,,,,,,,,240.01105209999878,0.01105209999877843,None,281.19302609999795,281.19302609999795,281.19302609999795,281.19302609999795,281.19302609999795,281.19302609999795,281.19302609999795,281.19302609999795,281.19302609999795,281.19302609999795,,007,P010,2025_Feb_01_1554,ConditionRich,2021.2.3,59.93374923454152,
240.75,244.0,41,0.0,Stimuli/Blank.png,0,0.0,0.0,0,106,106,106,,,,,,,,,,,,,240.7617098999981,0.011709899998095352,None,281.9436919,281.9436919,281.9436919,281.9436919,281.9436919,281.9436919,281.9436919,281.9436919,281.9436919,281.9436919,,007,P010,2025_Feb_01_1554,ConditionRich,2021.2.3,59.93374923454152,
244.0,244.75,26,0.75,Stimuli/P010/things_cookie_sheet_05s.jpg,0,0.0,0.0,0,107,107,107,,,,,,,,,,,,,244.01454979999835,0.014549799998349044,None,285.19656669999677,285.19656669999677,285.19656669999677,285.19656669999677,285.19656669999677,285.19656669999677,285.19656669999677,285.19656669999677,285.19656669999677,285.19656669999677,,007,P010,2025_Feb_01_1554,ConditionRich,2021.2.3,59.93374923454152,
244.75,248.0,41,0.0,Stimuli/Blank.png,1,2.25,3.0,0,108,108,108,,,,,,,,,,,,,244.76541179999913,0.015411799999128561,1,285.9639337999979,285.9639337999979,285.9639337999979,285.9639337999979,285.9639337999979,285.9639337999979,288.1825527999972,288.93319549999796,285.9639337999979,285.9639337999979,2.7197737999995297,007,P010,2025_Feb_01_1554,ConditionRich,2021.2.3,59.93374923454152,
248.0,248.75,8,0.75,Stimuli/P010/sun_batcnoizlkeiqdtx.jpg,0,0.0,0.0,0,109,109,109,,,,,,,,,,,,,248.02114639999854,0.02114639999854262,None,289.2168102999967,289.2168102999967,289.2168102999967,289.2168102999967,289.2168102999967,289.2168102999967,289.2168102999967,289.2168102999967,289.2168102999967,289.2168102999967,,007,P010,2025_Feb_01_1554,ConditionRich,2021.2.3,59.93374923454152,
248.75,252.0,41,0.0,Stimuli/Blank.png,0,0.0,0.0,0,110,110,110,,,,,,,,,,,,,248.77097899999717,0.020978999997169012,None,289.96746769999663,289.96746769999663,289.96746769999663,289.96746769999663,289.96746769999663,289.96746769999663,289.96746769999663,289.96746769999663,289.96746769999663,289.96746769999663,,007,P010,2025_Feb_01_1554,ConditionRich,2021.2.3,59.93374923454152,
252.0,252.75,21,0.75,Stimuli/P010/things_boy_05s.jpg,0,0.0,0.0,0,111,111,111,,,,,,,,,,,,,252.02173349999794,0.021733499997935724,None,293.20364999999947,293.20364999999947,293.20364999999947,293.20364999999947,293.20364999999947,293.20364999999947,293.20364999999947,293.20364999999947,293.20364999999947,293.20364999999947,,007,P010,2025_Feb_01_1554,ConditionRich,2021.2.3,59.93374923454152,
252.75,256.0,41,0.0,Stimuli/Blank.png,0,0.0,0.0,0,112,112,112,,,,,,,,,,,,,252.7555984999999,0.005598499999905471,None,293.93763599999875,293.93763599999875,293.93763599999875,293.93763599999875,293.93763599999875,293.93763599999875,293.93763599999875,293.93763599999875,293.93763599999875,293.93763599999875,,007,P010,2025_Feb_01_1554,ConditionRich,2021.2.3,59.93374923454152,
256.0,256.75,31,0.75,Stimuli/P010/things_girl_05s.jpg,0,0.0,0.0,0,113,113,113,,,,,,,,,,,,,256.0077702999988,0.007770299998810515,None,297.20720399999846,297.20720399999846,297.20720399999846,297.20720399999846,297.20720399999846,297.20720399999846,297.20720399999846,297.20720399999846,297.20720399999846,297.20720399999846,,007,P010,2025_Feb_01_1554,ConditionRich,2021.2.3,59.93374923454152,
256.75,260.0,41,0.0,Stimuli/Blank.png,0,0.0,0.0,0,114,114,114,,,,,,,,,,,,,256.77588130000004,0.0258813000000373,None,297.9578569999976,297.9578569999976,297.9578569999976,297.9578569999976,297.9578569999976,297.9578569999976,297.9578569999976,297.9578569999976,297.9578569999976,297.9578569999976,,007,P010,2025_Feb_01_1554,ConditionRich,2021.2.3,59.93374923454152,
260.0,260.75,6,0.75,Stimuli/P010/sun_amkrwcyvinmsylsz.jpg,0,0.0,0.0,0,115,115,115,,,,,,,,,,,,,260.01175729999886,0.011757299998862436,None,301.21073709999837,301.21073709999837,301.21073709999837,301.21073709999837,301.21073709999837,301.21073709999837,301.21073709999837,301.21073709999837,301.21073709999837,301.21073709999837,,007,P010,2025_Feb_01_1554,ConditionRich,2021.2.3,59.93374923454152,
260.75,264.0,41,0.0,Stimuli/Blank.png,0,0.0,0.0,0,116,116,116,,,,,,,,,,,,,260.7794095999998,0.029409599999780767,None,301.9614053999976,301.9614053999976,301.9614053999976,301.9614053999976,301.9614053999976,301.9614053999976,301.9614053999976,301.9614053999976,301.9614053999976,301.9614053999976,,007,P010,2025_Feb_01_1554,ConditionRich,2021.2.3,59.93374923454152,
264.0,264.75,15,0.75,Stimuli/P010/sun_boryivbddrnarrbo.jpg,0,0.0,0.0,0,117,117,117,,,,,,,,,,,,,264.0160055999986,0.016005599998607067,None,305.197589899999,305.197589899999,305.197589899999,305.197589899999,305.197589899999,305.197589899999,305.197589899999,305.197589899999,305.197589899999,305.197589899999,,007,P010,2025_Feb_01_1554,ConditionRich,2021.2.3,59.93374923454152,
264.75,268.0,41,0.0,Stimuli/Blank.png,0,0.0,0.0,0,118,118,118,,,,,,,,,,,,,264.748731599997,-0.0012684000030276366,None,305.9316359999975,305.9316359999975,305.9316359999975,305.9316359999975,305.9316359999975,305.9316359999975,305.9316359999975,305.9316359999975,305.9316359999975,305.9316359999975,,007,P010,2025_Feb_01_1554,ConditionRich,2021.2.3,59.93374923454152,
268.0,268.75,19,0.75,Stimuli/P010/sun_bwvfnogmotsvhofs.jpg,0,0.0,0.0,0,119,119,119,,,,,,,,,,,,,268.00171209999826,0.0017120999982580543,None,309.1844483999994,309.1844483999994,309.1844483999994,309.1844483999994,309.1844483999994,309.1844483999994,309.1844483999994,309.1844483999994,309.1844483999994,309.1844483999994,,007,P010,2025_Feb_01_1554,ConditionRich,2021.2.3,59.93374923454152,
268.75,272.0,41,0.0,Stimuli/Blank.png,1,1.25,2.0,0,120,120,120,,,,,,,,,,,,,268.75531769999725,0.005317699997249292,None,309.95181319999756,309.95181319999756,309.95181319999756,309.95181319999756,309.95181319999756,309.95181319999756,311.1862473000001,311.93696839999757,309.95181319999756,309.95181319999756,,007,P010,2025_Feb_01_1554,ConditionRich,2021.2.3,59.93374923454152,
272.0,272.75,29,0.75,Stimuli/P010/things_fingerprint_05s.jpg,0,0.0,0.0,0,121,121,121,,,,,,,,,,,,,272.0226494999988,0.022649499998806277,None,313.22134519999963,313.22134519999963,313.22134519999963,313.22134519999963,313.22134519999963,313.22134519999963,313.22134519999963,313.22134519999963,313.22134519999963,313.22134519999963,,007,P010,2025_Feb_01_1554,ConditionRich,2021.2.3,59.93374923454152,
272.75,276.0,41,0.0,Stimuli/Blank.png,0,0.0,0.0,0,122,122,122,,,,,,,,,,,,,272.7749965999974,0.024996599997393787,None,313.97202639999887,313.97202639999887,313.97202639999887,313.97202639999887,313.97202639999887,313.97202639999887,313.97202639999887,313.97202639999887,313.97202639999887,313.97202639999887,,007,P010,2025_Feb_01_1554,ConditionRich,2021.2.3,59.93374923454152,
276.0,292.0,0,0.0,Stimuli/Blank.png,1,4.0,4.75,0,123,123,123,,,,,,,,,,,,,276.026237099999,0.02623709999897983,1,317.2082212999994,317.2082212999994,317.2082212999994,317.2082212999994,317.2082212999994,317.2082212999994,321.19510789999913,321.94575899999836,317.2082212999994,317.2082212999994,4.370484300001408,007,P010,2025_Feb_01_1554,ConditionRich,2021.2.3,59.93374923454152,
292.0,292.75,32,0.75,Stimuli/P010/things_hawk_05s.jpg,1,0.0,0.75,0,124,124,124,,,,,,,,,,,,,292.00703319999957,0.007033199999568751,1,333.2057034999998,333.2057034999998,333.2057034999998,333.2057034999998,333.2057034999998,333.2057034999998,333.2057034999998,333.9230039999966,333.2057034999998,333.2057034999998,0.4040201000025263,007,P010,2025_Feb_01_1554,ConditionRich,2021.2.3,59.93374923454152,
292.75,296.0,41,0.0,Stimuli/Blank.png,0,0.0,0.0,0,125,125,125,,,,,,,,,,,,,292.7749793999974,0.024979399997391738,None,333.9730587999984,333.9730587999984,333.9730587999984,333.9730587999984,333.9730587999984,333.9730587999984,333.9730587999984,333.9730587999984,333.9730587999984,333.9730587999984,,007,P010,2025_Feb_01_1554,ConditionRich,2021.2.3,59.93374923454152,
296.0,296.75,28,0.75,Stimuli/P010/things_face_05s.jpg,0,0.0,0.0,0,126,126,126,,,,,,,,,,,,,296.02674359999946,0.026743599999463186,None,337.2259273999989,337.2259273999989,337.2259273999989,337.2259273999989,337.2259273999989,337.2259273999989,337.2259273999989,337.2259273999989,337.2259273999989,337.2259273999989,,007,P010,2025_Feb_01_1554,ConditionRich,2021.2.3,59.93374923454152,
296.75,300.0,41,0.0,Stimuli/Blank.png,0,0.0,0.0,0,127,127,127,,,,,,,,,,,,,296.7777270999977,0.02772709999771905,None,337.9599857999965,337.9599857999965,337.9599857999965,337.9599857999965,337.9599857999965,337.9599857999965,337.9599857999965,337.9599857999965,337.9599857999965,337.9599857999965,,007,P010,2025_Feb_01_1554,ConditionRich,2021.2.3,59.93374923454152,
300.0,300.75,34,0.75,Stimuli/P010/things_man_05s.jpg,0,0.0,0.0,0,128,128,128,,,,,,,,,,,,,300.0154107999988,0.015410799998790026,None,341.21278729999904,341.21278729999904,341.21278729999904,341.21278729999904,341.21278729999904,341.21278729999904,341.21278729999904,341.21278729999904,341.21278729999904,341.21278729999904,,007,P010,2025_Feb_01_1554,ConditionRich,2021.2.3,59.93374923454152,
300.75,304.0,41,0.0,Stimuli/Blank.png,0,0.0,0.0,0,129,129,129,,,,,,,,,,,,,300.7643422000001,0.014342200000101002,None,341.9467558999968,341.9467558999968,341.9467558999968,341.9467558999968,341.9467558999968,341.9467558999968,341.9467558999968,341.9467558999968,341.9467558999968,341.9467558999968,,007,P010,2025_Feb_01_1554,ConditionRich,2021.2.3,59.93374923454152,
304.0,304.75,3,0.75,Stimuli/P010/sun_aewgwsmvsgzleqhw.jpg,0,0.0,0.0,0,130,130,130,,,,,,,,,,,,,304.00096199999825,0.0009619999982533045,None,345.19966529999874,345.19966529999874,345.19966529999874,345.19966529999874,345.19966529999874,345.19966529999874,345.19966529999874,345.19966529999874,345.19966529999874,345.19966529999874,,007,P010,2025_Feb_01_1554,ConditionRich,2021.2.3,59.93374923454152,
304.75,308.0,41,0.0,Stimuli/Blank.png,0,0.0,0.0,0,131,131,131,,,,,,,,,,,,,304.76823779999904,0.01823779999904218,None,345.95031299999755,345.95031299999755,345.95031299999755,345.95031299999755,345.95031299999755,345.95031299999755,345.95031299999755,345.95031299999755,345.95031299999755,345.95031299999755,,007,P010,2025_Feb_01_1554,ConditionRich,2021.2.3,59.93374923454152,
308.0,308.75,4,0.75,Stimuli/P010/sun_afkzdukwewwzqtmr.jpg,1,0.0,0.75,0,132,132,132,,,,,,,,,,,,,308.00414439999804,0.004144399998040171,None,349.18649449999793,349.18649449999793,349.18649449999793,349.18649449999793,349.18649449999793,349.18649449999793,349.18649449999793,349.9204742999973,349.18649449999793,349.18649449999793,,007,P010,2025_Feb_01_1554,ConditionRich,2021.2.3,59.93374923454152,
308.75,312.0,41,0.0,Stimuli/Blank.png,0,0.0,0.0,0,133,133,133,,,,,,,,,,,,,308.7553721999975,0.005372199997509597,1,349.9371371999987,349.9371371999987,349.9371371999987,349.9371371999987,349.9371371999987,349.9371371999987,349.9371371999987,349.9371371999987,349.9371371999987,349.9371371999987,0.2975035999988904,007,P010,2025_Feb_01_1554,ConditionRich,2021.2.3,59.93374923454152,
312.0,312.75,24,0.75,Stimuli/P010/things_cigar_05n.jpg,0,0.0,0.0,0,134,134,134,,,,,,,,,,,,,312.00826179999785,0.008261799997853814,None,353.20671749999747,353.20671749999747,353.20671749999747,353.20671749999747,353.20671749999747,353.20671749999747,353.20671749999747,353.20671749999747,353.20671749999747,353.20671749999747,,007,P010,2025_Feb_01_1554,ConditionRich,2021.2.3,59.93374923454152,
312.75,316.0,41,0.0,Stimuli/Blank.png,0,0.0,0.0,0,135,135,135,,,,,,,,,,,,,312.7761627999971,0.026162799997109687,None,353.95739519999916,353.95739519999916,353.95739519999916,353.95739519999916,353.95739519999916,353.95739519999916,353.95739519999916,353.95739519999916,353.95739519999916,353.95739519999916,,007,P010,2025_Feb_01_1554,ConditionRich,2021.2.3,59.93374923454152,
316.0,316.75,2,0.75,Stimuli/P010/sun_acvloibbxiqpiwnv.jpg,0,0.0,0.0,0,136,136,136,,,,,,,,,,,,,316.0119395999973,0.011939599997276673,None,357.19357519999903,357.19357519999903,357.19357519999903,357.19357519999903,357.19357519999903,357.19357519999903,357.19357519999903,357.19357519999903,357.19357519999903,357.19357519999903,,007,P010,2025_Feb_01_1554,ConditionRich,2021.2.3,59.93374923454152,
316.75,320.0,41,0.0,Stimuli/Blank.png,0,0.0,0.0,0,137,137,137,,,,,,,,,,,,,316.76178829999844,0.011788299998443108,None,357.9442424999979,357.9442424999979,357.9442424999979,357.9442424999979,357.9442424999979,357.9442424999979,357.9442424999979,357.9442424999979,357.9442424999979,357.9442424999979,,007,P010,2025_Feb_01_1554,ConditionRich,2021.2.3,59.93374923454152,
320.0,320.75,18,0.75,Stimuli/P010/sun_bwjdahsxcqepqqbm.jpg,0,0.0,0.0,0,138,138,138,,,,,,,,,,,,,320.0157077999975,0.01570779999747174,None,361.2138320999984,361.2138320999984,361.2138320999984,361.2138320999984,361.2138320999984,361.2138320999984,361.2138320999984,361.2138320999984,361.2138320999984,361.2138320999984,,007,P010,2025_Feb_01_1554,ConditionRich,2021.2.3,59.93374923454152,
320.75,324.0,41,0.0,Stimuli/Blank.png,0,0.0,0.0,0,139,139,139,,,,,,,,,,,,,320.7650565999975,0.01505659999747877,None,361.94777749999776,361.94777749999776,361.94777749999776,361.94777749999776,361.94777749999776,361.94777749999776,361.94777749999776,361.94777749999776,361.94777749999776,361.94777749999776,,007,P010,2025_Feb_01_1554,ConditionRich,2021.2.3,59.93374923454152,
324.0,324.75,16,0.75,Stimuli/P010/sun_bqpyqljaflidcauh.jpg,0,0.0,0.0,0,140,140,140,,,,,,,,,,,,,324.00188960000014,0.00188960000014049,None,365.2006612999976,365.2006612999976,365.2006612999976,365.2006612999976,365.2006612999976,365.2006612999976,365.2006612999976,365.2006612999976,365.2006612999976,365.2006612999976,,007,P010,2025_Feb_01_1554,ConditionRich,2021.2.3,59.93374923454152,
324.75,328.0,41,0.0,Stimuli/Blank.png,0,0.0,0.0,0,141,141,141,,,,,,,,,,,,,324.76932899999883,0.01932899999883375,None,365.9513298999991,365.9513298999991,365.9513298999991,365.9513298999991,365.9513298999991,365.9513298999991,365.9513298999991,365.9513298999991,365.9513298999991,365.9513298999991,,007,P010,2025_Feb_01_1554,ConditionRich,2021.2.3,59.93374923454152,
328.0,328.75,20,0.75,Stimuli/P010/sun_ddsiwinthvyejghq.jpg,0,0.0,0.0,0,142,142,142,,,,,,,,,,,,,328.0055735999995,0.005573599999479484,None,369.20421559999886,369.20421559999886,369.20421559999886,369.20421559999886,369.20421559999886,369.20421559999886,369.20421559999886,369.20421559999886,369.20421559999886,369.20421559999886,,007,P010,2025_Feb_01_1554,ConditionRich,2021.2.3,59.93374923454152,
328.75,332.0,41,0.0,Stimuli/Blank.png,0,0.0,0.0,0,143,143,143,,,,,,,,,,,,,328.7750129999986,0.0250129999985802,None,369.97154539999974,369.97154539999974,369.97154539999974,369.97154539999974,369.97154539999974,369.97154539999974,369.97154539999974,369.97154539999974,369.97154539999974,369.97154539999974,,007,P010,2025_Feb_01_1554,ConditionRich,2021.2.3,59.93374923454152,
332.0,332.75,22,0.75,Stimuli/P010/things_butterfly_05s.jpg,0,0.0,0.0,0,144,144,144,,,,,,,,,,,,,332.02505419999943,0.025054199999431148,None,373.2077425999996,373.2077425999996,373.2077425999996,373.2077425999996,373.2077425999996,373.2077425999996,373.2077425999996,373.2077425999996,373.2077425999996,373.2077425999996,,007,P010,2025_Feb_01_1554,ConditionRich,2021.2.3,59.93374923454152,
332.75,336.0,41,0.0,Stimuli/Blank.png,0,0.0,0.0,0,145,145,145,,,,,,,,,,,,,332.75911389999965,0.009113899999647401,None,373.94172499999695,373.94172499999695,373.94172499999695,373.94172499999695,373.94172499999695,373.94172499999695,373.94172499999695,373.94172499999695,373.94172499999695,373.94172499999695,,007,P010,2025_Feb_01_1554,ConditionRich,2021.2.3,59.93374923454152,
336.0,336.75,37,0.75,Stimuli/P010/things_pug_05s.jpg,0,0.0,0.0,0,146,146,146,,,,,,,,,,,,,336.0118387000002,0.0118387000002258,None,377.19460059999983,377.19460059999983,377.19460059999983,377.19460059999983,377.19460059999983,377.19460059999983,377.19460059999983,377.19460059999983,377.19460059999983,377.19460059999983,,007,P010,2025_Feb_01_1554,ConditionRich,2021.2.3,59.93374923454152,
336.75,340.0,41,0.0,Stimuli/Blank.png,0,0.0,0.0,0,147,147,147,,,,,,,,,,,,,336.76538549999896,0.01538549999895622,None,377.96194879999894,377.96194879999894,377.96194879999894,377.96194879999894,377.96194879999894,377.96194879999894,377.96194879999894,377.96194879999894,377.96194879999894,377.96194879999894,,007,P010,2025_Feb_01_1554,ConditionRich,2021.2.3,59.93374923454152,
340.0,340.75,13,0.75,Stimuli/P010/sun_bjimvgwadfodioes.jpg,1,0.0,0.75,0,148,148,148,,,,,,,,,,,,,340.01554629999737,0.015546299997367896,1,381.1981453999979,381.1981453999979,381.1981453999979,381.1981453999979,381.1981453999979,381.1981453999979,381.1981453999979,None,381.1981453999979,381.1981453999979,0.4306025999976555,007,P010,2025_Feb_01_1554,ConditionRich,2021.2.3,59.93374923454152,
340.75,344.0,41,0.0,Stimuli/Blank.png,0,0.0,0.0,0,149,149,149,,,,,,,,,,,,,340.7502478999995,0.00024789999952190556,None,381.93212739999944,381.93212739999944,381.93212739999944,381.93212739999944,381.93212739999944,381.93212739999944,381.93212739999944,381.93212739999944,381.93212739999944,381.93212739999944,,007,P010,2025_Feb_01_1554,ConditionRich,2021.2.3,59.93374923454152,
344.0,344.75,23,0.75,Stimuli/P010/things_charger_05s.jpg,0,0.0,0.0,0,150,150,150,,,,,,,,,,,,,344.0023760999975,0.00237609999749111,None,385.20169939999687,385.20169939999687,385.20169939999687,385.20169939999687,385.20169939999687,385.20169939999687,385.20169939999687,385.20169939999687,385.20169939999687,385.20169939999687,,007,P010,2025_Feb_01_1554,ConditionRich,2021.2.3,59.93374923454152,
344.75,348.0,41,0.0,Stimuli/Blank.png,0,0.0,0.0,0,151,151,151,,,,,,,,,,,,,344.7712176999994,0.021217699999397155,None,385.95235109999703,385.95235109999703,385.95235109999703,385.95235109999703,385.95235109999703,385.95235109999703,385.95235109999703,385.95235109999703,385.95235109999703,385.95235109999703,,007,P010,2025_Feb_01_1554,ConditionRich,2021.2.3,59.93374923454152,
348.0,348.75,33,0.75,Stimuli/P010/things_lizard_05n.jpg,0,0.0,0.0,0,152,152,152,,,,,,,,,,,,,348.00602309999886,0.006023099998856196,None,389.18854250000004,389.18854250000004,389.18854250000004,389.18854250000004,389.18854250000004,389.18854250000004,389.18854250000004,389.18854250000004,389.18854250000004,389.18854250000004,,007,P010,2025_Feb_01_1554,ConditionRich,2021.2.3,59.93374923454152,
348.75,352.0,41,0.0,Stimuli/Blank.png,0,0.0,0.0,0,153,153,153,,,,,,,,,,,,,348.7572235999978,0.007223599997814745,None,389.93921169999885,389.93921169999885,389.93921169999885,389.93921169999885,389.93921169999885,389.93921169999885,389.93921169999885,389.93921169999885,389.93921169999885,389.93921169999885,,007,P010,2025_Feb_01_1554,ConditionRich,2021.2.3,59.93374923454152,
352.0,352.75,36,0.75,Stimuli/P010/things_pelican_05s.jpg,0,0.0,0.0,0,154,154,154,,,,,,,,,,,,,352.0099554999979,0.009955499997886363,None,393.2087638999983,393.2087638999983,393.2087638999983,393.2087638999983,393.2087638999983,393.2087638999983,393.2087638999983,393.2087638999983,393.2087638999983,393.2087638999983,,007,P010,2025_Feb_01_1554,ConditionRich,2021.2.3,59.93374923454152,
352.75,356.0,41,0.0,Stimuli/Blank.png,0,0.0,0.0,0,155,155,155,,,,,,,,,,,,,352.77732099999776,0.02732099999775528,None,393.95944849999796,393.95944849999796,393.95944849999796,393.95944849999796,393.95944849999796,393.95944849999796,393.95944849999796,393.95944849999796,393.95944849999796,393.95944849999796,,007,P010,2025_Feb_01_1554,ConditionRich,2021.2.3,59.93374923454152,
356.0,356.75,27,0.75,Stimuli/P010/things_curling_iron_05s.jpg,0,0.0,0.0,0,156,156,156,,,,,,,,,,,,,356.01521039999716,0.015210399997158675,None,397.21230699999796,397.21230699999796,397.21230699999796,397.21230699999796,397.21230699999796,397.21230699999796,397.21230699999796,397.21230699999796,397.21230699999796,397.21230699999796,,007,P010,2025_Feb_01_1554,ConditionRich,2021.2.3,59.93374923454152,
356.75,360.0,41,0.0,Stimuli/Blank.png,1,2.25,3.0,0,157,157,157,,,,,,,,,,,,,356.76628469999923,0.016284699999232544,1,397.96297649999906,397.96297649999906,397.96297649999906,397.96297649999906,397.96297649999906,397.96297649999906,400.1982709999975,400.94898699999976,397.96297649999906,397.96297649999906,2.6807355000019015,007,P010,2025_Feb_01_1554,ConditionRich,2021.2.3,59.93374923454152,
360.0,360.75,1,0.75,Stimuli/P010/sun_abqdlumenyzawlme.jpg,0,0.0,0.0,0,158,158,158,,,,,,,,,,,,,360.01717859999917,0.01717859999916982,None,401.1991646999995,401.1991646999995,401.1991646999995,401.1991646999995,401.1991646999995,401.1991646999995,401.1991646999995,401.1991646999995,401.1991646999995,401.1991646999995,,007,P010,2025_Feb_01_1554,ConditionRich,2021.2.3,59.93374923454152,
360.75,364.0,41,0.0,Stimuli/Blank.png,0,0.0,0.0,0,159,159,159,,,,,,,,,,,,,360.75103339999987,0.0010333999998692889,None,401.9331542999971,401.9331542999971,401.9331542999971,401.9331542999971,401.9331542999971,401.9331542999971,401.9331542999971,401.9331542999971,401.9331542999971,401.9331542999971,,007,P010,2025_Feb_01_1554,ConditionRich,2021.2.3,59.93374923454152,
364.0,364.75,7,0.75,Stimuli/P010/sun_apiogxmvvzfmtsmj.jpg,0,0.0,0.0,0,160,160,160,,,,,,,,,,,,,364.0052825999992,0.005282599999191007,None,405.2027122999971,405.2027122999971,405.2027122999971,405.2027122999971,405.2027122999971,405.2027122999971,405.2027122999971,405.2027122999971,405.2027122999971,405.2027122999971,,007,P010,2025_Feb_01_1554,ConditionRich,2021.2.3,59.93374923454152,
364.75,368.0,41,0.0,Stimuli/Blank.png,0,0.0,0.0,0,161,161,161,,,,,,,,,,,,,364.7711913999992,0.021191399999224814,None,405.95336779999707,405.95336779999707,405.95336779999707,405.95336779999707,405.95336779999707,405.95336779999707,405.95336779999707,405.95336779999707,405.95336779999707,405.95336779999707,,007,P010,2025_Feb_01_1554,ConditionRich,2021.2.3,59.93374923454152,
368.0,368.75,12,0.75,Stimuli/P010/sun_birmwgkdtrlevcaf.jpg,0,0.0,0.0,0,162,162,162,,,,,,,,,,,,,368.0074409999979,0.007440999997925246,None,409.2062531999982,409.2062531999982,409.2062531999982,409.2062531999982,409.2062531999982,409.2062531999982,409.2062531999982,409.2062531999982,409.2062531999982,409.2062531999982,,007,P010,2025_Feb_01_1554,ConditionRich,2021.2.3,59.93374923454152,
368.75,372.0,41,0.0,Stimuli/Blank.png,0,0.0,0.0,0,163,163,163,,,,,,,,,,,,,368.7757313999973,0.02573139999731211,None,409.9736148999982,409.9736148999982,409.9736148999982,409.9736148999982,409.9736148999982,409.9736148999982,409.9736148999982,409.9736148999982,409.9736148999982,409.9736148999982,,007,P010,2025_Feb_01_1554,ConditionRich,2021.2.3,59.93374923454152,
372.0,388.0,0,0.0,Stimuli/Blank.png,1,2.0,2.75,0,164,164,164,,,,,,,,,,,,,372.02733739999894,0.02733739999894169,1,413.20978999999716,413.20978999999716,413.20978999999716,413.20978999999716,413.20978999999716,413.20978999999716,415.1948725999973,415.9455772000001,413.20978999999716,413.20978999999716,2.342019599997002,007,P010,2025_Feb_01_1554,ConditionRich,2021.2.3,59.93374923454152,
