eventStartTime,eventEndTime,eventCond,imSize,imFile,responseEvent,fixRespStart,fixRespEnd,Events.thisRepN,Events.thisTrialN,Events.thisN,Events.thisIndex,Instructions.started,Instructions.stopped,participantReadyResponse.keys,participantReadyResponse.rt,participantReadyResponse.started,participantReadyResponse.stopped,startWaitforTrigger,triggerResponse.keys,triggerResponse.rt,triggerResponse.started,triggerResponse.stopped,globalTimer,actualStartTime,startTimingDiff,participantResponse.keys,participantResponse.started,participantResponse.stopped,image.started,image.stopped,fixationOutside.started,fixationOutside.stopped,fixationResponse.started,fixationResponse.stopped,fixationInside.started,fixationInside.stopped,participantResponse.rt,session,participant,date,expName,psychopyVersion,frameRate,
,,,,,,,,,,,,11.94167860000016,None,1,6.633150400000886,11.94167860000016,None,,,,,,,,,,,,,,,,,,,,,003,P010,2025_Feb_01_1514,ConditionRich,2021.2.3,59.948444338299105,
,,,,,,,,,,,,,,,,,,18.58603950000179,5,14.728356899999199,18.5994998999995,None,,,,,,,,,,,,,,,,003,P010,2025_Feb_01_1514,ConditionRich,2021.2.3,59.948444338299105,
0.0,4.0,0,0.0,Stimuli/Blank.png,0,0,0.0,0,0,0,0,,,,,,,,,,,,33.33348920000208,0.06242689999999129,0.06242689999999129,None,33.412807700002304,None,33.412807700002304,None,33.412807700002304,None,33.412807700002304,33.412807700002304,33.412807700002304,None,,003,P010,2025_Feb_01_1514,ConditionRich,2021.2.3,59.948444338299105,
4.0,4.75,38,0.75,Stimuli/P010/things_roadsweeper_05s.jpg,0,0,0.0,0,1,1,1,,,,,,,,,,,,,4.006278600001679,0.006278600001678569,None,37.366717799999606,37.366717799999606,37.366717799999606,37.366717799999606,37.366717799999606,37.366717799999606,37.366717799999606,37.366717799999606,37.366717799999606,37.366717799999606,,003,P010,2025_Feb_01_1514,ConditionRich,2021.2.3,59.948444338299105,
4.75,5.0,41,0.0,Stimuli/Blank.png,0,0,0.0,0,2,2,2,,,,,,,,,,,,,4.7689737000000605,0.01897370000006049,None,38.117533900000126,38.117533900000126,38.117533900000126,38.117533900000126,38.117533900000126,38.117533900000126,38.117533900000126,38.117533900000126,38.117533900000126,38.117533900000126,,003,P010,2025_Feb_01_1514,ConditionRich,2021.2.3,59.948444338299105,
5.0,5.75,38,0.75,Stimuli/P010/things_roadsweeper_05s.jpg,0,0,0.0,0,3,3,3,,,,,,,,,,,,,5.003093400002399,0.003093400002398994,None,38.350513800000044,38.350513800000044,38.350513800000044,38.350513800000044,38.350513800000044,38.350513800000044,38.350513800000044,38.350513800000044,38.350513800000044,38.350513800000044,,003,P010,2025_Feb_01_1514,ConditionRich,2021.2.3,59.948444338299105,
5.75,6.0,41,0.0,Stimuli/Blank.png,0,0,0.0,0,4,4,4,,,,,,,,,,,,,5.753336100002343,0.0033361000023433007,None,39.10118270000021,39.10118270000021,39.10118270000021,39.10118270000021,39.10118270000021,39.10118270000021,39.10118270000021,39.10118270000021,39.10118270000021,39.10118270000021,,003,P010,2025_Feb_01_1514,ConditionRich,2021.2.3,59.948444338299105,
6.0,6.75,38,0.75,Stimuli/P010/things_roadsweeper_05s.jpg,0,0,0.0,0,5,5,5,,,,,,,,,,,,,6.004012400000647,0.004012400000647176,None,39.35140160000083,39.35140160000083,39.35140160000083,39.35140160000083,39.35140160000083,39.35140160000083,39.35140160000083,39.35140160000083,39.35140160000083,39.35140160000083,,003,P010,2025_Feb_01_1514,ConditionRich,2021.2.3,59.948444338299105,
6.75,7.0,41,0.0,Stimuli/Blank.png,0,0,0.0,0,6,6,6,,,,,,,,,,,,,6.756766900001821,0.006766900001821341,None,40.118749900000694,40.118749900000694,40.118749900000694,40.118749900000694,40.118749900000694,40.118749900000694,40.118749900000694,40.118749900000694,40.118749900000694,40.118749900000694,,003,P010,2025_Feb_01_1514,ConditionRich,2021.2.3,59.948444338299105,
7.0,7.75,38,0.75,Stimuli/P010/things_roadsweeper_05s.jpg,0,0,0.0,0,7,7,7,,,,,,,,,,,,,7.0214999000018,0.021499900001799688,None,40.3856166000005,40.3856166000005,40.3856166000005,40.3856166000005,40.3856166000005,40.3856166000005,40.3856166000005,40.3856166000005,40.3856166000005,40.3856166000005,,003,P010,2025_Feb_01_1514,ConditionRich,2021.2.3,59.948444338299105,
7.75,8.0,41,0.0,Stimuli/Blank.png,0,0,0.0,0,8,8,8,,,,,,,,,,,,,7.772626400001172,0.022626400001172442,None,41.119636999999784,41.119636999999784,41.119636999999784,41.119636999999784,41.119636999999784,41.119636999999784,41.119636999999784,41.119636999999784,41.119636999999784,41.119636999999784,,003,P010,2025_Feb_01_1514,ConditionRich,2021.2.3,59.948444338299105,
8.0,8.75,21,0.75,Stimuli/P010/things_boy_05s.jpg,0,0,0.0,0,9,9,9,,,,,,,,,,,,,8.005000500001188,0.005000500001187902,None,41.36986710000201,41.36986710000201,41.36986710000201,41.36986710000201,41.36986710000201,41.36986710000201,41.36986710000201,41.36986710000201,41.36986710000201,41.36986710000201,,003,P010,2025_Feb_01_1514,ConditionRich,2021.2.3,59.948444338299105,
8.75,9.0,41,0.0,Stimuli/Blank.png,0,0,0.0,0,10,10,10,,,,,,,,,,,,,8.773925900000904,0.02392590000090422,None,42.137203500002215,42.137203500002215,42.137203500002215,42.137203500002215,42.137203500002215,42.137203500002215,42.137203500002215,42.137203500002215,42.137203500002215,42.137203500002215,,003,P010,2025_Feb_01_1514,ConditionRich,2021.2.3,59.948444338299105,
9.0,9.75,21,0.75,Stimuli/P010/things_boy_05s.jpg,0,0,0.0,0,11,11,11,,,,,,,,,,,,,9.022897200000443,0.022897200000443263,None,42.370741999999154,42.370741999999154,42.370741999999154,42.370741999999154,42.370741999999154,42.370741999999154,42.370741999999154,42.370741999999154,42.370741999999154,42.370741999999154,,003,P010,2025_Feb_01_1514,ConditionRich,2021.2.3,59.948444338299105,
9.75,10.0,41,0.0,Stimuli/Blank.png,0,0,0.0,0,12,12,12,,,,,,,,,,,,,9.75789100000111,0.007891000001109205,None,43.104735200002324,43.104735200002324,43.104735200002324,43.104735200002324,43.104735200002324,43.104735200002324,43.104735200002324,43.104735200002324,43.104735200002324,43.104735200002324,,003,P010,2025_Feb_01_1514,ConditionRich,2021.2.3,59.948444338299105,
10.0,10.75,21,0.75,Stimuli/P010/things_boy_05s.jpg,0,0,0.0,0,13,13,13,,,,,,,,,,,,,10.007652500000404,0.007652500000403961,None,43.35490729999947,43.35490729999947,43.35490729999947,43.35490729999947,43.35490729999947,43.35490729999947,43.35490729999947,43.35490729999947,43.35490729999947,43.35490729999947,,003,P010,2025_Feb_01_1514,ConditionRich,2021.2.3,59.948444338299105,
10.75,11.0,41,0.0,Stimuli/Blank.png,0,0,0.0,0,14,14,14,,,,,,,,,,,,,10.757671700001083,0.007671700001083082,None,44.10560380000243,44.10560380000243,44.10560380000243,44.10560380000243,44.10560380000243,44.10560380000243,44.10560380000243,44.10560380000243,44.10560380000243,44.10560380000243,,003,P010,2025_Feb_01_1514,ConditionRich,2021.2.3,59.948444338299105,
11.0,11.75,21,0.75,Stimuli/P010/things_boy_05s.jpg,0,0,0.0,0,15,15,15,,,,,,,,,,,,,11.007710400001088,0.007710400001087692,None,44.3558266,44.3558266,44.3558266,44.3558266,44.3558266,44.3558266,44.3558266,44.3558266,44.3558266,44.3558266,,003,P010,2025_Feb_01_1514,ConditionRich,2021.2.3,59.948444338299105,
11.75,12.0,41,0.0,Stimuli/Blank.png,0,0,0.0,0,16,16,16,,,,,,,,,,,,,11.758424900002865,0.008424900002864888,None,45.10649000000194,45.10649000000194,45.10649000000194,45.10649000000194,45.10649000000194,45.10649000000194,45.10649000000194,45.10649000000194,45.10649000000194,45.10649000000194,,003,P010,2025_Feb_01_1514,ConditionRich,2021.2.3,59.948444338299105,
12.0,12.75,9,0.75,Stimuli/P010/sun_bdjkvwqqqycuixtc.jpg,0,0,0.0,0,17,17,17,,,,,,,,,,,,,12.009906000002957,0.009906000002956716,None,45.3734097000015,45.3734097000015,45.3734097000015,45.3734097000015,45.3734097000015,45.3734097000015,45.3734097000015,45.3734097000015,45.3734097000015,45.3734097000015,,003,P010,2025_Feb_01_1514,ConditionRich,2021.2.3,59.948444338299105,
12.75,13.0,41,0.0,Stimuli/Blank.png,0,0,0.0,0,18,18,18,,,,,,,,,,,,,12.77799690000029,0.027996900000289315,None,46.14077720000205,46.14077720000205,46.14077720000205,46.14077720000205,46.14077720000205,46.14077720000205,46.14077720000205,46.14077720000205,46.14077720000205,46.14077720000205,,003,P010,2025_Feb_01_1514,ConditionRich,2021.2.3,59.948444338299105,
13.0,13.75,9,0.75,Stimuli/P010/sun_bdjkvwqqqycuixtc.jpg,0,0,0.0,0,19,19,19,,,,,,,,,,,,,13.02638620000289,0.02638620000288938,None,46.374389799999335,46.374389799999335,46.374389799999335,46.374389799999335,46.374389799999335,46.374389799999335,46.374389799999335,46.374389799999335,46.374389799999335,46.374389799999335,,003,P010,2025_Feb_01_1514,ConditionRich,2021.2.3,59.948444338299105,
13.75,14.0,41,0.0,Stimuli/Blank.png,0,0,0.0,0,20,20,20,,,,,,,,,,,,,13.763711800002056,0.013711800002056407,None,47.125023799999326,47.125023799999326,47.125023799999326,47.125023799999326,47.125023799999326,47.125023799999326,47.125023799999326,47.125023799999326,47.125023799999326,47.125023799999326,,003,P010,2025_Feb_01_1514,ConditionRich,2021.2.3,59.948444338299105,
14.0,14.75,9,0.75,Stimuli/P010/sun_bdjkvwqqqycuixtc.jpg,0,0,0.0,0,21,21,21,,,,,,,,,,,,,14.027217000002565,0.027217000002565328,None,47.37516400000095,47.37516400000095,47.37516400000095,47.37516400000095,47.37516400000095,47.37516400000095,47.37516400000095,47.37516400000095,47.37516400000095,47.37516400000095,,003,P010,2025_Feb_01_1514,ConditionRich,2021.2.3,59.948444338299105,
14.75,15.0,41,0.0,Stimuli/Blank.png,0,0,0.0,0,22,22,22,,,,,,,,,,,,,14.761344200000167,0.011344200000166893,None,48.10915600000226,48.10915600000226,48.10915600000226,48.10915600000226,48.10915600000226,48.10915600000226,48.10915600000226,48.10915600000226,48.10915600000226,48.10915600000226,,003,P010,2025_Feb_01_1514,ConditionRich,2021.2.3,59.948444338299105,
15.0,15.75,9,0.75,Stimuli/P010/sun_bdjkvwqqqycuixtc.jpg,0,0,0.0,0,23,23,23,,,,,,,,,,,,,15.01351600000271,0.013516000002709916,None,48.37610330000098,48.37610330000098,48.37610330000098,48.37610330000098,48.37610330000098,48.37610330000098,48.37610330000098,48.37610330000098,48.37610330000098,48.37610330000098,,003,P010,2025_Feb_01_1514,ConditionRich,2021.2.3,59.948444338299105,
15.75,16.0,41,0.0,Stimuli/Blank.png,0,0,0.0,0,24,24,24,,,,,,,,,,,,,15.77871530000266,0.028715300002659205,None,49.126717900002404,49.126717900002404,49.126717900002404,49.126717900002404,49.126717900002404,49.126717900002404,49.126717900002404,49.126717900002404,49.126717900002404,49.126717900002404,,003,P010,2025_Feb_01_1514,ConditionRich,2021.2.3,59.948444338299105,
16.0,16.75,1,0.75,Stimuli/P010/sun_abqdlumenyzawlme.jpg,0,0,0.0,0,25,25,25,,,,,,,,,,,,,16.012543200002256,0.012543200002255617,None,49.36025680000239,49.36025680000239,49.36025680000239,49.36025680000239,49.36025680000239,49.36025680000239,49.36025680000239,49.36025680000239,49.36025680000239,49.36025680000239,,003,P010,2025_Feb_01_1514,ConditionRich,2021.2.3,59.948444338299105,
16.75,17.0,41,0.0,Stimuli/Blank.png,0,0,0.0,0,26,26,26,,,,,,,,,,,,,16.763261600000988,0.013261600000987528,None,50.11092389999976,50.11092389999976,50.11092389999976,50.11092389999976,50.11092389999976,50.11092389999976,50.11092389999976,50.11092389999976,50.11092389999976,50.11092389999976,,003,P010,2025_Feb_01_1514,ConditionRich,2021.2.3,59.948444338299105,
17.0,17.75,1,0.75,Stimuli/P010/sun_abqdlumenyzawlme.jpg,1,0,0.75,0,27,27,27,,,,,,,,,,,,,17.013608500001283,0.013608500001282664,1,50.36114119999911,50.36114119999911,50.36114119999911,50.36114119999911,50.36114119999911,50.36114119999911,50.36114119999911,51.09512760000143,50.36114119999911,50.36114119999911,0.39415879999796744,003,P010,2025_Feb_01_1514,ConditionRich,2021.2.3,59.948444338299105,
17.75,18.0,41,0.0,Stimuli/Blank.png,0,0,0.0,0,28,28,28,,,,,,,,,,,,,17.764614700001403,0.014614700001402525,None,51.111902000000555,51.111902000000555,51.111902000000555,51.111902000000555,51.111902000000555,51.111902000000555,51.111902000000555,51.111902000000555,51.111902000000555,51.111902000000555,,003,P010,2025_Feb_01_1514,ConditionRich,2021.2.3,59.948444338299105,
18.0,18.75,1,0.75,Stimuli/P010/sun_abqdlumenyzawlme.jpg,0,0,0.0,0,29,29,29,,,,,,,,,,,,,18.01517420000164,0.015174200001638383,None,51.36203350000142,51.36203350000142,51.36203350000142,51.36203350000142,51.36203350000142,51.36203350000142,51.36203350000142,51.36203350000142,51.36203350000142,51.36203350000142,,003,P010,2025_Feb_01_1514,ConditionRich,2021.2.3,59.948444338299105,
18.75,19.0,41,0.0,Stimuli/Blank.png,0,0,0.0,0,30,30,30,,,,,,,,,,,,,18.74865940000018,-0.0013405999998212792,None,52.096022800000355,52.096022800000355,52.096022800000355,52.096022800000355,52.096022800000355,52.096022800000355,52.096022800000355,52.096022800000355,52.096022800000355,52.096022800000355,,003,P010,2025_Feb_01_1514,ConditionRich,2021.2.3,59.948444338299105,
19.0,19.75,1,0.75,Stimuli/P010/sun_abqdlumenyzawlme.jpg,0,0,0.0,0,31,31,31,,,,,,,,,,,,,19.016858500002854,0.01685850000285427,None,52.37960650000241,52.37960650000241,52.37960650000241,52.37960650000241,52.37960650000241,52.37960650000241,52.37960650000241,52.37960650000241,52.37960650000241,52.37960650000241,,003,P010,2025_Feb_01_1514,ConditionRich,2021.2.3,59.948444338299105,
19.75,20.0,41,0.0,Stimuli/Blank.png,0,0,0.0,0,32,32,32,,,,,,,,,,,,,19.765385100003186,0.01538510000318638,None,53.11363329999949,53.11363329999949,53.11363329999949,53.11363329999949,53.11363329999949,53.11363329999949,53.11363329999949,53.11363329999949,53.11363329999949,53.11363329999949,,003,P010,2025_Feb_01_1514,ConditionRich,2021.2.3,59.948444338299105,
20.0,20.75,6,0.75,Stimuli/P010/sun_amkrwcyvinmsylsz.jpg,0,0,0.0,0,33,33,33,,,,,,,,,,,,,20.01581360000273,0.0158136000027298,None,53.36380750000171,53.36380750000171,53.36380750000171,53.36380750000171,53.36380750000171,53.36380750000171,53.36380750000171,53.36380750000171,53.36380750000171,53.36380750000171,,003,P010,2025_Feb_01_1514,ConditionRich,2021.2.3,59.948444338299105,
20.75,21.0,41,0.0,Stimuli/Blank.png,0,0,0.0,0,34,34,34,,,,,,,,,,,,,20.751893600001495,0.001893600001494633,None,54.11449970000103,54.11449970000103,54.11449970000103,54.11449970000103,54.11449970000103,54.11449970000103,54.11449970000103,54.11449970000103,54.11449970000103,54.11449970000103,,003,P010,2025_Feb_01_1514,ConditionRich,2021.2.3,59.948444338299105,
21.0,21.75,6,0.75,Stimuli/P010/sun_amkrwcyvinmsylsz.jpg,0,0,0.0,0,35,35,35,,,,,,,,,,,,,21.01658590000079,0.016585900000791298,None,54.364685100001225,54.364685100001225,54.364685100001225,54.364685100001225,54.364685100001225,54.364685100001225,54.364685100001225,54.364685100001225,54.364685100001225,54.364685100001225,,003,P010,2025_Feb_01_1514,ConditionRich,2021.2.3,59.948444338299105,
21.75,22.0,41,0.0,Stimuli/Blank.png,0,0,0.0,0,36,36,36,,,,,,,,,,,,,21.752573900001153,0.0025739000011526514,None,55.11536899999919,55.11536899999919,55.11536899999919,55.11536899999919,55.11536899999919,55.11536899999919,55.11536899999919,55.11536899999919,55.11536899999919,55.11536899999919,,003,P010,2025_Feb_01_1514,ConditionRich,2021.2.3,59.948444338299105,
22.0,22.75,6,0.75,Stimuli/P010/sun_amkrwcyvinmsylsz.jpg,1,0,0.75,0,37,37,37,,,,,,,,,,,,,22.017928100001882,0.01792810000188183,1,55.36558359999981,55.36558359999981,55.36558359999981,55.36558359999981,55.36558359999981,55.36558359999981,55.36558359999981,None,55.36558359999981,55.36558359999981,0.4272932000021683,003,P010,2025_Feb_01_1514,ConditionRich,2021.2.3,59.948444338299105,
22.75,23.0,41,0.0,Stimuli/Blank.png,0,0,0.0,0,38,38,38,,,,,,,,,,,,,22.752502900002582,0.0025029000025824644,None,56.099555700002384,56.099555700002384,56.099555700002384,56.099555700002384,56.099555700002384,56.099555700002384,56.099555700002384,56.099555700002384,56.099555700002384,56.099555700002384,,003,P010,2025_Feb_01_1514,ConditionRich,2021.2.3,59.948444338299105,
23.0,23.75,6,0.75,Stimuli/P010/sun_amkrwcyvinmsylsz.jpg,0,0,0.0,0,39,39,39,,,,,,,,,,,,,23.002346600002056,0.0023466000020562205,None,56.36649020000186,56.36649020000186,56.36649020000186,56.36649020000186,56.36649020000186,56.36649020000186,56.36649020000186,56.36649020000186,56.36649020000186,56.36649020000186,,003,P010,2025_Feb_01_1514,ConditionRich,2021.2.3,59.948444338299105,
23.75,24.0,41,0.0,Stimuli/Blank.png,0,0,0.0,0,40,40,40,,,,,,,,,,,,,23.769839200002025,0.01983920000202488,None,57.117137000001094,57.117137000001094,57.117137000001094,57.117137000001094,57.117137000001094,57.117137000001094,57.117137000001094,57.117137000001094,57.117137000001094,57.117137000001094,,003,P010,2025_Feb_01_1514,ConditionRich,2021.2.3,59.948444338299105,
24.0,24.75,40,0.75,Stimuli/P010/things_woman_05s.jpg,1,0,0.75,0,41,41,41,,,,,,,,,,,,,24.003213400003006,0.0032134000030055176,1,57.35062970000217,57.35062970000217,57.35062970000217,57.35062970000217,57.35062970000217,57.35062970000217,57.35062970000217,58.084644700000354,57.35062970000217,57.35062970000217,0.6263149000005797,003,P010,2025_Feb_01_1514,ConditionRich,2021.2.3,59.948444338299105,
24.75,25.0,41,0.0,Stimuli/Blank.png,0,0,0.0,0,42,42,42,,,,,,,,,,,,,24.75325470000098,0.0032547000009799376,None,58.10132850000082,58.10132850000082,58.10132850000082,58.10132850000082,58.10132850000082,58.10132850000082,58.10132850000082,58.10132850000082,58.10132850000082,58.10132850000082,,003,P010,2025_Feb_01_1514,ConditionRich,2021.2.3,59.948444338299105,
25.0,25.75,40,0.75,Stimuli/P010/things_woman_05s.jpg,0,0,0.0,0,43,43,43,,,,,,,,,,,,,25.004152100002102,0.004152100002102088,None,58.35154700000203,58.35154700000203,58.35154700000203,58.35154700000203,58.35154700000203,58.35154700000203,58.35154700000203,58.35154700000203,58.35154700000203,58.35154700000203,,003,P010,2025_Feb_01_1514,ConditionRich,2021.2.3,59.948444338299105,
25.75,26.0,41,0.0,Stimuli/Blank.png,0,0,0.0,0,44,44,44,,,,,,,,,,,,,25.757021800000075,0.007021800000075018,None,59.11890889999995,59.11890889999995,59.11890889999995,59.11890889999995,59.11890889999995,59.11890889999995,59.11890889999995,59.11890889999995,59.11890889999995,59.11890889999995,,003,P010,2025_Feb_01_1514,ConditionRich,2021.2.3,59.948444338299105,
26.0,26.75,40,0.75,Stimuli/P010/things_woman_05s.jpg,0,0,0.0,0,45,45,45,,,,,,,,,,,,,26.021607100003166,0.021607100003166124,None,59.36911970000074,59.36911970000074,59.36911970000074,59.36911970000074,59.36911970000074,59.36911970000074,59.36911970000074,59.36911970000074,59.36911970000074,59.36911970000074,,003,P010,2025_Feb_01_1514,ConditionRich,2021.2.3,59.948444338299105,
26.75,27.0,41,0.0,Stimuli/Blank.png,0,0,0.0,0,46,46,46,,,,,,,,,,,,,26.757212500000605,0.00721250000060536,None,60.119791900000564,60.119791900000564,60.119791900000564,60.119791900000564,60.119791900000564,60.119791900000564,60.119791900000564,60.119791900000564,60.119791900000564,60.119791900000564,,003,P010,2025_Feb_01_1514,ConditionRich,2021.2.3,59.948444338299105,
27.0,27.75,40,0.75,Stimuli/P010/things_woman_05s.jpg,0,0,0.0,0,47,47,47,,,,,,,,,,,,,27.02343490000203,0.02343490000203019,None,60.386698199999955,60.386698199999955,60.386698199999955,60.386698199999955,60.386698199999955,60.386698199999955,60.386698199999955,60.386698199999955,60.386698199999955,60.386698199999955,,003,P010,2025_Feb_01_1514,ConditionRich,2021.2.3,59.948444338299105,
27.75,28.0,41,0.0,Stimuli/Blank.png,0,0,0.0,0,48,48,48,,,,,,,,,,,,,27.772970300000452,0.02297030000045197,None,61.12066760000016,61.12066760000016,61.12066760000016,61.12066760000016,61.12066760000016,61.12066760000016,61.12066760000016,61.12066760000016,61.12066760000016,61.12066760000016,,003,P010,2025_Feb_01_1514,ConditionRich,2021.2.3,59.948444338299105,
28.0,28.75,15,0.75,Stimuli/P010/sun_boryivbddrnarrbo.jpg,0,0,0.0,0,49,49,49,,,,,,,,,,,,,28.00624140000218,0.006241400002181763,None,61.354175500000565,61.354175500000565,61.354175500000565,61.354175500000565,61.354175500000565,61.354175500000565,61.354175500000565,61.354175500000565,61.354175500000565,61.354175500000565,,003,P010,2025_Feb_01_1514,ConditionRich,2021.2.3,59.948444338299105,
28.75,29.0,41,0.0,Stimuli/Blank.png,0,0,0.0,0,50,50,50,,,,,,,,,,,,,28.75772500000312,0.007725000003119931,None,62.10487859999921,62.10487859999921,62.10487859999921,62.10487859999921,62.10487859999921,62.10487859999921,62.10487859999921,62.10487859999921,62.10487859999921,62.10487859999921,,003,P010,2025_Feb_01_1514,ConditionRich,2021.2.3,59.948444338299105,
29.0,29.75,15,0.75,Stimuli/P010/sun_boryivbddrnarrbo.jpg,0,0,0.0,0,51,51,51,,,,,,,,,,,,,29.007931400003145,0.007931400003144518,None,62.355100500000844,62.355100500000844,62.355100500000844,62.355100500000844,62.355100500000844,62.355100500000844,62.355100500000844,62.355100500000844,62.355100500000844,62.355100500000844,,003,P010,2025_Feb_01_1514,ConditionRich,2021.2.3,59.948444338299105,
29.75,30.0,41,0.0,Stimuli/Blank.png,0,0,0.0,0,52,52,52,,,,,,,,,,,,,29.757741900000838,0.0077419000008376315,None,63.10575719999906,63.10575719999906,63.10575719999906,63.10575719999906,63.10575719999906,63.10575719999906,63.10575719999906,63.10575719999906,63.10575719999906,63.10575719999906,,003,P010,2025_Feb_01_1514,ConditionRich,2021.2.3,59.948444338299105,
30.0,30.75,15,0.75,Stimuli/P010/sun_boryivbddrnarrbo.jpg,0,0,0.0,0,53,53,53,,,,,,,,,,,,,30.007944700002554,0.007944700002553873,None,63.35598179999943,63.35598179999943,63.35598179999943,63.35598179999943,63.35598179999943,63.35598179999943,63.35598179999943,63.35598179999943,63.35598179999943,63.35598179999943,,003,P010,2025_Feb_01_1514,ConditionRich,2021.2.3,59.948444338299105,
30.75,31.0,41,0.0,Stimuli/Blank.png,0,0,0.0,0,54,54,54,,,,,,,,,,,,,30.758496500002366,0.008496500002365792,None,64.1066439999995,64.1066439999995,64.1066439999995,64.1066439999995,64.1066439999995,64.1066439999995,64.1066439999995,64.1066439999995,64.1066439999995,64.1066439999995,,003,P010,2025_Feb_01_1514,ConditionRich,2021.2.3,59.948444338299105,
31.0,31.75,15,0.75,Stimuli/P010/sun_boryivbddrnarrbo.jpg,0,0,0.0,0,55,55,55,,,,,,,,,,,,,31.012237200000527,0.012237200000527082,None,64.37366100000145,64.37366100000145,64.37366100000145,64.37366100000145,64.37366100000145,64.37366100000145,64.37366100000145,64.37366100000145,64.37366100000145,64.37366100000145,,003,P010,2025_Feb_01_1514,ConditionRich,2021.2.3,59.948444338299105,
31.75,32.0,41,0.0,Stimuli/Blank.png,0,0,0.0,0,56,56,56,,,,,,,,,,,,,31.77756650000083,0.027566500000830274,None,65.12421299999914,65.12421299999914,65.12421299999914,65.12421299999914,65.12421299999914,65.12421299999914,65.12421299999914,65.12421299999914,65.12421299999914,65.12421299999914,,003,P010,2025_Feb_01_1514,ConditionRich,2021.2.3,59.948444338299105,
32.0,32.75,3,0.75,Stimuli/P010/sun_aewgwsmvsgzleqhw.jpg,0,0,0.0,0,57,57,57,,,,,,,,,,,,,32.01000240000212,0.010002400002122158,None,65.35775009999998,65.35775009999998,65.35775009999998,65.35775009999998,65.35775009999998,65.35775009999998,65.35775009999998,65.35775009999998,65.35775009999998,65.35775009999998,,003,P010,2025_Feb_01_1514,ConditionRich,2021.2.3,59.948444338299105,
32.75,33.0,41,0.0,Stimuli/Blank.png,0,0,0.0,0,58,58,58,,,,,,,,,,,,,32.76301560000138,0.013015600001381245,None,66.12510640000255,66.12510640000255,66.12510640000255,66.12510640000255,66.12510640000255,66.12510640000255,66.12510640000255,66.12510640000255,66.12510640000255,66.12510640000255,,003,P010,2025_Feb_01_1514,ConditionRich,2021.2.3,59.948444338299105,
33.0,33.75,3,0.75,Stimuli/P010/sun_aewgwsmvsgzleqhw.jpg,0,0,0.0,0,59,59,59,,,,,,,,,,,,,33.02779569999984,0.027795699999842327,None,66.3920446000011,66.3920446000011,66.3920446000011,66.3920446000011,66.3920446000011,66.3920446000011,66.3920446000011,66.3920446000011,66.3920446000011,66.3920446000011,,003,P010,2025_Feb_01_1514,ConditionRich,2021.2.3,59.948444338299105,
33.75,34.0,41,0.0,Stimuli/Blank.png,0,0,0.0,0,60,60,60,,,,,,,,,,,,,33.7778341000012,0.027834100001200568,None,67.12598160000198,67.12598160000198,67.12598160000198,67.12598160000198,67.12598160000198,67.12598160000198,67.12598160000198,67.12598160000198,67.12598160000198,67.12598160000198,,003,P010,2025_Feb_01_1514,ConditionRich,2021.2.3,59.948444338299105,
34.0,34.75,3,0.75,Stimuli/P010/sun_aewgwsmvsgzleqhw.jpg,0,0,0.0,0,61,61,61,,,,,,,,,,,,,34.01221060000171,0.012210600001708372,None,67.35952340000222,67.35952340000222,67.35952340000222,67.35952340000222,67.35952340000222,67.35952340000222,67.35952340000222,67.35952340000222,67.35952340000222,67.35952340000222,,003,P010,2025_Feb_01_1514,ConditionRich,2021.2.3,59.948444338299105,
34.75,35.0,41,0.0,Stimuli/Blank.png,0,0,0.0,0,62,62,62,,,,,,,,,,,,,34.763425400000415,0.013425400000414811,None,68.11020560000179,68.11020560000179,68.11020560000179,68.11020560000179,68.11020560000179,68.11020560000179,68.11020560000179,68.11020560000179,68.11020560000179,68.11020560000179,,003,P010,2025_Feb_01_1514,ConditionRich,2021.2.3,59.948444338299105,
35.0,35.75,3,0.75,Stimuli/P010/sun_aewgwsmvsgzleqhw.jpg,0,0,0.0,0,63,63,63,,,,,,,,,,,,,35.01229250000324,0.012292500003241003,None,68.36040890000004,68.36040890000004,68.36040890000004,68.36040890000004,68.36040890000004,68.36040890000004,68.36040890000004,68.36040890000004,68.36040890000004,68.36040890000004,,003,P010,2025_Feb_01_1514,ConditionRich,2021.2.3,59.948444338299105,
35.75,36.0,41,0.0,Stimuli/Blank.png,0,0,0.0,0,64,64,64,,,,,,,,,,,,,35.76348060000237,0.013480600002367282,None,69.11107550000088,69.11107550000088,69.11107550000088,69.11107550000088,69.11107550000088,69.11107550000088,69.11107550000088,69.11107550000088,69.11107550000088,69.11107550000088,,003,P010,2025_Feb_01_1514,ConditionRich,2021.2.3,59.948444338299105,
36.0,36.75,28,0.75,Stimuli/P010/things_face_05s.jpg,0,0,0.0,0,65,65,65,,,,,,,,,,,,,36.01319340000191,0.01319340000191005,None,69.36129749999964,69.36129749999964,69.36129749999964,69.36129749999964,69.36129749999964,69.36129749999964,69.36129749999964,69.36129749999964,69.36129749999964,69.36129749999964,,003,P010,2025_Feb_01_1514,ConditionRich,2021.2.3,59.948444338299105,
36.75,37.0,41,0.0,Stimuli/Blank.png,0,0,0.0,0,66,66,66,,,,,,,,,,,,,36.76442980000138,0.0144298000013805,None,70.11195960000259,70.11195960000259,70.11195960000259,70.11195960000259,70.11195960000259,70.11195960000259,70.11195960000259,70.11195960000259,70.11195960000259,70.11195960000259,,003,P010,2025_Feb_01_1514,ConditionRich,2021.2.3,59.948444338299105,
37.0,37.75,28,0.75,Stimuli/P010/things_face_05s.jpg,0,0,0.0,0,67,67,67,,,,,,,,,,,,,37.014177900000504,0.014177900000504451,None,70.36218210000152,70.36218210000152,70.36218210000152,70.36218210000152,70.36218210000152,70.36218210000152,70.36218210000152,70.36218210000152,70.36218210000152,70.36218210000152,,003,P010,2025_Feb_01_1514,ConditionRich,2021.2.3,59.948444338299105,
37.75,38.0,41,0.0,Stimuli/Blank.png,0,0,0.0,0,68,68,68,,,,,,,,,,,,,37.76595710000038,0.015957100000377977,None,71.1128506999994,71.1128506999994,71.1128506999994,71.1128506999994,71.1128506999994,71.1128506999994,71.1128506999994,71.1128506999994,71.1128506999994,71.1128506999994,,003,P010,2025_Feb_01_1514,ConditionRich,2021.2.3,59.948444338299105,
38.0,38.75,28,0.75,Stimuli/P010/things_face_05s.jpg,0,0,0.0,0,69,69,69,,,,,,,,,,,,,37.99911980000252,-0.0008801999974821229,None,71.34635940000226,71.34635940000226,71.34635940000226,71.34635940000226,71.34635940000226,71.34635940000226,71.34635940000226,71.34635940000226,71.34635940000226,71.34635940000226,,003,P010,2025_Feb_01_1514,ConditionRich,2021.2.3,59.948444338299105,
38.75,39.0,41,0.0,Stimuli/Blank.png,0,0,0.0,0,70,70,70,,,,,,,,,,,,,38.75041720000081,0.0004172000008111354,None,72.09706560000268,72.09706560000268,72.09706560000268,72.09706560000268,72.09706560000268,72.09706560000268,72.09706560000268,72.09706560000268,72.09706560000268,72.09706560000268,,003,P010,2025_Feb_01_1514,ConditionRich,2021.2.3,59.948444338299105,
39.0,39.75,28,0.75,Stimuli/P010/things_face_05s.jpg,0,0,0.0,0,71,71,71,,,,,,,,,,,,,38.9991528999999,-0.0008471000001009088,None,72.34727340000245,72.34727340000245,72.34727340000245,72.34727340000245,72.34727340000245,72.34727340000245,72.34727340000245,72.34727340000245,72.34727340000245,72.34727340000245,,003,P010,2025_Feb_01_1514,ConditionRich,2021.2.3,59.948444338299105,
39.75,40.0,41,0.0,Stimuli/Blank.png,0,0,0.0,0,72,72,72,,,,,,,,,,,,,39.752707600000576,0.002707600000576349,None,73.1146456000024,73.1146456000024,73.1146456000024,73.1146456000024,73.1146456000024,73.1146456000024,73.1146456000024,73.1146456000024,73.1146456000024,73.1146456000024,,003,P010,2025_Feb_01_1514,ConditionRich,2021.2.3,59.948444338299105,
40.0,40.75,19,0.75,Stimuli/P010/sun_bwvfnogmotsvhofs.jpg,0,0,0.0,0,73,73,73,,,,,,,,,,,,,40.01678140000149,0.01678140000149142,None,73.3648377999998,73.3648377999998,73.3648377999998,73.3648377999998,73.3648377999998,73.3648377999998,73.3648377999998,73.3648377999998,73.3648377999998,73.3648377999998,,003,P010,2025_Feb_01_1514,ConditionRich,2021.2.3,59.948444338299105,
40.75,41.0,41,0.0,Stimuli/Blank.png,0,0,0.0,0,74,74,74,,,,,,,,,,,,,40.751417300001776,0.0014173000017763115,None,74.09881160000077,74.09881160000077,74.09881160000077,74.09881160000077,74.09881160000077,74.09881160000077,74.09881160000077,74.09881160000077,74.09881160000077,74.09881160000077,,003,P010,2025_Feb_01_1514,ConditionRich,2021.2.3,59.948444338299105,
41.0,41.75,19,0.75,Stimuli/P010/sun_bwvfnogmotsvhofs.jpg,0,0,0.0,0,75,75,75,,,,,,,,,,,,,41.00171240000054,0.0017124000005424023,None,74.36572180000076,74.36572180000076,74.36572180000076,74.36572180000076,74.36572180000076,74.36572180000076,74.36572180000076,74.36572180000076,74.36572180000076,74.36572180000076,,003,P010,2025_Feb_01_1514,ConditionRich,2021.2.3,59.948444338299105,
41.75,42.0,41,0.0,Stimuli/Blank.png,0,0,0.0,0,76,76,76,,,,,,,,,,,,,41.769087800003035,0.019087800003035227,None,75.11637970000083,75.11637970000083,75.11637970000083,75.11637970000083,75.11637970000083,75.11637970000083,75.11637970000083,75.11637970000083,75.11637970000083,75.11637970000083,,003,P010,2025_Feb_01_1514,ConditionRich,2021.2.3,59.948444338299105,
42.0,42.75,19,0.75,Stimuli/P010/sun_bwvfnogmotsvhofs.jpg,0,0,0.0,0,77,77,77,,,,,,,,,,,,,42.00276030000168,0.002760300001682481,None,75.36662290000095,75.36662290000095,75.36662290000095,75.36662290000095,75.36662290000095,75.36662290000095,75.36662290000095,75.36662290000095,75.36662290000095,75.36662290000095,,003,P010,2025_Feb_01_1514,ConditionRich,2021.2.3,59.948444338299105,
42.75,43.0,41,0.0,Stimuli/Blank.png,0,0,0.0,0,78,78,78,,,,,,,,,,,,,42.76999170000272,0.01999170000271988,None,76.11729180000111,76.11729180000111,76.11729180000111,76.11729180000111,76.11729180000111,76.11729180000111,76.11729180000111,76.11729180000111,76.11729180000111,76.11729180000111,,003,P010,2025_Feb_01_1514,ConditionRich,2021.2.3,59.948444338299105,
43.0,43.75,19,0.75,Stimuli/P010/sun_bwvfnogmotsvhofs.jpg,0,0,0.0,0,79,79,79,,,,,,,,,,,,,43.002832600002876,0.0028326000028755516,None,76.35080759999983,76.35080759999983,76.35080759999983,76.35080759999983,76.35080759999983,76.35080759999983,76.35080759999983,76.35080759999983,76.35080759999983,76.35080759999983,,003,P010,2025_Feb_01_1514,ConditionRich,2021.2.3,59.948444338299105,
43.75,44.0,41,0.0,Stimuli/Blank.png,0,0,0.0,0,80,80,80,,,,,,,,,,,,,43.7544317000029,0.004431700002896832,None,77.10152510000262,77.10152510000262,77.10152510000262,77.10152510000262,77.10152510000262,77.10152510000262,77.10152510000262,77.10152510000262,77.10152510000262,77.10152510000262,,003,P010,2025_Feb_01_1514,ConditionRich,2021.2.3,59.948444338299105,
44.0,44.75,5,0.75,Stimuli/P010/sun_akqvdmuauoxeafrj.jpg,0,0,0.0,0,81,81,81,,,,,,,,,,,,,44.00457670000105,0.004576700001052814,None,77.36839859999964,77.36839859999964,77.36839859999964,77.36839859999964,77.36839859999964,77.36839859999964,77.36839859999964,77.36839859999964,77.36839859999964,77.36839859999964,,003,P010,2025_Feb_01_1514,ConditionRich,2021.2.3,59.948444338299105,
44.75,45.0,41,0.0,Stimuli/Blank.png,0,0,0.0,0,82,82,82,,,,,,,,,,,,,44.7716302000008,0.02163020000079996,None,78.11906440000166,78.11906440000166,78.11906440000166,78.11906440000166,78.11906440000166,78.11906440000166,78.11906440000166,78.11906440000166,78.11906440000166,78.11906440000166,,003,P010,2025_Feb_01_1514,ConditionRich,2021.2.3,59.948444338299105,
45.0,45.75,5,0.75,Stimuli/P010/sun_akqvdmuauoxeafrj.jpg,0,0,0.0,0,83,83,83,,,,,,,,,,,,,45.004566700001305,0.004566700001305435,None,78.35258199999953,78.35258199999953,78.35258199999953,78.35258199999953,78.35258199999953,78.35258199999953,78.35258199999953,78.35258199999953,78.35258199999953,78.35258199999953,,003,P010,2025_Feb_01_1514,ConditionRich,2021.2.3,59.948444338299105,
45.75,46.0,41,0.0,Stimuli/Blank.png,0,0,0.0,0,84,84,84,,,,,,,,,,,,,45.75819130000309,0.008191300003090873,None,79.11993910000092,79.11993910000092,79.11993910000092,79.11993910000092,79.11993910000092,79.11993910000092,79.11993910000092,79.11993910000092,79.11993910000092,79.11993910000092,,003,P010,2025_Feb_01_1514,ConditionRich,2021.2.3,59.948444338299105,
46.0,46.75,5,0.75,Stimuli/P010/sun_akqvdmuauoxeafrj.jpg,0,0,0.0,0,85,85,85,,,,,,,,,,,,,46.022566700001335,0.02256670000133454,None,79.37015480000264,79.37015480000264,79.37015480000264,79.37015480000264,79.37015480000264,79.37015480000264,79.37015480000264,79.37015480000264,79.37015480000264,79.37015480000264,,003,P010,2025_Feb_01_1514,ConditionRich,2021.2.3,59.948444338299105,
46.75,47.0,41,0.0,Stimuli/Blank.png,0,0,0.0,0,86,86,86,,,,,,,,,,,,,46.757526600002166,0.007526600002165651,None,80.1041378000009,80.1041378000009,80.1041378000009,80.1041378000009,80.1041378000009,80.1041378000009,80.1041378000009,80.1041378000009,80.1041378000009,80.1041378000009,,003,P010,2025_Feb_01_1514,ConditionRich,2021.2.3,59.948444338299105,
47.0,47.75,5,0.75,Stimuli/P010/sun_akqvdmuauoxeafrj.jpg,0,0,0.0,0,87,87,87,,,,,,,,,,,,,47.00653590000002,0.006535900000017136,None,80.35435230000076,80.35435230000076,80.35435230000076,80.35435230000076,80.35435230000076,80.35435230000076,80.35435230000076,80.35435230000076,80.35435230000076,80.35435230000076,,003,P010,2025_Feb_01_1514,ConditionRich,2021.2.3,59.948444338299105,
47.75,48.0,41,0.0,Stimuli/Blank.png,0,0,0.0,0,88,88,88,,,,,,,,,,,,,47.75690039999972,0.00690039999972214,None,81.10501550000117,81.10501550000117,81.10501550000117,81.10501550000117,81.10501550000117,81.10501550000117,81.10501550000117,81.10501550000117,81.10501550000117,81.10501550000117,,003,P010,2025_Feb_01_1514,ConditionRich,2021.2.3,59.948444338299105,
48.0,48.75,27,0.75,Stimuli/P010/things_curling_iron_05s.jpg,0,0,0.0,0,89,89,89,,,,,,,,,,,,,48.007723599999736,0.0077235999997355975,None,81.3552488000023,81.3552488000023,81.3552488000023,81.3552488000023,81.3552488000023,81.3552488000023,81.3552488000023,81.3552488000023,81.3552488000023,81.3552488000023,,003,P010,2025_Feb_01_1514,ConditionRich,2021.2.3,59.948444338299105,
48.75,49.0,41,0.0,Stimuli/Blank.png,0,0,0.0,0,90,90,90,,,,,,,,,,,,,48.75793380000323,0.007933800003229408,None,82.10588570000255,82.10588570000255,82.10588570000255,82.10588570000255,82.10588570000255,82.10588570000255,82.10588570000255,82.10588570000255,82.10588570000255,82.10588570000255,,003,P010,2025_Feb_01_1514,ConditionRich,2021.2.3,59.948444338299105,
49.0,49.75,27,0.75,Stimuli/P010/things_curling_iron_05s.jpg,0,0,0.0,0,91,91,91,,,,,,,,,,,,,49.00858690000314,0.008586900003137998,None,82.35612890000266,82.35612890000266,82.35612890000266,82.35612890000266,82.35612890000266,82.35612890000266,82.35612890000266,82.35612890000266,82.35612890000266,82.35612890000266,,003,P010,2025_Feb_01_1514,ConditionRich,2021.2.3,59.948444338299105,
49.75,50.0,41,0.0,Stimuli/Blank.png,0,0,0.0,0,92,92,92,,,,,,,,,,,,,49.75878560000274,0.008785600002738647,None,83.10679230000096,83.10679230000096,83.10679230000096,83.10679230000096,83.10679230000096,83.10679230000096,83.10679230000096,83.10679230000096,83.10679230000096,83.10679230000096,,003,P010,2025_Feb_01_1514,ConditionRich,2021.2.3,59.948444338299105,
50.0,50.75,27,0.75,Stimuli/P010/things_curling_iron_05s.jpg,1,0,0.75,0,93,93,93,,,,,,,,,,,,,50.008916200000385,0.008916200000385288,1,83.35701709999921,83.35701709999921,83.35701709999921,83.35701709999921,83.35701709999921,83.35701709999921,83.35701709999921,84.09105020000061,83.35701709999921,83.35701709999921,0.47219570000015665,003,P010,2025_Feb_01_1514,ConditionRich,2021.2.3,59.948444338299105,
50.75,51.0,41,0.0,Stimuli/Blank.png,0,0,0.0,0,94,94,94,,,,,,,,,,,,,50.76230730000316,0.012307300003158161,None,84.12436750000052,84.12436750000052,84.12436750000052,84.12436750000052,84.12436750000052,84.12436750000052,84.12436750000052,84.12436750000052,84.12436750000052,84.12436750000052,,003,P010,2025_Feb_01_1514,ConditionRich,2021.2.3,59.948444338299105,
51.0,51.75,27,0.75,Stimuli/P010/things_curling_iron_05s.jpg,0,0,0.0,0,95,95,95,,,,,,,,,,,,,51.027981100000034,0.02798110000003362,None,84.39128060000075,84.39128060000075,84.39128060000075,84.39128060000075,84.39128060000075,84.39128060000075,84.39128060000075,84.39128060000075,84.39128060000075,84.39128060000075,,003,P010,2025_Feb_01_1514,ConditionRich,2021.2.3,59.948444338299105,
51.75,52.0,41,0.0,Stimuli/Blank.png,0,0,0.0,0,96,96,96,,,,,,,,,,,,,51.77776670000094,0.027766700000938727,None,85.12525079999978,85.12525079999978,85.12525079999978,85.12525079999978,85.12525079999978,85.12525079999978,85.12525079999978,85.12525079999978,85.12525079999978,85.12525079999978,,003,P010,2025_Feb_01_1514,ConditionRich,2021.2.3,59.948444338299105,
52.0,52.75,25,0.75,Stimuli/P010/things_clothespin_05s.jpg,0,0,0.0,0,97,97,97,,,,,,,,,,,,,52.0115990000013,0.0115990000012971,None,85.3587832000012,85.3587832000012,85.3587832000012,85.3587832000012,85.3587832000012,85.3587832000012,85.3587832000012,85.3587832000012,85.3587832000012,85.3587832000012,,003,P010,2025_Feb_01_1514,ConditionRich,2021.2.3,59.948444338299105,
52.75,53.0,41,0.0,Stimuli/Blank.png,0,0,0.0,0,98,98,98,,,,,,,,,,,,,52.76152690000163,0.011526900001626927,None,86.10944930000187,86.10944930000187,86.10944930000187,86.10944930000187,86.10944930000187,86.10944930000187,86.10944930000187,86.10944930000187,86.10944930000187,86.10944930000187,,003,P010,2025_Feb_01_1514,ConditionRich,2021.2.3,59.948444338299105,
53.0,53.75,25,0.75,Stimuli/P010/things_clothespin_05s.jpg,0,0,0.0,0,99,99,99,,,,,,,,,,,,,53.012695400000666,0.012695400000666268,None,86.3596753999991,86.3596753999991,86.3596753999991,86.3596753999991,86.3596753999991,86.3596753999991,86.3596753999991,86.3596753999991,86.3596753999991,86.3596753999991,,003,P010,2025_Feb_01_1514,ConditionRich,2021.2.3,59.948444338299105,
53.75,54.0,41,0.0,Stimuli/Blank.png,0,0,0.0,0,100,100,100,,,,,,,,,,,,,53.76242380000258,0.01242380000257981,None,87.11034440000003,87.11034440000003,87.11034440000003,87.11034440000003,87.11034440000003,87.11034440000003,87.11034440000003,87.11034440000003,87.11034440000003,87.11034440000003,,003,P010,2025_Feb_01_1514,ConditionRich,2021.2.3,59.948444338299105,
54.0,54.75,25,0.75,Stimuli/P010/things_clothespin_05s.jpg,0,0,0.0,0,101,101,101,,,,,,,,,,,,,54.01348860000144,0.01348860000143759,None,87.36055530000158,87.36055530000158,87.36055530000158,87.36055530000158,87.36055530000158,87.36055530000158,87.36055530000158,87.36055530000158,87.36055530000158,87.36055530000158,,003,P010,2025_Feb_01_1514,ConditionRich,2021.2.3,59.948444338299105,
54.75,55.0,41,0.0,Stimuli/Blank.png,0,0,0.0,0,102,102,102,,,,,,,,,,,,,54.763528000003134,0.013528000003134366,None,88.1112260000009,88.1112260000009,88.1112260000009,88.1112260000009,88.1112260000009,88.1112260000009,88.1112260000009,88.1112260000009,88.1112260000009,88.1112260000009,,003,P010,2025_Feb_01_1514,ConditionRich,2021.2.3,59.948444338299105,
55.0,55.75,25,0.75,Stimuli/P010/things_clothespin_05s.jpg,0,0,0.0,0,103,103,103,,,,,,,,,,,,,55.01402770000277,0.014027700002770871,None,88.36143839999932,88.36143839999932,88.36143839999932,88.36143839999932,88.36143839999932,88.36143839999932,88.36143839999932,88.36143839999932,88.36143839999932,88.36143839999932,,003,P010,2025_Feb_01_1514,ConditionRich,2021.2.3,59.948444338299105,
55.75,56.0,41,0.0,Stimuli/Blank.png,0,0,0.0,0,104,104,104,,,,,,,,,,,,,55.764570000003005,0.01457000000300468,None,89.1121028000016,89.1121028000016,89.1121028000016,89.1121028000016,89.1121028000016,89.1121028000016,89.1121028000016,89.1121028000016,89.1121028000016,89.1121028000016,,003,P010,2025_Feb_01_1514,ConditionRich,2021.2.3,59.948444338299105,
56.0,56.75,13,0.75,Stimuli/P010/sun_bjimvgwadfodioes.jpg,0,0,0.0,0,105,105,105,,,,,,,,,,,,,56.01418320000084,0.014183200000843499,None,89.37901910000073,89.37901910000073,89.37901910000073,89.37901910000073,89.37901910000073,89.37901910000073,89.37901910000073,89.37901910000073,89.37901910000073,89.37901910000073,,003,P010,2025_Feb_01_1514,ConditionRich,2021.2.3,59.948444338299105,
56.75,57.0,41,0.0,Stimuli/Blank.png,0,0,0.0,0,106,106,106,,,,,,,,,,,,,56.78315510000175,0.033155100001749815,None,90.14637940000102,90.14637940000102,90.14637940000102,90.14637940000102,90.14637940000102,90.14637940000102,90.14637940000102,90.14637940000102,90.14637940000102,90.14637940000102,,003,P010,2025_Feb_01_1514,ConditionRich,2021.2.3,59.948444338299105,
57.0,57.75,13,0.75,Stimuli/P010/sun_bjimvgwadfodioes.jpg,0,0,0.0,0,107,107,107,,,,,,,,,,,,,57.01756329999989,0.01756329999989248,None,90.3798979000021,90.3798979000021,90.3798979000021,90.3798979000021,90.3798979000021,90.3798979000021,90.3798979000021,90.3798979000021,90.3798979000021,90.3798979000021,,003,P010,2025_Feb_01_1514,ConditionRich,2021.2.3,59.948444338299105,
57.75,58.0,41,0.0,Stimuli/Blank.png,0,0,0.0,0,108,108,108,,,,,,,,,,,,,57.76586180000231,0.01586180000231252,None,91.11395439999978,91.11395439999978,91.11395439999978,91.11395439999978,91.11395439999978,91.11395439999978,91.11395439999978,91.11395439999978,91.11395439999978,91.11395439999978,,003,P010,2025_Feb_01_1514,ConditionRich,2021.2.3,59.948444338299105,
58.0,58.75,13,0.75,Stimuli/P010/sun_bjimvgwadfodioes.jpg,0,0,0.0,0,109,109,109,,,,,,,,,,,,,58.00231490000078,0.002314900000783382,None,91.36407040000267,91.36407040000267,91.36407040000267,91.36407040000267,91.36407040000267,91.36407040000267,91.36407040000267,91.36407040000267,91.36407040000267,91.36407040000267,,003,P010,2025_Feb_01_1514,ConditionRich,2021.2.3,59.948444338299105,
58.75,59.0,41,0.0,Stimuli/Blank.png,0,0,0.0,0,110,110,110,,,,,,,,,,,,,58.76770650000253,0.017706500002532266,None,92.1147775999998,92.1147775999998,92.1147775999998,92.1147775999998,92.1147775999998,92.1147775999998,92.1147775999998,92.1147775999998,92.1147775999998,92.1147775999998,,003,P010,2025_Feb_01_1514,ConditionRich,2021.2.3,59.948444338299105,
59.0,59.75,13,0.75,Stimuli/P010/sun_bjimvgwadfodioes.jpg,0,0,0.0,0,111,111,111,,,,,,,,,,,,,59.00232099999994,0.002320999999938067,None,92.3650125000022,92.3650125000022,92.3650125000022,92.3650125000022,92.3650125000022,92.3650125000022,92.3650125000022,92.3650125000022,92.3650125000022,92.3650125000022,,003,P010,2025_Feb_01_1514,ConditionRich,2021.2.3,59.948444338299105,
59.75,60.0,41,0.0,Stimuli/Blank.png,0,0,0.0,0,112,112,112,,,,,,,,,,,,,59.76817830000073,0.018178300000727177,None,93.11565039999914,93.11565039999914,93.11565039999914,93.11565039999914,93.11565039999914,93.11565039999914,93.11565039999914,93.11565039999914,93.11565039999914,93.11565039999914,,003,P010,2025_Feb_01_1514,ConditionRich,2021.2.3,59.948444338299105,
60.0,60.75,23,0.75,Stimuli/P010/things_charger_05s.jpg,0,0,0.0,0,113,113,113,,,,,,,,,,,,,60.002508400000806,0.0025084000008064322,None,93.36587280000094,93.36587280000094,93.36587280000094,93.36587280000094,93.36587280000094,93.36587280000094,93.36587280000094,93.36587280000094,93.36587280000094,93.36587280000094,,003,P010,2025_Feb_01_1514,ConditionRich,2021.2.3,59.948444338299105,
60.75,61.0,41,0.0,Stimuli/Blank.png,0,0,0.0,0,114,114,114,,,,,,,,,,,,,60.76889160000064,0.01889160000064294,None,94.11653719999958,94.11653719999958,94.11653719999958,94.11653719999958,94.11653719999958,94.11653719999958,94.11653719999958,94.11653719999958,94.11653719999958,94.11653719999958,,003,P010,2025_Feb_01_1514,ConditionRich,2021.2.3,59.948444338299105,
61.0,61.75,23,0.75,Stimuli/P010/things_charger_05s.jpg,0,0,0.0,0,115,115,115,,,,,,,,,,,,,61.00272700000278,0.002727000002778368,None,94.36675370000012,94.36675370000012,94.36675370000012,94.36675370000012,94.36675370000012,94.36675370000012,94.36675370000012,94.36675370000012,94.36675370000012,94.36675370000012,,003,P010,2025_Feb_01_1514,ConditionRich,2021.2.3,59.948444338299105,
61.75,62.0,41,0.0,Stimuli/Blank.png,0,0,0.0,0,116,116,116,,,,,,,,,,,,,61.77194480000253,0.02194480000252952,None,95.13409429999956,95.13409429999956,95.13409429999956,95.13409429999956,95.13409429999956,95.13409429999956,95.13409429999956,95.13409429999956,95.13409429999956,95.13409429999956,,003,P010,2025_Feb_01_1514,ConditionRich,2021.2.3,59.948444338299105,
62.0,62.75,23,0.75,Stimuli/P010/things_charger_05s.jpg,0,0,0.0,0,117,117,117,,,,,,,,,,,,,62.01950240000224,0.019502400002238574,None,95.36764600000242,95.36764600000242,95.36764600000242,95.36764600000242,95.36764600000242,95.36764600000242,95.36764600000242,95.36764600000242,95.36764600000242,95.36764600000242,,003,P010,2025_Feb_01_1514,ConditionRich,2021.2.3,59.948444338299105,
62.75,63.0,41,0.0,Stimuli/Blank.png,0,0,0.0,0,118,118,118,,,,,,,,,,,,,62.75428960000136,0.00428960000135703,None,96.10162590000255,96.10162590000255,96.10162590000255,96.10162590000255,96.10162590000255,96.10162590000255,96.10162590000255,96.10162590000255,96.10162590000255,96.10162590000255,,003,P010,2025_Feb_01_1514,ConditionRich,2021.2.3,59.948444338299105,
63.0,63.75,23,0.75,Stimuli/P010/things_charger_05s.jpg,1,0,0.75,0,119,119,119,,,,,,,,,,,,,63.005303699999786,0.005303699999785749,1,96.36852200000067,96.36852200000067,96.36852200000067,96.36852200000067,96.36852200000067,96.36852200000067,96.36852200000067,97.08587160000025,96.36852200000067,96.36852200000067,0.417435999999725,003,P010,2025_Feb_01_1514,ConditionRich,2021.2.3,59.948444338299105,
63.75,64.0,41,0.0,Stimuli/Blank.png,0,0,0.0,0,120,120,120,,,,,,,,,,,,,63.771752800003014,0.021752800003014272,None,97.11918860000151,97.11918860000151,97.11918860000151,97.11918860000151,97.11918860000151,97.11918860000151,97.11918860000151,97.11918860000151,97.11918860000151,97.11918860000151,,003,P010,2025_Feb_01_1514,ConditionRich,2021.2.3,59.948444338299105,
64.0,64.75,16,0.75,Stimuli/P010/sun_bqpyqljaflidcauh.jpg,0,0,0.0,0,121,121,121,,,,,,,,,,,,,64.0053611000003,0.005361100000300212,None,97.36941800000204,97.36941800000204,97.36941800000204,97.36941800000204,97.36941800000204,97.36941800000204,97.36941800000204,97.36941800000204,97.36941800000204,97.36941800000204,,003,P010,2025_Feb_01_1514,ConditionRich,2021.2.3,59.948444338299105,
64.75,65.0,41,0.0,Stimuli/Blank.png,0,0,0.0,0,122,122,122,,,,,,,,,,,,,64.77250009999989,0.022500099999888334,None,98.12007580000136,98.12007580000136,98.12007580000136,98.12007580000136,98.12007580000136,98.12007580000136,98.12007580000136,98.12007580000136,98.12007580000136,98.12007580000136,,003,P010,2025_Feb_01_1514,ConditionRich,2021.2.3,59.948444338299105,
65.0,65.75,16,0.75,Stimuli/P010/sun_bqpyqljaflidcauh.jpg,0,0,0.0,0,123,123,123,,,,,,,,,,,,,65.00632920000135,0.00632920000134618,None,98.37030030000096,98.37030030000096,98.37030030000096,98.37030030000096,98.37030030000096,98.37030030000096,98.37030030000096,98.37030030000096,98.37030030000096,98.37030030000096,,003,P010,2025_Feb_01_1514,ConditionRich,2021.2.3,59.948444338299105,
65.75,66.0,41,0.0,Stimuli/Blank.png,0,0,0.0,0,124,124,124,,,,,,,,,,,,,65.77325900000142,0.023259000001417007,None,99.12096080000265,99.12096080000265,99.12096080000265,99.12096080000265,99.12096080000265,99.12096080000265,99.12096080000265,99.12096080000265,99.12096080000265,99.12096080000265,,003,P010,2025_Feb_01_1514,ConditionRich,2021.2.3,59.948444338299105,
66.0,66.75,16,0.75,Stimuli/P010/sun_bqpyqljaflidcauh.jpg,0,0,0.0,0,125,125,125,,,,,,,,,,,,,66.00697760000185,0.00697760000184644,None,99.35446660000162,99.35446660000162,99.35446660000162,99.35446660000162,99.35446660000162,99.35446660000162,99.35446660000162,99.35446660000162,99.35446660000162,99.35446660000162,,003,P010,2025_Feb_01_1514,ConditionRich,2021.2.3,59.948444338299105,
66.75,67.0,41,0.0,Stimuli/Blank.png,0,0,0.0,0,126,126,126,,,,,,,,,,,,,66.75771050000185,0.007710500001849141,None,100.10513899999933,100.10513899999933,100.10513899999933,100.10513899999933,100.10513899999933,100.10513899999933,100.10513899999933,100.10513899999933,100.10513899999933,100.10513899999933,,003,P010,2025_Feb_01_1514,ConditionRich,2021.2.3,59.948444338299105,
67.0,67.75,16,0.75,Stimuli/P010/sun_bqpyqljaflidcauh.jpg,0,0,0.0,0,127,127,127,,,,,,,,,,,,,67.00838100000328,0.00838100000328268,None,100.37209230000008,100.37209230000008,100.37209230000008,100.37209230000008,100.37209230000008,100.37209230000008,100.37209230000008,100.37209230000008,100.37209230000008,100.37209230000008,,003,P010,2025_Feb_01_1514,ConditionRich,2021.2.3,59.948444338299105,
67.75,68.0,41,0.0,Stimuli/Blank.png,0,0,0.0,0,128,128,128,,,,,,,,,,,,,67.77696629999991,0.026966299999912735,None,101.1394446000013,101.1394446000013,101.1394446000013,101.1394446000013,101.1394446000013,101.1394446000013,101.1394446000013,101.1394446000013,101.1394446000013,101.1394446000013,,003,P010,2025_Feb_01_1514,ConditionRich,2021.2.3,59.948444338299105,
68.0,68.75,10,0.75,Stimuli/P010/sun_bdkttewvyfdarikm.jpg,0,0,0.0,0,129,129,129,,,,,,,,,,,,,68.02586060000249,0.025860600002488354,None,101.37295319999976,101.37295319999976,101.37295319999976,101.37295319999976,101.37295319999976,101.37295319999976,101.37295319999976,101.37295319999976,101.37295319999976,101.37295319999976,,003,P010,2025_Feb_01_1514,ConditionRich,2021.2.3,59.948444338299105,
68.75,69.0,41,0.0,Stimuli/Blank.png,0,0,0.0,0,130,130,130,,,,,,,,,,,,,68.76087390000248,0.010873900002479786,None,102.12363890000051,102.12363890000051,102.12363890000051,102.12363890000051,102.12363890000051,102.12363890000051,102.12363890000051,102.12363890000051,102.12363890000051,102.12363890000051,,003,P010,2025_Feb_01_1514,ConditionRich,2021.2.3,59.948444338299105,
69.0,69.75,10,0.75,Stimuli/P010/sun_bdkttewvyfdarikm.jpg,0,0,0.0,0,131,131,131,,,,,,,,,,,,,69.02675530000124,0.026755300001241267,None,102.37384519999978,102.37384519999978,102.37384519999978,102.37384519999978,102.37384519999978,102.37384519999978,102.37384519999978,102.37384519999978,102.37384519999978,102.37384519999978,,003,P010,2025_Feb_01_1514,ConditionRich,2021.2.3,59.948444338299105,
69.75,70.0,41,0.0,Stimuli/Blank.png,0,0,0.0,0,132,132,132,,,,,,,,,,,,,69.76237930000207,0.012379300002066884,None,103.12451340000189,103.12451340000189,103.12451340000189,103.12451340000189,103.12451340000189,103.12451340000189,103.12451340000189,103.12451340000189,103.12451340000189,103.12451340000189,,003,P010,2025_Feb_01_1514,ConditionRich,2021.2.3,59.948444338299105,
70.0,70.75,10,0.75,Stimuli/P010/sun_bdkttewvyfdarikm.jpg,0,0,0.0,0,133,133,133,,,,,,,,,,,,,70.02662520000013,0.026625200000125915,None,103.37473030000183,103.37473030000183,103.37473030000183,103.37473030000183,103.37473030000183,103.37473030000183,103.37473030000183,103.37473030000183,103.37473030000183,103.37473030000183,,003,P010,2025_Feb_01_1514,ConditionRich,2021.2.3,59.948444338299105,
70.75,71.0,41,0.0,Stimuli/Blank.png,0,0,0.0,0,134,134,134,,,,,,,,,,,,,70.76260309999998,0.01260309999997844,None,104.12540010000157,104.12540010000157,104.12540010000157,104.12540010000157,104.12540010000157,104.12540010000157,104.12540010000157,104.12540010000157,104.12540010000157,104.12540010000157,,003,P010,2025_Feb_01_1514,ConditionRich,2021.2.3,59.948444338299105,
71.0,71.75,10,0.75,Stimuli/P010/sun_bdkttewvyfdarikm.jpg,0,0,0.0,0,135,135,135,,,,,,,,,,,,,71.0274556000004,0.027455600000394043,None,104.37560999999914,104.37560999999914,104.37560999999914,104.37560999999914,104.37560999999914,104.37560999999914,104.37560999999914,104.37560999999914,104.37560999999914,104.37560999999914,,003,P010,2025_Feb_01_1514,ConditionRich,2021.2.3,59.948444338299105,
71.75,72.0,41,0.0,Stimuli/Blank.png,0,0,0.0,0,136,136,136,,,,,,,,,,,,,71.76218169999993,0.012181699999928242,None,105.10959780000121,105.10959780000121,105.10959780000121,105.10959780000121,105.10959780000121,105.10959780000121,105.10959780000121,105.10959780000121,105.10959780000121,105.10959780000121,,003,P010,2025_Feb_01_1514,ConditionRich,2021.2.3,59.948444338299105,
72.0,72.75,30,0.75,Stimuli/P010/things_fire_05s.jpg,0,0,0.0,0,137,137,137,,,,,,,,,,,,,72.01207580000118,0.012075800001184689,None,105.35982100000183,105.35982100000183,105.35982100000183,105.35982100000183,105.35982100000183,105.35982100000183,105.35982100000183,105.35982100000183,105.35982100000183,105.35982100000183,,003,P010,2025_Feb_01_1514,ConditionRich,2021.2.3,59.948444338299105,
72.75,73.0,41,0.0,Stimuli/Blank.png,0,0,0.0,0,138,138,138,,,,,,,,,,,,,72.76279820000127,0.012798200001270743,None,106.11048370000208,106.11048370000208,106.11048370000208,106.11048370000208,106.11048370000208,106.11048370000208,106.11048370000208,106.11048370000208,106.11048370000208,106.11048370000208,,003,P010,2025_Feb_01_1514,ConditionRich,2021.2.3,59.948444338299105,
73.0,73.75,30,0.75,Stimuli/P010/things_fire_05s.jpg,0,0,0.0,0,139,139,139,,,,,,,,,,,,,73.01281740000195,0.012817400001949864,None,106.36070060000202,106.36070060000202,106.36070060000202,106.36070060000202,106.36070060000202,106.36070060000202,106.36070060000202,106.36070060000202,106.36070060000202,106.36070060000202,,003,P010,2025_Feb_01_1514,ConditionRich,2021.2.3,59.948444338299105,
73.75,74.0,41,0.0,Stimuli/Blank.png,0,0,0.0,0,140,140,140,,,,,,,,,,,,,73.76371030000155,0.013710300001548603,None,107.11136190000252,107.11136190000252,107.11136190000252,107.11136190000252,107.11136190000252,107.11136190000252,107.11136190000252,107.11136190000252,107.11136190000252,107.11136190000252,,003,P010,2025_Feb_01_1514,ConditionRich,2021.2.3,59.948444338299105,
74.0,74.75,30,0.75,Stimuli/P010/things_fire_05s.jpg,0,0,0.0,0,141,141,141,,,,,,,,,,,,,74.01349390000178,0.013493900001776638,None,107.36158790000263,107.36158790000263,107.36158790000263,107.36158790000263,107.36158790000263,107.36158790000263,107.36158790000263,107.36158790000263,107.36158790000263,107.36158790000263,,003,P010,2025_Feb_01_1514,ConditionRich,2021.2.3,59.948444338299105,
74.75,75.0,41,0.0,Stimuli/Blank.png,0,0,0.0,0,142,142,142,,,,,,,,,,,,,74.76521240000147,0.015212400001473725,None,108.11228090000077,108.11228090000077,108.11228090000077,108.11228090000077,108.11228090000077,108.11228090000077,108.11228090000077,108.11228090000077,108.11228090000077,108.11228090000077,,003,P010,2025_Feb_01_1514,ConditionRich,2021.2.3,59.948444338299105,
75.0,75.75,30,0.75,Stimuli/P010/things_fire_05s.jpg,0,0,0.0,0,143,143,143,,,,,,,,,,,,,75.01857139999993,0.018571399999927962,None,108.3958855000019,108.3958855000019,108.3958855000019,108.3958855000019,108.3958855000019,108.3958855000019,108.3958855000019,108.3958855000019,108.3958855000019,108.3958855000019,,003,P010,2025_Feb_01_1514,ConditionRich,2021.2.3,59.948444338299105,
75.75,76.0,41,0.0,Stimuli/Blank.png,0,0,0.0,0,144,144,144,,,,,,,,,,,,,75.78167840000242,0.03167840000241995,None,109.12981950000176,109.12981950000176,109.12981950000176,109.12981950000176,109.12981950000176,109.12981950000176,109.12981950000176,109.12981950000176,109.12981950000176,109.12981950000176,,003,P010,2025_Feb_01_1514,ConditionRich,2021.2.3,59.948444338299105,
76.0,76.75,12,0.75,Stimuli/P010/sun_birmwgkdtrlevcaf.jpg,0,0,0.0,0,145,145,145,,,,,,,,,,,,,76.01788000000306,0.01788000000306056,None,109.38005580000026,109.38005580000026,109.38005580000026,109.38005580000026,109.38005580000026,109.38005580000026,109.38005580000026,109.38005580000026,109.38005580000026,109.38005580000026,,003,P010,2025_Feb_01_1514,ConditionRich,2021.2.3,59.948444338299105,
76.75,77.0,41,0.0,Stimuli/Blank.png,0,0,0.0,0,146,146,146,,,,,,,,,,,,,76.76719250000315,0.01719250000314787,None,110.11399330000131,110.11399330000131,110.11399330000131,110.11399330000131,110.11399330000131,110.11399330000131,110.11399330000131,110.11399330000131,110.11399330000131,110.11399330000131,,003,P010,2025_Feb_01_1514,ConditionRich,2021.2.3,59.948444338299105,
77.0,77.75,12,0.75,Stimuli/P010/sun_birmwgkdtrlevcaf.jpg,0,0,0.0,0,147,147,147,,,,,,,,,,,,,77.00295800000094,0.002958000000944594,None,110.36426879999999,110.36426879999999,110.36426879999999,110.36426879999999,110.36426879999999,110.36426879999999,110.36426879999999,110.36426879999999,110.36426879999999,110.36426879999999,,003,P010,2025_Feb_01_1514,ConditionRich,2021.2.3,59.948444338299105,
77.75,78.0,41,0.0,Stimuli/Blank.png,0,0,0.0,0,148,148,148,,,,,,,,,,,,,77.76768609999999,0.01768609999999171,None,111.11491380000007,111.11491380000007,111.11491380000007,111.11491380000007,111.11491380000007,111.11491380000007,111.11491380000007,111.11491380000007,111.11491380000007,111.11491380000007,,003,P010,2025_Feb_01_1514,ConditionRich,2021.2.3,59.948444338299105,
78.0,78.75,12,0.75,Stimuli/P010/sun_birmwgkdtrlevcaf.jpg,0,0,0.0,0,149,149,149,,,,,,,,,,,,,78.0024056000002,0.0024056000002019573,None,111.36510300000009,111.36510300000009,111.36510300000009,111.36510300000009,111.36510300000009,111.36510300000009,111.36510300000009,111.36510300000009,111.36510300000009,111.36510300000009,,003,P010,2025_Feb_01_1514,ConditionRich,2021.2.3,59.948444338299105,
78.75,79.0,41,0.0,Stimuli/Blank.png,0,0,0.0,0,150,150,150,,,,,,,,,,,,,78.7677775000011,0.017777500001102453,None,112.11579780000102,112.11579780000102,112.11579780000102,112.11579780000102,112.11579780000102,112.11579780000102,112.11579780000102,112.11579780000102,112.11579780000102,112.11579780000102,,003,P010,2025_Feb_01_1514,ConditionRich,2021.2.3,59.948444338299105,
79.0,79.75,12,0.75,Stimuli/P010/sun_birmwgkdtrlevcaf.jpg,0,0,0.0,0,151,151,151,,,,,,,,,,,,,79.00125800000023,0.0012580000002344605,None,112.3493355999999,112.3493355999999,112.3493355999999,112.3493355999999,112.3493355999999,112.3493355999999,112.3493355999999,112.3493355999999,112.3493355999999,112.3493355999999,,003,P010,2025_Feb_01_1514,ConditionRich,2021.2.3,59.948444338299105,
79.75,80.0,41,0.0,Stimuli/Blank.png,0,0,0.0,0,152,152,152,,,,,,,,,,,,,79.75298760000078,0.0029876000007789116,None,113.11672019999969,113.11672019999969,113.11672019999969,113.11672019999969,113.11672019999969,113.11672019999969,113.11672019999969,113.11672019999969,113.11672019999969,113.11672019999969,,003,P010,2025_Feb_01_1514,ConditionRich,2021.2.3,59.948444338299105,
80.0,80.75,18,0.75,Stimuli/P010/sun_bwjdahsxcqepqqbm.jpg,0,0,0.0,0,153,153,153,,,,,,,,,,,,,80.02030340000056,0.020303400000557303,None,113.38358100000187,113.38358100000187,113.38358100000187,113.38358100000187,113.38358100000187,113.38358100000187,113.38358100000187,113.38358100000187,113.38358100000187,113.38358100000187,,003,P010,2025_Feb_01_1514,ConditionRich,2021.2.3,59.948444338299105,
80.75,81.0,41,0.0,Stimuli/Blank.png,0,0,0.0,0,154,154,154,,,,,,,,,,,,,80.77186860000074,0.021868600000743754,None,114.13426009999966,114.13426009999966,114.13426009999966,114.13426009999966,114.13426009999966,114.13426009999966,114.13426009999966,114.13426009999966,114.13426009999966,114.13426009999966,,003,P010,2025_Feb_01_1514,ConditionRich,2021.2.3,59.948444338299105,
81.0,81.75,18,0.75,Stimuli/P010/sun_bwjdahsxcqepqqbm.jpg,0,0,0.0,0,155,155,155,,,,,,,,,,,,,81.02040910000142,0.020409100001415936,None,114.38446810000096,114.38446810000096,114.38446810000096,114.38446810000096,114.38446810000096,114.38446810000096,114.38446810000096,114.38446810000096,114.38446810000096,114.38446810000096,,003,P010,2025_Feb_01_1514,ConditionRich,2021.2.3,59.948444338299105,
81.75,82.0,41,0.0,Stimuli/Blank.png,0,0,0.0,0,156,156,156,,,,,,,,,,,,,81.77344140000059,0.023441400000592694,None,115.13513769999918,115.13513769999918,115.13513769999918,115.13513769999918,115.13513769999918,115.13513769999918,115.13513769999918,115.13513769999918,115.13513769999918,115.13513769999918,,003,P010,2025_Feb_01_1514,ConditionRich,2021.2.3,59.948444338299105,
82.0,82.75,18,0.75,Stimuli/P010/sun_bwjdahsxcqepqqbm.jpg,0,0,0.0,0,157,157,157,,,,,,,,,,,,,82.02072130000306,0.020721300003060605,None,115.36868110000069,115.36868110000069,115.36868110000069,115.36868110000069,115.36868110000069,115.36868110000069,115.36868110000069,115.36868110000069,115.36868110000069,115.36868110000069,,003,P010,2025_Feb_01_1514,ConditionRich,2021.2.3,59.948444338299105,
82.75,83.0,41,0.0,Stimuli/Blank.png,0,0,0.0,0,158,158,158,,,,,,,,,,,,,82.75527590000274,0.005275900002743583,None,116.10267419999946,116.10267419999946,116.10267419999946,116.10267419999946,116.10267419999946,116.10267419999946,116.10267419999946,116.10267419999946,116.10267419999946,116.10267419999946,,003,P010,2025_Feb_01_1514,ConditionRich,2021.2.3,59.948444338299105,
83.0,83.75,18,0.75,Stimuli/P010/sun_bwjdahsxcqepqqbm.jpg,0,0,0.0,0,159,159,159,,,,,,,,,,,,,83.00695230000201,0.006952300002012635,None,116.36956500000088,116.36956500000088,116.36956500000088,116.36956500000088,116.36956500000088,116.36956500000088,116.36956500000088,116.36956500000088,116.36956500000088,116.36956500000088,,003,P010,2025_Feb_01_1514,ConditionRich,2021.2.3,59.948444338299105,
83.75,84.0,41,0.0,Stimuli/Blank.png,0,0,0.0,0,160,160,160,,,,,,,,,,,,,83.77341680000245,0.023416800002451055,None,117.13692900000024,117.13692900000024,117.13692900000024,117.13692900000024,117.13692900000024,117.13692900000024,117.13692900000024,117.13692900000024,117.13692900000024,117.13692900000024,,003,P010,2025_Feb_01_1514,ConditionRich,2021.2.3,59.948444338299105,
84.0,100.0,0,0.0,Stimuli/Blank.png,1,13,13.75,0,161,161,161,,,,,,,,,,,,,84.0226270000021,0.02262700000210316,1,117.37044650000098,117.37044650000098,117.37044650000098,117.37044650000098,117.37044650000098,117.37044650000098,130.3486051,131.09925250000015,117.37044650000098,117.37044650000098,13.479574600001797,003,P010,2025_Feb_01_1514,ConditionRich,2021.2.3,59.948444338299105,
100.0,100.75,4,0.75,Stimuli/P010/sun_afkzdukwewwzqtmr.jpg,0,0,0.0,0,162,162,162,,,,,,,,,,,,,100.0038506000019,0.0038506000018969644,None,133.3512582000003,133.3512582000003,133.3512582000003,133.3512582000003,133.3512582000003,133.3512582000003,133.3512582000003,133.3512582000003,133.3512582000003,133.3512582000003,,003,P010,2025_Feb_01_1514,ConditionRich,2021.2.3,59.948444338299105,
100.75,101.0,41,0.0,Stimuli/Blank.png,0,0,0.0,0,163,163,163,,,,,,,,,,,,,100.75437480000255,0.004374800002551638,None,134.1019273999991,134.1019273999991,134.1019273999991,134.1019273999991,134.1019273999991,134.1019273999991,134.1019273999991,134.1019273999991,134.1019273999991,134.1019273999991,,003,P010,2025_Feb_01_1514,ConditionRich,2021.2.3,59.948444338299105,
101.0,101.75,4,0.75,Stimuli/P010/sun_afkzdukwewwzqtmr.jpg,0,0,0.0,0,164,164,164,,,,,,,,,,,,,101.00693690000116,0.006936900001164759,None,134.36881920000087,134.36881920000087,134.36881920000087,134.36881920000087,134.36881920000087,134.36881920000087,134.36881920000087,134.36881920000087,134.36881920000087,134.36881920000087,,003,P010,2025_Feb_01_1514,ConditionRich,2021.2.3,59.948444338299105,
101.75,102.0,41,0.0,Stimuli/Blank.png,0,0,0.0,0,165,165,165,,,,,,,,,,,,,101.7714734000001,0.021473400000104448,None,135.11949690000256,135.11949690000256,135.11949690000256,135.11949690000256,135.11949690000256,135.11949690000256,135.11949690000256,135.11949690000256,135.11949690000256,135.11949690000256,,003,P010,2025_Feb_01_1514,ConditionRich,2021.2.3,59.948444338299105,
102.0,102.75,4,0.75,Stimuli/P010/sun_afkzdukwewwzqtmr.jpg,1,0,0.75,0,166,166,166,,,,,,,,,,,,,102.0071484,0.007148400000005495,1,135.36970010000005,135.36970010000005,135.36970010000005,135.36970010000005,135.36970010000005,135.36970010000005,135.36970010000005,136.10370070000135,135.36970010000005,135.36970010000005,0.43140539999876637,003,P010,2025_Feb_01_1514,ConditionRich,2021.2.3,59.948444338299105,
102.75,103.0,41,0.0,Stimuli/Blank.png,0,0,0.0,0,167,167,167,,,,,,,,,,,,,102.77308280000216,0.023082800002157455,None,136.12036910000097,136.12036910000097,136.12036910000097,136.12036910000097,136.12036910000097,136.12036910000097,136.12036910000097,136.12036910000097,136.12036910000097,136.12036910000097,,003,P010,2025_Feb_01_1514,ConditionRich,2021.2.3,59.948444338299105,
103.0,103.75,4,0.75,Stimuli/P010/sun_afkzdukwewwzqtmr.jpg,0,0,0.0,0,168,168,168,,,,,,,,,,,,,103.00655110000298,0.0065511000029800925,None,136.3706340000026,136.3706340000026,136.3706340000026,136.3706340000026,136.3706340000026,136.3706340000026,136.3706340000026,136.3706340000026,136.3706340000026,136.3706340000026,,003,P010,2025_Feb_01_1514,ConditionRich,2021.2.3,59.948444338299105,
103.75,104.0,41,0.0,Stimuli/Blank.png,0,0,0.0,0,169,169,169,,,,,,,,,,,,,103.77330840000286,0.023308400002861163,None,137.121277000002,137.121277000002,137.121277000002,137.121277000002,137.121277000002,137.121277000002,137.121277000002,137.121277000002,137.121277000002,137.121277000002,,003,P010,2025_Feb_01_1514,ConditionRich,2021.2.3,59.948444338299105,
104.0,104.75,32,0.75,Stimuli/P010/things_hawk_05s.jpg,0,0,0.0,0,170,170,170,,,,,,,,,,,,,104.0075152999998,0.007515299999795388,None,137.37147249999907,137.37147249999907,137.37147249999907,137.37147249999907,137.37147249999907,137.37147249999907,137.37147249999907,137.37147249999907,137.37147249999907,137.37147249999907,,003,P010,2025_Feb_01_1514,ConditionRich,2021.2.3,59.948444338299105,
104.75,105.0,41,0.0,Stimuli/Blank.png,0,0,0.0,0,171,171,171,,,,,,,,,,,,,104.77457290000166,0.024572900001658127,None,138.12213899999915,138.12213899999915,138.12213899999915,138.12213899999915,138.12213899999915,138.12213899999915,138.12213899999915,138.12213899999915,138.12213899999915,138.12213899999915,,003,P010,2025_Feb_01_1514,ConditionRich,2021.2.3,59.948444338299105,
105.0,105.75,32,0.75,Stimuli/P010/things_hawk_05s.jpg,0,0,0.0,0,172,172,172,,,,,,,,,,,,,105.00751710000259,0.00751710000258754,None,138.3556767000009,138.3556767000009,138.3556767000009,138.3556767000009,138.3556767000009,138.3556767000009,138.3556767000009,138.3556767000009,138.3556767000009,138.3556767000009,,003,P010,2025_Feb_01_1514,ConditionRich,2021.2.3,59.948444338299105,
105.75,106.0,41,0.0,Stimuli/Blank.png,0,0,0.0,0,173,173,173,,,,,,,,,,,,,105.7582164000014,0.00821640000140178,None,139.10634969999956,139.10634969999956,139.10634969999956,139.10634969999956,139.10634969999956,139.10634969999956,139.10634969999956,139.10634969999956,139.10634969999956,139.10634969999956,,003,P010,2025_Feb_01_1514,ConditionRich,2021.2.3,59.948444338299105,
106.0,106.75,32,0.75,Stimuli/P010/things_hawk_05s.jpg,0,0,0.0,0,174,174,174,,,,,,,,,,,,,106.00910880000083,0.009108800000831252,None,139.3565359000022,139.3565359000022,139.3565359000022,139.3565359000022,139.3565359000022,139.3565359000022,139.3565359000022,139.3565359000022,139.3565359000022,139.3565359000022,,003,P010,2025_Feb_01_1514,ConditionRich,2021.2.3,59.948444338299105,
106.75,107.0,41,0.0,Stimuli/Blank.png,0,0,0.0,0,175,175,175,,,,,,,,,,,,,106.7619556000027,0.011955600002693245,None,140.12395549999928,140.12395549999928,140.12395549999928,140.12395549999928,140.12395549999928,140.12395549999928,140.12395549999928,140.12395549999928,140.12395549999928,140.12395549999928,,003,P010,2025_Feb_01_1514,ConditionRich,2021.2.3,59.948444338299105,
107.0,107.75,32,0.75,Stimuli/P010/things_hawk_05s.jpg,0,0,0.0,0,176,176,176,,,,,,,,,,,,,107.02729440000257,0.027294400002574548,None,140.39084390000062,140.39084390000062,140.39084390000062,140.39084390000062,140.39084390000062,140.39084390000062,140.39084390000062,140.39084390000062,140.39084390000062,140.39084390000062,,003,P010,2025_Feb_01_1514,ConditionRich,2021.2.3,59.948444338299105,
107.75,108.0,41,0.0,Stimuli/Blank.png,0,0,0.0,0,177,177,177,,,,,,,,,,,,,107.77725970000029,0.027259700000286102,None,141.12479430000167,141.12479430000167,141.12479430000167,141.12479430000167,141.12479430000167,141.12479430000167,141.12479430000167,141.12479430000167,141.12479430000167,141.12479430000167,,003,P010,2025_Feb_01_1514,ConditionRich,2021.2.3,59.948444338299105,
108.0,108.75,22,0.75,Stimuli/P010/things_butterfly_05s.jpg,0,0,0.0,0,178,178,178,,,,,,,,,,,,,108.01407600000312,0.014076000003115041,None,141.3750175000023,141.3750175000023,141.3750175000023,141.3750175000023,141.3750175000023,141.3750175000023,141.3750175000023,141.3750175000023,141.3750175000023,141.3750175000023,,003,P010,2025_Feb_01_1514,ConditionRich,2021.2.3,59.948444338299105,
108.75,109.0,41,0.0,Stimuli/Blank.png,0,0,0.0,0,179,179,179,,,,,,,,,,,,,108.77767240000321,0.027672400003211806,None,142.12567990000025,142.12567990000025,142.12567990000025,142.12567990000025,142.12567990000025,142.12567990000025,142.12567990000025,142.12567990000025,142.12567990000025,142.12567990000025,,003,P010,2025_Feb_01_1514,ConditionRich,2021.2.3,59.948444338299105,
109.0,109.75,22,0.75,Stimuli/P010/things_butterfly_05s.jpg,0,0,0.0,0,180,180,180,,,,,,,,,,,,,109.01186030000099,0.01186030000098981,None,142.35922550000032,142.35922550000032,142.35922550000032,142.35922550000032,142.35922550000032,142.35922550000032,142.35922550000032,142.35922550000032,142.35922550000032,142.35922550000032,,003,P010,2025_Feb_01_1514,ConditionRich,2021.2.3,59.948444338299105,
109.75,110.0,41,0.0,Stimuli/Blank.png,0,0,0.0,0,181,181,181,,,,,,,,,,,,,109.76182380000319,0.01182380000318517,None,143.10988590000125,143.10988590000125,143.10988590000125,143.10988590000125,143.10988590000125,143.10988590000125,143.10988590000125,143.10988590000125,143.10988590000125,143.10988590000125,,003,P010,2025_Feb_01_1514,ConditionRich,2021.2.3,59.948444338299105,
110.0,110.75,22,0.75,Stimuli/P010/things_butterfly_05s.jpg,0,0,0.0,0,182,182,182,,,,,,,,,,,,,110.01187639999989,0.011876399999891873,None,143.3601075000006,143.3601075000006,143.3601075000006,143.3601075000006,143.3601075000006,143.3601075000006,143.3601075000006,143.3601075000006,143.3601075000006,143.3601075000006,,003,P010,2025_Feb_01_1514,ConditionRich,2021.2.3,59.948444338299105,
110.75,111.0,41,0.0,Stimuli/Blank.png,0,0,0.0,0,183,183,183,,,,,,,,,,,,,110.76295780000146,0.012957800001458963,None,144.1107785000022,144.1107785000022,144.1107785000022,144.1107785000022,144.1107785000022,144.1107785000022,144.1107785000022,144.1107785000022,144.1107785000022,144.1107785000022,,003,P010,2025_Feb_01_1514,ConditionRich,2021.2.3,59.948444338299105,
111.0,111.75,22,0.75,Stimuli/P010/things_butterfly_05s.jpg,0,0,0.0,0,184,184,184,,,,,,,,,,,,,111.01300130000163,0.013001300001633354,None,144.3609948000012,144.3609948000012,144.3609948000012,144.3609948000012,144.3609948000012,144.3609948000012,144.3609948000012,144.3609948000012,144.3609948000012,144.3609948000012,,003,P010,2025_Feb_01_1514,ConditionRich,2021.2.3,59.948444338299105,
111.75,112.0,41,0.0,Stimuli/Blank.png,0,0,0.0,0,185,185,185,,,,,,,,,,,,,111.76378100000147,0.013781000001472421,None,145.11165620000247,145.11165620000247,145.11165620000247,145.11165620000247,145.11165620000247,145.11165620000247,145.11165620000247,145.11165620000247,145.11165620000247,145.11165620000247,,003,P010,2025_Feb_01_1514,ConditionRich,2021.2.3,59.948444338299105,
112.0,112.75,2,0.75,Stimuli/P010/sun_acvloibbxiqpiwnv.jpg,0,0,0.0,0,186,186,186,,,,,,,,,,,,,112.01427230000263,0.0142723000026308,None,145.36187530000097,145.36187530000097,145.36187530000097,145.36187530000097,145.36187530000097,145.36187530000097,145.36187530000097,145.36187530000097,145.36187530000097,145.36187530000097,,003,P010,2025_Feb_01_1514,ConditionRich,2021.2.3,59.948444338299105,
112.75,113.0,41,0.0,Stimuli/Blank.png,0,0,0.0,0,187,187,187,,,,,,,,,,,,,112.76515220000147,0.015152200001466554,None,146.11256240000148,146.11256240000148,146.11256240000148,146.11256240000148,146.11256240000148,146.11256240000148,146.11256240000148,146.11256240000148,146.11256240000148,146.11256240000148,,003,P010,2025_Feb_01_1514,ConditionRich,2021.2.3,59.948444338299105,
113.0,113.75,2,0.75,Stimuli/P010/sun_acvloibbxiqpiwnv.jpg,1,0,0.75,0,188,188,188,,,,,,,,,,,,,113.01537500000268,0.015375000002677552,None,146.37948519999918,146.37948519999918,146.37948519999918,146.37948519999918,146.37948519999918,146.37948519999918,146.37948519999918,147.09678260000146,146.37948519999918,146.37948519999918,,003,P010,2025_Feb_01_1514,ConditionRich,2021.2.3,59.948444338299105,
113.75,114.0,41,0.0,Stimuli/Blank.png,0,0,0.0,0,189,189,189,,,,,,,,,,,,,113.76651100000163,0.016511000001628418,1,147.1134469000026,147.1134469000026,147.1134469000026,147.1134469000026,147.1134469000026,147.1134469000026,147.1134469000026,147.1134469000026,147.1134469000026,147.1134469000026,0.031549199997243704,003,P010,2025_Feb_01_1514,ConditionRich,2021.2.3,59.948444338299105,
114.0,114.75,2,0.75,Stimuli/P010/sun_acvloibbxiqpiwnv.jpg,0,0,0.0,0,190,190,190,,,,,,,,,,,,,113.99984670000049,-0.00015329999951063655,None,147.36364900000262,147.36364900000262,147.36364900000262,147.36364900000262,147.36364900000262,147.36364900000262,147.36364900000262,147.36364900000262,147.36364900000262,147.36364900000262,,003,P010,2025_Feb_01_1514,ConditionRich,2021.2.3,59.948444338299105,
114.75,115.0,41,0.0,Stimuli/Blank.png,0,0,0.0,0,191,191,191,,,,,,,,,,,,,114.76671070000157,0.016710700001567602,None,148.1143161,148.1143161,148.1143161,148.1143161,148.1143161,148.1143161,148.1143161,148.1143161,148.1143161,148.1143161,,003,P010,2025_Feb_01_1514,ConditionRich,2021.2.3,59.948444338299105,
115.0,115.75,2,0.75,Stimuli/P010/sun_acvloibbxiqpiwnv.jpg,0,0,0.0,0,192,192,192,,,,,,,,,,,,,114.99980660000074,-0.0001933999992616009,None,148.36454400000002,148.36454400000002,148.36454400000002,148.36454400000002,148.36454400000002,148.36454400000002,148.36454400000002,148.36454400000002,148.36454400000002,148.36454400000002,,003,P010,2025_Feb_01_1514,ConditionRich,2021.2.3,59.948444338299105,
115.75,116.0,41,0.0,Stimuli/Blank.png,0,0,0.0,0,193,193,193,,,,,,,,,,,,,115.7672885000029,0.017288500002905494,None,149.11520100000052,149.11520100000052,149.11520100000052,149.11520100000052,149.11520100000052,149.11520100000052,149.11520100000052,149.11520100000052,149.11520100000052,149.11520100000052,,003,P010,2025_Feb_01_1514,ConditionRich,2021.2.3,59.948444338299105,
116.0,116.75,11,0.75,Stimuli/P010/sun_bfyvfqiimvdaxlqn.jpg,0,0,0.0,0,194,194,194,,,,,,,,,,,,,116.00184160000208,0.0018416000020806678,None,149.36542330000157,149.36542330000157,149.36542330000157,149.36542330000157,149.36542330000157,149.36542330000157,149.36542330000157,149.36542330000157,149.36542330000157,149.36542330000157,,003,P010,2025_Feb_01_1514,ConditionRich,2021.2.3,59.948444338299105,
116.75,117.0,41,0.0,Stimuli/Blank.png,0,0,0.0,0,195,195,195,,,,,,,,,,,,,116.76868050000121,0.01868050000121002,None,150.11609750000207,150.11609750000207,150.11609750000207,150.11609750000207,150.11609750000207,150.11609750000207,150.11609750000207,150.11609750000207,150.11609750000207,150.11609750000207,,003,P010,2025_Feb_01_1514,ConditionRich,2021.2.3,59.948444338299105,
117.0,117.75,11,0.75,Stimuli/P010/sun_bfyvfqiimvdaxlqn.jpg,0,0,0.0,0,196,196,196,,,,,,,,,,,,,117.00263360000099,0.0026336000009905547,None,150.34963570000036,150.34963570000036,150.34963570000036,150.34963570000036,150.34963570000036,150.34963570000036,150.34963570000036,150.34963570000036,150.34963570000036,150.34963570000036,,003,P010,2025_Feb_01_1514,ConditionRich,2021.2.3,59.948444338299105,
117.75,118.0,41,0.0,Stimuli/Blank.png,0,0,0.0,0,197,197,197,,,,,,,,,,,,,117.7522538000012,0.0022538000011991244,None,151.10028990000137,151.10028990000137,151.10028990000137,151.10028990000137,151.10028990000137,151.10028990000137,151.10028990000137,151.10028990000137,151.10028990000137,151.10028990000137,,003,P010,2025_Feb_01_1514,ConditionRich,2021.2.3,59.948444338299105,
118.0,118.75,11,0.75,Stimuli/P010/sun_bfyvfqiimvdaxlqn.jpg,0,0,0.0,0,198,198,198,,,,,,,,,,,,,118.00246830000106,0.002468300001055468,None,151.35051680000106,151.35051680000106,151.35051680000106,151.35051680000106,151.35051680000106,151.35051680000106,151.35051680000106,151.35051680000106,151.35051680000106,151.35051680000106,,003,P010,2025_Feb_01_1514,ConditionRich,2021.2.3,59.948444338299105,
118.75,119.0,41,0.0,Stimuli/Blank.png,0,0,0.0,0,199,199,199,,,,,,,,,,,,,118.75373310000214,0.00373310000213678,None,152.1011741000002,152.1011741000002,152.1011741000002,152.1011741000002,152.1011741000002,152.1011741000002,152.1011741000002,152.1011741000002,152.1011741000002,152.1011741000002,,003,P010,2025_Feb_01_1514,ConditionRich,2021.2.3,59.948444338299105,
119.0,119.75,11,0.75,Stimuli/P010/sun_bfyvfqiimvdaxlqn.jpg,0,0,0.0,0,200,200,200,,,,,,,,,,,,,119.0039269000008,0.003926900000806199,None,152.3514047000026,152.3514047000026,152.3514047000026,152.3514047000026,152.3514047000026,152.3514047000026,152.3514047000026,152.3514047000026,152.3514047000026,152.3514047000026,,003,P010,2025_Feb_01_1514,ConditionRich,2021.2.3,59.948444338299105,
119.75,120.0,41,0.0,Stimuli/Blank.png,0,0,0.0,0,201,201,201,,,,,,,,,,,,,119.75460139999996,0.004601399999955902,None,153.1020583999998,153.1020583999998,153.1020583999998,153.1020583999998,153.1020583999998,153.1020583999998,153.1020583999998,153.1020583999998,153.1020583999998,153.1020583999998,,003,P010,2025_Feb_01_1514,ConditionRich,2021.2.3,59.948444338299105,
120.0,120.75,20,0.75,Stimuli/P010/sun_ddsiwinthvyejghq.jpg,0,0,0.0,0,202,202,202,,,,,,,,,,,,,120.00477740000133,0.004777400001330534,None,153.36896120000165,153.36896120000165,153.36896120000165,153.36896120000165,153.36896120000165,153.36896120000165,153.36896120000165,153.36896120000165,153.36896120000165,153.36896120000165,,003,P010,2025_Feb_01_1514,ConditionRich,2021.2.3,59.948444338299105,
120.75,121.0,41,0.0,Stimuli/Blank.png,0,0,0.0,0,203,203,203,,,,,,,,,,,,,120.772517100002,0.022517100002005463,None,154.1196431999997,154.1196431999997,154.1196431999997,154.1196431999997,154.1196431999997,154.1196431999997,154.1196431999997,154.1196431999997,154.1196431999997,154.1196431999997,,003,P010,2025_Feb_01_1514,ConditionRich,2021.2.3,59.948444338299105,
121.0,121.75,20,0.75,Stimuli/P010/sun_ddsiwinthvyejghq.jpg,0,0,0.0,0,204,204,204,,,,,,,,,,,,,121.00630530000126,0.006305300001258729,None,154.36984900000243,154.36984900000243,154.36984900000243,154.36984900000243,154.36984900000243,154.36984900000243,154.36984900000243,154.36984900000243,154.36984900000243,154.36984900000243,,003,P010,2025_Feb_01_1514,ConditionRich,2021.2.3,59.948444338299105,
121.75,122.0,41,0.0,Stimuli/Blank.png,0,0,0.0,0,205,205,205,,,,,,,,,,,,,121.7727816000006,0.0227816000005987,None,155.12058040000193,155.12058040000193,155.12058040000193,155.12058040000193,155.12058040000193,155.12058040000193,155.12058040000193,155.12058040000193,155.12058040000193,155.12058040000193,,003,P010,2025_Feb_01_1514,ConditionRich,2021.2.3,59.948444338299105,
122.0,122.75,20,0.75,Stimuli/P010/sun_ddsiwinthvyejghq.jpg,0,0,0.0,0,206,206,206,,,,,,,,,,,,,122.00750800000242,0.007508000002417248,None,155.37073180000152,155.37073180000152,155.37073180000152,155.37073180000152,155.37073180000152,155.37073180000152,155.37073180000152,155.37073180000152,155.37073180000152,155.37073180000152,,003,P010,2025_Feb_01_1514,ConditionRich,2021.2.3,59.948444338299105,
122.75,123.0,41,0.0,Stimuli/Blank.png,0,0,0.0,0,207,207,207,,,,,,,,,,,,,122.77407650000168,0.0240765000016836,None,156.1214777000023,156.1214777000023,156.1214777000023,156.1214777000023,156.1214777000023,156.1214777000023,156.1214777000023,156.1214777000023,156.1214777000023,156.1214777000023,,003,P010,2025_Feb_01_1514,ConditionRich,2021.2.3,59.948444338299105,
123.0,123.75,20,0.75,Stimuli/P010/sun_ddsiwinthvyejghq.jpg,0,0,0.0,0,208,208,208,,,,,,,,,,,,,123.00760190000074,0.00760190000073635,None,156.37164069999926,156.37164069999926,156.37164069999926,156.37164069999926,156.37164069999926,156.37164069999926,156.37164069999926,156.37164069999926,156.37164069999926,156.37164069999926,,003,P010,2025_Feb_01_1514,ConditionRich,2021.2.3,59.948444338299105,
123.75,124.0,41,0.0,Stimuli/Blank.png,0,0,0.0,0,209,209,209,,,,,,,,,,,,,123.77427580000221,0.024275800002214964,None,157.12228460000188,157.12228460000188,157.12228460000188,157.12228460000188,157.12228460000188,157.12228460000188,157.12228460000188,157.12228460000188,157.12228460000188,157.12228460000188,,003,P010,2025_Feb_01_1514,ConditionRich,2021.2.3,59.948444338299105,
124.0,124.75,29,0.75,Stimuli/P010/things_fingerprint_05s.jpg,0,0,0.0,0,210,210,210,,,,,,,,,,,,,124.00790270000289,0.007902700002887286,None,157.35579019999932,157.35579019999932,157.35579019999932,157.35579019999932,157.35579019999932,157.35579019999932,157.35579019999932,157.35579019999932,157.35579019999932,157.35579019999932,,003,P010,2025_Feb_01_1514,ConditionRich,2021.2.3,59.948444338299105,
124.75,125.0,41,0.0,Stimuli/Blank.png,0,0,0.0,0,211,211,211,,,,,,,,,,,,,124.75917780000236,0.009177800002362346,None,158.10649299999932,158.10649299999932,158.10649299999932,158.10649299999932,158.10649299999932,158.10649299999932,158.10649299999932,158.10649299999932,158.10649299999932,158.10649299999932,,003,P010,2025_Feb_01_1514,ConditionRich,2021.2.3,59.948444338299105,
125.0,125.75,29,0.75,Stimuli/P010/things_fingerprint_05s.jpg,0,0,0.0,0,212,212,212,,,,,,,,,,,,,125.00939910000307,0.009399100003065541,None,158.3734184999994,158.3734184999994,158.3734184999994,158.3734184999994,158.3734184999994,158.3734184999994,158.3734184999994,158.3734184999994,158.3734184999994,158.3734184999994,,003,P010,2025_Feb_01_1514,ConditionRich,2021.2.3,59.948444338299105,
125.75,126.0,41,0.0,Stimuli/Blank.png,0,0,0.0,0,213,213,213,,,,,,,,,,,,,125.77755820000311,0.027558200003113598,None,159.1240691999992,159.1240691999992,159.1240691999992,159.1240691999992,159.1240691999992,159.1240691999992,159.1240691999992,159.1240691999992,159.1240691999992,159.1240691999992,,003,P010,2025_Feb_01_1514,ConditionRich,2021.2.3,59.948444338299105,
126.0,126.75,29,0.75,Stimuli/P010/things_fingerprint_05s.jpg,0,0,0.0,0,214,214,214,,,,,,,,,,,,,126.00950180000291,0.009501800002908567,None,159.3575959000009,159.3575959000009,159.3575959000009,159.3575959000009,159.3575959000009,159.3575959000009,159.3575959000009,159.3575959000009,159.3575959000009,159.3575959000009,,003,P010,2025_Feb_01_1514,ConditionRich,2021.2.3,59.948444338299105,
126.75,127.0,41,0.0,Stimuli/Blank.png,0,0,0.0,0,215,215,215,,,,,,,,,,,,,126.76063790000262,0.010637900002620881,None,160.1083080999997,160.1083080999997,160.1083080999997,160.1083080999997,160.1083080999997,160.1083080999997,160.1083080999997,160.1083080999997,160.1083080999997,160.1083080999997,,003,P010,2025_Feb_01_1514,ConditionRich,2021.2.3,59.948444338299105,
127.0,127.75,29,0.75,Stimuli/P010/things_fingerprint_05s.jpg,0,0,0.0,0,216,216,216,,,,,,,,,,,,,127.01137780000136,0.011377800001355354,None,160.35848550000082,160.35848550000082,160.35848550000082,160.35848550000082,160.35848550000082,160.35848550000082,160.35848550000082,160.35848550000082,160.35848550000082,160.35848550000082,,003,P010,2025_Feb_01_1514,ConditionRich,2021.2.3,59.948444338299105,
127.75,128.0,41,0.0,Stimuli/Blank.png,0,0,0.0,0,217,217,217,,,,,,,,,,,,,127.76098620000266,0.010986200002662372,None,161.1091935000004,161.1091935000004,161.1091935000004,161.1091935000004,161.1091935000004,161.1091935000004,161.1091935000004,161.1091935000004,161.1091935000004,161.1091935000004,,003,P010,2025_Feb_01_1514,ConditionRich,2021.2.3,59.948444338299105,
128.0,128.75,26,0.75,Stimuli/P010/things_cookie_sheet_05s.jpg,0,0,0.0,0,218,218,218,,,,,,,,,,,,,128.01119250000193,0.01119250000192551,None,161.359365100001,161.359365100001,161.359365100001,161.359365100001,161.359365100001,161.359365100001,161.359365100001,161.359365100001,161.359365100001,161.359365100001,,003,P010,2025_Feb_01_1514,ConditionRich,2021.2.3,59.948444338299105,
128.75,129.0,41,0.0,Stimuli/Blank.png,0,0,0.0,0,219,219,219,,,,,,,,,,,,,128.76302530000248,0.013025300002482254,None,162.11003400000118,162.11003400000118,162.11003400000118,162.11003400000118,162.11003400000118,162.11003400000118,162.11003400000118,162.11003400000118,162.11003400000118,162.11003400000118,,003,P010,2025_Feb_01_1514,ConditionRich,2021.2.3,59.948444338299105,
129.0,129.75,26,0.75,Stimuli/P010/things_cookie_sheet_05s.jpg,0,0,0.0,0,220,220,220,,,,,,,,,,,,,129.01224210000146,0.012242100001458311,None,162.36025280000104,162.36025280000104,162.36025280000104,162.36025280000104,162.36025280000104,162.36025280000104,162.36025280000104,162.36025280000104,162.36025280000104,162.36025280000104,,003,P010,2025_Feb_01_1514,ConditionRich,2021.2.3,59.948444338299105,
129.75,130.0,41,0.0,Stimuli/Blank.png,0,0,0.0,0,221,221,221,,,,,,,,,,,,,129.76326650000192,0.013266500001918757,None,163.11091680000027,163.11091680000027,163.11091680000027,163.11091680000027,163.11091680000027,163.11091680000027,163.11091680000027,163.11091680000027,163.11091680000027,163.11091680000027,,003,P010,2025_Feb_01_1514,ConditionRich,2021.2.3,59.948444338299105,
130.0,130.75,26,0.75,Stimuli/P010/things_cookie_sheet_05s.jpg,0,0,0.0,0,222,222,222,,,,,,,,,,,,,130.0130562000013,0.013056200001301477,None,163.3611617000024,163.3611617000024,163.3611617000024,163.3611617000024,163.3611617000024,163.3611617000024,163.3611617000024,163.3611617000024,163.3611617000024,163.3611617000024,,003,P010,2025_Feb_01_1514,ConditionRich,2021.2.3,59.948444338299105,
130.75,131.0,41,0.0,Stimuli/Blank.png,0,0,0.0,0,223,223,223,,,,,,,,,,,,,130.76407060000201,0.014070600002014544,None,164.11189020000165,164.11189020000165,164.11189020000165,164.11189020000165,164.11189020000165,164.11189020000165,164.11189020000165,164.11189020000165,164.11189020000165,164.11189020000165,,003,P010,2025_Feb_01_1514,ConditionRich,2021.2.3,59.948444338299105,
131.0,131.75,26,0.75,Stimuli/P010/things_cookie_sheet_05s.jpg,0,0,0.0,0,224,224,224,,,,,,,,,,,,,131.01695090000067,0.01695090000066557,None,164.37870880000264,164.37870880000264,164.37870880000264,164.37870880000264,164.37870880000264,164.37870880000264,164.37870880000264,164.37870880000264,164.37870880000264,164.37870880000264,,003,P010,2025_Feb_01_1514,ConditionRich,2021.2.3,59.948444338299105,
131.75,132.0,41,0.0,Stimuli/Blank.png,0,0,0.0,0,225,225,225,,,,,,,,,,,,,131.7653371000015,0.01533710000148858,None,165.1127000000015,165.1127000000015,165.1127000000015,165.1127000000015,165.1127000000015,165.1127000000015,165.1127000000015,165.1127000000015,165.1127000000015,165.1127000000015,,003,P010,2025_Feb_01_1514,ConditionRich,2021.2.3,59.948444338299105,
132.0,132.75,8,0.75,Stimuli/P010/sun_batcnoizlkeiqdtx.jpg,0,0,0.0,0,226,226,226,,,,,,,,,,,,,132.01473630000328,0.014736300003278302,None,165.37959970000156,165.37959970000156,165.37959970000156,165.37959970000156,165.37959970000156,165.37959970000156,165.37959970000156,165.37959970000156,165.37959970000156,165.37959970000156,,003,P010,2025_Feb_01_1514,ConditionRich,2021.2.3,59.948444338299105,
132.75,133.0,41,0.0,Stimuli/Blank.png,0,0,0.0,0,227,227,227,,,,,,,,,,,,,132.7830236000009,0.03302360000088811,None,166.13025800000105,166.13025800000105,166.13025800000105,166.13025800000105,166.13025800000105,166.13025800000105,166.13025800000105,166.13025800000105,166.13025800000105,166.13025800000105,,003,P010,2025_Feb_01_1514,ConditionRich,2021.2.3,59.948444338299105,
133.0,133.75,8,0.75,Stimuli/P010/sun_batcnoizlkeiqdtx.jpg,0,0,0.0,0,228,228,228,,,,,,,,,,,,,132.99910490000184,-0.000895099998160731,None,166.36380740000095,166.36380740000095,166.36380740000095,166.36380740000095,166.36380740000095,166.36380740000095,166.36380740000095,166.36380740000095,166.36380740000095,166.36380740000095,,003,P010,2025_Feb_01_1514,ConditionRich,2021.2.3,59.948444338299105,
133.75,134.0,41,0.0,Stimuli/Blank.png,0,0,0.0,0,229,229,229,,,,,,,,,,,,,133.76796509999986,0.017965099999855738,None,167.11446490000162,167.11446490000162,167.11446490000162,167.11446490000162,167.11446490000162,167.11446490000162,167.11446490000162,167.11446490000162,167.11446490000162,167.11446490000162,,003,P010,2025_Feb_01_1514,ConditionRich,2021.2.3,59.948444338299105,
134.0,134.75,8,0.75,Stimuli/P010/sun_batcnoizlkeiqdtx.jpg,0,0,0.0,0,230,230,230,,,,,,,,,,,,,134.00199740000244,0.0019974000024376437,None,167.36468349999996,167.36468349999996,167.36468349999996,167.36468349999996,167.36468349999996,167.36468349999996,167.36468349999996,167.36468349999996,167.36468349999996,167.36468349999996,,003,P010,2025_Feb_01_1514,ConditionRich,2021.2.3,59.948444338299105,
134.75,135.0,41,0.0,Stimuli/Blank.png,0,0,0.0,0,231,231,231,,,,,,,,,,,,,134.76804510000147,0.018045100001472747,None,168.11536049999995,168.11536049999995,168.11536049999995,168.11536049999995,168.11536049999995,168.11536049999995,168.11536049999995,168.11536049999995,168.11536049999995,168.11536049999995,,003,P010,2025_Feb_01_1514,ConditionRich,2021.2.3,59.948444338299105,
135.0,135.75,8,0.75,Stimuli/P010/sun_batcnoizlkeiqdtx.jpg,0,0,0.0,0,232,232,232,,,,,,,,,,,,,135.00205930000084,0.0020593000008375384,None,168.36558460000015,168.36558460000015,168.36558460000015,168.36558460000015,168.36558460000015,168.36558460000015,168.36558460000015,168.36558460000015,168.36558460000015,168.36558460000015,,003,P010,2025_Feb_01_1514,ConditionRich,2021.2.3,59.948444338299105,
135.75,136.0,41,0.0,Stimuli/Blank.png,0,0,0.0,0,233,233,233,,,,,,,,,,,,,135.76878190000207,0.01878190000206814,None,169.1162418999993,169.1162418999993,169.1162418999993,169.1162418999993,169.1162418999993,169.1162418999993,169.1162418999993,169.1162418999993,169.1162418999993,169.1162418999993,,003,P010,2025_Feb_01_1514,ConditionRich,2021.2.3,59.948444338299105,
136.0,136.75,7,0.75,Stimuli/P010/sun_apiogxmvvzfmtsmj.jpg,0,0,0.0,0,234,234,234,,,,,,,,,,,,,136.00261840000167,0.0026184000016655773,None,169.3664521999999,169.3664521999999,169.3664521999999,169.3664521999999,169.3664521999999,169.3664521999999,169.3664521999999,169.3664521999999,169.3664521999999,169.3664521999999,,003,P010,2025_Feb_01_1514,ConditionRich,2021.2.3,59.948444338299105,
136.75,137.0,41,0.0,Stimuli/Blank.png,0,0,0.0,0,235,235,235,,,,,,,,,,,,,136.76979810000194,0.01979810000193538,None,170.1172105000005,170.1172105000005,170.1172105000005,170.1172105000005,170.1172105000005,170.1172105000005,170.1172105000005,170.1172105000005,170.1172105000005,170.1172105000005,,003,P010,2025_Feb_01_1514,ConditionRich,2021.2.3,59.948444338299105,
137.0,137.75,7,0.75,Stimuli/P010/sun_apiogxmvvzfmtsmj.jpg,0,0,0.0,0,236,236,236,,,,,,,,,,,,,137.00281820000237,0.0028182000023662113,None,170.35065910000048,170.35065910000048,170.35065910000048,170.35065910000048,170.35065910000048,170.35065910000048,170.35065910000048,170.35065910000048,170.35065910000048,170.35065910000048,,003,P010,2025_Feb_01_1514,ConditionRich,2021.2.3,59.948444338299105,
137.75,138.0,41,0.0,Stimuli/Blank.png,0,0,0.0,0,237,237,237,,,,,,,,,,,,,137.75337180000133,0.0033718000013323035,None,171.10132000000158,171.10132000000158,171.10132000000158,171.10132000000158,171.10132000000158,171.10132000000158,171.10132000000158,171.10132000000158,171.10132000000158,171.10132000000158,,003,P010,2025_Feb_01_1514,ConditionRich,2021.2.3,59.948444338299105,
138.0,138.75,7,0.75,Stimuli/P010/sun_apiogxmvvzfmtsmj.jpg,1,0,0.75,0,238,238,238,,,,,,,,,,,,,138.00368940000044,0.003689400000439491,1,171.35151960000076,171.35151960000076,171.35151960000076,171.35151960000076,171.35151960000076,171.35151960000076,171.35151960000076,172.08552970000164,171.35151960000076,171.35151960000076,0.41549379999923985,003,P010,2025_Feb_01_1514,ConditionRich,2021.2.3,59.948444338299105,
138.75,139.0,41,0.0,Stimuli/Blank.png,0,0,0.0,0,239,239,239,,,,,,,,,,,,,138.75460340000063,0.004603400000632973,None,172.10221530000126,172.10221530000126,172.10221530000126,172.10221530000126,172.10221530000126,172.10221530000126,172.10221530000126,172.10221530000126,172.10221530000126,172.10221530000126,,003,P010,2025_Feb_01_1514,ConditionRich,2021.2.3,59.948444338299105,
139.0,139.75,7,0.75,Stimuli/P010/sun_apiogxmvvzfmtsmj.jpg,0,0,0.0,0,240,240,240,,,,,,,,,,,,,139.0044780999997,0.004478099999687402,None,172.369134200002,172.369134200002,172.369134200002,172.369134200002,172.369134200002,172.369134200002,172.369134200002,172.369134200002,172.369134200002,172.369134200002,,003,P010,2025_Feb_01_1514,ConditionRich,2021.2.3,59.948444338299105,
139.75,140.0,41,0.0,Stimuli/Blank.png,0,0,0.0,0,241,241,241,,,,,,,,,,,,,139.77267380000194,0.022673800001939526,None,173.12043130000166,173.12043130000166,173.12043130000166,173.12043130000166,173.12043130000166,173.12043130000166,173.12043130000166,173.12043130000166,173.12043130000166,173.12043130000166,,003,P010,2025_Feb_01_1514,ConditionRich,2021.2.3,59.948444338299105,
140.0,140.75,14,0.75,Stimuli/P010/sun_blaqxdebghixzyyw.jpg,0,0,0.0,0,242,242,242,,,,,,,,,,,,,140.0058108000012,0.005810800001199823,None,173.3533841000026,173.3533841000026,173.3533841000026,173.3533841000026,173.3533841000026,173.3533841000026,173.3533841000026,173.3533841000026,173.3533841000026,173.3533841000026,,003,P010,2025_Feb_01_1514,ConditionRich,2021.2.3,59.948444338299105,
140.75,141.0,41,0.0,Stimuli/Blank.png,0,0,0.0,0,243,243,243,,,,,,,,,,,,,140.75668399999995,0.006683999999950174,None,174.10398370000257,174.10398370000257,174.10398370000257,174.10398370000257,174.10398370000257,174.10398370000257,174.10398370000257,174.10398370000257,174.10398370000257,174.10398370000257,,003,P010,2025_Feb_01_1514,ConditionRich,2021.2.3,59.948444338299105,
141.0,141.75,14,0.75,Stimuli/P010/sun_blaqxdebghixzyyw.jpg,0,0,0.0,0,244,244,244,,,,,,,,,,,,,141.00693460000184,0.006934600001841318,None,174.3709056000007,174.3709056000007,174.3709056000007,174.3709056000007,174.3709056000007,174.3709056000007,174.3709056000007,174.3709056000007,174.3709056000007,174.3709056000007,,003,P010,2025_Feb_01_1514,ConditionRich,2021.2.3,59.948444338299105,
141.75,142.0,41,0.0,Stimuli/Blank.png,0,0,0.0,0,245,245,245,,,,,,,,,,,,,141.77355610000086,0.02355610000086017,None,175.12153920000128,175.12153920000128,175.12153920000128,175.12153920000128,175.12153920000128,175.12153920000128,175.12153920000128,175.12153920000128,175.12153920000128,175.12153920000128,,003,P010,2025_Feb_01_1514,ConditionRich,2021.2.3,59.948444338299105,
142.0,142.75,14,0.75,Stimuli/P010/sun_blaqxdebghixzyyw.jpg,0,0,0.0,0,246,246,246,,,,,,,,,,,,,142.0075840999998,0.007584099999803584,None,175.35504720000245,175.35504720000245,175.35504720000245,175.35504720000245,175.35504720000245,175.35504720000245,175.35504720000245,175.35504720000245,175.35504720000245,175.35504720000245,,003,P010,2025_Feb_01_1514,ConditionRich,2021.2.3,59.948444338299105,
142.75,143.0,41,0.0,Stimuli/Blank.png,0,0,0.0,0,247,247,247,,,,,,,,,,,,,142.7575985000003,0.007598500000312924,None,176.10574930000075,176.10574930000075,176.10574930000075,176.10574930000075,176.10574930000075,176.10574930000075,176.10574930000075,176.10574930000075,176.10574930000075,176.10574930000075,,003,P010,2025_Feb_01_1514,ConditionRich,2021.2.3,59.948444338299105,
143.0,143.75,14,0.75,Stimuli/P010/sun_blaqxdebghixzyyw.jpg,0,0,0.0,0,248,248,248,,,,,,,,,,,,,143.00900460000048,0.009004600000480423,None,176.3559721999991,176.3559721999991,176.3559721999991,176.3559721999991,176.3559721999991,176.3559721999991,176.3559721999991,176.3559721999991,176.3559721999991,176.3559721999991,,003,P010,2025_Feb_01_1514,ConditionRich,2021.2.3,59.948444338299105,
143.75,144.0,41,0.0,Stimuli/Blank.png,0,0,0.0,0,249,249,249,,,,,,,,,,,,,143.75927020000017,0.009270200000173645,None,177.10663700000077,177.10663700000077,177.10663700000077,177.10663700000077,177.10663700000077,177.10663700000077,177.10663700000077,177.10663700000077,177.10663700000077,177.10663700000077,,003,P010,2025_Feb_01_1514,ConditionRich,2021.2.3,59.948444338299105,
144.0,144.75,37,0.75,Stimuli/P010/things_pug_05s.jpg,0,0,0.0,0,250,250,250,,,,,,,,,,,,,144.009188,0.009187999999994645,None,177.35685419999936,177.35685419999936,177.35685419999936,177.35685419999936,177.35685419999936,177.35685419999936,177.35685419999936,177.35685419999936,177.35685419999936,177.35685419999936,,003,P010,2025_Feb_01_1514,ConditionRich,2021.2.3,59.948444338299105,
144.75,145.0,41,0.0,Stimuli/Blank.png,0,0,0.0,0,251,251,251,,,,,,,,,,,,,144.76293850000002,0.012938500000018394,None,178.12420580000253,178.12420580000253,178.12420580000253,178.12420580000253,178.12420580000253,178.12420580000253,178.12420580000253,178.12420580000253,178.12420580000253,178.12420580000253,,003,P010,2025_Feb_01_1514,ConditionRich,2021.2.3,59.948444338299105,
145.0,145.75,37,0.75,Stimuli/P010/things_pug_05s.jpg,0,0,0.0,0,252,252,252,,,,,,,,,,,,,145.0274051000015,0.02740510000148788,None,178.39113039999938,178.39113039999938,178.39113039999938,178.39113039999938,178.39113039999938,178.39113039999938,178.39113039999938,178.39113039999938,178.39113039999938,178.39113039999938,,003,P010,2025_Feb_01_1514,ConditionRich,2021.2.3,59.948444338299105,
145.75,146.0,41,0.0,Stimuli/Blank.png,0,0,0.0,0,253,253,253,,,,,,,,,,,,,145.77772940000068,0.02772940000068047,None,179.1250977000018,179.1250977000018,179.1250977000018,179.1250977000018,179.1250977000018,179.1250977000018,179.1250977000018,179.1250977000018,179.1250977000018,179.1250977000018,,003,P010,2025_Feb_01_1514,ConditionRich,2021.2.3,59.948444338299105,
146.0,146.75,37,0.75,Stimuli/P010/things_pug_05s.jpg,0,0,0.0,0,254,254,254,,,,,,,,,,,,,146.01156370000172,0.011563700001715915,None,179.35862869999983,179.35862869999983,179.35862869999983,179.35862869999983,179.35862869999983,179.35862869999983,179.35862869999983,179.35862869999983,179.35862869999983,179.35862869999983,,003,P010,2025_Feb_01_1514,ConditionRich,2021.2.3,59.948444338299105,
146.75,147.0,41,0.0,Stimuli/Blank.png,0,0,0.0,0,255,255,255,,,,,,,,,,,,,146.76225350000095,0.012253500000952045,None,180.1092931000021,180.1092931000021,180.1092931000021,180.1092931000021,180.1092931000021,180.1092931000021,180.1092931000021,180.1092931000021,180.1092931000021,180.1092931000021,,003,P010,2025_Feb_01_1514,ConditionRich,2021.2.3,59.948444338299105,
147.0,147.75,37,0.75,Stimuli/P010/things_pug_05s.jpg,0,0,0.0,0,256,256,256,,,,,,,,,,,,,147.0124704000009,0.012470400000893278,None,180.35952380000163,180.35952380000163,180.35952380000163,180.35952380000163,180.35952380000163,180.35952380000163,180.35952380000163,180.35952380000163,180.35952380000163,180.35952380000163,,003,P010,2025_Feb_01_1514,ConditionRich,2021.2.3,59.948444338299105,
147.75,148.0,41,0.0,Stimuli/Blank.png,0,0,0.0,0,257,257,257,,,,,,,,,,,,,147.76282990000254,0.012829900002543582,None,181.11019750000196,181.11019750000196,181.11019750000196,181.11019750000196,181.11019750000196,181.11019750000196,181.11019750000196,181.11019750000196,181.11019750000196,181.11019750000196,,003,P010,2025_Feb_01_1514,ConditionRich,2021.2.3,59.948444338299105,
148.0,148.75,35,0.75,Stimuli/P010/things_mushroom_05n.jpg,0,0,0.0,0,258,258,258,,,,,,,,,,,,,148.01363420000052,0.013634200000524288,None,181.3770794000011,181.3770794000011,181.3770794000011,181.3770794000011,181.3770794000011,181.3770794000011,181.3770794000011,181.3770794000011,181.3770794000011,181.3770794000011,,003,P010,2025_Feb_01_1514,ConditionRich,2021.2.3,59.948444338299105,
148.75,149.0,41,0.0,Stimuli/Blank.png,0,0,0.0,0,259,259,259,,,,,,,,,,,,,148.77963810000074,0.029638100000738632,None,182.12781779999932,182.12781779999932,182.12781779999932,182.12781779999932,182.12781779999932,182.12781779999932,182.12781779999932,182.12781779999932,182.12781779999932,182.12781779999932,,003,P010,2025_Feb_01_1514,ConditionRich,2021.2.3,59.948444338299105,
149.0,149.75,35,0.75,Stimuli/P010/things_mushroom_05n.jpg,0,0,0.0,0,260,260,260,,,,,,,,,,,,,149.013135600002,0.013135600001987768,None,182.36128219999955,182.36128219999955,182.36128219999955,182.36128219999955,182.36128219999955,182.36128219999955,182.36128219999955,182.36128219999955,182.36128219999955,182.36128219999955,,003,P010,2025_Feb_01_1514,ConditionRich,2021.2.3,59.948444338299105,
149.75,150.0,41,0.0,Stimuli/Blank.png,0,0,0.0,0,261,261,261,,,,,,,,,,,,,149.76433330000145,0.014333300001453608,None,183.11194810000234,183.11194810000234,183.11194810000234,183.11194810000234,183.11194810000234,183.11194810000234,183.11194810000234,183.11194810000234,183.11194810000234,183.11194810000234,,003,P010,2025_Feb_01_1514,ConditionRich,2021.2.3,59.948444338299105,
