eventStartTime,eventEndTime,eventCond,imSize,imFile,responseEvent,fixRespStart,fixRespEnd,Events.thisRepN,Events.thisTrialN,Events.thisN,Events.thisIndex,Instructions.started,Instructions.stopped,participantReadyResponse.keys,participantReadyResponse.rt,participantReadyResponse.started,participantReadyResponse.stopped,startWaitforTrigger,triggerResponse.keys,triggerResponse.rt,triggerResponse.started,triggerResponse.stopped,globalTimer,actualStartTime,startTimingDiff,participantResponse.keys,participantResponse.started,participantResponse.stopped,image.started,image.stopped,fixationOutside.started,fixationOutside.stopped,fixationResponse.started,fixationResponse.stopped,fixationInside.started,fixationInside.stopped,participantResponse.rt,session,participant,date,expName,psychopyVersion,frameRate,
,,,,,,,,,,,,11.460309499998402,None,1,5.696667100000923,11.460309499998402,None,,,,,,,,,,,,,,,,,,,,,006,P010,2025_Feb_01_1541,ConditionRich,2021.2.3,59.937197803900325,
,,,,,,,,,,,,,,,,,,17.17352309999842,5,14.154460499998095,17.18658030000006,None,,,,,,,,,,,,,,,,006,P010,2025_Feb_01_1541,ConditionRich,2021.2.3,59.937197803900325,
0.0,4.0,0,0.0,Stimuli/Blank.png,0,0,0.0,0,0,0,0,,,,,,,,,,,,31.3531264000012,0.052590899998904206,0.052590899998904206,None,31.415837100001227,None,31.415837100001227,None,31.415837100001227,None,31.415837100001227,31.415837100001227,31.415837100001227,None,,006,P010,2025_Feb_01_1541,ConditionRich,2021.2.3,59.937197803900325,
4.0,4.75,12,0.75,Stimuli/P010/sun_birmwgkdtrlevcaf.jpg,1,0,0.75,0,1,1,1,,,,,,,,,,,,,4.003841300000204,0.0038413000002037734,1,35.38632869999856,35.38632869999856,35.38632869999856,35.38632869999856,35.38632869999856,35.38632869999856,35.38632869999856,36.103316699998686,35.38632869999856,35.38632869999856,0.6506269000019529,006,P010,2025_Feb_01_1541,ConditionRich,2021.2.3,59.937197803900325,
4.75,5.0,41,0.0,Stimuli/Blank.png,0,0,0.0,0,2,2,2,,,,,,,,,,,,,4.771697600001062,0.0216976000010618,None,36.1536300000007,36.1536300000007,36.1536300000007,36.1536300000007,36.1536300000007,36.1536300000007,36.1536300000007,36.1536300000007,36.1536300000007,36.1536300000007,,006,P010,2025_Feb_01_1541,ConditionRich,2021.2.3,59.937197803900325,
5.0,5.75,12,0.75,Stimuli/P010/sun_birmwgkdtrlevcaf.jpg,0,0,0.0,0,3,3,3,,,,,,,,,,,,,5.020055100001628,0.02005510000162758,None,36.403583700001036,36.403583700001036,36.403583700001036,36.403583700001036,36.403583700001036,36.403583700001036,36.403583700001036,36.403583700001036,36.403583700001036,36.403583700001036,,006,P010,2025_Feb_01_1541,ConditionRich,2021.2.3,59.937197803900325,
5.75,6.0,41,0.0,Stimuli/Blank.png,0,0,0.0,0,4,4,4,,,,,,,,,,,,,5.771862400000828,0.02186240000082762,None,37.15425309999773,37.15425309999773,37.15425309999773,37.15425309999773,37.15425309999773,37.15425309999773,37.15425309999773,37.15425309999773,37.15425309999773,37.15425309999773,,006,P010,2025_Feb_01_1541,ConditionRich,2021.2.3,59.937197803900325,
6.0,6.75,12,0.75,Stimuli/P010/sun_birmwgkdtrlevcaf.jpg,0,0,0.0,0,5,5,5,,,,,,,,,,,,,6.02004179999858,0.020041799998580245,None,37.387789799999155,37.387789799999155,37.387789799999155,37.387789799999155,37.387789799999155,37.387789799999155,37.387789799999155,37.387789799999155,37.387789799999155,37.387789799999155,,006,P010,2025_Feb_01_1541,ConditionRich,2021.2.3,59.937197803900325,
6.75,7.0,41,0.0,Stimuli/Blank.png,0,0,0.0,0,6,6,6,,,,,,,,,,,,,6.756693700001051,0.006693700001051184,None,38.1384713999978,38.1384713999978,38.1384713999978,38.1384713999978,38.1384713999978,38.1384713999978,38.1384713999978,38.1384713999978,38.1384713999978,38.1384713999978,,006,P010,2025_Feb_01_1541,ConditionRich,2021.2.3,59.937197803900325,
7.0,7.75,12,0.75,Stimuli/P010/sun_birmwgkdtrlevcaf.jpg,0,0,0.0,0,7,7,7,,,,,,,,,,,,,7.022086400000262,0.022086400000262074,None,38.405372799999896,38.405372799999896,38.405372799999896,38.405372799999896,38.405372799999896,38.405372799999896,38.405372799999896,38.405372799999896,38.405372799999896,38.405372799999896,,006,P010,2025_Feb_01_1541,ConditionRich,2021.2.3,59.937197803900325,
7.75,8.0,41,0.0,Stimuli/Blank.png,0,0,0.0,0,8,8,8,,,,,,,,,,,,,7.7720931000003475,0.022093100000347476,None,39.13933890000044,39.13933890000044,39.13933890000044,39.13933890000044,39.13933890000044,39.13933890000044,39.13933890000044,39.13933890000044,39.13933890000044,39.13933890000044,,006,P010,2025_Feb_01_1541,ConditionRich,2021.2.3,59.937197803900325,
8.0,8.75,26,0.75,Stimuli/P010/things_cookie_sheet_05s.jpg,0,0,0.0,0,9,9,9,,,,,,,,,,,,,8.005701599999156,0.005701599999156315,None,39.37287590000051,39.37287590000051,39.37287590000051,39.37287590000051,39.37287590000051,39.37287590000051,39.37287590000051,39.37287590000051,39.37287590000051,39.37287590000051,,006,P010,2025_Feb_01_1541,ConditionRich,2021.2.3,59.937197803900325,
8.75,9.0,41,0.0,Stimuli/Blank.png,0,0,0.0,0,10,10,10,,,,,,,,,,,,,8.75682130000132,0.006821300001320196,None,40.123550699998304,40.123550699998304,40.123550699998304,40.123550699998304,40.123550699998304,40.123550699998304,40.123550699998304,40.123550699998304,40.123550699998304,40.123550699998304,,006,P010,2025_Feb_01_1541,ConditionRich,2021.2.3,59.937197803900325,
9.0,9.75,26,0.75,Stimuli/P010/things_cookie_sheet_05s.jpg,0,0,0.0,0,11,11,11,,,,,,,,,,,,,9.00669840000046,0.0066984000004595146,None,40.3737586999996,40.3737586999996,40.3737586999996,40.3737586999996,40.3737586999996,40.3737586999996,40.3737586999996,40.3737586999996,40.3737586999996,40.3737586999996,,006,P010,2025_Feb_01_1541,ConditionRich,2021.2.3,59.937197803900325,
9.75,10.0,41,0.0,Stimuli/Blank.png,0,0,0.0,0,12,12,12,,,,,,,,,,,,,9.756655799999862,0.006655799999862211,None,41.12443689999782,41.12443689999782,41.12443689999782,41.12443689999782,41.12443689999782,41.12443689999782,41.12443689999782,41.12443689999782,41.12443689999782,41.12443689999782,,006,P010,2025_Feb_01_1541,ConditionRich,2021.2.3,59.937197803900325,
10.0,10.75,26,0.75,Stimuli/P010/things_cookie_sheet_05s.jpg,0,0,0.0,0,13,13,13,,,,,,,,,,,,,10.007824600001186,0.0078246000011859,None,41.37465280000106,41.37465280000106,41.37465280000106,41.37465280000106,41.37465280000106,41.37465280000106,41.37465280000106,41.37465280000106,41.37465280000106,41.37465280000106,,006,P010,2025_Feb_01_1541,ConditionRich,2021.2.3,59.937197803900325,
10.75,11.0,41,0.0,Stimuli/Blank.png,0,0,0.0,0,14,14,14,,,,,,,,,,,,,10.757797099999152,0.007797099999152124,None,42.12531780000063,42.12531780000063,42.12531780000063,42.12531780000063,42.12531780000063,42.12531780000063,42.12531780000063,42.12531780000063,42.12531780000063,42.12531780000063,,006,P010,2025_Feb_01_1541,ConditionRich,2021.2.3,59.937197803900325,
11.0,11.75,26,0.75,Stimuli/P010/things_cookie_sheet_05s.jpg,0,0,0.0,0,15,15,15,,,,,,,,,,,,,11.008078099999693,0.008078099999693222,None,42.37553140000091,42.37553140000091,42.37553140000091,42.37553140000091,42.37553140000091,42.37553140000091,42.37553140000091,42.37553140000091,42.37553140000091,42.37553140000091,,006,P010,2025_Feb_01_1541,ConditionRich,2021.2.3,59.937197803900325,
11.75,12.0,41,0.0,Stimuli/Blank.png,0,0,0.0,0,16,16,16,,,,,,,,,,,,,11.761246900001424,0.011246900001424365,None,43.14290279999841,43.14290279999841,43.14290279999841,43.14290279999841,43.14290279999841,43.14290279999841,43.14290279999841,43.14290279999841,43.14290279999841,43.14290279999841,,006,P010,2025_Feb_01_1541,ConditionRich,2021.2.3,59.937197803900325,
12.0,12.75,15,0.75,Stimuli/P010/sun_boryivbddrnarrbo.jpg,0,0,0.0,0,17,17,17,,,,,,,,,,,,,12.026062400000228,0.02606240000022808,None,43.409782599999744,43.409782599999744,43.409782599999744,43.409782599999744,43.409782599999744,43.409782599999744,43.409782599999744,43.409782599999744,43.409782599999744,43.409782599999744,,006,P010,2025_Feb_01_1541,ConditionRich,2021.2.3,59.937197803900325,
12.75,13.0,41,0.0,Stimuli/Blank.png,0,0,0.0,0,18,18,18,,,,,,,,,,,,,12.777243500000623,0.02724350000062259,None,44.143772600000375,44.143772600000375,44.143772600000375,44.143772600000375,44.143772600000375,44.143772600000375,44.143772600000375,44.143772600000375,44.143772600000375,44.143772600000375,,006,P010,2025_Feb_01_1541,ConditionRich,2021.2.3,59.937197803900325,
13.0,13.75,15,0.75,Stimuli/P010/sun_boryivbddrnarrbo.jpg,0,0,0.0,0,19,19,19,,,,,,,,,,,,,13.012418999998772,0.012418999998772051,None,44.393994199999725,44.393994199999725,44.393994199999725,44.393994199999725,44.393994199999725,44.393994199999725,44.393994199999725,44.393994199999725,44.393994199999725,44.393994199999725,,006,P010,2025_Feb_01_1541,ConditionRich,2021.2.3,59.937197803900325,
13.75,14.0,41,0.0,Stimuli/Blank.png,0,0,0.0,0,20,20,20,,,,,,,,,,,,,13.777730800000427,0.027730800000426825,None,45.14465449999989,45.14465449999989,45.14465449999989,45.14465449999989,45.14465449999989,45.14465449999989,45.14465449999989,45.14465449999989,45.14465449999989,45.14465449999989,,006,P010,2025_Feb_01_1541,ConditionRich,2021.2.3,59.937197803900325,
14.0,14.75,15,0.75,Stimuli/P010/sun_boryivbddrnarrbo.jpg,0,0,0.0,0,21,21,21,,,,,,,,,,,,,14.011042699999962,0.01104269999996177,None,45.37818369999877,45.37818369999877,45.37818369999877,45.37818369999877,45.37818369999877,45.37818369999877,45.37818369999877,45.37818369999877,45.37818369999877,45.37818369999877,,006,P010,2025_Feb_01_1541,ConditionRich,2021.2.3,59.937197803900325,
14.75,15.0,41,0.0,Stimuli/Blank.png,0,0,0.0,0,22,22,22,,,,,,,,,,,,,14.761066399998526,0.011066399998526322,None,46.12885800000004,46.12885800000004,46.12885800000004,46.12885800000004,46.12885800000004,46.12885800000004,46.12885800000004,46.12885800000004,46.12885800000004,46.12885800000004,,006,P010,2025_Feb_01_1541,ConditionRich,2021.2.3,59.937197803900325,
15.0,15.75,15,0.75,Stimuli/P010/sun_boryivbddrnarrbo.jpg,0,0,0.0,0,23,23,23,,,,,,,,,,,,,15.012318900000537,0.012318900000536814,None,46.395750299998326,46.395750299998326,46.395750299998326,46.395750299998326,46.395750299998326,46.395750299998326,46.395750299998326,46.395750299998326,46.395750299998326,46.395750299998326,,006,P010,2025_Feb_01_1541,ConditionRich,2021.2.3,59.937197803900325,
15.75,16.0,41,0.0,Stimuli/Blank.png,0,0,0.0,0,24,24,24,,,,,,,,,,,,,15.778674799999862,0.028674799999862444,None,47.146422099998745,47.146422099998745,47.146422099998745,47.146422099998745,47.146422099998745,47.146422099998745,47.146422099998745,47.146422099998745,47.146422099998745,47.146422099998745,,006,P010,2025_Feb_01_1541,ConditionRich,2021.2.3,59.937197803900325,
16.0,16.75,31,0.75,Stimuli/P010/things_girl_05s.jpg,0,0,0.0,0,25,25,25,,,,,,,,,,,,,16.012250899999344,0.012250899999344256,None,47.37995890000093,47.37995890000093,47.37995890000093,47.37995890000093,47.37995890000093,47.37995890000093,47.37995890000093,47.37995890000093,47.37995890000093,47.37995890000093,,006,P010,2025_Feb_01_1541,ConditionRich,2021.2.3,59.937197803900325,
16.75,17.0,41,0.0,Stimuli/Blank.png,0,0,0.0,0,26,26,26,,,,,,,,,,,,,16.763625799998408,0.013625799998408183,None,48.13059919999796,48.13059919999796,48.13059919999796,48.13059919999796,48.13059919999796,48.13059919999796,48.13059919999796,48.13059919999796,48.13059919999796,48.13059919999796,,006,P010,2025_Feb_01_1541,ConditionRich,2021.2.3,59.937197803900325,
17.0,17.75,31,0.75,Stimuli/P010/things_girl_05s.jpg,0,0,0.0,0,27,27,27,,,,,,,,,,,,,17.013164100000722,0.013164100000722101,None,48.38083740000002,48.38083740000002,48.38083740000002,48.38083740000002,48.38083740000002,48.38083740000002,48.38083740000002,48.38083740000002,48.38083740000002,48.38083740000002,,006,P010,2025_Feb_01_1541,ConditionRich,2021.2.3,59.937197803900325,
17.75,18.0,41,0.0,Stimuli/Blank.png,0,0,0.0,0,28,28,28,,,,,,,,,,,,,17.76679950000107,0.016799500001070555,None,49.14820619999955,49.14820619999955,49.14820619999955,49.14820619999955,49.14820619999955,49.14820619999955,49.14820619999955,49.14820619999955,49.14820619999955,49.14820619999955,,006,P010,2025_Feb_01_1541,ConditionRich,2021.2.3,59.937197803900325,
18.0,18.75,31,0.75,Stimuli/P010/things_girl_05s.jpg,0,0,0.0,0,29,29,29,,,,,,,,,,,,,18.014490400000795,0.01449040000079549,None,49.38172990000021,49.38172990000021,49.38172990000021,49.38172990000021,49.38172990000021,49.38172990000021,49.38172990000021,49.38172990000021,49.38172990000021,49.38172990000021,,006,P010,2025_Feb_01_1541,ConditionRich,2021.2.3,59.937197803900325,
18.75,19.0,41,0.0,Stimuli/Blank.png,0,0,0.0,0,30,30,30,,,,,,,,,,,,,18.7668588000015,0.01685880000150064,None,50.14907640000092,50.14907640000092,50.14907640000092,50.14907640000092,50.14907640000092,50.14907640000092,50.14907640000092,50.14907640000092,50.14907640000092,50.14907640000092,,006,P010,2025_Feb_01_1541,ConditionRich,2021.2.3,59.937197803900325,
19.0,19.75,31,0.75,Stimuli/P010/things_girl_05s.jpg,0,0,0.0,0,31,31,31,,,,,,,,,,,,,19.017401699999027,0.017401699999027187,None,50.39932100000078,50.39932100000078,50.39932100000078,50.39932100000078,50.39932100000078,50.39932100000078,50.39932100000078,50.39932100000078,50.39932100000078,50.39932100000078,,006,P010,2025_Feb_01_1541,ConditionRich,2021.2.3,59.937197803900325,
19.75,20.0,41,0.0,Stimuli/Blank.png,0,0,0.0,0,32,32,32,,,,,,,,,,,,,19.766164000000572,0.016164000000571832,None,51.13329149999845,51.13329149999845,51.13329149999845,51.13329149999845,51.13329149999845,51.13329149999845,51.13329149999845,51.13329149999845,51.13329149999845,51.13329149999845,,006,P010,2025_Feb_01_1541,ConditionRich,2021.2.3,59.937197803900325,
20.0,20.75,30,0.75,Stimuli/P010/things_fire_05s.jpg,0,0,0.0,0,33,33,33,,,,,,,,,,,,,19.99907760000133,-0.000922399998671608,None,51.38354239999899,51.38354239999899,51.38354239999899,51.38354239999899,51.38354239999899,51.38354239999899,51.38354239999899,51.38354239999899,51.38354239999899,51.38354239999899,,006,P010,2025_Feb_01_1541,ConditionRich,2021.2.3,59.937197803900325,
20.75,21.0,41,0.0,Stimuli/Blank.png,0,0,0.0,0,34,34,34,,,,,,,,,,,,,20.76747239999895,0.017472399998951005,None,52.13416460000008,52.13416460000008,52.13416460000008,52.13416460000008,52.13416460000008,52.13416460000008,52.13416460000008,52.13416460000008,52.13416460000008,52.13416460000008,,006,P010,2025_Feb_01_1541,ConditionRich,2021.2.3,59.937197803900325,
21.0,21.75,30,0.75,Stimuli/P010/things_fire_05s.jpg,0,0,0.0,0,35,35,35,,,,,,,,,,,,,21.00006510000094,6.510000093840063e-05,None,52.367704199998116,52.367704199998116,52.367704199998116,52.367704199998116,52.367704199998116,52.367704199998116,52.367704199998116,52.367704199998116,52.367704199998116,52.367704199998116,,006,P010,2025_Feb_01_1541,ConditionRich,2021.2.3,59.937197803900325,
21.75,22.0,41,0.0,Stimuli/Blank.png,0,0,0.0,0,36,36,36,,,,,,,,,,,,,21.751887300000817,0.0018873000008170493,None,53.11837879999803,53.11837879999803,53.11837879999803,53.11837879999803,53.11837879999803,53.11837879999803,53.11837879999803,53.11837879999803,53.11837879999803,53.11837879999803,,006,P010,2025_Feb_01_1541,ConditionRich,2021.2.3,59.937197803900325,
22.0,22.75,30,0.75,Stimuli/P010/things_fire_05s.jpg,0,0,0.0,0,37,37,37,,,,,,,,,,,,,22.00189339999997,0.0018933999999717344,None,53.36855060000016,53.36855060000016,53.36855060000016,53.36855060000016,53.36855060000016,53.36855060000016,53.36855060000016,53.36855060000016,53.36855060000016,53.36855060000016,,006,P010,2025_Feb_01_1541,ConditionRich,2021.2.3,59.937197803900325,
22.75,23.0,41,0.0,Stimuli/Blank.png,0,0,0.0,0,38,38,38,,,,,,,,,,,,,22.75219189999916,0.002191899999161251,None,54.11925749999864,54.11925749999864,54.11925749999864,54.11925749999864,54.11925749999864,54.11925749999864,54.11925749999864,54.11925749999864,54.11925749999864,54.11925749999864,,006,P010,2025_Feb_01_1541,ConditionRich,2021.2.3,59.937197803900325,
23.0,23.75,30,0.75,Stimuli/P010/things_fire_05s.jpg,0,0,0.0,0,39,39,39,,,,,,,,,,,,,23.003245299998525,0.0032452999985252973,None,54.386157699998876,54.386157699998876,54.386157699998876,54.386157699998876,54.386157699998876,54.386157699998876,54.386157699998876,54.386157699998876,54.386157699998876,54.386157699998876,,006,P010,2025_Feb_01_1541,ConditionRich,2021.2.3,59.937197803900325,
23.75,24.0,41,0.0,Stimuli/Blank.png,0,0,0.0,0,40,40,40,,,,,,,,,,,,,23.77168309999979,0.02168309999979101,None,55.153509299998404,55.153509299998404,55.153509299998404,55.153509299998404,55.153509299998404,55.153509299998404,55.153509299998404,55.153509299998404,55.153509299998404,55.153509299998404,,006,P010,2025_Feb_01_1541,ConditionRich,2021.2.3,59.937197803900325,
24.0,24.75,40,0.75,Stimuli/P010/things_woman_05s.jpg,0,0,0.0,0,41,41,41,,,,,,,,,,,,,24.021713300000556,0.021713300000556046,None,55.403741099999024,55.403741099999024,55.403741099999024,55.403741099999024,55.403741099999024,55.403741099999024,55.403741099999024,55.403741099999024,55.403741099999024,55.403741099999024,,006,P010,2025_Feb_01_1541,ConditionRich,2021.2.3,59.937197803900325,
24.75,25.0,41,0.0,Stimuli/Blank.png,0,0,0.0,0,42,42,42,,,,,,,,,,,,,24.77237210000021,0.022372100000211503,None,56.15439680000054,56.15439680000054,56.15439680000054,56.15439680000054,56.15439680000054,56.15439680000054,56.15439680000054,56.15439680000054,56.15439680000054,56.15439680000054,,006,P010,2025_Feb_01_1541,ConditionRich,2021.2.3,59.937197803900325,
25.0,25.75,40,0.75,Stimuli/P010/things_woman_05s.jpg,0,0,0.0,0,43,43,43,,,,,,,,,,,,,25.020865099999355,0.020865099999355152,None,56.40461320000031,56.40461320000031,56.40461320000031,56.40461320000031,56.40461320000031,56.40461320000031,56.40461320000031,56.40461320000031,56.40461320000031,56.40461320000031,,006,P010,2025_Feb_01_1541,ConditionRich,2021.2.3,59.937197803900325,
25.75,26.0,41,0.0,Stimuli/Blank.png,0,0,0.0,0,44,44,44,,,,,,,,,,,,,25.77089799999885,0.020897999998851446,None,57.138609699999506,57.138609699999506,57.138609699999506,57.138609699999506,57.138609699999506,57.138609699999506,57.138609699999506,57.138609699999506,57.138609699999506,57.138609699999506,,006,P010,2025_Feb_01_1541,ConditionRich,2021.2.3,59.937197803900325,
26.0,26.75,40,0.75,Stimuli/P010/things_woman_05s.jpg,0,0,0.0,0,45,45,45,,,,,,,,,,,,,26.00523389999944,0.005233899999439018,None,57.37213139999949,57.37213139999949,57.37213139999949,57.37213139999949,57.37213139999949,57.37213139999949,57.37213139999949,57.37213139999949,57.37213139999949,57.37213139999949,,006,P010,2025_Feb_01_1541,ConditionRich,2021.2.3,59.937197803900325,
26.75,27.0,41,0.0,Stimuli/Blank.png,0,0,0.0,0,46,46,46,,,,,,,,,,,,,26.75578300000052,0.005783000000519678,None,58.122807199997624,58.122807199997624,58.122807199997624,58.122807199997624,58.122807199997624,58.122807199997624,58.122807199997624,58.122807199997624,58.122807199997624,58.122807199997624,,006,P010,2025_Feb_01_1541,ConditionRich,2021.2.3,59.937197803900325,
27.0,27.75,40,0.75,Stimuli/P010/things_woman_05s.jpg,0,0,0.0,0,47,47,47,,,,,,,,,,,,,27.006035999998858,0.006035999998857733,None,58.373022499999934,58.373022499999934,58.373022499999934,58.373022499999934,58.373022499999934,58.373022499999934,58.373022499999934,58.373022499999934,58.373022499999934,58.373022499999934,,006,P010,2025_Feb_01_1541,ConditionRich,2021.2.3,59.937197803900325,
27.75,28.0,41,0.0,Stimuli/Blank.png,0,0,0.0,0,48,48,48,,,,,,,,,,,,,27.756119199999375,0.006119199999375269,None,59.12369469999976,59.12369469999976,59.12369469999976,59.12369469999976,59.12369469999976,59.12369469999976,59.12369469999976,59.12369469999976,59.12369469999976,59.12369469999976,,006,P010,2025_Feb_01_1541,ConditionRich,2021.2.3,59.937197803900325,
28.0,28.75,32,0.75,Stimuli/P010/things_hawk_05s.jpg,0,0,0.0,0,49,49,49,,,,,,,,,,,,,28.006437000000005,0.006437000000005355,None,59.37390139999843,59.37390139999843,59.37390139999843,59.37390139999843,59.37390139999843,59.37390139999843,59.37390139999843,59.37390139999843,59.37390139999843,59.37390139999843,,006,P010,2025_Feb_01_1541,ConditionRich,2021.2.3,59.937197803900325,
28.75,29.0,41,0.0,Stimuli/Blank.png,0,0,0.0,0,50,50,50,,,,,,,,,,,,,28.757336900001974,0.007336900001973845,None,60.124572000000626,60.124572000000626,60.124572000000626,60.124572000000626,60.124572000000626,60.124572000000626,60.124572000000626,60.124572000000626,60.124572000000626,60.124572000000626,,006,P010,2025_Feb_01_1541,ConditionRich,2021.2.3,59.937197803900325,
29.0,29.75,32,0.75,Stimuli/P010/things_hawk_05s.jpg,1,0,0.75,0,51,51,51,,,,,,,,,,,,,29.00766560000193,0.0076656000019283965,1,60.37478639999972,60.37478639999972,60.37478639999972,60.37478639999972,60.37478639999972,60.37478639999972,60.37478639999972,61.10875899999883,60.37478639999972,60.37478639999972,0.704341900000145,006,P010,2025_Feb_01_1541,ConditionRich,2021.2.3,59.937197803900325,
29.75,30.0,41,0.0,Stimuli/Blank.png,0,0,0.0,0,52,52,52,,,,,,,,,,,,,29.758443400001852,0.008443400001851842,None,61.12545769999997,61.12545769999997,61.12545769999997,61.12545769999997,61.12545769999997,61.12545769999997,61.12545769999997,61.12545769999997,61.12545769999997,61.12545769999997,,006,P010,2025_Feb_01_1541,ConditionRich,2021.2.3,59.937197803900325,
30.0,30.75,32,0.75,Stimuli/P010/things_hawk_05s.jpg,0,0,0.0,0,53,53,53,,,,,,,,,,,,,30.00858159999916,0.008581599999160971,None,61.37567059999856,61.37567059999856,61.37567059999856,61.37567059999856,61.37567059999856,61.37567059999856,61.37567059999856,61.37567059999856,61.37567059999856,61.37567059999856,,006,P010,2025_Feb_01_1541,ConditionRich,2021.2.3,59.937197803900325,
30.75,31.0,41,0.0,Stimuli/Blank.png,0,0,0.0,0,54,54,54,,,,,,,,,,,,,30.75892340000064,0.008923400000639958,None,62.12634319999779,62.12634319999779,62.12634319999779,62.12634319999779,62.12634319999779,62.12634319999779,62.12634319999779,62.12634319999779,62.12634319999779,62.12634319999779,,006,P010,2025_Feb_01_1541,ConditionRich,2021.2.3,59.937197803900325,
31.0,31.75,32,0.75,Stimuli/P010/things_hawk_05s.jpg,0,0,0.0,0,55,55,55,,,,,,,,,,,,,31.008852099999785,0.008852099999785423,None,62.37661329999901,62.37661329999901,62.37661329999901,62.37661329999901,62.37661329999901,62.37661329999901,62.37661329999901,62.37661329999901,62.37661329999901,62.37661329999901,,006,P010,2025_Feb_01_1541,ConditionRich,2021.2.3,59.937197803900325,
31.75,32.0,41,0.0,Stimuli/Blank.png,0,0,0.0,0,56,56,56,,,,,,,,,,,,,31.761682700001984,0.011682700001983903,None,63.1439117000009,63.1439117000009,63.1439117000009,63.1439117000009,63.1439117000009,63.1439117000009,63.1439117000009,63.1439117000009,63.1439117000009,63.1439117000009,,006,P010,2025_Feb_01_1541,ConditionRich,2021.2.3,59.937197803900325,
32.0,32.75,8,0.75,Stimuli/P010/sun_batcnoizlkeiqdtx.jpg,0,0,0.0,0,57,57,57,,,,,,,,,,,,,32.02717180000036,0.027171800000360236,None,63.41080940000029,63.41080940000029,63.41080940000029,63.41080940000029,63.41080940000029,63.41080940000029,63.41080940000029,63.41080940000029,63.41080940000029,63.41080940000029,,006,P010,2025_Feb_01_1541,ConditionRich,2021.2.3,59.937197803900325,
32.75,33.0,41,0.0,Stimuli/Blank.png,0,0,0.0,0,58,58,58,,,,,,,,,,,,,32.77820689999862,0.028206899998622248,None,64.14478819999931,64.14478819999931,64.14478819999931,64.14478819999931,64.14478819999931,64.14478819999931,64.14478819999931,64.14478819999931,64.14478819999931,64.14478819999931,,006,P010,2025_Feb_01_1541,ConditionRich,2021.2.3,59.937197803900325,
33.0,33.75,8,0.75,Stimuli/P010/sun_batcnoizlkeiqdtx.jpg,1,0,0.75,0,59,59,59,,,,,,,,,,,,,33.01069170000119,0.01069170000118902,1,64.3783259999982,64.3783259999982,64.3783259999982,64.3783259999982,64.3783259999982,64.3783259999982,64.3783259999982,65.11233859999993,64.3783259999982,64.3783259999982,0.44666570000117645,006,P010,2025_Feb_01_1541,ConditionRich,2021.2.3,59.937197803900325,
33.75,34.0,41,0.0,Stimuli/Blank.png,0,0,0.0,0,60,60,60,,,,,,,,,,,,,33.762196499999845,0.0121964999998454,None,65.12899670000115,65.12899670000115,65.12899670000115,65.12899670000115,65.12899670000115,65.12899670000115,65.12899670000115,65.12899670000115,65.12899670000115,65.12899670000115,,006,P010,2025_Feb_01_1541,ConditionRich,2021.2.3,59.937197803900325,
34.0,34.75,8,0.75,Stimuli/P010/sun_batcnoizlkeiqdtx.jpg,0,0,0.0,0,61,61,61,,,,,,,,,,,,,34.01169790000131,0.01169790000130888,None,65.37919119999788,65.37919119999788,65.37919119999788,65.37919119999788,65.37919119999788,65.37919119999788,65.37919119999788,65.37919119999788,65.37919119999788,65.37919119999788,,006,P010,2025_Feb_01_1541,ConditionRich,2021.2.3,59.937197803900325,
34.75,35.0,41,0.0,Stimuli/Blank.png,0,0,0.0,0,62,62,62,,,,,,,,,,,,,34.7621470999984,0.012147099998401245,None,66.12988209999821,66.12988209999821,66.12988209999821,66.12988209999821,66.12988209999821,66.12988209999821,66.12988209999821,66.12988209999821,66.12988209999821,66.12988209999821,,006,P010,2025_Feb_01_1541,ConditionRich,2021.2.3,59.937197803900325,
35.0,35.75,8,0.75,Stimuli/P010/sun_batcnoizlkeiqdtx.jpg,0,0,0.0,0,63,63,63,,,,,,,,,,,,,35.013225200000306,0.013225200000306359,None,66.39680600000065,66.39680600000065,66.39680600000065,66.39680600000065,66.39680600000065,66.39680600000065,66.39680600000065,66.39680600000065,66.39680600000065,66.39680600000065,,006,P010,2025_Feb_01_1541,ConditionRich,2021.2.3,59.937197803900325,
35.75,36.0,41,0.0,Stimuli/Blank.png,0,0,0.0,0,64,64,64,,,,,,,,,,,,,35.78252860000066,0.032528600000659935,None,67.1641357999979,67.1641357999979,67.1641357999979,67.1641357999979,67.1641357999979,67.1641357999979,67.1641357999979,67.1641357999979,67.1641357999979,67.1641357999979,,006,P010,2025_Feb_01_1541,ConditionRich,2021.2.3,59.937197803900325,
36.0,36.75,17,0.75,Stimuli/P010/sun_brkrfjpyfglmigkk.jpg,0,0,0.0,0,65,65,65,,,,,,,,,,,,,36.01402859999871,0.014028599998709979,None,67.39769660000093,67.39769660000093,67.39769660000093,67.39769660000093,67.39769660000093,67.39769660000093,67.39769660000093,67.39769660000093,67.39769660000093,67.39769660000093,,006,P010,2025_Feb_01_1541,ConditionRich,2021.2.3,59.937197803900325,
36.75,37.0,41,0.0,Stimuli/Blank.png,0,0,0.0,0,66,66,66,,,,,,,,,,,,,36.781343700000434,0.03134370000043418,None,68.14834309999787,68.14834309999787,68.14834309999787,68.14834309999787,68.14834309999787,68.14834309999787,68.14834309999787,68.14834309999787,68.14834309999787,68.14834309999787,,006,P010,2025_Feb_01_1541,ConditionRich,2021.2.3,59.937197803900325,
37.0,37.75,17,0.75,Stimuli/P010/sun_brkrfjpyfglmigkk.jpg,0,0,0.0,0,67,67,67,,,,,,,,,,,,,37.01403059999939,0.01403059999938705,None,68.39855779999925,68.39855779999925,68.39855779999925,68.39855779999925,68.39855779999925,68.39855779999925,68.39855779999925,68.39855779999925,68.39855779999925,68.39855779999925,,006,P010,2025_Feb_01_1541,ConditionRich,2021.2.3,59.937197803900325,
37.75,38.0,41,0.0,Stimuli/Blank.png,0,0,0.0,0,68,68,68,,,,,,,,,,,,,37.78297300000122,0.0329730000012205,None,69.16592820000005,69.16592820000005,69.16592820000005,69.16592820000005,69.16592820000005,69.16592820000005,69.16592820000005,69.16592820000005,69.16592820000005,69.16592820000005,,006,P010,2025_Feb_01_1541,ConditionRich,2021.2.3,59.937197803900325,
38.0,38.75,17,0.75,Stimuli/P010/sun_brkrfjpyfglmigkk.jpg,1,0,0.75,0,69,69,69,,,,,,,,,,,,,38.018007300001045,0.018007300001045223,None,69.39944050000122,69.39944050000122,69.39944050000122,69.39944050000122,69.39944050000122,69.39944050000122,69.39944050000122,None,69.39944050000122,69.39944050000122,,006,P010,2025_Feb_01_1541,ConditionRich,2021.2.3,59.937197803900325,
38.75,39.0,41,0.0,Stimuli/Blank.png,0,0,0.0,0,70,70,70,,,,,,,,,,,,,38.76771279999957,0.01771279999957187,None,70.13343739999982,70.13343739999982,70.13343739999982,70.13343739999982,70.13343739999982,70.13343739999982,70.13343739999982,70.13343739999982,70.13343739999982,70.13343739999982,,006,P010,2025_Feb_01_1541,ConditionRich,2021.2.3,59.937197803900325,
39.0,39.75,17,0.75,Stimuli/P010/sun_brkrfjpyfglmigkk.jpg,0,0,0.0,0,71,71,71,,,,,,,,,,,,,39.001438499999495,0.0014384999994945247,None,70.38364329999968,70.38364329999968,70.38364329999968,70.38364329999968,70.38364329999968,70.38364329999968,70.38364329999968,70.38364329999968,70.38364329999968,70.38364329999968,,006,P010,2025_Feb_01_1541,ConditionRich,2021.2.3,59.937197803900325,
39.75,40.0,41,0.0,Stimuli/Blank.png,0,0,0.0,0,72,72,72,,,,,,,,,,,,,39.767319900001894,0.017319900001893984,None,71.13431019999916,71.13431019999916,71.13431019999916,71.13431019999916,71.13431019999916,71.13431019999916,71.13431019999916,71.13431019999916,71.13431019999916,71.13431019999916,,006,P010,2025_Feb_01_1541,ConditionRich,2021.2.3,59.937197803900325,
40.0,40.75,22,0.75,Stimuli/P010/things_butterfly_05s.jpg,0,0,0.0,0,73,73,73,,,,,,,,,,,,,40.000169599999936,0.00016959999993559904,None,71.36782099999982,71.36782099999982,71.36782099999982,71.36782099999982,71.36782099999982,71.36782099999982,71.36782099999982,71.36782099999982,71.36782099999982,71.36782099999982,,006,P010,2025_Feb_01_1541,ConditionRich,2021.2.3,59.937197803900325,
40.75,41.0,41,0.0,Stimuli/Blank.png,0,0,0.0,0,74,74,74,,,,,,,,,,,,,40.75076160000026,0.0007616000002599321,None,72.11851989999923,72.11851989999923,72.11851989999923,72.11851989999923,72.11851989999923,72.11851989999923,72.11851989999923,72.11851989999923,72.11851989999923,72.11851989999923,,006,P010,2025_Feb_01_1541,ConditionRich,2021.2.3,59.937197803900325,
41.0,41.75,22,0.75,Stimuli/P010/things_butterfly_05s.jpg,0,0,0.0,0,75,75,75,,,,,,,,,,,,,41.00237349999952,0.0023734999995213,None,72.3854250000004,72.3854250000004,72.3854250000004,72.3854250000004,72.3854250000004,72.3854250000004,72.3854250000004,72.3854250000004,72.3854250000004,72.3854250000004,,006,P010,2025_Feb_01_1541,ConditionRich,2021.2.3,59.937197803900325,
41.75,42.0,41,0.0,Stimuli/Blank.png,0,0,0.0,0,76,76,76,,,,,,,,,,,,,41.768332600000576,0.01833260000057635,None,73.13607689999844,73.13607689999844,73.13607689999844,73.13607689999844,73.13607689999844,73.13607689999844,73.13607689999844,73.13607689999844,73.13607689999844,73.13607689999844,,006,P010,2025_Feb_01_1541,ConditionRich,2021.2.3,59.937197803900325,
42.0,42.75,22,0.75,Stimuli/P010/things_butterfly_05s.jpg,0,0,0.0,0,77,77,77,,,,,,,,,,,,,42.00217590000102,0.0021759000010206364,None,73.36960900000122,73.36960900000122,73.36960900000122,73.36960900000122,73.36960900000122,73.36960900000122,73.36960900000122,73.36960900000122,73.36960900000122,73.36960900000122,,006,P010,2025_Feb_01_1541,ConditionRich,2021.2.3,59.937197803900325,
42.75,43.0,41,0.0,Stimuli/Blank.png,0,0,0.0,0,78,78,78,,,,,,,,,,,,,42.752612500000396,0.002612500000395812,None,74.12028880000071,74.12028880000071,74.12028880000071,74.12028880000071,74.12028880000071,74.12028880000071,74.12028880000071,74.12028880000071,74.12028880000071,74.12028880000071,,006,P010,2025_Feb_01_1541,ConditionRich,2021.2.3,59.937197803900325,
43.0,43.75,22,0.75,Stimuli/P010/things_butterfly_05s.jpg,0,0,0.0,0,79,79,79,,,,,,,,,,,,,43.00353040000118,0.003530400001181988,None,74.37049660000048,74.37049660000048,74.37049660000048,74.37049660000048,74.37049660000048,74.37049660000048,74.37049660000048,74.37049660000048,74.37049660000048,74.37049660000048,,006,P010,2025_Feb_01_1541,ConditionRich,2021.2.3,59.937197803900325,
43.75,44.0,41,0.0,Stimuli/Blank.png,0,0,0.0,0,80,80,80,,,,,,,,,,,,,43.756467899998825,0.006467899998824578,None,75.13782039999933,75.13782039999933,75.13782039999933,75.13782039999933,75.13782039999933,75.13782039999933,75.13782039999933,75.13782039999933,75.13782039999933,75.13782039999933,,006,P010,2025_Feb_01_1541,ConditionRich,2021.2.3,59.937197803900325,
44.0,44.75,28,0.75,Stimuli/P010/things_face_05s.jpg,0,0,0.0,0,81,81,81,,,,,,,,,,,,,44.0207502000012,0.020750200001202757,None,75.38806950000071,75.38806950000071,75.38806950000071,75.38806950000071,75.38806950000071,75.38806950000071,75.38806950000071,75.38806950000071,75.38806950000071,75.38806950000071,,006,P010,2025_Feb_01_1541,ConditionRich,2021.2.3,59.937197803900325,
44.75,45.0,41,0.0,Stimuli/Blank.png,0,0,0.0,0,82,82,82,,,,,,,,,,,,,44.756449299999076,0.006449299999076175,None,76.13873189999867,76.13873189999867,76.13873189999867,76.13873189999867,76.13873189999867,76.13873189999867,76.13873189999867,76.13873189999867,76.13873189999867,76.13873189999867,,006,P010,2025_Feb_01_1541,ConditionRich,2021.2.3,59.937197803900325,
45.0,45.75,28,0.75,Stimuli/P010/things_face_05s.jpg,0,0,0.0,0,83,83,83,,,,,,,,,,,,,45.021788500002,0.021788500002003275,None,76.40562869999849,76.40562869999849,76.40562869999849,76.40562869999849,76.40562869999849,76.40562869999849,76.40562869999849,76.40562869999849,76.40562869999849,76.40562869999849,,006,P010,2025_Feb_01_1541,ConditionRich,2021.2.3,59.937197803900325,
45.75,46.0,41,0.0,Stimuli/Blank.png,0,0,0.0,0,84,84,84,,,,,,,,,,,,,45.771882000000915,0.02188200000091456,None,77.1396281999987,77.1396281999987,77.1396281999987,77.1396281999987,77.1396281999987,77.1396281999987,77.1396281999987,77.1396281999987,77.1396281999987,77.1396281999987,,006,P010,2025_Feb_01_1541,ConditionRich,2021.2.3,59.937197803900325,
46.0,46.75,28,0.75,Stimuli/P010/things_face_05s.jpg,0,0,0.0,0,85,85,85,,,,,,,,,,,,,46.0063983,0.006398300000000745,None,77.38983839999855,77.38983839999855,77.38983839999855,77.38983839999855,77.38983839999855,77.38983839999855,77.38983839999855,77.38983839999855,77.38983839999855,77.38983839999855,,006,P010,2025_Feb_01_1541,ConditionRich,2021.2.3,59.937197803900325,
46.75,47.0,41,0.0,Stimuli/Blank.png,0,0,0.0,0,86,86,86,,,,,,,,,,,,,46.77309830000013,0.023098300000128802,None,78.14050099999804,78.14050099999804,78.14050099999804,78.14050099999804,78.14050099999804,78.14050099999804,78.14050099999804,78.14050099999804,78.14050099999804,78.14050099999804,,006,P010,2025_Feb_01_1541,ConditionRich,2021.2.3,59.937197803900325,
47.0,47.75,28,0.75,Stimuli/P010/things_face_05s.jpg,0,0,0.0,0,87,87,87,,,,,,,,,,,,,47.007096000001184,0.007096000001183711,None,78.39072110000052,78.39072110000052,78.39072110000052,78.39072110000052,78.39072110000052,78.39072110000052,78.39072110000052,78.39072110000052,78.39072110000052,78.39072110000052,,006,P010,2025_Feb_01_1541,ConditionRich,2021.2.3,59.937197803900325,
47.75,48.0,41,0.0,Stimuli/Blank.png,0,0,0.0,0,88,88,88,,,,,,,,,,,,,47.776548199999525,0.026548199999524513,None,79.15808230000039,79.15808230000039,79.15808230000039,79.15808230000039,79.15808230000039,79.15808230000039,79.15808230000039,79.15808230000039,79.15808230000039,79.15808230000039,,006,P010,2025_Feb_01_1541,ConditionRich,2021.2.3,59.937197803900325,
48.0,48.75,38,0.75,Stimuli/P010/things_roadsweeper_05s.jpg,0,0,0.0,0,89,89,89,,,,,,,,,,,,,48.02481579999949,0.024815799999487353,None,79.40828340000007,79.40828340000007,79.40828340000007,79.40828340000007,79.40828340000007,79.40828340000007,79.40828340000007,79.40828340000007,79.40828340000007,79.40828340000007,,006,P010,2025_Feb_01_1541,ConditionRich,2021.2.3,59.937197803900325,
48.75,49.0,41,0.0,Stimuli/Blank.png,0,0,0.0,0,90,90,90,,,,,,,,,,,,,48.776464400001714,0.02646440000171424,None,80.15896380000049,80.15896380000049,80.15896380000049,80.15896380000049,80.15896380000049,80.15896380000049,80.15896380000049,80.15896380000049,80.15896380000049,80.15896380000049,,006,P010,2025_Feb_01_1541,ConditionRich,2021.2.3,59.937197803900325,
49.0,49.75,38,0.75,Stimuli/P010/things_roadsweeper_05s.jpg,0,0,0.0,0,91,91,91,,,,,,,,,,,,,49.026867100001255,0.026867100001254585,None,80.40918729999976,80.40918729999976,80.40918729999976,80.40918729999976,80.40918729999976,80.40918729999976,80.40918729999976,80.40918729999976,80.40918729999976,80.40918729999976,,006,P010,2025_Feb_01_1541,ConditionRich,2021.2.3,59.937197803900325,
49.75,50.0,41,0.0,Stimuli/Blank.png,0,0,0.0,0,92,92,92,,,,,,,,,,,,,49.77615499999956,0.02615499999956228,None,81.14316150000013,81.14316150000013,81.14316150000013,81.14316150000013,81.14316150000013,81.14316150000013,81.14316150000013,81.14316150000013,81.14316150000013,81.14316150000013,,006,P010,2025_Feb_01_1541,ConditionRich,2021.2.3,59.937197803900325,
50.0,50.75,38,0.75,Stimuli/P010/things_roadsweeper_05s.jpg,0,0,0.0,0,93,93,93,,,,,,,,,,,,,50.00885090000156,0.008850900001561968,None,81.39339240000118,81.39339240000118,81.39339240000118,81.39339240000118,81.39339240000118,81.39339240000118,81.39339240000118,81.39339240000118,81.39339240000118,81.39339240000118,,006,P010,2025_Feb_01_1541,ConditionRich,2021.2.3,59.937197803900325,
50.75,51.0,41,0.0,Stimuli/Blank.png,0,0,0.0,0,94,94,94,,,,,,,,,,,,,50.776873999999225,0.026873999999224907,None,82.14406120000058,82.14406120000058,82.14406120000058,82.14406120000058,82.14406120000058,82.14406120000058,82.14406120000058,82.14406120000058,82.14406120000058,82.14406120000058,,006,P010,2025_Feb_01_1541,ConditionRich,2021.2.3,59.937197803900325,
51.0,51.75,38,0.75,Stimuli/P010/things_roadsweeper_05s.jpg,0,0,0.0,0,95,95,95,,,,,,,,,,,,,51.01177800000005,0.01177800000004936,None,82.39427720000094,82.39427720000094,82.39427720000094,82.39427720000094,82.39427720000094,82.39427720000094,82.39427720000094,82.39427720000094,82.39427720000094,82.39427720000094,,006,P010,2025_Feb_01_1541,ConditionRich,2021.2.3,59.937197803900325,
51.75,52.0,41,0.0,Stimuli/Blank.png,0,0,0.0,0,96,96,96,,,,,,,,,,,,,51.77798210000037,0.027982100000372157,None,83.1449266999989,83.1449266999989,83.1449266999989,83.1449266999989,83.1449266999989,83.1449266999989,83.1449266999989,83.1449266999989,83.1449266999989,83.1449266999989,,006,P010,2025_Feb_01_1541,ConditionRich,2021.2.3,59.937197803900325,
52.0,52.75,35,0.75,Stimuli/P010/things_mushroom_05n.jpg,0,0,0.0,0,97,97,97,,,,,,,,,,,,,52.01165300000139,0.011653000001388136,None,83.37846780000109,83.37846780000109,83.37846780000109,83.37846780000109,83.37846780000109,83.37846780000109,83.37846780000109,83.37846780000109,83.37846780000109,83.37846780000109,,006,P010,2025_Feb_01_1541,ConditionRich,2021.2.3,59.937197803900325,
52.75,53.0,41,0.0,Stimuli/Blank.png,0,0,0.0,0,98,98,98,,,,,,,,,,,,,52.762810100000934,0.012810100000933744,None,84.14583159999893,84.14583159999893,84.14583159999893,84.14583159999893,84.14583159999893,84.14583159999893,84.14583159999893,84.14583159999893,84.14583159999893,84.14583159999893,,006,P010,2025_Feb_01_1541,ConditionRich,2021.2.3,59.937197803900325,
53.0,53.75,35,0.75,Stimuli/P010/things_mushroom_05n.jpg,0,0,0.0,0,99,99,99,,,,,,,,,,,,,53.02968410000176,0.02968410000175936,None,84.41271829999823,84.41271829999823,84.41271829999823,84.41271829999823,84.41271829999823,84.41271829999823,84.41271829999823,84.41271829999823,84.41271829999823,84.41271829999823,,006,P010,2025_Feb_01_1541,ConditionRich,2021.2.3,59.937197803900325,
53.75,54.0,41,0.0,Stimuli/Blank.png,0,0,0.0,0,100,100,100,,,,,,,,,,,,,53.77894440000091,0.02894440000090981,None,85.14677949999896,85.14677949999896,85.14677949999896,85.14677949999896,85.14677949999896,85.14677949999896,85.14677949999896,85.14677949999896,85.14677949999896,85.14677949999896,,006,P010,2025_Feb_01_1541,ConditionRich,2021.2.3,59.937197803900325,
54.0,54.75,35,0.75,Stimuli/P010/things_mushroom_05n.jpg,0,0,0.0,0,101,101,101,,,,,,,,,,,,,54.01261760000125,0.01261760000124923,None,85.38023909999902,85.38023909999902,85.38023909999902,85.38023909999902,85.38023909999902,85.38023909999902,85.38023909999902,85.38023909999902,85.38023909999902,85.38023909999902,,006,P010,2025_Feb_01_1541,ConditionRich,2021.2.3,59.937197803900325,
54.75,55.0,41,0.0,Stimuli/Blank.png,0,0,0.0,0,102,102,102,,,,,,,,,,,,,54.763238800002,0.013238800002000062,None,86.13090329999977,86.13090329999977,86.13090329999977,86.13090329999977,86.13090329999977,86.13090329999977,86.13090329999977,86.13090329999977,86.13090329999977,86.13090329999977,,006,P010,2025_Feb_01_1541,ConditionRich,2021.2.3,59.937197803900325,
55.0,55.75,35,0.75,Stimuli/P010/things_mushroom_05n.jpg,0,0,0.0,0,103,103,103,,,,,,,,,,,,,55.01420230000076,0.01420230000076117,None,86.39780729999984,86.39780729999984,86.39780729999984,86.39780729999984,86.39780729999984,86.39780729999984,86.39780729999984,86.39780729999984,86.39780729999984,86.39780729999984,,006,P010,2025_Feb_01_1541,ConditionRich,2021.2.3,59.937197803900325,
55.75,56.0,41,0.0,Stimuli/Blank.png,0,0,0.0,0,104,104,104,,,,,,,,,,,,,55.782306699999026,0.03230669999902602,None,87.14847749999899,87.14847749999899,87.14847749999899,87.14847749999899,87.14847749999899,87.14847749999899,87.14847749999899,87.14847749999899,87.14847749999899,87.14847749999899,,006,P010,2025_Feb_01_1541,ConditionRich,2021.2.3,59.937197803900325,
56.0,56.75,13,0.75,Stimuli/P010/sun_bjimvgwadfodioes.jpg,0,0,0.0,0,105,105,105,,,,,,,,,,,,,55.99772099999973,-0.0022790000002714805,None,87.36532299999817,87.36532299999817,87.36532299999817,87.36532299999817,87.36532299999817,87.36532299999817,87.36532299999817,87.36532299999817,87.36532299999817,87.36532299999817,,006,P010,2025_Feb_01_1541,ConditionRich,2021.2.3,59.937197803900325,
56.75,57.0,41,0.0,Stimuli/Blank.png,0,0,0.0,0,106,106,106,,,,,,,,,,,,,56.76753420000023,0.01753420000022743,None,88.14934960000028,88.14934960000028,88.14934960000028,88.14934960000028,88.14934960000028,88.14934960000028,88.14934960000028,88.14934960000028,88.14934960000028,88.14934960000028,,006,P010,2025_Feb_01_1541,ConditionRich,2021.2.3,59.937197803900325,
57.0,57.75,13,0.75,Stimuli/P010/sun_bjimvgwadfodioes.jpg,0,0,0.0,0,107,107,107,,,,,,,,,,,,,57.015998599999875,0.015998599999875296,None,88.38290390000111,88.38290390000111,88.38290390000111,88.38290390000111,88.38290390000111,88.38290390000111,88.38290390000111,88.38290390000111,88.38290390000111,88.38290390000111,,006,P010,2025_Feb_01_1541,ConditionRich,2021.2.3,59.937197803900325,
57.75,58.0,41,0.0,Stimuli/Blank.png,0,0,0.0,0,108,108,108,,,,,,,,,,,,,57.751244099999894,0.001244099999894388,None,89.13357519999772,89.13357519999772,89.13357519999772,89.13357519999772,89.13357519999772,89.13357519999772,89.13357519999772,89.13357519999772,89.13357519999772,89.13357519999772,,006,P010,2025_Feb_01_1541,ConditionRich,2021.2.3,59.937197803900325,
58.0,58.75,13,0.75,Stimuli/P010/sun_bjimvgwadfodioes.jpg,0,0,0.0,0,109,109,109,,,,,,,,,,,,,58.016076100000646,0.016076100000645965,None,89.38378319999902,89.38378319999902,89.38378319999902,89.38378319999902,89.38378319999902,89.38378319999902,89.38378319999902,89.38378319999902,89.38378319999902,89.38378319999902,,006,P010,2025_Feb_01_1541,ConditionRich,2021.2.3,59.937197803900325,
58.75,59.0,41,0.0,Stimuli/Blank.png,0,0,0.0,0,110,110,110,,,,,,,,,,,,,58.75115830000141,0.0011583000014070421,None,90.11778530000083,90.11778530000083,90.11778530000083,90.11778530000083,90.11778530000083,90.11778530000083,90.11778530000083,90.11778530000083,90.11778530000083,90.11778530000083,,006,P010,2025_Feb_01_1541,ConditionRich,2021.2.3,59.937197803900325,
59.0,59.75,13,0.75,Stimuli/P010/sun_bjimvgwadfodioes.jpg,0,0,0.0,0,111,111,111,,,,,,,,,,,,,59.00108910000199,0.001089100001991028,None,90.3846639000003,90.3846639000003,90.3846639000003,90.3846639000003,90.3846639000003,90.3846639000003,90.3846639000003,90.3846639000003,90.3846639000003,90.3846639000003,,006,P010,2025_Feb_01_1541,ConditionRich,2021.2.3,59.937197803900325,
59.75,60.0,41,0.0,Stimuli/Blank.png,0,0,0.0,0,112,112,112,,,,,,,,,,,,,59.7678350999995,0.017835099999501836,None,91.13532660000055,91.13532660000055,91.13532660000055,91.13532660000055,91.13532660000055,91.13532660000055,91.13532660000055,91.13532660000055,91.13532660000055,91.13532660000055,,006,P010,2025_Feb_01_1541,ConditionRich,2021.2.3,59.937197803900325,
60.0,60.75,24,0.75,Stimuli/P010/things_cigar_05n.jpg,0,0,0.0,0,113,113,113,,,,,,,,,,,,,60.001805399999284,0.0018053999992844183,None,91.36886539999978,91.36886539999978,91.36886539999978,91.36886539999978,91.36886539999978,91.36886539999978,91.36886539999978,91.36886539999978,91.36886539999978,91.36886539999978,,006,P010,2025_Feb_01_1541,ConditionRich,2021.2.3,59.937197803900325,
60.75,61.0,41,0.0,Stimuli/Blank.png,0,0,0.0,0,114,114,114,,,,,,,,,,,,,60.75238380000155,0.002383800001553027,None,92.11953749999884,92.11953749999884,92.11953749999884,92.11953749999884,92.11953749999884,92.11953749999884,92.11953749999884,92.11953749999884,92.11953749999884,92.11953749999884,,006,P010,2025_Feb_01_1541,ConditionRich,2021.2.3,59.937197803900325,
61.0,61.75,24,0.75,Stimuli/P010/things_cigar_05n.jpg,0,0,0.0,0,115,115,115,,,,,,,,,,,,,61.002278100000694,0.002278100000694394,None,92.36975049999819,92.36975049999819,92.36975049999819,92.36975049999819,92.36975049999819,92.36975049999819,92.36975049999819,92.36975049999819,92.36975049999819,92.36975049999819,,006,P010,2025_Feb_01_1541,ConditionRich,2021.2.3,59.937197803900325,
61.75,62.0,41,0.0,Stimuli/Blank.png,0,0,0.0,0,116,116,116,,,,,,,,,,,,,61.75346409999838,0.003464099998382153,None,93.12041849999878,93.12041849999878,93.12041849999878,93.12041849999878,93.12041849999878,93.12041849999878,93.12041849999878,93.12041849999878,93.12041849999878,93.12041849999878,,006,P010,2025_Feb_01_1541,ConditionRich,2021.2.3,59.937197803900325,
62.0,62.75,24,0.75,Stimuli/P010/things_cigar_05n.jpg,0,0,0.0,0,117,117,117,,,,,,,,,,,,,62.00360340000043,0.0036034000004292466,None,93.37064159999863,93.37064159999863,93.37064159999863,93.37064159999863,93.37064159999863,93.37064159999863,93.37064159999863,93.37064159999863,93.37064159999863,93.37064159999863,,006,P010,2025_Feb_01_1541,ConditionRich,2021.2.3,59.937197803900325,
62.75,63.0,41,0.0,Stimuli/Blank.png,0,0,0.0,0,118,118,118,,,,,,,,,,,,,62.75468000000183,0.004680000001826556,None,94.12131849999787,94.12131849999787,94.12131849999787,94.12131849999787,94.12131849999787,94.12131849999787,94.12131849999787,94.12131849999787,94.12131849999787,94.12131849999787,,006,P010,2025_Feb_01_1541,ConditionRich,2021.2.3,59.937197803900325,
63.0,63.75,24,0.75,Stimuli/P010/things_cigar_05n.jpg,0,0,0.0,0,119,119,119,,,,,,,,,,,,,63.00665880000088,0.006658800000877818,None,94.38821180000014,94.38821180000014,94.38821180000014,94.38821180000014,94.38821180000014,94.38821180000014,94.38821180000014,94.38821180000014,94.38821180000014,94.38821180000014,,006,P010,2025_Feb_01_1541,ConditionRich,2021.2.3,59.937197803900325,
63.75,64.0,41,0.0,Stimuli/Blank.png,0,0,0.0,0,120,120,120,,,,,,,,,,,,,63.772294900001725,0.022294900001725182,None,95.13888260000022,95.13888260000022,95.13888260000022,95.13888260000022,95.13888260000022,95.13888260000022,95.13888260000022,95.13888260000022,95.13888260000022,95.13888260000022,,006,P010,2025_Feb_01_1541,ConditionRich,2021.2.3,59.937197803900325,
64.0,64.75,36,0.75,Stimuli/P010/things_pelican_05s.jpg,0,0,0.0,0,121,121,121,,,,,,,,,,,,,64.00517899999977,0.005178999999770895,None,95.3724078999985,95.3724078999985,95.3724078999985,95.3724078999985,95.3724078999985,95.3724078999985,95.3724078999985,95.3724078999985,95.3724078999985,95.3724078999985,,006,P010,2025_Feb_01_1541,ConditionRich,2021.2.3,59.937197803900325,
64.75,65.0,41,0.0,Stimuli/Blank.png,0,0,0.0,0,122,122,122,,,,,,,,,,,,,64.75589020000189,0.0058902000018861145,None,96.12307510000028,96.12307510000028,96.12307510000028,96.12307510000028,96.12307510000028,96.12307510000028,96.12307510000028,96.12307510000028,96.12307510000028,96.12307510000028,,006,P010,2025_Feb_01_1541,ConditionRich,2021.2.3,59.937197803900325,
65.0,65.75,36,0.75,Stimuli/P010/things_pelican_05s.jpg,0,0,0.0,0,123,123,123,,,,,,,,,,,,,65.00626980000015,0.006269800000154646,None,96.38997720000043,96.38997720000043,96.38997720000043,96.38997720000043,96.38997720000043,96.38997720000043,96.38997720000043,96.38997720000043,96.38997720000043,96.38997720000043,,006,P010,2025_Feb_01_1541,ConditionRich,2021.2.3,59.937197803900325,
65.75,66.0,41,0.0,Stimuli/Blank.png,0,0,0.0,0,124,124,124,,,,,,,,,,,,,65.7737472000008,0.02374720000079833,None,97.14064409999992,97.14064409999992,97.14064409999992,97.14064409999992,97.14064409999992,97.14064409999992,97.14064409999992,97.14064409999992,97.14064409999992,97.14064409999992,,006,P010,2025_Feb_01_1541,ConditionRich,2021.2.3,59.937197803900325,
66.0,66.75,36,0.75,Stimuli/P010/things_pelican_05s.jpg,0,0,0.0,0,125,125,125,,,,,,,,,,,,,66.00650899999891,0.006508999998914078,None,97.37417730000016,97.37417730000016,97.37417730000016,97.37417730000016,97.37417730000016,97.37417730000016,97.37417730000016,97.37417730000016,97.37417730000016,97.37417730000016,,006,P010,2025_Feb_01_1541,ConditionRich,2021.2.3,59.937197803900325,
66.75,67.0,41,0.0,Stimuli/Blank.png,0,0,0.0,0,126,126,126,,,,,,,,,,,,,66.75795339999968,0.007953399999678368,None,98.12484469999981,98.12484469999981,98.12484469999981,98.12484469999981,98.12484469999981,98.12484469999981,98.12484469999981,98.12484469999981,98.12484469999981,98.12484469999981,,006,P010,2025_Feb_01_1541,ConditionRich,2021.2.3,59.937197803900325,
67.0,67.75,36,0.75,Stimuli/P010/things_pelican_05s.jpg,0,0,0.0,0,127,127,127,,,,,,,,,,,,,67.00742249999894,0.007422499998938292,None,98.37506339999891,98.37506339999891,98.37506339999891,98.37506339999891,98.37506339999891,98.37506339999891,98.37506339999891,98.37506339999891,98.37506339999891,98.37506339999891,,006,P010,2025_Feb_01_1541,ConditionRich,2021.2.3,59.937197803900325,
67.75,68.0,41,0.0,Stimuli/Blank.png,0,0,0.0,0,128,128,128,,,,,,,,,,,,,67.75873349999893,0.008733499998925254,None,99.12577070000043,99.12577070000043,99.12577070000043,99.12577070000043,99.12577070000043,99.12577070000043,99.12577070000043,99.12577070000043,99.12577070000043,99.12577070000043,,006,P010,2025_Feb_01_1541,ConditionRich,2021.2.3,59.937197803900325,
68.0,68.75,16,0.75,Stimuli/P010/sun_bqpyqljaflidcauh.jpg,0,0,0.0,0,129,129,129,,,,,,,,,,,,,68.00847590000194,0.008475900001940317,None,99.39264589999948,99.39264589999948,99.39264589999948,99.39264589999948,99.39264589999948,99.39264589999948,99.39264589999948,99.39264589999948,99.39264589999948,99.39264589999948,,006,P010,2025_Feb_01_1541,ConditionRich,2021.2.3,59.937197803900325,
68.75,69.0,41,0.0,Stimuli/Blank.png,0,0,0.0,0,130,130,130,,,,,,,,,,,,,68.77633419999984,0.026334199999837438,None,100.14327229999981,100.14327229999981,100.14327229999981,100.14327229999981,100.14327229999981,100.14327229999981,100.14327229999981,100.14327229999981,100.14327229999981,100.14327229999981,,006,P010,2025_Feb_01_1541,ConditionRich,2021.2.3,59.937197803900325,
69.0,69.75,16,0.75,Stimuli/P010/sun_bqpyqljaflidcauh.jpg,1,0,0.75,0,131,131,131,,,,,,,,,,,,,69.00911420000193,0.00911420000193175,1,100.39352959999815,100.39352959999815,100.39352959999815,100.39352959999815,100.39352959999815,100.39352959999815,100.39352959999815,101.11080969999966,100.39352959999815,100.39352959999815,0.5127127999985532,006,P010,2025_Feb_01_1541,ConditionRich,2021.2.3,59.937197803900325,
69.75,70.0,41,0.0,Stimuli/Blank.png,0,0,0.0,0,132,132,132,,,,,,,,,,,,,69.77671760000158,0.026717600001575192,None,101.14418450000085,101.14418450000085,101.14418450000085,101.14418450000085,101.14418450000085,101.14418450000085,101.14418450000085,101.14418450000085,101.14418450000085,101.14418450000085,,006,P010,2025_Feb_01_1541,ConditionRich,2021.2.3,59.937197803900325,
70.0,70.75,16,0.75,Stimuli/P010/sun_bqpyqljaflidcauh.jpg,0,0,0.0,0,133,133,133,,,,,,,,,,,,,70.01011600000129,0.010116000001289649,None,101.37772250000125,101.37772250000125,101.37772250000125,101.37772250000125,101.37772250000125,101.37772250000125,101.37772250000125,101.37772250000125,101.37772250000125,101.37772250000125,,006,P010,2025_Feb_01_1541,ConditionRich,2021.2.3,59.937197803900325,
70.75,71.0,41,0.0,Stimuli/Blank.png,0,0,0.0,0,134,134,134,,,,,,,,,,,,,70.76080799999909,0.01080799999908777,None,102.12841750000007,102.12841750000007,102.12841750000007,102.12841750000007,102.12841750000007,102.12841750000007,102.12841750000007,102.12841750000007,102.12841750000007,102.12841750000007,,006,P010,2025_Feb_01_1541,ConditionRich,2021.2.3,59.937197803900325,
71.0,71.75,16,0.75,Stimuli/P010/sun_bqpyqljaflidcauh.jpg,0,0,0.0,0,135,135,135,,,,,,,,,,,,,71.01102739999988,0.011027399999875342,None,102.37859549999848,102.37859549999848,102.37859549999848,102.37859549999848,102.37859549999848,102.37859549999848,102.37859549999848,102.37859549999848,102.37859549999848,102.37859549999848,,006,P010,2025_Feb_01_1541,ConditionRich,2021.2.3,59.937197803900325,
71.75,72.0,41,0.0,Stimuli/Blank.png,0,0,0.0,0,136,136,136,,,,,,,,,,,,,71.76224400000137,0.012244000001373934,None,103.12928149999789,103.12928149999789,103.12928149999789,103.12928149999789,103.12928149999789,103.12928149999789,103.12928149999789,103.12928149999789,103.12928149999789,103.12928149999789,,006,P010,2025_Feb_01_1541,ConditionRich,2021.2.3,59.937197803900325,
72.0,72.75,29,0.75,Stimuli/P010/things_fingerprint_05s.jpg,0,0,0.0,0,137,137,137,,,,,,,,,,,,,72.01232750000054,0.012327500000537839,None,103.37950419999834,103.37950419999834,103.37950419999834,103.37950419999834,103.37950419999834,103.37950419999834,103.37950419999834,103.37950419999834,103.37950419999834,103.37950419999834,,006,P010,2025_Feb_01_1541,ConditionRich,2021.2.3,59.937197803900325,
72.75,73.0,41,0.0,Stimuli/Blank.png,0,0,0.0,0,138,138,138,,,,,,,,,,,,,72.76237670000046,0.012376700000459095,None,104.13015109999833,104.13015109999833,104.13015109999833,104.13015109999833,104.13015109999833,104.13015109999833,104.13015109999833,104.13015109999833,104.13015109999833,104.13015109999833,,006,P010,2025_Feb_01_1541,ConditionRich,2021.2.3,59.937197803900325,
73.0,73.75,29,0.75,Stimuli/P010/things_fingerprint_05s.jpg,0,0,0.0,0,139,139,139,,,,,,,,,,,,,73.01340229999914,0.013402299999142997,None,104.38037769999937,104.38037769999937,104.38037769999937,104.38037769999937,104.38037769999937,104.38037769999937,104.38037769999937,104.38037769999937,104.38037769999937,104.38037769999937,,006,P010,2025_Feb_01_1541,ConditionRich,2021.2.3,59.937197803900325,
73.75,74.0,41,0.0,Stimuli/Blank.png,0,0,0.0,0,140,140,140,,,,,,,,,,,,,73.76404460000049,0.014044600000488572,None,105.13104899999962,105.13104899999962,105.13104899999962,105.13104899999962,105.13104899999962,105.13104899999962,105.13104899999962,105.13104899999962,105.13104899999962,105.13104899999962,,006,P010,2025_Feb_01_1541,ConditionRich,2021.2.3,59.937197803900325,
74.0,74.75,29,0.75,Stimuli/P010/things_fingerprint_05s.jpg,0,0,0.0,0,141,141,141,,,,,,,,,,,,,74.01356859999942,0.01356859999941662,None,105.38126189999821,105.38126189999821,105.38126189999821,105.38126189999821,105.38126189999821,105.38126189999821,105.38126189999821,105.38126189999821,105.38126189999821,105.38126189999821,,006,P010,2025_Feb_01_1541,ConditionRich,2021.2.3,59.937197803900325,
74.75,75.0,41,0.0,Stimuli/Blank.png,0,0,0.0,0,142,142,142,,,,,,,,,,,,,74.7663293000005,0.01632930000050692,None,106.14861999999994,106.14861999999994,106.14861999999994,106.14861999999994,106.14861999999994,106.14861999999994,106.14861999999994,106.14861999999994,106.14861999999994,106.14861999999994,,006,P010,2025_Feb_01_1541,ConditionRich,2021.2.3,59.937197803900325,
75.0,75.75,29,0.75,Stimuli/P010/things_fingerprint_05s.jpg,0,0,0.0,0,143,143,143,,,,,,,,,,,,,75.01634190000186,0.016341900001862086,None,106.39883869999903,106.39883869999903,106.39883869999903,106.39883869999903,106.39883869999903,106.39883869999903,106.39883869999903,106.39883869999903,106.39883869999903,106.39883869999903,,006,P010,2025_Feb_01_1541,ConditionRich,2021.2.3,59.937197803900325,
75.75,76.0,41,0.0,Stimuli/Blank.png,0,0,0.0,0,144,144,144,,,,,,,,,,,,,75.76573730000018,0.015737300000182586,None,107.13282189999882,107.13282189999882,107.13282189999882,107.13282189999882,107.13282189999882,107.13282189999882,107.13282189999882,107.13282189999882,107.13282189999882,107.13282189999882,,006,P010,2025_Feb_01_1541,ConditionRich,2021.2.3,59.937197803900325,
76.0,76.75,14,0.75,Stimuli/P010/sun_blaqxdebghixzyyw.jpg,0,0,0.0,0,145,145,145,,,,,,,,,,,,,75.99856770000042,-0.0014322999995783903,None,107.36632230000032,107.36632230000032,107.36632230000032,107.36632230000032,107.36632230000032,107.36632230000032,107.36632230000032,107.36632230000032,107.36632230000032,107.36632230000032,,006,P010,2025_Feb_01_1541,ConditionRich,2021.2.3,59.937197803900325,
76.75,77.0,41,0.0,Stimuli/Blank.png,0,0,0.0,0,146,146,146,,,,,,,,,,,,,76.75084770000103,0.000847700001031626,None,108.11716189999788,108.11716189999788,108.11716189999788,108.11716189999788,108.11716189999788,108.11716189999788,108.11716189999788,108.11716189999788,108.11716189999788,108.11716189999788,,006,P010,2025_Feb_01_1541,ConditionRich,2021.2.3,59.937197803900325,
77.0,77.75,14,0.75,Stimuli/P010/sun_blaqxdebghixzyyw.jpg,0,0,0.0,0,147,147,147,,,,,,,,,,,,,77.00191220000124,0.0019122000012430362,None,108.38395189999937,108.38395189999937,108.38395189999937,108.38395189999937,108.38395189999937,108.38395189999937,108.38395189999937,108.38395189999937,108.38395189999937,108.38395189999937,,006,P010,2025_Feb_01_1541,ConditionRich,2021.2.3,59.937197803900325,
77.75,78.0,41,0.0,Stimuli/Blank.png,0,0,0.0,0,148,148,148,,,,,,,,,,,,,77.76769340000101,0.01769340000100783,None,109.13458040000114,109.13458040000114,109.13458040000114,109.13458040000114,109.13458040000114,109.13458040000114,109.13458040000114,109.13458040000114,109.13458040000114,109.13458040000114,,006,P010,2025_Feb_01_1541,ConditionRich,2021.2.3,59.937197803900325,
78.0,78.75,14,0.75,Stimuli/P010/sun_blaqxdebghixzyyw.jpg,0,0,0.0,0,149,149,149,,,,,,,,,,,,,78.0004001999987,0.00040019999869400635,None,109.36815990000105,109.36815990000105,109.36815990000105,109.36815990000105,109.36815990000105,109.36815990000105,109.36815990000105,109.36815990000105,109.36815990000105,109.36815990000105,,006,P010,2025_Feb_01_1541,ConditionRich,2021.2.3,59.937197803900325,
78.75,79.0,41,0.0,Stimuli/Blank.png,0,0,0.0,0,150,150,150,,,,,,,,,,,,,78.75160379999943,0.0016037999994296115,None,110.11879870000121,110.11879870000121,110.11879870000121,110.11879870000121,110.11879870000121,110.11879870000121,110.11879870000121,110.11879870000121,110.11879870000121,110.11879870000121,,006,P010,2025_Feb_01_1541,ConditionRich,2021.2.3,59.937197803900325,
79.0,79.75,14,0.75,Stimuli/P010/sun_blaqxdebghixzyyw.jpg,0,0,0.0,0,151,151,151,,,,,,,,,,,,,79.00189959999989,0.0018995999998878688,None,110.38568979999764,110.38568979999764,110.38568979999764,110.38568979999764,110.38568979999764,110.38568979999764,110.38568979999764,110.38568979999764,110.38568979999764,110.38568979999764,,006,P010,2025_Feb_01_1541,ConditionRich,2021.2.3,59.937197803900325,
79.75,80.0,41,0.0,Stimuli/Blank.png,0,0,0.0,0,152,152,152,,,,,,,,,,,,,79.77193009999974,0.02193009999973583,None,111.15305470000021,111.15305470000021,111.15305470000021,111.15305470000021,111.15305470000021,111.15305470000021,111.15305470000021,111.15305470000021,111.15305470000021,111.15305470000021,,006,P010,2025_Feb_01_1541,ConditionRich,2021.2.3,59.937197803900325,
80.0,80.75,25,0.75,Stimuli/P010/things_clothespin_05s.jpg,0,0,0.0,0,153,153,153,,,,,,,,,,,,,80.01882380000097,0.01882380000097328,None,111.40325709999888,111.40325709999888,111.40325709999888,111.40325709999888,111.40325709999888,111.40325709999888,111.40325709999888,111.40325709999888,111.40325709999888,111.40325709999888,,006,P010,2025_Feb_01_1541,ConditionRich,2021.2.3,59.937197803900325,
80.75,81.0,41,0.0,Stimuli/Blank.png,0,0,0.0,0,154,154,154,,,,,,,,,,,,,80.77016409999851,0.02016409999851021,None,112.13724419999926,112.13724419999926,112.13724419999926,112.13724419999926,112.13724419999926,112.13724419999926,112.13724419999926,112.13724419999926,112.13724419999926,112.13724419999926,,006,P010,2025_Feb_01_1541,ConditionRich,2021.2.3,59.937197803900325,
81.0,81.75,25,0.75,Stimuli/P010/things_clothespin_05s.jpg,0,0,0.0,0,155,155,155,,,,,,,,,,,,,81.00379460000113,0.003794600001128856,None,112.37077829999907,112.37077829999907,112.37077829999907,112.37077829999907,112.37077829999907,112.37077829999907,112.37077829999907,112.37077829999907,112.37077829999907,112.37077829999907,,006,P010,2025_Feb_01_1541,ConditionRich,2021.2.3,59.937197803900325,
81.75,82.0,41,0.0,Stimuli/Blank.png,0,0,0.0,0,156,156,156,,,,,,,,,,,,,81.75480840000091,0.004808400000911206,None,113.12147610000102,113.12147610000102,113.12147610000102,113.12147610000102,113.12147610000102,113.12147610000102,113.12147610000102,113.12147610000102,113.12147610000102,113.12147610000102,,006,P010,2025_Feb_01_1541,ConditionRich,2021.2.3,59.937197803900325,
82.0,82.75,25,0.75,Stimuli/P010/things_clothespin_05s.jpg,0,0,0.0,0,157,157,157,,,,,,,,,,,,,82.0046970000003,0.004697000000305707,None,113.38834320000024,113.38834320000024,113.38834320000024,113.38834320000024,113.38834320000024,113.38834320000024,113.38834320000024,113.38834320000024,113.38834320000024,113.38834320000024,,006,P010,2025_Feb_01_1541,ConditionRich,2021.2.3,59.937197803900325,
82.75,83.0,41,0.0,Stimuli/Blank.png,0,0,0.0,0,158,158,158,,,,,,,,,,,,,82.77211220000027,0.022112200000265148,None,114.1390055999982,114.1390055999982,114.1390055999982,114.1390055999982,114.1390055999982,114.1390055999982,114.1390055999982,114.1390055999982,114.1390055999982,114.1390055999982,,006,P010,2025_Feb_01_1541,ConditionRich,2021.2.3,59.937197803900325,
83.0,83.75,25,0.75,Stimuli/P010/things_clothespin_05s.jpg,0,0,0.0,0,159,159,159,,,,,,,,,,,,,83.00670670000181,0.00670670000181417,None,114.38923720000093,114.38923720000093,114.38923720000093,114.38923720000093,114.38923720000093,114.38923720000093,114.38923720000093,114.38923720000093,114.38923720000093,114.38923720000093,,006,P010,2025_Feb_01_1541,ConditionRich,2021.2.3,59.937197803900325,
83.75,84.0,41,0.0,Stimuli/Blank.png,0,0,0.0,0,160,160,160,,,,,,,,,,,,,83.77312449999954,0.023124499999539694,None,115.13987009999983,115.13987009999983,115.13987009999983,115.13987009999983,115.13987009999983,115.13987009999983,115.13987009999983,115.13987009999983,115.13987009999983,115.13987009999983,,006,P010,2025_Feb_01_1541,ConditionRich,2021.2.3,59.937197803900325,
84.0,100.0,0,0.0,Stimuli/Blank.png,1,1,1.75,0,161,161,161,,,,,,,,,,,,,84.00673420000021,0.006734200000209967,None,115.37343770000007,115.37343770000007,115.37343770000007,115.37343770000007,115.37343770000007,115.37343770000007,116.35767119999946,117.10830110000097,115.37343770000007,115.37343770000007,,006,P010,2025_Feb_01_1541,ConditionRich,2021.2.3,59.937197803900325,
100.0,100.75,2,0.75,Stimuli/P010/sun_acvloibbxiqpiwnv.jpg,0,0,0.0,0,162,162,162,,,,,,,,,,,,,100.00399140000081,0.003991400000813883,None,131.37092199999825,131.37092199999825,131.37092199999825,131.37092199999825,131.37092199999825,131.37092199999825,131.37092199999825,131.37092199999825,131.37092199999825,131.37092199999825,,006,P010,2025_Feb_01_1541,ConditionRich,2021.2.3,59.937197803900325,
100.75,101.0,41,0.0,Stimuli/Blank.png,0,0,0.0,0,163,163,163,,,,,,,,,,,,,100.7566814999991,0.006681499999103835,None,132.1382749000004,132.1382749000004,132.1382749000004,132.1382749000004,132.1382749000004,132.1382749000004,132.1382749000004,132.1382749000004,132.1382749000004,132.1382749000004,,006,P010,2025_Feb_01_1541,ConditionRich,2021.2.3,59.937197803900325,
101.0,101.75,2,0.75,Stimuli/P010/sun_acvloibbxiqpiwnv.jpg,0,0,0.0,0,164,164,164,,,,,,,,,,,,,101.0220401000006,0.022040100000594975,None,132.40518520000114,132.40518520000114,132.40518520000114,132.40518520000114,132.40518520000114,132.40518520000114,132.40518520000114,132.40518520000114,132.40518520000114,132.40518520000114,,006,P010,2025_Feb_01_1541,ConditionRich,2021.2.3,59.937197803900325,
101.75,102.0,41,0.0,Stimuli/Blank.png,0,0,0.0,0,165,165,165,,,,,,,,,,,,,101.77303179999944,0.023031799999444047,None,133.1391767999994,133.1391767999994,133.1391767999994,133.1391767999994,133.1391767999994,133.1391767999994,133.1391767999994,133.1391767999994,133.1391767999994,133.1391767999994,,006,P010,2025_Feb_01_1541,ConditionRich,2021.2.3,59.937197803900325,
102.0,102.75,2,0.75,Stimuli/P010/sun_acvloibbxiqpiwnv.jpg,0,0,0.0,0,166,166,166,,,,,,,,,,,,,102.00582159999976,0.005821599999762839,None,133.37268770000082,133.37268770000082,133.37268770000082,133.37268770000082,133.37268770000082,133.37268770000082,133.37268770000082,133.37268770000082,133.37268770000082,133.37268770000082,,006,P010,2025_Feb_01_1541,ConditionRich,2021.2.3,59.937197803900325,
102.75,103.0,41,0.0,Stimuli/Blank.png,0,0,0.0,0,167,167,167,,,,,,,,,,,,,102.75635730000067,0.006357300000672694,None,134.1233675000003,134.1233675000003,134.1233675000003,134.1233675000003,134.1233675000003,134.1233675000003,134.1233675000003,134.1233675000003,134.1233675000003,134.1233675000003,,006,P010,2025_Feb_01_1541,ConditionRich,2021.2.3,59.937197803900325,
103.0,103.75,2,0.75,Stimuli/P010/sun_acvloibbxiqpiwnv.jpg,0,0,0.0,0,168,168,168,,,,,,,,,,,,,103.0073775000019,0.007377500001894077,None,134.37358089999907,134.37358089999907,134.37358089999907,134.37358089999907,134.37358089999907,134.37358089999907,134.37358089999907,134.37358089999907,134.37358089999907,134.37358089999907,,006,P010,2025_Feb_01_1541,ConditionRich,2021.2.3,59.937197803900325,
103.75,104.0,41,0.0,Stimuli/Blank.png,0,0,0.0,0,169,169,169,,,,,,,,,,,,,103.75649340000018,0.006493400000181282,None,135.12423760000092,135.12423760000092,135.12423760000092,135.12423760000092,135.12423760000092,135.12423760000092,135.12423760000092,135.12423760000092,135.12423760000092,135.12423760000092,,006,P010,2025_Feb_01_1541,ConditionRich,2021.2.3,59.937197803900325,
104.0,104.75,3,0.75,Stimuli/P010/sun_aewgwsmvsgzleqhw.jpg,0,0,0.0,0,170,170,170,,,,,,,,,,,,,104.00695529999939,0.006955299999390263,None,135.37445769999977,135.37445769999977,135.37445769999977,135.37445769999977,135.37445769999977,135.37445769999977,135.37445769999977,135.37445769999977,135.37445769999977,135.37445769999977,,006,P010,2025_Feb_01_1541,ConditionRich,2021.2.3,59.937197803900325,
104.75,105.0,41,0.0,Stimuli/Blank.png,0,0,0.0,0,171,171,171,,,,,,,,,,,,,104.75794899999892,0.007948999998916406,None,136.12513019999824,136.12513019999824,136.12513019999824,136.12513019999824,136.12513019999824,136.12513019999824,136.12513019999824,136.12513019999824,136.12513019999824,136.12513019999824,,006,P010,2025_Feb_01_1541,ConditionRich,2021.2.3,59.937197803900325,
105.0,105.75,3,0.75,Stimuli/P010/sun_aewgwsmvsgzleqhw.jpg,0,0,0.0,0,172,172,172,,,,,,,,,,,,,105.00777759999983,0.007777599999826634,None,136.37534849999793,136.37534849999793,136.37534849999793,136.37534849999793,136.37534849999793,136.37534849999793,136.37534849999793,136.37534849999793,136.37534849999793,136.37534849999793,,006,P010,2025_Feb_01_1541,ConditionRich,2021.2.3,59.937197803900325,
105.75,106.0,41,0.0,Stimuli/Blank.png,0,0,0.0,0,173,173,173,,,,,,,,,,,,,105.75866949999909,0.008669499999086838,None,137.1260356999992,137.1260356999992,137.1260356999992,137.1260356999992,137.1260356999992,137.1260356999992,137.1260356999992,137.1260356999992,137.1260356999992,137.1260356999992,,006,P010,2025_Feb_01_1541,ConditionRich,2021.2.3,59.937197803900325,
106.0,106.75,3,0.75,Stimuli/P010/sun_aewgwsmvsgzleqhw.jpg,0,0,0.0,0,174,174,174,,,,,,,,,,,,,106.00859050000145,0.008590500001446344,None,137.376232300001,137.376232300001,137.376232300001,137.376232300001,137.376232300001,137.376232300001,137.376232300001,137.376232300001,137.376232300001,137.376232300001,,006,P010,2025_Feb_01_1541,ConditionRich,2021.2.3,59.937197803900325,
106.75,107.0,41,0.0,Stimuli/Blank.png,0,0,0.0,0,175,175,175,,,,,,,,,,,,,106.76136259999839,0.011362599998392398,None,138.14361029999782,138.14361029999782,138.14361029999782,138.14361029999782,138.14361029999782,138.14361029999782,138.14361029999782,138.14361029999782,138.14361029999782,138.14361029999782,,006,P010,2025_Feb_01_1541,ConditionRich,2021.2.3,59.937197803900325,
107.0,107.75,3,0.75,Stimuli/P010/sun_aewgwsmvsgzleqhw.jpg,0,0,0.0,0,176,176,176,,,,,,,,,,,,,107.02623460000177,0.02623460000177147,None,138.3938022000002,138.3938022000002,138.3938022000002,138.3938022000002,138.3938022000002,138.3938022000002,138.3938022000002,138.3938022000002,138.3938022000002,138.3938022000002,,006,P010,2025_Feb_01_1541,ConditionRich,2021.2.3,59.937197803900325,
107.75,108.0,41,0.0,Stimuli/Blank.png,0,0,0.0,0,177,177,177,,,,,,,,,,,,,107.76021129999936,0.010211299999355106,None,139.12784629999805,139.12784629999805,139.12784629999805,139.12784629999805,139.12784629999805,139.12784629999805,139.12784629999805,139.12784629999805,139.12784629999805,139.12784629999805,,006,P010,2025_Feb_01_1541,ConditionRich,2021.2.3,59.937197803900325,
108.0,108.75,33,0.75,Stimuli/P010/things_lizard_05n.jpg,0,0,0.0,0,178,178,178,,,,,,,,,,,,,108.01031499999954,0.010314999999536667,None,139.37800009999773,139.37800009999773,139.37800009999773,139.37800009999773,139.37800009999773,139.37800009999773,139.37800009999773,139.37800009999773,139.37800009999773,139.37800009999773,,006,P010,2025_Feb_01_1541,ConditionRich,2021.2.3,59.937197803900325,
108.75,109.0,41,0.0,Stimuli/Blank.png,0,0,0.0,0,179,179,179,,,,,,,,,,,,,108.7624051999992,0.012405199999193428,None,140.12867650000044,140.12867650000044,140.12867650000044,140.12867650000044,140.12867650000044,140.12867650000044,140.12867650000044,140.12867650000044,140.12867650000044,140.12867650000044,,006,P010,2025_Feb_01_1541,ConditionRich,2021.2.3,59.937197803900325,
109.0,109.75,33,0.75,Stimuli/P010/things_lizard_05n.jpg,0,0,0.0,0,180,180,180,,,,,,,,,,,,,109.01218960000188,0.012189600001875078,None,140.37888689999818,140.37888689999818,140.37888689999818,140.37888689999818,140.37888689999818,140.37888689999818,140.37888689999818,140.37888689999818,140.37888689999818,140.37888689999818,,006,P010,2025_Feb_01_1541,ConditionRich,2021.2.3,59.937197803900325,
109.75,110.0,41,0.0,Stimuli/Blank.png,0,0,0.0,0,181,181,181,,,,,,,,,,,,,109.76194300000134,0.011943000001338078,None,141.12955330000113,141.12955330000113,141.12955330000113,141.12955330000113,141.12955330000113,141.12955330000113,141.12955330000113,141.12955330000113,141.12955330000113,141.12955330000113,,006,P010,2025_Feb_01_1541,ConditionRich,2021.2.3,59.937197803900325,
110.0,110.75,33,0.75,Stimuli/P010/things_lizard_05n.jpg,0,0,0.0,0,182,182,182,,,,,,,,,,,,,110.01244790000055,0.012447900000552181,None,141.39650070000062,141.39650070000062,141.39650070000062,141.39650070000062,141.39650070000062,141.39650070000062,141.39650070000062,141.39650070000062,141.39650070000062,141.39650070000062,,006,P010,2025_Feb_01_1541,ConditionRich,2021.2.3,59.937197803900325,
110.75,111.0,41,0.0,Stimuli/Blank.png,0,0,0.0,0,183,183,183,,,,,,,,,,,,,110.78159610000148,0.0315961000014795,None,142.16382130000056,142.16382130000056,142.16382130000056,142.16382130000056,142.16382130000056,142.16382130000056,142.16382130000056,142.16382130000056,142.16382130000056,142.16382130000056,,006,P010,2025_Feb_01_1541,ConditionRich,2021.2.3,59.937197803900325,
111.0,111.75,33,0.75,Stimuli/P010/things_lizard_05n.jpg,0,0,0.0,0,184,184,184,,,,,,,,,,,,,111.0297427000005,0.02974270000049728,None,142.39734309999767,142.39734309999767,142.39734309999767,142.39734309999767,142.39734309999767,142.39734309999767,142.39734309999767,142.39734309999767,142.39734309999767,142.39734309999767,,006,P010,2025_Feb_01_1541,ConditionRich,2021.2.3,59.937197803900325,
111.75,112.0,41,0.0,Stimuli/Blank.png,0,0,0.0,0,185,185,185,,,,,,,,,,,,,111.76637770000161,0.01637770000161254,None,143.1480088999997,143.1480088999997,143.1480088999997,143.1480088999997,143.1480088999997,143.1480088999997,143.1480088999997,143.1480088999997,143.1480088999997,143.1480088999997,,006,P010,2025_Feb_01_1541,ConditionRich,2021.2.3,59.937197803900325,
112.0,112.75,37,0.75,Stimuli/P010/things_pug_05s.jpg,0,0,0.0,0,186,186,186,,,,,,,,,,,,,112.0138360000019,0.013836000001901994,None,143.39822859999913,143.39822859999913,143.39822859999913,143.39822859999913,143.39822859999913,143.39822859999913,143.39822859999913,143.39822859999913,143.39822859999913,143.39822859999913,,006,P010,2025_Feb_01_1541,ConditionRich,2021.2.3,59.937197803900325,
112.75,113.0,41,0.0,Stimuli/Blank.png,0,0,0.0,0,187,187,187,,,,,,,,,,,,,112.78264639999907,0.03264639999906649,None,144.1489072000004,144.1489072000004,144.1489072000004,144.1489072000004,144.1489072000004,144.1489072000004,144.1489072000004,144.1489072000004,144.1489072000004,144.1489072000004,,006,P010,2025_Feb_01_1541,ConditionRich,2021.2.3,59.937197803900325,
113.0,113.75,37,0.75,Stimuli/P010/things_pug_05s.jpg,0,0,0.0,0,188,188,188,,,,,,,,,,,,,112.99884880000172,-0.0011511999982758425,None,144.36590699999942,144.36590699999942,144.36590699999942,144.36590699999942,144.36590699999942,144.36590699999942,144.36590699999942,144.36590699999942,144.36590699999942,144.36590699999942,,006,P010,2025_Feb_01_1541,ConditionRich,2021.2.3,59.937197803900325,
113.75,114.0,41,0.0,Stimuli/Blank.png,0,0,0.0,0,189,189,189,,,,,,,,,,,,,113.74917859999914,-0.0008214000008592848,None,145.11640999999872,145.11640999999872,145.11640999999872,145.11640999999872,145.11640999999872,145.11640999999872,145.11640999999872,145.11640999999872,145.11640999999872,145.11640999999872,,006,P010,2025_Feb_01_1541,ConditionRich,2021.2.3,59.937197803900325,
114.0,114.75,37,0.75,Stimuli/P010/things_pug_05s.jpg,0,0,0.0,0,190,190,190,,,,,,,,,,,,,113.99975600000107,-0.00024399999892921187,None,145.3666310999979,145.3666310999979,145.3666310999979,145.3666310999979,145.3666310999979,145.3666310999979,145.3666310999979,145.3666310999979,145.3666310999979,145.3666310999979,,006,P010,2025_Feb_01_1541,ConditionRich,2021.2.3,59.937197803900325,
114.75,115.0,41,0.0,Stimuli/Blank.png,0,0,0.0,0,191,191,191,,,,,,,,,,,,,114.75171469999987,0.001714699999865843,None,146.1339869000003,146.1339869000003,146.1339869000003,146.1339869000003,146.1339869000003,146.1339869000003,146.1339869000003,146.1339869000003,146.1339869000003,146.1339869000003,,006,P010,2025_Feb_01_1541,ConditionRich,2021.2.3,59.937197803900325,
115.0,115.75,37,0.75,Stimuli/P010/things_pug_05s.jpg,0,0,0.0,0,192,192,192,,,,,,,,,,,,,115.01698920000126,0.01698920000126236,None,146.38420929999847,146.38420929999847,146.38420929999847,146.38420929999847,146.38420929999847,146.38420929999847,146.38420929999847,146.38420929999847,146.38420929999847,146.38420929999847,,006,P010,2025_Feb_01_1541,ConditionRich,2021.2.3,59.937197803900325,
115.75,116.0,41,0.0,Stimuli/Blank.png,0,0,0.0,0,193,193,193,,,,,,,,,,,,,115.75113620000047,0.0011362000004737638,None,147.11818950000088,147.11818950000088,147.11818950000088,147.11818950000088,147.11818950000088,147.11818950000088,147.11818950000088,147.11818950000088,147.11818950000088,147.11818950000088,,006,P010,2025_Feb_01_1541,ConditionRich,2021.2.3,59.937197803900325,
116.0,116.75,20,0.75,Stimuli/P010/sun_ddsiwinthvyejghq.jpg,0,0,0.0,0,194,194,194,,,,,,,,,,,,,116.00213599999915,0.002135999999154592,None,147.38509649999833,147.38509649999833,147.38509649999833,147.38509649999833,147.38509649999833,147.38509649999833,147.38509649999833,147.38509649999833,147.38509649999833,147.38509649999833,,006,P010,2025_Feb_01_1541,ConditionRich,2021.2.3,59.937197803900325,
116.75,117.0,41,0.0,Stimuli/Blank.png,0,0,0.0,0,195,195,195,,,,,,,,,,,,,116.76878020000004,0.01878020000003744,None,148.1357504000007,148.1357504000007,148.1357504000007,148.1357504000007,148.1357504000007,148.1357504000007,148.1357504000007,148.1357504000007,148.1357504000007,148.1357504000007,,006,P010,2025_Feb_01_1541,ConditionRich,2021.2.3,59.937197803900325,
117.0,117.75,20,0.75,Stimuli/P010/sun_ddsiwinthvyejghq.jpg,0,0,0.0,0,196,196,196,,,,,,,,,,,,,117.00238589999935,0.002385899999353569,None,148.3692889999984,148.3692889999984,148.3692889999984,148.3692889999984,148.3692889999984,148.3692889999984,148.3692889999984,148.3692889999984,148.3692889999984,148.3692889999984,,006,P010,2025_Feb_01_1541,ConditionRich,2021.2.3,59.937197803900325,
117.75,118.0,41,0.0,Stimuli/Blank.png,0,0,0.0,0,197,197,197,,,,,,,,,,,,,117.75225119999959,0.0022511999995913357,None,149.11994879999838,149.11994879999838,149.11994879999838,149.11994879999838,149.11994879999838,149.11994879999838,149.11994879999838,149.11994879999838,149.11994879999838,149.11994879999838,,006,P010,2025_Feb_01_1541,ConditionRich,2021.2.3,59.937197803900325,
118.0,118.75,20,0.75,Stimuli/P010/sun_ddsiwinthvyejghq.jpg,0,0,0.0,0,198,198,198,,,,,,,,,,,,,118.0024321000019,0.002432100001897197,None,149.37017619999824,149.37017619999824,149.37017619999824,149.37017619999824,149.37017619999824,149.37017619999824,149.37017619999824,149.37017619999824,149.37017619999824,149.37017619999824,,006,P010,2025_Feb_01_1541,ConditionRich,2021.2.3,59.937197803900325,
118.75,119.0,41,0.0,Stimuli/Blank.png,0,0,0.0,0,199,199,199,,,,,,,,,,,,,118.75386219999928,0.0038621999992756173,None,150.1209243000012,150.1209243000012,150.1209243000012,150.1209243000012,150.1209243000012,150.1209243000012,150.1209243000012,150.1209243000012,150.1209243000012,150.1209243000012,,006,P010,2025_Feb_01_1541,ConditionRich,2021.2.3,59.937197803900325,
119.0,119.75,20,0.75,Stimuli/P010/sun_ddsiwinthvyejghq.jpg,0,0,0.0,0,200,200,200,,,,,,,,,,,,,119.0032214999992,0.0032214999991992954,None,150.37105950000114,150.37105950000114,150.37105950000114,150.37105950000114,150.37105950000114,150.37105950000114,150.37105950000114,150.37105950000114,150.37105950000114,150.37105950000114,,006,P010,2025_Feb_01_1541,ConditionRich,2021.2.3,59.937197803900325,
119.75,120.0,41,0.0,Stimuli/Blank.png,0,0,0.0,0,201,201,201,,,,,,,,,,,,,119.75471340000149,0.0047134000014921185,None,151.12173360000088,151.12173360000088,151.12173360000088,151.12173360000088,151.12173360000088,151.12173360000088,151.12173360000088,151.12173360000088,151.12173360000088,151.12173360000088,,006,P010,2025_Feb_01_1541,ConditionRich,2021.2.3,59.937197803900325,
120.0,120.75,34,0.75,Stimuli/P010/things_man_05s.jpg,0,0,0.0,0,202,202,202,,,,,,,,,,,,,120.0042151000016,0.004215100001601968,None,151.38864359999934,151.38864359999934,151.38864359999934,151.38864359999934,151.38864359999934,151.38864359999934,151.38864359999934,151.38864359999934,151.38864359999934,151.38864359999934,,006,P010,2025_Feb_01_1541,ConditionRich,2021.2.3,59.937197803900325,
120.75,121.0,41,0.0,Stimuli/Blank.png,0,0,0.0,0,203,203,203,,,,,,,,,,,,,120.77243820000149,0.02243820000148844,None,152.13929709999866,152.13929709999866,152.13929709999866,152.13929709999866,152.13929709999866,152.13929709999866,152.13929709999866,152.13929709999866,152.13929709999866,152.13929709999866,,006,P010,2025_Feb_01_1541,ConditionRich,2021.2.3,59.937197803900325,
121.0,121.75,34,0.75,Stimuli/P010/things_man_05s.jpg,0,0,0.0,0,204,204,204,,,,,,,,,,,,,121.00805260000197,0.008052600001974497,None,152.38948529999834,152.38948529999834,152.38948529999834,152.38948529999834,152.38948529999834,152.38948529999834,152.38948529999834,152.38948529999834,152.38948529999834,152.38948529999834,,006,P010,2025_Feb_01_1541,ConditionRich,2021.2.3,59.937197803900325,
121.75,122.0,41,0.0,Stimuli/Blank.png,0,0,0.0,0,205,205,205,,,,,,,,,,,,,121.7723771000019,0.022377100001904182,None,153.14017160000003,153.14017160000003,153.14017160000003,153.14017160000003,153.14017160000003,153.14017160000003,153.14017160000003,153.14017160000003,153.14017160000003,153.14017160000003,,006,P010,2025_Feb_01_1541,ConditionRich,2021.2.3,59.937197803900325,
122.0,122.75,34,0.75,Stimuli/P010/things_man_05s.jpg,0,0,0.0,0,206,206,206,,,,,,,,,,,,,122.00639990000127,0.006399900001269998,None,153.37371639999765,153.37371639999765,153.37371639999765,153.37371639999765,153.37371639999765,153.37371639999765,153.37371639999765,153.37371639999765,153.37371639999765,153.37371639999765,,006,P010,2025_Feb_01_1541,ConditionRich,2021.2.3,59.937197803900325,
122.75,123.0,41,0.0,Stimuli/Blank.png,0,0,0.0,0,207,207,207,,,,,,,,,,,,,122.75775150000118,0.007751500001177192,None,154.12438610000027,154.12438610000027,154.12438610000027,154.12438610000027,154.12438610000027,154.12438610000027,154.12438610000027,154.12438610000027,154.12438610000027,154.12438610000027,,006,P010,2025_Feb_01_1541,ConditionRich,2021.2.3,59.937197803900325,
123.0,123.75,34,0.75,Stimuli/P010/things_man_05s.jpg,0,0,0.0,0,208,208,208,,,,,,,,,,,,,123.00686860000133,0.006868600001325831,None,154.3745971999997,154.3745971999997,154.3745971999997,154.3745971999997,154.3745971999997,154.3745971999997,154.3745971999997,154.3745971999997,154.3745971999997,154.3745971999997,,006,P010,2025_Feb_01_1541,ConditionRich,2021.2.3,59.937197803900325,
123.75,124.0,41,0.0,Stimuli/Blank.png,0,0,0.0,0,209,209,209,,,,,,,,,,,,,123.75808450000113,0.008084500001132255,None,155.12526789999902,155.12526789999902,155.12526789999902,155.12526789999902,155.12526789999902,155.12526789999902,155.12526789999902,155.12526789999902,155.12526789999902,155.12526789999902,,006,P010,2025_Feb_01_1541,ConditionRich,2021.2.3,59.937197803900325,
124.0,124.75,23,0.75,Stimuli/P010/things_charger_05s.jpg,0,0,0.0,0,210,210,210,,,,,,,,,,,,,124.00785790000009,0.007857900000090012,None,155.37548360000073,155.37548360000073,155.37548360000073,155.37548360000073,155.37548360000073,155.37548360000073,155.37548360000073,155.37548360000073,155.37548360000073,155.37548360000073,,006,P010,2025_Feb_01_1541,ConditionRich,2021.2.3,59.937197803900325,
124.75,125.0,41,0.0,Stimuli/Blank.png,0,0,0.0,0,211,211,211,,,,,,,,,,,,,124.75853039999856,0.008530399998562643,None,156.12613249999777,156.12613249999777,156.12613249999777,156.12613249999777,156.12613249999777,156.12613249999777,156.12613249999777,156.12613249999777,156.12613249999777,156.12613249999777,,006,P010,2025_Feb_01_1541,ConditionRich,2021.2.3,59.937197803900325,
125.0,125.75,23,0.75,Stimuli/P010/things_charger_05s.jpg,0,0,0.0,0,212,212,212,,,,,,,,,,,,,125.00879360000181,0.008793600001808954,None,156.39308850000089,156.39308850000089,156.39308850000089,156.39308850000089,156.39308850000089,156.39308850000089,156.39308850000089,156.39308850000089,156.39308850000089,156.39308850000089,,006,P010,2025_Feb_01_1541,ConditionRich,2021.2.3,59.937197803900325,
125.75,126.0,41,0.0,Stimuli/Blank.png,0,0,0.0,0,213,213,213,,,,,,,,,,,,,125.77711780000027,0.0271178000002692,None,157.1437220000007,157.1437220000007,157.1437220000007,157.1437220000007,157.1437220000007,157.1437220000007,157.1437220000007,157.1437220000007,157.1437220000007,157.1437220000007,,006,P010,2025_Feb_01_1541,ConditionRich,2021.2.3,59.937197803900325,
126.0,126.75,23,0.75,Stimuli/P010/things_charger_05s.jpg,1,0,0.75,0,214,214,214,,,,,,,,,,,,,126.01005219999934,0.010052199999336153,1,157.37725779999892,157.37725779999892,157.37725779999892,157.37725779999892,157.37725779999892,157.37725779999892,157.37725779999892,158.11128309999913,157.37725779999892,157.37725779999892,0.5270363999989058,006,P010,2025_Feb_01_1541,ConditionRich,2021.2.3,59.937197803900325,
126.75,127.0,41,0.0,Stimuli/Blank.png,0,0,0.0,0,215,215,215,,,,,,,,,,,,,126.76105739999912,0.011057399999117479,None,158.12792329999866,158.12792329999866,158.12792329999866,158.12792329999866,158.12792329999866,158.12792329999866,158.12792329999866,158.12792329999866,158.12792329999866,158.12792329999866,,006,P010,2025_Feb_01_1541,ConditionRich,2021.2.3,59.937197803900325,
127.0,127.75,23,0.75,Stimuli/P010/things_charger_05s.jpg,0,0,0.0,0,216,216,216,,,,,,,,,,,,,127.01040550000107,0.010405500001070322,None,158.37815010000122,158.37815010000122,158.37815010000122,158.37815010000122,158.37815010000122,158.37815010000122,158.37815010000122,158.37815010000122,158.37815010000122,158.37815010000122,,006,P010,2025_Feb_01_1541,ConditionRich,2021.2.3,59.937197803900325,
127.75,128.0,41,0.0,Stimuli/Blank.png,0,0,0.0,0,217,217,217,,,,,,,,,,,,,127.76117639999939,0.011176399999385467,None,159.12880339999901,159.12880339999901,159.12880339999901,159.12880339999901,159.12880339999901,159.12880339999901,159.12880339999901,159.12880339999901,159.12880339999901,159.12880339999901,,006,P010,2025_Feb_01_1541,ConditionRich,2021.2.3,59.937197803900325,
128.0,128.75,27,0.75,Stimuli/P010/things_curling_iron_05s.jpg,0,0,0.0,0,218,218,218,,,,,,,,,,,,,128.01152329999968,0.011523299999680603,None,159.37902810000014,159.37902810000014,159.37902810000014,159.37902810000014,159.37902810000014,159.37902810000014,159.37902810000014,159.37902810000014,159.37902810000014,159.37902810000014,,006,P010,2025_Feb_01_1541,ConditionRich,2021.2.3,59.937197803900325,
128.75,129.0,41,0.0,Stimuli/Blank.png,0,0,0.0,0,219,219,219,,,,,,,,,,,,,128.76297580000028,0.01297580000027665,None,160.12969389999853,160.12969389999853,160.12969389999853,160.12969389999853,160.12969389999853,160.12969389999853,160.12969389999853,160.12969389999853,160.12969389999853,160.12969389999853,,006,P010,2025_Feb_01_1541,ConditionRich,2021.2.3,59.937197803900325,
129.0,129.75,27,0.75,Stimuli/P010/things_curling_iron_05s.jpg,0,0,0.0,0,220,220,220,,,,,,,,,,,,,129.01253459999862,0.012534599998616613,None,160.3799149999977,160.3799149999977,160.3799149999977,160.3799149999977,160.3799149999977,160.3799149999977,160.3799149999977,160.3799149999977,160.3799149999977,160.3799149999977,,006,P010,2025_Feb_01_1541,ConditionRich,2021.2.3,59.937197803900325,
129.75,130.0,41,0.0,Stimuli/Blank.png,0,0,0.0,0,221,221,221,,,,,,,,,,,,,129.76292420000027,0.012924200000270503,None,161.1305771999978,161.1305771999978,161.1305771999978,161.1305771999978,161.1305771999978,161.1305771999978,161.1305771999978,161.1305771999978,161.1305771999978,161.1305771999978,,006,P010,2025_Feb_01_1541,ConditionRich,2021.2.3,59.937197803900325,
130.0,130.75,27,0.75,Stimuli/P010/things_curling_iron_05s.jpg,0,0,0.0,0,222,222,222,,,,,,,,,,,,,130.01340649999838,0.01340649999838206,None,161.38080619999891,161.38080619999891,161.38080619999891,161.38080619999891,161.38080619999891,161.38080619999891,161.38080619999891,161.38080619999891,161.38080619999891,161.38080619999891,,006,P010,2025_Feb_01_1541,ConditionRich,2021.2.3,59.937197803900325,
130.75,131.0,41,0.0,Stimuli/Blank.png,0,0,0.0,0,223,223,223,,,,,,,,,,,,,130.76372400000037,0.013724000000365777,None,162.13157219999994,162.13157219999994,162.13157219999994,162.13157219999994,162.13157219999994,162.13157219999994,162.13157219999994,162.13157219999994,162.13157219999994,162.13157219999994,,006,P010,2025_Feb_01_1541,ConditionRich,2021.2.3,59.937197803900325,
131.0,131.75,27,0.75,Stimuli/P010/things_curling_iron_05s.jpg,0,0,0.0,0,224,224,224,,,,,,,,,,,,,131.01527440000064,0.015274400000635069,None,162.3822235000007,162.3822235000007,162.3822235000007,162.3822235000007,162.3822235000007,162.3822235000007,162.3822235000007,162.3822235000007,162.3822235000007,162.3822235000007,,006,P010,2025_Feb_01_1541,ConditionRich,2021.2.3,59.937197803900325,
131.75,132.0,41,0.0,Stimuli/Blank.png,0,0,0.0,0,225,225,225,,,,,,,,,,,,,131.76470210000116,0.014702100001159124,None,163.13234870000088,163.13234870000088,163.13234870000088,163.13234870000088,163.13234870000088,163.13234870000088,163.13234870000088,163.13234870000088,163.13234870000088,163.13234870000088,,006,P010,2025_Feb_01_1541,ConditionRich,2021.2.3,59.937197803900325,
132.0,132.75,18,0.75,Stimuli/P010/sun_bwjdahsxcqepqqbm.jpg,0,0,0.0,0,226,226,226,,,,,,,,,,,,,132.01482100000067,0.014821000000665663,None,163.3825685999982,163.3825685999982,163.3825685999982,163.3825685999982,163.3825685999982,163.3825685999982,163.3825685999982,163.3825685999982,163.3825685999982,163.3825685999982,,006,P010,2025_Feb_01_1541,ConditionRich,2021.2.3,59.937197803900325,
132.75,133.0,41,0.0,Stimuli/Blank.png,0,0,0.0,0,227,227,227,,,,,,,,,,,,,132.76616849999846,0.016168499998457264,None,164.13323350000064,164.13323350000064,164.13323350000064,164.13323350000064,164.13323350000064,164.13323350000064,164.13323350000064,164.13323350000064,164.13323350000064,164.13323350000064,,006,P010,2025_Feb_01_1541,ConditionRich,2021.2.3,59.937197803900325,
133.0,133.75,18,0.75,Stimuli/P010/sun_bwjdahsxcqepqqbm.jpg,0,0,0.0,0,228,228,228,,,,,,,,,,,,,133.00070939999932,0.0007093999993230682,None,164.3834547999977,164.3834547999977,164.3834547999977,164.3834547999977,164.3834547999977,164.3834547999977,164.3834547999977,164.3834547999977,164.3834547999977,164.3834547999977,,006,P010,2025_Feb_01_1541,ConditionRich,2021.2.3,59.937197803900325,
133.75,134.0,41,0.0,Stimuli/Blank.png,0,0,0.0,0,229,229,229,,,,,,,,,,,,,133.76732569999876,0.01732569999876432,None,165.1341339999999,165.1341339999999,165.1341339999999,165.1341339999999,165.1341339999999,165.1341339999999,165.1341339999999,165.1341339999999,165.1341339999999,165.1341339999999,,006,P010,2025_Feb_01_1541,ConditionRich,2021.2.3,59.937197803900325,
134.0,134.75,18,0.75,Stimuli/P010/sun_bwjdahsxcqepqqbm.jpg,0,0,0.0,0,230,230,230,,,,,,,,,,,,,134.0020242999999,0.0020242999999027234,None,165.38434330000018,165.38434330000018,165.38434330000018,165.38434330000018,165.38434330000018,165.38434330000018,165.38434330000018,165.38434330000018,165.38434330000018,165.38434330000018,,006,P010,2025_Feb_01_1541,ConditionRich,2021.2.3,59.937197803900325,
134.75,135.0,41,0.0,Stimuli/Blank.png,0,0,0.0,0,231,231,231,,,,,,,,,,,,,134.768250000001,0.01825000000098953,None,166.13500669999848,166.13500669999848,166.13500669999848,166.13500669999848,166.13500669999848,166.13500669999848,166.13500669999848,166.13500669999848,166.13500669999848,166.13500669999848,,006,P010,2025_Feb_01_1541,ConditionRich,2021.2.3,59.937197803900325,
135.0,135.75,18,0.75,Stimuli/P010/sun_bwjdahsxcqepqqbm.jpg,0,0,0.0,0,232,232,232,,,,,,,,,,,,,135.00086050000027,0.0008605000002717134,None,166.36854490000042,166.36854490000042,166.36854490000042,166.36854490000042,166.36854490000042,166.36854490000042,166.36854490000042,166.36854490000042,166.36854490000042,166.36854490000042,,006,P010,2025_Feb_01_1541,ConditionRich,2021.2.3,59.937197803900325,
135.75,136.0,41,0.0,Stimuli/Blank.png,0,0,0.0,0,233,233,233,,,,,,,,,,,,,135.7523113999996,0.002311399999598507,None,167.11922380000033,167.11922380000033,167.11922380000033,167.11922380000033,167.11922380000033,167.11922380000033,167.11922380000033,167.11922380000033,167.11922380000033,167.11922380000033,,006,P010,2025_Feb_01_1541,ConditionRich,2021.2.3,59.937197803900325,
136.0,136.75,5,0.75,Stimuli/P010/sun_akqvdmuauoxeafrj.jpg,0,0,0.0,0,234,234,234,,,,,,,,,,,,,136.00251489999937,0.002514899999368936,None,167.38608490000115,167.38608490000115,167.38608490000115,167.38608490000115,167.38608490000115,167.38608490000115,167.38608490000115,167.38608490000115,167.38608490000115,167.38608490000115,,006,P010,2025_Feb_01_1541,ConditionRich,2021.2.3,59.937197803900325,
136.75,137.0,41,0.0,Stimuli/Blank.png,0,0,0.0,0,235,235,235,,,,,,,,,,,,,136.76924409999992,0.019244099999923492,None,168.1367739999987,168.1367739999987,168.1367739999987,168.1367739999987,168.1367739999987,168.1367739999987,168.1367739999987,168.1367739999987,168.1367739999987,168.1367739999987,,006,P010,2025_Feb_01_1541,ConditionRich,2021.2.3,59.937197803900325,
137.0,137.75,5,0.75,Stimuli/P010/sun_akqvdmuauoxeafrj.jpg,0,0,0.0,0,236,236,236,,,,,,,,,,,,,137.0033594000015,0.0033594000015000347,None,168.37032650000037,168.37032650000037,168.37032650000037,168.37032650000037,168.37032650000037,168.37032650000037,168.37032650000037,168.37032650000037,168.37032650000037,168.37032650000037,,006,P010,2025_Feb_01_1541,ConditionRich,2021.2.3,59.937197803900325,
137.75,138.0,41,0.0,Stimuli/Blank.png,0,0,0.0,0,237,237,237,,,,,,,,,,,,,137.75358920000144,0.003589200001442805,None,169.12098499999775,169.12098499999775,169.12098499999775,169.12098499999775,169.12098499999775,169.12098499999775,169.12098499999775,169.12098499999775,169.12098499999775,169.12098499999775,,006,P010,2025_Feb_01_1541,ConditionRich,2021.2.3,59.937197803900325,
138.0,138.75,5,0.75,Stimuli/P010/sun_akqvdmuauoxeafrj.jpg,0,0,0.0,0,238,238,238,,,,,,,,,,,,,138.0034392000016,0.003439200001594145,None,169.37125359999845,169.37125359999845,169.37125359999845,169.37125359999845,169.37125359999845,169.37125359999845,169.37125359999845,169.37125359999845,169.37125359999845,169.37125359999845,,006,P010,2025_Feb_01_1541,ConditionRich,2021.2.3,59.937197803900325,
138.75,139.0,41,0.0,Stimuli/Blank.png,0,0,0.0,0,239,239,239,,,,,,,,,,,,,138.75652189999892,0.0065218999989156146,None,170.1385530999978,170.1385530999978,170.1385530999978,170.1385530999978,170.1385530999978,170.1385530999978,170.1385530999978,170.1385530999978,170.1385530999978,170.1385530999978,,006,P010,2025_Feb_01_1541,ConditionRich,2021.2.3,59.937197803900325,
139.0,139.75,5,0.75,Stimuli/P010/sun_akqvdmuauoxeafrj.jpg,0,0,0.0,0,240,240,240,,,,,,,,,,,,,139.02164170000106,0.021641700001055142,None,170.38877339999817,170.38877339999817,170.38877339999817,170.38877339999817,170.38877339999817,170.38877339999817,170.38877339999817,170.38877339999817,170.38877339999817,170.38877339999817,,006,P010,2025_Feb_01_1541,ConditionRich,2021.2.3,59.937197803900325,
139.75,140.0,41,0.0,Stimuli/Blank.png,0,0,0.0,0,241,241,241,,,,,,,,,,,,,139.75768139999855,0.007681399998546112,None,171.13944730000003,171.13944730000003,171.13944730000003,171.13944730000003,171.13944730000003,171.13944730000003,171.13944730000003,171.13944730000003,171.13944730000003,171.13944730000003,,006,P010,2025_Feb_01_1541,ConditionRich,2021.2.3,59.937197803900325,
140.0,140.75,6,0.75,Stimuli/P010/sun_amkrwcyvinmsylsz.jpg,0,0,0.0,0,242,242,242,,,,,,,,,,,,,140.02340259999983,0.023402599999826634,None,171.40634409999984,171.40634409999984,171.40634409999984,171.40634409999984,171.40634409999984,171.40634409999984,171.40634409999984,171.40634409999984,171.40634409999984,171.40634409999984,,006,P010,2025_Feb_01_1541,ConditionRich,2021.2.3,59.937197803900325,
140.75,141.0,41,0.0,Stimuli/Blank.png,0,0,0.0,0,243,243,243,,,,,,,,,,,,,140.7738946999998,0.02389469999980065,None,172.1404208999993,172.1404208999993,172.1404208999993,172.1404208999993,172.1404208999993,172.1404208999993,172.1404208999993,172.1404208999993,172.1404208999993,172.1404208999993,,006,P010,2025_Feb_01_1541,ConditionRich,2021.2.3,59.937197803900325,
141.0,141.75,6,0.75,Stimuli/P010/sun_amkrwcyvinmsylsz.jpg,0,0,0.0,0,244,244,244,,,,,,,,,,,,,141.0069607000005,0.00696070000049076,None,172.39057219999813,172.39057219999813,172.39057219999813,172.39057219999813,172.39057219999813,172.39057219999813,172.39057219999813,172.39057219999813,172.39057219999813,172.39057219999813,,006,P010,2025_Feb_01_1541,ConditionRich,2021.2.3,59.937197803900325,
141.75,142.0,41,0.0,Stimuli/Blank.png,0,0,0.0,0,245,245,245,,,,,,,,,,,,,141.77418820000094,0.024188200000935467,None,173.1412906000005,173.1412906000005,173.1412906000005,173.1412906000005,173.1412906000005,173.1412906000005,173.1412906000005,173.1412906000005,173.1412906000005,173.1412906000005,,006,P010,2025_Feb_01_1541,ConditionRich,2021.2.3,59.937197803900325,
142.0,142.75,6,0.75,Stimuli/P010/sun_amkrwcyvinmsylsz.jpg,0,0,0.0,0,246,246,246,,,,,,,,,,,,,142.00709439999991,0.007094399999914458,None,173.37474680000014,173.37474680000014,173.37474680000014,173.37474680000014,173.37474680000014,173.37474680000014,173.37474680000014,173.37474680000014,173.37474680000014,173.37474680000014,,006,P010,2025_Feb_01_1541,ConditionRich,2021.2.3,59.937197803900325,
142.75,143.0,41,0.0,Stimuli/Blank.png,0,0,0.0,0,247,247,247,,,,,,,,,,,,,142.7577936000016,0.007793600001605228,None,174.12540939999963,174.12540939999963,174.12540939999963,174.12540939999963,174.12540939999963,174.12540939999963,174.12540939999963,174.12540939999963,174.12540939999963,174.12540939999963,,006,P010,2025_Feb_01_1541,ConditionRich,2021.2.3,59.937197803900325,
143.0,143.75,6,0.75,Stimuli/P010/sun_amkrwcyvinmsylsz.jpg,0,0,0.0,0,248,248,248,,,,,,,,,,,,,143.00845750000008,0.008457500000076834,None,174.3923059000008,174.3923059000008,174.3923059000008,174.3923059000008,174.3923059000008,174.3923059000008,174.3923059000008,174.3923059000008,174.3923059000008,174.3923059000008,,006,P010,2025_Feb_01_1541,ConditionRich,2021.2.3,59.937197803900325,
143.75,144.0,41,0.0,Stimuli/Blank.png,0,0,0.0,0,249,249,249,,,,,,,,,,,,,143.77607070000158,0.026070700001582736,None,175.142972499998,175.142972499998,175.142972499998,175.142972499998,175.142972499998,175.142972499998,175.142972499998,175.142972499998,175.142972499998,175.142972499998,,006,P010,2025_Feb_01_1541,ConditionRich,2021.2.3,59.937197803900325,
144.0,144.75,39,0.75,Stimuli/P010/things_tiara_05s.jpg,0,0,0.0,0,250,250,250,,,,,,,,,,,,,144.00869070000044,0.00869070000044303,None,175.37651139999798,175.37651139999798,175.37651139999798,175.37651139999798,175.37651139999798,175.37651139999798,175.37651139999798,175.37651139999798,175.37651139999798,175.37651139999798,,006,P010,2025_Feb_01_1541,ConditionRich,2021.2.3,59.937197803900325,
144.75,145.0,41,0.0,Stimuli/Blank.png,0,0,0.0,0,251,251,251,,,,,,,,,,,,,144.76090789999944,0.010907899999438087,None,176.12718369999857,176.12718369999857,176.12718369999857,176.12718369999857,176.12718369999857,176.12718369999857,176.12718369999857,176.12718369999857,176.12718369999857,176.12718369999857,,006,P010,2025_Feb_01_1541,ConditionRich,2021.2.3,59.937197803900325,
145.0,145.75,39,0.75,Stimuli/P010/things_tiara_05s.jpg,0,0,0.0,0,252,252,252,,,,,,,,,,,,,145.01171980000072,0.01171980000071926,None,176.39408049999838,176.39408049999838,176.39408049999838,176.39408049999838,176.39408049999838,176.39408049999838,176.39408049999838,176.39408049999838,176.39408049999838,176.39408049999838,,006,P010,2025_Feb_01_1541,ConditionRich,2021.2.3,59.937197803900325,
145.75,146.0,41,0.0,Stimuli/Blank.png,0,0,0.0,0,253,253,253,,,,,,,,,,,,,145.77782949999892,0.027829499998915708,None,177.14474379999956,177.14474379999956,177.14474379999956,177.14474379999956,177.14474379999956,177.14474379999956,177.14474379999956,177.14474379999956,177.14474379999956,177.14474379999956,,006,P010,2025_Feb_01_1541,ConditionRich,2021.2.3,59.937197803900325,
146.0,146.75,39,0.75,Stimuli/P010/things_tiara_05s.jpg,0,0,0.0,0,254,254,254,,,,,,,,,,,,,146.0106694999995,0.010669499999494292,None,177.37828639999861,177.37828639999861,177.37828639999861,177.37828639999861,177.37828639999861,177.37828639999861,177.37828639999861,177.37828639999861,177.37828639999861,177.37828639999861,,006,P010,2025_Feb_01_1541,ConditionRich,2021.2.3,59.937197803900325,
146.75,147.0,41,0.0,Stimuli/Blank.png,0,0,0.0,0,255,255,255,,,,,,,,,,,,,146.76207789999899,0.012077899998985231,None,178.12894379999852,178.12894379999852,178.12894379999852,178.12894379999852,178.12894379999852,178.12894379999852,178.12894379999852,178.12894379999852,178.12894379999852,178.12894379999852,,006,P010,2025_Feb_01_1541,ConditionRich,2021.2.3,59.937197803900325,
147.0,147.75,39,0.75,Stimuli/P010/things_tiara_05s.jpg,0,0,0.0,0,256,256,256,,,,,,,,,,,,,147.01288950000162,0.012889500001620036,None,178.39584900000045,178.39584900000045,178.39584900000045,178.39584900000045,178.39584900000045,178.39584900000045,178.39584900000045,178.39584900000045,178.39584900000045,178.39584900000045,,006,P010,2025_Feb_01_1541,ConditionRich,2021.2.3,59.937197803900325,
147.75,148.0,41,0.0,Stimuli/Blank.png,0,0,0.0,0,257,257,257,,,,,,,,,,,,,147.78129529999933,0.03129529999932856,None,179.16320629999973,179.16320629999973,179.16320629999973,179.16320629999973,179.16320629999973,179.16320629999973,179.16320629999973,179.16320629999973,179.16320629999973,179.16320629999973,,006,P010,2025_Feb_01_1541,ConditionRich,2021.2.3,59.937197803900325,
148.0,148.75,1,0.75,Stimuli/P010/sun_abqdlumenyzawlme.jpg,0,0,0.0,0,258,258,258,,,,,,,,,,,,,148.0298881000017,0.02988810000169906,None,179.41341979999925,179.41341979999925,179.41341979999925,179.41341979999925,179.41341979999925,179.41341979999925,179.41341979999925,179.41341979999925,179.41341979999925,179.41341979999925,,006,P010,2025_Feb_01_1541,ConditionRich,2021.2.3,59.937197803900325,
148.75,149.0,41,0.0,Stimuli/Blank.png,0,0,0.0,0,259,259,259,,,,,,,,,,,,,148.7808494000019,0.030849400001898175,None,180.1474092999997,180.1474092999997,180.1474092999997,180.1474092999997,180.1474092999997,180.1474092999997,180.1474092999997,180.1474092999997,180.1474092999997,180.1474092999997,,006,P010,2025_Feb_01_1541,ConditionRich,2021.2.3,59.937197803900325,
149.0,149.75,1,0.75,Stimuli/P010/sun_abqdlumenyzawlme.jpg,0,0,0.0,0,260,260,260,,,,,,,,,,,,,149.01403819999905,0.014038199999049539,None,180.39762580000024,180.39762580000024,180.39762580000024,180.39762580000024,180.39762580000024,180.39762580000024,180.39762580000024,180.39762580000024,180.39762580000024,180.39762580000024,,006,P010,2025_Feb_01_1541,ConditionRich,2021.2.3,59.937197803900325,
