eventStartTime,eventEndTime,eventCond,imSize,imFile,responseEvent,fixRespStart,fixRespEnd,Events.thisRepN,Events.thisTrialN,Events.thisN,Events.thisIndex,Instructions.started,Instructions.stopped,participantReadyResponse.keys,participantReadyResponse.rt,participantReadyResponse.started,participantReadyResponse.stopped,startWaitforTrigger,triggerResponse.keys,triggerResponse.rt,triggerResponse.started,triggerResponse.stopped,globalTimer,actualStartTime,startTimingDiff,participantResponse.keys,participantResponse.started,participantResponse.stopped,image.started,image.stopped,fixationOutside.started,fixationOutside.stopped,fixationResponse.started,fixationResponse.stopped,fixationInside.started,fixationInside.stopped,participantResponse.rt,session,participant,date,expName,psychopyVersion,frameRate,
,,,,,,,,,,,,11.202615300000616,None,1,3.1085745000018505,11.202615300000616,None,,,,,,,,,,,,,,,,,,,,,009,P010,2025_Feb_01_1609,ConditionRich,2021.2.3,59.94305409851847,
,,,,,,,,,,,,,,,,,,14.319409399999131,5,14.093065500001103,14.332273899999564,None,,,,,,,,,,,,,,,,009,P010,2025_Feb_01_1609,ConditionRich,2021.2.3,59.94305409851847,
0.0,4.0,0,0.0,Stimuli/Blank.png,0,0,0.0,0,0,0,0,,,,,,,,,,,,28.431876799997553,0.05708009999943897,0.05708009999943897,None,28.511451999998826,None,28.511451999998826,None,28.511451999998826,None,28.511451999998826,28.511451999998826,28.511451999998826,None,,009,P010,2025_Feb_01_1609,ConditionRich,2021.2.3,59.94305409851847,
4.0,4.75,36,0.75,Stimuli/P010/things_pelican_05s.jpg,1,0,0.75,0,1,1,1,,,,,,,,,,,,,4.020057800000359,0.02005780000035884,1,32.465271299999586,32.465271299999586,32.465271299999586,32.465271299999586,32.465271299999586,32.465271299999586,32.465271299999586,None,32.465271299999586,32.465271299999586,0.5031646999996156,009,P010,2025_Feb_01_1609,ConditionRich,2021.2.3,59.94305409851847,
4.75,5.0,41,0.0,Stimuli/Blank.png,0,0,0.0,0,2,2,2,,,,,,,,,,,,,4.754108299999643,0.00410829999964335,None,33.19928059999802,33.19928059999802,33.19928059999802,33.19928059999802,33.19928059999802,33.19928059999802,33.19928059999802,33.19928059999802,33.19928059999802,33.19928059999802,,009,P010,2025_Feb_01_1609,ConditionRich,2021.2.3,59.94305409851847,
5.0,5.75,36,0.75,Stimuli/P010/things_pelican_05s.jpg,0,0,0.0,0,3,3,3,,,,,,,,,,,,,5.0026618000010785,0.002661800001078518,None,33.44913850000012,33.44913850000012,33.44913850000012,33.44913850000012,33.44913850000012,33.44913850000012,33.44913850000012,33.44913850000012,33.44913850000012,33.44913850000012,,009,P010,2025_Feb_01_1609,ConditionRich,2021.2.3,59.94305409851847,
5.75,6.0,41,0.0,Stimuli/Blank.png,0,0,0.0,0,4,4,4,,,,,,,,,,,,,5.75401839999904,0.004018399999040412,None,34.19981079999707,34.19981079999707,34.19981079999707,34.19981079999707,34.19981079999707,34.19981079999707,34.19981079999707,34.19981079999707,34.19981079999707,34.19981079999707,,009,P010,2025_Feb_01_1609,ConditionRich,2021.2.3,59.94305409851847,
6.0,6.75,36,0.75,Stimuli/P010/things_pelican_05s.jpg,0,0,0.0,0,5,5,5,,,,,,,,,,,,,6.00461390000055,0.00461390000054962,None,34.4667214000001,34.4667214000001,34.4667214000001,34.4667214000001,34.4667214000001,34.4667214000001,34.4667214000001,34.4667214000001,34.4667214000001,34.4667214000001,,009,P010,2025_Feb_01_1609,ConditionRich,2021.2.3,59.94305409851847,
6.75,7.0,41,0.0,Stimuli/Blank.png,0,0,0.0,0,6,6,6,,,,,,,,,,,,,6.770864400001301,0.020864400001300965,None,35.21738009999899,35.21738009999899,35.21738009999899,35.21738009999899,35.21738009999899,35.21738009999899,35.21738009999899,35.21738009999899,35.21738009999899,35.21738009999899,,009,P010,2025_Feb_01_1609,ConditionRich,2021.2.3,59.94305409851847,
7.0,7.75,36,0.75,Stimuli/P010/things_pelican_05s.jpg,0,0,0.0,0,7,7,7,,,,,,,,,,,,,7.005140500001289,0.005140500001289183,None,35.450919999999314,35.450919999999314,35.450919999999314,35.450919999999314,35.450919999999314,35.450919999999314,35.450919999999314,35.450919999999314,35.450919999999314,35.450919999999314,,009,P010,2025_Feb_01_1609,ConditionRich,2021.2.3,59.94305409851847,
7.75,8.0,41,0.0,Stimuli/Blank.png,0,0,0.0,0,8,8,8,,,,,,,,,,,,,7.755752699998993,0.005752699998993194,None,36.20158219999939,36.20158219999939,36.20158219999939,36.20158219999939,36.20158219999939,36.20158219999939,36.20158219999939,36.20158219999939,36.20158219999939,36.20158219999939,,009,P010,2025_Feb_01_1609,ConditionRich,2021.2.3,59.94305409851847,
8.0,8.75,13,0.75,Stimuli/P010/sun_bjimvgwadfodioes.jpg,0,0,0.0,0,9,9,9,,,,,,,,,,,,,8.006024800000887,0.0060248000008868985,None,36.4685032999987,36.4685032999987,36.4685032999987,36.4685032999987,36.4685032999987,36.4685032999987,36.4685032999987,36.4685032999987,36.4685032999987,36.4685032999987,,009,P010,2025_Feb_01_1609,ConditionRich,2021.2.3,59.94305409851847,
8.75,9.0,41,0.0,Stimuli/Blank.png,0,0,0.0,0,10,10,10,,,,,,,,,,,,,8.773625099998753,0.023625099998753285,None,37.21916090000013,37.21916090000013,37.21916090000013,37.21916090000013,37.21916090000013,37.21916090000013,37.21916090000013,37.21916090000013,37.21916090000013,37.21916090000013,,009,P010,2025_Feb_01_1609,ConditionRich,2021.2.3,59.94305409851847,
9.0,9.75,13,0.75,Stimuli/P010/sun_bjimvgwadfodioes.jpg,0,0,0.0,0,11,11,11,,,,,,,,,,,,,9.006160299999465,0.006160299999464769,None,37.45268829999986,37.45268829999986,37.45268829999986,37.45268829999986,37.45268829999986,37.45268829999986,37.45268829999986,37.45268829999986,37.45268829999986,37.45268829999986,,009,P010,2025_Feb_01_1609,ConditionRich,2021.2.3,59.94305409851847,
9.75,10.0,41,0.0,Stimuli/Blank.png,0,0,0.0,0,12,12,12,,,,,,,,,,,,,9.759297500000685,0.009297500000684522,None,38.220009499997104,38.220009499997104,38.220009499997104,38.220009499997104,38.220009499997104,38.220009499997104,38.220009499997104,38.220009499997104,38.220009499997104,38.220009499997104,,009,P010,2025_Feb_01_1609,ConditionRich,2021.2.3,59.94305409851847,
10.0,10.75,13,0.75,Stimuli/P010/sun_bjimvgwadfodioes.jpg,0,0,0.0,0,13,13,13,,,,,,,,,,,,,10.024378300000535,0.02437830000053509,None,38.470254799998656,38.470254799998656,38.470254799998656,38.470254799998656,38.470254799998656,38.470254799998656,38.470254799998656,38.470254799998656,38.470254799998656,38.470254799998656,,009,P010,2025_Feb_01_1609,ConditionRich,2021.2.3,59.94305409851847,
10.75,11.0,41,0.0,Stimuli/Blank.png,0,0,0.0,0,14,14,14,,,,,,,,,,,,,10.758457500000077,0.008457500000076834,None,39.204303299997264,39.204303299997264,39.204303299997264,39.204303299997264,39.204303299997264,39.204303299997264,39.204303299997264,39.204303299997264,39.204303299997264,39.204303299997264,,009,P010,2025_Feb_01_1609,ConditionRich,2021.2.3,59.94305409851847,
11.0,11.75,13,0.75,Stimuli/P010/sun_bjimvgwadfodioes.jpg,0,0,0.0,0,15,15,15,,,,,,,,,,,,,11.009373699998832,0.009373699998832308,None,39.4711830999986,39.4711830999986,39.4711830999986,39.4711830999986,39.4711830999986,39.4711830999986,39.4711830999986,39.4711830999986,39.4711830999986,39.4711830999986,,009,P010,2025_Feb_01_1609,ConditionRich,2021.2.3,59.94305409851847,
11.75,12.0,41,0.0,Stimuli/Blank.png,0,0,0.0,0,16,16,16,,,,,,,,,,,,,11.775371100000484,0.025371100000484148,None,40.22181649999766,40.22181649999766,40.22181649999766,40.22181649999766,40.22181649999766,40.22181649999766,40.22181649999766,40.22181649999766,40.22181649999766,40.22181649999766,,009,P010,2025_Feb_01_1609,ConditionRich,2021.2.3,59.94305409851847,
12.0,12.75,40,0.75,Stimuli/P010/things_woman_05s.jpg,0,0,0.0,0,17,17,17,,,,,,,,,,,,,12.009139900001173,0.009139900001173373,None,40.45534939999925,40.45534939999925,40.45534939999925,40.45534939999925,40.45534939999925,40.45534939999925,40.45534939999925,40.45534939999925,40.45534939999925,40.45534939999925,,009,P010,2025_Feb_01_1609,ConditionRich,2021.2.3,59.94305409851847,
12.75,13.0,41,0.0,Stimuli/Blank.png,0,0,0.0,0,18,18,18,,,,,,,,,,,,,12.759465300001466,0.009465300001465948,None,41.2060055999973,41.2060055999973,41.2060055999973,41.2060055999973,41.2060055999973,41.2060055999973,41.2060055999973,41.2060055999973,41.2060055999973,41.2060055999973,,009,P010,2025_Feb_01_1609,ConditionRich,2021.2.3,59.94305409851847,
13.0,13.75,40,0.75,Stimuli/P010/things_woman_05s.jpg,0,0,0.0,0,19,19,19,,,,,,,,,,,,,13.010009900001023,0.010009900001023198,None,41.45624119999775,41.45624119999775,41.45624119999775,41.45624119999775,41.45624119999775,41.45624119999775,41.45624119999775,41.45624119999775,41.45624119999775,41.45624119999775,,009,P010,2025_Feb_01_1609,ConditionRich,2021.2.3,59.94305409851847,
13.75,14.0,41,0.0,Stimuli/Blank.png,0,0,0.0,0,20,20,20,,,,,,,,,,,,,13.760750900000858,0.010750900000857655,None,42.20689379999749,42.20689379999749,42.20689379999749,42.20689379999749,42.20689379999749,42.20689379999749,42.20689379999749,42.20689379999749,42.20689379999749,42.20689379999749,,009,P010,2025_Feb_01_1609,ConditionRich,2021.2.3,59.94305409851847,
14.0,14.75,40,0.75,Stimuli/P010/things_woman_05s.jpg,0,0,0.0,0,21,21,21,,,,,,,,,,,,,14.010980399998516,0.010980399998516077,None,42.45712669999921,42.45712669999921,42.45712669999921,42.45712669999921,42.45712669999921,42.45712669999921,42.45712669999921,42.45712669999921,42.45712669999921,42.45712669999921,,009,P010,2025_Feb_01_1609,ConditionRich,2021.2.3,59.94305409851847,
14.75,15.0,41,0.0,Stimuli/Blank.png,0,0,0.0,0,22,22,22,,,,,,,,,,,,,14.763973299999634,0.013973299999634037,None,43.22446829999899,43.22446829999899,43.22446829999899,43.22446829999899,43.22446829999899,43.22446829999899,43.22446829999899,43.22446829999899,43.22446829999899,43.22446829999899,,009,P010,2025_Feb_01_1609,ConditionRich,2021.2.3,59.94305409851847,
15.0,15.75,40,0.75,Stimuli/P010/things_woman_05s.jpg,0,0,0.0,0,23,23,23,,,,,,,,,,,,,15.029348600000958,0.02934860000095796,None,43.491392500000075,43.491392500000075,43.491392500000075,43.491392500000075,43.491392500000075,43.491392500000075,43.491392500000075,43.491392500000075,43.491392500000075,43.491392500000075,,009,P010,2025_Feb_01_1609,ConditionRich,2021.2.3,59.94305409851847,
15.75,16.0,41,0.0,Stimuli/Blank.png,0,0,0.0,0,24,24,24,,,,,,,,,,,,,15.778870599999209,0.028870599999208935,None,44.22545959999843,44.22545959999843,44.22545959999843,44.22545959999843,44.22545959999843,44.22545959999843,44.22545959999843,44.22545959999843,44.22545959999843,44.22545959999843,,009,P010,2025_Feb_01_1609,ConditionRich,2021.2.3,59.94305409851847,
16.0,16.75,17,0.75,Stimuli/P010/sun_brkrfjpyfglmigkk.jpg,0,0,0.0,0,25,25,25,,,,,,,,,,,,,16.012363099998765,0.012363099998765392,None,44.45888909999849,44.45888909999849,44.45888909999849,44.45888909999849,44.45888909999849,44.45888909999849,44.45888909999849,44.45888909999849,44.45888909999849,44.45888909999849,,009,P010,2025_Feb_01_1609,ConditionRich,2021.2.3,59.94305409851847,
16.75,17.0,41,0.0,Stimuli/Blank.png,0,0,0.0,0,26,26,26,,,,,,,,,,,,,16.76364530000137,0.013645300001371652,None,45.20955490000051,45.20955490000051,45.20955490000051,45.20955490000051,45.20955490000051,45.20955490000051,45.20955490000051,45.20955490000051,45.20955490000051,45.20955490000051,,009,P010,2025_Feb_01_1609,ConditionRich,2021.2.3,59.94305409851847,
17.0,17.75,17,0.75,Stimuli/P010/sun_brkrfjpyfglmigkk.jpg,0,0,0.0,0,27,27,27,,,,,,,,,,,,,17.0140141999982,0.014014199998200638,None,45.47647270000016,45.47647270000016,45.47647270000016,45.47647270000016,45.47647270000016,45.47647270000016,45.47647270000016,45.47647270000016,45.47647270000016,45.47647270000016,,009,P010,2025_Feb_01_1609,ConditionRich,2021.2.3,59.94305409851847,
17.75,18.0,41,0.0,Stimuli/Blank.png,0,0,0.0,0,28,28,28,,,,,,,,,,,,,17.78120140000101,0.03120140000100946,None,46.22720130000016,46.22720130000016,46.22720130000016,46.22720130000016,46.22720130000016,46.22720130000016,46.22720130000016,46.22720130000016,46.22720130000016,46.22720130000016,,009,P010,2025_Feb_01_1609,ConditionRich,2021.2.3,59.94305409851847,
18.0,18.75,17,0.75,Stimuli/P010/sun_brkrfjpyfglmigkk.jpg,0,0,0.0,0,29,29,29,,,,,,,,,,,,,18.014131299998553,0.014131299998553004,None,46.4606595999976,46.4606595999976,46.4606595999976,46.4606595999976,46.4606595999976,46.4606595999976,46.4606595999976,46.4606595999976,46.4606595999976,46.4606595999976,,009,P010,2025_Feb_01_1609,ConditionRich,2021.2.3,59.94305409851847,
18.75,19.0,41,0.0,Stimuli/Blank.png,0,0,0.0,0,30,30,30,,,,,,,,,,,,,18.765617299999576,0.015617299999576062,None,47.21132899999793,47.21132899999793,47.21132899999793,47.21132899999793,47.21132899999793,47.21132899999793,47.21132899999793,47.21132899999793,47.21132899999793,47.21132899999793,,009,P010,2025_Feb_01_1609,ConditionRich,2021.2.3,59.94305409851847,
19.0,19.75,17,0.75,Stimuli/P010/sun_brkrfjpyfglmigkk.jpg,0,0,0.0,0,31,31,31,,,,,,,,,,,,,18.99890769999911,-0.001092300000891555,None,47.44485999999961,47.44485999999961,47.44485999999961,47.44485999999961,47.44485999999961,47.44485999999961,47.44485999999961,47.44485999999961,47.44485999999961,47.44485999999961,,009,P010,2025_Feb_01_1609,ConditionRich,2021.2.3,59.94305409851847,
19.75,20.0,41,0.0,Stimuli/Blank.png,0,0,0.0,0,32,32,32,,,,,,,,,,,,,19.749182700001256,-0.0008172999987436924,None,48.195526999999856,48.195526999999856,48.195526999999856,48.195526999999856,48.195526999999856,48.195526999999856,48.195526999999856,48.195526999999856,48.195526999999856,48.195526999999856,,009,P010,2025_Feb_01_1609,ConditionRich,2021.2.3,59.94305409851847,
20.0,20.75,8,0.75,Stimuli/P010/sun_batcnoizlkeiqdtx.jpg,0,0,0.0,0,33,33,33,,,,,,,,,,,,,19.999433599998156,-0.0005664000018441584,None,48.44574669999929,48.44574669999929,48.44574669999929,48.44574669999929,48.44574669999929,48.44574669999929,48.44574669999929,48.44574669999929,48.44574669999929,48.44574669999929,,009,P010,2025_Feb_01_1609,ConditionRich,2021.2.3,59.94305409851847,
20.75,21.0,41,0.0,Stimuli/Blank.png,0,0,0.0,0,34,34,34,,,,,,,,,,,,,20.749973599999066,-2.640000093379058e-05,None,49.19641739999861,49.19641739999861,49.19641739999861,49.19641739999861,49.19641739999861,49.19641739999861,49.19641739999861,49.19641739999861,49.19641739999861,49.19641739999861,,009,P010,2025_Feb_01_1609,ConditionRich,2021.2.3,59.94305409851847,
21.0,21.75,8,0.75,Stimuli/P010/sun_batcnoizlkeiqdtx.jpg,0,0,0.0,0,35,35,35,,,,,,,,,,,,,21.00021410000045,0.00021410000044852495,None,49.44663269999728,49.44663269999728,49.44663269999728,49.44663269999728,49.44663269999728,49.44663269999728,49.44663269999728,49.44663269999728,49.44663269999728,49.44663269999728,,009,P010,2025_Feb_01_1609,ConditionRich,2021.2.3,59.94305409851847,
21.75,22.0,41,0.0,Stimuli/Blank.png,0,0,0.0,0,36,36,36,,,,,,,,,,,,,21.753726599999936,0.0037265999999362975,None,50.21398529999715,50.21398529999715,50.21398529999715,50.21398529999715,50.21398529999715,50.21398529999715,50.21398529999715,50.21398529999715,50.21398529999715,50.21398529999715,,009,P010,2025_Feb_01_1609,ConditionRich,2021.2.3,59.94305409851847,
22.0,22.75,8,0.75,Stimuli/P010/sun_batcnoizlkeiqdtx.jpg,0,0,0.0,0,37,37,37,,,,,,,,,,,,,22.01803260000088,0.01803260000087903,None,50.46420299999954,50.46420299999954,50.46420299999954,50.46420299999954,50.46420299999954,50.46420299999954,50.46420299999954,50.46420299999954,50.46420299999954,50.46420299999954,,009,P010,2025_Feb_01_1609,ConditionRich,2021.2.3,59.94305409851847,
22.75,23.0,41,0.0,Stimuli/Blank.png,0,0,0.0,0,38,38,38,,,,,,,,,,,,,22.753800700000284,0.003800700000283541,None,51.214863799999875,51.214863799999875,51.214863799999875,51.214863799999875,51.214863799999875,51.214863799999875,51.214863799999875,51.214863799999875,51.214863799999875,51.214863799999875,,009,P010,2025_Feb_01_1609,ConditionRich,2021.2.3,59.94305409851847,
23.0,23.75,8,0.75,Stimuli/P010/sun_batcnoizlkeiqdtx.jpg,0,0,0.0,0,39,39,39,,,,,,,,,,,,,23.019413599999098,0.01941359999909764,None,51.48179149999851,51.48179149999851,51.48179149999851,51.48179149999851,51.48179149999851,51.48179149999851,51.48179149999851,51.48179149999851,51.48179149999851,51.48179149999851,,009,P010,2025_Feb_01_1609,ConditionRich,2021.2.3,59.94305409851847,
23.75,24.0,41,0.0,Stimuli/Blank.png,0,0,0.0,0,40,40,40,,,,,,,,,,,,,23.76927699999942,0.019276999999419786,None,52.215748200000235,52.215748200000235,52.215748200000235,52.215748200000235,52.215748200000235,52.215748200000235,52.215748200000235,52.215748200000235,52.215748200000235,52.215748200000235,,009,P010,2025_Feb_01_1609,ConditionRich,2021.2.3,59.94305409851847,
24.0,24.75,22,0.75,Stimuli/P010/things_butterfly_05s.jpg,0,0,0.0,0,41,41,41,,,,,,,,,,,,,24.003478800001176,0.0034788000011758413,None,52.44926320000013,52.44926320000013,52.44926320000013,52.44926320000013,52.44926320000013,52.44926320000013,52.44926320000013,52.44926320000013,52.44926320000013,52.44926320000013,,009,P010,2025_Feb_01_1609,ConditionRich,2021.2.3,59.94305409851847,
24.75,25.0,41,0.0,Stimuli/Blank.png,0,0,0.0,0,42,42,42,,,,,,,,,,,,,24.754855200000748,0.004855200000747573,None,53.19996469999751,53.19996469999751,53.19996469999751,53.19996469999751,53.19996469999751,53.19996469999751,53.19996469999751,53.19996469999751,53.19996469999751,53.19996469999751,,009,P010,2025_Feb_01_1609,ConditionRich,2021.2.3,59.94305409851847,
25.0,25.75,22,0.75,Stimuli/P010/things_butterfly_05s.jpg,0,0,0.0,0,43,43,43,,,,,,,,,,,,,25.00435859999925,0.004358599999250146,None,53.450188299997535,53.450188299997535,53.450188299997535,53.450188299997535,53.450188299997535,53.450188299997535,53.450188299997535,53.450188299997535,53.450188299997535,53.450188299997535,,009,P010,2025_Feb_01_1609,ConditionRich,2021.2.3,59.94305409851847,
25.75,26.0,41,0.0,Stimuli/Blank.png,0,0,0.0,0,44,44,44,,,,,,,,,,,,,25.75445779999791,0.004457799997908296,None,54.200843599999644,54.200843599999644,54.200843599999644,54.200843599999644,54.200843599999644,54.200843599999644,54.200843599999644,54.200843599999644,54.200843599999644,54.200843599999644,,009,P010,2025_Feb_01_1609,ConditionRich,2021.2.3,59.94305409851847,
26.0,26.75,22,0.75,Stimuli/P010/things_butterfly_05s.jpg,0,0,0.0,0,45,45,45,,,,,,,,,,,,,26.0048953000005,0.004895300000498537,None,54.45102889999907,54.45102889999907,54.45102889999907,54.45102889999907,54.45102889999907,54.45102889999907,54.45102889999907,54.45102889999907,54.45102889999907,54.45102889999907,,009,P010,2025_Feb_01_1609,ConditionRich,2021.2.3,59.94305409851847,
26.75,27.0,41,0.0,Stimuli/Blank.png,0,0,0.0,0,46,46,46,,,,,,,,,,,,,26.75530969999818,0.005309699998178985,None,55.20172739999907,55.20172739999907,55.20172739999907,55.20172739999907,55.20172739999907,55.20172739999907,55.20172739999907,55.20172739999907,55.20172739999907,55.20172739999907,,009,P010,2025_Feb_01_1609,ConditionRich,2021.2.3,59.94305409851847,
27.0,27.75,22,0.75,Stimuli/P010/things_butterfly_05s.jpg,0,0,0.0,0,47,47,47,,,,,,,,,,,,,27.005461299999297,0.005461299999296898,None,55.45194739999715,55.45194739999715,55.45194739999715,55.45194739999715,55.45194739999715,55.45194739999715,55.45194739999715,55.45194739999715,55.45194739999715,55.45194739999715,,009,P010,2025_Feb_01_1609,ConditionRich,2021.2.3,59.94305409851847,
27.75,28.0,41,0.0,Stimuli/Blank.png,0,0,0.0,0,48,48,48,,,,,,,,,,,,,27.75875349999842,0.008753499998420011,None,56.21933539999736,56.21933539999736,56.21933539999736,56.21933539999736,56.21933539999736,56.21933539999736,56.21933539999736,56.21933539999736,56.21933539999736,56.21933539999736,,009,P010,2025_Feb_01_1609,ConditionRich,2021.2.3,59.94305409851847,
28.0,28.75,3,0.75,Stimuli/P010/sun_aewgwsmvsgzleqhw.jpg,0,0,0.0,0,49,49,49,,,,,,,,,,,,,28.023012800000288,0.023012800000287825,None,56.469512299998314,56.469512299998314,56.469512299998314,56.469512299998314,56.469512299998314,56.469512299998314,56.469512299998314,56.469512299998314,56.469512299998314,56.469512299998314,,009,P010,2025_Feb_01_1609,ConditionRich,2021.2.3,59.94305409851847,
28.75,29.0,41,0.0,Stimuli/Blank.png,0,0,0.0,0,50,50,50,,,,,,,,,,,,,28.759894200000417,0.009894200000417186,None,57.22018240000034,57.22018240000034,57.22018240000034,57.22018240000034,57.22018240000034,57.22018240000034,57.22018240000034,57.22018240000034,57.22018240000034,57.22018240000034,,009,P010,2025_Feb_01_1609,ConditionRich,2021.2.3,59.94305409851847,
29.0,29.75,3,0.75,Stimuli/P010/sun_aewgwsmvsgzleqhw.jpg,1,0,0.75,0,51,51,51,,,,,,,,,,,,,29.023884700000053,0.02388470000005327,1,57.47039589999986,57.47039589999986,57.47039589999986,57.47039589999986,57.47039589999986,57.47039589999986,57.47039589999986,None,57.47039589999986,57.47039589999986,0.49584150000009686,009,P010,2025_Feb_01_1609,ConditionRich,2021.2.3,59.94305409851847,
29.75,30.0,41,0.0,Stimuli/Blank.png,0,0,0.0,0,52,52,52,,,,,,,,,,,,,29.759350799999083,0.009350799999083392,None,58.204385099998035,58.204385099998035,58.204385099998035,58.204385099998035,58.204385099998035,58.204385099998035,58.204385099998035,58.204385099998035,58.204385099998035,58.204385099998035,,009,P010,2025_Feb_01_1609,ConditionRich,2021.2.3,59.94305409851847,
30.0,30.75,3,0.75,Stimuli/P010/sun_aewgwsmvsgzleqhw.jpg,0,0,0.0,0,53,53,53,,,,,,,,,,,,,30.008919699997932,0.008919699997932184,None,58.45460399999865,58.45460399999865,58.45460399999865,58.45460399999865,58.45460399999865,58.45460399999865,58.45460399999865,58.45460399999865,58.45460399999865,58.45460399999865,,009,P010,2025_Feb_01_1609,ConditionRich,2021.2.3,59.94305409851847,
30.75,31.0,41,0.0,Stimuli/Blank.png,0,0,0.0,0,54,54,54,,,,,,,,,,,,,30.759987999997975,0.009987999997974839,None,59.22196759999861,59.22196759999861,59.22196759999861,59.22196759999861,59.22196759999861,59.22196759999861,59.22196759999861,59.22196759999861,59.22196759999861,59.22196759999861,,009,P010,2025_Feb_01_1609,ConditionRich,2021.2.3,59.94305409851847,
31.0,31.75,3,0.75,Stimuli/P010/sun_aewgwsmvsgzleqhw.jpg,0,0,0.0,0,55,55,55,,,,,,,,,,,,,31.026366499998403,0.026366499998403015,None,59.47217119999914,59.47217119999914,59.47217119999914,59.47217119999914,59.47217119999914,59.47217119999914,59.47217119999914,59.47217119999914,59.47217119999914,59.47217119999914,,009,P010,2025_Feb_01_1609,ConditionRich,2021.2.3,59.94305409851847,
31.75,32.0,41,0.0,Stimuli/Blank.png,0,0,0.0,0,56,56,56,,,,,,,,,,,,,31.759575299998687,0.009575299998687115,None,60.206159299999854,60.206159299999854,60.206159299999854,60.206159299999854,60.206159299999854,60.206159299999854,60.206159299999854,60.206159299999854,60.206159299999854,60.206159299999854,,009,P010,2025_Feb_01_1609,ConditionRich,2021.2.3,59.94305409851847,
32.0,32.75,12,0.75,Stimuli/P010/sun_birmwgkdtrlevcaf.jpg,0,0,0.0,0,57,57,57,,,,,,,,,,,,,32.010856000000786,0.01085600000078557,None,60.4730856999995,60.4730856999995,60.4730856999995,60.4730856999995,60.4730856999995,60.4730856999995,60.4730856999995,60.4730856999995,60.4730856999995,60.4730856999995,,009,P010,2025_Feb_01_1609,ConditionRich,2021.2.3,59.94305409851847,
32.75,33.0,41,0.0,Stimuli/Blank.png,0,0,0.0,0,58,58,58,,,,,,,,,,,,,32.78036290000091,0.030362900000909576,None,61.240411999999196,61.240411999999196,61.240411999999196,61.240411999999196,61.240411999999196,61.240411999999196,61.240411999999196,61.240411999999196,61.240411999999196,61.240411999999196,,009,P010,2025_Feb_01_1609,ConditionRich,2021.2.3,59.94305409851847,
33.0,33.75,12,0.75,Stimuli/P010/sun_birmwgkdtrlevcaf.jpg,0,0,0.0,0,59,59,59,,,,,,,,,,,,,33.02826880000066,0.02826880000066012,None,61.49062279999998,61.49062279999998,61.49062279999998,61.49062279999998,61.49062279999998,61.49062279999998,61.49062279999998,61.49062279999998,61.49062279999998,61.49062279999998,,009,P010,2025_Feb_01_1609,ConditionRich,2021.2.3,59.94305409851847,
33.75,34.0,41,0.0,Stimuli/Blank.png,0,0,0.0,0,60,60,60,,,,,,,,,,,,,33.77866390000054,0.02866390000053798,None,62.224604299997736,62.224604299997736,62.224604299997736,62.224604299997736,62.224604299997736,62.224604299997736,62.224604299997736,62.224604299997736,62.224604299997736,62.224604299997736,,009,P010,2025_Feb_01_1609,ConditionRich,2021.2.3,59.94305409851847,
34.0,34.75,12,0.75,Stimuli/P010/sun_birmwgkdtrlevcaf.jpg,0,0,0.0,0,61,61,61,,,,,,,,,,,,,34.01433589999942,0.014335899999423418,None,62.47483049999937,62.47483049999937,62.47483049999937,62.47483049999937,62.47483049999937,62.47483049999937,62.47483049999937,62.47483049999937,62.47483049999937,62.47483049999937,,009,P010,2025_Feb_01_1609,ConditionRich,2021.2.3,59.94305409851847,
34.75,35.0,41,0.0,Stimuli/Blank.png,0,0,0.0,0,62,62,62,,,,,,,,,,,,,34.77978770000118,0.029787700001179473,None,63.242189900000085,63.242189900000085,63.242189900000085,63.242189900000085,63.242189900000085,63.242189900000085,63.242189900000085,63.242189900000085,63.242189900000085,63.242189900000085,,009,P010,2025_Feb_01_1609,ConditionRich,2021.2.3,59.94305409851847,
35.0,35.75,12,0.75,Stimuli/P010/sun_birmwgkdtrlevcaf.jpg,0,0,0.0,0,63,63,63,,,,,,,,,,,,,35.02952599999844,0.029525999998440966,None,63.47570919999998,63.47570919999998,63.47570919999998,63.47570919999998,63.47570919999998,63.47570919999998,63.47570919999998,63.47570919999998,63.47570919999998,63.47570919999998,,009,P010,2025_Feb_01_1609,ConditionRich,2021.2.3,59.94305409851847,
35.75,36.0,41,0.0,Stimuli/Blank.png,0,0,0.0,0,64,64,64,,,,,,,,,,,,,35.76321459999963,0.013214599999628263,None,64.20969449999757,64.20969449999757,64.20969449999757,64.20969449999757,64.20969449999757,64.20969449999757,64.20969449999757,64.20969449999757,64.20969449999757,64.20969449999757,,009,P010,2025_Feb_01_1609,ConditionRich,2021.2.3,59.94305409851847,
36.0,36.75,25,0.75,Stimuli/P010/things_clothespin_05s.jpg,0,0,0.0,0,65,65,65,,,,,,,,,,,,,36.01394960000107,0.013949600001069484,None,64.45991359999971,64.45991359999971,64.45991359999971,64.45991359999971,64.45991359999971,64.45991359999971,64.45991359999971,64.45991359999971,64.45991359999971,64.45991359999971,,009,P010,2025_Feb_01_1609,ConditionRich,2021.2.3,59.94305409851847,
36.75,37.0,41,0.0,Stimuli/Blank.png,0,0,0.0,0,66,66,66,,,,,,,,,,,,,36.76518289999876,0.015182899998762878,None,65.22728839999763,65.22728839999763,65.22728839999763,65.22728839999763,65.22728839999763,65.22728839999763,65.22728839999763,65.22728839999763,65.22728839999763,65.22728839999763,,009,P010,2025_Feb_01_1609,ConditionRich,2021.2.3,59.94305409851847,
37.0,37.75,25,0.75,Stimuli/P010/things_clothespin_05s.jpg,0,0,0.0,0,67,67,67,,,,,,,,,,,,,37.0309989999987,0.030998999998701038,None,65.49419909999779,65.49419909999779,65.49419909999779,65.49419909999779,65.49419909999779,65.49419909999779,65.49419909999779,65.49419909999779,65.49419909999779,65.49419909999779,,009,P010,2025_Feb_01_1609,ConditionRich,2021.2.3,59.94305409851847,
37.75,38.0,41,0.0,Stimuli/Blank.png,0,0,0.0,0,68,68,68,,,,,,,,,,,,,37.78386020000107,0.03386020000107237,None,66.24483119999786,66.24483119999786,66.24483119999786,66.24483119999786,66.24483119999786,66.24483119999786,66.24483119999786,66.24483119999786,66.24483119999786,66.24483119999786,,009,P010,2025_Feb_01_1609,ConditionRich,2021.2.3,59.94305409851847,
38.0,38.75,25,0.75,Stimuli/P010/things_clothespin_05s.jpg,0,0,0.0,0,69,69,69,,,,,,,,,,,,,38.01615529999981,0.01615529999980936,None,66.46168699999907,66.46168699999907,66.46168699999907,66.46168699999907,66.46168699999907,66.46168699999907,66.46168699999907,66.46168699999907,66.46168699999907,66.46168699999907,,009,P010,2025_Feb_01_1609,ConditionRich,2021.2.3,59.94305409851847,
38.75,39.0,41,0.0,Stimuli/Blank.png,0,0,0.0,0,70,70,70,,,,,,,,,,,,,38.74982639999871,-0.00017360000128974207,None,67.19567399999869,67.19567399999869,67.19567399999869,67.19567399999869,67.19567399999869,67.19567399999869,67.19567399999869,67.19567399999869,67.19567399999869,67.19567399999869,,009,P010,2025_Feb_01_1609,ConditionRich,2021.2.3,59.94305409851847,
39.0,39.75,25,0.75,Stimuli/P010/things_clothespin_05s.jpg,1,0,0.75,0,71,71,71,,,,,,,,,,,,,38.999753600000986,-0.0002463999990141019,1,67.44586789999812,67.44586789999812,67.44586789999812,67.44586789999812,67.44586789999812,67.44586789999812,67.44586789999812,68.17986969999765,67.44586789999812,67.44586789999812,0.650482799999736,009,P010,2025_Feb_01_1609,ConditionRich,2021.2.3,59.94305409851847,
39.75,40.0,41,0.0,Stimuli/Blank.png,0,0,0.0,0,72,72,72,,,,,,,,,,,,,39.75026050000088,0.00026050000087707303,None,68.19655710000006,68.19655710000006,68.19655710000006,68.19655710000006,68.19655710000006,68.19655710000006,68.19655710000006,68.19655710000006,68.19655710000006,68.19655710000006,,009,P010,2025_Feb_01_1609,ConditionRich,2021.2.3,59.94305409851847,
40.0,40.75,2,0.75,Stimuli/P010/sun_acvloibbxiqpiwnv.jpg,0,0,0.0,0,73,73,73,,,,,,,,,,,,,40.000380000001314,0.000380000001314329,None,68.44678249999924,68.44678249999924,68.44678249999924,68.44678249999924,68.44678249999924,68.44678249999924,68.44678249999924,68.44678249999924,68.44678249999924,68.44678249999924,,009,P010,2025_Feb_01_1609,ConditionRich,2021.2.3,59.94305409851847,
40.75,41.0,41,0.0,Stimuli/Blank.png,0,0,0.0,0,74,74,74,,,,,,,,,,,,,40.75120109999989,0.0012010999998892657,None,69.19744419999915,69.19744419999915,69.19744419999915,69.19744419999915,69.19744419999915,69.19744419999915,69.19744419999915,69.19744419999915,69.19744419999915,69.19744419999915,,009,P010,2025_Feb_01_1609,ConditionRich,2021.2.3,59.94305409851847,
41.0,41.75,2,0.75,Stimuli/P010/sun_acvloibbxiqpiwnv.jpg,0,0,0.0,0,75,75,75,,,,,,,,,,,,,41.00122579999879,0.001225799998792354,None,69.44767539999884,69.44767539999884,69.44767539999884,69.44767539999884,69.44767539999884,69.44767539999884,69.44767539999884,69.44767539999884,69.44767539999884,69.44767539999884,,009,P010,2025_Feb_01_1609,ConditionRich,2021.2.3,59.94305409851847,
41.75,42.0,41,0.0,Stimuli/Blank.png,0,0,0.0,0,76,76,76,,,,,,,,,,,,,41.75189379999938,0.001893799999379553,None,70.19836619999842,70.19836619999842,70.19836619999842,70.19836619999842,70.19836619999842,70.19836619999842,70.19836619999842,70.19836619999842,70.19836619999842,70.19836619999842,,009,P010,2025_Feb_01_1609,ConditionRich,2021.2.3,59.94305409851847,
42.0,42.75,2,0.75,Stimuli/P010/sun_acvloibbxiqpiwnv.jpg,0,0,0.0,0,77,77,77,,,,,,,,,,,,,42.00422619999881,0.004226199998811353,None,70.46523329999764,70.46523329999764,70.46523329999764,70.46523329999764,70.46523329999764,70.46523329999764,70.46523329999764,70.46523329999764,70.46523329999764,70.46523329999764,,009,P010,2025_Feb_01_1609,ConditionRich,2021.2.3,59.94305409851847,
42.75,43.0,41,0.0,Stimuli/Blank.png,0,0,0.0,0,78,78,78,,,,,,,,,,,,,42.7696434999998,0.01964349999980186,None,71.21590519999882,71.21590519999882,71.21590519999882,71.21590519999882,71.21590519999882,71.21590519999882,71.21590519999882,71.21590519999882,71.21590519999882,71.21590519999882,,009,P010,2025_Feb_01_1609,ConditionRich,2021.2.3,59.94305409851847,
43.0,43.75,2,0.75,Stimuli/P010/sun_acvloibbxiqpiwnv.jpg,0,0,0.0,0,79,79,79,,,,,,,,,,,,,43.003559299999324,0.003559299999324139,None,71.44944329999998,71.44944329999998,71.44944329999998,71.44944329999998,71.44944329999998,71.44944329999998,71.44944329999998,71.44944329999998,71.44944329999998,71.44944329999998,,009,P010,2025_Feb_01_1609,ConditionRich,2021.2.3,59.94305409851847,
43.75,44.0,41,0.0,Stimuli/Blank.png,0,0,0.0,0,80,80,80,,,,,,,,,,,,,43.75431899999967,0.004318999999668449,None,72.2001010999993,72.2001010999993,72.2001010999993,72.2001010999993,72.2001010999993,72.2001010999993,72.2001010999993,72.2001010999993,72.2001010999993,72.2001010999993,,009,P010,2025_Feb_01_1609,ConditionRich,2021.2.3,59.94305409851847,
44.0,44.75,38,0.75,Stimuli/P010/things_roadsweeper_05s.jpg,0,0,0.0,0,81,81,81,,,,,,,,,,,,,44.00452059999952,0.004520599999523256,None,72.4670245999987,72.4670245999987,72.4670245999987,72.4670245999987,72.4670245999987,72.4670245999987,72.4670245999987,72.4670245999987,72.4670245999987,72.4670245999987,,009,P010,2025_Feb_01_1609,ConditionRich,2021.2.3,59.94305409851847,
44.75,45.0,41,0.0,Stimuli/Blank.png,0,0,0.0,0,82,82,82,,,,,,,,,,,,,44.77415330000076,0.0241533000007621,None,73.2343621,73.2343621,73.2343621,73.2343621,73.2343621,73.2343621,73.2343621,73.2343621,73.2343621,73.2343621,,009,P010,2025_Feb_01_1609,ConditionRich,2021.2.3,59.94305409851847,
45.0,45.75,38,0.75,Stimuli/P010/things_roadsweeper_05s.jpg,0,0,0.0,0,83,83,83,,,,,,,,,,,,,45.02429409999968,0.02429409999967902,None,73.48457950000011,73.48457950000011,73.48457950000011,73.48457950000011,73.48457950000011,73.48457950000011,73.48457950000011,73.48457950000011,73.48457950000011,73.48457950000011,,009,P010,2025_Feb_01_1609,ConditionRich,2021.2.3,59.94305409851847,
45.75,46.0,41,0.0,Stimuli/Blank.png,0,0,0.0,0,84,84,84,,,,,,,,,,,,,45.77502330000061,0.025023300000611925,None,74.23524629999883,74.23524629999883,74.23524629999883,74.23524629999883,74.23524629999883,74.23524629999883,74.23524629999883,74.23524629999883,74.23524629999883,74.23524629999883,,009,P010,2025_Feb_01_1609,ConditionRich,2021.2.3,59.94305409851847,
46.0,46.75,38,0.75,Stimuli/P010/things_roadsweeper_05s.jpg,0,0,0.0,0,85,85,85,,,,,,,,,,,,,46.025011699999595,0.025011699999595294,None,74.48545499999818,74.48545499999818,74.48545499999818,74.48545499999818,74.48545499999818,74.48545499999818,74.48545499999818,74.48545499999818,74.48545499999818,74.48545499999818,,009,P010,2025_Feb_01_1609,ConditionRich,2021.2.3,59.94305409851847,
46.75,47.0,41,0.0,Stimuli/Blank.png,0,0,0.0,0,86,86,86,,,,,,,,,,,,,46.77448820000063,0.024488200000632787,None,75.2194387999989,75.2194387999989,75.2194387999989,75.2194387999989,75.2194387999989,75.2194387999989,75.2194387999989,75.2194387999989,75.2194387999989,75.2194387999989,,009,P010,2025_Feb_01_1609,ConditionRich,2021.2.3,59.94305409851847,
47.0,47.75,38,0.75,Stimuli/P010/things_roadsweeper_05s.jpg,0,0,0.0,0,87,87,87,,,,,,,,,,,,,47.00717340000119,0.007173400001192931,None,75.46964899999875,75.46964899999875,75.46964899999875,75.46964899999875,75.46964899999875,75.46964899999875,75.46964899999875,75.46964899999875,75.46964899999875,75.46964899999875,,009,P010,2025_Feb_01_1609,ConditionRich,2021.2.3,59.94305409851847,
47.75,48.0,41,0.0,Stimuli/Blank.png,0,0,0.0,0,88,88,88,,,,,,,,,,,,,47.77445259999877,0.024452599998767255,None,76.22032799999943,76.22032799999943,76.22032799999943,76.22032799999943,76.22032799999943,76.22032799999943,76.22032799999943,76.22032799999943,76.22032799999943,76.22032799999943,,009,P010,2025_Feb_01_1609,ConditionRich,2021.2.3,59.94305409851847,
48.0,48.75,19,0.75,Stimuli/P010/sun_bwvfnogmotsvhofs.jpg,0,0,0.0,0,89,89,89,,,,,,,,,,,,,48.00750179999886,0.0075017999988631345,None,76.45386189999772,76.45386189999772,76.45386189999772,76.45386189999772,76.45386189999772,76.45386189999772,76.45386189999772,76.45386189999772,76.45386189999772,76.45386189999772,,009,P010,2025_Feb_01_1609,ConditionRich,2021.2.3,59.94305409851847,
48.75,49.0,41,0.0,Stimuli/Blank.png,0,0,0.0,0,90,90,90,,,,,,,,,,,,,48.759428400000616,0.009428400000615511,None,77.20454389999941,77.20454389999941,77.20454389999941,77.20454389999941,77.20454389999941,77.20454389999941,77.20454389999941,77.20454389999941,77.20454389999941,77.20454389999941,,009,P010,2025_Feb_01_1609,ConditionRich,2021.2.3,59.94305409851847,
49.0,49.75,19,0.75,Stimuli/P010/sun_bwvfnogmotsvhofs.jpg,0,0,0.0,0,91,91,91,,,,,,,,,,,,,49.008627200000774,0.008627200000773882,None,77.45474199999808,77.45474199999808,77.45474199999808,77.45474199999808,77.45474199999808,77.45474199999808,77.45474199999808,77.45474199999808,77.45474199999808,77.45474199999808,,009,P010,2025_Feb_01_1609,ConditionRich,2021.2.3,59.94305409851847,
49.75,50.0,41,0.0,Stimuli/Blank.png,0,0,0.0,0,92,92,92,,,,,,,,,,,,,49.75999619999857,0.009996199998568045,None,78.20541039999807,78.20541039999807,78.20541039999807,78.20541039999807,78.20541039999807,78.20541039999807,78.20541039999807,78.20541039999807,78.20541039999807,78.20541039999807,,009,P010,2025_Feb_01_1609,ConditionRich,2021.2.3,59.94305409851847,
50.0,50.75,19,0.75,Stimuli/P010/sun_bwvfnogmotsvhofs.jpg,0,0,0.0,0,93,93,93,,,,,,,,,,,,,50.01001040000119,0.010010400001192465,None,78.47230919999856,78.47230919999856,78.47230919999856,78.47230919999856,78.47230919999856,78.47230919999856,78.47230919999856,78.47230919999856,78.47230919999856,78.47230919999856,,009,P010,2025_Feb_01_1609,ConditionRich,2021.2.3,59.94305409851847,
50.75,51.0,41,0.0,Stimuli/Blank.png,0,0,0.0,0,94,94,94,,,,,,,,,,,,,50.779886699998315,0.029886699998314725,None,79.23968640000021,79.23968640000021,79.23968640000021,79.23968640000021,79.23968640000021,79.23968640000021,79.23968640000021,79.23968640000021,79.23968640000021,79.23968640000021,,009,P010,2025_Feb_01_1609,ConditionRich,2021.2.3,59.94305409851847,
51.0,51.75,19,0.75,Stimuli/P010/sun_bwvfnogmotsvhofs.jpg,0,0,0.0,0,95,95,95,,,,,,,,,,,,,51.0292941000007,0.029294100000697654,None,79.48988129999998,79.48988129999998,79.48988129999998,79.48988129999998,79.48988129999998,79.48988129999998,79.48988129999998,79.48988129999998,79.48988129999998,79.48988129999998,,009,P010,2025_Feb_01_1609,ConditionRich,2021.2.3,59.94305409851847,
51.75,52.0,41,0.0,Stimuli/Blank.png,0,0,0.0,0,96,96,96,,,,,,,,,,,,,51.77819509999972,0.028195099999720696,None,80.22386859999824,80.22386859999824,80.22386859999824,80.22386859999824,80.22386859999824,80.22386859999824,80.22386859999824,80.22386859999824,80.22386859999824,80.22386859999824,,009,P010,2025_Feb_01_1609,ConditionRich,2021.2.3,59.94305409851847,
52.0,52.75,18,0.75,Stimuli/P010/sun_bwjdahsxcqepqqbm.jpg,0,0,0.0,0,97,97,97,,,,,,,,,,,,,52.011074400001235,0.011074400001234608,None,80.45740540000043,80.45740540000043,80.45740540000043,80.45740540000043,80.45740540000043,80.45740540000043,80.45740540000043,80.45740540000043,80.45740540000043,80.45740540000043,,009,P010,2025_Feb_01_1609,ConditionRich,2021.2.3,59.94305409851847,
52.75,53.0,41,0.0,Stimuli/Blank.png,0,0,0.0,0,98,98,98,,,,,,,,,,,,,52.76234750000003,0.012347500000032596,None,81.2080778999989,81.2080778999989,81.2080778999989,81.2080778999989,81.2080778999989,81.2080778999989,81.2080778999989,81.2080778999989,81.2080778999989,81.2080778999989,,009,P010,2025_Feb_01_1609,ConditionRich,2021.2.3,59.94305409851847,
53.0,53.75,18,0.75,Stimuli/P010/sun_bwjdahsxcqepqqbm.jpg,0,0,0.0,0,99,99,99,,,,,,,,,,,,,53.013179699999455,0.013179699999454897,None,81.47494069999811,81.47494069999811,81.47494069999811,81.47494069999811,81.47494069999811,81.47494069999811,81.47494069999811,81.47494069999811,81.47494069999811,81.47494069999811,,009,P010,2025_Feb_01_1609,ConditionRich,2021.2.3,59.94305409851847,
53.75,54.0,41,0.0,Stimuli/Blank.png,0,0,0.0,0,100,100,100,,,,,,,,,,,,,53.779302999999345,0.029302999999345047,None,82.22563609999997,82.22563609999997,82.22563609999997,82.22563609999997,82.22563609999997,82.22563609999997,82.22563609999997,82.22563609999997,82.22563609999997,82.22563609999997,,009,P010,2025_Feb_01_1609,ConditionRich,2021.2.3,59.94305409851847,
54.0,54.75,18,0.75,Stimuli/P010/sun_bwjdahsxcqepqqbm.jpg,1,0,0.75,0,101,101,101,,,,,,,,,,,,,54.01305649999995,0.013056499999947846,1,82.45916679999937,82.45916679999937,82.45916679999937,82.45916679999937,82.45916679999937,82.45916679999937,82.45916679999937,83.19315979999737,82.45916679999937,82.45916679999937,0.42810580000150367,009,P010,2025_Feb_01_1609,ConditionRich,2021.2.3,59.94305409851847,
54.75,55.0,41,0.0,Stimuli/Blank.png,0,0,0.0,0,102,102,102,,,,,,,,,,,,,54.76464489999853,0.014644899998529581,None,83.20984150000004,83.20984150000004,83.20984150000004,83.20984150000004,83.20984150000004,83.20984150000004,83.20984150000004,83.20984150000004,83.20984150000004,83.20984150000004,,009,P010,2025_Feb_01_1609,ConditionRich,2021.2.3,59.94305409851847,
55.0,55.75,18,0.75,Stimuli/P010/sun_bwjdahsxcqepqqbm.jpg,0,0,0.0,0,103,103,103,,,,,,,,,,,,,55.01473780000015,0.014737800000148127,None,83.47675549999985,83.47675549999985,83.47675549999985,83.47675549999985,83.47675549999985,83.47675549999985,83.47675549999985,83.47675549999985,83.47675549999985,83.47675549999985,,009,P010,2025_Feb_01_1609,ConditionRich,2021.2.3,59.94305409851847,
55.75,56.0,41,0.0,Stimuli/Blank.png,0,0,0.0,0,104,104,104,,,,,,,,,,,,,55.78159610000148,0.0315961000014795,None,84.2273987999979,84.2273987999979,84.2273987999979,84.2273987999979,84.2273987999979,84.2273987999979,84.2273987999979,84.2273987999979,84.2273987999979,84.2273987999979,,009,P010,2025_Feb_01_1609,ConditionRich,2021.2.3,59.94305409851847,
56.0,56.75,28,0.75,Stimuli/P010/things_face_05s.jpg,0,0,0.0,0,105,105,105,,,,,,,,,,,,,56.01516279999851,0.01516279999850667,None,84.46094760000051,84.46094760000051,84.46094760000051,84.46094760000051,84.46094760000051,84.46094760000051,84.46094760000051,84.46094760000051,84.46094760000051,84.46094760000051,,009,P010,2025_Feb_01_1609,ConditionRich,2021.2.3,59.94305409851847,
56.75,57.0,41,0.0,Stimuli/Blank.png,0,0,0.0,0,106,106,106,,,,,,,,,,,,,56.749462499999936,-0.0005375000000640284,None,85.19493849999708,85.19493849999708,85.19493849999708,85.19493849999708,85.19493849999708,85.19493849999708,85.19493849999708,85.19493849999708,85.19493849999708,85.19493849999708,,009,P010,2025_Feb_01_1609,ConditionRich,2021.2.3,59.94305409851847,
57.0,57.75,28,0.75,Stimuli/P010/things_face_05s.jpg,0,0,0.0,0,107,107,107,,,,,,,,,,,,,56.99981789999947,-0.00018210000052931719,None,85.44515110000066,85.44515110000066,85.44515110000066,85.44515110000066,85.44515110000066,85.44515110000066,85.44515110000066,85.44515110000066,85.44515110000066,85.44515110000066,,009,P010,2025_Feb_01_1609,ConditionRich,2021.2.3,59.94305409851847,
57.75,58.0,41,0.0,Stimuli/Blank.png,0,0,0.0,0,108,108,108,,,,,,,,,,,,,57.749277099999745,-0.0007229000002553221,None,86.19580750000023,86.19580750000023,86.19580750000023,86.19580750000023,86.19580750000023,86.19580750000023,86.19580750000023,86.19580750000023,86.19580750000023,86.19580750000023,,009,P010,2025_Feb_01_1609,ConditionRich,2021.2.3,59.94305409851847,
58.0,58.75,28,0.75,Stimuli/P010/things_face_05s.jpg,0,0,0.0,0,109,109,109,,,,,,,,,,,,,57.9996925000014,-0.0003074999985983595,None,86.44600480000008,86.44600480000008,86.44600480000008,86.44600480000008,86.44600480000008,86.44600480000008,86.44600480000008,86.44600480000008,86.44600480000008,86.44600480000008,,009,P010,2025_Feb_01_1609,ConditionRich,2021.2.3,59.94305409851847,
58.75,59.0,41,0.0,Stimuli/Blank.png,0,0,0.0,0,110,110,110,,,,,,,,,,,,,58.75081460000001,0.0008146000000124332,None,87.19671089999974,87.19671089999974,87.19671089999974,87.19671089999974,87.19671089999974,87.19671089999974,87.19671089999974,87.19671089999974,87.19671089999974,87.19671089999974,,009,P010,2025_Feb_01_1609,ConditionRich,2021.2.3,59.94305409851847,
59.0,59.75,28,0.75,Stimuli/P010/things_face_05s.jpg,0,0,0.0,0,111,111,111,,,,,,,,,,,,,59.00102899999911,0.0010289999991073273,None,87.44695739999952,87.44695739999952,87.44695739999952,87.44695739999952,87.44695739999952,87.44695739999952,87.44695739999952,87.44695739999952,87.44695739999952,87.44695739999952,,009,P010,2025_Feb_01_1609,ConditionRich,2021.2.3,59.94305409851847,
59.75,60.0,41,0.0,Stimuli/Blank.png,0,0,0.0,0,112,112,112,,,,,,,,,,,,,59.752592599998025,0.002592599998024525,None,88.19755689999874,88.19755689999874,88.19755689999874,88.19755689999874,88.19755689999874,88.19755689999874,88.19755689999874,88.19755689999874,88.19755689999874,88.19755689999874,,009,P010,2025_Feb_01_1609,ConditionRich,2021.2.3,59.94305409851847,
60.0,60.75,15,0.75,Stimuli/P010/sun_boryivbddrnarrbo.jpg,0,0,0.0,0,113,113,113,,,,,,,,,,,,,60.0024044999991,0.002404499999101972,None,88.46445659999881,88.46445659999881,88.46445659999881,88.46445659999881,88.46445659999881,88.46445659999881,88.46445659999881,88.46445659999881,88.46445659999881,88.46445659999881,,009,P010,2025_Feb_01_1609,ConditionRich,2021.2.3,59.94305409851847,
60.75,61.0,41,0.0,Stimuli/Blank.png,0,0,0.0,0,114,114,114,,,,,,,,,,,,,60.769740899999306,0.01974089999930584,None,89.21515599999839,89.21515599999839,89.21515599999839,89.21515599999839,89.21515599999839,89.21515599999839,89.21515599999839,89.21515599999839,89.21515599999839,89.21515599999839,,009,P010,2025_Feb_01_1609,ConditionRich,2021.2.3,59.94305409851847,
61.0,61.75,15,0.75,Stimuli/P010/sun_boryivbddrnarrbo.jpg,0,0,0.0,0,115,115,115,,,,,,,,,,,,,61.00420959999974,0.004209599999740021,None,89.46539999999732,89.46539999999732,89.46539999999732,89.46539999999732,89.46539999999732,89.46539999999732,89.46539999999732,89.46539999999732,89.46539999999732,89.46539999999732,,009,P010,2025_Feb_01_1609,ConditionRich,2021.2.3,59.94305409851847,
61.75,62.0,41,0.0,Stimuli/Blank.png,0,0,0.0,0,116,116,116,,,,,,,,,,,,,61.77013829999851,0.020138299998507136,None,90.21603019999748,90.21603019999748,90.21603019999748,90.21603019999748,90.21603019999748,90.21603019999748,90.21603019999748,90.21603019999748,90.21603019999748,90.21603019999748,,009,P010,2025_Feb_01_1609,ConditionRich,2021.2.3,59.94305409851847,
62.0,62.75,15,0.75,Stimuli/P010/sun_boryivbddrnarrbo.jpg,0,0,0.0,0,117,117,117,,,,,,,,,,,,,62.00331240000014,0.0033124000001407694,None,90.44957859999704,90.44957859999704,90.44957859999704,90.44957859999704,90.44957859999704,90.44957859999704,90.44957859999704,90.44957859999704,90.44957859999704,90.44957859999704,,009,P010,2025_Feb_01_1609,ConditionRich,2021.2.3,59.94305409851847,
62.75,63.0,41,0.0,Stimuli/Blank.png,0,0,0.0,0,118,118,118,,,,,,,,,,,,,62.753992999998445,0.003992999998445157,None,91.20023619999847,91.20023619999847,91.20023619999847,91.20023619999847,91.20023619999847,91.20023619999847,91.20023619999847,91.20023619999847,91.20023619999847,91.20023619999847,,009,P010,2025_Feb_01_1609,ConditionRich,2021.2.3,59.94305409851847,
63.0,63.75,15,0.75,Stimuli/P010/sun_boryivbddrnarrbo.jpg,0,0,0.0,0,119,119,119,,,,,,,,,,,,,63.00560680000126,0.005606800001260126,None,91.46714019999854,91.46714019999854,91.46714019999854,91.46714019999854,91.46714019999854,91.46714019999854,91.46714019999854,91.46714019999854,91.46714019999854,91.46714019999854,,009,P010,2025_Feb_01_1609,ConditionRich,2021.2.3,59.94305409851847,
63.75,64.0,41,0.0,Stimuli/Blank.png,0,0,0.0,0,120,120,120,,,,,,,,,,,,,63.77216889999909,0.022168899999087444,None,92.21781740000006,92.21781740000006,92.21781740000006,92.21781740000006,92.21781740000006,92.21781740000006,92.21781740000006,92.21781740000006,92.21781740000006,92.21781740000006,,009,P010,2025_Feb_01_1609,ConditionRich,2021.2.3,59.94305409851847,
64.0,64.75,11,0.75,Stimuli/P010/sun_bfyvfqiimvdaxlqn.jpg,0,0,0.0,0,121,121,121,,,,,,,,,,,,,64.00497289999839,0.004972899998392677,None,92.45134300000063,92.45134300000063,92.45134300000063,92.45134300000063,92.45134300000063,92.45134300000063,92.45134300000063,92.45134300000063,92.45134300000063,92.45134300000063,,009,P010,2025_Feb_01_1609,ConditionRich,2021.2.3,59.94305409851847,
64.75,65.0,41,0.0,Stimuli/Blank.png,0,0,0.0,0,122,122,122,,,,,,,,,,,,,64.75555560000066,0.005555600000661798,None,93.20200879999902,93.20200879999902,93.20200879999902,93.20200879999902,93.20200879999902,93.20200879999902,93.20200879999902,93.20200879999902,93.20200879999902,93.20200879999902,,009,P010,2025_Feb_01_1609,ConditionRich,2021.2.3,59.94305409851847,
65.0,65.75,11,0.75,Stimuli/P010/sun_bfyvfqiimvdaxlqn.jpg,0,0,0.0,0,123,123,123,,,,,,,,,,,,,65.00637450000067,0.006374500000674743,None,93.4689292999974,93.4689292999974,93.4689292999974,93.4689292999974,93.4689292999974,93.4689292999974,93.4689292999974,93.4689292999974,93.4689292999974,93.4689292999974,,009,P010,2025_Feb_01_1609,ConditionRich,2021.2.3,59.94305409851847,
65.75,66.0,41,0.0,Stimuli/Blank.png,0,0,0.0,0,124,124,124,,,,,,,,,,,,,65.77455049999844,0.0245504999984405,None,94.21958559999985,94.21958559999985,94.21958559999985,94.21958559999985,94.21958559999985,94.21958559999985,94.21958559999985,94.21958559999985,94.21958559999985,94.21958559999985,,009,P010,2025_Feb_01_1609,ConditionRich,2021.2.3,59.94305409851847,
66.0,66.75,11,0.75,Stimuli/P010/sun_bfyvfqiimvdaxlqn.jpg,0,0,0.0,0,125,125,125,,,,,,,,,,,,,66.00868559999799,0.008685599997988902,None,94.46979069999725,94.46979069999725,94.46979069999725,94.46979069999725,94.46979069999725,94.46979069999725,94.46979069999725,94.46979069999725,94.46979069999725,94.46979069999725,,009,P010,2025_Feb_01_1609,ConditionRich,2021.2.3,59.94305409851847,
66.75,67.0,41,0.0,Stimuli/Blank.png,0,0,0.0,0,126,126,126,,,,,,,,,,,,,66.77476000000024,0.024760000000242144,None,95.22057859999768,95.22057859999768,95.22057859999768,95.22057859999768,95.22057859999768,95.22057859999768,95.22057859999768,95.22057859999768,95.22057859999768,95.22057859999768,,009,P010,2025_Feb_01_1609,ConditionRich,2021.2.3,59.94305409851847,
67.0,67.75,11,0.75,Stimuli/P010/sun_bfyvfqiimvdaxlqn.jpg,0,0,0.0,0,127,127,127,,,,,,,,,,,,,67.00946100000147,0.009461000001465436,None,95.47068209999998,95.47068209999998,95.47068209999998,95.47068209999998,95.47068209999998,95.47068209999998,95.47068209999998,95.47068209999998,95.47068209999998,95.47068209999998,,009,P010,2025_Feb_01_1609,ConditionRich,2021.2.3,59.94305409851847,
67.75,68.0,41,0.0,Stimuli/Blank.png,0,0,0.0,0,128,128,128,,,,,,,,,,,,,67.77481600000101,0.024816000001010252,None,96.22132749999946,96.22132749999946,96.22132749999946,96.22132749999946,96.22132749999946,96.22132749999946,96.22132749999946,96.22132749999946,96.22132749999946,96.22132749999946,,009,P010,2025_Feb_01_1609,ConditionRich,2021.2.3,59.94305409851847,
68.0,68.75,1,0.75,Stimuli/P010/sun_abqdlumenyzawlme.jpg,0,0,0.0,0,129,129,129,,,,,,,,,,,,,68.00902639999913,0.009026399999129353,None,96.45488879999903,96.45488879999903,96.45488879999903,96.45488879999903,96.45488879999903,96.45488879999903,96.45488879999903,96.45488879999903,96.45488879999903,96.45488879999903,,009,P010,2025_Feb_01_1609,ConditionRich,2021.2.3,59.94305409851847,
68.75,69.0,41,0.0,Stimuli/Blank.png,0,0,0.0,0,130,130,130,,,,,,,,,,,,,68.76039790000141,0.010397900001407834,None,97.20555769999919,97.20555769999919,97.20555769999919,97.20555769999919,97.20555769999919,97.20555769999919,97.20555769999919,97.20555769999919,97.20555769999919,97.20555769999919,,009,P010,2025_Feb_01_1609,ConditionRich,2021.2.3,59.94305409851847,
69.0,69.75,1,0.75,Stimuli/P010/sun_abqdlumenyzawlme.jpg,0,0,0.0,0,131,131,131,,,,,,,,,,,,,69.00982289999956,0.009822899999562651,None,97.45576810000057,97.45576810000057,97.45576810000057,97.45576810000057,97.45576810000057,97.45576810000057,97.45576810000057,97.45576810000057,97.45576810000057,97.45576810000057,,009,P010,2025_Feb_01_1609,ConditionRich,2021.2.3,59.94305409851847,
69.75,70.0,41,0.0,Stimuli/Blank.png,0,0,0.0,0,132,132,132,,,,,,,,,,,,,69.76021720000062,0.010217200000624871,None,98.2064326999971,98.2064326999971,98.2064326999971,98.2064326999971,98.2064326999971,98.2064326999971,98.2064326999971,98.2064326999971,98.2064326999971,98.2064326999971,,009,P010,2025_Feb_01_1609,ConditionRich,2021.2.3,59.94305409851847,
70.0,70.75,1,0.75,Stimuli/P010/sun_abqdlumenyzawlme.jpg,0,0,0.0,0,133,133,133,,,,,,,,,,,,,70.01080210000146,0.010802100001455983,None,98.4733720999975,98.4733720999975,98.4733720999975,98.4733720999975,98.4733720999975,98.4733720999975,98.4733720999975,98.4733720999975,98.4733720999975,98.4733720999975,,009,P010,2025_Feb_01_1609,ConditionRich,2021.2.3,59.94305409851847,
70.75,71.0,41,0.0,Stimuli/Blank.png,0,0,0.0,0,134,134,134,,,,,,,,,,,,,70.77820059999794,0.028200599997944664,None,99.22400729999936,99.22400729999936,99.22400729999936,99.22400729999936,99.22400729999936,99.22400729999936,99.22400729999936,99.22400729999936,99.22400729999936,99.22400729999936,,009,P010,2025_Feb_01_1609,ConditionRich,2021.2.3,59.94305409851847,
71.0,71.75,1,0.75,Stimuli/P010/sun_abqdlumenyzawlme.jpg,0,0,0.0,0,135,135,135,,,,,,,,,,,,,71.01416369999788,0.01416369999788003,None,99.47423589999744,99.47423589999744,99.47423589999744,99.47423589999744,99.47423589999744,99.47423589999744,99.47423589999744,99.47423589999744,99.47423589999744,99.47423589999744,,009,P010,2025_Feb_01_1609,ConditionRich,2021.2.3,59.94305409851847,
71.75,72.0,41,0.0,Stimuli/Blank.png,0,0,0.0,0,136,136,136,,,,,,,,,,,,,71.77854279999883,0.02854279999883147,None,100.22489089999726,100.22489089999726,100.22489089999726,100.22489089999726,100.22489089999726,100.22489089999726,100.22489089999726,100.22489089999726,100.22489089999726,100.22489089999726,,009,P010,2025_Feb_01_1609,ConditionRich,2021.2.3,59.94305409851847,
72.0,72.75,16,0.75,Stimuli/P010/sun_bqpyqljaflidcauh.jpg,1,0,0.75,0,137,137,137,,,,,,,,,,,,,72.01243940000131,0.012439400001312606,1,100.45842469999843,100.45842469999843,100.45842469999843,100.45842469999843,100.45842469999843,100.45842469999843,100.45842469999843,101.19245049999881,100.45842469999843,100.45842469999843,0.4688882000009471,009,P010,2025_Feb_01_1609,ConditionRich,2021.2.3,59.94305409851847,
72.75,73.0,41,0.0,Stimuli/Blank.png,0,0,0.0,0,138,138,138,,,,,,,,,,,,,72.76352300000144,0.013523000001441687,None,101.20910059999733,101.20910059999733,101.20910059999733,101.20910059999733,101.20910059999733,101.20910059999733,101.20910059999733,101.20910059999733,101.20910059999733,101.20910059999733,,009,P010,2025_Feb_01_1609,ConditionRich,2021.2.3,59.94305409851847,
73.0,73.75,16,0.75,Stimuli/P010/sun_bqpyqljaflidcauh.jpg,0,0,0.0,0,139,139,139,,,,,,,,,,,,,73.01360420000128,0.013604200001282152,None,101.47598970000035,101.47598970000035,101.47598970000035,101.47598970000035,101.47598970000035,101.47598970000035,101.47598970000035,101.47598970000035,101.47598970000035,101.47598970000035,,009,P010,2025_Feb_01_1609,ConditionRich,2021.2.3,59.94305409851847,
73.75,74.0,41,0.0,Stimuli/Blank.png,0,0,0.0,0,140,140,140,,,,,,,,,,,,,73.78015030000097,0.030150300000968855,None,102.2266619999973,102.2266619999973,102.2266619999973,102.2266619999973,102.2266619999973,102.2266619999973,102.2266619999973,102.2266619999973,102.2266619999973,102.2266619999973,,009,P010,2025_Feb_01_1609,ConditionRich,2021.2.3,59.94305409851847,
74.0,74.75,16,0.75,Stimuli/P010/sun_bqpyqljaflidcauh.jpg,0,0,0.0,0,141,141,141,,,,,,,,,,,,,74.01372110000011,0.013721100000111619,None,102.46020439999847,102.46020439999847,102.46020439999847,102.46020439999847,102.46020439999847,102.46020439999847,102.46020439999847,102.46020439999847,102.46020439999847,102.46020439999847,,009,P010,2025_Feb_01_1609,ConditionRich,2021.2.3,59.94305409851847,
74.75,75.0,41,0.0,Stimuli/Blank.png,0,0,0.0,0,142,142,142,,,,,,,,,,,,,74.76514509999834,0.015145099998335354,None,103.21085749999838,103.21085749999838,103.21085749999838,103.21085749999838,103.21085749999838,103.21085749999838,103.21085749999838,103.21085749999838,103.21085749999838,103.21085749999838,,009,P010,2025_Feb_01_1609,ConditionRich,2021.2.3,59.94305409851847,
75.0,75.75,16,0.75,Stimuli/P010/sun_bqpyqljaflidcauh.jpg,0,0,0.0,0,143,143,143,,,,,,,,,,,,,75.01455480000004,0.014554800000041723,None,103.46108149999782,103.46108149999782,103.46108149999782,103.46108149999782,103.46108149999782,103.46108149999782,103.46108149999782,103.46108149999782,103.46108149999782,103.46108149999782,,009,P010,2025_Feb_01_1609,ConditionRich,2021.2.3,59.94305409851847,
75.75,76.0,41,0.0,Stimuli/Blank.png,0,0,0.0,0,144,144,144,,,,,,,,,,,,,75.7660685999981,0.016068599998106947,None,104.21175849999781,104.21175849999781,104.21175849999781,104.21175849999781,104.21175849999781,104.21175849999781,104.21175849999781,104.21175849999781,104.21175849999781,104.21175849999781,,009,P010,2025_Feb_01_1609,ConditionRich,2021.2.3,59.94305409851847,
76.0,76.75,39,0.75,Stimuli/P010/things_tiara_05s.jpg,0,0,0.0,0,145,145,145,,,,,,,,,,,,,76.00045129999853,0.0004512999985308852,None,104.46199820000038,104.46199820000038,104.46199820000038,104.46199820000038,104.46199820000038,104.46199820000038,104.46199820000038,104.46199820000038,104.46199820000038,104.46199820000038,,009,P010,2025_Feb_01_1609,ConditionRich,2021.2.3,59.94305409851847,
76.75,77.0,41,0.0,Stimuli/Blank.png,0,0,0.0,0,146,146,146,,,,,,,,,,,,,76.76695409999957,0.016954099999566097,None,105.21264359999986,105.21264359999986,105.21264359999986,105.21264359999986,105.21264359999986,105.21264359999986,105.21264359999986,105.21264359999986,105.21264359999986,105.21264359999986,,009,P010,2025_Feb_01_1609,ConditionRich,2021.2.3,59.94305409851847,
77.0,77.75,39,0.75,Stimuli/P010/things_tiara_05s.jpg,0,0,0.0,0,147,147,147,,,,,,,,,,,,,76.99989339999956,-0.00010660000043571927,None,105.44617989999824,105.44617989999824,105.44617989999824,105.44617989999824,105.44617989999824,105.44617989999824,105.44617989999824,105.44617989999824,105.44617989999824,105.44617989999824,,009,P010,2025_Feb_01_1609,ConditionRich,2021.2.3,59.94305409851847,
77.75,78.0,41,0.0,Stimuli/Blank.png,0,0,0.0,0,148,148,148,,,,,,,,,,,,,77.75055950000024,0.0005595000002358574,None,106.19683739999891,106.19683739999891,106.19683739999891,106.19683739999891,106.19683739999891,106.19683739999891,106.19683739999891,106.19683739999891,106.19683739999891,106.19683739999891,,009,P010,2025_Feb_01_1609,ConditionRich,2021.2.3,59.94305409851847,
78.0,78.75,39,0.75,Stimuli/P010/things_tiara_05s.jpg,0,0,0.0,0,149,149,149,,,,,,,,,,,,,78.00086190000002,0.0008619000000180677,None,106.46374029999788,106.46374029999788,106.46374029999788,106.46374029999788,106.46374029999788,106.46374029999788,106.46374029999788,106.46374029999788,106.46374029999788,106.46374029999788,,009,P010,2025_Feb_01_1609,ConditionRich,2021.2.3,59.94305409851847,
78.75,79.0,41,0.0,Stimuli/Blank.png,0,0,0.0,0,150,150,150,,,,,,,,,,,,,78.76965679999921,0.019656799999211216,None,107.2144092999988,107.2144092999988,107.2144092999988,107.2144092999988,107.2144092999988,107.2144092999988,107.2144092999988,107.2144092999988,107.2144092999988,107.2144092999988,,009,P010,2025_Feb_01_1609,ConditionRich,2021.2.3,59.94305409851847,
79.0,79.75,39,0.75,Stimuli/P010/things_tiara_05s.jpg,0,0,0.0,0,151,151,151,,,,,,,,,,,,,79.00391110000055,0.003911100000550505,None,107.46463609999773,107.46463609999773,107.46463609999773,107.46463609999773,107.46463609999773,107.46463609999773,107.46463609999773,107.46463609999773,107.46463609999773,107.46463609999773,,009,P010,2025_Feb_01_1609,ConditionRich,2021.2.3,59.94305409851847,
79.75,80.0,41,0.0,Stimuli/Blank.png,0,0,0.0,0,152,152,152,,,,,,,,,,,,,79.76959690000149,0.019596900001488393,None,108.21529459999874,108.21529459999874,108.21529459999874,108.21529459999874,108.21529459999874,108.21529459999874,108.21529459999874,108.21529459999874,108.21529459999874,108.21529459999874,,009,P010,2025_Feb_01_1609,ConditionRich,2021.2.3,59.94305409851847,
80.0,80.75,6,0.75,Stimuli/P010/sun_amkrwcyvinmsylsz.jpg,0,0,0.0,0,153,153,153,,,,,,,,,,,,,80.00569339999856,0.005693399998563109,None,108.46551429999818,108.46551429999818,108.46551429999818,108.46551429999818,108.46551429999818,108.46551429999818,108.46551429999818,108.46551429999818,108.46551429999818,108.46551429999818,,009,P010,2025_Feb_01_1609,ConditionRich,2021.2.3,59.94305409851847,
80.75,81.0,41,0.0,Stimuli/Blank.png,0,0,0.0,0,154,154,154,,,,,,,,,,,,,80.76976300000024,0.019763000000239117,None,109.21615559999918,109.21615559999918,109.21615559999918,109.21615559999918,109.21615559999918,109.21615559999918,109.21615559999918,109.21615559999918,109.21615559999918,109.21615559999918,,009,P010,2025_Feb_01_1609,ConditionRich,2021.2.3,59.94305409851847,
81.0,81.75,6,0.75,Stimuli/P010/sun_amkrwcyvinmsylsz.jpg,0,0,0.0,0,155,155,155,,,,,,,,,,,,,81.0031541999997,0.0031541999996989034,None,109.44971479999731,109.44971479999731,109.44971479999731,109.44971479999731,109.44971479999731,109.44971479999731,109.44971479999731,109.44971479999731,109.44971479999731,109.44971479999731,,009,P010,2025_Feb_01_1609,ConditionRich,2021.2.3,59.94305409851847,
81.75,82.0,41,0.0,Stimuli/Blank.png,0,0,0.0,0,156,156,156,,,,,,,,,,,,,81.75385399999868,0.0038539999986824114,None,110.2003822000006,110.2003822000006,110.2003822000006,110.2003822000006,110.2003822000006,110.2003822000006,110.2003822000006,110.2003822000006,110.2003822000006,110.2003822000006,,009,P010,2025_Feb_01_1609,ConditionRich,2021.2.3,59.94305409851847,
82.0,82.75,6,0.75,Stimuli/P010/sun_amkrwcyvinmsylsz.jpg,0,0,0.0,0,157,157,157,,,,,,,,,,,,,82.0075414999992,0.00754149999920628,None,110.46726759999729,110.46726759999729,110.46726759999729,110.46726759999729,110.46726759999729,110.46726759999729,110.46726759999729,110.46726759999729,110.46726759999729,110.46726759999729,,009,P010,2025_Feb_01_1609,ConditionRich,2021.2.3,59.94305409851847,
82.75,83.0,41,0.0,Stimuli/Blank.png,0,0,0.0,0,158,158,158,,,,,,,,,,,,,82.77226840000003,0.022268400000029942,None,111.2179576999988,111.2179576999988,111.2179576999988,111.2179576999988,111.2179576999988,111.2179576999988,111.2179576999988,111.2179576999988,111.2179576999988,111.2179576999988,,009,P010,2025_Feb_01_1609,ConditionRich,2021.2.3,59.94305409851847,
83.0,83.75,6,0.75,Stimuli/P010/sun_amkrwcyvinmsylsz.jpg,0,0,0.0,0,159,159,159,,,,,,,,,,,,,83.00503680000111,0.005036800001107622,None,111.45148709999921,111.45148709999921,111.45148709999921,111.45148709999921,111.45148709999921,111.45148709999921,111.45148709999921,111.45148709999921,111.45148709999921,111.45148709999921,,009,P010,2025_Feb_01_1609,ConditionRich,2021.2.3,59.94305409851847,
83.75,84.0,41,0.0,Stimuli/Blank.png,0,0,0.0,0,160,160,160,,,,,,,,,,,,,83.756280900001,0.00628090000100201,None,112.20214660000056,112.20214660000056,112.20214660000056,112.20214660000056,112.20214660000056,112.20214660000056,112.20214660000056,112.20214660000056,112.20214660000056,112.20214660000056,,009,P010,2025_Feb_01_1609,ConditionRich,2021.2.3,59.94305409851847,
84.0,100.0,0,0.0,Stimuli/Blank.png,1,1,1.75,0,161,161,161,,,,,,,,,,,,,84.00657729999875,0.006577299998753006,1,112.45236929999737,112.45236929999737,112.45236929999737,112.45236929999737,112.45236929999737,112.45236929999737,113.43662439999753,114.18722069999785,112.45236929999737,112.45236929999737,1.4300655999977607,009,P010,2025_Feb_01_1609,ConditionRich,2021.2.3,59.94305409851847,
100.0,100.75,24,0.75,Stimuli/P010/things_cigar_05n.jpg,0,0,0.0,0,162,162,162,,,,,,,,,,,,,100.00412259999939,0.004122599999391241,None,128.44981589999952,128.44981589999952,128.44981589999952,128.44981589999952,128.44981589999952,128.44981589999952,128.44981589999952,128.44981589999952,128.44981589999952,128.44981589999952,,009,P010,2025_Feb_01_1609,ConditionRich,2021.2.3,59.94305409851847,
100.75,101.0,41,0.0,Stimuli/Blank.png,0,0,0.0,0,163,163,163,,,,,,,,,,,,,100.75466629999937,0.004666299999371404,None,129.20051869999952,129.20051869999952,129.20051869999952,129.20051869999952,129.20051869999952,129.20051869999952,129.20051869999952,129.20051869999952,129.20051869999952,129.20051869999952,,009,P010,2025_Feb_01_1609,ConditionRich,2021.2.3,59.94305409851847,
101.0,101.75,24,0.75,Stimuli/P010/things_cigar_05n.jpg,0,0,0.0,0,164,164,164,,,,,,,,,,,,,101.00433970000086,0.004339700000855373,None,129.45074389999718,129.45074389999718,129.45074389999718,129.45074389999718,129.45074389999718,129.45074389999718,129.45074389999718,129.45074389999718,129.45074389999718,129.45074389999718,,009,P010,2025_Feb_01_1609,ConditionRich,2021.2.3,59.94305409851847,
101.75,102.0,41,0.0,Stimuli/Blank.png,0,0,0.0,0,165,165,165,,,,,,,,,,,,,101.75571449999916,0.0057144999991578516,None,130.20140729999912,130.20140729999912,130.20140729999912,130.20140729999912,130.20140729999912,130.20140729999912,130.20140729999912,130.20140729999912,130.20140729999912,130.20140729999912,,009,P010,2025_Feb_01_1609,ConditionRich,2021.2.3,59.94305409851847,
102.0,102.75,24,0.75,Stimuli/P010/things_cigar_05n.jpg,0,0,0.0,0,166,166,166,,,,,,,,,,,,,102.00514119999934,0.005141199999343371,None,130.45162549999804,130.45162549999804,130.45162549999804,130.45162549999804,130.45162549999804,130.45162549999804,130.45162549999804,130.45162549999804,130.45162549999804,130.45162549999804,,009,P010,2025_Feb_01_1609,ConditionRich,2021.2.3,59.94305409851847,
102.75,103.0,41,0.0,Stimuli/Blank.png,0,0,0.0,0,167,167,167,,,,,,,,,,,,,102.75645489999806,0.006454899998061592,None,131.2024096999994,131.2024096999994,131.2024096999994,131.2024096999994,131.2024096999994,131.2024096999994,131.2024096999994,131.2024096999994,131.2024096999994,131.2024096999994,,009,P010,2025_Feb_01_1609,ConditionRich,2021.2.3,59.94305409851847,
103.0,103.75,24,0.75,Stimuli/P010/things_cigar_05n.jpg,0,0,0.0,0,168,168,168,,,,,,,,,,,,,103.00883869999961,0.008838699999614619,None,131.46932430000015,131.46932430000015,131.46932430000015,131.46932430000015,131.46932430000015,131.46932430000015,131.46932430000015,131.46932430000015,131.46932430000015,131.46932430000015,,009,P010,2025_Feb_01_1609,ConditionRich,2021.2.3,59.94305409851847,
103.75,104.0,41,0.0,Stimuli/Blank.png,0,0,0.0,0,169,169,169,,,,,,,,,,,,,103.77480669999932,0.02480669999931706,None,132.21987609999996,132.21987609999996,132.21987609999996,132.21987609999996,132.21987609999996,132.21987609999996,132.21987609999996,132.21987609999996,132.21987609999996,132.21987609999996,,009,P010,2025_Feb_01_1609,ConditionRich,2021.2.3,59.94305409851847,
104.0,104.75,9,0.75,Stimuli/P010/sun_bdjkvwqqqycuixtc.jpg,0,0,0.0,0,170,170,170,,,,,,,,,,,,,104.00802549999935,0.00802549999934854,None,132.4700711000005,132.4700711000005,132.4700711000005,132.4700711000005,132.4700711000005,132.4700711000005,132.4700711000005,132.4700711000005,132.4700711000005,132.4700711000005,,009,P010,2025_Feb_01_1609,ConditionRich,2021.2.3,59.94305409851847,
104.75,105.0,41,0.0,Stimuli/Blank.png,0,0,0.0,0,171,171,171,,,,,,,,,,,,,104.77442510000037,0.024425100000371458,None,133.22071890000007,133.22071890000007,133.22071890000007,133.22071890000007,133.22071890000007,133.22071890000007,133.22071890000007,133.22071890000007,133.22071890000007,133.22071890000007,,009,P010,2025_Feb_01_1609,ConditionRich,2021.2.3,59.94305409851847,
105.0,105.75,9,0.75,Stimuli/P010/sun_bdjkvwqqqycuixtc.jpg,0,0,0.0,0,172,172,172,,,,,,,,,,,,,105.00795909999943,0.007959099999425234,None,133.4542597999971,133.4542597999971,133.4542597999971,133.4542597999971,133.4542597999971,133.4542597999971,133.4542597999971,133.4542597999971,133.4542597999971,133.4542597999971,,009,P010,2025_Feb_01_1609,ConditionRich,2021.2.3,59.94305409851847,
105.75,106.0,41,0.0,Stimuli/Blank.png,0,0,0.0,0,173,173,173,,,,,,,,,,,,,105.75849129999915,0.008491299999150215,None,134.2049539999971,134.2049539999971,134.2049539999971,134.2049539999971,134.2049539999971,134.2049539999971,134.2049539999971,134.2049539999971,134.2049539999971,134.2049539999971,,009,P010,2025_Feb_01_1609,ConditionRich,2021.2.3,59.94305409851847,
106.0,106.75,9,0.75,Stimuli/P010/sun_bdjkvwqqqycuixtc.jpg,0,0,0.0,0,174,174,174,,,,,,,,,,,,,106.00920709999991,0.009207099999912316,None,134.47187199999826,134.47187199999826,134.47187199999826,134.47187199999826,134.47187199999826,134.47187199999826,134.47187199999826,134.47187199999826,134.47187199999826,134.47187199999826,,009,P010,2025_Feb_01_1609,ConditionRich,2021.2.3,59.94305409851847,
106.75,107.0,41,0.0,Stimuli/Blank.png,0,0,0.0,0,175,175,175,,,,,,,,,,,,,106.77673439999853,0.026734399998531444,None,135.2225142999996,135.2225142999996,135.2225142999996,135.2225142999996,135.2225142999996,135.2225142999996,135.2225142999996,135.2225142999996,135.2225142999996,135.2225142999996,,009,P010,2025_Feb_01_1609,ConditionRich,2021.2.3,59.94305409851847,
107.0,107.75,9,0.75,Stimuli/P010/sun_bdjkvwqqqycuixtc.jpg,0,0,0.0,0,176,176,176,,,,,,,,,,,,,107.01025939999818,0.010259399998176377,None,135.45604979999916,135.45604979999916,135.45604979999916,135.45604979999916,135.45604979999916,135.45604979999916,135.45604979999916,135.45604979999916,135.45604979999916,135.45604979999916,,009,P010,2025_Feb_01_1609,ConditionRich,2021.2.3,59.94305409851847,
107.75,108.0,41,0.0,Stimuli/Blank.png,0,0,0.0,0,177,177,177,,,,,,,,,,,,,107.76016270000036,0.010162700000364566,None,136.20671759999823,136.20671759999823,136.20671759999823,136.20671759999823,136.20671759999823,136.20671759999823,136.20671759999823,136.20671759999823,136.20671759999823,136.20671759999823,,009,P010,2025_Feb_01_1609,ConditionRich,2021.2.3,59.94305409851847,
108.0,108.75,33,0.75,Stimuli/P010/things_lizard_05n.jpg,0,0,0.0,0,178,178,178,,,,,,,,,,,,,108.0109838999997,0.010983899999700952,None,136.4736505999972,136.4736505999972,136.4736505999972,136.4736505999972,136.4736505999972,136.4736505999972,136.4736505999972,136.4736505999972,136.4736505999972,136.4736505999972,,009,P010,2025_Feb_01_1609,ConditionRich,2021.2.3,59.94305409851847,
108.75,109.0,41,0.0,Stimuli/Blank.png,0,0,0.0,0,179,179,179,,,,,,,,,,,,,108.7785264999984,0.028526499998406507,None,137.22429869999905,137.22429869999905,137.22429869999905,137.22429869999905,137.22429869999905,137.22429869999905,137.22429869999905,137.22429869999905,137.22429869999905,137.22429869999905,,009,P010,2025_Feb_01_1609,ConditionRich,2021.2.3,59.94305409851847,
109.0,109.75,33,0.75,Stimuli/P010/things_lizard_05n.jpg,0,0,0.0,0,180,180,180,,,,,,,,,,,,,109.01399219999803,0.01399219999802881,None,137.47450679999747,137.47450679999747,137.47450679999747,137.47450679999747,137.47450679999747,137.47450679999747,137.47450679999747,137.47450679999747,137.47450679999747,137.47450679999747,,009,P010,2025_Feb_01_1609,ConditionRich,2021.2.3,59.94305409851847,
109.75,110.0,41,0.0,Stimuli/Blank.png,0,0,0.0,0,181,181,181,,,,,,,,,,,,,109.78010440000071,0.030104400000709575,None,138.24185639999996,138.24185639999996,138.24185639999996,138.24185639999996,138.24185639999996,138.24185639999996,138.24185639999996,138.24185639999996,138.24185639999996,138.24185639999996,,009,P010,2025_Feb_01_1609,ConditionRich,2021.2.3,59.94305409851847,
110.0,110.75,33,0.75,Stimuli/P010/things_lizard_05n.jpg,1,0,0.75,0,182,182,182,,,,,,,,,,,,,110.02904819999821,0.02904819999821484,1,138.47538879999775,138.47538879999775,138.47538879999775,138.47538879999775,138.47538879999775,138.47538879999775,138.47538879999775,None,138.47538879999775,138.47538879999775,0.5042652000011003,009,P010,2025_Feb_01_1609,ConditionRich,2021.2.3,59.94305409851847,
110.75,111.0,41,0.0,Stimuli/Blank.png,0,0,0.0,0,183,183,183,,,,,,,,,,,,,110.76457840000148,0.014578400001482805,None,139.20938549999846,139.20938549999846,139.20938549999846,139.20938549999846,139.20938549999846,139.20938549999846,139.20938549999846,139.20938549999846,139.20938549999846,139.20938549999846,,009,P010,2025_Feb_01_1609,ConditionRich,2021.2.3,59.94305409851847,
111.0,111.75,33,0.75,Stimuli/P010/things_lizard_05n.jpg,0,0,0.0,0,184,184,184,,,,,,,,,,,,,111.01374700000088,0.013747000000876142,None,139.47627339999963,139.47627339999963,139.47627339999963,139.47627339999963,139.47627339999963,139.47627339999963,139.47627339999963,139.47627339999963,139.47627339999963,139.47627339999963,,009,P010,2025_Feb_01_1609,ConditionRich,2021.2.3,59.94305409851847,
111.75,112.0,41,0.0,Stimuli/Blank.png,0,0,0.0,0,185,185,185,,,,,,,,,,,,,111.7813470000001,0.03134700000009616,None,140.22694319999937,140.22694319999937,140.22694319999937,140.22694319999937,140.22694319999937,140.22694319999937,140.22694319999937,140.22694319999937,140.22694319999937,140.22694319999937,,009,P010,2025_Feb_01_1609,ConditionRich,2021.2.3,59.94305409851847,
112.0,112.75,14,0.75,Stimuli/P010/sun_blaqxdebghixzyyw.jpg,0,0,0.0,0,186,186,186,,,,,,,,,,,,,112.01453300000139,0.014533000001392793,None,140.46047929999986,140.46047929999986,140.46047929999986,140.46047929999986,140.46047929999986,140.46047929999986,140.46047929999986,140.46047929999986,140.46047929999986,140.46047929999986,,009,P010,2025_Feb_01_1609,ConditionRich,2021.2.3,59.94305409851847,
112.75,113.0,41,0.0,Stimuli/Blank.png,0,0,0.0,0,187,187,187,,,,,,,,,,,,,112.76474199999939,0.01474199999938719,None,141.21114149999994,141.21114149999994,141.21114149999994,141.21114149999994,141.21114149999994,141.21114149999994,141.21114149999994,141.21114149999994,141.21114149999994,141.21114149999994,,009,P010,2025_Feb_01_1609,ConditionRich,2021.2.3,59.94305409851847,
113.0,113.75,14,0.75,Stimuli/P010/sun_blaqxdebghixzyyw.jpg,0,0,0.0,0,188,188,188,,,,,,,,,,,,,113.01487149999957,0.014871499999571824,None,141.4613621999997,141.4613621999997,141.4613621999997,141.4613621999997,141.4613621999997,141.4613621999997,141.4613621999997,141.4613621999997,141.4613621999997,141.4613621999997,,009,P010,2025_Feb_01_1609,ConditionRich,2021.2.3,59.94305409851847,
113.75,114.0,41,0.0,Stimuli/Blank.png,0,0,0.0,0,189,189,189,,,,,,,,,,,,,113.76567010000144,0.015670100001443643,None,142.21203429999878,142.21203429999878,142.21203429999878,142.21203429999878,142.21203429999878,142.21203429999878,142.21203429999878,142.21203429999878,142.21203429999878,142.21203429999878,,009,P010,2025_Feb_01_1609,ConditionRich,2021.2.3,59.94305409851847,
114.0,114.75,14,0.75,Stimuli/P010/sun_blaqxdebghixzyyw.jpg,0,0,0.0,0,190,190,190,,,,,,,,,,,,,114.00061619999906,0.0006161999990581535,None,142.4622202999999,142.4622202999999,142.4622202999999,142.4622202999999,142.4622202999999,142.4622202999999,142.4622202999999,142.4622202999999,142.4622202999999,142.4622202999999,,009,P010,2025_Feb_01_1609,ConditionRich,2021.2.3,59.94305409851847,
114.75,115.0,41,0.0,Stimuli/Blank.png,0,0,0.0,0,191,191,191,,,,,,,,,,,,,114.76924729999882,0.01924729999882402,None,143.2296155999975,143.2296155999975,143.2296155999975,143.2296155999975,143.2296155999975,143.2296155999975,143.2296155999975,143.2296155999975,143.2296155999975,143.2296155999975,,009,P010,2025_Feb_01_1609,ConditionRich,2021.2.3,59.94305409851847,
115.0,115.75,14,0.75,Stimuli/P010/sun_blaqxdebghixzyyw.jpg,0,0,0.0,0,192,192,192,,,,,,,,,,,,,115.01882750000004,0.018827500000043074,None,143.47982149999734,143.47982149999734,143.47982149999734,143.47982149999734,143.47982149999734,143.47982149999734,143.47982149999734,143.47982149999734,143.47982149999734,143.47982149999734,,009,P010,2025_Feb_01_1609,ConditionRich,2021.2.3,59.94305409851847,
115.75,116.0,41,0.0,Stimuli/Blank.png,0,0,0.0,0,193,193,193,,,,,,,,,,,,,115.7702352999986,0.020235299998603296,None,144.23049099999844,144.23049099999844,144.23049099999844,144.23049099999844,144.23049099999844,144.23049099999844,144.23049099999844,144.23049099999844,144.23049099999844,144.23049099999844,,009,P010,2025_Feb_01_1609,ConditionRich,2021.2.3,59.94305409851847,
116.0,116.75,30,0.75,Stimuli/P010/things_fire_05s.jpg,0,0,0.0,0,194,194,194,,,,,,,,,,,,,116.01821560000099,0.018215600000985432,None,144.46401689999766,144.46401689999766,144.46401689999766,144.46401689999766,144.46401689999766,144.46401689999766,144.46401689999766,144.46401689999766,144.46401689999766,144.46401689999766,,009,P010,2025_Feb_01_1609,ConditionRich,2021.2.3,59.94305409851847,
116.75,117.0,41,0.0,Stimuli/Blank.png,0,0,0.0,0,195,195,195,,,,,,,,,,,,,116.7524756999992,0.002475699999195058,None,145.19802799999889,145.19802799999889,145.19802799999889,145.19802799999889,145.19802799999889,145.19802799999889,145.19802799999889,145.19802799999889,145.19802799999889,145.19802799999889,,009,P010,2025_Feb_01_1609,ConditionRich,2021.2.3,59.94305409851847,
117.0,117.75,30,0.75,Stimuli/P010/things_fire_05s.jpg,0,0,0.0,0,196,196,196,,,,,,,,,,,,,117.00399439999819,0.003994399998191511,None,145.46491949999836,145.46491949999836,145.46491949999836,145.46491949999836,145.46491949999836,145.46491949999836,145.46491949999836,145.46491949999836,145.46491949999836,145.46491949999836,,009,P010,2025_Feb_01_1609,ConditionRich,2021.2.3,59.94305409851847,
117.75,118.0,41,0.0,Stimuli/Blank.png,0,0,0.0,0,197,197,197,,,,,,,,,,,,,117.76985449999847,0.01985449999847333,None,146.215569699998,146.215569699998,146.215569699998,146.215569699998,146.215569699998,146.215569699998,146.215569699998,146.215569699998,146.215569699998,146.215569699998,,009,P010,2025_Feb_01_1609,ConditionRich,2021.2.3,59.94305409851847,
118.0,118.75,30,0.75,Stimuli/P010/things_fire_05s.jpg,1,0,0.75,0,198,198,198,,,,,,,,,,,,,118.00355339999805,0.003553399998054374,None,146.46579319999728,146.46579319999728,146.46579319999728,146.46579319999728,146.46579319999728,146.46579319999728,146.46579319999728,147.18310289999863,146.46579319999728,146.46579319999728,,009,P010,2025_Feb_01_1609,ConditionRich,2021.2.3,59.94305409851847,
118.75,119.0,41,0.0,Stimuli/Blank.png,0,0,0.0,0,199,199,199,,,,,,,,,,,,,118.7705950999989,0.02059509999889997,1,147.21645699999863,147.21645699999863,147.21645699999863,147.21645699999863,147.21645699999863,147.21645699999863,147.21645699999863,147.21645699999863,147.21645699999863,147.21645699999863,0.030835300000035204,009,P010,2025_Feb_01_1609,ConditionRich,2021.2.3,59.94305409851847,
119.0,119.75,30,0.75,Stimuli/P010/things_fire_05s.jpg,0,0,0.0,0,200,200,200,,,,,,,,,,,,,119.00529919999826,0.005299199998262338,None,147.46668549999958,147.46668549999958,147.46668549999958,147.46668549999958,147.46668549999958,147.46668549999958,147.46668549999958,147.46668549999958,147.46668549999958,147.46668549999958,,009,P010,2025_Feb_01_1609,ConditionRich,2021.2.3,59.94305409851847,
119.75,120.0,41,0.0,Stimuli/Blank.png,0,0,0.0,0,201,201,201,,,,,,,,,,,,,119.77190300000075,0.021903000000747852,None,148.21741399999883,148.21741399999883,148.21741399999883,148.21741399999883,148.21741399999883,148.21741399999883,148.21741399999883,148.21741399999883,148.21741399999883,148.21741399999883,,009,P010,2025_Feb_01_1609,ConditionRich,2021.2.3,59.94305409851847,
120.0,120.75,26,0.75,Stimuli/P010/things_cookie_sheet_05s.jpg,0,0,0.0,0,202,202,202,,,,,,,,,,,,,120.00518569999986,0.005185699999856297,None,148.4508438999983,148.4508438999983,148.4508438999983,148.4508438999983,148.4508438999983,148.4508438999983,148.4508438999983,148.4508438999983,148.4508438999983,148.4508438999983,,009,P010,2025_Feb_01_1609,ConditionRich,2021.2.3,59.94305409851847,
120.75,121.0,41,0.0,Stimuli/Blank.png,0,0,0.0,0,203,203,203,,,,,,,,,,,,,120.75569950000136,0.005699500001355773,None,149.20155049999812,149.20155049999812,149.20155049999812,149.20155049999812,149.20155049999812,149.20155049999812,149.20155049999812,149.20155049999812,149.20155049999812,149.20155049999812,,009,P010,2025_Feb_01_1609,ConditionRich,2021.2.3,59.94305409851847,
121.0,121.75,26,0.75,Stimuli/P010/things_cookie_sheet_05s.jpg,0,0,0.0,0,204,204,204,,,,,,,,,,,,,121.0060924999998,0.006092499999795109,None,149.45230769999762,149.45230769999762,149.45230769999762,149.45230769999762,149.45230769999762,149.45230769999762,149.45230769999762,149.45230769999762,149.45230769999762,149.45230769999762,,009,P010,2025_Feb_01_1609,ConditionRich,2021.2.3,59.94305409851847,
121.75,122.0,41,0.0,Stimuli/Blank.png,0,0,0.0,0,205,205,205,,,,,,,,,,,,,121.75664719999986,0.006647199999861186,None,150.20242519999738,150.20242519999738,150.20242519999738,150.20242519999738,150.20242519999738,150.20242519999738,150.20242519999738,150.20242519999738,150.20242519999738,150.20242519999738,,009,P010,2025_Feb_01_1609,ConditionRich,2021.2.3,59.94305409851847,
122.0,122.75,26,0.75,Stimuli/P010/things_cookie_sheet_05s.jpg,0,0,0.0,0,206,206,206,,,,,,,,,,,,,122.00615149999794,0.006151499997940846,None,150.45265830000062,150.45265830000062,150.45265830000062,150.45265830000062,150.45265830000062,150.45265830000062,150.45265830000062,150.45265830000062,150.45265830000062,150.45265830000062,,009,P010,2025_Feb_01_1609,ConditionRich,2021.2.3,59.94305409851847,
122.75,123.0,41,0.0,Stimuli/Blank.png,0,0,0.0,0,207,207,207,,,,,,,,,,,,,122.75890589999835,0.008905899998353561,None,151.2200011999994,151.2200011999994,151.2200011999994,151.2200011999994,151.2200011999994,151.2200011999994,151.2200011999994,151.2200011999994,151.2200011999994,151.2200011999994,,009,P010,2025_Feb_01_1609,ConditionRich,2021.2.3,59.94305409851847,
123.0,123.75,26,0.75,Stimuli/P010/things_cookie_sheet_05s.jpg,0,0,0.0,0,208,208,208,,,,,,,,,,,,,123.02445850000004,0.02445850000003702,None,151.47023129999798,151.47023129999798,151.47023129999798,151.47023129999798,151.47023129999798,151.47023129999798,151.47023129999798,151.47023129999798,151.47023129999798,151.47023129999798,,009,P010,2025_Feb_01_1609,ConditionRich,2021.2.3,59.94305409851847,
123.75,124.0,41,0.0,Stimuli/Blank.png,0,0,0.0,0,209,209,209,,,,,,,,,,,,,123.75941260000036,0.009412600000359816,None,152.20421899999928,152.20421899999928,152.20421899999928,152.20421899999928,152.20421899999928,152.20421899999928,152.20421899999928,152.20421899999928,152.20421899999928,152.20421899999928,,009,P010,2025_Feb_01_1609,ConditionRich,2021.2.3,59.94305409851847,
124.0,124.75,23,0.75,Stimuli/P010/things_charger_05s.jpg,0,0,0.0,0,210,210,210,,,,,,,,,,,,,124.00790000000052,0.007900000000518048,None,152.45442080000066,152.45442080000066,152.45442080000066,152.45442080000066,152.45442080000066,152.45442080000066,152.45442080000066,152.45442080000066,152.45442080000066,152.45442080000066,,009,P010,2025_Feb_01_1609,ConditionRich,2021.2.3,59.94305409851847,
124.75,125.0,41,0.0,Stimuli/Blank.png,0,0,0.0,0,211,211,211,,,,,,,,,,,,,124.75967839999794,0.009678399997937959,None,153.20509879999736,153.20509879999736,153.20509879999736,153.20509879999736,153.20509879999736,153.20509879999736,153.20509879999736,153.20509879999736,153.20509879999736,153.20509879999736,,009,P010,2025_Feb_01_1609,ConditionRich,2021.2.3,59.94305409851847,
125.0,125.75,23,0.75,Stimuli/P010/things_charger_05s.jpg,0,0,0.0,0,212,212,212,,,,,,,,,,,,,125.00943850000112,0.00943850000112434,None,153.47200599999996,153.47200599999996,153.47200599999996,153.47200599999996,153.47200599999996,153.47200599999996,153.47200599999996,153.47200599999996,153.47200599999996,153.47200599999996,,009,P010,2025_Feb_01_1609,ConditionRich,2021.2.3,59.94305409851847,
125.75,126.0,41,0.0,Stimuli/Blank.png,0,0,0.0,0,213,213,213,,,,,,,,,,,,,125.77888410000014,0.02888410000014119,None,154.23934709999958,154.23934709999958,154.23934709999958,154.23934709999958,154.23934709999958,154.23934709999958,154.23934709999958,154.23934709999958,154.23934709999958,154.23934709999958,,009,P010,2025_Feb_01_1609,ConditionRich,2021.2.3,59.94305409851847,
126.0,126.75,23,0.75,Stimuli/P010/things_charger_05s.jpg,0,0,0.0,0,214,214,214,,,,,,,,,,,,,126.02651139999944,0.026511399999435525,None,154.4729155999994,154.4729155999994,154.4729155999994,154.4729155999994,154.4729155999994,154.4729155999994,154.4729155999994,154.4729155999994,154.4729155999994,154.4729155999994,,009,P010,2025_Feb_01_1609,ConditionRich,2021.2.3,59.94305409851847,
126.75,127.0,41,0.0,Stimuli/Blank.png,0,0,0.0,0,215,215,215,,,,,,,,,,,,,126.76038889999836,0.010388899998361012,None,155.20685500000036,155.20685500000036,155.20685500000036,155.20685500000036,155.20685500000036,155.20685500000036,155.20685500000036,155.20685500000036,155.20685500000036,155.20685500000036,,009,P010,2025_Feb_01_1609,ConditionRich,2021.2.3,59.94305409851847,
127.0,127.75,23,0.75,Stimuli/P010/things_charger_05s.jpg,0,0,0.0,0,216,216,216,,,,,,,,,,,,,127.01071030000094,0.010710300000937423,None,155.45707539999785,155.45707539999785,155.45707539999785,155.45707539999785,155.45707539999785,155.45707539999785,155.45707539999785,155.45707539999785,155.45707539999785,155.45707539999785,,009,P010,2025_Feb_01_1609,ConditionRich,2021.2.3,59.94305409851847,
127.75,128.0,41,0.0,Stimuli/Blank.png,0,0,0.0,0,217,217,217,,,,,,,,,,,,,127.76281200000085,0.012812000000849366,None,156.20775589999903,156.20775589999903,156.20775589999903,156.20775589999903,156.20775589999903,156.20775589999903,156.20775589999903,156.20775589999903,156.20775589999903,156.20775589999903,,009,P010,2025_Feb_01_1609,ConditionRich,2021.2.3,59.94305409851847,
128.0,128.75,20,0.75,Stimuli/P010/sun_ddsiwinthvyejghq.jpg,0,0,0.0,0,218,218,218,,,,,,,,,,,,,128.01146789999984,0.011467899999843212,None,156.47465269999884,156.47465269999884,156.47465269999884,156.47465269999884,156.47465269999884,156.47465269999884,156.47465269999884,156.47465269999884,156.47465269999884,156.47465269999884,,009,P010,2025_Feb_01_1609,ConditionRich,2021.2.3,59.94305409851847,
128.75,129.0,41,0.0,Stimuli/Blank.png,0,0,0.0,0,219,219,219,,,,,,,,,,,,,128.7795455000014,0.029545500001404434,None,157.2253153999991,157.2253153999991,157.2253153999991,157.2253153999991,157.2253153999991,157.2253153999991,157.2253153999991,157.2253153999991,157.2253153999991,157.2253153999991,,009,P010,2025_Feb_01_1609,ConditionRich,2021.2.3,59.94305409851847,
129.0,129.75,20,0.75,Stimuli/P010/sun_ddsiwinthvyejghq.jpg,0,0,0.0,0,220,220,220,,,,,,,,,,,,,129.01446450000003,0.014464500000030966,None,157.4755409999998,157.4755409999998,157.4755409999998,157.4755409999998,157.4755409999998,157.4755409999998,157.4755409999998,157.4755409999998,157.4755409999998,157.4755409999998,,009,P010,2025_Feb_01_1609,ConditionRich,2021.2.3,59.94305409851847,
129.75,130.0,41,0.0,Stimuli/Blank.png,0,0,0.0,0,221,221,221,,,,,,,,,,,,,129.78031470000133,0.030314700001326855,None,158.22616919999928,158.22616919999928,158.22616919999928,158.22616919999928,158.22616919999928,158.22616919999928,158.22616919999928,158.22616919999928,158.22616919999928,158.22616919999928,,009,P010,2025_Feb_01_1609,ConditionRich,2021.2.3,59.94305409851847,
130.0,130.75,20,0.75,Stimuli/P010/sun_ddsiwinthvyejghq.jpg,0,0,0.0,0,222,222,222,,,,,,,,,,,,,130.01489890000084,0.01489890000084415,None,158.47640879999744,158.47640879999744,158.47640879999744,158.47640879999744,158.47640879999744,158.47640879999744,158.47640879999744,158.47640879999744,158.47640879999744,158.47640879999744,,009,P010,2025_Feb_01_1609,ConditionRich,2021.2.3,59.94305409851847,
130.75,131.0,41,0.0,Stimuli/Blank.png,0,0,0.0,0,223,223,223,,,,,,,,,,,,,130.78068239999993,0.030682399999932386,None,159.22708330000023,159.22708330000023,159.22708330000023,159.22708330000023,159.22708330000023,159.22708330000023,159.22708330000023,159.22708330000023,159.22708330000023,159.22708330000023,,009,P010,2025_Feb_01_1609,ConditionRich,2021.2.3,59.94305409851847,
131.0,131.75,20,0.75,Stimuli/P010/sun_ddsiwinthvyejghq.jpg,0,0,0.0,0,224,224,224,,,,,,,,,,,,,131.0147934000015,0.014793400001508417,None,159.46058959999937,159.46058959999937,159.46058959999937,159.46058959999937,159.46058959999937,159.46058959999937,159.46058959999937,159.46058959999937,159.46058959999937,159.46058959999937,,009,P010,2025_Feb_01_1609,ConditionRich,2021.2.3,59.94305409851847,
131.75,132.0,41,0.0,Stimuli/Blank.png,0,0,0.0,0,225,225,225,,,,,,,,,,,,,131.76623629999813,0.016236299998126924,None,160.2280006999972,160.2280006999972,160.2280006999972,160.2280006999972,160.2280006999972,160.2280006999972,160.2280006999972,160.2280006999972,160.2280006999972,160.2280006999972,,009,P010,2025_Feb_01_1609,ConditionRich,2021.2.3,59.94305409851847,
132.0,132.75,7,0.75,Stimuli/P010/sun_apiogxmvvzfmtsmj.jpg,0,0,0.0,0,226,226,226,,,,,,,,,,,,,132.01513010000053,0.015130100000533275,None,160.46150439999838,160.46150439999838,160.46150439999838,160.46150439999838,160.46150439999838,160.46150439999838,160.46150439999838,160.46150439999838,160.46150439999838,160.46150439999838,,009,P010,2025_Feb_01_1609,ConditionRich,2021.2.3,59.94305409851847,
132.75,133.0,41,0.0,Stimuli/Blank.png,0,0,0.0,0,227,227,227,,,,,,,,,,,,,132.74960880000071,-0.00039119999928516336,None,161.19549449999977,161.19549449999977,161.19549449999977,161.19549449999977,161.19549449999977,161.19549449999977,161.19549449999977,161.19549449999977,161.19549449999977,161.19549449999977,,009,P010,2025_Feb_01_1609,ConditionRich,2021.2.3,59.94305409851847,
133.0,133.75,7,0.75,Stimuli/P010/sun_apiogxmvvzfmtsmj.jpg,0,0,0.0,0,228,228,228,,,,,,,,,,,,,132.99928640000144,-0.0007135999985621311,None,161.44572259999768,161.44572259999768,161.44572259999768,161.44572259999768,161.44572259999768,161.44572259999768,161.44572259999768,161.44572259999768,161.44572259999768,161.44572259999768,,009,P010,2025_Feb_01_1609,ConditionRich,2021.2.3,59.94305409851847,
133.75,134.0,41,0.0,Stimuli/Blank.png,0,0,0.0,0,229,229,229,,,,,,,,,,,,,133.75083660000018,0.0008366000001842622,None,162.19637839999996,162.19637839999996,162.19637839999996,162.19637839999996,162.19637839999996,162.19637839999996,162.19637839999996,162.19637839999996,162.19637839999996,162.19637839999996,,009,P010,2025_Feb_01_1609,ConditionRich,2021.2.3,59.94305409851847,
134.0,134.75,7,0.75,Stimuli/P010/sun_apiogxmvvzfmtsmj.jpg,0,0,0.0,0,230,230,230,,,,,,,,,,,,,134.0006848999983,0.0006848999983048998,None,162.4465786999972,162.4465786999972,162.4465786999972,162.4465786999972,162.4465786999972,162.4465786999972,162.4465786999972,162.4465786999972,162.4465786999972,162.4465786999972,,009,P010,2025_Feb_01_1609,ConditionRich,2021.2.3,59.94305409851847,
134.75,135.0,41,0.0,Stimuli/Blank.png,0,0,0.0,0,231,231,231,,,,,,,,,,,,,134.75234460000138,0.002344600001379149,None,163.1972715999982,163.1972715999982,163.1972715999982,163.1972715999982,163.1972715999982,163.1972715999982,163.1972715999982,163.1972715999982,163.1972715999982,163.1972715999982,,009,P010,2025_Feb_01_1609,ConditionRich,2021.2.3,59.94305409851847,
135.0,135.75,7,0.75,Stimuli/P010/sun_apiogxmvvzfmtsmj.jpg,0,0,0.0,0,232,232,232,,,,,,,,,,,,,135.00389219999852,0.0038921999985177536,None,163.46416820000013,163.46416820000013,163.46416820000013,163.46416820000013,163.46416820000013,163.46416820000013,163.46416820000013,163.46416820000013,163.46416820000013,163.46416820000013,,009,P010,2025_Feb_01_1609,ConditionRich,2021.2.3,59.94305409851847,
135.75,136.0,41,0.0,Stimuli/Blank.png,0,0,0.0,0,233,233,233,,,,,,,,,,,,,135.7692122999979,0.019212299997889204,None,164.21482509999987,164.21482509999987,164.21482509999987,164.21482509999987,164.21482509999987,164.21482509999987,164.21482509999987,164.21482509999987,164.21482509999987,164.21482509999987,,009,P010,2025_Feb_01_1609,ConditionRich,2021.2.3,59.94305409851847,
136.0,136.75,21,0.75,Stimuli/P010/things_boy_05s.jpg,0,0,0.0,0,234,234,234,,,,,,,,,,,,,136.0043407000012,0.004340700001193909,None,164.46504189999905,164.46504189999905,164.46504189999905,164.46504189999905,164.46504189999905,164.46504189999905,164.46504189999905,164.46504189999905,164.46504189999905,164.46504189999905,,009,P010,2025_Feb_01_1609,ConditionRich,2021.2.3,59.94305409851847,
136.75,137.0,41,0.0,Stimuli/Blank.png,0,0,0.0,0,235,235,235,,,,,,,,,,,,,136.76984150000135,0.019841500001348322,None,165.21569079999972,165.21569079999972,165.21569079999972,165.21569079999972,165.21569079999972,165.21569079999972,165.21569079999972,165.21569079999972,165.21569079999972,165.21569079999972,,009,P010,2025_Feb_01_1609,ConditionRich,2021.2.3,59.94305409851847,
137.0,137.75,21,0.75,Stimuli/P010/things_boy_05s.jpg,0,0,0.0,0,236,236,236,,,,,,,,,,,,,137.00282140000127,0.0028214000012667384,None,165.44925539999895,165.44925539999895,165.44925539999895,165.44925539999895,165.44925539999895,165.44925539999895,165.44925539999895,165.44925539999895,165.44925539999895,165.44925539999895,,009,P010,2025_Feb_01_1609,ConditionRich,2021.2.3,59.94305409851847,
137.75,138.0,41,0.0,Stimuli/Blank.png,0,0,0.0,0,237,237,237,,,,,,,,,,,,,137.75353170000017,0.003531700000166893,None,166.19991369999843,166.19991369999843,166.19991369999843,166.19991369999843,166.19991369999843,166.19991369999843,166.19991369999843,166.19991369999843,166.19991369999843,166.19991369999843,,009,P010,2025_Feb_01_1609,ConditionRich,2021.2.3,59.94305409851847,
138.0,138.75,21,0.75,Stimuli/P010/things_boy_05s.jpg,1,0,0.75,0,238,238,238,,,,,,,,,,,,,138.00481529999888,0.004815299998881528,1,166.46681569999782,166.46681569999782,166.46681569999782,166.46681569999782,166.46681569999782,166.46681569999782,166.46681569999782,167.1841177999995,166.46681569999782,166.46681569999782,0.4626462999985961,009,P010,2025_Feb_01_1609,ConditionRich,2021.2.3,59.94305409851847,
138.75,139.0,41,0.0,Stimuli/Blank.png,0,0,0.0,0,239,239,239,,,,,,,,,,,,,138.7711606999983,0.02116069999829051,None,167.21748979999757,167.21748979999757,167.21748979999757,167.21748979999757,167.21748979999757,167.21748979999757,167.21748979999757,167.21748979999757,167.21748979999757,167.21748979999757,,009,P010,2025_Feb_01_1609,ConditionRich,2021.2.3,59.94305409851847,
139.0,139.75,21,0.75,Stimuli/P010/things_boy_05s.jpg,0,0,0.0,0,240,240,240,,,,,,,,,,,,,139.00448139999935,0.004481399999349378,None,167.4511547999973,167.4511547999973,167.4511547999973,167.4511547999973,167.4511547999973,167.4511547999973,167.4511547999973,167.4511547999973,167.4511547999973,167.4511547999973,,009,P010,2025_Feb_01_1609,ConditionRich,2021.2.3,59.94305409851847,
139.75,140.0,41,0.0,Stimuli/Blank.png,0,0,0.0,0,241,241,241,,,,,,,,,,,,,139.7557439000011,0.005743900001107249,None,168.20168489999924,168.20168489999924,168.20168489999924,168.20168489999924,168.20168489999924,168.20168489999924,168.20168489999924,168.20168489999924,168.20168489999924,168.20168489999924,,009,P010,2025_Feb_01_1609,ConditionRich,2021.2.3,59.94305409851847,
140.0,140.75,34,0.75,Stimuli/P010/things_man_05s.jpg,0,0,0.0,0,242,242,242,,,,,,,,,,,,,140.0062269000009,0.006226900000910973,None,168.45188489999782,168.45188489999782,168.45188489999782,168.45188489999782,168.45188489999782,168.45188489999782,168.45188489999782,168.45188489999782,168.45188489999782,168.45188489999782,,009,P010,2025_Feb_01_1609,ConditionRich,2021.2.3,59.94305409851847,
140.75,141.0,41,0.0,Stimuli/Blank.png,0,0,0.0,0,243,243,243,,,,,,,,,,,,,140.75675910000064,0.006759100000635954,None,169.20257089999723,169.20257089999723,169.20257089999723,169.20257089999723,169.20257089999723,169.20257089999723,169.20257089999723,169.20257089999723,169.20257089999723,169.20257089999723,,009,P010,2025_Feb_01_1609,ConditionRich,2021.2.3,59.94305409851847,
141.0,141.75,34,0.75,Stimuli/P010/things_man_05s.jpg,0,0,0.0,0,244,244,244,,,,,,,,,,,,,141.00777359999847,0.007773599998472491,None,169.469484199999,169.469484199999,169.469484199999,169.469484199999,169.469484199999,169.469484199999,169.469484199999,169.469484199999,169.469484199999,169.469484199999,,009,P010,2025_Feb_01_1609,ConditionRich,2021.2.3,59.94305409851847,
141.75,142.0,41,0.0,Stimuli/Blank.png,0,0,0.0,0,245,245,245,,,,,,,,,,,,,141.77469589999964,0.02469589999964228,None,170.2201325999995,170.2201325999995,170.2201325999995,170.2201325999995,170.2201325999995,170.2201325999995,170.2201325999995,170.2201325999995,170.2201325999995,170.2201325999995,,009,P010,2025_Feb_01_1609,ConditionRich,2021.2.3,59.94305409851847,
142.0,142.75,34,0.75,Stimuli/P010/things_man_05s.jpg,0,0,0.0,0,246,246,246,,,,,,,,,,,,,142.00933879999866,0.009338799998658942,None,170.47042239999791,170.47042239999791,170.47042239999791,170.47042239999791,170.47042239999791,170.47042239999791,170.47042239999791,170.47042239999791,170.47042239999791,170.47042239999791,,009,P010,2025_Feb_01_1609,ConditionRich,2021.2.3,59.94305409851847,
142.75,143.0,41,0.0,Stimuli/Blank.png,0,0,0.0,0,247,247,247,,,,,,,,,,,,,142.77462979999837,0.024629799998365343,None,171.2210219999979,171.2210219999979,171.2210219999979,171.2210219999979,171.2210219999979,171.2210219999979,171.2210219999979,171.2210219999979,171.2210219999979,171.2210219999979,,009,P010,2025_Feb_01_1609,ConditionRich,2021.2.3,59.94305409851847,
143.0,143.75,34,0.75,Stimuli/P010/things_man_05s.jpg,1,0,0.75,0,248,248,248,,,,,,,,,,,,,143.0088661000009,0.008866100000886945,1,171.47126569999818,171.47126569999818,171.47126569999818,171.47126569999818,171.47126569999818,171.47126569999818,171.47126569999818,172.18854210000063,171.47126569999818,171.47126569999818,0.4442639999979292,009,P010,2025_Feb_01_1609,ConditionRich,2021.2.3,59.94305409851847,
143.75,144.0,41,0.0,Stimuli/Blank.png,0,0,0.0,0,249,249,249,,,,,,,,,,,,,143.77558620000127,0.02558620000127121,None,172.22190339999725,172.22190339999725,172.22190339999725,172.22190339999725,172.22190339999725,172.22190339999725,172.22190339999725,172.22190339999725,172.22190339999725,172.22190339999725,,009,P010,2025_Feb_01_1609,ConditionRich,2021.2.3,59.94305409851847,
144.0,144.75,32,0.75,Stimuli/P010/things_hawk_05s.jpg,0,0,0.0,0,250,250,250,,,,,,,,,,,,,144.00939120000112,0.009391200001118705,None,172.45544560000053,172.45544560000053,172.45544560000053,172.45544560000053,172.45544560000053,172.45544560000053,172.45544560000053,172.45544560000053,172.45544560000053,172.45544560000053,,009,P010,2025_Feb_01_1609,ConditionRich,2021.2.3,59.94305409851847,
144.75,145.0,41,0.0,Stimuli/Blank.png,0,0,0.0,0,251,251,251,,,,,,,,,,,,,144.7604586999987,0.010458699998707743,None,173.2061090999996,173.2061090999996,173.2061090999996,173.2061090999996,173.2061090999996,173.2061090999996,173.2061090999996,173.2061090999996,173.2061090999996,173.2061090999996,,009,P010,2025_Feb_01_1609,ConditionRich,2021.2.3,59.94305409851847,
145.0,145.75,32,0.75,Stimuli/P010/things_hawk_05s.jpg,0,0,0.0,0,252,252,252,,,,,,,,,,,,,145.00991710000017,0.009917100000166101,None,173.4563410999981,173.4563410999981,173.4563410999981,173.4563410999981,173.4563410999981,173.4563410999981,173.4563410999981,173.4563410999981,173.4563410999981,173.4563410999981,,009,P010,2025_Feb_01_1609,ConditionRich,2021.2.3,59.94305409851847,
145.75,146.0,41,0.0,Stimuli/Blank.png,0,0,0.0,0,253,253,253,,,,,,,,,,,,,145.76102099999844,0.01102099999843631,None,174.20700170000055,174.20700170000055,174.20700170000055,174.20700170000055,174.20700170000055,174.20700170000055,174.20700170000055,174.20700170000055,174.20700170000055,174.20700170000055,,009,P010,2025_Feb_01_1609,ConditionRich,2021.2.3,59.94305409851847,
146.0,146.75,32,0.75,Stimuli/P010/things_hawk_05s.jpg,0,0,0.0,0,254,254,254,,,,,,,,,,,,,146.01084790000095,0.010847900000953814,None,174.45722319999913,174.45722319999913,174.45722319999913,174.45722319999913,174.45722319999913,174.45722319999913,174.45722319999913,174.45722319999913,174.45722319999913,174.45722319999913,,009,P010,2025_Feb_01_1609,ConditionRich,2021.2.3,59.94305409851847,
146.75,147.0,41,0.0,Stimuli/Blank.png,0,0,0.0,0,255,255,255,,,,,,,,,,,,,146.76238749999902,0.012387499999022111,None,175.20790269999998,175.20790269999998,175.20790269999998,175.20790269999998,175.20790269999998,175.20790269999998,175.20790269999998,175.20790269999998,175.20790269999998,175.20790269999998,,009,P010,2025_Feb_01_1609,ConditionRich,2021.2.3,59.94305409851847,
147.0,147.75,32,0.75,Stimuli/P010/things_hawk_05s.jpg,0,0,0.0,0,256,256,256,,,,,,,,,,,,,147.0123762000003,0.012376200000289828,None,175.45811319999848,175.45811319999848,175.45811319999848,175.45811319999848,175.45811319999848,175.45811319999848,175.45811319999848,175.45811319999848,175.45811319999848,175.45811319999848,,009,P010,2025_Feb_01_1609,ConditionRich,2021.2.3,59.94305409851847,
147.75,148.0,41,0.0,Stimuli/Blank.png,0,0,0.0,0,257,257,257,,,,,,,,,,,,,147.76439949999985,0.014399499999854015,None,176.22546180000063,176.22546180000063,176.22546180000063,176.22546180000063,176.22546180000063,176.22546180000063,176.22546180000063,176.22546180000063,176.22546180000063,176.22546180000063,,009,P010,2025_Feb_01_1609,ConditionRich,2021.2.3,59.94305409851847,
148.0,148.75,5,0.75,Stimuli/P010/sun_akqvdmuauoxeafrj.jpg,0,0,0.0,0,258,258,258,,,,,,,,,,,,,148.03047510000033,0.030475100000330713,None,176.49237169999833,176.49237169999833,176.49237169999833,176.49237169999833,176.49237169999833,176.49237169999833,176.49237169999833,176.49237169999833,176.49237169999833,176.49237169999833,,009,P010,2025_Feb_01_1609,ConditionRich,2021.2.3,59.94305409851847,
148.75,149.0,41,0.0,Stimuli/Blank.png,0,0,0.0,0,259,259,259,,,,,,,,,,,,,148.78045909999855,0.03045909999855212,None,177.2263368999993,177.2263368999993,177.2263368999993,177.2263368999993,177.2263368999993,177.2263368999993,177.2263368999993,177.2263368999993,177.2263368999993,177.2263368999993,,009,P010,2025_Feb_01_1609,ConditionRich,2021.2.3,59.94305409851847,
149.0,149.75,5,0.75,Stimuli/P010/sun_akqvdmuauoxeafrj.jpg,0,0,0.0,0,260,260,260,,,,,,,,,,,,,149.0133911999983,0.013391199998295633,None,177.45987539999987,177.45987539999987,177.45987539999987,177.45987539999987,177.45987539999987,177.45987539999987,177.45987539999987,177.45987539999987,177.45987539999987,177.45987539999987,,009,P010,2025_Feb_01_1609,ConditionRich,2021.2.3,59.94305409851847,
149.75,150.0,41,0.0,Stimuli/Blank.png,0,0,0.0,0,261,261,261,,,,,,,,,,,,,149.76541899999938,0.015418999999383232,None,178.21056509999835,178.21056509999835,178.21056509999835,178.21056509999835,178.21056509999835,178.21056509999835,178.21056509999835,178.21056509999835,178.21056509999835,178.21056509999835,,009,P010,2025_Feb_01_1609,ConditionRich,2021.2.3,59.94305409851847,
