eventStartTime,eventEndTime,eventCond,imSize,imFile,responseEvent,fixRespStart,fixRespEnd,Events.thisRepN,Events.thisTrialN,Events.thisN,Events.thisIndex,Instructions.started,Instructions.stopped,participantReadyResponse.keys,participantReadyResponse.rt,participantReadyResponse.started,participantReadyResponse.stopped,startWaitforTrigger,triggerResponse.keys,triggerResponse.rt,triggerResponse.started,triggerResponse.stopped,globalTimer,actualStartTime,startTimingDiff,participantResponse.keys,participantResponse.started,participantResponse.stopped,image.started,image.stopped,fixationOutside.started,fixationOutside.stopped,fixationResponse.started,fixationResponse.stopped,fixationInside.started,fixationInside.stopped,participantResponse.rt,session,participant,date,expName,psychopyVersion,frameRate,
,,,,,,,,,,,,12.152505699999892,None,1,3.16074000000026,12.152505699999892,None,,,,,,,,,,,,,,,,,,,,,006,P011,2025_Feb_08_1035,ConditionRich,2021.2.3,59.91608153619294,
,,,,,,,,,,,,,,,,,,15.32031569999981,5,15.27147479999985,15.333727399999589,None,,,,,,,,,,,,,,,,006,P011,2025_Feb_08_1035,ConditionRich,2021.2.3,59.91608153619294,
0.0,4.0,0,0.0,Stimuli/Blank.png,0,0,0.0,0,0,0,0,,,,,,,,,,,,30.617673699999614,0.016964200000074925,0.016964200000074925,None,30.64719729999979,None,30.64719729999979,None,30.64719729999979,None,30.64719729999979,30.64719729999979,30.64719729999979,None,,006,P011,2025_Feb_08_1035,ConditionRich,2021.2.3,59.91608153619294,
4.0,7.75,33,0.75,Stimuli/P011/things_hot-air_balloon_06s.jpg,1,2,2.75,0,1,1,1,,,,,,,,,,,,,4.002975700000206,0.002975700000206416,1,34.651103399999556,34.651103399999556,34.651103399999556,34.651103399999556,34.651103399999556,34.651103399999556,36.6191816999999,37.3697960999998,34.651103399999556,34.651103399999556,2.397112799999377,006,P011,2025_Feb_08_1035,ConditionRich,2021.2.3,59.91608153619294,
7.75,8.0,41,0.0,Stimuli/Blank.png,0,0,0.0,0,2,2,2,,,,,,,,,,,,,7.772590200000195,0.022590200000195182,None,38.40436359999967,38.40436359999967,38.40436359999967,38.40436359999967,38.40436359999967,38.40436359999967,38.40436359999967,38.40436359999967,38.40436359999967,38.40436359999967,,006,P011,2025_Feb_08_1035,ConditionRich,2021.2.3,59.91608153619294,
8.0,11.75,20,0.75,Stimuli/P011/sun_ciifteeudwpxupnw.jpg,0,0,0.0,0,3,3,3,,,,,,,,,,,,,8.005301000000145,0.005301000000144995,None,38.637595399999555,38.637595399999555,38.637595399999555,38.637595399999555,38.637595399999555,38.637595399999555,38.637595399999555,38.637595399999555,38.637595399999555,38.637595399999555,,006,P011,2025_Feb_08_1035,ConditionRich,2021.2.3,59.91608153619294,
11.75,12.0,41,0.0,Stimuli/Blank.png,0,0,0.0,0,4,4,4,,,,,,,,,,,,,11.75868570000057,0.00868570000056934,None,42.39093270000012,42.39093270000012,42.39093270000012,42.39093270000012,42.39093270000012,42.39093270000012,42.39093270000012,42.39093270000012,42.39093270000012,42.39093270000012,,006,P011,2025_Feb_08_1035,ConditionRich,2021.2.3,59.91608153619294,
12.0,15.75,3,0.75,Stimuli/P011/sun_afdaynbvsppiyvxm.jpg,0,0,0.0,0,5,5,5,,,,,,,,,,,,,12.009398400000464,0.00939840000046388,None,42.64123329999984,42.64123329999984,42.64123329999984,42.64123329999984,42.64123329999984,42.64123329999984,42.64123329999984,42.64123329999984,42.64123329999984,42.64123329999984,,006,P011,2025_Feb_08_1035,ConditionRich,2021.2.3,59.91608153619294,
15.75,16.0,41,0.0,Stimuli/Blank.png,0,0,0.0,0,6,6,6,,,,,,,,,,,,,15.762749200000144,0.012749200000143901,None,46.39445369999976,46.39445369999976,46.39445369999976,46.39445369999976,46.39445369999976,46.39445369999976,46.39445369999976,46.39445369999976,46.39445369999976,46.39445369999976,,006,P011,2025_Feb_08_1035,ConditionRich,2021.2.3,59.91608153619294,
16.0,19.75,12,0.75,Stimuli/P011/sun_bcesifdfuidnkdhl.jpg,0,0,0.0,0,7,7,7,,,,,,,,,,,,,16.012405700000272,0.01240570000027219,None,46.644680600000356,46.644680600000356,46.644680600000356,46.644680600000356,46.644680600000356,46.644680600000356,46.644680600000356,46.644680600000356,46.644680600000356,46.644680600000356,,006,P011,2025_Feb_08_1035,ConditionRich,2021.2.3,59.91608153619294,
19.75,20.0,41,0.0,Stimuli/Blank.png,0,0,0.0,0,8,8,8,,,,,,,,,,,,,19.75120229999993,0.0012022999999317108,None,50.3980260999997,50.3980260999997,50.3980260999997,50.3980260999997,50.3980260999997,50.3980260999997,50.3980260999997,50.3980260999997,50.3980260999997,50.3980260999997,,006,P011,2025_Feb_08_1035,ConditionRich,2021.2.3,59.91608153619294,
20.0,23.75,1,0.75,Stimuli/P011/sun_aeakbqnvptdnxtno.jpg,0,0,0.0,0,9,9,9,,,,,,,,,,,,,20.017056100000445,0.01705610000044544,None,50.6482175000001,50.6482175000001,50.6482175000001,50.6482175000001,50.6482175000001,50.6482175000001,50.6482175000001,50.6482175000001,50.6482175000001,50.6482175000001,,006,P011,2025_Feb_08_1035,ConditionRich,2021.2.3,59.91608153619294,
23.75,24.0,41,0.0,Stimuli/Blank.png,0,0,0.0,0,10,10,10,,,,,,,,,,,,,23.752836200000274,0.0028362000002744026,None,54.384860500000286,54.384860500000286,54.384860500000286,54.384860500000286,54.384860500000286,54.384860500000286,54.384860500000286,54.384860500000286,54.384860500000286,54.384860500000286,,006,P011,2025_Feb_08_1035,ConditionRich,2021.2.3,59.91608153619294,
24.0,27.75,10,0.75,Stimuli/P011/sun_awufkrkrdrdbvvis.jpg,0,0,0.0,0,11,11,11,,,,,,,,,,,,,24.0027798000001,0.0027798000000984757,None,54.63507229999959,54.63507229999959,54.63507229999959,54.63507229999959,54.63507229999959,54.63507229999959,54.63507229999959,54.63507229999959,54.63507229999959,54.63507229999959,,006,P011,2025_Feb_08_1035,ConditionRich,2021.2.3,59.91608153619294,
27.75,28.0,41,0.0,Stimuli/Blank.png,0,0,0.0,0,12,12,12,,,,,,,,,,,,,27.757266000000527,0.007266000000527129,None,58.388405099999545,58.388405099999545,58.388405099999545,58.388405099999545,58.388405099999545,58.388405099999545,58.388405099999545,58.388405099999545,58.388405099999545,58.388405099999545,,006,P011,2025_Feb_08_1035,ConditionRich,2021.2.3,59.91608153619294,
28.0,31.75,8,0.75,Stimuli/P011/sun_asppejhsplpizvag.jpg,1,1,1.75,0,13,13,13,,,,,,,,,,,,,28.006969600000048,0.006969600000047649,1,58.638612900000226,58.638612900000226,58.638612900000226,58.638612900000226,58.638612900000226,58.638612900000226,59.62282619999951,60.37348819999988,58.638612900000226,58.638612900000226,1.971624900000279,006,P011,2025_Feb_08_1035,ConditionRich,2021.2.3,59.91608153619294,
31.75,32.0,41,0.0,Stimuli/Blank.png,0,0,0.0,0,14,14,14,,,,,,,,,,,,,31.760502900000574,0.0105029000005743,None,62.391945000000305,62.391945000000305,62.391945000000305,62.391945000000305,62.391945000000305,62.391945000000305,62.391945000000305,62.391945000000305,62.391945000000305,62.391945000000305,,006,P011,2025_Feb_08_1035,ConditionRich,2021.2.3,59.91608153619294,
32.0,35.75,22,0.75,Stimuli/P011/things_boy_06s.jpg,0,0,0.0,0,15,15,15,,,,,,,,,,,,,32.010332000000744,0.010332000000744301,None,62.64215890000014,62.64215890000014,62.64215890000014,62.64215890000014,62.64215890000014,62.64215890000014,62.64215890000014,62.64215890000014,62.64215890000014,62.64215890000014,,006,P011,2025_Feb_08_1035,ConditionRich,2021.2.3,59.91608153619294,
35.75,36.0,41,0.0,Stimuli/Blank.png,0,0,0.0,0,16,16,16,,,,,,,,,,,,,35.764583800000764,0.014583800000764313,None,66.3954917000001,66.3954917000001,66.3954917000001,66.3954917000001,66.3954917000001,66.3954917000001,66.3954917000001,66.3954917000001,66.3954917000001,66.3954917000001,,006,P011,2025_Feb_08_1035,ConditionRich,2021.2.3,59.91608153619294,
36.0,39.75,39,0.75,Stimuli/P011/things_thermometer_06s.jpg,1,1,1.75,0,17,17,17,,,,,,,,,,,,,36.01361750000069,0.013617500000691507,1,66.6624069999998,66.6624069999998,66.6624069999998,66.6624069999998,66.6624069999998,66.6624069999998,67.62995289999981,68.38059900000007,66.6624069999998,66.6624069999998,1.3929046000002927,006,P011,2025_Feb_08_1035,ConditionRich,2021.2.3,59.91608153619294,
39.75,40.0,41,0.0,Stimuli/Blank.png,0,0,0.0,0,18,18,18,,,,,,,,,,,,,39.76673800000026,0.01673800000025949,None,70.39901129999998,70.39901129999998,70.39901129999998,70.39901129999998,70.39901129999998,70.39901129999998,70.39901129999998,70.39901129999998,70.39901129999998,70.39901129999998,,006,P011,2025_Feb_08_1035,ConditionRich,2021.2.3,59.91608153619294,
40.0,43.75,17,0.75,Stimuli/P011/sun_btvwhlxbhcqnqzok.jpg,0,0,0.0,0,19,19,19,,,,,,,,,,,,,40.00051630000053,0.0005163000005268259,None,70.63255589999972,70.63255589999972,70.63255589999972,70.63255589999972,70.63255589999972,70.63255589999972,70.63255589999972,70.63255589999972,70.63255589999972,70.63255589999972,,006,P011,2025_Feb_08_1035,ConditionRich,2021.2.3,59.91608153619294,
43.75,44.0,41,0.0,Stimuli/Blank.png,0,0,0.0,0,20,20,20,,,,,,,,,,,,,43.75643440000022,0.006434400000216556,None,74.40256260000024,74.40256260000024,74.40256260000024,74.40256260000024,74.40256260000024,74.40256260000024,74.40256260000024,74.40256260000024,74.40256260000024,74.40256260000024,,006,P011,2025_Feb_08_1035,ConditionRich,2021.2.3,59.91608153619294,
44.0,47.75,35,0.75,Stimuli/P011/things_raccoon_06n.jpg,0,0,0.0,0,21,21,21,,,,,,,,,,,,,44.02047970000058,0.020479700000578305,None,74.65277779999997,74.65277779999997,74.65277779999997,74.65277779999997,74.65277779999997,74.65277779999997,74.65277779999997,74.65277779999997,74.65277779999997,74.65277779999997,,006,P011,2025_Feb_08_1035,ConditionRich,2021.2.3,59.91608153619294,
47.75,48.0,41,0.0,Stimuli/Blank.png,0,0,0.0,0,22,22,22,,,,,,,,,,,,,47.75791400000071,0.007914000000710075,None,78.38941599999998,78.38941599999998,78.38941599999998,78.38941599999998,78.38941599999998,78.38941599999998,78.38941599999998,78.38941599999998,78.38941599999998,78.38941599999998,,006,P011,2025_Feb_08_1035,ConditionRich,2021.2.3,59.91608153619294,
48.0,51.75,28,0.75,Stimuli/P011/things_grasshopper_06s.jpg,1,1,1.75,0,23,23,23,,,,,,,,,,,,,48.00748580000072,0.00748580000072252,1,78.63963669999976,78.63963669999976,78.63963669999976,78.63963669999976,78.63963669999976,78.63963669999976,79.62383200000022,80.37449860000015,78.63963669999976,78.63963669999976,1.4986597999995865,006,P011,2025_Feb_08_1035,ConditionRich,2021.2.3,59.91608153619294,
51.75,52.0,41,0.0,Stimuli/Blank.png,0,0,0.0,0,24,24,24,,,,,,,,,,,,,51.761396400000194,0.011396400000194262,None,82.39297090000036,82.39297090000036,82.39297090000036,82.39297090000036,82.39297090000036,82.39297090000036,82.39297090000036,82.39297090000036,82.39297090000036,82.39297090000036,,006,P011,2025_Feb_08_1035,ConditionRich,2021.2.3,59.91608153619294,
52.0,55.75,15,0.75,Stimuli/P011/sun_bmngnyuahubpqroh.jpg,0,0,0.0,0,25,25,25,,,,,,,,,,,,,52.0108209,0.010820899999998801,None,82.64317750000009,82.64317750000009,82.64317750000009,82.64317750000009,82.64317750000009,82.64317750000009,82.64317750000009,82.64317750000009,82.64317750000009,82.64317750000009,,006,P011,2025_Feb_08_1035,ConditionRich,2021.2.3,59.91608153619294,
55.75,56.0,41,0.0,Stimuli/Blank.png,0,0,0.0,0,26,26,26,,,,,,,,,,,,,55.76624680000077,0.016246800000772055,None,86.4131838000003,86.4131838000003,86.4131838000003,86.4131838000003,86.4131838000003,86.4131838000003,86.4131838000003,86.4131838000003,86.4131838000003,86.4131838000003,,006,P011,2025_Feb_08_1035,ConditionRich,2021.2.3,59.91608153619294,
56.0,59.75,14,0.75,Stimuli/P011/sun_blybvkoucskrdgiv.jpg,0,0,0.0,0,27,27,27,,,,,,,,,,,,,56.0164048000006,0.016404800000600517,None,86.66341949999969,86.66341949999969,86.66341949999969,86.66341949999969,86.66341949999969,86.66341949999969,86.66341949999969,86.66341949999969,86.66341949999969,86.66341949999969,,006,P011,2025_Feb_08_1035,ConditionRich,2021.2.3,59.91608153619294,
59.75,60.0,41,0.0,Stimuli/Blank.png,0,0,0.0,0,28,28,28,,,,,,,,,,,,,59.76780930000041,0.017809300000408257,None,90.40004210000006,90.40004210000006,90.40004210000006,90.40004210000006,90.40004210000006,90.40004210000006,90.40004210000006,90.40004210000006,90.40004210000006,90.40004210000006,,006,P011,2025_Feb_08_1035,ConditionRich,2021.2.3,59.91608153619294,
60.0,63.75,27,0.75,Stimuli/P011/things_girl_06s.jpg,0,0,0.0,0,29,29,29,,,,,,,,,,,,,60.00128780000068,0.0012878000006821821,None,90.63361059999988,90.63361059999988,90.63361059999988,90.63361059999988,90.63361059999988,90.63361059999988,90.63361059999988,90.63361059999988,90.63361059999988,90.63361059999988,,006,P011,2025_Feb_08_1035,ConditionRich,2021.2.3,59.91608153619294,
63.75,64.0,41,0.0,Stimuli/Blank.png,0,0,0.0,0,30,30,30,,,,,,,,,,,,,63.75562420000006,0.0056242000000565895,None,94.3869150999999,94.3869150999999,94.3869150999999,94.3869150999999,94.3869150999999,94.3869150999999,94.3869150999999,94.3869150999999,94.3869150999999,94.3869150999999,,006,P011,2025_Feb_08_1035,ConditionRich,2021.2.3,59.91608153619294,
64.0,67.75,5,0.75,Stimuli/P011/sun_anfwllcezhlypoti.jpg,0,0,0.0,0,31,31,31,,,,,,,,,,,,,64.00531620000038,0.005316200000379467,None,94.63711719999992,94.63711719999992,94.63711719999992,94.63711719999992,94.63711719999992,94.63711719999992,94.63711719999992,94.63711719999992,94.63711719999992,94.63711719999992,,006,P011,2025_Feb_08_1035,ConditionRich,2021.2.3,59.91608153619294,
67.75,68.0,41,0.0,Stimuli/Blank.png,0,0,0.0,0,32,32,32,,,,,,,,,,,,,67.7586009000006,0.008600900000601541,None,98.39044279999962,98.39044279999962,98.39044279999962,98.39044279999962,98.39044279999962,98.39044279999962,98.39044279999962,98.39044279999962,98.39044279999962,98.39044279999962,,006,P011,2025_Feb_08_1035,ConditionRich,2021.2.3,59.91608153619294,
68.0,71.75,11,0.75,Stimuli/P011/sun_baylllqlgfvxilor.jpg,0,0,0.0,0,33,33,33,,,,,,,,,,,,,68.00839830000041,0.008398300000408199,None,98.65736639999977,98.65736639999977,98.65736639999977,98.65736639999977,98.65736639999977,98.65736639999977,98.65736639999977,98.65736639999977,98.65736639999977,98.65736639999977,,006,P011,2025_Feb_08_1035,ConditionRich,2021.2.3,59.91608153619294,
71.75,72.0,41,0.0,Stimuli/Blank.png,0,0,0.0,0,34,34,34,,,,,,,,,,,,,71.77965510000013,0.029655100000127277,None,102.41067999999996,102.41067999999996,102.41067999999996,102.41067999999996,102.41067999999996,102.41067999999996,102.41067999999996,102.41067999999996,102.41067999999996,102.41067999999996,,006,P011,2025_Feb_08_1035,ConditionRich,2021.2.3,59.91608153619294,
72.0,75.75,21,0.75,Stimuli/P011/things_baby_06s.jpg,0,0,0.0,0,35,35,35,,,,,,,,,,,,,72.01262860000043,0.01262860000042565,None,102.64421289999973,102.64421289999973,102.64421289999973,102.64421289999973,102.64421289999973,102.64421289999973,102.64421289999973,102.64421289999973,102.64421289999973,102.64421289999973,,006,P011,2025_Feb_08_1035,ConditionRich,2021.2.3,59.91608153619294,
75.75,76.0,41,0.0,Stimuli/Blank.png,0,0,0.0,0,36,36,36,,,,,,,,,,,,,75.74854099999993,-0.0014590000000680448,None,106.38083860000006,106.38083860000006,106.38083860000006,106.38083860000006,106.38083860000006,106.38083860000006,106.38083860000006,106.38083860000006,106.38083860000006,106.38083860000006,,006,P011,2025_Feb_08_1035,ConditionRich,2021.2.3,59.91608153619294,
76.0,79.75,40,0.75,Stimuli/P011/things_woman_06s.jpg,1,0,0.75,0,37,37,37,,,,,,,,,,,,,76.01538110000001,0.015381100000013248,1,106.64779019999969,106.64779019999969,106.64779019999969,106.64779019999969,106.64779019999969,106.64779019999969,106.64779019999969,107.38174919999983,106.64779019999969,106.64779019999969,0.4795348000006925,006,P011,2025_Feb_08_1035,ConditionRich,2021.2.3,59.91608153619294,
79.75,80.0,41,0.0,Stimuli/Blank.png,0,0,0.0,0,38,38,38,,,,,,,,,,,,,79.75278880000042,0.0027888000004168134,None,110.38438299999962,110.38438299999962,110.38438299999962,110.38438299999962,110.38438299999962,110.38438299999962,110.38438299999962,110.38438299999962,110.38438299999962,110.38438299999962,,006,P011,2025_Feb_08_1035,ConditionRich,2021.2.3,59.91608153619294,
80.0,83.75,16,0.75,Stimuli/P011/sun_bpuwvyadswjfoaby.jpg,0,0,0.0,0,39,39,39,,,,,,,,,,,,,80.00307960000009,0.0030796000000918866,None,110.63460380000015,110.63460380000015,110.63460380000015,110.63460380000015,110.63460380000015,110.63460380000015,110.63460380000015,110.63460380000015,110.63460380000015,110.63460380000015,,006,P011,2025_Feb_08_1035,ConditionRich,2021.2.3,59.91608153619294,
83.75,84.0,41,0.0,Stimuli/Blank.png,0,0,0.0,0,40,40,40,,,,,,,,,,,,,83.7563024000001,0.006302400000095076,None,114.38792149999972,114.38792149999972,114.38792149999972,114.38792149999972,114.38792149999972,114.38792149999972,114.38792149999972,114.38792149999972,114.38792149999972,114.38792149999972,,006,P011,2025_Feb_08_1035,ConditionRich,2021.2.3,59.91608153619294,
84.0,100.0,0,0.0,Stimuli/Blank.png,1,9,9.75,0,41,41,41,,,,,,,,,,,,,84.00633350000044,0.006333500000437198,1,114.6381478000003,114.6381478000003,114.6381478000003,114.6381478000003,114.6381478000003,114.6381478000003,123.62943759999962,124.38009390000025,114.6381478000003,114.6381478000003,9.383384099999603,006,P011,2025_Feb_08_1035,ConditionRich,2021.2.3,59.91608153619294,
100.0,103.75,18,0.75,Stimuli/P011/sun_bxlbxustiovyqyrg.jpg,1,2,2.75,0,42,42,42,,,,,,,,,,,,,100.00335660000019,0.0033566000001883367,1,130.63562679999995,130.63562679999995,130.63562679999995,130.63562679999995,130.63562679999995,130.63562679999995,132.6207113999999,133.37142519999998,130.63562679999995,130.63562679999995,2.9007187000006525,006,P011,2025_Feb_08_1035,ConditionRich,2021.2.3,59.91608153619294,
103.75,104.0,41,0.0,Stimuli/Blank.png,0,0,0.0,0,43,43,43,,,,,,,,,,,,,103.75754070000039,0.007540700000390643,None,134.3889532000003,134.3889532000003,134.3889532000003,134.3889532000003,134.3889532000003,134.3889532000003,134.3889532000003,134.3889532000003,134.3889532000003,134.3889532000003,,006,P011,2025_Feb_08_1035,ConditionRich,2021.2.3,59.91608153619294,
104.0,107.75,29,0.75,Stimuli/P011/things_gutter_06s.jpg,0,0,0.0,0,44,44,44,,,,,,,,,,,,,104.00715320000018,0.007153200000175275,None,134.63917279999987,134.63917279999987,134.63917279999987,134.63917279999987,134.63917279999987,134.63917279999987,134.63917279999987,134.63917279999987,134.63917279999987,134.63917279999987,,006,P011,2025_Feb_08_1035,ConditionRich,2021.2.3,59.91608153619294,
107.75,108.0,41,0.0,Stimuli/Blank.png,0,0,0.0,0,45,45,45,,,,,,,,,,,,,107.76105120000011,0.011051200000110839,None,138.39250290000018,138.39250290000018,138.39250290000018,138.39250290000018,138.39250290000018,138.39250290000018,138.39250290000018,138.39250290000018,138.39250290000018,138.39250290000018,,006,P011,2025_Feb_08_1035,ConditionRich,2021.2.3,59.91608153619294,
108.0,111.75,2,0.75,Stimuli/P011/sun_aewhvqonribwlxiq.jpg,0,0,0.0,0,46,46,46,,,,,,,,,,,,,108.01044120000006,0.010441200000059325,None,138.64270870000018,138.64270870000018,138.64270870000018,138.64270870000018,138.64270870000018,138.64270870000018,138.64270870000018,138.64270870000018,138.64270870000018,138.64270870000018,,006,P011,2025_Feb_08_1035,ConditionRich,2021.2.3,59.91608153619294,
111.75,112.0,41,0.0,Stimuli/Blank.png,0,0,0.0,0,47,47,47,,,,,,,,,,,,,111.76369980000072,0.013699800000722462,None,142.39604140000029,142.39604140000029,142.39604140000029,142.39604140000029,142.39604140000029,142.39604140000029,142.39604140000029,142.39604140000029,142.39604140000029,142.39604140000029,,006,P011,2025_Feb_08_1035,ConditionRich,2021.2.3,59.91608153619294,
112.0,115.75,7,0.75,Stimuli/P011/sun_arugqgwhwdjxezyt.jpg,0,0,0.0,0,48,48,48,,,,,,,,,,,,,112.01398659999995,0.013986599999952887,None,142.64625840000008,142.64625840000008,142.64625840000008,142.64625840000008,142.64625840000008,142.64625840000008,142.64625840000008,142.64625840000008,142.64625840000008,142.64625840000008,,006,P011,2025_Feb_08_1035,ConditionRich,2021.2.3,59.91608153619294,
115.75,116.0,41,0.0,Stimuli/Blank.png,0,0,0.0,0,49,49,49,,,,,,,,,,,,,115.75114930000018,0.0011493000001792097,None,146.38289749999967,146.38289749999967,146.38289749999967,146.38289749999967,146.38289749999967,146.38289749999967,146.38289749999967,146.38289749999967,146.38289749999967,146.38289749999967,,006,P011,2025_Feb_08_1035,ConditionRich,2021.2.3,59.91608153619294,
116.0,119.75,30,0.75,Stimuli/P011/things_hamburger_06s.jpg,0,0,0.0,0,50,50,50,,,,,,,,,,,,,116.0017056000006,0.0017056000006050454,None,146.64979829999993,146.64979829999993,146.64979829999993,146.64979829999993,146.64979829999993,146.64979829999993,146.64979829999993,146.64979829999993,146.64979829999993,146.64979829999993,,006,P011,2025_Feb_08_1035,ConditionRich,2021.2.3,59.91608153619294,
119.75,120.0,41,0.0,Stimuli/Blank.png,0,0,0.0,0,51,51,51,,,,,,,,,,,,,119.77214260000073,0.022142600000734092,None,150.4031170999997,150.4031170999997,150.4031170999997,150.4031170999997,150.4031170999997,150.4031170999997,150.4031170999997,150.4031170999997,150.4031170999997,150.4031170999997,,006,P011,2025_Feb_08_1035,ConditionRich,2021.2.3,59.91608153619294,
120.0,123.75,38,0.75,Stimuli/P011/things_squeegee_06s.jpg,0,0,0.0,0,52,52,52,,,,,,,,,,,,,120.00501489999988,0.005014899999878253,None,150.63665690000016,150.63665690000016,150.63665690000016,150.63665690000016,150.63665690000016,150.63665690000016,150.63665690000016,150.63665690000016,150.63665690000016,150.63665690000016,,006,P011,2025_Feb_08_1035,ConditionRich,2021.2.3,59.91608153619294,
123.75,124.0,41,0.0,Stimuli/Blank.png,0,0,0.0,0,53,53,53,,,,,,,,,,,,,123.75761970000076,0.007619700000759622,None,154.3899736000003,154.3899736000003,154.3899736000003,154.3899736000003,154.3899736000003,154.3899736000003,154.3899736000003,154.3899736000003,154.3899736000003,154.3899736000003,,006,P011,2025_Feb_08_1035,ConditionRich,2021.2.3,59.91608153619294,
124.0,127.75,34,0.75,Stimuli/P011/things_polar_bear_06s.jpg,0,0,0.0,0,54,54,54,,,,,,,,,,,,,124.0085523000007,0.008552300000701507,None,154.64018889999988,154.64018889999988,154.64018889999988,154.64018889999988,154.64018889999988,154.64018889999988,154.64018889999988,154.64018889999988,154.64018889999988,154.64018889999988,,006,P011,2025_Feb_08_1035,ConditionRich,2021.2.3,59.91608153619294,
127.75,128.0,41,0.0,Stimuli/Blank.png,0,0,0.0,0,55,55,55,,,,,,,,,,,,,127.76268570000047,0.012685700000474753,None,158.39352539999982,158.39352539999982,158.39352539999982,158.39352539999982,158.39352539999982,158.39352539999982,158.39352539999982,158.39352539999982,158.39352539999982,158.39352539999982,,006,P011,2025_Feb_08_1035,ConditionRich,2021.2.3,59.91608153619294,
128.0,131.75,26,0.75,Stimuli/P011/things_gazelle_06s.jpg,0,0,0.0,0,56,56,56,,,,,,,,,,,,,128.0119568,0.011956800000007206,None,158.64373100000012,158.64373100000012,158.64373100000012,158.64373100000012,158.64373100000012,158.64373100000012,158.64373100000012,158.64373100000012,158.64373100000012,158.64373100000012,,006,P011,2025_Feb_08_1035,ConditionRich,2021.2.3,59.91608153619294,
131.75,132.0,41,0.0,Stimuli/Blank.png,0,0,0.0,0,57,57,57,,,,,,,,,,,,,131.76512290000028,0.015122900000278605,None,162.39704789999996,162.39704789999996,162.39704789999996,162.39704789999996,162.39704789999996,162.39704789999996,162.39704789999996,162.39704789999996,162.39704789999996,162.39704789999996,,006,P011,2025_Feb_08_1035,ConditionRich,2021.2.3,59.91608153619294,
132.0,135.75,9,0.75,Stimuli/P011/sun_aupohozmrmtfgcsw.jpg,1,3,3.75,0,58,58,58,,,,,,,,,,,,,132.01499860000058,0.014998600000581064,1,162.64727310000035,162.64727310000035,162.64727310000035,162.64727310000035,162.64727310000035,162.64727310000035,165.63325129999976,None,162.64727310000035,162.64727310000035,3.5011532999997144,006,P011,2025_Feb_08_1035,ConditionRich,2021.2.3,59.91608153619294,
135.75,136.0,41,0.0,Stimuli/Blank.png,0,0,0.0,0,59,59,59,,,,,,,,,,,,,135.75256780000018,0.002567800000178977,None,166.3839092999997,166.3839092999997,166.3839092999997,166.3839092999997,166.3839092999997,166.3839092999997,166.3839092999997,166.3839092999997,166.3839092999997,166.3839092999997,,006,P011,2025_Feb_08_1035,ConditionRich,2021.2.3,59.91608153619294,
136.0,139.75,32,0.75,Stimuli/P011/things_hood_06s.jpg,1,0,0.75,0,60,60,60,,,,,,,,,,,,,136.00183840000045,0.0018384000004516565,1,166.63409320000028,166.63409320000028,166.63409320000028,166.63409320000028,166.63409320000028,166.63409320000028,166.63409320000028,167.36811380000017,166.63409320000028,166.63409320000028,0.6417058999995788,006,P011,2025_Feb_08_1035,ConditionRich,2021.2.3,59.91608153619294,
139.75,140.0,41,0.0,Stimuli/Blank.png,0,0,0.0,0,61,61,61,,,,,,,,,,,,,139.75596459999997,0.005964599999970233,None,170.38745930000005,170.38745930000005,170.38745930000005,170.38745930000005,170.38745930000005,170.38745930000005,170.38745930000005,170.38745930000005,170.38745930000005,170.38745930000005,,006,P011,2025_Feb_08_1035,ConditionRich,2021.2.3,59.91608153619294,
140.0,143.75,25,0.75,Stimuli/P011/things_face_06s.jpg,1,1,1.75,0,62,62,62,,,,,,,,,,,,,140.00543900000048,0.0054390000004787,1,170.63768210000035,170.63768210000035,170.63768210000035,170.63768210000035,170.63768210000035,170.63768210000035,171.62189709999984,172.37253210000017,170.63768210000035,170.63768210000035,1.806001799999649,006,P011,2025_Feb_08_1035,ConditionRich,2021.2.3,59.91608153619294,
143.75,144.0,41,0.0,Stimuli/Blank.png,0,0,0.0,0,63,63,63,,,,,,,,,,,,,143.76177480000024,0.011774800000239338,None,174.40768219999973,174.40768219999973,174.40768219999973,174.40768219999973,174.40768219999973,174.40768219999973,174.40768219999973,174.40768219999973,174.40768219999973,174.40768219999973,,006,P011,2025_Feb_08_1035,ConditionRich,2021.2.3,59.91608153619294,
144.0,147.75,4,0.75,Stimuli/P011/sun_akpdzjejmtbfopdt.jpg,0,0,0.0,0,64,64,64,,,,,,,,,,,,,144.02585810000073,0.02585810000073252,None,174.65789949999998,174.65789949999998,174.65789949999998,174.65789949999998,174.65789949999998,174.65789949999998,174.65789949999998,174.65789949999998,174.65789949999998,174.65789949999998,,006,P011,2025_Feb_08_1035,ConditionRich,2021.2.3,59.91608153619294,
147.75,148.0,41,0.0,Stimuli/Blank.png,0,0,0.0,0,65,65,65,,,,,,,,,,,,,147.7622111999999,0.012211199999910605,None,178.39452960000017,178.39452960000017,178.39452960000017,178.39452960000017,178.39452960000017,178.39452960000017,178.39452960000017,178.39452960000017,178.39452960000017,178.39452960000017,,006,P011,2025_Feb_08_1035,ConditionRich,2021.2.3,59.91608153619294,
148.0,151.75,37,0.75,Stimuli/P011/things_spam_06s.jpg,0,0,0.0,0,66,66,66,,,,,,,,,,,,,148.01249240000016,0.012492400000155612,None,178.64475839999977,178.64475839999977,178.64475839999977,178.64475839999977,178.64475839999977,178.64475839999977,178.64475839999977,178.64475839999977,178.64475839999977,178.64475839999977,,006,P011,2025_Feb_08_1035,ConditionRich,2021.2.3,59.91608153619294,
151.75,152.0,41,0.0,Stimuli/Blank.png,0,0,0.0,0,67,67,67,,,,,,,,,,,,,151.7508600000001,0.0008600000001024455,None,182.38141540000015,182.38141540000015,182.38141540000015,182.38141540000015,182.38141540000015,182.38141540000015,182.38141540000015,182.38141540000015,182.38141540000015,182.38141540000015,,006,P011,2025_Feb_08_1035,ConditionRich,2021.2.3,59.91608153619294,
152.0,155.75,13,0.75,Stimuli/P011/sun_bjedvzikugwleyer.jpg,0,0,0.0,0,68,68,68,,,,,,,,,,,,,152.0015301000003,0.0015301000003091758,None,182.6483393999997,182.6483393999997,182.6483393999997,182.6483393999997,182.6483393999997,182.6483393999997,182.6483393999997,182.6483393999997,182.6483393999997,182.6483393999997,,006,P011,2025_Feb_08_1035,ConditionRich,2021.2.3,59.91608153619294,
155.75,156.0,41,0.0,Stimuli/Blank.png,0,0,0.0,0,69,69,69,,,,,,,,,,,,,155.7716119000006,0.02161190000060742,None,186.4183062000002,186.4183062000002,186.4183062000002,186.4183062000002,186.4183062000002,186.4183062000002,186.4183062000002,186.4183062000002,186.4183062000002,186.4183062000002,,006,P011,2025_Feb_08_1035,ConditionRich,2021.2.3,59.91608153619294,
156.0,159.75,36,0.75,Stimuli/P011/things_shower_cap_06s.jpg,1,3,3.75,0,70,70,70,,,,,,,,,,,,,156.02258390000043,0.022583900000427093,1,186.6685166999996,186.6685166999996,186.6685166999996,186.6685166999996,186.6685166999996,186.6685166999996,189.65452829999958,None,186.6685166999996,186.6685166999996,3.4421469000008074,006,P011,2025_Feb_08_1035,ConditionRich,2021.2.3,59.91608153619294,
159.75,160.0,41,0.0,Stimuli/Blank.png,0,0,0.0,0,71,71,71,,,,,,,,,,,,,159.77300940000077,0.023009400000773894,None,190.40515919999962,190.40515919999962,190.40515919999962,190.40515919999962,190.40515919999962,190.40515919999962,190.40515919999962,190.40515919999962,190.40515919999962,190.40515919999962,,006,P011,2025_Feb_08_1035,ConditionRich,2021.2.3,59.91608153619294,
160.0,163.75,19,0.75,Stimuli/P011/sun_byvwakrdyukjigpc.jpg,0,0,0.0,0,72,72,72,,,,,,,,,,,,,160.0063866999999,0.006386699999893608,None,190.63869270000032,190.63869270000032,190.63869270000032,190.63869270000032,190.63869270000032,190.63869270000032,190.63869270000032,190.63869270000032,190.63869270000032,190.63869270000032,,006,P011,2025_Feb_08_1035,ConditionRich,2021.2.3,59.91608153619294,
163.75,164.0,41,0.0,Stimuli/Blank.png,0,0,0.0,0,73,73,73,,,,,,,,,,,,,163.76227650000055,0.012276500000552915,None,194.40870470000027,194.40870470000027,194.40870470000027,194.40870470000027,194.40870470000027,194.40870470000027,194.40870470000027,194.40870470000027,194.40870470000027,194.40870470000027,,006,P011,2025_Feb_08_1035,ConditionRich,2021.2.3,59.91608153619294,
164.0,167.75,24,0.75,Stimuli/P011/things_doily_06s.jpg,0,0,0.0,0,74,74,74,,,,,,,,,,,,,164.0266228999999,0.02662289999989298,None,194.65891949999968,194.65891949999968,194.65891949999968,194.65891949999968,194.65891949999968,194.65891949999968,194.65891949999968,194.65891949999968,194.65891949999968,194.65891949999968,,006,P011,2025_Feb_08_1035,ConditionRich,2021.2.3,59.91608153619294,
167.75,168.0,41,0.0,Stimuli/Blank.png,0,0,0.0,0,75,75,75,,,,,,,,,,,,,167.76350690000072,0.013506900000720634,None,198.39570079999976,198.39570079999976,198.39570079999976,198.39570079999976,198.39570079999976,198.39570079999976,198.39570079999976,198.39570079999976,198.39570079999976,198.39570079999976,,006,P011,2025_Feb_08_1035,ConditionRich,2021.2.3,59.91608153619294,
168.0,171.75,6,0.75,Stimuli/P011/sun_aqysdudvyxnkcxgq.jpg,0,0,0.0,0,76,76,76,,,,,,,,,,,,,168.01661560000048,0.01661560000047757,None,198.6624754000004,198.6624754000004,198.6624754000004,198.6624754000004,198.6624754000004,198.6624754000004,198.6624754000004,198.6624754000004,198.6624754000004,198.6624754000004,,006,P011,2025_Feb_08_1035,ConditionRich,2021.2.3,59.91608153619294,
171.75,172.0,41,0.0,Stimuli/Blank.png,0,0,0.0,0,77,77,77,,,,,,,,,,,,,171.76741020000009,0.01741020000008575,None,202.39910270000018,202.39910270000018,202.39910270000018,202.39910270000018,202.39910270000018,202.39910270000018,202.39910270000018,202.39910270000018,202.39910270000018,202.39910270000018,,006,P011,2025_Feb_08_1035,ConditionRich,2021.2.3,59.91608153619294,
172.0,175.75,23,0.75,Stimuli/P011/things_clove_06s.jpg,0,0,0.0,0,78,78,78,,,,,,,,,,,,,172.00135520000003,0.0013552000000345288,None,202.64933370000017,202.64933370000017,202.64933370000017,202.64933370000017,202.64933370000017,202.64933370000017,202.64933370000017,202.64933370000017,202.64933370000017,202.64933370000017,,006,P011,2025_Feb_08_1035,ConditionRich,2021.2.3,59.91608153619294,
175.75,176.0,41,0.0,Stimuli/Blank.png,0,0,0.0,0,79,79,79,,,,,,,,,,,,,175.77031500000066,0.02031500000066444,None,206.4027003000001,206.4027003000001,206.4027003000001,206.4027003000001,206.4027003000001,206.4027003000001,206.4027003000001,206.4027003000001,206.4027003000001,206.4027003000001,,006,P011,2025_Feb_08_1035,ConditionRich,2021.2.3,59.91608153619294,
176.0,179.75,31,0.75,Stimuli/P011/things_hippopotamus_06s.jpg,0,0,0.0,0,80,80,80,,,,,,,,,,,,,176.00379450000037,0.0037945000003674068,None,206.65287160000025,206.65287160000025,206.65287160000025,206.65287160000025,206.65287160000025,206.65287160000025,206.65287160000025,206.65287160000025,206.65287160000025,206.65287160000025,,006,P011,2025_Feb_08_1035,ConditionRich,2021.2.3,59.91608153619294,
179.75,180.0,41,0.0,Stimuli/Blank.png,0,0,0.0,0,81,81,81,,,,,,,,,,,,,179.77486500000032,0.024865000000318105,None,210.4061959999999,210.4061959999999,210.4061959999999,210.4061959999999,210.4061959999999,210.4061959999999,210.4061959999999,210.4061959999999,210.4061959999999,210.4061959999999,,006,P011,2025_Feb_08_1035,ConditionRich,2021.2.3,59.91608153619294,
180.0,196.0,0,0.0,Stimuli/Blank.png,1,12,12.75,0,82,82,82,,,,,,,,,,,,,180.00757610000073,0.007576100000733277,1,210.63972159999958,210.63972159999958,210.63972159999958,210.63972159999958,210.63972159999958,210.63972159999958,222.61701970000013,223.36763619999965,210.63972159999958,210.63972159999958,12.412755299999844,006,P011,2025_Feb_08_1035,ConditionRich,2021.2.3,59.91608153619294,
196.0,199.75,28,0.75,Stimuli/P011/things_grasshopper_06s.jpg,0,0,0.0,0,83,83,83,,,,,,,,,,,,,196.00626379999994,0.006263799999942421,None,226.65385210000022,226.65385210000022,226.65385210000022,226.65385210000022,226.65385210000022,226.65385210000022,226.65385210000022,226.65385210000022,226.65385210000022,226.65385210000022,,006,P011,2025_Feb_08_1035,ConditionRich,2021.2.3,59.91608153619294,
199.75,200.0,41,0.0,Stimuli/Blank.png,0,0,0.0,0,84,84,84,,,,,,,,,,,,,199.77612790000057,0.0261279000005743,None,230.40720499999952,230.40720499999952,230.40720499999952,230.40720499999952,230.40720499999952,230.40720499999952,230.40720499999952,230.40720499999952,230.40720499999952,230.40720499999952,,006,P011,2025_Feb_08_1035,ConditionRich,2021.2.3,59.91608153619294,
200.0,203.75,2,0.75,Stimuli/P011/sun_aewhvqonribwlxiq.jpg,0,0,0.0,0,85,85,85,,,,,,,,,,,,,200.00868330000048,0.00868330000048445,None,230.65744579999955,230.65744579999955,230.65744579999955,230.65744579999955,230.65744579999955,230.65744579999955,230.65744579999955,230.65744579999955,230.65744579999955,230.65744579999955,,006,P011,2025_Feb_08_1035,ConditionRich,2021.2.3,59.91608153619294,
203.75,204.0,41,0.0,Stimuli/Blank.png,0,0,0.0,0,86,86,86,,,,,,,,,,,,,203.7786569,0.028656899999987218,None,234.4107482999998,234.4107482999998,234.4107482999998,234.4107482999998,234.4107482999998,234.4107482999998,234.4107482999998,234.4107482999998,234.4107482999998,234.4107482999998,,006,P011,2025_Feb_08_1035,ConditionRich,2021.2.3,59.91608153619294,
204.0,207.75,10,0.75,Stimuli/P011/sun_awufkrkrdrdbvvis.jpg,0,0,0.0,0,87,87,87,,,,,,,,,,,,,204.0130050000007,0.013005000000703149,None,234.66098460000012,234.66098460000012,234.66098460000012,234.66098460000012,234.66098460000012,234.66098460000012,234.66098460000012,234.66098460000012,234.66098460000012,234.66098460000012,,006,P011,2025_Feb_08_1035,ConditionRich,2021.2.3,59.91608153619294,
207.75,208.0,41,0.0,Stimuli/Blank.png,0,0,0.0,0,88,88,88,,,,,,,,,,,,,207.76726580000013,0.017265800000132003,None,238.41428730000007,238.41428730000007,238.41428730000007,238.41428730000007,238.41428730000007,238.41428730000007,238.41428730000007,238.41428730000007,238.41428730000007,238.41428730000007,,006,P011,2025_Feb_08_1035,ConditionRich,2021.2.3,59.91608153619294,
208.0,211.75,30,0.75,Stimuli/P011/things_hamburger_06s.jpg,0,0,0.0,0,89,89,89,,,,,,,,,,,,,208.01848490000066,0.018484900000657944,None,238.66454909999993,238.66454909999993,238.66454909999993,238.66454909999993,238.66454909999993,238.66454909999993,238.66454909999993,238.66454909999993,238.66454909999993,238.66454909999993,,006,P011,2025_Feb_08_1035,ConditionRich,2021.2.3,59.91608153619294,
211.75,212.0,41,0.0,Stimuli/Blank.png,0,0,0.0,0,90,90,90,,,,,,,,,,,,,211.76962270000058,0.019622700000581972,None,242.4011360000004,242.4011360000004,242.4011360000004,242.4011360000004,242.4011360000004,242.4011360000004,242.4011360000004,242.4011360000004,242.4011360000004,242.4011360000004,,006,P011,2025_Feb_08_1035,ConditionRich,2021.2.3,59.91608153619294,
212.0,215.75,33,0.75,Stimuli/P011/things_hot-air_balloon_06s.jpg,1,1,1.75,0,91,91,91,,,,,,,,,,,,,212.00317730000006,0.003177300000061223,1,242.63468459999967,242.63468459999967,242.63468459999967,242.63468459999967,242.63468459999967,242.63468459999967,243.61888759999965,244.36954779999996,242.63468459999967,242.63468459999967,1.5247371999994357,006,P011,2025_Feb_08_1035,ConditionRich,2021.2.3,59.91608153619294,
215.75,216.0,41,0.0,Stimuli/Blank.png,0,0,0.0,0,92,92,92,,,,,,,,,,,,,215.7561751000003,0.0061751000002914225,None,246.38800900000024,246.38800900000024,246.38800900000024,246.38800900000024,246.38800900000024,246.38800900000024,246.38800900000024,246.38800900000024,246.38800900000024,246.38800900000024,,006,P011,2025_Feb_08_1035,ConditionRich,2021.2.3,59.91608153619294,
216.0,219.75,34,0.75,Stimuli/P011/things_polar_bear_06s.jpg,0,0,0.0,0,93,93,93,,,,,,,,,,,,,216.00744040000063,0.007440400000632508,None,246.65490950000003,246.65490950000003,246.65490950000003,246.65490950000003,246.65490950000003,246.65490950000003,246.65490950000003,246.65490950000003,246.65490950000003,246.65490950000003,,006,P011,2025_Feb_08_1035,ConditionRich,2021.2.3,59.91608153619294,
219.75,220.0,41,0.0,Stimuli/Blank.png,0,0,0.0,0,94,94,94,,,,,,,,,,,,,219.77891460000046,0.028914600000462087,None,250.42492179999954,250.42492179999954,250.42492179999954,250.42492179999954,250.42492179999954,250.42492179999954,250.42492179999954,250.42492179999954,250.42492179999954,250.42492179999954,,006,P011,2025_Feb_08_1035,ConditionRich,2021.2.3,59.91608153619294,
220.0,223.75,3,0.75,Stimuli/P011/sun_afdaynbvsppiyvxm.jpg,0,0,0.0,0,95,95,95,,,,,,,,,,,,,220.02726780000012,0.02726780000011786,None,250.6751333000002,250.6751333000002,250.6751333000002,250.6751333000002,250.6751333000002,250.6751333000002,250.6751333000002,250.6751333000002,250.6751333000002,250.6751333000002,,006,P011,2025_Feb_08_1035,ConditionRich,2021.2.3,59.91608153619294,
223.75,224.0,41,0.0,Stimuli/Blank.png,0,0,0.0,0,96,96,96,,,,,,,,,,,,,223.7795243999999,0.029524399999900197,None,254.4117785999997,254.4117785999997,254.4117785999997,254.4117785999997,254.4117785999997,254.4117785999997,254.4117785999997,254.4117785999997,254.4117785999997,254.4117785999997,,006,P011,2025_Feb_08_1035,ConditionRich,2021.2.3,59.91608153619294,
224.0,227.75,36,0.75,Stimuli/P011/things_shower_cap_06s.jpg,1,3,3.75,0,97,97,97,,,,,,,,,,,,,224.01310960000046,0.013109600000461796,1,254.6453088999997,254.6453088999997,254.6453088999997,254.6453088999997,254.6453088999997,254.6453088999997,257.63127950000035,None,254.6453088999997,254.6453088999997,3.5163739999998143,006,P011,2025_Feb_08_1035,ConditionRich,2021.2.3,59.91608153619294,
227.75,228.0,41,0.0,Stimuli/Blank.png,0,0,0.0,0,98,98,98,,,,,,,,,,,,,227.74961390000044,-0.00038609999955951935,None,258.38194569999996,258.38194569999996,258.38194569999996,258.38194569999996,258.38194569999996,258.38194569999996,258.38194569999996,258.38194569999996,258.38194569999996,258.38194569999996,,006,P011,2025_Feb_08_1035,ConditionRich,2021.2.3,59.91608153619294,
228.0,231.75,5,0.75,Stimuli/P011/sun_anfwllcezhlypoti.jpg,1,1,1.75,0,99,99,99,,,,,,,,,,,,,228.00075770000058,0.0007577000005767331,1,258.64886449999995,258.64886449999995,258.64886449999995,258.64886449999995,258.64886449999995,258.64886449999995,259.6163587000001,260.36707190000016,258.64886449999995,258.64886449999995,1.5726969999996072,006,P011,2025_Feb_08_1035,ConditionRich,2021.2.3,59.91608153619294,
231.75,232.0,41,0.0,Stimuli/Blank.png,0,0,0.0,0,100,100,100,,,,,,,,,,,,,231.77068899999995,0.020688999999947555,None,262.40217719999964,262.40217719999964,262.40217719999964,262.40217719999964,262.40217719999964,262.40217719999964,262.40217719999964,262.40217719999964,262.40217719999964,262.40217719999964,,006,P011,2025_Feb_08_1035,ConditionRich,2021.2.3,59.91608153619294,
232.0,235.75,4,0.75,Stimuli/P011/sun_akpdzjejmtbfopdt.jpg,0,0,0.0,0,101,101,101,,,,,,,,,,,,,232.00338600000032,0.003386000000318745,None,262.6357071000002,262.6357071000002,262.6357071000002,262.6357071000002,262.6357071000002,262.6357071000002,262.6357071000002,262.6357071000002,262.6357071000002,262.6357071000002,,006,P011,2025_Feb_08_1035,ConditionRich,2021.2.3,59.91608153619294,
235.75,236.0,41,0.0,Stimuli/Blank.png,0,0,0.0,0,102,102,102,,,,,,,,,,,,,235.75783430000047,0.00783430000046792,None,266.3890443,266.3890443,266.3890443,266.3890443,266.3890443,266.3890443,266.3890443,266.3890443,266.3890443,266.3890443,,006,P011,2025_Feb_08_1035,ConditionRich,2021.2.3,59.91608153619294,
236.0,239.75,7,0.75,Stimuli/P011/sun_arugqgwhwdjxezyt.jpg,0,0,0.0,0,103,103,103,,,,,,,,,,,,,236.00790230000075,0.007902300000750984,None,266.63925800000015,266.63925800000015,266.63925800000015,266.63925800000015,266.63925800000015,266.63925800000015,266.63925800000015,266.63925800000015,266.63925800000015,266.63925800000015,,006,P011,2025_Feb_08_1035,ConditionRich,2021.2.3,59.91608153619294,
239.75,240.0,41,0.0,Stimuli/Blank.png,0,0,0.0,0,104,104,104,,,,,,,,,,,,,239.76227390000076,0.012273900000764115,None,270.40926070000023,270.40926070000023,270.40926070000023,270.40926070000023,270.40926070000023,270.40926070000023,270.40926070000023,270.40926070000023,270.40926070000023,270.40926070000023,,006,P011,2025_Feb_08_1035,ConditionRich,2021.2.3,59.91608153619294,
240.0,243.75,27,0.75,Stimuli/P011/things_girl_06s.jpg,1,2,2.75,0,105,105,105,,,,,,,,,,,,,240.0279141000001,0.027914100000089093,1,270.6594691999999,270.6594691999999,270.6594691999999,270.6594691999999,270.6594691999999,270.6594691999999,272.64465389999987,273.3952204999996,270.6594691999999,270.6594691999999,2.317111599999407,006,P011,2025_Feb_08_1035,ConditionRich,2021.2.3,59.91608153619294,
243.75,244.0,41,0.0,Stimuli/Blank.png,0,0,0.0,0,106,106,106,,,,,,,,,,,,,243.76382439999998,0.013824399999975867,None,274.3961085000001,274.3961085000001,274.3961085000001,274.3961085000001,274.3961085000001,274.3961085000001,274.3961085000001,274.3961085000001,274.3961085000001,274.3961085000001,,006,P011,2025_Feb_08_1035,ConditionRich,2021.2.3,59.91608153619294,
244.0,247.75,1,0.75,Stimuli/P011/sun_aeakbqnvptdnxtno.jpg,0,0,0.0,0,107,107,107,,,,,,,,,,,,,244.01417200000014,0.01417200000014418,None,274.66302069999983,274.66302069999983,274.66302069999983,274.66302069999983,274.66302069999983,274.66302069999983,274.66302069999983,274.66302069999983,274.66302069999983,274.66302069999983,,006,P011,2025_Feb_08_1035,ConditionRich,2021.2.3,59.91608153619294,
247.75,248.0,41,0.0,Stimuli/Blank.png,0,0,0.0,0,108,108,108,,,,,,,,,,,,,247.76821569999993,0.018215699999927892,None,278.39974729999994,278.39974729999994,278.39974729999994,278.39974729999994,278.39974729999994,278.39974729999994,278.39974729999994,278.39974729999994,278.39974729999994,278.39974729999994,,006,P011,2025_Feb_08_1035,ConditionRich,2021.2.3,59.91608153619294,
248.0,251.75,24,0.75,Stimuli/P011/things_doily_06s.jpg,0,0,0.0,0,109,109,109,,,,,,,,,,,,,248.0026029999999,0.0026029999999082065,None,278.6498810000003,278.6498810000003,278.6498810000003,278.6498810000003,278.6498810000003,278.6498810000003,278.6498810000003,278.6498810000003,278.6498810000003,278.6498810000003,,006,P011,2025_Feb_08_1035,ConditionRich,2021.2.3,59.91608153619294,
251.75,252.0,41,0.0,Stimuli/Blank.png,0,0,0.0,0,110,110,110,,,,,,,,,,,,,251.77122959999997,0.02122959999996965,None,282.4032035,282.4032035,282.4032035,282.4032035,282.4032035,282.4032035,282.4032035,282.4032035,282.4032035,282.4032035,,006,P011,2025_Feb_08_1035,ConditionRich,2021.2.3,59.91608153619294,
252.0,255.75,13,0.75,Stimuli/P011/sun_bjedvzikugwleyer.jpg,0,0,0.0,0,111,111,111,,,,,,,,,,,,,252.00444040000002,0.004440400000021327,None,282.65341350000017,282.65341350000017,282.65341350000017,282.65341350000017,282.65341350000017,282.65341350000017,282.65341350000017,282.65341350000017,282.65341350000017,282.65341350000017,,006,P011,2025_Feb_08_1035,ConditionRich,2021.2.3,59.91608153619294,
255.75,256.0,41,0.0,Stimuli/Blank.png,0,0,0.0,0,112,112,112,,,,,,,,,,,,,255.77441630000067,0.024416300000666524,None,286.40673119999974,286.40673119999974,286.40673119999974,286.40673119999974,286.40673119999974,286.40673119999974,286.40673119999974,286.40673119999974,286.40673119999974,286.40673119999974,,006,P011,2025_Feb_08_1035,ConditionRich,2021.2.3,59.91608153619294,
256.0,259.75,6,0.75,Stimuli/P011/sun_aqysdudvyxnkcxgq.jpg,0,0,0.0,0,113,113,113,,,,,,,,,,,,,256.0085572000007,0.008557200000723242,None,286.6402683999995,286.6402683999995,286.6402683999995,286.6402683999995,286.6402683999995,286.6402683999995,286.6402683999995,286.6402683999995,286.6402683999995,286.6402683999995,,006,P011,2025_Feb_08_1035,ConditionRich,2021.2.3,59.91608153619294,
259.75,260.0,41,0.0,Stimuli/Blank.png,0,0,0.0,0,114,114,114,,,,,,,,,,,,,259.76346530000046,0.013465300000461866,None,290.4102780000003,290.4102780000003,290.4102780000003,290.4102780000003,290.4102780000003,290.4102780000003,290.4102780000003,290.4102780000003,290.4102780000003,290.4102780000003,,006,P011,2025_Feb_08_1035,ConditionRich,2021.2.3,59.91608153619294,
260.0,263.75,32,0.75,Stimuli/P011/things_hood_06s.jpg,0,0,0.0,0,115,115,115,,,,,,,,,,,,,260.0285921000004,0.02859210000042367,None,290.67718309999964,290.67718309999964,290.67718309999964,290.67718309999964,290.67718309999964,290.67718309999964,290.67718309999964,290.67718309999964,290.67718309999964,290.67718309999964,,006,P011,2025_Feb_08_1035,ConditionRich,2021.2.3,59.91608153619294,
263.75,264.0,41,0.0,Stimuli/Blank.png,0,0,0.0,0,116,116,116,,,,,,,,,,,,,263.7820797000004,0.03207970000039495,None,294.4138155999999,294.4138155999999,294.4138155999999,294.4138155999999,294.4138155999999,294.4138155999999,294.4138155999999,294.4138155999999,294.4138155999999,294.4138155999999,,006,P011,2025_Feb_08_1035,ConditionRich,2021.2.3,59.91608153619294,
264.0,267.75,31,0.75,Stimuli/P011/things_hippopotamus_06s.jpg,0,0,0.0,0,117,117,117,,,,,,,,,,,,,264.01804900000025,0.01804900000024645,None,294.66404799999964,294.66404799999964,294.66404799999964,294.66404799999964,294.66404799999964,294.66404799999964,294.66404799999964,294.66404799999964,294.66404799999964,294.66404799999964,,006,P011,2025_Feb_08_1035,ConditionRich,2021.2.3,59.91608153619294,
267.75,268.0,41,0.0,Stimuli/Blank.png,0,0,0.0,0,118,118,118,,,,,,,,,,,,,267.7685013999999,0.01850139999987732,None,298.4006814000004,298.4006814000004,298.4006814000004,298.4006814000004,298.4006814000004,298.4006814000004,298.4006814000004,298.4006814000004,298.4006814000004,298.4006814000004,,006,P011,2025_Feb_08_1035,ConditionRich,2021.2.3,59.91608153619294,
268.0,271.75,19,0.75,Stimuli/P011/sun_byvwakrdyukjigpc.jpg,0,0,0.0,0,119,119,119,,,,,,,,,,,,,268.00298490000023,0.002984900000228663,None,298.6509248000002,298.6509248000002,298.6509248000002,298.6509248000002,298.6509248000002,298.6509248000002,298.6509248000002,298.6509248000002,298.6509248000002,298.6509248000002,,006,P011,2025_Feb_08_1035,ConditionRich,2021.2.3,59.91608153619294,
271.75,272.0,41,0.0,Stimuli/Blank.png,0,0,0.0,0,120,120,120,,,,,,,,,,,,,271.7720575000003,0.022057500000300934,None,302.4042545000002,302.4042545000002,302.4042545000002,302.4042545000002,302.4042545000002,302.4042545000002,302.4042545000002,302.4042545000002,302.4042545000002,302.4042545000002,,006,P011,2025_Feb_08_1035,ConditionRich,2021.2.3,59.91608153619294,
272.0,275.75,25,0.75,Stimuli/P011/things_face_06s.jpg,0,0,0.0,0,121,121,121,,,,,,,,,,,,,272.00683930000014,0.006839300000137882,None,302.6544432999999,302.6544432999999,302.6544432999999,302.6544432999999,302.6544432999999,302.6544432999999,302.6544432999999,302.6544432999999,302.6544432999999,302.6544432999999,,006,P011,2025_Feb_08_1035,ConditionRich,2021.2.3,59.91608153619294,
275.75,276.0,41,0.0,Stimuli/Blank.png,0,0,0.0,0,122,122,122,,,,,,,,,,,,,275.7774935000007,0.02749350000067352,None,306.42445549999957,306.42445549999957,306.42445549999957,306.42445549999957,306.42445549999957,306.42445549999957,306.42445549999957,306.42445549999957,306.42445549999957,306.42445549999957,,006,P011,2025_Feb_08_1035,ConditionRich,2021.2.3,59.91608153619294,
276.0,292.0,0,0.0,Stimuli/Blank.png,1,13,13.75,0,123,123,123,,,,,,,,,,,,,276.02621700000054,0.026217000000542612,1,306.6580280999997,306.6580280999997,306.6580280999997,306.6580280999997,306.6580280999997,306.6580280999997,319.63615649999974,320.3868456,306.6580280999997,306.6580280999997,13.503434600000219,006,P011,2025_Feb_08_1035,ConditionRich,2021.2.3,59.91608153619294,
292.0,295.75,35,0.75,Stimuli/P011/things_raccoon_06n.jpg,0,0,0.0,0,124,124,124,,,,,,,,,,,,,292.0076097000001,0.007609700000102748,None,322.6555043999997,322.6555043999997,322.6555043999997,322.6555043999997,322.6555043999997,322.6555043999997,322.6555043999997,322.6555043999997,322.6555043999997,322.6555043999997,,006,P011,2025_Feb_08_1035,ConditionRich,2021.2.3,59.91608153619294,
295.75,296.0,41,0.0,Stimuli/Blank.png,0,0,0.0,0,125,125,125,,,,,,,,,,,,,295.7787085,0.028708499999993364,None,326.42545080000036,326.42545080000036,326.42545080000036,326.42545080000036,326.42545080000036,326.42545080000036,326.42545080000036,326.42545080000036,326.42545080000036,326.42545080000036,,006,P011,2025_Feb_08_1035,ConditionRich,2021.2.3,59.91608153619294,
296.0,299.75,15,0.75,Stimuli/P011/sun_bmngnyuahubpqroh.jpg,1,3,3.75,0,126,126,126,,,,,,,,,,,,,296.0272642,0.027264199999990524,1,326.6590070000002,326.6590070000002,326.6590070000002,326.6590070000002,326.6590070000002,326.6590070000002,329.6449663000003,None,326.6590070000002,326.6590070000002,3.4664781000001312,006,P011,2025_Feb_08_1035,ConditionRich,2021.2.3,59.91608153619294,
299.75,300.0,41,0.0,Stimuli/Blank.png,0,0,0.0,0,127,127,127,,,,,,,,,,,,,299.76338550000037,0.013385500000367756,None,330.39563350000026,330.39563350000026,330.39563350000026,330.39563350000026,330.39563350000026,330.39563350000026,330.39563350000026,330.39563350000026,330.39563350000026,330.39563350000026,,006,P011,2025_Feb_08_1035,ConditionRich,2021.2.3,59.91608153619294,
300.0,303.75,14,0.75,Stimuli/P011/sun_blybvkoucskrdgiv.jpg,1,2,2.75,0,128,128,128,,,,,,,,,,,,,300.014545,0.014544999999998254,1,330.64585650000026,330.64585650000026,330.64585650000026,330.64585650000026,330.64585650000026,330.64585650000026,332.63103799999953,333.38166160000037,330.64585650000026,330.64585650000026,2.8887338000004092,006,P011,2025_Feb_08_1035,ConditionRich,2021.2.3,59.91608153619294,
303.75,304.0,41,0.0,Stimuli/Blank.png,0,0,0.0,0,129,129,129,,,,,,,,,,,,,303.7503415000001,0.0003415000001041335,None,334.38249369999994,334.38249369999994,334.38249369999994,334.38249369999994,334.38249369999994,334.38249369999994,334.38249369999994,334.38249369999994,334.38249369999994,334.38249369999994,,006,P011,2025_Feb_08_1035,ConditionRich,2021.2.3,59.91608153619294,
304.0,307.75,18,0.75,Stimuli/P011/sun_bxlbxustiovyqyrg.jpg,0,0,0.0,0,130,130,130,,,,,,,,,,,,,304.0028534000003,0.0028534000002764515,None,334.6494008999998,334.6494008999998,334.6494008999998,334.6494008999998,334.6494008999998,334.6494008999998,334.6494008999998,334.6494008999998,334.6494008999998,334.6494008999998,,006,P011,2025_Feb_08_1035,ConditionRich,2021.2.3,59.91608153619294,
307.75,308.0,41,0.0,Stimuli/Blank.png,0,0,0.0,0,131,131,131,,,,,,,,,,,,,307.77252580000004,0.022525800000039453,None,338.4194018999997,338.4194018999997,338.4194018999997,338.4194018999997,338.4194018999997,338.4194018999997,338.4194018999997,338.4194018999997,338.4194018999997,338.4194018999997,,006,P011,2025_Feb_08_1035,ConditionRich,2021.2.3,59.91608153619294,
308.0,311.75,40,0.75,Stimuli/P011/things_woman_06s.jpg,1,1,1.75,0,132,132,132,,,,,,,,,,,,,308.0234145000004,0.02341450000039913,1,338.6696272999998,338.6696272999998,338.6696272999998,338.6696272999998,338.6696272999998,338.6696272999998,339.6538208000002,340.4044759999997,338.6696272999998,338.6696272999998,1.282839000000422,006,P011,2025_Feb_08_1035,ConditionRich,2021.2.3,59.91608153619294,
311.75,312.0,41,0.0,Stimuli/Blank.png,0,0,0.0,0,133,133,133,,,,,,,,,,,,,311.77410839999993,0.024108399999931862,None,342.40626040000006,342.40626040000006,342.40626040000006,342.40626040000006,342.40626040000006,342.40626040000006,342.40626040000006,342.40626040000006,342.40626040000006,342.40626040000006,,006,P011,2025_Feb_08_1035,ConditionRich,2021.2.3,59.91608153619294,
312.0,315.75,29,0.75,Stimuli/P011/things_gutter_06s.jpg,1,2,2.75,0,134,134,134,,,,,,,,,,,,,312.0081370000007,0.008137000000715489,1,342.6398114000003,342.6398114000003,342.6398114000003,342.6398114000003,342.6398114000003,342.6398114000003,344.62493040000027,345.37560349999967,342.6398114000003,342.6398114000003,2.3706867000000784,006,P011,2025_Feb_08_1035,ConditionRich,2021.2.3,59.91608153619294,
315.75,316.0,41,0.0,Stimuli/Blank.png,0,0,0.0,0,135,135,135,,,,,,,,,,,,,315.7629304000002,0.012930400000186637,None,346.4098114999997,346.4098114999997,346.4098114999997,346.4098114999997,346.4098114999997,346.4098114999997,346.4098114999997,346.4098114999997,346.4098114999997,346.4098114999997,,006,P011,2025_Feb_08_1035,ConditionRich,2021.2.3,59.91608153619294,
316.0,319.75,8,0.75,Stimuli/P011/sun_asppejhsplpizvag.jpg,0,0,0.0,0,136,136,136,,,,,,,,,,,,,316.02768900000046,0.027689000000464148,None,346.66002000000026,346.66002000000026,346.66002000000026,346.66002000000026,346.66002000000026,346.66002000000026,346.66002000000026,346.66002000000026,346.66002000000026,346.66002000000026,,006,P011,2025_Feb_08_1035,ConditionRich,2021.2.3,59.91608153619294,
319.75,320.0,41,0.0,Stimuli/Blank.png,0,0,0.0,0,137,137,137,,,,,,,,,,,,,319.76749310000014,0.01749310000013793,None,350.41335569999956,350.41335569999956,350.41335569999956,350.41335569999956,350.41335569999956,350.41335569999956,350.41335569999956,350.41335569999956,350.41335569999956,350.41335569999956,,006,P011,2025_Feb_08_1035,ConditionRich,2021.2.3,59.91608153619294,
320.0,323.75,21,0.75,Stimuli/P011/things_baby_06s.jpg,0,0,0.0,0,138,138,138,,,,,,,,,,,,,320.0157622000006,0.015762200000608573,None,350.66356050000013,350.66356050000013,350.66356050000013,350.66356050000013,350.66356050000013,350.66356050000013,350.66356050000013,350.66356050000013,350.66356050000013,350.66356050000013,,006,P011,2025_Feb_08_1035,ConditionRich,2021.2.3,59.91608153619294,
323.75,324.0,41,0.0,Stimuli/Blank.png,0,0,0.0,0,139,139,139,,,,,,,,,,,,,323.76821330000075,0.018213300000752497,None,354.40019849999953,354.40019849999953,354.40019849999953,354.40019849999953,354.40019849999953,354.40019849999953,354.40019849999953,354.40019849999953,354.40019849999953,354.40019849999953,,006,P011,2025_Feb_08_1035,ConditionRich,2021.2.3,59.91608153619294,
324.0,327.75,37,0.75,Stimuli/P011/things_spam_06s.jpg,0,0,0.0,0,140,140,140,,,,,,,,,,,,,324.0021456000004,0.002145600000403647,None,354.6504181,354.6504181,354.6504181,354.6504181,354.6504181,354.6504181,354.6504181,354.6504181,354.6504181,354.6504181,,006,P011,2025_Feb_08_1035,ConditionRich,2021.2.3,59.91608153619294,
327.75,328.0,41,0.0,Stimuli/Blank.png,0,0,0.0,0,141,141,141,,,,,,,,,,,,,327.7721453000004,0.022145300000374846,None,358.40374989999964,358.40374989999964,358.40374989999964,358.40374989999964,358.40374989999964,358.40374989999964,358.40374989999964,358.40374989999964,358.40374989999964,358.40374989999964,,006,P011,2025_Feb_08_1035,ConditionRich,2021.2.3,59.91608153619294,
328.0,331.75,26,0.75,Stimuli/P011/things_gazelle_06s.jpg,0,0,0.0,0,142,142,142,,,,,,,,,,,,,328.0073921000003,0.0073921000002883375,None,358.6539638000004,358.6539638000004,358.6539638000004,358.6539638000004,358.6539638000004,358.6539638000004,358.6539638000004,358.6539638000004,358.6539638000004,358.6539638000004,,006,P011,2025_Feb_08_1035,ConditionRich,2021.2.3,59.91608153619294,
331.75,332.0,41,0.0,Stimuli/Blank.png,0,0,0.0,0,143,143,143,,,,,,,,,,,,,331.77784410000004,0.027844100000038452,None,362.42397100000017,362.42397100000017,362.42397100000017,362.42397100000017,362.42397100000017,362.42397100000017,362.42397100000017,362.42397100000017,362.42397100000017,362.42397100000017,,006,P011,2025_Feb_08_1035,ConditionRich,2021.2.3,59.91608153619294,
332.0,335.75,12,0.75,Stimuli/P011/sun_bcesifdfuidnkdhl.jpg,0,0,0.0,0,144,144,144,,,,,,,,,,,,,332.0279470000005,0.02794700000049488,None,362.6741922000001,362.6741922000001,362.6741922000001,362.6741922000001,362.6741922000001,362.6741922000001,362.6741922000001,362.6741922000001,362.6741922000001,362.6741922000001,,006,P011,2025_Feb_08_1035,ConditionRich,2021.2.3,59.91608153619294,
335.75,336.0,41,0.0,Stimuli/Blank.png,0,0,0.0,0,145,145,145,,,,,,,,,,,,,335.7796782000005,0.029678200000489596,None,366.41082649999953,366.41082649999953,366.41082649999953,366.41082649999953,366.41082649999953,366.41082649999953,366.41082649999953,366.41082649999953,366.41082649999953,366.41082649999953,,006,P011,2025_Feb_08_1035,ConditionRich,2021.2.3,59.91608153619294,
336.0,339.75,17,0.75,Stimuli/P011/sun_btvwhlxbhcqnqzok.jpg,0,0,0.0,0,146,146,146,,,,,,,,,,,,,336.0133547000005,0.013354700000490993,None,366.66104350000023,366.66104350000023,366.66104350000023,366.66104350000023,366.66104350000023,366.66104350000023,366.66104350000023,366.66104350000023,366.66104350000023,366.66104350000023,,006,P011,2025_Feb_08_1035,ConditionRich,2021.2.3,59.91608153619294,
339.75,340.0,41,0.0,Stimuli/Blank.png,0,0,0.0,0,147,147,147,,,,,,,,,,,,,339.7676160000001,0.017616000000089116,None,370.41436840000006,370.41436840000006,370.41436840000006,370.41436840000006,370.41436840000006,370.41436840000006,370.41436840000006,370.41436840000006,370.41436840000006,370.41436840000006,,006,P011,2025_Feb_08_1035,ConditionRich,2021.2.3,59.91608153619294,
340.0,343.75,20,0.75,Stimuli/P011/sun_ciifteeudwpxupnw.jpg,0,0,0.0,0,148,148,148,,,,,,,,,,,,,340.0176140000003,0.01761400000032154,None,370.6646055000001,370.6646055000001,370.6646055000001,370.6646055000001,370.6646055000001,370.6646055000001,370.6646055000001,370.6646055000001,370.6646055000001,370.6646055000001,,006,P011,2025_Feb_08_1035,ConditionRich,2021.2.3,59.91608153619294,
343.75,344.0,41,0.0,Stimuli/Blank.png,0,0,0.0,0,149,149,149,,,,,,,,,,,,,343.76905140000054,0.019051400000535068,None,374.4012294000004,374.4012294000004,374.4012294000004,374.4012294000004,374.4012294000004,374.4012294000004,374.4012294000004,374.4012294000004,374.4012294000004,374.4012294000004,,006,P011,2025_Feb_08_1035,ConditionRich,2021.2.3,59.91608153619294,
344.0,347.75,9,0.75,Stimuli/P011/sun_aupohozmrmtfgcsw.jpg,0,0,0.0,0,150,150,150,,,,,,,,,,,,,344.00334230000044,0.0033423000004404457,None,374.65146339999956,374.65146339999956,374.65146339999956,374.65146339999956,374.65146339999956,374.65146339999956,374.65146339999956,374.65146339999956,374.65146339999956,374.65146339999956,,006,P011,2025_Feb_08_1035,ConditionRich,2021.2.3,59.91608153619294,
347.75,348.0,41,0.0,Stimuli/Blank.png,0,0,0.0,0,151,151,151,,,,,,,,,,,,,347.77319680000073,0.023196800000732765,None,378.40477290000035,378.40477290000035,378.40477290000035,378.40477290000035,378.40477290000035,378.40477290000035,378.40477290000035,378.40477290000035,378.40477290000035,378.40477290000035,,006,P011,2025_Feb_08_1035,ConditionRich,2021.2.3,59.91608153619294,
348.0,351.75,38,0.75,Stimuli/P011/things_squeegee_06s.jpg,0,0,0.0,0,152,152,152,,,,,,,,,,,,,348.0079258000005,0.007925800000521122,None,378.6549957999996,378.6549957999996,378.6549957999996,378.6549957999996,378.6549957999996,378.6549957999996,378.6549957999996,378.6549957999996,378.6549957999996,378.6549957999996,,006,P011,2025_Feb_08_1035,ConditionRich,2021.2.3,59.91608153619294,
351.75,352.0,41,0.0,Stimuli/Blank.png,0,0,0.0,0,153,153,153,,,,,,,,,,,,,351.77789290000055,0.02789290000055189,None,382.42500199999995,382.42500199999995,382.42500199999995,382.42500199999995,382.42500199999995,382.42500199999995,382.42500199999995,382.42500199999995,382.42500199999995,382.42500199999995,,006,P011,2025_Feb_08_1035,ConditionRich,2021.2.3,59.91608153619294,
352.0,355.75,23,0.75,Stimuli/P011/things_clove_06s.jpg,0,0,0.0,0,154,154,154,,,,,,,,,,,,,352.02785459999996,0.0278545999999551,None,382.6752250999998,382.6752250999998,382.6752250999998,382.6752250999998,382.6752250999998,382.6752250999998,382.6752250999998,382.6752250999998,382.6752250999998,382.6752250999998,,006,P011,2025_Feb_08_1035,ConditionRich,2021.2.3,59.91608153619294,
355.75,356.0,41,0.0,Stimuli/Blank.png,0,0,0.0,0,155,155,155,,,,,,,,,,,,,355.78247960000044,0.03247960000044259,None,386.4284968000002,386.4284968000002,386.4284968000002,386.4284968000002,386.4284968000002,386.4284968000002,386.4284968000002,386.4284968000002,386.4284968000002,386.4284968000002,,006,P011,2025_Feb_08_1035,ConditionRich,2021.2.3,59.91608153619294,
356.0,359.75,11,0.75,Stimuli/P011/sun_baylllqlgfvxilor.jpg,0,0,0.0,0,156,156,156,,,,,,,,,,,,,356.0130960000006,0.013096000000587082,None,386.6453904,386.6453904,386.6453904,386.6453904,386.6453904,386.6453904,386.6453904,386.6453904,386.6453904,386.6453904,,006,P011,2025_Feb_08_1035,ConditionRich,2021.2.3,59.91608153619294,
359.75,360.0,41,0.0,Stimuli/Blank.png,0,0,0.0,0,157,157,157,,,,,,,,,,,,,359.7527755000001,0.0027755000000979635,None,390.3987145000001,390.3987145000001,390.3987145000001,390.3987145000001,390.3987145000001,390.3987145000001,390.3987145000001,390.3987145000001,390.3987145000001,390.3987145000001,,006,P011,2025_Feb_08_1035,ConditionRich,2021.2.3,59.91608153619294,
360.0,363.75,16,0.75,Stimuli/P011/sun_bpuwvyadswjfoaby.jpg,0,0,0.0,0,158,158,158,,,,,,,,,,,,,360.0179424000007,0.017942400000720227,None,390.66565420000006,390.66565420000006,390.66565420000006,390.66565420000006,390.66565420000006,390.66565420000006,390.66565420000006,390.66565420000006,390.66565420000006,390.66565420000006,,006,P011,2025_Feb_08_1035,ConditionRich,2021.2.3,59.91608153619294,
363.75,364.0,41,0.0,Stimuli/Blank.png,0,0,0.0,0,159,159,159,,,,,,,,,,,,,363.77079310000045,0.02079310000044643,None,394.4022549000001,394.4022549000001,394.4022549000001,394.4022549000001,394.4022549000001,394.4022549000001,394.4022549000001,394.4022549000001,394.4022549000001,394.4022549000001,,006,P011,2025_Feb_08_1035,ConditionRich,2021.2.3,59.91608153619294,
364.0,367.75,22,0.75,Stimuli/P011/things_boy_06s.jpg,0,0,0.0,0,160,160,160,,,,,,,,,,,,,364.0040549000005,0.0040549000004830305,None,394.6524827000003,394.6524827000003,394.6524827000003,394.6524827000003,394.6524827000003,394.6524827000003,394.6524827000003,394.6524827000003,394.6524827000003,394.6524827000003,,006,P011,2025_Feb_08_1035,ConditionRich,2021.2.3,59.91608153619294,
367.75,368.0,41,0.0,Stimuli/Blank.png,0,0,0.0,0,161,161,161,,,,,,,,,,,,,367.7746007000005,0.024600700000519282,None,398.4058593999998,398.4058593999998,398.4058593999998,398.4058593999998,398.4058593999998,398.4058593999998,398.4058593999998,398.4058593999998,398.4058593999998,398.4058593999998,,006,P011,2025_Feb_08_1035,ConditionRich,2021.2.3,59.91608153619294,
368.0,371.75,39,0.75,Stimuli/P011/things_thermometer_06s.jpg,1,1,1.75,0,162,162,162,,,,,,,,,,,,,368.0076789000004,0.007678900000428257,None,398.6560147,398.6560147,398.6560147,398.6560147,398.6560147,398.6560147,399.6235225999999,400.3741847000001,398.6560147,398.6560147,,006,P011,2025_Feb_08_1035,ConditionRich,2021.2.3,59.91608153619294,
371.75,372.0,41,0.0,Stimuli/Blank.png,0,0,0.0,0,163,163,163,,,,,,,,,,,,,371.7778679000003,0.02786790000027395,None,402.4093296000001,402.4093296000001,402.4093296000001,402.4093296000001,402.4093296000001,402.4093296000001,402.4093296000001,402.4093296000001,402.4093296000001,402.4093296000001,,006,P011,2025_Feb_08_1035,ConditionRich,2021.2.3,59.91608153619294,
372.0,388.0,0,0.0,Stimuli/Blank.png,1,9,9.75,0,164,164,164,,,,,,,,,,,,,372.0130624000003,0.013062400000308116,1,402.6595533999998,402.6595533999998,402.6595533999998,402.6595533999998,402.6595533999998,402.6595533999998,411.6341475999998,412.38481709999996,402.6595533999998,402.6595533999998,9.470018699999855,006,P011,2025_Feb_08_1035,ConditionRich,2021.2.3,59.91608153619294,
