eventStartTime,eventEndTime,eventCond,imSize,imFile,responseEvent,fixRespStart,fixRespEnd,Events.thisRepN,Events.thisTrialN,Events.thisN,Events.thisIndex,Instructions.started,Instructions.stopped,participantReadyResponse.keys,participantReadyResponse.rt,participantReadyResponse.started,participantReadyResponse.stopped,startWaitforTrigger,triggerResponse.keys,triggerResponse.rt,triggerResponse.started,triggerResponse.stopped,globalTimer,actualStartTime,startTimingDiff,participantResponse.keys,participantResponse.started,participantResponse.stopped,image.started,image.stopped,fixationOutside.started,fixationOutside.stopped,fixationResponse.started,fixationResponse.stopped,fixationInside.started,fixationInside.stopped,participantResponse.rt,session,participant,date,expName,psychopyVersion,frameRate,
,,,,,,,,,,,,14.982591800000137,None,1,3.816711899999973,14.982591800000137,None,,,,,,,,,,,,,,,,,,,,,003,P011,2025_Feb_08_1008,ConditionRich,2021.2.3,59.94506634124272,
,,,,,,,,,,,,,,,,,,18.803602299999966,5,16.272829900000033,18.816746299999977,None,,,,,,,,,,,,,,,,003,P011,2025_Feb_08_1008,ConditionRich,2021.2.3,59.94506634124272,
0.0,4.0,0,0.0,Stimuli/Blank.png,0,0,0.0,0,0,0,0,,,,,,,,,,,,35.10136730000022,0.03404649999993126,0.03404649999993126,None,35.14785090000032,None,35.14785090000032,None,35.14785090000032,None,35.14785090000032,35.14785090000032,35.14785090000032,None,,003,P011,2025_Feb_08_1008,ConditionRich,2021.2.3,59.94506634124272,
4.0,7.75,30,0.75,Stimuli/P011/things_hamburger_06s.jpg,1,1,1.75,0,1,1,1,,,,,,,,,,,,,4.0037045999997645,0.0037045999997644685,1,39.118424400000094,39.118424400000094,39.118424400000094,39.118424400000094,39.118424400000094,39.118424400000094,40.10240780000004,40.853162800000064,39.118424400000094,39.118424400000094,1.234005299999808,003,P011,2025_Feb_08_1008,ConditionRich,2021.2.3,59.94506634124272,
7.75,8.0,41,0.0,Stimuli/Blank.png,0,0,0.0,0,2,2,2,,,,,,,,,,,,,7.75687889999972,0.006878899999719579,None,42.87184270000034,42.87184270000034,42.87184270000034,42.87184270000034,42.87184270000034,42.87184270000034,42.87184270000034,42.87184270000034,42.87184270000034,42.87184270000034,,003,P011,2025_Feb_08_1008,ConditionRich,2021.2.3,59.94506634124272,
8.0,11.75,37,0.75,Stimuli/P011/things_spam_06s.jpg,0,0,0.0,0,3,3,3,,,,,,,,,,,,,8.006499000000076,0.006499000000076194,None,43.12174060000007,43.12174060000007,43.12174060000007,43.12174060000007,43.12174060000007,43.12174060000007,43.12174060000007,43.12174060000007,43.12174060000007,43.12174060000007,,003,P011,2025_Feb_08_1008,ConditionRich,2021.2.3,59.94506634124272,
11.75,12.0,41,0.0,Stimuli/Blank.png,0,0,0.0,0,4,4,4,,,,,,,,,,,,,11.760674799999833,0.01067479999983334,None,46.89184430000023,46.89184430000023,46.89184430000023,46.89184430000023,46.89184430000023,46.89184430000023,46.89184430000023,46.89184430000023,46.89184430000023,46.89184430000023,,003,P011,2025_Feb_08_1008,ConditionRich,2021.2.3,59.94506634124272,
12.0,15.75,1,0.75,Stimuli/P011/sun_aeakbqnvptdnxtno.jpg,0,0,0.0,0,5,5,5,,,,,,,,,,,,,12.02603309999995,0.026033099999949627,None,47.14204230000041,47.14204230000041,47.14204230000041,47.14204230000041,47.14204230000041,47.14204230000041,47.14204230000041,47.14204230000041,47.14204230000041,47.14204230000041,,003,P011,2025_Feb_08_1008,ConditionRich,2021.2.3,59.94506634124272,
15.75,16.0,41,0.0,Stimuli/Blank.png,0,0,0.0,0,6,6,6,,,,,,,,,,,,,15.76352050000014,0.0135205000001406,None,50.87870840000005,50.87870840000005,50.87870840000005,50.87870840000005,50.87870840000005,50.87870840000005,50.87870840000005,50.87870840000005,50.87870840000005,50.87870840000005,,003,P011,2025_Feb_08_1008,ConditionRich,2021.2.3,59.94506634124272,
16.0,19.75,20,0.75,Stimuli/P011/sun_ciifteeudwpxupnw.jpg,0,0,0.0,0,7,7,7,,,,,,,,,,,,,16.015409199999795,0.01540919999979451,None,51.1455919,51.1455919,51.1455919,51.1455919,51.1455919,51.1455919,51.1455919,51.1455919,51.1455919,51.1455919,,003,P011,2025_Feb_08_1008,ConditionRich,2021.2.3,59.94506634124272,
19.75,20.0,41,0.0,Stimuli/Blank.png,0,0,0.0,0,8,8,8,,,,,,,,,,,,,19.766280899999856,0.016280899999856047,None,54.88223240000025,54.88223240000025,54.88223240000025,54.88223240000025,54.88223240000025,54.88223240000025,54.88223240000025,54.88223240000025,54.88223240000025,54.88223240000025,,003,P011,2025_Feb_08_1008,ConditionRich,2021.2.3,59.94506634124272,
20.0,23.75,11,0.75,Stimuli/P011/sun_baylllqlgfvxilor.jpg,0,0,0.0,0,9,9,9,,,,,,,,,,,,,20.000184399999853,0.0001843999998527579,None,55.11572840000008,55.11572840000008,55.11572840000008,55.11572840000008,55.11572840000008,55.11572840000008,55.11572840000008,55.11572840000008,55.11572840000008,55.11572840000008,,003,P011,2025_Feb_08_1008,ConditionRich,2021.2.3,59.94506634124272,
23.75,24.0,41,0.0,Stimuli/Blank.png,0,0,0.0,0,10,10,10,,,,,,,,,,,,,23.754122199999983,0.0041221999999834225,None,58.8691117000003,58.8691117000003,58.8691117000003,58.8691117000003,58.8691117000003,58.8691117000003,58.8691117000003,58.8691117000003,58.8691117000003,58.8691117000003,,003,P011,2025_Feb_08_1008,ConditionRich,2021.2.3,59.94506634124272,
24.0,27.75,2,0.75,Stimuli/P011/sun_aewhvqonribwlxiq.jpg,0,0,0.0,0,11,11,11,,,,,,,,,,,,,24.00337679999984,0.003376799999841751,None,59.13599120000026,59.13599120000026,59.13599120000026,59.13599120000026,59.13599120000026,59.13599120000026,59.13599120000026,59.13599120000026,59.13599120000026,59.13599120000026,,003,P011,2025_Feb_08_1008,ConditionRich,2021.2.3,59.94506634124272,
27.75,28.0,41,0.0,Stimuli/Blank.png,0,0,0.0,0,12,12,12,,,,,,,,,,,,,27.77541029999975,0.02541029999974853,None,62.906002400000034,62.906002400000034,62.906002400000034,62.906002400000034,62.906002400000034,62.906002400000034,62.906002400000034,62.906002400000034,62.906002400000034,62.906002400000034,,003,P011,2025_Feb_08_1008,ConditionRich,2021.2.3,59.94506634124272,
28.0,31.75,24,0.75,Stimuli/P011/things_doily_06s.jpg,0,0,0.0,0,13,13,13,,,,,,,,,,,,,28.024841500000093,0.02484150000009322,None,63.15623480000022,63.15623480000022,63.15623480000022,63.15623480000022,63.15623480000022,63.15623480000022,63.15623480000022,63.15623480000022,63.15623480000022,63.15623480000022,,003,P011,2025_Feb_08_1008,ConditionRich,2021.2.3,59.94506634124272,
31.75,32.0,41,0.0,Stimuli/Blank.png,0,0,0.0,0,14,14,14,,,,,,,,,,,,,31.776951400000144,0.02695140000014362,None,66.89286300000003,66.89286300000003,66.89286300000003,66.89286300000003,66.89286300000003,66.89286300000003,66.89286300000003,66.89286300000003,66.89286300000003,66.89286300000003,,003,P011,2025_Feb_08_1008,ConditionRich,2021.2.3,59.94506634124272,
32.0,35.75,32,0.75,Stimuli/P011/things_hood_06s.jpg,0,0,0.0,0,15,15,15,,,,,,,,,,,,,32.01123329999973,0.011233299999730662,None,67.14310320000004,67.14310320000004,67.14310320000004,67.14310320000004,67.14310320000004,67.14310320000004,67.14310320000004,67.14310320000004,67.14310320000004,67.14310320000004,,003,P011,2025_Feb_08_1008,ConditionRich,2021.2.3,59.94506634124272,
35.75,36.0,41,0.0,Stimuli/Blank.png,0,0,0.0,0,16,16,16,,,,,,,,,,,,,35.781420100000105,0.03142010000010487,None,70.91309650000039,70.91309650000039,70.91309650000039,70.91309650000039,70.91309650000039,70.91309650000039,70.91309650000039,70.91309650000039,70.91309650000039,70.91309650000039,,003,P011,2025_Feb_08_1008,ConditionRich,2021.2.3,59.94506634124272,
36.0,39.75,13,0.75,Stimuli/P011/sun_bjedvzikugwleyer.jpg,0,0,0.0,0,17,17,17,,,,,,,,,,,,,36.03112259999989,0.031122599999889644,None,71.14659240000037,71.14659240000037,71.14659240000037,71.14659240000037,71.14659240000037,71.14659240000037,71.14659240000037,71.14659240000037,71.14659240000037,71.14659240000037,,003,P011,2025_Feb_08_1008,ConditionRich,2021.2.3,59.94506634124272,
39.75,40.0,41,0.0,Stimuli/Blank.png,0,0,0.0,0,18,18,18,,,,,,,,,,,,,39.751662600000145,0.0016626000001451757,None,74.8665860000001,74.8665860000001,74.8665860000001,74.8665860000001,74.8665860000001,74.8665860000001,74.8665860000001,74.8665860000001,74.8665860000001,74.8665860000001,,003,P011,2025_Feb_08_1008,ConditionRich,2021.2.3,59.94506634124272,
40.0,43.75,19,0.75,Stimuli/P011/sun_byvwakrdyukjigpc.jpg,1,1,1.75,0,19,19,19,,,,,,,,,,,,,40.00227790000008,0.00227790000008099,1,75.11680500000011,75.11680500000011,75.11680500000011,75.11680500000011,75.11680500000011,75.11680500000011,76.10100210000019,76.8516596000004,75.11680500000011,75.11680500000011,1.5335540000000947,003,P011,2025_Feb_08_1008,ConditionRich,2021.2.3,59.94506634124272,
43.75,44.0,41,0.0,Stimuli/Blank.png,0,0,0.0,0,20,20,20,,,,,,,,,,,,,43.75490630000013,0.004906300000129704,None,78.87012400000003,78.87012400000003,78.87012400000003,78.87012400000003,78.87012400000003,78.87012400000003,78.87012400000003,78.87012400000003,78.87012400000003,78.87012400000003,,003,P011,2025_Feb_08_1008,ConditionRich,2021.2.3,59.94506634124272,
44.0,47.75,40,0.75,Stimuli/P011/things_woman_06s.jpg,0,0,0.0,0,21,21,21,,,,,,,,,,,,,44.00450799999999,0.004507999999987078,None,79.12034410000024,79.12034410000024,79.12034410000024,79.12034410000024,79.12034410000024,79.12034410000024,79.12034410000024,79.12034410000024,79.12034410000024,79.12034410000024,,003,P011,2025_Feb_08_1008,ConditionRich,2021.2.3,59.94506634124272,
47.75,48.0,41,0.0,Stimuli/Blank.png,0,0,0.0,0,22,22,22,,,,,,,,,,,,,47.75768059999973,0.007680599999730475,None,82.87365930000033,82.87365930000033,82.87365930000033,82.87365930000033,82.87365930000033,82.87365930000033,82.87365930000033,82.87365930000033,82.87365930000033,82.87365930000033,,003,P011,2025_Feb_08_1008,ConditionRich,2021.2.3,59.94506634124272,
48.0,51.75,38,0.75,Stimuli/P011/things_squeegee_06s.jpg,0,0,0.0,0,23,23,23,,,,,,,,,,,,,48.00930040000003,0.009300400000029185,None,83.1405665000002,83.1405665000002,83.1405665000002,83.1405665000002,83.1405665000002,83.1405665000002,83.1405665000002,83.1405665000002,83.1405665000002,83.1405665000002,,003,P011,2025_Feb_08_1008,ConditionRich,2021.2.3,59.94506634124272,
51.75,52.0,41,0.0,Stimuli/Blank.png,0,0,0.0,0,24,24,24,,,,,,,,,,,,,51.78061350000007,0.030613500000072236,None,86.91058280000016,86.91058280000016,86.91058280000016,86.91058280000016,86.91058280000016,86.91058280000016,86.91058280000016,86.91058280000016,86.91058280000016,86.91058280000016,,003,P011,2025_Feb_08_1008,ConditionRich,2021.2.3,59.94506634124272,
52.0,55.75,29,0.75,Stimuli/P011/things_gutter_06s.jpg,0,0,0.0,0,25,25,25,,,,,,,,,,,,,52.03106960000014,0.031069600000137143,None,87.16079490000038,87.16079490000038,87.16079490000038,87.16079490000038,87.16079490000038,87.16079490000038,87.16079490000038,87.16079490000038,87.16079490000038,87.16079490000038,,003,P011,2025_Feb_08_1008,ConditionRich,2021.2.3,59.94506634124272,
55.75,56.0,41,0.0,Stimuli/Blank.png,0,0,0.0,0,26,26,26,,,,,,,,,,,,,55.764751499999875,0.014751499999874795,None,90.88074490000008,90.88074490000008,90.88074490000008,90.88074490000008,90.88074490000008,90.88074490000008,90.88074490000008,90.88074490000008,90.88074490000008,90.88074490000008,,003,P011,2025_Feb_08_1008,ConditionRich,2021.2.3,59.94506634124272,
56.0,59.75,9,0.75,Stimuli/P011/sun_aupohozmrmtfgcsw.jpg,1,2,2.75,0,27,27,27,,,,,,,,,,,,,56.01563869999973,0.01563869999972667,1,91.1309781,91.1309781,91.1309781,91.1309781,91.1309781,91.1309781,93.1160547000004,93.86672190000036,91.1309781,91.1309781,2.534393100000216,003,P011,2025_Feb_08_1008,ConditionRich,2021.2.3,59.94506634124272,
59.75,60.0,41,0.0,Stimuli/Blank.png,0,0,0.0,0,28,28,28,,,,,,,,,,,,,59.75165310000011,0.0016531000001123175,None,94.8676072000003,94.8676072000003,94.8676072000003,94.8676072000003,94.8676072000003,94.8676072000003,94.8676072000003,94.8676072000003,94.8676072000003,94.8676072000003,,003,P011,2025_Feb_08_1008,ConditionRich,2021.2.3,59.94506634124272,
60.0,63.75,27,0.75,Stimuli/P011/things_girl_06s.jpg,0,0,0.0,0,29,29,29,,,,,,,,,,,,,60.001928300000145,0.0019283000001451,None,95.11782470000026,95.11782470000026,95.11782470000026,95.11782470000026,95.11782470000026,95.11782470000026,95.11782470000026,95.11782470000026,95.11782470000026,95.11782470000026,,003,P011,2025_Feb_08_1008,ConditionRich,2021.2.3,59.94506634124272,
63.75,64.0,41,0.0,Stimuli/Blank.png,0,0,0.0,0,30,30,30,,,,,,,,,,,,,63.75595879999992,0.005958799999916664,None,98.87116360000027,98.87116360000027,98.87116360000027,98.87116360000027,98.87116360000027,98.87116360000027,98.87116360000027,98.87116360000027,98.87116360000027,98.87116360000027,,003,P011,2025_Feb_08_1008,ConditionRich,2021.2.3,59.94506634124272,
64.0,67.75,4,0.75,Stimuli/P011/sun_akpdzjejmtbfopdt.jpg,0,0,0.0,0,31,31,31,,,,,,,,,,,,,64.00633930000004,0.006339300000036019,None,99.12137900000016,99.12137900000016,99.12137900000016,99.12137900000016,99.12137900000016,99.12137900000016,99.12137900000016,99.12137900000016,99.12137900000016,99.12137900000016,,003,P011,2025_Feb_08_1008,ConditionRich,2021.2.3,59.94506634124272,
67.75,68.0,41,0.0,Stimuli/Blank.png,0,0,0.0,0,32,32,32,,,,,,,,,,,,,67.76014059999989,0.010140599999886035,None,102.8746943000001,102.8746943000001,102.8746943000001,102.8746943000001,102.8746943000001,102.8746943000001,102.8746943000001,102.8746943000001,102.8746943000001,102.8746943000001,,003,P011,2025_Feb_08_1008,ConditionRich,2021.2.3,59.94506634124272,
68.0,71.75,17,0.75,Stimuli/P011/sun_btvwhlxbhcqnqzok.jpg,0,0,0.0,0,33,33,33,,,,,,,,,,,,,68.01085359999979,0.010853599999791186,None,103.14159730000029,103.14159730000029,103.14159730000029,103.14159730000029,103.14159730000029,103.14159730000029,103.14159730000029,103.14159730000029,103.14159730000029,103.14159730000029,,003,P011,2025_Feb_08_1008,ConditionRich,2021.2.3,59.94506634124272,
71.75,72.0,41,0.0,Stimuli/Blank.png,0,0,0.0,0,34,34,34,,,,,,,,,,,,,71.78173509999988,0.031735099999878,None,106.91160440000021,106.91160440000021,106.91160440000021,106.91160440000021,106.91160440000021,106.91160440000021,106.91160440000021,106.91160440000021,106.91160440000021,106.91160440000021,,003,P011,2025_Feb_08_1008,ConditionRich,2021.2.3,59.94506634124272,
72.0,75.75,5,0.75,Stimuli/P011/sun_anfwllcezhlypoti.jpg,0,0,0.0,0,35,35,35,,,,,,,,,,,,,72.03253589999986,0.032535899999857065,None,107.16183040000033,107.16183040000033,107.16183040000033,107.16183040000033,107.16183040000033,107.16183040000033,107.16183040000033,107.16183040000033,107.16183040000033,107.16183040000033,,003,P011,2025_Feb_08_1008,ConditionRich,2021.2.3,59.94506634124272,
75.75,76.0,41,0.0,Stimuli/Blank.png,0,0,0.0,0,36,36,36,,,,,,,,,,,,,75.76698020000003,0.01698020000003453,None,110.89848810000012,110.89848810000012,110.89848810000012,110.89848810000012,110.89848810000012,110.89848810000012,110.89848810000012,110.89848810000012,110.89848810000012,110.89848810000012,,003,P011,2025_Feb_08_1008,ConditionRich,2021.2.3,59.94506634124272,
76.0,79.75,14,0.75,Stimuli/P011/sun_blybvkoucskrdgiv.jpg,1,1,1.75,0,37,37,37,,,,,,,,,,,,,76.01619829999981,0.01619829999981448,1,111.13199520000035,111.13199520000035,111.13199520000035,111.13199520000035,111.13199520000035,111.13199520000035,112.11619370000017,112.8668574000003,111.13199520000035,111.13199520000035,1.5783783000001677,003,P011,2025_Feb_08_1008,ConditionRich,2021.2.3,59.94506634124272,
79.75,80.0,41,0.0,Stimuli/Blank.png,0,0,0.0,0,38,38,38,,,,,,,,,,,,,79.75570819999984,0.00570819999984451,None,114.88532470000018,114.88532470000018,114.88532470000018,114.88532470000018,114.88532470000018,114.88532470000018,114.88532470000018,114.88532470000018,114.88532470000018,114.88532470000018,,003,P011,2025_Feb_08_1008,ConditionRich,2021.2.3,59.94506634124272,
80.0,83.75,6,0.75,Stimuli/P011/sun_aqysdudvyxnkcxgq.jpg,0,0,0.0,0,39,39,39,,,,,,,,,,,,,80.0202648999998,0.020264899999801855,None,115.15221050000036,115.15221050000036,115.15221050000036,115.15221050000036,115.15221050000036,115.15221050000036,115.15221050000036,115.15221050000036,115.15221050000036,115.15221050000036,,003,P011,2025_Feb_08_1008,ConditionRich,2021.2.3,59.94506634124272,
83.75,84.0,41,0.0,Stimuli/Blank.png,0,0,0.0,0,40,40,40,,,,,,,,,,,,,83.77584479999996,0.025844799999958923,None,118.90561350000007,118.90561350000007,118.90561350000007,118.90561350000007,118.90561350000007,118.90561350000007,118.90561350000007,118.90561350000007,118.90561350000007,118.90561350000007,,003,P011,2025_Feb_08_1008,ConditionRich,2021.2.3,59.94506634124272,
84.0,100.0,0,0.0,Stimuli/Blank.png,1,7,7.75,0,41,41,41,,,,,,,,,,,,,84.02398579999999,0.023985799999991286,1,119.13909380000041,119.13909380000041,119.13909380000041,119.13909380000041,119.13909380000041,119.13909380000041,126.12864050000007,126.87927290000016,119.13909380000041,119.13909380000041,7.429719300000215,003,P011,2025_Feb_08_1008,ConditionRich,2021.2.3,59.94506634124272,
100.0,103.75,18,0.75,Stimuli/P011/sun_bxlbxustiovyqyrg.jpg,0,0,0.0,0,42,42,42,,,,,,,,,,,,,100.00610719999986,0.006107199999860313,None,135.1365738000004,135.1365738000004,135.1365738000004,135.1365738000004,135.1365738000004,135.1365738000004,135.1365738000004,135.1365738000004,135.1365738000004,135.1365738000004,,003,P011,2025_Feb_08_1008,ConditionRich,2021.2.3,59.94506634124272,
103.75,104.0,41,0.0,Stimuli/Blank.png,0,0,0.0,0,43,43,43,,,,,,,,,,,,,103.77687789999982,0.0268778999998176,None,138.90656900000022,138.90656900000022,138.90656900000022,138.90656900000022,138.90656900000022,138.90656900000022,138.90656900000022,138.90656900000022,138.90656900000022,138.90656900000022,,003,P011,2025_Feb_08_1008,ConditionRich,2021.2.3,59.94506634124272,
104.0,107.75,16,0.75,Stimuli/P011/sun_bpuwvyadswjfoaby.jpg,1,0,0.75,0,44,44,44,,,,,,,,,,,,,104.02614489999996,0.026144899999962945,1,139.1567989,139.1567989,139.1567989,139.1567989,139.1567989,139.1567989,139.1567989,139.8907647000001,139.1567989,139.1567989,0.9147342000001117,003,P011,2025_Feb_08_1008,ConditionRich,2021.2.3,59.94506634124272,
107.75,108.0,41,0.0,Stimuli/Blank.png,0,0,0.0,0,45,45,45,,,,,,,,,,,,,107.77914359999977,0.02914359999977023,None,142.89344700000038,142.89344700000038,142.89344700000038,142.89344700000038,142.89344700000038,142.89344700000038,142.89344700000038,142.89344700000038,142.89344700000038,142.89344700000038,,003,P011,2025_Feb_08_1008,ConditionRich,2021.2.3,59.94506634124272,
108.0,111.75,7,0.75,Stimuli/P011/sun_arugqgwhwdjxezyt.jpg,0,0,0.0,0,46,46,46,,,,,,,,,,,,,108.01115559999971,0.01115559999971083,None,143.12696730000016,143.12696730000016,143.12696730000016,143.12696730000016,143.12696730000016,143.12696730000016,143.12696730000016,143.12696730000016,143.12696730000016,143.12696730000016,,003,P011,2025_Feb_08_1008,ConditionRich,2021.2.3,59.94506634124272,
111.75,112.0,41,0.0,Stimuli/Blank.png,0,0,0.0,0,47,47,47,,,,,,,,,,,,,111.76542139999992,0.015421399999922869,None,146.8802965,146.8802965,146.8802965,146.8802965,146.8802965,146.8802965,146.8802965,146.8802965,146.8802965,146.8802965,,003,P011,2025_Feb_08_1008,ConditionRich,2021.2.3,59.94506634124272,
112.0,115.75,10,0.75,Stimuli/P011/sun_awufkrkrdrdbvvis.jpg,0,0,0.0,0,48,48,48,,,,,,,,,,,,,112.01522650000015,0.015226500000153464,None,147.1472289000003,147.1472289000003,147.1472289000003,147.1472289000003,147.1472289000003,147.1472289000003,147.1472289000003,147.1472289000003,147.1472289000003,147.1472289000003,,003,P011,2025_Feb_08_1008,ConditionRich,2021.2.3,59.94506634124272,
115.75,116.0,41,0.0,Stimuli/Blank.png,0,0,0.0,0,49,49,49,,,,,,,,,,,,,115.76782809999986,0.01782809999986057,None,150.8839293000001,150.8839293000001,150.8839293000001,150.8839293000001,150.8839293000001,150.8839293000001,150.8839293000001,150.8839293000001,150.8839293000001,150.8839293000001,,003,P011,2025_Feb_08_1008,ConditionRich,2021.2.3,59.94506634124272,
116.0,119.75,28,0.75,Stimuli/P011/things_grasshopper_06s.jpg,0,0,0.0,0,50,50,50,,,,,,,,,,,,,116.00222559999975,0.002225599999746919,None,151.1173700000004,151.1173700000004,151.1173700000004,151.1173700000004,151.1173700000004,151.1173700000004,151.1173700000004,151.1173700000004,151.1173700000004,151.1173700000004,,003,P011,2025_Feb_08_1008,ConditionRich,2021.2.3,59.94506634124272,
119.75,120.0,41,0.0,Stimuli/Blank.png,0,0,0.0,0,51,51,51,,,,,,,,,,,,,119.75462049999987,0.004620499999873573,None,154.87069670000028,154.87069670000028,154.87069670000028,154.87069670000028,154.87069670000028,154.87069670000028,154.87069670000028,154.87069670000028,154.87069670000028,154.87069670000028,,003,P011,2025_Feb_08_1008,ConditionRich,2021.2.3,59.94506634124272,
120.0,123.75,33,0.75,Stimuli/P011/things_hot-air_balloon_06s.jpg,0,0,0.0,0,52,52,52,,,,,,,,,,,,,120.00572329999977,0.00572329999977228,None,155.12104260000024,155.12104260000024,155.12104260000024,155.12104260000024,155.12104260000024,155.12104260000024,155.12104260000024,155.12104260000024,155.12104260000024,155.12104260000024,,003,P011,2025_Feb_08_1008,ConditionRich,2021.2.3,59.94506634124272,
123.75,124.0,41,0.0,Stimuli/Blank.png,0,0,0.0,0,53,53,53,,,,,,,,,,,,,123.75828829999955,0.008288299999549054,None,158.87424310000006,158.87424310000006,158.87424310000006,158.87424310000006,158.87424310000006,158.87424310000006,158.87424310000006,158.87424310000006,158.87424310000006,158.87424310000006,,003,P011,2025_Feb_08_1008,ConditionRich,2021.2.3,59.94506634124272,
124.0,127.75,34,0.75,Stimuli/P011/things_polar_bear_06s.jpg,0,0,0.0,0,54,54,54,,,,,,,,,,,,,124.00907709999956,0.009077099999558413,None,159.12446180000006,159.12446180000006,159.12446180000006,159.12446180000006,159.12446180000006,159.12446180000006,159.12446180000006,159.12446180000006,159.12446180000006,159.12446180000006,,003,P011,2025_Feb_08_1008,ConditionRich,2021.2.3,59.94506634124272,
127.75,128.0,41,0.0,Stimuli/Blank.png,0,0,0.0,0,55,55,55,,,,,,,,,,,,,127.76218880000033,0.012188800000330957,None,162.87779339999997,162.87779339999997,162.87779339999997,162.87779339999997,162.87779339999997,162.87779339999997,162.87779339999997,162.87779339999997,162.87779339999997,162.87779339999997,,003,P011,2025_Feb_08_1008,ConditionRich,2021.2.3,59.94506634124272,
128.0,131.75,25,0.75,Stimuli/P011/things_face_06s.jpg,0,0,0.0,0,56,56,56,,,,,,,,,,,,,128.0126048000002,0.012604800000190153,None,163.12800380000044,163.12800380000044,163.12800380000044,163.12800380000044,163.12800380000044,163.12800380000044,163.12800380000044,163.12800380000044,163.12800380000044,163.12800380000044,,003,P011,2025_Feb_08_1008,ConditionRich,2021.2.3,59.94506634124272,
131.75,132.0,41,0.0,Stimuli/Blank.png,0,0,0.0,0,57,57,57,,,,,,,,,,,,,131.74875069999962,-0.0012493000003814814,None,166.86464130000059,166.86464130000059,166.86464130000059,166.86464130000059,166.86464130000059,166.86464130000059,166.86464130000059,166.86464130000059,166.86464130000059,166.86464130000059,,003,P011,2025_Feb_08_1008,ConditionRich,2021.2.3,59.94506634124272,
132.0,135.75,26,0.75,Stimuli/P011/things_gazelle_06s.jpg,0,0,0.0,0,58,58,58,,,,,,,,,,,,,132.01598639999975,0.015986399999746936,None,167.1315411000005,167.1315411000005,167.1315411000005,167.1315411000005,167.1315411000005,167.1315411000005,167.1315411000005,167.1315411000005,167.1315411000005,167.1315411000005,,003,P011,2025_Feb_08_1008,ConditionRich,2021.2.3,59.94506634124272,
135.75,136.0,41,0.0,Stimuli/Blank.png,0,0,0.0,0,59,59,59,,,,,,,,,,,,,135.75270490000003,0.0027049000000261003,None,170.86818490000041,170.86818490000041,170.86818490000041,170.86818490000041,170.86818490000041,170.86818490000041,170.86818490000041,170.86818490000041,170.86818490000041,170.86818490000041,,003,P011,2025_Feb_08_1008,ConditionRich,2021.2.3,59.94506634124272,
136.0,139.75,23,0.75,Stimuli/P011/things_clove_06s.jpg,0,0,0.0,0,60,60,60,,,,,,,,,,,,,136.00273579999975,0.0027357999997548177,None,171.1183621,171.1183621,171.1183621,171.1183621,171.1183621,171.1183621,171.1183621,171.1183621,171.1183621,171.1183621,,003,P011,2025_Feb_08_1008,ConditionRich,2021.2.3,59.94506634124272,
139.75,140.0,41,0.0,Stimuli/Blank.png,0,0,0.0,0,61,61,61,,,,,,,,,,,,,139.75625320000017,0.00625320000017382,None,174.8717305,174.8717305,174.8717305,174.8717305,174.8717305,174.8717305,174.8717305,174.8717305,174.8717305,174.8717305,,003,P011,2025_Feb_08_1008,ConditionRich,2021.2.3,59.94506634124272,
140.0,143.75,21,0.75,Stimuli/P011/things_baby_06s.jpg,1,3,3.75,0,62,62,62,,,,,,,,,,,,,140.00688770000033,0.006887700000334007,1,175.12194340000042,175.12194340000042,175.12194340000042,175.12194340000042,175.12194340000042,175.12194340000042,178.10792070000025,178.85857570000007,175.12194340000042,175.12194340000042,3.59567750000042,003,P011,2025_Feb_08_1008,ConditionRich,2021.2.3,59.94506634124272,
143.75,144.0,41,0.0,Stimuli/Blank.png,0,0,0.0,0,63,63,63,,,,,,,,,,,,,143.7614225999996,0.011422599999605154,None,178.8919504000005,178.8919504000005,178.8919504000005,178.8919504000005,178.8919504000005,178.8919504000005,178.8919504000005,178.8919504000005,178.8919504000005,178.8919504000005,,003,P011,2025_Feb_08_1008,ConditionRich,2021.2.3,59.94506634124272,
144.0,147.75,15,0.75,Stimuli/P011/sun_bmngnyuahubpqroh.jpg,1,0,0.75,0,64,64,64,,,,,,,,,,,,,144.02712880000036,0.027128800000355113,1,179.14215779999995,179.14215779999995,179.14215779999995,179.14215779999995,179.14215779999995,179.14215779999995,179.14215779999995,179.87614889999986,179.14215779999995,179.14215779999995,0.9802835000000414,003,P011,2025_Feb_08_1008,ConditionRich,2021.2.3,59.94506634124272,
147.75,148.0,41,0.0,Stimuli/Blank.png,0,0,0.0,0,65,65,65,,,,,,,,,,,,,147.76347910000004,0.01347910000004049,None,182.87880469999982,182.87880469999982,182.87880469999982,182.87880469999982,182.87880469999982,182.87880469999982,182.87880469999982,182.87880469999982,182.87880469999982,182.87880469999982,,003,P011,2025_Feb_08_1008,ConditionRich,2021.2.3,59.94506634124272,
148.0,151.75,8,0.75,Stimuli/P011/sun_asppejhsplpizvag.jpg,1,0,0.75,0,66,66,66,,,,,,,,,,,,,148.01306860000022,0.01306860000022425,1,183.14570730000014,183.14570730000014,183.14570730000014,183.14570730000014,183.14570730000014,183.14570730000014,183.14570730000014,183.86304740000014,183.14570730000014,183.14570730000014,1.4678696999999374,003,P011,2025_Feb_08_1008,ConditionRich,2021.2.3,59.94506634124272,
151.75,152.0,41,0.0,Stimuli/Blank.png,0,0,0.0,0,67,67,67,,,,,,,,,,,,,151.76706110000032,0.01706110000031913,None,186.88234400000056,186.88234400000056,186.88234400000056,186.88234400000056,186.88234400000056,186.88234400000056,186.88234400000056,186.88234400000056,186.88234400000056,186.88234400000056,,003,P011,2025_Feb_08_1008,ConditionRich,2021.2.3,59.94506634124272,
152.0,155.75,36,0.75,Stimuli/P011/things_shower_cap_06s.jpg,0,0,0.0,0,68,68,68,,,,,,,,,,,,,152.00042889999986,0.00042889999986073235,None,187.11588120000033,187.11588120000033,187.11588120000033,187.11588120000033,187.11588120000033,187.11588120000033,187.11588120000033,187.11588120000033,187.11588120000033,187.11588120000033,,003,P011,2025_Feb_08_1008,ConditionRich,2021.2.3,59.94506634124272,
155.75,156.0,41,0.0,Stimuli/Blank.png,0,0,0.0,0,69,69,69,,,,,,,,,,,,,155.75394469999992,0.003944699999919976,None,190.86921650000022,190.86921650000022,190.86921650000022,190.86921650000022,190.86921650000022,190.86921650000022,190.86921650000022,190.86921650000022,190.86921650000022,190.86921650000022,,003,P011,2025_Feb_08_1008,ConditionRich,2021.2.3,59.94506634124272,
156.0,159.75,35,0.75,Stimuli/P011/things_raccoon_06n.jpg,0,0,0.0,0,70,70,70,,,,,,,,,,,,,156.00333859999955,0.0033385999995516613,None,191.13613460000033,191.13613460000033,191.13613460000033,191.13613460000033,191.13613460000033,191.13613460000033,191.13613460000033,191.13613460000033,191.13613460000033,191.13613460000033,,003,P011,2025_Feb_08_1008,ConditionRich,2021.2.3,59.94506634124272,
159.75,160.0,41,0.0,Stimuli/Blank.png,0,0,0.0,0,71,71,71,,,,,,,,,,,,,159.77444899999955,0.024448999999549414,None,194.88943519999975,194.88943519999975,194.88943519999975,194.88943519999975,194.88943519999975,194.88943519999975,194.88943519999975,194.88943519999975,194.88943519999975,194.88943519999975,,003,P011,2025_Feb_08_1008,ConditionRich,2021.2.3,59.94506634124272,
160.0,163.75,39,0.75,Stimuli/P011/things_thermometer_06s.jpg,0,0,0.0,0,72,72,72,,,,,,,,,,,,,160.00694120000026,0.006941200000255776,None,195.13968110000042,195.13968110000042,195.13968110000042,195.13968110000042,195.13968110000042,195.13968110000042,195.13968110000042,195.13968110000042,195.13968110000042,195.13968110000042,,003,P011,2025_Feb_08_1008,ConditionRich,2021.2.3,59.94506634124272,
163.75,164.0,41,0.0,Stimuli/Blank.png,0,0,0.0,0,73,73,73,,,,,,,,,,,,,163.777067,0.027066999999988184,None,198.89297460000034,198.89297460000034,198.89297460000034,198.89297460000034,198.89297460000034,198.89297460000034,198.89297460000034,198.89297460000034,198.89297460000034,198.89297460000034,,003,P011,2025_Feb_08_1008,ConditionRich,2021.2.3,59.94506634124272,
164.0,167.75,22,0.75,Stimuli/P011/things_boy_06s.jpg,0,0,0.0,0,74,74,74,,,,,,,,,,,,,164.01080209999964,0.010802099999636994,None,199.12650600000052,199.12650600000052,199.12650600000052,199.12650600000052,199.12650600000052,199.12650600000052,199.12650600000052,199.12650600000052,199.12650600000052,199.12650600000052,,003,P011,2025_Feb_08_1008,ConditionRich,2021.2.3,59.94506634124272,
167.75,168.0,41,0.0,Stimuli/Blank.png,0,0,0.0,0,75,75,75,,,,,,,,,,,,,167.76681980000012,0.016819800000121177,None,202.89651930000036,202.89651930000036,202.89651930000036,202.89651930000036,202.89651930000036,202.89651930000036,202.89651930000036,202.89651930000036,202.89651930000036,202.89651930000036,,003,P011,2025_Feb_08_1008,ConditionRich,2021.2.3,59.94506634124272,
168.0,171.75,3,0.75,Stimuli/P011/sun_afdaynbvsppiyvxm.jpg,0,0,0.0,0,76,76,76,,,,,,,,,,,,,168.0161822,0.016182200000002922,None,203.1467429000004,203.1467429000004,203.1467429000004,203.1467429000004,203.1467429000004,203.1467429000004,203.1467429000004,203.1467429000004,203.1467429000004,203.1467429000004,,003,P011,2025_Feb_08_1008,ConditionRich,2021.2.3,59.94506634124272,
171.75,172.0,41,0.0,Stimuli/Blank.png,0,0,0.0,0,77,77,77,,,,,,,,,,,,,171.76748169999973,0.0174816999997347,None,206.88336560000062,206.88336560000062,206.88336560000062,206.88336560000062,206.88336560000062,206.88336560000062,206.88336560000062,206.88336560000062,206.88336560000062,206.88336560000062,,003,P011,2025_Feb_08_1008,ConditionRich,2021.2.3,59.94506634124272,
172.0,175.75,12,0.75,Stimuli/P011/sun_bcesifdfuidnkdhl.jpg,0,0,0.0,0,78,78,78,,,,,,,,,,,,,172.00116270000035,0.0011627000003500143,None,207.11691880000035,207.11691880000035,207.11691880000035,207.11691880000035,207.11691880000035,207.11691880000035,207.11691880000035,207.11691880000035,207.11691880000035,207.11691880000035,,003,P011,2025_Feb_08_1008,ConditionRich,2021.2.3,59.94506634124272,
175.75,176.0,41,0.0,Stimuli/Blank.png,0,0,0.0,0,79,79,79,,,,,,,,,,,,,175.75688999999966,0.006889999999657448,None,210.88692340000034,210.88692340000034,210.88692340000034,210.88692340000034,210.88692340000034,210.88692340000034,210.88692340000034,210.88692340000034,210.88692340000034,210.88692340000034,,003,P011,2025_Feb_08_1008,ConditionRich,2021.2.3,59.94506634124272,
176.0,179.75,31,0.75,Stimuli/P011/things_hippopotamus_06s.jpg,0,0,0.0,0,80,80,80,,,,,,,,,,,,,176.02159670000037,0.021596700000372948,None,211.1371362,211.1371362,211.1371362,211.1371362,211.1371362,211.1371362,211.1371362,211.1371362,211.1371362,211.1371362,,003,P011,2025_Feb_08_1008,ConditionRich,2021.2.3,59.94506634124272,
179.75,180.0,41,0.0,Stimuli/Blank.png,0,0,0.0,0,81,81,81,,,,,,,,,,,,,179.75907720000032,0.009077200000319863,None,214.87377990000005,214.87377990000005,214.87377990000005,214.87377990000005,214.87377990000005,214.87377990000005,214.87377990000005,214.87377990000005,214.87377990000005,214.87377990000005,,003,P011,2025_Feb_08_1008,ConditionRich,2021.2.3,59.94506634124272,
180.0,196.0,0,0.0,Stimuli/Blank.png,1,8,8.75,0,82,82,82,,,,,,,,,,,,,180.0106034999999,0.0106034999998883,1,215.1406821999999,215.1406821999999,215.1406821999999,215.1406821999999,215.1406821999999,215.1406821999999,223.11438689999977,223.86508240000057,215.1406821999999,215.1406821999999,8.41497519999939,003,P011,2025_Feb_08_1008,ConditionRich,2021.2.3,59.94506634124272,
196.0,199.75,16,0.75,Stimuli/P011/sun_bpuwvyadswjfoaby.jpg,1,1,1.75,0,83,83,83,,,,,,,,,,,,,196.02292289999968,0.022922899999684887,1,231.13815700000032,231.13815700000032,231.13815700000032,231.13815700000032,231.13815700000032,231.13815700000032,232.12239820000013,232.8729874999999,231.13815700000032,231.13815700000032,1.3756413000000975,003,P011,2025_Feb_08_1008,ConditionRich,2021.2.3,59.94506634124272,
199.75,200.0,41,0.0,Stimuli/Blank.png,0,0,0.0,0,84,84,84,,,,,,,,,,,,,199.76095869999972,0.010958699999719101,None,234.89149429999998,234.89149429999998,234.89149429999998,234.89149429999998,234.89149429999998,234.89149429999998,234.89149429999998,234.89149429999998,234.89149429999998,234.89149429999998,,003,P011,2025_Feb_08_1008,ConditionRich,2021.2.3,59.94506634124272,
200.0,203.75,29,0.75,Stimuli/P011/things_gutter_06s.jpg,0,0,0.0,0,85,85,85,,,,,,,,,,,,,200.02626469999996,0.026264699999956065,1,235.14169990000028,235.14169990000028,235.14169990000028,235.14169990000028,235.14169990000028,235.14169990000028,235.14169990000028,235.14169990000028,235.14169990000028,235.14169990000028,2.5277962000000116,003,P011,2025_Feb_08_1008,ConditionRich,2021.2.3,59.94506634124272,
203.75,204.0,41,0.0,Stimuli/Blank.png,0,0,0.0,0,86,86,86,,,,,,,,,,,,,203.76307689999976,0.013076899999759917,None,238.8783486000002,238.8783486000002,238.8783486000002,238.8783486000002,238.8783486000002,238.8783486000002,238.8783486000002,238.8783486000002,238.8783486000002,238.8783486000002,,003,P011,2025_Feb_08_1008,ConditionRich,2021.2.3,59.94506634124272,
204.0,207.75,9,0.75,Stimuli/P011/sun_aupohozmrmtfgcsw.jpg,1,0,0.75,0,87,87,87,,,,,,,,,,,,,204.01320469999973,0.013204699999732838,1,239.1452479999998,239.1452479999998,239.1452479999998,239.1452479999998,239.1452479999998,239.1452479999998,239.1452479999998,239.8626122000005,239.1452479999998,239.1452479999998,0.6736340999996173,003,P011,2025_Feb_08_1008,ConditionRich,2021.2.3,59.94506634124272,
207.75,208.0,41,0.0,Stimuli/Blank.png,0,0,0.0,0,88,88,88,,,,,,,,,,,,,207.7661876000002,0.016187600000193925,None,242.8818799999999,242.8818799999999,242.8818799999999,242.8818799999999,242.8818799999999,242.8818799999999,242.8818799999999,242.8818799999999,242.8818799999999,242.8818799999999,,003,P011,2025_Feb_08_1008,ConditionRich,2021.2.3,59.94506634124272,
208.0,211.75,27,0.75,Stimuli/P011/things_girl_06s.jpg,0,0,0.0,0,89,89,89,,,,,,,,,,,,,208.00052090000008,0.000520900000083202,None,243.11545139999998,243.11545139999998,243.11545139999998,243.11545139999998,243.11545139999998,243.11545139999998,243.11545139999998,243.11545139999998,243.11545139999998,243.11545139999998,,003,P011,2025_Feb_08_1008,ConditionRich,2021.2.3,59.94506634124272,
211.75,212.0,41,0.0,Stimuli/Blank.png,0,0,0.0,0,90,90,90,,,,,,,,,,,,,211.75338499999998,0.0033849999999802094,None,246.8689234000003,246.8689234000003,246.8689234000003,246.8689234000003,246.8689234000003,246.8689234000003,246.8689234000003,246.8689234000003,246.8689234000003,246.8689234000003,,003,P011,2025_Feb_08_1008,ConditionRich,2021.2.3,59.94506634124272,
212.0,215.75,21,0.75,Stimuli/P011/things_baby_06s.jpg,1,0,0.75,0,91,91,91,,,,,,,,,,,,,212.0030985000003,0.0030985000003056484,1,247.1356409,247.1356409,247.1356409,247.1356409,247.1356409,247.1356409,247.1356409,247.85297940000055,247.1356409,247.1356409,0.5269039000004341,003,P011,2025_Feb_08_1008,ConditionRich,2021.2.3,59.94506634124272,
215.75,216.0,41,0.0,Stimuli/Blank.png,0,0,0.0,0,92,92,92,,,,,,,,,,,,,215.77340550000008,0.023405500000080792,None,250.88899930000025,250.88899930000025,250.88899930000025,250.88899930000025,250.88899930000025,250.88899930000025,250.88899930000025,250.88899930000025,250.88899930000025,250.88899930000025,,003,P011,2025_Feb_08_1008,ConditionRich,2021.2.3,59.94506634124272,
216.0,219.75,3,0.75,Stimuli/P011/sun_afdaynbvsppiyvxm.jpg,0,0,0.0,0,93,93,93,,,,,,,,,,,,,216.00659459999952,0.006594599999516504,None,251.12250800000038,251.12250800000038,251.12250800000038,251.12250800000038,251.12250800000038,251.12250800000038,251.12250800000038,251.12250800000038,251.12250800000038,251.12250800000038,,003,P011,2025_Feb_08_1008,ConditionRich,2021.2.3,59.94506634124272,
219.75,220.0,41,0.0,Stimuli/Blank.png,0,0,0.0,0,94,94,94,,,,,,,,,,,,,219.76053609999963,0.010536099999626458,None,254.8758316000003,254.8758316000003,254.8758316000003,254.8758316000003,254.8758316000003,254.8758316000003,254.8758316000003,254.8758316000003,254.8758316000003,254.8758316000003,,003,P011,2025_Feb_08_1008,ConditionRich,2021.2.3,59.94506634124272,
220.0,223.75,32,0.75,Stimuli/P011/things_hood_06s.jpg,1,2,2.75,0,95,95,95,,,,,,,,,,,,,220.01136179999958,0.01136179999957676,1,255.14276040000004,255.14276040000004,255.14276040000004,255.14276040000004,255.14276040000004,255.14276040000004,257.11113000000023,257.8618335000001,255.14276040000004,255.14276040000004,2.3137703000002148,003,P011,2025_Feb_08_1008,ConditionRich,2021.2.3,59.94506634124272,
223.75,224.0,41,0.0,Stimuli/Blank.png,0,0,0.0,0,96,96,96,,,,,,,,,,,,,223.78124130000015,0.03124130000014702,None,258.8960581000001,258.8960581000001,258.8960581000001,258.8960581000001,258.8960581000001,258.8960581000001,258.8960581000001,258.8960581000001,258.8960581000001,258.8960581000001,,003,P011,2025_Feb_08_1008,ConditionRich,2021.2.3,59.94506634124272,
224.0,227.75,35,0.75,Stimuli/P011/things_raccoon_06n.jpg,0,0,0.0,0,97,97,97,,,,,,,,,,,,,224.0163518999998,0.016351899999790476,None,259.1462829000002,259.1462829000002,259.1462829000002,259.1462829000002,259.1462829000002,259.1462829000002,259.1462829000002,259.1462829000002,259.1462829000002,259.1462829000002,,003,P011,2025_Feb_08_1008,ConditionRich,2021.2.3,59.94506634124272,
227.75,228.0,41,0.0,Stimuli/Blank.png,0,0,0.0,0,98,98,98,,,,,,,,,,,,,227.76746079999975,0.017460799999753362,None,262.88290490000054,262.88290490000054,262.88290490000054,262.88290490000054,262.88290490000054,262.88290490000054,262.88290490000054,262.88290490000054,262.88290490000054,262.88290490000054,,003,P011,2025_Feb_08_1008,ConditionRich,2021.2.3,59.94506634124272,
228.0,231.75,2,0.75,Stimuli/P011/sun_aewhvqonribwlxiq.jpg,0,0,0.0,0,99,99,99,,,,,,,,,,,,,228.0020010999997,0.0020010999996884493,None,263.13313220000055,263.13313220000055,263.13313220000055,263.13313220000055,263.13313220000055,263.13313220000055,263.13313220000055,263.13313220000055,263.13313220000055,263.13313220000055,,003,P011,2025_Feb_08_1008,ConditionRich,2021.2.3,59.94506634124272,
231.75,232.0,41,0.0,Stimuli/Blank.png,0,0,0.0,0,100,100,100,,,,,,,,,,,,,231.7718272000002,0.021827200000188896,None,266.9031616000002,266.9031616000002,266.9031616000002,266.9031616000002,266.9031616000002,266.9031616000002,266.9031616000002,266.9031616000002,266.9031616000002,266.9031616000002,,003,P011,2025_Feb_08_1008,ConditionRich,2021.2.3,59.94506634124272,
232.0,235.75,26,0.75,Stimuli/P011/things_gazelle_06s.jpg,0,0,0.0,0,101,101,101,,,,,,,,,,,,,232.02174370000012,0.021743700000115496,None,267.1534083000006,267.1534083000006,267.1534083000006,267.1534083000006,267.1534083000006,267.1534083000006,267.1534083000006,267.1534083000006,267.1534083000006,267.1534083000006,,003,P011,2025_Feb_08_1008,ConditionRich,2021.2.3,59.94506634124272,
235.75,236.0,41,0.0,Stimuli/Blank.png,0,0,0.0,0,102,102,102,,,,,,,,,,,,,235.7761743000001,0.026174300000093353,None,270.90667759999997,270.90667759999997,270.90667759999997,270.90667759999997,270.90667759999997,270.90667759999997,270.90667759999997,270.90667759999997,270.90667759999997,270.90667759999997,,003,P011,2025_Feb_08_1008,ConditionRich,2021.2.3,59.94506634124272,
236.0,239.75,11,0.75,Stimuli/P011/sun_baylllqlgfvxilor.jpg,0,0,0.0,0,103,103,103,,,,,,,,,,,,,236.02680899999996,0.02680899999995745,None,271.15692409999974,271.15692409999974,271.15692409999974,271.15692409999974,271.15692409999974,271.15692409999974,271.15692409999974,271.15692409999974,271.15692409999974,271.15692409999974,,003,P011,2025_Feb_08_1008,ConditionRich,2021.2.3,59.94506634124272,
239.75,240.0,41,0.0,Stimuli/Blank.png,0,0,0.0,0,104,104,104,,,,,,,,,,,,,239.77909780000027,0.0290978000002724,None,274.89354280000043,274.89354280000043,274.89354280000043,274.89354280000043,274.89354280000043,274.89354280000043,274.89354280000043,274.89354280000043,274.89354280000043,274.89354280000043,,003,P011,2025_Feb_08_1008,ConditionRich,2021.2.3,59.94506634124272,
240.0,243.75,33,0.75,Stimuli/P011/things_hot-air_balloon_06s.jpg,1,0,0.75,0,105,105,105,,,,,,,,,,,,,240.01136459999998,0.011364599999978964,1,275.1270714000002,275.1270714000002,275.1270714000002,275.1270714000002,275.1270714000002,275.1270714000002,275.1270714000002,275.8610223000005,275.1270714000002,275.1270714000002,0.5274747999992542,003,P011,2025_Feb_08_1008,ConditionRich,2021.2.3,59.94506634124272,
243.75,244.0,41,0.0,Stimuli/Blank.png,0,0,0.0,0,106,106,106,,,,,,,,,,,,,243.76519480000024,0.015194800000244868,None,278.8804129,278.8804129,278.8804129,278.8804129,278.8804129,278.8804129,278.8804129,278.8804129,278.8804129,278.8804129,,003,P011,2025_Feb_08_1008,ConditionRich,2021.2.3,59.94506634124272,
244.0,247.75,4,0.75,Stimuli/P011/sun_akpdzjejmtbfopdt.jpg,0,0,0.0,0,107,107,107,,,,,,,,,,,,,244.01465300000018,0.014653000000180327,None,279.1306073000005,279.1306073000005,279.1306073000005,279.1306073000005,279.1306073000005,279.1306073000005,279.1306073000005,279.1306073000005,279.1306073000005,279.1306073000005,,003,P011,2025_Feb_08_1008,ConditionRich,2021.2.3,59.94506634124272,
247.75,248.0,41,0.0,Stimuli/Blank.png,0,0,0.0,0,108,108,108,,,,,,,,,,,,,247.75122589999955,0.0012258999995538034,None,282.8672617000002,282.8672617000002,282.8672617000002,282.8672617000002,282.8672617000002,282.8672617000002,282.8672617000002,282.8672617000002,282.8672617000002,282.8672617000002,,003,P011,2025_Feb_08_1008,ConditionRich,2021.2.3,59.94506634124272,
248.0,251.75,17,0.75,Stimuli/P011/sun_btvwhlxbhcqnqzok.jpg,0,0,0.0,0,109,109,109,,,,,,,,,,,,,248.00191629999972,0.0019162999997206498,None,283.11747689999993,283.11747689999993,283.11747689999993,283.11747689999993,283.11747689999993,283.11747689999993,283.11747689999993,283.11747689999993,283.11747689999993,283.11747689999993,,003,P011,2025_Feb_08_1008,ConditionRich,2021.2.3,59.94506634124272,
251.75,252.0,41,0.0,Stimuli/Blank.png,0,0,0.0,0,110,110,110,,,,,,,,,,,,,251.75553219999983,0.00553219999983412,None,286.87079989999984,286.87079989999984,286.87079989999984,286.87079989999984,286.87079989999984,286.87079989999984,286.87079989999984,286.87079989999984,286.87079989999984,286.87079989999984,,003,P011,2025_Feb_08_1008,ConditionRich,2021.2.3,59.94506634124272,
252.0,255.75,28,0.75,Stimuli/P011/things_grasshopper_06s.jpg,0,0,0.0,0,111,111,111,,,,,,,,,,,,,252.00662999999986,0.0066299999998591375,None,287.1377343000004,287.1377343000004,287.1377343000004,287.1377343000004,287.1377343000004,287.1377343000004,287.1377343000004,287.1377343000004,287.1377343000004,287.1377343000004,,003,P011,2025_Feb_08_1008,ConditionRich,2021.2.3,59.94506634124272,
255.75,256.0,41,0.0,Stimuli/Blank.png,0,0,0.0,0,112,112,112,,,,,,,,,,,,,255.77543510000032,0.025435100000322564,None,290.89101590000064,290.89101590000064,290.89101590000064,290.89101590000064,290.89101590000064,290.89101590000064,290.89101590000064,290.89101590000064,290.89101590000064,290.89101590000064,,003,P011,2025_Feb_08_1008,ConditionRich,2021.2.3,59.94506634124272,
256.0,259.75,20,0.75,Stimuli/P011/sun_ciifteeudwpxupnw.jpg,0,0,0.0,0,113,113,113,,,,,,,,,,,,,256.0106404999997,0.010640499999681197,None,291.1412393999999,291.1412393999999,291.1412393999999,291.1412393999999,291.1412393999999,291.1412393999999,291.1412393999999,291.1412393999999,291.1412393999999,291.1412393999999,,003,P011,2025_Feb_08_1008,ConditionRich,2021.2.3,59.94506634124272,
259.75,260.0,41,0.0,Stimuli/Blank.png,0,0,0.0,0,114,114,114,,,,,,,,,,,,,259.7789966999999,0.028996699999879638,None,294.89456190000055,294.89456190000055,294.89456190000055,294.89456190000055,294.89456190000055,294.89456190000055,294.89456190000055,294.89456190000055,294.89456190000055,294.89456190000055,,003,P011,2025_Feb_08_1008,ConditionRich,2021.2.3,59.94506634124272,
260.0,263.75,23,0.75,Stimuli/P011/things_clove_06s.jpg,0,0,0.0,0,115,115,115,,,,,,,,,,,,,260.0128673999998,0.012867399999777263,None,295.14478510000026,295.14478510000026,295.14478510000026,295.14478510000026,295.14478510000026,295.14478510000026,295.14478510000026,295.14478510000026,295.14478510000026,295.14478510000026,,003,P011,2025_Feb_08_1008,ConditionRich,2021.2.3,59.94506634124272,
263.75,264.0,41,0.0,Stimuli/Blank.png,0,0,0.0,0,116,116,116,,,,,,,,,,,,,263.7666197999997,0.016619799999716633,None,298.88143050000053,298.88143050000053,298.88143050000053,298.88143050000053,298.88143050000053,298.88143050000053,298.88143050000053,298.88143050000053,298.88143050000053,298.88143050000053,,003,P011,2025_Feb_08_1008,ConditionRich,2021.2.3,59.94506634124272,
264.0,267.75,31,0.75,Stimuli/P011/things_hippopotamus_06s.jpg,0,0,0.0,0,117,117,117,,,,,,,,,,,,,264.0012402000002,0.001240200000211189,None,299.1316437000005,299.1316437000005,299.1316437000005,299.1316437000005,299.1316437000005,299.1316437000005,299.1316437000005,299.1316437000005,299.1316437000005,299.1316437000005,,003,P011,2025_Feb_08_1008,ConditionRich,2021.2.3,59.94506634124272,
267.75,268.0,41,0.0,Stimuli/Blank.png,0,0,0.0,0,118,118,118,,,,,,,,,,,,,267.7707309999996,0.02073099999961414,None,302.9016440000005,302.9016440000005,302.9016440000005,302.9016440000005,302.9016440000005,302.9016440000005,302.9016440000005,302.9016440000005,302.9016440000005,302.9016440000005,,003,P011,2025_Feb_08_1008,ConditionRich,2021.2.3,59.94506634124272,
268.0,271.75,5,0.75,Stimuli/P011/sun_anfwllcezhlypoti.jpg,0,0,0.0,0,119,119,119,,,,,,,,,,,,,268.0217444,0.021744399999988673,None,303.15186580000045,303.15186580000045,303.15186580000045,303.15186580000045,303.15186580000045,303.15186580000045,303.15186580000045,303.15186580000045,303.15186580000045,303.15186580000045,,003,P011,2025_Feb_08_1008,ConditionRich,2021.2.3,59.94506634124272,
271.75,272.0,41,0.0,Stimuli/Blank.png,0,0,0.0,0,120,120,120,,,,,,,,,,,,,271.7733589999998,0.02335899999980029,None,306.8885027000006,306.8885027000006,306.8885027000006,306.8885027000006,306.8885027000006,306.8885027000006,306.8885027000006,306.8885027000006,306.8885027000006,306.8885027000006,,003,P011,2025_Feb_08_1008,ConditionRich,2021.2.3,59.94506634124272,
272.0,275.75,40,0.75,Stimuli/P011/things_woman_06s.jpg,0,0,0.0,0,121,121,121,,,,,,,,,,,,,272.00651800000014,0.00651800000014191,None,307.12204720000045,307.12204720000045,307.12204720000045,307.12204720000045,307.12204720000045,307.12204720000045,307.12204720000045,307.12204720000045,307.12204720000045,307.12204720000045,,003,P011,2025_Feb_08_1008,ConditionRich,2021.2.3,59.94506634124272,
275.75,276.0,41,0.0,Stimuli/Blank.png,0,0,0.0,0,122,122,122,,,,,,,,,,,,,275.76181180000003,0.011811800000032235,None,310.8920598000004,310.8920598000004,310.8920598000004,310.8920598000004,310.8920598000004,310.8920598000004,310.8920598000004,310.8920598000004,310.8920598000004,310.8920598000004,,003,P011,2025_Feb_08_1008,ConditionRich,2021.2.3,59.94506634124272,
276.0,292.0,0,0.0,Stimuli/Blank.png,1,2,2.75,0,123,123,123,,,,,,,,,,,,,276.0270652999998,0.02706529999977647,1,311.14226580000013,311.14226580000013,311.14226580000013,311.14226580000013,311.14226580000013,311.14226580000013,313.1273467000001,313.87802230000034,311.14226580000013,311.14226580000013,2.503342099999827,003,P011,2025_Feb_08_1008,ConditionRich,2021.2.3,59.94506634124272,
292.0,295.75,25,0.75,Stimuli/P011/things_face_06s.jpg,0,0,0.0,0,124,124,124,,,,,,,,,,,,,292.00714249999965,0.007142499999645224,1,327.1230636999999,327.1230636999999,327.1230636999999,327.1230636999999,327.1230636999999,327.1230636999999,327.1230636999999,327.1230636999999,327.1230636999999,327.1230636999999,0.40580020000015793,003,P011,2025_Feb_08_1008,ConditionRich,2021.2.3,59.94506634124272,
295.75,296.0,41,0.0,Stimuli/Blank.png,0,0,0.0,0,125,125,125,,,,,,,,,,,,,295.7616392,0.011639199999990524,None,330.8763905000005,330.8763905000005,330.8763905000005,330.8763905000005,330.8763905000005,330.8763905000005,330.8763905000005,330.8763905000005,330.8763905000005,330.8763905000005,,003,P011,2025_Feb_08_1008,ConditionRich,2021.2.3,59.94506634124272,
296.0,299.75,39,0.75,Stimuli/P011/things_thermometer_06s.jpg,1,2,2.75,0,126,126,126,,,,,,,,,,,,,296.0111273000002,0.01112730000022566,1,331.1265815000006,331.1265815000006,331.1265815000006,331.1265815000006,331.1265815000006,331.1265815000006,333.11169380000047,333.86236180000014,331.1265815000006,331.1265815000006,2.56598860000031,003,P011,2025_Feb_08_1008,ConditionRich,2021.2.3,59.94506634124272,
299.75,300.0,41,0.0,Stimuli/Blank.png,0,0,0.0,0,127,127,127,,,,,,,,,,,,,299.76519910000025,0.01519910000024538,None,334.87993950000055,334.87993950000055,334.87993950000055,334.87993950000055,334.87993950000055,334.87993950000055,334.87993950000055,334.87993950000055,334.87993950000055,334.87993950000055,,003,P011,2025_Feb_08_1008,ConditionRich,2021.2.3,59.94506634124272,
300.0,303.75,8,0.75,Stimuli/P011/sun_asppejhsplpizvag.jpg,0,0,0.0,0,128,128,128,,,,,,,,,,,,,300.0172249999996,0.017224999999598367,None,335.1468474000003,335.1468474000003,335.1468474000003,335.1468474000003,335.1468474000003,335.1468474000003,335.1468474000003,335.1468474000003,335.1468474000003,335.1468474000003,,003,P011,2025_Feb_08_1008,ConditionRich,2021.2.3,59.94506634124272,
303.75,304.0,41,0.0,Stimuli/Blank.png,0,0,0.0,0,129,129,129,,,,,,,,,,,,,303.76816919999965,0.01816919999964739,None,338.88348080000014,338.88348080000014,338.88348080000014,338.88348080000014,338.88348080000014,338.88348080000014,338.88348080000014,338.88348080000014,338.88348080000014,338.88348080000014,,003,P011,2025_Feb_08_1008,ConditionRich,2021.2.3,59.94506634124272,
304.0,307.75,19,0.75,Stimuli/P011/sun_byvwakrdyukjigpc.jpg,0,0,0.0,0,130,130,130,,,,,,,,,,,,,304.00157880000006,0.0015788000000611646,None,339.1336860000001,339.1336860000001,339.1336860000001,339.1336860000001,339.1336860000001,339.1336860000001,339.1336860000001,339.1336860000001,339.1336860000001,339.1336860000001,,003,P011,2025_Feb_08_1008,ConditionRich,2021.2.3,59.94506634124272,
307.75,308.0,41,0.0,Stimuli/Blank.png,0,0,0.0,0,131,131,131,,,,,,,,,,,,,307.7716553999999,0.021655399999872316,None,342.8870102000001,342.8870102000001,342.8870102000001,342.8870102000001,342.8870102000001,342.8870102000001,342.8870102000001,342.8870102000001,342.8870102000001,342.8870102000001,,003,P011,2025_Feb_08_1008,ConditionRich,2021.2.3,59.94506634124272,
308.0,311.75,38,0.75,Stimuli/P011/things_squeegee_06s.jpg,1,2,2.75,0,132,132,132,,,,,,,,,,,,,308.0054629999995,0.005462999999508611,1,343.12054380000063,343.12054380000063,343.12054380000063,343.12054380000063,343.12054380000063,343.12054380000063,345.10563619999994,345.85629229999995,343.12054380000063,343.12054380000063,2.3830080999996426,003,P011,2025_Feb_08_1008,ConditionRich,2021.2.3,59.94506634124272,
311.75,312.0,41,0.0,Stimuli/Blank.png,0,0,0.0,0,133,133,133,,,,,,,,,,,,,311.7579463000002,0.007946300000185147,None,346.87387240000044,346.87387240000044,346.87387240000044,346.87387240000044,346.87387240000044,346.87387240000044,346.87387240000044,346.87387240000044,346.87387240000044,346.87387240000044,,003,P011,2025_Feb_08_1008,ConditionRich,2021.2.3,59.94506634124272,
312.0,315.75,6,0.75,Stimuli/P011/sun_aqysdudvyxnkcxgq.jpg,0,0,0.0,0,134,134,134,,,,,,,,,,,,,312.0090935999997,0.009093599999687285,None,347.14077410000027,347.14077410000027,347.14077410000027,347.14077410000027,347.14077410000027,347.14077410000027,347.14077410000027,347.14077410000027,347.14077410000027,347.14077410000027,,003,P011,2025_Feb_08_1008,ConditionRich,2021.2.3,59.94506634124272,
315.75,316.0,41,0.0,Stimuli/Blank.png,0,0,0.0,0,135,135,135,,,,,,,,,,,,,315.77832490000037,0.02832490000037069,None,350.89409350000005,350.89409350000005,350.89409350000005,350.89409350000005,350.89409350000005,350.89409350000005,350.89409350000005,350.89409350000005,350.89409350000005,350.89409350000005,,003,P011,2025_Feb_08_1008,ConditionRich,2021.2.3,59.94506634124272,
316.0,319.75,22,0.75,Stimuli/P011/things_boy_06s.jpg,1,1,1.75,0,136,136,136,,,,,,,,,,,,,316.0123451999998,0.012345199999799661,1,351.1276256000001,351.1276256000001,351.1276256000001,351.1276256000001,351.1276256000001,351.1276256000001,352.1118283000005,352.8624974000004,351.1276256000001,351.1276256000001,1.4359875999998621,003,P011,2025_Feb_08_1008,ConditionRich,2021.2.3,59.94506634124272,
319.75,320.0,41,0.0,Stimuli/Blank.png,0,0,0.0,0,137,137,137,,,,,,,,,,,,,319.76724399999966,0.017243999999664084,None,354.8976340999998,354.8976340999998,354.8976340999998,354.8976340999998,354.8976340999998,354.8976340999998,354.8976340999998,354.8976340999998,354.8976340999998,354.8976340999998,,003,P011,2025_Feb_08_1008,ConditionRich,2021.2.3,59.94506634124272,
320.0,323.75,15,0.75,Stimuli/P011/sun_bmngnyuahubpqroh.jpg,0,0,0.0,0,138,138,138,,,,,,,,,,,,,320.0172606999995,0.017260699999496865,None,355.1478539999998,355.1478539999998,355.1478539999998,355.1478539999998,355.1478539999998,355.1478539999998,355.1478539999998,355.1478539999998,355.1478539999998,355.1478539999998,,003,P011,2025_Feb_08_1008,ConditionRich,2021.2.3,59.94506634124272,
323.75,324.0,41,0.0,Stimuli/Blank.png,0,0,0.0,0,139,139,139,,,,,,,,,,,,,323.7690104000003,0.019010400000297523,None,358.8845749000002,358.8845749000002,358.8845749000002,358.8845749000002,358.8845749000002,358.8845749000002,358.8845749000002,358.8845749000002,358.8845749000002,358.8845749000002,,003,P011,2025_Feb_08_1008,ConditionRich,2021.2.3,59.94506634124272,
324.0,327.75,37,0.75,Stimuli/P011/things_spam_06s.jpg,1,0,0.75,0,140,140,140,,,,,,,,,,,,,324.00232609999966,0.002326099999663711,1,359.11803299999974,359.11803299999974,359.11803299999974,359.11803299999974,359.11803299999974,359.11803299999974,359.11803299999974,359.8520167000006,359.11803299999974,359.11803299999974,0.49353509999946255,003,P011,2025_Feb_08_1008,ConditionRich,2021.2.3,59.94506634124272,
327.75,328.0,41,0.0,Stimuli/Blank.png,0,0,0.0,0,141,141,141,,,,,,,,,,,,,327.7564354999995,0.0064354999994975515,None,362.87136980000014,362.87136980000014,362.87136980000014,362.87136980000014,362.87136980000014,362.87136980000014,362.87136980000014,362.87136980000014,362.87136980000014,362.87136980000014,,003,P011,2025_Feb_08_1008,ConditionRich,2021.2.3,59.94506634124272,
328.0,331.75,18,0.75,Stimuli/P011/sun_bxlbxustiovyqyrg.jpg,0,0,0.0,0,142,142,142,,,,,,,,,,,,,328.00708940000004,0.007089400000040769,None,363.13827970000057,363.13827970000057,363.13827970000057,363.13827970000057,363.13827970000057,363.13827970000057,363.13827970000057,363.13827970000057,363.13827970000057,363.13827970000057,,003,P011,2025_Feb_08_1008,ConditionRich,2021.2.3,59.94506634124272,
331.75,332.0,41,0.0,Stimuli/Blank.png,0,0,0.0,0,143,143,143,,,,,,,,,,,,,331.7764108000001,0.026410800000121526,None,366.8915861000005,366.8915861000005,366.8915861000005,366.8915861000005,366.8915861000005,366.8915861000005,366.8915861000005,366.8915861000005,366.8915861000005,366.8915861000005,,003,P011,2025_Feb_08_1008,ConditionRich,2021.2.3,59.94506634124272,
332.0,335.75,30,0.75,Stimuli/P011/things_hamburger_06s.jpg,0,0,0.0,0,144,144,144,,,,,,,,,,,,,332.0122494999996,0.012249499999597901,None,367.1418033,367.1418033,367.1418033,367.1418033,367.1418033,367.1418033,367.1418033,367.1418033,367.1418033,367.1418033,,003,P011,2025_Feb_08_1008,ConditionRich,2021.2.3,59.94506634124272,
335.75,336.0,41,0.0,Stimuli/Blank.png,0,0,0.0,0,145,145,145,,,,,,,,,,,,,335.7791476000002,0.02914760000021488,None,370.8951199000003,370.8951199000003,370.8951199000003,370.8951199000003,370.8951199000003,370.8951199000003,370.8951199000003,370.8951199000003,370.8951199000003,370.8951199000003,,003,P011,2025_Feb_08_1008,ConditionRich,2021.2.3,59.94506634124272,
336.0,339.75,13,0.75,Stimuli/P011/sun_bjedvzikugwleyer.jpg,0,0,0.0,0,146,146,146,,,,,,,,,,,,,336.01337890000013,0.013378900000134308,None,371.12868230000004,371.12868230000004,371.12868230000004,371.12868230000004,371.12868230000004,371.12868230000004,371.12868230000004,371.12868230000004,371.12868230000004,371.12868230000004,,003,P011,2025_Feb_08_1008,ConditionRich,2021.2.3,59.94506634124272,
339.75,340.0,41,0.0,Stimuli/Blank.png,0,0,0.0,0,147,147,147,,,,,,,,,,,,,339.7496265,-0.00037350000002334127,None,374.8652927000003,374.8652927000003,374.8652927000003,374.8652927000003,374.8652927000003,374.8652927000003,374.8652927000003,374.8652927000003,374.8652927000003,374.8652927000003,,003,P011,2025_Feb_08_1008,ConditionRich,2021.2.3,59.94506634124272,
340.0,343.75,10,0.75,Stimuli/P011/sun_awufkrkrdrdbvvis.jpg,0,0,0.0,0,148,148,148,,,,,,,,,,,,,340.00214909999977,0.0021490999997695326,None,375.13220830000046,375.13220830000046,375.13220830000046,375.13220830000046,375.13220830000046,375.13220830000046,375.13220830000046,375.13220830000046,375.13220830000046,375.13220830000046,,003,P011,2025_Feb_08_1008,ConditionRich,2021.2.3,59.94506634124272,
343.75,344.0,41,0.0,Stimuli/Blank.png,0,0,0.0,0,149,149,149,,,,,,,,,,,,,343.7719133999999,0.02191339999990305,None,378.9022126,378.9022126,378.9022126,378.9022126,378.9022126,378.9022126,378.9022126,378.9022126,378.9022126,378.9022126,,003,P011,2025_Feb_08_1008,ConditionRich,2021.2.3,59.94506634124272,
344.0,347.75,24,0.75,Stimuli/P011/things_doily_06s.jpg,0,0,0.0,0,150,150,150,,,,,,,,,,,,,344.02201890000015,0.022018900000148278,None,379.1524221999998,379.1524221999998,379.1524221999998,379.1524221999998,379.1524221999998,379.1524221999998,379.1524221999998,379.1524221999998,379.1524221999998,379.1524221999998,,003,P011,2025_Feb_08_1008,ConditionRich,2021.2.3,59.94506634124272,
347.75,348.0,41,0.0,Stimuli/Blank.png,0,0,0.0,0,151,151,151,,,,,,,,,,,,,347.77385159999994,0.023851599999943573,None,382.88914600000044,382.88914600000044,382.88914600000044,382.88914600000044,382.88914600000044,382.88914600000044,382.88914600000044,382.88914600000044,382.88914600000044,382.88914600000044,,003,P011,2025_Feb_08_1008,ConditionRich,2021.2.3,59.94506634124272,
348.0,351.75,7,0.75,Stimuli/P011/sun_arugqgwhwdjxezyt.jpg,0,0,0.0,0,152,152,152,,,,,,,,,,,,,348.00792079999974,0.007920799999737937,None,383.13928450000003,383.13928450000003,383.13928450000003,383.13928450000003,383.13928450000003,383.13928450000003,383.13928450000003,383.13928450000003,383.13928450000003,383.13928450000003,,003,P011,2025_Feb_08_1008,ConditionRich,2021.2.3,59.94506634124272,
351.75,352.0,41,0.0,Stimuli/Blank.png,0,0,0.0,0,153,153,153,,,,,,,,,,,,,351.77744299999995,0.02744299999994837,None,386.8926031000001,386.8926031000001,386.8926031000001,386.8926031000001,386.8926031000001,386.8926031000001,386.8926031000001,386.8926031000001,386.8926031000001,386.8926031000001,,003,P011,2025_Feb_08_1008,ConditionRich,2021.2.3,59.94506634124272,
352.0,355.75,14,0.75,Stimuli/P011/sun_blybvkoucskrdgiv.jpg,0,0,0.0,0,154,154,154,,,,,,,,,,,,,352.01100959999985,0.011009599999852071,None,387.12614029999986,387.12614029999986,387.12614029999986,387.12614029999986,387.12614029999986,387.12614029999986,387.12614029999986,387.12614029999986,387.12614029999986,387.12614029999986,,003,P011,2025_Feb_08_1008,ConditionRich,2021.2.3,59.94506634124272,
355.75,356.0,41,0.0,Stimuli/Blank.png,0,0,0.0,0,155,155,155,,,,,,,,,,,,,355.7636520999995,0.01365209999949002,None,390.87950640000054,390.87950640000054,390.87950640000054,390.87950640000054,390.87950640000054,390.87950640000054,390.87950640000054,390.87950640000054,390.87950640000054,390.87950640000054,,003,P011,2025_Feb_08_1008,ConditionRich,2021.2.3,59.94506634124272,
356.0,359.75,1,0.75,Stimuli/P011/sun_aeakbqnvptdnxtno.jpg,0,0,0.0,0,156,156,156,,,,,,,,,,,,,356.01386699999966,0.013866999999663676,None,391.1463739999999,391.1463739999999,391.1463739999999,391.1463739999999,391.1463739999999,391.1463739999999,391.1463739999999,391.1463739999999,391.1463739999999,391.1463739999999,,003,P011,2025_Feb_08_1008,ConditionRich,2021.2.3,59.94506634124272,
359.75,360.0,41,0.0,Stimuli/Blank.png,0,0,0.0,0,157,157,157,,,,,,,,,,,,,359.7677543,0.017754299999978684,None,394.8830046000003,394.8830046000003,394.8830046000003,394.8830046000003,394.8830046000003,394.8830046000003,394.8830046000003,394.8830046000003,394.8830046000003,394.8830046000003,,003,P011,2025_Feb_08_1008,ConditionRich,2021.2.3,59.94506634124272,
360.0,363.75,36,0.75,Stimuli/P011/things_shower_cap_06s.jpg,0,0,0.0,0,158,158,158,,,,,,,,,,,,,360.0015419000001,0.001541900000120222,None,395.1165338999999,395.1165338999999,395.1165338999999,395.1165338999999,395.1165338999999,395.1165338999999,395.1165338999999,395.1165338999999,395.1165338999999,395.1165338999999,,003,P011,2025_Feb_08_1008,ConditionRich,2021.2.3,59.94506634124272,
363.75,364.0,41,0.0,Stimuli/Blank.png,0,0,0.0,0,159,159,159,,,,,,,,,,,,,363.75383200000033,0.0038320000003295718,None,398.8698615000003,398.8698615000003,398.8698615000003,398.8698615000003,398.8698615000003,398.8698615000003,398.8698615000003,398.8698615000003,398.8698615000003,398.8698615000003,,003,P011,2025_Feb_08_1008,ConditionRich,2021.2.3,59.94506634124272,
364.0,367.75,34,0.75,Stimuli/P011/things_polar_bear_06s.jpg,1,3,3.75,0,160,160,160,,,,,,,,,,,,,364.00684720000027,0.00684720000026573,1,399.1367750999998,399.1367750999998,399.1367750999998,399.1367750999998,399.1367750999998,399.1367750999998,402.1227393999998,402.8734394000003,399.1367750999998,399.1367750999998,3.487009499999658,003,P011,2025_Feb_08_1008,ConditionRich,2021.2.3,59.94506634124272,
367.75,368.0,41,0.0,Stimuli/Blank.png,0,0,0.0,0,161,161,161,,,,,,,,,,,,,367.77723849999984,0.027238499999839405,None,402.9067702000002,402.9067702000002,402.9067702000002,402.9067702000002,402.9067702000002,402.9067702000002,402.9067702000002,402.9067702000002,402.9067702000002,402.9067702000002,,003,P011,2025_Feb_08_1008,ConditionRich,2021.2.3,59.94506634124272,
368.0,371.75,12,0.75,Stimuli/P011/sun_bcesifdfuidnkdhl.jpg,0,0,0.0,0,162,162,162,,,,,,,,,,,,,368.02737979999984,0.027379799999835086,None,403.15699080000013,403.15699080000013,403.15699080000013,403.15699080000013,403.15699080000013,403.15699080000013,403.15699080000013,403.15699080000013,403.15699080000013,403.15699080000013,,003,P011,2025_Feb_08_1008,ConditionRich,2021.2.3,59.94506634124272,
371.75,372.0,41,0.0,Stimuli/Blank.png,0,0,0.0,0,163,163,163,,,,,,,,,,,,,371.7779989999999,0.027998999999908847,None,406.89363070000036,406.89363070000036,406.89363070000036,406.89363070000036,406.89363070000036,406.89363070000036,406.89363070000036,406.89363070000036,406.89363070000036,406.89363070000036,,003,P011,2025_Feb_08_1008,ConditionRich,2021.2.3,59.94506634124272,
372.0,388.0,0,0.0,Stimuli/Blank.png,1,12,12.75,0,164,164,164,,,,,,,,,,,,,372.01149989999976,0.01149989999976242,1,407.1271711999998,407.1271711999998,407.1271711999998,407.1271711999998,407.1271711999998,407.1271711999998,419.1044305000005,419.8551339000005,407.1271711999998,407.1271711999998,12.426601799999844,003,P011,2025_Feb_08_1008,ConditionRich,2021.2.3,59.94506634124272,
