eventStartTime,eventEndTime,eventCond,imSize,imFile,responseEvent,fixRespStart,fixRespEnd,Events.thisRepN,Events.thisTrialN,Events.thisN,Events.thisIndex,Instructions.started,Instructions.stopped,participantReadyResponse.keys,participantReadyResponse.rt,participantReadyResponse.started,participantReadyResponse.stopped,startWaitforTrigger,triggerResponse.keys,triggerResponse.rt,triggerResponse.started,triggerResponse.stopped,globalTimer,actualStartTime,startTimingDiff,participantResponse.keys,participantResponse.started,participantResponse.stopped,image.started,image.stopped,fixationOutside.started,fixationOutside.stopped,fixationResponse.started,fixationResponse.stopped,fixationInside.started,fixationInside.stopped,participantResponse.rt,session,participant,date,expName,psychopyVersion,frameRate,
,,,,,,,,,,,,14.220461500000056,None,1,4.005633499999931,14.220461500000056,None,,,,,,,,,,,,,,,,,,,,,007,P011,2025_Feb_08_1048,ConditionRich,2021.2.3,59.92703284458933,
,,,,,,,,,,,,,,,,,,18.23277119999966,5,13.997026699999878,18.24546719999944,None,,,,,,,,,,,,,,,,007,P011,2025_Feb_08_1048,ConditionRich,2021.2.3,59.92703284458933,
0.0,4.0,0,0.0,Stimuli/Blank.png,0,0,0.0,0,0,0,0,,,,,,,,,,,,32.24523069999941,0.043505800000275485,0.043505800000275485,None,32.307904499999495,None,32.307904499999495,None,32.307904499999495,None,32.307904499999495,32.307904499999495,32.307904499999495,None,,007,P011,2025_Feb_08_1048,ConditionRich,2021.2.3,59.92703284458933,
4.0,4.75,11,0.75,Stimuli/P011/sun_baylllqlgfvxilor.jpg,0,0,0.0,0,1,1,1,,,,,,,,,,,,,4.020816199999899,0.020816199999899254,None,36.295083899999554,36.295083899999554,36.295083899999554,36.295083899999554,36.295083899999554,36.295083899999554,36.295083899999554,36.295083899999554,36.295083899999554,36.295083899999554,,007,P011,2025_Feb_08_1048,ConditionRich,2021.2.3,59.92703284458933,
4.75,5.0,41,0.0,Stimuli/Blank.png,0,0,0.0,0,2,2,2,,,,,,,,,,,,,4.768854800000554,0.01885480000055395,None,37.02904439999929,37.02904439999929,37.02904439999929,37.02904439999929,37.02904439999929,37.02904439999929,37.02904439999929,37.02904439999929,37.02904439999929,37.02904439999929,,007,P011,2025_Feb_08_1048,ConditionRich,2021.2.3,59.92703284458933,
5.0,5.75,11,0.75,Stimuli/P011/sun_baylllqlgfvxilor.jpg,0,0,0.0,0,3,3,3,,,,,,,,,,,,,5.003554800000529,0.0035548000005292124,None,37.26228149999952,37.26228149999952,37.26228149999952,37.26228149999952,37.26228149999952,37.26228149999952,37.26228149999952,37.26228149999952,37.26228149999952,37.26228149999952,,007,P011,2025_Feb_08_1048,ConditionRich,2021.2.3,59.92703284458933,
5.75,6.0,41,0.0,Stimuli/Blank.png,0,0,0.0,0,4,4,4,,,,,,,,,,,,,5.756016500000442,0.006016500000441738,None,38.029638399999385,38.029638399999385,38.029638399999385,38.029638399999385,38.029638399999385,38.029638399999385,38.029638399999385,38.029638399999385,38.029638399999385,38.029638399999385,,007,P011,2025_Feb_08_1048,ConditionRich,2021.2.3,59.92703284458933,
6.0,6.75,11,0.75,Stimuli/P011/sun_baylllqlgfvxilor.jpg,0,0,0.0,0,5,5,5,,,,,,,,,,,,,6.020007699999951,0.020007699999951,None,38.27985699999954,38.27985699999954,38.27985699999954,38.27985699999954,38.27985699999954,38.27985699999954,38.27985699999954,38.27985699999954,38.27985699999954,38.27985699999954,,007,P011,2025_Feb_08_1048,ConditionRich,2021.2.3,59.92703284458933,
6.75,7.0,41,0.0,Stimuli/Blank.png,0,0,0.0,0,6,6,6,,,,,,,,,,,,,6.754491400000006,0.0044914000000062515,None,39.01383519999945,39.01383519999945,39.01383519999945,39.01383519999945,39.01383519999945,39.01383519999945,39.01383519999945,39.01383519999945,39.01383519999945,39.01383519999945,,007,P011,2025_Feb_08_1048,ConditionRich,2021.2.3,59.92703284458933,
7.0,7.75,11,0.75,Stimuli/P011/sun_baylllqlgfvxilor.jpg,0,0,0.0,0,7,7,7,,,,,,,,,,,,,7.005744800000684,0.005744800000684336,None,39.280713000000105,39.280713000000105,39.280713000000105,39.280713000000105,39.280713000000105,39.280713000000105,39.280713000000105,39.280713000000105,39.280713000000105,39.280713000000105,,007,P011,2025_Feb_08_1048,ConditionRich,2021.2.3,59.92703284458933,
7.75,8.0,41,0.0,Stimuli/Blank.png,0,0,0.0,0,8,8,8,,,,,,,,,,,,,7.77298620000056,0.02298620000055962,None,40.03142049999951,40.03142049999951,40.03142049999951,40.03142049999951,40.03142049999951,40.03142049999951,40.03142049999951,40.03142049999951,40.03142049999951,40.03142049999951,,007,P011,2025_Feb_08_1048,ConditionRich,2021.2.3,59.92703284458933,
8.0,8.75,3,0.75,Stimuli/P011/sun_afdaynbvsppiyvxm.jpg,0,0,0.0,0,9,9,9,,,,,,,,,,,,,8.005427200000668,0.0054272000006676535,None,40.26494249999996,40.26494249999996,40.26494249999996,40.26494249999996,40.26494249999996,40.26494249999996,40.26494249999996,40.26494249999996,40.26494249999996,40.26494249999996,,007,P011,2025_Feb_08_1048,ConditionRich,2021.2.3,59.92703284458933,
8.75,9.0,41,0.0,Stimuli/Blank.png,0,0,0.0,0,10,10,10,,,,,,,,,,,,,8.756432500000301,0.006432500000300934,None,41.01560309999968,41.01560309999968,41.01560309999968,41.01560309999968,41.01560309999968,41.01560309999968,41.01560309999968,41.01560309999968,41.01560309999968,41.01560309999968,,007,P011,2025_Feb_08_1048,ConditionRich,2021.2.3,59.92703284458933,
9.0,9.75,3,0.75,Stimuli/P011/sun_afdaynbvsppiyvxm.jpg,0,0,0.0,0,11,11,11,,,,,,,,,,,,,9.006116700000348,0.006116700000347919,None,41.2658408999996,41.2658408999996,41.2658408999996,41.2658408999996,41.2658408999996,41.2658408999996,41.2658408999996,41.2658408999996,41.2658408999996,41.2658408999996,,007,P011,2025_Feb_08_1048,ConditionRich,2021.2.3,59.92703284458933,
9.75,10.0,41,0.0,Stimuli/Blank.png,0,0,0.0,0,12,12,12,,,,,,,,,,,,,9.757357899999988,0.007357899999988149,None,42.01658299999963,42.01658299999963,42.01658299999963,42.01658299999963,42.01658299999963,42.01658299999963,42.01658299999963,42.01658299999963,42.01658299999963,42.01658299999963,,007,P011,2025_Feb_08_1048,ConditionRich,2021.2.3,59.92703284458933,
10.0,10.75,3,0.75,Stimuli/P011/sun_afdaynbvsppiyvxm.jpg,0,0,0.0,0,13,13,13,,,,,,,,,,,,,10.008281800000077,0.008281800000077055,None,42.28342259999954,42.28342259999954,42.28342259999954,42.28342259999954,42.28342259999954,42.28342259999954,42.28342259999954,42.28342259999954,42.28342259999954,42.28342259999954,,007,P011,2025_Feb_08_1048,ConditionRich,2021.2.3,59.92703284458933,
10.75,11.0,41,0.0,Stimuli/Blank.png,0,0,0.0,0,14,14,14,,,,,,,,,,,,,10.776102400000127,0.02610240000012709,None,43.05077739999979,43.05077739999979,43.05077739999979,43.05077739999979,43.05077739999979,43.05077739999979,43.05077739999979,43.05077739999979,43.05077739999979,43.05077739999979,,007,P011,2025_Feb_08_1048,ConditionRich,2021.2.3,59.92703284458933,
11.0,11.75,3,0.75,Stimuli/P011/sun_afdaynbvsppiyvxm.jpg,0,0,0.0,0,15,15,15,,,,,,,,,,,,,11.025099700000283,0.02509970000028261,None,43.28429309999956,43.28429309999956,43.28429309999956,43.28429309999956,43.28429309999956,43.28429309999956,43.28429309999956,43.28429309999956,43.28429309999956,43.28429309999956,,007,P011,2025_Feb_08_1048,ConditionRich,2021.2.3,59.92703284458933,
11.75,12.0,41,0.0,Stimuli/Blank.png,0,0,0.0,0,16,16,16,,,,,,,,,,,,,11.759125399999903,0.009125399999902584,None,44.01828159999968,44.01828159999968,44.01828159999968,44.01828159999968,44.01828159999968,44.01828159999968,44.01828159999968,44.01828159999968,44.01828159999968,44.01828159999968,,007,P011,2025_Feb_08_1048,ConditionRich,2021.2.3,59.92703284458933,
12.0,12.75,30,0.75,Stimuli/P011/things_hamburger_06s.jpg,1,0,0.75,0,17,17,17,,,,,,,,,,,,,12.00898529999995,0.008985299999949348,1,44.26844019999953,44.26844019999953,44.26844019999953,44.26844019999953,44.26844019999953,44.26844019999953,44.26844019999953,45.002486999999746,44.26844019999953,44.26844019999953,0.5808655999999246,007,P011,2025_Feb_08_1048,ConditionRich,2021.2.3,59.92703284458933,
12.75,13.0,41,0.0,Stimuli/Blank.png,0,0,0.0,0,18,18,18,,,,,,,,,,,,,12.760163800000555,0.010163800000555057,None,45.019154499999786,45.019154499999786,45.019154499999786,45.019154499999786,45.019154499999786,45.019154499999786,45.019154499999786,45.019154499999786,45.019154499999786,45.019154499999786,,007,P011,2025_Feb_08_1048,ConditionRich,2021.2.3,59.92703284458933,
13.0,13.75,30,0.75,Stimuli/P011/things_hamburger_06s.jpg,0,0,0.0,0,19,19,19,,,,,,,,,,,,,13.010650900000655,0.010650900000655383,None,45.269373399999495,45.269373399999495,45.269373399999495,45.269373399999495,45.269373399999495,45.269373399999495,45.269373399999495,45.269373399999495,45.269373399999495,45.269373399999495,,007,P011,2025_Feb_08_1048,ConditionRich,2021.2.3,59.92703284458933,
13.75,14.0,41,0.0,Stimuli/Blank.png,0,0,0.0,0,20,20,20,,,,,,,,,,,,,13.761212100000193,0.011212100000193459,None,46.02001370000016,46.02001370000016,46.02001370000016,46.02001370000016,46.02001370000016,46.02001370000016,46.02001370000016,46.02001370000016,46.02001370000016,46.02001370000016,,007,P011,2025_Feb_08_1048,ConditionRich,2021.2.3,59.92703284458933,
14.0,14.75,30,0.75,Stimuli/P011/things_hamburger_06s.jpg,0,0,0.0,0,21,21,21,,,,,,,,,,,,,14.010445800000525,0.010445800000525196,None,46.270248799999536,46.270248799999536,46.270248799999536,46.270248799999536,46.270248799999536,46.270248799999536,46.270248799999536,46.270248799999536,46.270248799999536,46.270248799999536,,007,P011,2025_Feb_08_1048,ConditionRich,2021.2.3,59.92703284458933,
14.75,15.0,41,0.0,Stimuli/Blank.png,0,0,0.0,0,22,22,22,,,,,,,,,,,,,14.76114680000046,0.011146800000460644,None,47.02100280000013,47.02100280000013,47.02100280000013,47.02100280000013,47.02100280000013,47.02100280000013,47.02100280000013,47.02100280000013,47.02100280000013,47.02100280000013,,007,P011,2025_Feb_08_1048,ConditionRich,2021.2.3,59.92703284458933,
15.0,15.75,30,0.75,Stimuli/P011/things_hamburger_06s.jpg,0,0,0.0,0,23,23,23,,,,,,,,,,,,,15.011935399999857,0.0119353999998566,None,47.287834400000065,47.287834400000065,47.287834400000065,47.287834400000065,47.287834400000065,47.287834400000065,47.287834400000065,47.287834400000065,47.287834400000065,47.287834400000065,,007,P011,2025_Feb_08_1048,ConditionRich,2021.2.3,59.92703284458933,
15.75,16.0,41,0.0,Stimuli/Blank.png,0,0,0.0,0,24,24,24,,,,,,,,,,,,,15.779250000000502,0.02925000000050204,None,48.038484799999424,48.038484799999424,48.038484799999424,48.038484799999424,48.038484799999424,48.038484799999424,48.038484799999424,48.038484799999424,48.038484799999424,48.038484799999424,,007,P011,2025_Feb_08_1048,ConditionRich,2021.2.3,59.92703284458933,
16.0,16.75,18,0.75,Stimuli/P011/sun_bxlbxustiovyqyrg.jpg,0,0,0.0,0,25,25,25,,,,,,,,,,,,,16.01230840000062,0.012308400000620168,None,48.288703799999894,48.288703799999894,48.288703799999894,48.288703799999894,48.288703799999894,48.288703799999894,48.288703799999894,48.288703799999894,48.288703799999894,48.288703799999894,,007,P011,2025_Feb_08_1048,ConditionRich,2021.2.3,59.92703284458933,
16.75,17.0,41,0.0,Stimuli/Blank.png,0,0,0.0,0,26,26,26,,,,,,,,,,,,,16.780459200000223,0.030459200000223063,None,49.056066199999805,49.056066199999805,49.056066199999805,49.056066199999805,49.056066199999805,49.056066199999805,49.056066199999805,49.056066199999805,49.056066199999805,49.056066199999805,,007,P011,2025_Feb_08_1048,ConditionRich,2021.2.3,59.92703284458933,
17.0,17.75,18,0.75,Stimuli/P011/sun_bxlbxustiovyqyrg.jpg,0,0,0.0,0,27,27,27,,,,,,,,,,,,,17.030375500000446,0.030375500000445754,None,49.3062919999993,49.3062919999993,49.3062919999993,49.3062919999993,49.3062919999993,49.3062919999993,49.3062919999993,49.3062919999993,49.3062919999993,49.3062919999993,,007,P011,2025_Feb_08_1048,ConditionRich,2021.2.3,59.92703284458933,
17.75,18.0,41,0.0,Stimuli/Blank.png,0,0,0.0,0,28,28,28,,,,,,,,,,,,,17.78031160000046,0.030311600000459293,None,50.040248399999655,50.040248399999655,50.040248399999655,50.040248399999655,50.040248399999655,50.040248399999655,50.040248399999655,50.040248399999655,50.040248399999655,50.040248399999655,,007,P011,2025_Feb_08_1048,ConditionRich,2021.2.3,59.92703284458933,
18.0,18.75,18,0.75,Stimuli/P011/sun_bxlbxustiovyqyrg.jpg,1,0,0.75,0,29,29,29,,,,,,,,,,,,,18.01408730000003,0.014087300000028335,1,50.27379969999947,50.27379969999947,50.27379969999947,50.27379969999947,50.27379969999947,50.27379969999947,50.27379969999947,51.00778649999938,50.27379969999947,50.27379969999947,0.42557919999944716,007,P011,2025_Feb_08_1048,ConditionRich,2021.2.3,59.92703284458933,
18.75,19.0,41,0.0,Stimuli/Blank.png,0,0,0.0,0,30,30,30,,,,,,,,,,,,,18.76569500000005,0.01569500000005064,None,51.024454599999444,51.024454599999444,51.024454599999444,51.024454599999444,51.024454599999444,51.024454599999444,51.024454599999444,51.024454599999444,51.024454599999444,51.024454599999444,,007,P011,2025_Feb_08_1048,ConditionRich,2021.2.3,59.92703284458933,
19.0,19.75,18,0.75,Stimuli/P011/sun_bxlbxustiovyqyrg.jpg,0,0,0.0,0,31,31,31,,,,,,,,,,,,,18.99884050000037,-0.0011594999996304978,None,51.25800789999994,51.25800789999994,51.25800789999994,51.25800789999994,51.25800789999994,51.25800789999994,51.25800789999994,51.25800789999994,51.25800789999994,51.25800789999994,,007,P011,2025_Feb_08_1048,ConditionRich,2021.2.3,59.92703284458933,
19.75,20.0,41,0.0,Stimuli/Blank.png,0,0,0.0,0,32,32,32,,,,,,,,,,,,,19.74872630000027,-0.0012736999997287057,None,52.00865729999987,52.00865729999987,52.00865729999987,52.00865729999987,52.00865729999987,52.00865729999987,52.00865729999987,52.00865729999987,52.00865729999987,52.00865729999987,,007,P011,2025_Feb_08_1048,ConditionRich,2021.2.3,59.92703284458933,
20.0,20.75,27,0.75,Stimuli/P011/things_girl_06s.jpg,0,0,0.0,0,33,33,33,,,,,,,,,,,,,20.015675399999964,0.0156753999999637,None,52.275578899999346,52.275578899999346,52.275578899999346,52.275578899999346,52.275578899999346,52.275578899999346,52.275578899999346,52.275578899999346,52.275578899999346,52.275578899999346,,007,P011,2025_Feb_08_1048,ConditionRich,2021.2.3,59.92703284458933,
20.75,21.0,41,0.0,Stimuli/Blank.png,0,0,0.0,0,34,34,34,,,,,,,,,,,,,20.75022480000007,0.00022480000006908085,None,53.00955429999976,53.00955429999976,53.00955429999976,53.00955429999976,53.00955429999976,53.00955429999976,53.00955429999976,53.00955429999976,53.00955429999976,53.00955429999976,,007,P011,2025_Feb_08_1048,ConditionRich,2021.2.3,59.92703284458933,
21.0,21.75,27,0.75,Stimuli/P011/things_girl_06s.jpg,0,0,0.0,0,35,35,35,,,,,,,,,,,,,21.000702000000274,0.0007020000002739835,None,53.25976660000015,53.25976660000015,53.25976660000015,53.25976660000015,53.25976660000015,53.25976660000015,53.25976660000015,53.25976660000015,53.25976660000015,53.25976660000015,,007,P011,2025_Feb_08_1048,ConditionRich,2021.2.3,59.92703284458933,
21.75,22.0,41,0.0,Stimuli/Blank.png,0,0,0.0,0,36,36,36,,,,,,,,,,,,,21.75132140000005,0.0013214000000516535,None,54.010442099999636,54.010442099999636,54.010442099999636,54.010442099999636,54.010442099999636,54.010442099999636,54.010442099999636,54.010442099999636,54.010442099999636,54.010442099999636,,007,P011,2025_Feb_08_1048,ConditionRich,2021.2.3,59.92703284458933,
22.0,22.75,27,0.75,Stimuli/P011/things_girl_06s.jpg,0,0,0.0,0,37,37,37,,,,,,,,,,,,,22.00191200000063,0.0019120000006296323,None,54.27733480000006,54.27733480000006,54.27733480000006,54.27733480000006,54.27733480000006,54.27733480000006,54.27733480000006,54.27733480000006,54.27733480000006,54.27733480000006,,007,P011,2025_Feb_08_1048,ConditionRich,2021.2.3,59.92703284458933,
22.75,23.0,41,0.0,Stimuli/Blank.png,0,0,0.0,0,38,38,38,,,,,,,,,,,,,22.768862300000364,0.018862300000364485,None,55.02800769999976,55.02800769999976,55.02800769999976,55.02800769999976,55.02800769999976,55.02800769999976,55.02800769999976,55.02800769999976,55.02800769999976,55.02800769999976,,007,P011,2025_Feb_08_1048,ConditionRich,2021.2.3,59.92703284458933,
23.0,23.75,27,0.75,Stimuli/P011/things_girl_06s.jpg,0,0,0.0,0,39,39,39,,,,,,,,,,,,,23.004484300000513,0.004484300000513031,None,55.27822119999928,55.27822119999928,55.27822119999928,55.27822119999928,55.27822119999928,55.27822119999928,55.27822119999928,55.27822119999928,55.27822119999928,55.27822119999928,,007,P011,2025_Feb_08_1048,ConditionRich,2021.2.3,59.92703284458933,
23.75,24.0,41,0.0,Stimuli/Blank.png,0,0,0.0,0,40,40,40,,,,,,,,,,,,,23.769703900000422,0.019703900000422436,None,56.02889239999968,56.02889239999968,56.02889239999968,56.02889239999968,56.02889239999968,56.02889239999968,56.02889239999968,56.02889239999968,56.02889239999968,56.02889239999968,,007,P011,2025_Feb_08_1048,ConditionRich,2021.2.3,59.92703284458933,
24.0,24.75,36,0.75,Stimuli/P011/things_shower_cap_06s.jpg,0,0,0.0,0,41,41,41,,,,,,,,,,,,,24.004721500000414,0.00472150000041438,None,56.279109099999914,56.279109099999914,56.279109099999914,56.279109099999914,56.279109099999914,56.279109099999914,56.279109099999914,56.279109099999914,56.279109099999914,56.279109099999914,,007,P011,2025_Feb_08_1048,ConditionRich,2021.2.3,59.92703284458933,
24.75,25.0,41,0.0,Stimuli/Blank.png,0,0,0.0,0,42,42,42,,,,,,,,,,,,,24.77113410000038,0.021134100000381295,None,57.02979309999955,57.02979309999955,57.02979309999955,57.02979309999955,57.02979309999955,57.02979309999955,57.02979309999955,57.02979309999955,57.02979309999955,57.02979309999955,,007,P011,2025_Feb_08_1048,ConditionRich,2021.2.3,59.92703284458933,
25.0,25.75,36,0.75,Stimuli/P011/things_shower_cap_06s.jpg,0,0,0.0,0,43,43,43,,,,,,,,,,,,,25.00493910000023,0.004939100000228791,None,57.279964199999995,57.279964199999995,57.279964199999995,57.279964199999995,57.279964199999995,57.279964199999995,57.279964199999995,57.279964199999995,57.279964199999995,57.279964199999995,,007,P011,2025_Feb_08_1048,ConditionRich,2021.2.3,59.92703284458933,
25.75,26.0,41,0.0,Stimuli/Blank.png,0,0,0.0,0,44,44,44,,,,,,,,,,,,,25.771585200000118,0.021585200000117766,None,58.030649399999675,58.030649399999675,58.030649399999675,58.030649399999675,58.030649399999675,58.030649399999675,58.030649399999675,58.030649399999675,58.030649399999675,58.030649399999675,,007,P011,2025_Feb_08_1048,ConditionRich,2021.2.3,59.92703284458933,
26.0,26.75,36,0.75,Stimuli/P011/things_shower_cap_06s.jpg,0,0,0.0,0,45,45,45,,,,,,,,,,,,,26.005506600000444,0.00550660000044445,None,58.28090079999947,58.28090079999947,58.28090079999947,58.28090079999947,58.28090079999947,58.28090079999947,58.28090079999947,58.28090079999947,58.28090079999947,58.28090079999947,,007,P011,2025_Feb_08_1048,ConditionRich,2021.2.3,59.92703284458933,
26.75,27.0,41,0.0,Stimuli/Blank.png,0,0,0.0,0,46,46,46,,,,,,,,,,,,,26.772221700000046,0.02222170000004553,None,59.031614999999874,59.031614999999874,59.031614999999874,59.031614999999874,59.031614999999874,59.031614999999874,59.031614999999874,59.031614999999874,59.031614999999874,59.031614999999874,,007,P011,2025_Feb_08_1048,ConditionRich,2021.2.3,59.92703284458933,
27.0,27.75,36,0.75,Stimuli/P011/things_shower_cap_06s.jpg,0,0,0.0,0,47,47,47,,,,,,,,,,,,,27.005347500000425,0.005347500000425498,None,59.26505209999959,59.26505209999959,59.26505209999959,59.26505209999959,59.26505209999959,59.26505209999959,59.26505209999959,59.26505209999959,59.26505209999959,59.26505209999959,,007,P011,2025_Feb_08_1048,ConditionRich,2021.2.3,59.92703284458933,
27.75,28.0,41,0.0,Stimuli/Blank.png,0,0,0.0,0,48,48,48,,,,,,,,,,,,,27.75670330000048,0.006703300000481249,None,60.01575969999976,60.01575969999976,60.01575969999976,60.01575969999976,60.01575969999976,60.01575969999976,60.01575969999976,60.01575969999976,60.01575969999976,60.01575969999976,,007,P011,2025_Feb_08_1048,ConditionRich,2021.2.3,59.92703284458933,
28.0,28.75,17,0.75,Stimuli/P011/sun_btvwhlxbhcqnqzok.jpg,0,0,0.0,0,49,49,49,,,,,,,,,,,,,28.006825700000263,0.0068257000002631685,None,60.26592509999955,60.26592509999955,60.26592509999955,60.26592509999955,60.26592509999955,60.26592509999955,60.26592509999955,60.26592509999955,60.26592509999955,60.26592509999955,,007,P011,2025_Feb_08_1048,ConditionRich,2021.2.3,59.92703284458933,
28.75,29.0,41,0.0,Stimuli/Blank.png,0,0,0.0,0,50,50,50,,,,,,,,,,,,,28.756707300000016,0.006707300000016403,None,61.016629799999464,61.016629799999464,61.016629799999464,61.016629799999464,61.016629799999464,61.016629799999464,61.016629799999464,61.016629799999464,61.016629799999464,61.016629799999464,,007,P011,2025_Feb_08_1048,ConditionRich,2021.2.3,59.92703284458933,
29.0,29.75,17,0.75,Stimuli/P011/sun_btvwhlxbhcqnqzok.jpg,0,0,0.0,0,51,51,51,,,,,,,,,,,,,29.007798900000125,0.007798900000125286,None,61.28350210000008,61.28350210000008,61.28350210000008,61.28350210000008,61.28350210000008,61.28350210000008,61.28350210000008,61.28350210000008,61.28350210000008,61.28350210000008,,007,P011,2025_Feb_08_1048,ConditionRich,2021.2.3,59.92703284458933,
29.75,30.0,41,0.0,Stimuli/Blank.png,0,0,0.0,0,52,52,52,,,,,,,,,,,,,29.774530000000595,0.024530000000595464,None,62.03419750000012,62.03419750000012,62.03419750000012,62.03419750000012,62.03419750000012,62.03419750000012,62.03419750000012,62.03419750000012,62.03419750000012,62.03419750000012,,007,P011,2025_Feb_08_1048,ConditionRich,2021.2.3,59.92703284458933,
30.0,30.75,17,0.75,Stimuli/P011/sun_btvwhlxbhcqnqzok.jpg,0,0,0.0,0,53,53,53,,,,,,,,,,,,,30.00888329999998,0.0088832999999795,None,62.2677163999997,62.2677163999997,62.2677163999997,62.2677163999997,62.2677163999997,62.2677163999997,62.2677163999997,62.2677163999997,62.2677163999997,62.2677163999997,,007,P011,2025_Feb_08_1048,ConditionRich,2021.2.3,59.92703284458933,
30.75,31.0,41,0.0,Stimuli/Blank.png,0,0,0.0,0,54,54,54,,,,,,,,,,,,,30.760095900000124,0.010095900000123947,None,63.01840959999936,63.01840959999936,63.01840959999936,63.01840959999936,63.01840959999936,63.01840959999936,63.01840959999936,63.01840959999936,63.01840959999936,63.01840959999936,,007,P011,2025_Feb_08_1048,ConditionRich,2021.2.3,59.92703284458933,
31.0,31.75,17,0.75,Stimuli/P011/sun_btvwhlxbhcqnqzok.jpg,0,0,0.0,0,55,55,55,,,,,,,,,,,,,31.008767600000283,0.008767600000282982,None,63.26861370000006,63.26861370000006,63.26861370000006,63.26861370000006,63.26861370000006,63.26861370000006,63.26861370000006,63.26861370000006,63.26861370000006,63.26861370000006,,007,P011,2025_Feb_08_1048,ConditionRich,2021.2.3,59.92703284458933,
31.75,32.0,41,0.0,Stimuli/Blank.png,0,0,0.0,0,56,56,56,,,,,,,,,,,,,31.760880499999985,0.01088049999998475,None,64.03598520000014,64.03598520000014,64.03598520000014,64.03598520000014,64.03598520000014,64.03598520000014,64.03598520000014,64.03598520000014,64.03598520000014,64.03598520000014,,007,P011,2025_Feb_08_1048,ConditionRich,2021.2.3,59.92703284458933,
32.0,32.75,10,0.75,Stimuli/P011/sun_awufkrkrdrdbvvis.jpg,0,0,0.0,0,57,57,57,,,,,,,,,,,,,32.027074300000095,0.02707430000009481,None,64.28618199999983,64.28618199999983,64.28618199999983,64.28618199999983,64.28618199999983,64.28618199999983,64.28618199999983,64.28618199999983,64.28618199999983,64.28618199999983,,007,P011,2025_Feb_08_1048,ConditionRich,2021.2.3,59.92703284458933,
32.75,33.0,41,0.0,Stimuli/Blank.png,0,0,0.0,0,58,58,58,,,,,,,,,,,,,32.7610095,0.011009500000000116,None,65.02017029999934,65.02017029999934,65.02017029999934,65.02017029999934,65.02017029999934,65.02017029999934,65.02017029999934,65.02017029999934,65.02017029999934,65.02017029999934,,007,P011,2025_Feb_08_1048,ConditionRich,2021.2.3,59.92703284458933,
33.0,33.75,10,0.75,Stimuli/P011/sun_awufkrkrdrdbvvis.jpg,0,0,0.0,0,59,59,59,,,,,,,,,,,,,33.01070140000047,0.01070140000047104,None,65.27038660000017,65.27038660000017,65.27038660000017,65.27038660000017,65.27038660000017,65.27038660000017,65.27038660000017,65.27038660000017,65.27038660000017,65.27038660000017,,007,P011,2025_Feb_08_1048,ConditionRich,2021.2.3,59.92703284458933,
33.75,34.0,41,0.0,Stimuli/Blank.png,0,0,0.0,0,60,60,60,,,,,,,,,,,,,33.761522000000696,0.011522000000695698,None,66.02107669999987,66.02107669999987,66.02107669999987,66.02107669999987,66.02107669999987,66.02107669999987,66.02107669999987,66.02107669999987,66.02107669999987,66.02107669999987,,007,P011,2025_Feb_08_1048,ConditionRich,2021.2.3,59.92703284458933,
34.0,34.75,10,0.75,Stimuli/P011/sun_awufkrkrdrdbvvis.jpg,0,0,0.0,0,61,61,61,,,,,,,,,,,,,34.0114123000003,0.011412300000301911,None,66.2712762000001,66.2712762000001,66.2712762000001,66.2712762000001,66.2712762000001,66.2712762000001,66.2712762000001,66.2712762000001,66.2712762000001,66.2712762000001,,007,P011,2025_Feb_08_1048,ConditionRich,2021.2.3,59.92703284458933,
34.75,35.0,41,0.0,Stimuli/Blank.png,0,0,0.0,0,62,62,62,,,,,,,,,,,,,34.76279849999992,0.012798499999917112,None,67.02195099999972,67.02195099999972,67.02195099999972,67.02195099999972,67.02195099999972,67.02195099999972,67.02195099999972,67.02195099999972,67.02195099999972,67.02195099999972,,007,P011,2025_Feb_08_1048,ConditionRich,2021.2.3,59.92703284458933,
35.0,35.75,10,0.75,Stimuli/P011/sun_awufkrkrdrdbvvis.jpg,0,0,0.0,0,63,63,63,,,,,,,,,,,,,35.01582810000036,0.01582810000036261,None,67.28885829999945,67.28885829999945,67.28885829999945,67.28885829999945,67.28885829999945,67.28885829999945,67.28885829999945,67.28885829999945,67.28885829999945,67.28885829999945,,007,P011,2025_Feb_08_1048,ConditionRich,2021.2.3,59.92703284458933,
35.75,36.0,41,0.0,Stimuli/Blank.png,0,0,0.0,0,64,64,64,,,,,,,,,,,,,35.76362880000033,0.013628800000333285,None,68.02282999999989,68.02282999999989,68.02282999999989,68.02282999999989,68.02282999999989,68.02282999999989,68.02282999999989,68.02282999999989,68.02282999999989,68.02282999999989,,007,P011,2025_Feb_08_1048,ConditionRich,2021.2.3,59.92703284458933,
36.0,36.75,15,0.75,Stimuli/P011/sun_bmngnyuahubpqroh.jpg,0,0,0.0,0,65,65,65,,,,,,,,,,,,,36.01360410000052,0.013604100000520702,None,68.27306469999985,68.27306469999985,68.27306469999985,68.27306469999985,68.27306469999985,68.27306469999985,68.27306469999985,68.27306469999985,68.27306469999985,68.27306469999985,,007,P011,2025_Feb_08_1048,ConditionRich,2021.2.3,59.92703284458933,
36.75,37.0,41,0.0,Stimuli/Blank.png,0,0,0.0,0,66,66,66,,,,,,,,,,,,,36.76467380000031,0.014673800000309711,None,69.02370900000005,69.02370900000005,69.02370900000005,69.02370900000005,69.02370900000005,69.02370900000005,69.02370900000005,69.02370900000005,69.02370900000005,69.02370900000005,,007,P011,2025_Feb_08_1048,ConditionRich,2021.2.3,59.92703284458933,
37.0,37.75,15,0.75,Stimuli/P011/sun_bmngnyuahubpqroh.jpg,0,0,0.0,0,67,67,67,,,,,,,,,,,,,37.015307499999835,0.015307499999835272,None,69.29065739999987,69.29065739999987,69.29065739999987,69.29065739999987,69.29065739999987,69.29065739999987,69.29065739999987,69.29065739999987,69.29065739999987,69.29065739999987,,007,P011,2025_Feb_08_1048,ConditionRich,2021.2.3,59.92703284458933,
37.75,38.0,41,0.0,Stimuli/Blank.png,0,0,0.0,0,68,68,68,,,,,,,,,,,,,37.76495010000053,0.014950100000532984,None,70.0245973000001,70.0245973000001,70.0245973000001,70.0245973000001,70.0245973000001,70.0245973000001,70.0245973000001,70.0245973000001,70.0245973000001,70.0245973000001,,007,P011,2025_Feb_08_1048,ConditionRich,2021.2.3,59.92703284458933,
38.0,38.75,15,0.75,Stimuli/P011/sun_bmngnyuahubpqroh.jpg,0,0,0.0,0,69,69,69,,,,,,,,,,,,,38.01598670000021,0.015986700000212295,None,70.29153080000015,70.29153080000015,70.29153080000015,70.29153080000015,70.29153080000015,70.29153080000015,70.29153080000015,70.29153080000015,70.29153080000015,70.29153080000015,,007,P011,2025_Feb_08_1048,ConditionRich,2021.2.3,59.92703284458933,
38.75,39.0,41,0.0,Stimuli/Blank.png,0,0,0.0,0,70,70,70,,,,,,,,,,,,,38.7662992000005,0.016299200000503333,None,71.0255416,71.0255416,71.0255416,71.0255416,71.0255416,71.0255416,71.0255416,71.0255416,71.0255416,71.0255416,,007,P011,2025_Feb_08_1048,ConditionRich,2021.2.3,59.92703284458933,
39.0,39.75,15,0.75,Stimuli/P011/sun_bmngnyuahubpqroh.jpg,0,0,0.0,0,71,71,71,,,,,,,,,,,,,39.00007760000062,7.760000062262407e-05,None,71.25902629999928,71.25902629999928,71.25902629999928,71.25902629999928,71.25902629999928,71.25902629999928,71.25902629999928,71.25902629999928,71.25902629999928,71.25902629999928,,007,P011,2025_Feb_08_1048,ConditionRich,2021.2.3,59.92703284458933,
39.75,40.0,41,0.0,Stimuli/Blank.png,0,0,0.0,0,72,72,72,,,,,,,,,,,,,39.75050850000025,0.0005085000002509332,None,72.00969480000003,72.00969480000003,72.00969480000003,72.00969480000003,72.00969480000003,72.00969480000003,72.00969480000003,72.00969480000003,72.00969480000003,72.00969480000003,,007,P011,2025_Feb_08_1048,ConditionRich,2021.2.3,59.92703284458933,
40.0,40.75,39,0.75,Stimuli/P011/things_thermometer_06s.jpg,1,0,0.75,0,73,73,73,,,,,,,,,,,,,40.0002170000007,0.00021700000070268288,1,72.25986889999967,72.25986889999967,72.25986889999967,72.25986889999967,72.25986889999967,72.25986889999967,72.25986889999967,72.99389379999957,72.25986889999967,72.25986889999967,0.4615283000002819,007,P011,2025_Feb_08_1048,ConditionRich,2021.2.3,59.92703284458933,
40.75,41.0,41,0.0,Stimuli/Blank.png,0,0,0.0,0,74,74,74,,,,,,,,,,,,,40.7518656000002,0.0018656000002010842,None,73.01064409999981,73.01064409999981,73.01064409999981,73.01064409999981,73.01064409999981,73.01064409999981,73.01064409999981,73.01064409999981,73.01064409999981,73.01064409999981,,007,P011,2025_Feb_08_1048,ConditionRich,2021.2.3,59.92703284458933,
41.0,41.75,39,0.75,Stimuli/P011/things_thermometer_06s.jpg,0,0,0.0,0,75,75,75,,,,,,,,,,,,,41.002015400000346,0.002015400000345835,None,73.27748139999949,73.27748139999949,73.27748139999949,73.27748139999949,73.27748139999949,73.27748139999949,73.27748139999949,73.27748139999949,73.27748139999949,73.27748139999949,,007,P011,2025_Feb_08_1048,ConditionRich,2021.2.3,59.92703284458933,
41.75,42.0,41,0.0,Stimuli/Blank.png,0,0,0.0,0,76,76,76,,,,,,,,,,,,,41.769237800000155,0.019237800000155403,None,74.02815209999972,74.02815209999972,74.02815209999972,74.02815209999972,74.02815209999972,74.02815209999972,74.02815209999972,74.02815209999972,74.02815209999972,74.02815209999972,,007,P011,2025_Feb_08_1048,ConditionRich,2021.2.3,59.92703284458933,
42.0,42.75,39,0.75,Stimuli/P011/things_thermometer_06s.jpg,0,0,0.0,0,77,77,77,,,,,,,,,,,,,42.002901400000155,0.002901400000155263,None,74.27835739999955,74.27835739999955,74.27835739999955,74.27835739999955,74.27835739999955,74.27835739999955,74.27835739999955,74.27835739999955,74.27835739999955,74.27835739999955,,007,P011,2025_Feb_08_1048,ConditionRich,2021.2.3,59.92703284458933,
42.75,43.0,41,0.0,Stimuli/Blank.png,0,0,0.0,0,78,78,78,,,,,,,,,,,,,42.769799600000624,0.019799600000624196,None,75.02903509999942,75.02903509999942,75.02903509999942,75.02903509999942,75.02903509999942,75.02903509999942,75.02903509999942,75.02903509999942,75.02903509999942,75.02903509999942,,007,P011,2025_Feb_08_1048,ConditionRich,2021.2.3,59.92703284458933,
43.0,43.75,39,0.75,Stimuli/P011/things_thermometer_06s.jpg,0,0,0.0,0,79,79,79,,,,,,,,,,,,,43.00496269999985,0.004962699999850884,None,75.27924519999942,75.27924519999942,75.27924519999942,75.27924519999942,75.27924519999942,75.27924519999942,75.27924519999942,75.27924519999942,75.27924519999942,75.27924519999942,,007,P011,2025_Feb_08_1048,ConditionRich,2021.2.3,59.92703284458933,
43.75,44.0,41,0.0,Stimuli/Blank.png,0,0,0.0,0,80,80,80,,,,,,,,,,,,,43.770040500000505,0.020040500000504835,None,76.02990210000007,76.02990210000007,76.02990210000007,76.02990210000007,76.02990210000007,76.02990210000007,76.02990210000007,76.02990210000007,76.02990210000007,76.02990210000007,,007,P011,2025_Feb_08_1048,ConditionRich,2021.2.3,59.92703284458933,
44.0,44.75,4,0.75,Stimuli/P011/sun_akpdzjejmtbfopdt.jpg,0,0,0.0,0,81,81,81,,,,,,,,,,,,,44.004207699999824,0.004207699999824399,None,76.26340919999984,76.26340919999984,76.26340919999984,76.26340919999984,76.26340919999984,76.26340919999984,76.26340919999984,76.26340919999984,76.26340919999984,76.26340919999984,,007,P011,2025_Feb_08_1048,ConditionRich,2021.2.3,59.92703284458933,
44.75,45.0,41,0.0,Stimuli/Blank.png,0,0,0.0,0,82,82,82,,,,,,,,,,,,,44.75485010000011,0.004850100000112434,None,77.01412549999986,77.01412549999986,77.01412549999986,77.01412549999986,77.01412549999986,77.01412549999986,77.01412549999986,77.01412549999986,77.01412549999986,77.01412549999986,,007,P011,2025_Feb_08_1048,ConditionRich,2021.2.3,59.92703284458933,
45.0,45.75,4,0.75,Stimuli/P011/sun_akpdzjejmtbfopdt.jpg,0,0,0.0,0,83,83,83,,,,,,,,,,,,,45.00543410000046,0.005434100000456965,None,77.26434449999942,77.26434449999942,77.26434449999942,77.26434449999942,77.26434449999942,77.26434449999942,77.26434449999942,77.26434449999942,77.26434449999942,77.26434449999942,,007,P011,2025_Feb_08_1048,ConditionRich,2021.2.3,59.92703284458933,
45.75,46.0,41,0.0,Stimuli/Blank.png,0,0,0.0,0,84,84,84,,,,,,,,,,,,,45.7559497000002,0.005949700000201119,None,78.0156565999996,78.0156565999996,78.0156565999996,78.0156565999996,78.0156565999996,78.0156565999996,78.0156565999996,78.0156565999996,78.0156565999996,78.0156565999996,,007,P011,2025_Feb_08_1048,ConditionRich,2021.2.3,59.92703284458933,
46.0,46.75,4,0.75,Stimuli/P011/sun_akpdzjejmtbfopdt.jpg,0,0,0.0,0,85,85,85,,,,,,,,,,,,,46.00609609999992,0.006096099999922444,None,78.26518739999938,78.26518739999938,78.26518739999938,78.26518739999938,78.26518739999938,78.26518739999938,78.26518739999938,78.26518739999938,78.26518739999938,78.26518739999938,,007,P011,2025_Feb_08_1048,ConditionRich,2021.2.3,59.92703284458933,
46.75,47.0,41,0.0,Stimuli/Blank.png,0,0,0.0,0,86,86,86,,,,,,,,,,,,,46.756225500000255,0.006225500000255124,None,79.01588009999978,79.01588009999978,79.01588009999978,79.01588009999978,79.01588009999978,79.01588009999978,79.01588009999978,79.01588009999978,79.01588009999978,79.01588009999978,,007,P011,2025_Feb_08_1048,ConditionRich,2021.2.3,59.92703284458933,
47.0,47.75,4,0.75,Stimuli/P011/sun_akpdzjejmtbfopdt.jpg,0,0,0.0,0,87,87,87,,,,,,,,,,,,,47.006363299999975,0.006363299999975425,None,79.26610809999966,79.26610809999966,79.26610809999966,79.26610809999966,79.26610809999966,79.26610809999966,79.26610809999966,79.26610809999966,79.26610809999966,79.26610809999966,,007,P011,2025_Feb_08_1048,ConditionRich,2021.2.3,59.92703284458933,
47.75,48.0,41,0.0,Stimuli/Blank.png,0,0,0.0,0,88,88,88,,,,,,,,,,,,,47.759849699999904,0.00984969999990426,None,80.03344809999999,80.03344809999999,80.03344809999999,80.03344809999999,80.03344809999999,80.03344809999999,80.03344809999999,80.03344809999999,80.03344809999999,80.03344809999999,,007,P011,2025_Feb_08_1048,ConditionRich,2021.2.3,59.92703284458933,
48.0,48.75,37,0.75,Stimuli/P011/things_spam_06s.jpg,0,0,0.0,0,89,89,89,,,,,,,,,,,,,48.02477750000071,0.02477750000070955,None,80.28367209999942,80.28367209999942,80.28367209999942,80.28367209999942,80.28367209999942,80.28367209999942,80.28367209999942,80.28367209999942,80.28367209999942,80.28367209999942,,007,P011,2025_Feb_08_1048,ConditionRich,2021.2.3,59.92703284458933,
48.75,49.0,41,0.0,Stimuli/Blank.png,0,0,0.0,0,90,90,90,,,,,,,,,,,,,48.759851300000264,0.009851300000264018,None,81.03435600000012,81.03435600000012,81.03435600000012,81.03435600000012,81.03435600000012,81.03435600000012,81.03435600000012,81.03435600000012,81.03435600000012,81.03435600000012,,007,P011,2025_Feb_08_1048,ConditionRich,2021.2.3,59.92703284458933,
49.0,49.75,37,0.75,Stimuli/P011/things_spam_06s.jpg,0,0,0.0,0,91,91,91,,,,,,,,,,,,,49.027062000000114,0.027062000000114494,None,81.3012461999997,81.3012461999997,81.3012461999997,81.3012461999997,81.3012461999997,81.3012461999997,81.3012461999997,81.3012461999997,81.3012461999997,81.3012461999997,,007,P011,2025_Feb_08_1048,ConditionRich,2021.2.3,59.92703284458933,
49.75,50.0,41,0.0,Stimuli/Blank.png,0,0,0.0,0,92,92,92,,,,,,,,,,,,,49.77547140000024,0.025471400000242284,None,82.03524010000001,82.03524010000001,82.03524010000001,82.03524010000001,82.03524010000001,82.03524010000001,82.03524010000001,82.03524010000001,82.03524010000001,82.03524010000001,,007,P011,2025_Feb_08_1048,ConditionRich,2021.2.3,59.92703284458933,
50.0,50.75,37,0.75,Stimuli/P011/things_spam_06s.jpg,0,0,0.0,0,93,93,93,,,,,,,,,,,,,50.00955590000012,0.009555900000123074,None,82.26875990000008,82.26875990000008,82.26875990000008,82.26875990000008,82.26875990000008,82.26875990000008,82.26875990000008,82.26875990000008,82.26875990000008,82.26875990000008,,007,P011,2025_Feb_08_1048,ConditionRich,2021.2.3,59.92703284458933,
50.75,51.0,41,0.0,Stimuli/Blank.png,0,0,0.0,0,94,94,94,,,,,,,,,,,,,50.76067200000034,0.010672000000340631,None,83.03612399999929,83.03612399999929,83.03612399999929,83.03612399999929,83.03612399999929,83.03612399999929,83.03612399999929,83.03612399999929,83.03612399999929,83.03612399999929,,007,P011,2025_Feb_08_1048,ConditionRich,2021.2.3,59.92703284458933,
51.0,51.75,37,0.75,Stimuli/P011/things_spam_06s.jpg,0,0,0.0,0,95,95,95,,,,,,,,,,,,,51.02645699999994,0.02645699999993667,None,83.2863225000001,83.2863225000001,83.2863225000001,83.2863225000001,83.2863225000001,83.2863225000001,83.2863225000001,83.2863225000001,83.2863225000001,83.2863225000001,,007,P011,2025_Feb_08_1048,ConditionRich,2021.2.3,59.92703284458933,
51.75,52.0,41,0.0,Stimuli/Blank.png,0,0,0.0,0,96,96,96,,,,,,,,,,,,,51.76113650000025,0.011136500000247906,None,84.02030689999992,84.02030689999992,84.02030689999992,84.02030689999992,84.02030689999992,84.02030689999992,84.02030689999992,84.02030689999992,84.02030689999992,84.02030689999992,,007,P011,2025_Feb_08_1048,ConditionRich,2021.2.3,59.92703284458933,
52.0,52.75,25,0.75,Stimuli/P011/things_face_06s.jpg,0,0,0.0,0,97,97,97,,,,,,,,,,,,,52.010663099999874,0.010663099999874248,None,84.27050619999955,84.27050619999955,84.27050619999955,84.27050619999955,84.27050619999955,84.27050619999955,84.27050619999955,84.27050619999955,84.27050619999955,84.27050619999955,,007,P011,2025_Feb_08_1048,ConditionRich,2021.2.3,59.92703284458933,
52.75,53.0,41,0.0,Stimuli/Blank.png,0,0,0.0,0,98,98,98,,,,,,,,,,,,,52.761443400000644,0.011443400000644033,None,85.02119330000005,85.02119330000005,85.02119330000005,85.02119330000005,85.02119330000005,85.02119330000005,85.02119330000005,85.02119330000005,85.02119330000005,85.02119330000005,,007,P011,2025_Feb_08_1048,ConditionRich,2021.2.3,59.92703284458933,
53.0,53.75,25,0.75,Stimuli/P011/things_face_06s.jpg,0,0,0.0,0,99,99,99,,,,,,,,,,,,,53.01185560000067,0.011855600000671984,None,85.28809309999997,85.28809309999997,85.28809309999997,85.28809309999997,85.28809309999997,85.28809309999997,85.28809309999997,85.28809309999997,85.28809309999997,85.28809309999997,,007,P011,2025_Feb_08_1048,ConditionRich,2021.2.3,59.92703284458933,
53.75,54.0,41,0.0,Stimuli/Blank.png,0,0,0.0,0,100,100,100,,,,,,,,,,,,,53.779124600000614,0.02912460000061401,None,86.03879069999948,86.03879069999948,86.03879069999948,86.03879069999948,86.03879069999948,86.03879069999948,86.03879069999948,86.03879069999948,86.03879069999948,86.03879069999948,,007,P011,2025_Feb_08_1048,ConditionRich,2021.2.3,59.92703284458933,
54.0,54.75,25,0.75,Stimuli/P011/things_face_06s.jpg,0,0,0.0,0,101,101,101,,,,,,,,,,,,,54.01291470000069,0.012914700000692392,None,86.28899679999995,86.28899679999995,86.28899679999995,86.28899679999995,86.28899679999995,86.28899679999995,86.28899679999995,86.28899679999995,86.28899679999995,86.28899679999995,,007,P011,2025_Feb_08_1048,ConditionRich,2021.2.3,59.92703284458933,
54.75,55.0,41,0.0,Stimuli/Blank.png,0,0,0.0,0,102,102,102,,,,,,,,,,,,,54.78058500000043,0.03058500000042841,None,87.03964739999992,87.03964739999992,87.03964739999992,87.03964739999992,87.03964739999992,87.03964739999992,87.03964739999992,87.03964739999992,87.03964739999992,87.03964739999992,,007,P011,2025_Feb_08_1048,ConditionRich,2021.2.3,59.92703284458933,
55.0,55.75,25,0.75,Stimuli/P011/things_face_06s.jpg,0,0,0.0,0,103,103,103,,,,,,,,,,,,,55.013937499999884,0.013937499999883585,None,87.27324989999943,87.27324989999943,87.27324989999943,87.27324989999943,87.27324989999943,87.27324989999943,87.27324989999943,87.27324989999943,87.27324989999943,87.27324989999943,,007,P011,2025_Feb_08_1048,ConditionRich,2021.2.3,59.92703284458933,
55.75,56.0,41,0.0,Stimuli/Blank.png,0,0,0.0,0,104,104,104,,,,,,,,,,,,,55.765131799999835,0.015131799999835494,None,88.02385219999996,88.02385219999996,88.02385219999996,88.02385219999996,88.02385219999996,88.02385219999996,88.02385219999996,88.02385219999996,88.02385219999996,88.02385219999996,,007,P011,2025_Feb_08_1048,ConditionRich,2021.2.3,59.92703284458933,
56.0,56.75,5,0.75,Stimuli/P011/sun_anfwllcezhlypoti.jpg,0,0,0.0,0,105,105,105,,,,,,,,,,,,,56.01431830000001,0.01431830000001355,None,88.27406900000005,88.27406900000005,88.27406900000005,88.27406900000005,88.27406900000005,88.27406900000005,88.27406900000005,88.27406900000005,88.27406900000005,88.27406900000005,,007,P011,2025_Feb_08_1048,ConditionRich,2021.2.3,59.92703284458933,
56.75,57.0,41,0.0,Stimuli/Blank.png,0,0,0.0,0,106,106,106,,,,,,,,,,,,,56.765092300000106,0.015092300000105752,None,89.0247389999995,89.0247389999995,89.0247389999995,89.0247389999995,89.0247389999995,89.0247389999995,89.0247389999995,89.0247389999995,89.0247389999995,89.0247389999995,,007,P011,2025_Feb_08_1048,ConditionRich,2021.2.3,59.92703284458933,
57.0,57.75,5,0.75,Stimuli/P011/sun_anfwllcezhlypoti.jpg,0,0,0.0,0,107,107,107,,,,,,,,,,,,,57.015431400000125,0.015431400000124995,None,89.27496319999955,89.27496319999955,89.27496319999955,89.27496319999955,89.27496319999955,89.27496319999955,89.27496319999955,89.27496319999955,89.27496319999955,89.27496319999955,,007,P011,2025_Feb_08_1048,ConditionRich,2021.2.3,59.92703284458933,
57.75,58.0,41,0.0,Stimuli/Blank.png,0,0,0.0,0,108,108,108,,,,,,,,,,,,,57.75050060000012,0.0005006000001230859,None,90.00894229999994,90.00894229999994,90.00894229999994,90.00894229999994,90.00894229999994,90.00894229999994,90.00894229999994,90.00894229999994,90.00894229999994,90.00894229999994,,007,P011,2025_Feb_08_1048,ConditionRich,2021.2.3,59.92703284458933,
58.0,58.75,5,0.75,Stimuli/P011/sun_anfwllcezhlypoti.jpg,0,0,0.0,0,109,109,109,,,,,,,,,,,,,58.000050999999985,5.0999999984924216e-05,None,90.27584309999929,90.27584309999929,90.27584309999929,90.27584309999929,90.27584309999929,90.27584309999929,90.27584309999929,90.27584309999929,90.27584309999929,90.27584309999929,,007,P011,2025_Feb_08_1048,ConditionRich,2021.2.3,59.92703284458933,
58.75,59.0,41,0.0,Stimuli/Blank.png,0,0,0.0,0,110,110,110,,,,,,,,,,,,,58.77026079999996,0.02026079999996,None,91.04328319999968,91.04328319999968,91.04328319999968,91.04328319999968,91.04328319999968,91.04328319999968,91.04328319999968,91.04328319999968,91.04328319999968,91.04328319999968,,007,P011,2025_Feb_08_1048,ConditionRich,2021.2.3,59.92703284458933,
59.0,59.75,5,0.75,Stimuli/P011/sun_anfwllcezhlypoti.jpg,0,0,0.0,0,111,111,111,,,,,,,,,,,,,59.01682609999989,0.016826099999889266,None,91.29342519999955,91.29342519999955,91.29342519999955,91.29342519999955,91.29342519999955,91.29342519999955,91.29342519999955,91.29342519999955,91.29342519999955,91.29342519999955,,007,P011,2025_Feb_08_1048,ConditionRich,2021.2.3,59.92703284458933,
59.75,60.0,41,0.0,Stimuli/Blank.png,0,0,0.0,0,112,112,112,,,,,,,,,,,,,59.769755300000725,0.019755300000724674,None,92.04407329999958,92.04407329999958,92.04407329999958,92.04407329999958,92.04407329999958,92.04407329999958,92.04407329999958,92.04407329999958,92.04407329999958,92.04407329999958,,007,P011,2025_Feb_08_1048,ConditionRich,2021.2.3,59.92703284458933,
60.0,60.75,32,0.75,Stimuli/P011/things_hood_06s.jpg,0,0,0.0,0,113,113,113,,,,,,,,,,,,,60.018047800000204,0.018047800000204006,None,92.2776073999994,92.2776073999994,92.2776073999994,92.2776073999994,92.2776073999994,92.2776073999994,92.2776073999994,92.2776073999994,92.2776073999994,92.2776073999994,,007,P011,2025_Feb_08_1048,ConditionRich,2021.2.3,59.92703284458933,
60.75,61.0,41,0.0,Stimuli/Blank.png,0,0,0.0,0,114,114,114,,,,,,,,,,,,,60.75231190000068,0.0023119000006772694,None,93.01167720000012,93.01167720000012,93.01167720000012,93.01167720000012,93.01167720000012,93.01167720000012,93.01167720000012,93.01167720000012,93.01167720000012,93.01167720000012,,007,P011,2025_Feb_08_1048,ConditionRich,2021.2.3,59.92703284458933,
61.0,61.75,32,0.75,Stimuli/P011/things_hood_06s.jpg,1,0,0.75,0,115,115,115,,,,,,,,,,,,,61.004734799999824,0.0047347999998237356,1,93.27847399999973,93.27847399999973,93.27847399999973,93.27847399999973,93.27847399999973,93.27847399999973,93.27847399999973,94.01249849999931,93.27847399999973,93.27847399999973,0.6377374000003329,007,P011,2025_Feb_08_1048,ConditionRich,2021.2.3,59.92703284458933,
61.75,62.0,41,0.0,Stimuli/Blank.png,0,0,0.0,0,116,116,116,,,,,,,,,,,,,61.770398900000146,0.02039890000014566,None,94.02917539999999,94.02917539999999,94.02917539999999,94.02917539999999,94.02917539999999,94.02917539999999,94.02917539999999,94.02917539999999,94.02917539999999,94.02917539999999,,007,P011,2025_Feb_08_1048,ConditionRich,2021.2.3,59.92703284458933,
62.0,62.75,32,0.75,Stimuli/P011/things_hood_06s.jpg,0,0,0.0,0,117,117,117,,,,,,,,,,,,,62.00566250000065,0.005662500000653381,None,94.27937649999967,94.27937649999967,94.27937649999967,94.27937649999967,94.27937649999967,94.27937649999967,94.27937649999967,94.27937649999967,94.27937649999967,94.27937649999967,,007,P011,2025_Feb_08_1048,ConditionRich,2021.2.3,59.92703284458933,
62.75,63.0,41,0.0,Stimuli/Blank.png,0,0,0.0,0,118,118,118,,,,,,,,,,,,,62.77023569999983,0.020235699999830103,None,95.03004030000011,95.03004030000011,95.03004030000011,95.03004030000011,95.03004030000011,95.03004030000011,95.03004030000011,95.03004030000011,95.03004030000011,95.03004030000011,,007,P011,2025_Feb_08_1048,ConditionRich,2021.2.3,59.92703284458933,
63.0,63.75,32,0.75,Stimuli/P011/things_hood_06s.jpg,0,0,0.0,0,119,119,119,,,,,,,,,,,,,63.004447500000424,0.004447500000424043,None,95.2802686999994,95.2802686999994,95.2802686999994,95.2802686999994,95.2802686999994,95.2802686999994,95.2802686999994,95.2802686999994,95.2802686999994,95.2802686999994,,007,P011,2025_Feb_08_1048,ConditionRich,2021.2.3,59.92703284458933,
63.75,64.0,41,0.0,Stimuli/Blank.png,0,0,0.0,0,120,120,120,,,,,,,,,,,,,63.771067600000606,0.021067600000606035,None,96.0309299999999,96.0309299999999,96.0309299999999,96.0309299999999,96.0309299999999,96.0309299999999,96.0309299999999,96.0309299999999,96.0309299999999,96.0309299999999,,007,P011,2025_Feb_08_1048,ConditionRich,2021.2.3,59.92703284458933,
64.0,64.75,16,0.75,Stimuli/P011/sun_bpuwvyadswjfoaby.jpg,0,0,0.0,0,121,121,121,,,,,,,,,,,,,64.0054312000002,0.005431200000202807,None,96.28112019999935,96.28112019999935,96.28112019999935,96.28112019999935,96.28112019999935,96.28112019999935,96.28112019999935,96.28112019999935,96.28112019999935,96.28112019999935,,007,P011,2025_Feb_08_1048,ConditionRich,2021.2.3,59.92703284458933,
64.75,65.0,41,0.0,Stimuli/Blank.png,0,0,0.0,0,122,122,122,,,,,,,,,,,,,64.77195480000046,0.021954800000457908,None,97.0318170999999,97.0318170999999,97.0318170999999,97.0318170999999,97.0318170999999,97.0318170999999,97.0318170999999,97.0318170999999,97.0318170999999,97.0318170999999,,007,P011,2025_Feb_08_1048,ConditionRich,2021.2.3,59.92703284458933,
65.0,65.75,16,0.75,Stimuli/P011/sun_bpuwvyadswjfoaby.jpg,0,0,0.0,0,123,123,123,,,,,,,,,,,,,65.00600510000004,0.00600510000003851,None,97.26536149999993,97.26536149999993,97.26536149999993,97.26536149999993,97.26536149999993,97.26536149999993,97.26536149999993,97.26536149999993,97.26536149999993,97.26536149999993,,007,P011,2025_Feb_08_1048,ConditionRich,2021.2.3,59.92703284458933,
65.75,66.0,41,0.0,Stimuli/Blank.png,0,0,0.0,0,124,124,124,,,,,,,,,,,,,65.7569567999999,0.006956799999898067,None,98.01602790000015,98.01602790000015,98.01602790000015,98.01602790000015,98.01602790000015,98.01602790000015,98.01602790000015,98.01602790000015,98.01602790000015,98.01602790000015,,007,P011,2025_Feb_08_1048,ConditionRich,2021.2.3,59.92703284458933,
66.0,66.75,16,0.75,Stimuli/P011/sun_bpuwvyadswjfoaby.jpg,0,0,0.0,0,125,125,125,,,,,,,,,,,,,66.00710290000006,0.007102900000063528,None,98.28292580000016,98.28292580000016,98.28292580000016,98.28292580000016,98.28292580000016,98.28292580000016,98.28292580000016,98.28292580000016,98.28292580000016,98.28292580000016,,007,P011,2025_Feb_08_1048,ConditionRich,2021.2.3,59.92703284458933,
66.75,67.0,41,0.0,Stimuli/Blank.png,0,0,0.0,0,126,126,126,,,,,,,,,,,,,66.77381670000068,0.023816700000679702,None,99.03359039999941,99.03359039999941,99.03359039999941,99.03359039999941,99.03359039999941,99.03359039999941,99.03359039999941,99.03359039999941,99.03359039999941,99.03359039999941,,007,P011,2025_Feb_08_1048,ConditionRich,2021.2.3,59.92703284458933,
67.0,67.75,16,0.75,Stimuli/P011/sun_bpuwvyadswjfoaby.jpg,1,0,0.75,0,127,127,127,,,,,,,,,,,,,67.00797240000065,0.007972400000653579,1,99.28380809999999,99.28380809999999,99.28380809999999,99.28380809999999,99.28380809999999,99.28380809999999,99.28380809999999,100.00110349999977,99.28380809999999,99.28380809999999,0.5984413000005588,007,P011,2025_Feb_08_1048,ConditionRich,2021.2.3,59.92703284458933,
67.75,68.0,41,0.0,Stimuli/Blank.png,0,0,0.0,0,128,128,128,,,,,,,,,,,,,67.77534259999993,0.025342599999930826,None,100.0344482999999,100.0344482999999,100.0344482999999,100.0344482999999,100.0344482999999,100.0344482999999,100.0344482999999,100.0344482999999,100.0344482999999,100.0344482999999,,007,P011,2025_Feb_08_1048,ConditionRich,2021.2.3,59.92703284458933,
68.0,68.75,34,0.75,Stimuli/P011/things_polar_bear_06s.jpg,0,0,0.0,0,129,129,129,,,,,,,,,,,,,68.01087410000036,0.010874100000364706,None,100.28469679999944,100.28469679999944,100.28469679999944,100.28469679999944,100.28469679999944,100.28469679999944,100.28469679999944,100.28469679999944,100.28469679999944,100.28469679999944,,007,P011,2025_Feb_08_1048,ConditionRich,2021.2.3,59.92703284458933,
68.75,69.0,41,0.0,Stimuli/Blank.png,0,0,0.0,0,130,130,130,,,,,,,,,,,,,68.7762072000005,0.026207200000499142,None,101.03536069999973,101.03536069999973,101.03536069999973,101.03536069999973,101.03536069999973,101.03536069999973,101.03536069999973,101.03536069999973,101.03536069999973,101.03536069999973,,007,P011,2025_Feb_08_1048,ConditionRich,2021.2.3,59.92703284458933,
69.0,69.75,34,0.75,Stimuli/P011/things_polar_bear_06s.jpg,0,0,0.0,0,131,131,131,,,,,,,,,,,,,69.0090594000003,0.009059400000296591,None,101.26889560000018,101.26889560000018,101.26889560000018,101.26889560000018,101.26889560000018,101.26889560000018,101.26889560000018,101.26889560000018,101.26889560000018,101.26889560000018,,007,P011,2025_Feb_08_1048,ConditionRich,2021.2.3,59.92703284458933,
69.75,70.0,41,0.0,Stimuli/Blank.png,0,0,0.0,0,132,132,132,,,,,,,,,,,,,69.76116710000042,0.01116710000042076,None,102.0195647999999,102.0195647999999,102.0195647999999,102.0195647999999,102.0195647999999,102.0195647999999,102.0195647999999,102.0195647999999,102.0195647999999,102.0195647999999,,007,P011,2025_Feb_08_1048,ConditionRich,2021.2.3,59.92703284458933,
70.0,70.75,34,0.75,Stimuli/P011/things_polar_bear_06s.jpg,0,0,0.0,0,133,133,133,,,,,,,,,,,,,70.01145820000056,0.011458200000561192,None,102.28646879999997,102.28646879999997,102.28646879999997,102.28646879999997,102.28646879999997,102.28646879999997,102.28646879999997,102.28646879999997,102.28646879999997,102.28646879999997,,007,P011,2025_Feb_08_1048,ConditionRich,2021.2.3,59.92703284458933,
70.75,71.0,41,0.0,Stimuli/Blank.png,0,0,0.0,0,134,134,134,,,,,,,,,,,,,70.7773270000007,0.02732700000069599,None,103.03712989999985,103.03712989999985,103.03712989999985,103.03712989999985,103.03712989999985,103.03712989999985,103.03712989999985,103.03712989999985,103.03712989999985,103.03712989999985,,007,P011,2025_Feb_08_1048,ConditionRich,2021.2.3,59.92703284458933,
71.0,71.75,34,0.75,Stimuli/P011/things_polar_bear_06s.jpg,0,0,0.0,0,135,135,135,,,,,,,,,,,,,71.01116910000019,0.011169100000188337,None,103.2873469999995,103.2873469999995,103.2873469999995,103.2873469999995,103.2873469999995,103.2873469999995,103.2873469999995,103.2873469999995,103.2873469999995,103.2873469999995,,007,P011,2025_Feb_08_1048,ConditionRich,2021.2.3,59.92703284458933,
71.75,72.0,41,0.0,Stimuli/Blank.png,0,0,0.0,0,136,136,136,,,,,,,,,,,,,71.77900970000064,0.029009700000642624,None,104.03802859999996,104.03802859999996,104.03802859999996,104.03802859999996,104.03802859999996,104.03802859999996,104.03802859999996,104.03802859999996,104.03802859999996,104.03802859999996,,007,P011,2025_Feb_08_1048,ConditionRich,2021.2.3,59.92703284458933,
72.0,72.75,14,0.75,Stimuli/P011/sun_blybvkoucskrdgiv.jpg,0,0,0.0,0,137,137,137,,,,,,,,,,,,,72.01239990000067,0.01239990000067337,None,104.2882540999999,104.2882540999999,104.2882540999999,104.2882540999999,104.2882540999999,104.2882540999999,104.2882540999999,104.2882540999999,104.2882540999999,104.2882540999999,,007,P011,2025_Feb_08_1048,ConditionRich,2021.2.3,59.92703284458933,
72.75,73.0,41,0.0,Stimuli/Blank.png,0,0,0.0,0,138,138,138,,,,,,,,,,,,,72.7791244,0.029124400000000605,None,105.03889369999979,105.03889369999979,105.03889369999979,105.03889369999979,105.03889369999979,105.03889369999979,105.03889369999979,105.03889369999979,105.03889369999979,105.03889369999979,,007,P011,2025_Feb_08_1048,ConditionRich,2021.2.3,59.92703284458933,
73.0,73.75,14,0.75,Stimuli/P011/sun_blybvkoucskrdgiv.jpg,0,0,0.0,0,139,139,139,,,,,,,,,,,,,73.01328379999995,0.013283799999953771,None,105.27244040000005,105.27244040000005,105.27244040000005,105.27244040000005,105.27244040000005,105.27244040000005,105.27244040000005,105.27244040000005,105.27244040000005,105.27244040000005,,007,P011,2025_Feb_08_1048,ConditionRich,2021.2.3,59.92703284458933,
73.75,74.0,41,0.0,Stimuli/Blank.png,0,0,0.0,0,140,140,140,,,,,,,,,,,,,73.76354450000053,0.013544500000534754,None,106.02309950000017,106.02309950000017,106.02309950000017,106.02309950000017,106.02309950000017,106.02309950000017,106.02309950000017,106.02309950000017,106.02309950000017,106.02309950000017,,007,P011,2025_Feb_08_1048,ConditionRich,2021.2.3,59.92703284458933,
74.0,74.75,14,0.75,Stimuli/P011/sun_blybvkoucskrdgiv.jpg,0,0,0.0,0,141,141,141,,,,,,,,,,,,,74.01366260000032,0.01366260000031616,None,106.27333029999954,106.27333029999954,106.27333029999954,106.27333029999954,106.27333029999954,106.27333029999954,106.27333029999954,106.27333029999954,106.27333029999954,106.27333029999954,,007,P011,2025_Feb_08_1048,ConditionRich,2021.2.3,59.92703284458933,
74.75,75.0,41,0.0,Stimuli/Blank.png,0,0,0.0,0,142,142,142,,,,,,,,,,,,,74.76516179999999,0.015161799999987124,None,107.02398480000011,107.02398480000011,107.02398480000011,107.02398480000011,107.02398480000011,107.02398480000011,107.02398480000011,107.02398480000011,107.02398480000011,107.02398480000011,,007,P011,2025_Feb_08_1048,ConditionRich,2021.2.3,59.92703284458933,
75.0,75.75,14,0.75,Stimuli/P011/sun_blybvkoucskrdgiv.jpg,0,0,0.0,0,143,143,143,,,,,,,,,,,,,75.01509440000063,0.015094400000634778,None,107.29091139999946,107.29091139999946,107.29091139999946,107.29091139999946,107.29091139999946,107.29091139999946,107.29091139999946,107.29091139999946,107.29091139999946,107.29091139999946,,007,P011,2025_Feb_08_1048,ConditionRich,2021.2.3,59.92703284458933,
75.75,76.0,41,0.0,Stimuli/Blank.png,0,0,0.0,0,144,144,144,,,,,,,,,,,,,75.76522120000027,0.015221200000269164,None,108.02487429999928,108.02487429999928,108.02487429999928,108.02487429999928,108.02487429999928,108.02487429999928,108.02487429999928,108.02487429999928,108.02487429999928,108.02487429999928,,007,P011,2025_Feb_08_1048,ConditionRich,2021.2.3,59.92703284458933,
76.0,76.75,13,0.75,Stimuli/P011/sun_bjedvzikugwleyer.jpg,0,0,0.0,0,145,145,145,,,,,,,,,,,,,76.01622620000035,0.01622620000034658,None,108.27509379999992,108.27509379999992,108.27509379999992,108.27509379999992,108.27509379999992,108.27509379999992,108.27509379999992,108.27509379999992,108.27509379999992,108.27509379999992,,007,P011,2025_Feb_08_1048,ConditionRich,2021.2.3,59.92703284458933,
76.75,77.0,41,0.0,Stimuli/Blank.png,0,0,0.0,0,146,146,146,,,,,,,,,,,,,76.75131560000045,0.0013156000004528323,None,109.02591940000002,109.02591940000002,109.02591940000002,109.02591940000002,109.02591940000002,109.02591940000002,109.02591940000002,109.02591940000002,109.02591940000002,109.02591940000002,,007,P011,2025_Feb_08_1048,ConditionRich,2021.2.3,59.92703284458933,
77.0,77.75,13,0.75,Stimuli/P011/sun_bjedvzikugwleyer.jpg,0,0,0.0,0,147,147,147,,,,,,,,,,,,,77.01626829999987,0.01626829999986512,None,109.27598299999954,109.27598299999954,109.27598299999954,109.27598299999954,109.27598299999954,109.27598299999954,109.27598299999954,109.27598299999954,109.27598299999954,109.27598299999954,,007,P011,2025_Feb_08_1048,ConditionRich,2021.2.3,59.92703284458933,
77.75,78.0,41,0.0,Stimuli/Blank.png,0,0,0.0,0,148,148,148,,,,,,,,,,,,,77.75063039999986,0.0006303999998635845,None,110.00996269999996,110.00996269999996,110.00996269999996,110.00996269999996,110.00996269999996,110.00996269999996,110.00996269999996,110.00996269999996,110.00996269999996,110.00996269999996,,007,P011,2025_Feb_08_1048,ConditionRich,2021.2.3,59.92703284458933,
78.0,78.75,13,0.75,Stimuli/P011/sun_bjedvzikugwleyer.jpg,0,0,0.0,0,149,149,149,,,,,,,,,,,,,78.00082470000052,0.0008247000005212612,None,110.2601423999995,110.2601423999995,110.2601423999995,110.2601423999995,110.2601423999995,110.2601423999995,110.2601423999995,110.2601423999995,110.2601423999995,110.2601423999995,,007,P011,2025_Feb_08_1048,ConditionRich,2021.2.3,59.92703284458933,
78.75,79.0,41,0.0,Stimuli/Blank.png,0,0,0.0,0,150,150,150,,,,,,,,,,,,,78.75095220000003,0.0009522000000288244,None,111.01082069999939,111.01082069999939,111.01082069999939,111.01082069999939,111.01082069999939,111.01082069999939,111.01082069999939,111.01082069999939,111.01082069999939,111.01082069999939,,007,P011,2025_Feb_08_1048,ConditionRich,2021.2.3,59.92703284458933,
79.0,79.75,13,0.75,Stimuli/P011/sun_bjedvzikugwleyer.jpg,0,0,0.0,0,151,151,151,,,,,,,,,,,,,79.0012858,0.0012858000000051106,None,111.2610765999998,111.2610765999998,111.2610765999998,111.2610765999998,111.2610765999998,111.2610765999998,111.2610765999998,111.2610765999998,111.2610765999998,111.2610765999998,,007,P011,2025_Feb_08_1048,ConditionRich,2021.2.3,59.92703284458933,
79.75,80.0,41,0.0,Stimuli/Blank.png,0,0,0.0,0,152,152,152,,,,,,,,,,,,,79.7545697000005,0.004569700000502053,None,112.0284174999997,112.0284174999997,112.0284174999997,112.0284174999997,112.0284174999997,112.0284174999997,112.0284174999997,112.0284174999997,112.0284174999997,112.0284174999997,,007,P011,2025_Feb_08_1048,ConditionRich,2021.2.3,59.92703284458933,
80.0,80.75,28,0.75,Stimuli/P011/things_grasshopper_06s.jpg,0,0,0.0,0,153,153,153,,,,,,,,,,,,,80.0197420000004,0.019742000000405824,None,112.27861459999986,112.27861459999986,112.27861459999986,112.27861459999986,112.27861459999986,112.27861459999986,112.27861459999986,112.27861459999986,112.27861459999986,112.27861459999986,,007,P011,2025_Feb_08_1048,ConditionRich,2021.2.3,59.92703284458933,
80.75,81.0,41,0.0,Stimuli/Blank.png,0,0,0.0,0,154,154,154,,,,,,,,,,,,,80.75559570000041,0.005595700000412762,None,113.02930339999966,113.02930339999966,113.02930339999966,113.02930339999966,113.02930339999966,113.02930339999966,113.02930339999966,113.02930339999966,113.02930339999966,113.02930339999966,,007,P011,2025_Feb_08_1048,ConditionRich,2021.2.3,59.92703284458933,
81.0,81.75,28,0.75,Stimuli/P011/things_grasshopper_06s.jpg,0,0,0.0,0,155,155,155,,,,,,,,,,,,,81.02039310000055,0.020393100000546838,None,113.29617379999945,113.29617379999945,113.29617379999945,113.29617379999945,113.29617379999945,113.29617379999945,113.29617379999945,113.29617379999945,113.29617379999945,113.29617379999945,,007,P011,2025_Feb_08_1048,ConditionRich,2021.2.3,59.92703284458933,
81.75,82.0,41,0.0,Stimuli/Blank.png,0,0,0.0,0,156,156,156,,,,,,,,,,,,,81.77042660000006,0.020426600000064354,None,114.03018249999968,114.03018249999968,114.03018249999968,114.03018249999968,114.03018249999968,114.03018249999968,114.03018249999968,114.03018249999968,114.03018249999968,114.03018249999968,,007,P011,2025_Feb_08_1048,ConditionRich,2021.2.3,59.92703284458933,
82.0,82.75,28,0.75,Stimuli/P011/things_grasshopper_06s.jpg,0,0,0.0,0,157,157,157,,,,,,,,,,,,,82.00423850000061,0.004238500000610657,None,114.26369410000007,114.26369410000007,114.26369410000007,114.26369410000007,114.26369410000007,114.26369410000007,114.26369410000007,114.26369410000007,114.26369410000007,114.26369410000007,,007,P011,2025_Feb_08_1048,ConditionRich,2021.2.3,59.92703284458933,
82.75,83.0,41,0.0,Stimuli/Blank.png,0,0,0.0,0,158,158,158,,,,,,,,,,,,,82.75510710000071,0.0051071000007141265,None,115.01439039999968,115.01439039999968,115.01439039999968,115.01439039999968,115.01439039999968,115.01439039999968,115.01439039999968,115.01439039999968,115.01439039999968,115.01439039999968,,007,P011,2025_Feb_08_1048,ConditionRich,2021.2.3,59.92703284458933,
83.0,83.75,28,0.75,Stimuli/P011/things_grasshopper_06s.jpg,0,0,0.0,0,159,159,159,,,,,,,,,,,,,83.00557770000069,0.0055777000006855815,None,115.2812912999998,115.2812912999998,115.2812912999998,115.2812912999998,115.2812912999998,115.2812912999998,115.2812912999998,115.2812912999998,115.2812912999998,115.2812912999998,,007,P011,2025_Feb_08_1048,ConditionRich,2021.2.3,59.92703284458933,
83.75,84.0,41,0.0,Stimuli/Blank.png,0,0,0.0,0,160,160,160,,,,,,,,,,,,,83.77296569999999,0.0229656999999861,None,116.0319669999999,116.0319669999999,116.0319669999999,116.0319669999999,116.0319669999999,116.0319669999999,116.0319669999999,116.0319669999999,116.0319669999999,116.0319669999999,,007,P011,2025_Feb_08_1048,ConditionRich,2021.2.3,59.92703284458933,
84.0,100.0,0,0.0,Stimuli/Blank.png,1,3,3.75,0,161,161,161,,,,,,,,,,,,,84.00645270000041,0.006452700000409095,1,116.26547140000002,116.26547140000002,116.26547140000002,116.26547140000002,116.26547140000002,116.26547140000002,119.25151539999933,120.00216679999994,116.26547140000002,116.26547140000002,3.4328747999998086,007,P011,2025_Feb_08_1048,ConditionRich,2021.2.3,59.92703284458933,
100.0,100.75,7,0.75,Stimuli/P011/sun_arugqgwhwdjxezyt.jpg,0,0,0.0,0,162,162,162,,,,,,,,,,,,,100.00589330000003,0.005893300000025192,None,132.2796604999994,132.2796604999994,132.2796604999994,132.2796604999994,132.2796604999994,132.2796604999994,132.2796604999994,132.2796604999994,132.2796604999994,132.2796604999994,,007,P011,2025_Feb_08_1048,ConditionRich,2021.2.3,59.92703284458933,
100.75,101.0,41,0.0,Stimuli/Blank.png,0,0,0.0,0,163,163,163,,,,,,,,,,,,,100.77055720000044,0.02055720000043948,None,133.03030750000016,133.03030750000016,133.03030750000016,133.03030750000016,133.03030750000016,133.03030750000016,133.03030750000016,133.03030750000016,133.03030750000016,133.03030750000016,,007,P011,2025_Feb_08_1048,ConditionRich,2021.2.3,59.92703284458933,
101.0,101.75,7,0.75,Stimuli/P011/sun_arugqgwhwdjxezyt.jpg,0,0,0.0,0,164,164,164,,,,,,,,,,,,,101.00490799999989,0.00490799999988667,None,133.28057959999933,133.28057959999933,133.28057959999933,133.28057959999933,133.28057959999933,133.28057959999933,133.28057959999933,133.28057959999933,133.28057959999933,133.28057959999933,,007,P011,2025_Feb_08_1048,ConditionRich,2021.2.3,59.92703284458933,
101.75,102.0,41,0.0,Stimuli/Blank.png,0,0,0.0,0,165,165,165,,,,,,,,,,,,,101.77146900000025,0.02146900000025198,None,134.0311813999997,134.0311813999997,134.0311813999997,134.0311813999997,134.0311813999997,134.0311813999997,134.0311813999997,134.0311813999997,134.0311813999997,134.0311813999997,,007,P011,2025_Feb_08_1048,ConditionRich,2021.2.3,59.92703284458933,
102.0,102.75,7,0.75,Stimuli/P011/sun_arugqgwhwdjxezyt.jpg,0,0,0.0,0,166,166,166,,,,,,,,,,,,,102.00504490000003,0.005044900000029884,None,134.26471049999964,134.26471049999964,134.26471049999964,134.26471049999964,134.26471049999964,134.26471049999964,134.26471049999964,134.26471049999964,134.26471049999964,134.26471049999964,,007,P011,2025_Feb_08_1048,ConditionRich,2021.2.3,59.92703284458933,
102.75,103.0,41,0.0,Stimuli/Blank.png,0,0,0.0,0,167,167,167,,,,,,,,,,,,,102.75620419999996,0.006204199999956472,None,135.01541180000004,135.01541180000004,135.01541180000004,135.01541180000004,135.01541180000004,135.01541180000004,135.01541180000004,135.01541180000004,135.01541180000004,135.01541180000004,,007,P011,2025_Feb_08_1048,ConditionRich,2021.2.3,59.92703284458933,
103.0,103.75,7,0.75,Stimuli/P011/sun_arugqgwhwdjxezyt.jpg,0,0,0.0,0,168,168,168,,,,,,,,,,,,,103.00645429999986,0.006454299999859359,None,135.26563759999954,135.26563759999954,135.26563759999954,135.26563759999954,135.26563759999954,135.26563759999954,135.26563759999954,135.26563759999954,135.26563759999954,135.26563759999954,,007,P011,2025_Feb_08_1048,ConditionRich,2021.2.3,59.92703284458933,
103.75,104.0,41,0.0,Stimuli/Blank.png,0,0,0.0,0,169,169,169,,,,,,,,,,,,,103.75718020000022,0.007180200000220793,None,136.01630449999993,136.01630449999993,136.01630449999993,136.01630449999993,136.01630449999993,136.01630449999993,136.01630449999993,136.01630449999993,136.01630449999993,136.01630449999993,,007,P011,2025_Feb_08_1048,ConditionRich,2021.2.3,59.92703284458933,
104.0,104.75,20,0.75,Stimuli/P011/sun_ciifteeudwpxupnw.jpg,0,0,0.0,0,170,170,170,,,,,,,,,,,,,104.0096465000006,0.00964650000059919,None,136.2831996999994,136.2831996999994,136.2831996999994,136.2831996999994,136.2831996999994,136.2831996999994,136.2831996999994,136.2831996999994,136.2831996999994,136.2831996999994,,007,P011,2025_Feb_08_1048,ConditionRich,2021.2.3,59.92703284458933,
104.75,105.0,41,0.0,Stimuli/Blank.png,0,0,0.0,0,171,171,171,,,,,,,,,,,,,104.77526620000026,0.02526620000026014,None,137.0338697999996,137.0338697999996,137.0338697999996,137.0338697999996,137.0338697999996,137.0338697999996,137.0338697999996,137.0338697999996,137.0338697999996,137.0338697999996,,007,P011,2025_Feb_08_1048,ConditionRich,2021.2.3,59.92703284458933,
105.0,105.75,20,0.75,Stimuli/P011/sun_ciifteeudwpxupnw.jpg,0,0,0.0,0,172,172,172,,,,,,,,,,,,,105.00781370000004,0.007813700000042445,None,137.26742229999945,137.26742229999945,137.26742229999945,137.26742229999945,137.26742229999945,137.26742229999945,137.26742229999945,137.26742229999945,137.26742229999945,137.26742229999945,,007,P011,2025_Feb_08_1048,ConditionRich,2021.2.3,59.92703284458933,
105.75,106.0,41,0.0,Stimuli/Blank.png,0,0,0.0,0,173,173,173,,,,,,,,,,,,,105.76025550000031,0.010255500000312168,None,138.03524930000003,138.03524930000003,138.03524930000003,138.03524930000003,138.03524930000003,138.03524930000003,138.03524930000003,138.03524930000003,138.03524930000003,138.03524930000003,,007,P011,2025_Feb_08_1048,ConditionRich,2021.2.3,59.92703284458933,
106.0,106.75,20,0.75,Stimuli/P011/sun_ciifteeudwpxupnw.jpg,0,0,0.0,0,174,174,174,,,,,,,,,,,,,106.02513499999986,0.025134999999863794,None,138.2849741,138.2849741,138.2849741,138.2849741,138.2849741,138.2849741,138.2849741,138.2849741,138.2849741,138.2849741,,007,P011,2025_Feb_08_1048,ConditionRich,2021.2.3,59.92703284458933,
106.75,107.0,41,0.0,Stimuli/Blank.png,0,0,0.0,0,175,175,175,,,,,,,,,,,,,106.75905700000021,0.009057000000211701,None,139.0189574999995,139.0189574999995,139.0189574999995,139.0189574999995,139.0189574999995,139.0189574999995,139.0189574999995,139.0189574999995,139.0189574999995,139.0189574999995,,007,P011,2025_Feb_08_1048,ConditionRich,2021.2.3,59.92703284458933,
107.0,107.75,20,0.75,Stimuli/P011/sun_ciifteeudwpxupnw.jpg,0,0,0.0,0,176,176,176,,,,,,,,,,,,,107.0100295000002,0.010029500000200642,None,139.28585589999966,139.28585589999966,139.28585589999966,139.28585589999966,139.28585589999966,139.28585589999966,139.28585589999966,139.28585589999966,139.28585589999966,139.28585589999966,,007,P011,2025_Feb_08_1048,ConditionRich,2021.2.3,59.92703284458933,
107.75,108.0,41,0.0,Stimuli/Blank.png,0,0,0.0,0,177,177,177,,,,,,,,,,,,,107.78082020000056,0.03082020000056218,None,140.05320630000006,140.05320630000006,140.05320630000006,140.05320630000006,140.05320630000006,140.05320630000006,140.05320630000006,140.05320630000006,140.05320630000006,140.05320630000006,,007,P011,2025_Feb_08_1048,ConditionRich,2021.2.3,59.92703284458933,
108.0,108.75,29,0.75,Stimuli/P011/things_gutter_06s.jpg,0,0,0.0,0,178,178,178,,,,,,,,,,,,,108.02684219999992,0.026842199999919103,None,140.28674789999968,140.28674789999968,140.28674789999968,140.28674789999968,140.28674789999968,140.28674789999968,140.28674789999968,140.28674789999968,140.28674789999968,140.28674789999968,,007,P011,2025_Feb_08_1048,ConditionRich,2021.2.3,59.92703284458933,
108.75,109.0,41,0.0,Stimuli/Blank.png,0,0,0.0,0,179,179,179,,,,,,,,,,,,,108.76158230000055,0.011582300000554824,None,141.02072390000012,141.02072390000012,141.02072390000012,141.02072390000012,141.02072390000012,141.02072390000012,141.02072390000012,141.02072390000012,141.02072390000012,141.02072390000012,,007,P011,2025_Feb_08_1048,ConditionRich,2021.2.3,59.92703284458933,
109.0,109.75,29,0.75,Stimuli/P011/things_gutter_06s.jpg,0,0,0.0,0,180,180,180,,,,,,,,,,,,,109.01120450000053,0.01120450000053097,None,141.27093849999983,141.27093849999983,141.27093849999983,141.27093849999983,141.27093849999983,141.27093849999983,141.27093849999983,141.27093849999983,141.27093849999983,141.27093849999983,,007,P011,2025_Feb_08_1048,ConditionRich,2021.2.3,59.92703284458933,
109.75,110.0,41,0.0,Stimuli/Blank.png,0,0,0.0,0,181,181,181,,,,,,,,,,,,,109.76176170000053,0.011761700000533892,None,142.0216117,142.0216117,142.0216117,142.0216117,142.0216117,142.0216117,142.0216117,142.0216117,142.0216117,142.0216117,,007,P011,2025_Feb_08_1048,ConditionRich,2021.2.3,59.92703284458933,
110.0,110.75,29,0.75,Stimuli/P011/things_gutter_06s.jpg,0,0,0.0,0,182,182,182,,,,,,,,,,,,,110.01275840000017,0.012758400000166148,None,142.28851069999928,142.28851069999928,142.28851069999928,142.28851069999928,142.28851069999928,142.28851069999928,142.28851069999928,142.28851069999928,142.28851069999928,142.28851069999928,,007,P011,2025_Feb_08_1048,ConditionRich,2021.2.3,59.92703284458933,
110.75,111.0,41,0.0,Stimuli/Blank.png,0,0,0.0,0,183,183,183,,,,,,,,,,,,,110.77933930000017,0.029339300000174262,None,143.03917899999942,143.03917899999942,143.03917899999942,143.03917899999942,143.03917899999942,143.03917899999942,143.03917899999942,143.03917899999942,143.03917899999942,143.03917899999942,,007,P011,2025_Feb_08_1048,ConditionRich,2021.2.3,59.92703284458933,
111.0,111.75,29,0.75,Stimuli/P011/things_gutter_06s.jpg,0,0,0.0,0,184,184,184,,,,,,,,,,,,,111.01573730000018,0.015737300000182586,None,143.28940179999972,143.28940179999972,143.28940179999972,143.28940179999972,143.28940179999972,143.28940179999972,143.28940179999972,143.28940179999972,143.28940179999972,143.28940179999972,,007,P011,2025_Feb_08_1048,ConditionRich,2021.2.3,59.92703284458933,
111.75,112.0,41,0.0,Stimuli/Blank.png,0,0,0.0,0,185,185,185,,,,,,,,,,,,,111.7640007,0.014000699999996868,None,144.02337809999972,144.02337809999972,144.02337809999972,144.02337809999972,144.02337809999972,144.02337809999972,144.02337809999972,144.02337809999972,144.02337809999972,144.02337809999972,,007,P011,2025_Feb_08_1048,ConditionRich,2021.2.3,59.92703284458933,
112.0,112.75,6,0.75,Stimuli/P011/sun_aqysdudvyxnkcxgq.jpg,0,0,0.0,0,186,186,186,,,,,,,,,,,,,112.01380900000004,0.013809000000037486,None,144.27359709999928,144.27359709999928,144.27359709999928,144.27359709999928,144.27359709999928,144.27359709999928,144.27359709999928,144.27359709999928,144.27359709999928,144.27359709999928,,007,P011,2025_Feb_08_1048,ConditionRich,2021.2.3,59.92703284458933,
112.75,113.0,41,0.0,Stimuli/Blank.png,0,0,0.0,0,187,187,187,,,,,,,,,,,,,112.76547819999996,0.015478199999961362,None,145.02427699999953,145.02427699999953,145.02427699999953,145.02427699999953,145.02427699999953,145.02427699999953,145.02427699999953,145.02427699999953,145.02427699999953,145.02427699999953,,007,P011,2025_Feb_08_1048,ConditionRich,2021.2.3,59.92703284458933,
113.0,113.75,6,0.75,Stimuli/P011/sun_aqysdudvyxnkcxgq.jpg,0,0,0.0,0,188,188,188,,,,,,,,,,,,,112.99939580000046,-0.0006041999995431979,None,145.27460220000012,145.27460220000012,145.27460220000012,145.27460220000012,145.27460220000012,145.27460220000012,145.27460220000012,145.27460220000012,145.27460220000012,145.27460220000012,,007,P011,2025_Feb_08_1048,ConditionRich,2021.2.3,59.92703284458933,
113.75,114.0,41,0.0,Stimuli/Blank.png,0,0,0.0,0,189,189,189,,,,,,,,,,,,,113.76572680000027,0.01572680000026594,None,146.0251660999993,146.0251660999993,146.0251660999993,146.0251660999993,146.0251660999993,146.0251660999993,146.0251660999993,146.0251660999993,146.0251660999993,146.0251660999993,,007,P011,2025_Feb_08_1048,ConditionRich,2021.2.3,59.92703284458933,
114.0,114.75,6,0.75,Stimuli/P011/sun_aqysdudvyxnkcxgq.jpg,0,0,0.0,0,190,190,190,,,,,,,,,,,,,114.00011940000059,0.00011940000058530131,None,146.27537219999977,146.27537219999977,146.27537219999977,146.27537219999977,146.27537219999977,146.27537219999977,146.27537219999977,146.27537219999977,146.27537219999977,146.27537219999977,,007,P011,2025_Feb_08_1048,ConditionRich,2021.2.3,59.92703284458933,
114.75,115.0,41,0.0,Stimuli/Blank.png,0,0,0.0,0,191,191,191,,,,,,,,,,,,,114.7673631000007,0.01736310000069352,None,147.02604100000008,147.02604100000008,147.02604100000008,147.02604100000008,147.02604100000008,147.02604100000008,147.02604100000008,147.02604100000008,147.02604100000008,147.02604100000008,,007,P011,2025_Feb_08_1048,ConditionRich,2021.2.3,59.92703284458933,
115.0,115.75,6,0.75,Stimuli/P011/sun_aqysdudvyxnkcxgq.jpg,0,0,0.0,0,192,192,192,,,,,,,,,,,,,115.00049459999991,0.0004945999999108608,None,147.2595741999994,147.2595741999994,147.2595741999994,147.2595741999994,147.2595741999994,147.2595741999994,147.2595741999994,147.2595741999994,147.2595741999994,147.2595741999994,,007,P011,2025_Feb_08_1048,ConditionRich,2021.2.3,59.92703284458933,
115.75,116.0,41,0.0,Stimuli/Blank.png,0,0,0.0,0,193,193,193,,,,,,,,,,,,,115.75046350000048,0.00046350000047823414,None,148.01026779999938,148.01026779999938,148.01026779999938,148.01026779999938,148.01026779999938,148.01026779999938,148.01026779999938,148.01026779999938,148.01026779999938,148.01026779999938,,007,P011,2025_Feb_08_1048,ConditionRich,2021.2.3,59.92703284458933,
116.0,116.75,33,0.75,Stimuli/P011/things_hot-air_balloon_06s.jpg,0,0,0.0,0,194,194,194,,,,,,,,,,,,,116.00072900000032,0.0007290000003195019,None,148.26041929999974,148.26041929999974,148.26041929999974,148.26041929999974,148.26041929999974,148.26041929999974,148.26041929999974,148.26041929999974,148.26041929999974,148.26041929999974,,007,P011,2025_Feb_08_1048,ConditionRich,2021.2.3,59.92703284458933,
116.75,117.0,41,0.0,Stimuli/Blank.png,0,0,0.0,0,195,195,195,,,,,,,,,,,,,116.75122950000059,0.0012295000005906331,None,149.0110909999994,149.0110909999994,149.0110909999994,149.0110909999994,149.0110909999994,149.0110909999994,149.0110909999994,149.0110909999994,149.0110909999994,149.0110909999994,,007,P011,2025_Feb_08_1048,ConditionRich,2021.2.3,59.92703284458933,
117.0,117.75,33,0.75,Stimuli/P011/things_hot-air_balloon_06s.jpg,0,0,0.0,0,196,196,196,,,,,,,,,,,,,117.00158770000053,0.0015877000005275477,None,149.27804409999953,149.27804409999953,149.27804409999953,149.27804409999953,149.27804409999953,149.27804409999953,149.27804409999953,149.27804409999953,149.27804409999953,149.27804409999953,,007,P011,2025_Feb_08_1048,ConditionRich,2021.2.3,59.92703284458933,
117.75,118.0,41,0.0,Stimuli/Blank.png,0,0,0.0,0,197,197,197,,,,,,,,,,,,,117.76947100000052,0.0194710000005216,None,150.02871079999932,150.02871079999932,150.02871079999932,150.02871079999932,150.02871079999932,150.02871079999932,150.02871079999932,150.02871079999932,150.02871079999932,150.02871079999932,,007,P011,2025_Feb_08_1048,ConditionRich,2021.2.3,59.92703284458933,
118.0,118.75,33,0.75,Stimuli/P011/things_hot-air_balloon_06s.jpg,0,0,0.0,0,198,198,198,,,,,,,,,,,,,118.00242170000001,0.002421700000013516,None,150.2622265,150.2622265,150.2622265,150.2622265,150.2622265,150.2622265,150.2622265,150.2622265,150.2622265,150.2622265,,007,P011,2025_Feb_08_1048,ConditionRich,2021.2.3,59.92703284458933,
118.75,119.0,41,0.0,Stimuli/Blank.png,0,0,0.0,0,199,199,199,,,,,,,,,,,,,118.75646570000026,0.006465700000262586,None,151.02959680000004,151.02959680000004,151.02959680000004,151.02959680000004,151.02959680000004,151.02959680000004,151.02959680000004,151.02959680000004,151.02959680000004,151.02959680000004,,007,P011,2025_Feb_08_1048,ConditionRich,2021.2.3,59.92703284458933,
119.0,119.75,33,0.75,Stimuli/P011/things_hot-air_balloon_06s.jpg,0,0,0.0,0,200,200,200,,,,,,,,,,,,,119.02073460000065,0.02073460000065097,None,151.29649249999966,151.29649249999966,151.29649249999966,151.29649249999966,151.29649249999966,151.29649249999966,151.29649249999966,151.29649249999966,151.29649249999966,151.29649249999966,,007,P011,2025_Feb_08_1048,ConditionRich,2021.2.3,59.92703284458933,
119.75,120.0,41,0.0,Stimuli/Blank.png,0,0,0.0,0,201,201,201,,,,,,,,,,,,,119.77055840000048,0.020558400000481925,None,152.03045589999965,152.03045589999965,152.03045589999965,152.03045589999965,152.03045589999965,152.03045589999965,152.03045589999965,152.03045589999965,152.03045589999965,152.03045589999965,,007,P011,2025_Feb_08_1048,ConditionRich,2021.2.3,59.92703284458933,
120.0,120.75,8,0.75,Stimuli/P011/sun_asppejhsplpizvag.jpg,0,0,0.0,0,202,202,202,,,,,,,,,,,,,120.00562059999993,0.005620599999929254,None,152.28072319999956,152.28072319999956,152.28072319999956,152.28072319999956,152.28072319999956,152.28072319999956,152.28072319999956,152.28072319999956,152.28072319999956,152.28072319999956,,007,P011,2025_Feb_08_1048,ConditionRich,2021.2.3,59.92703284458933,
120.75,121.0,41,0.0,Stimuli/Blank.png,0,0,0.0,0,203,203,203,,,,,,,,,,,,,120.77161060000071,0.02161060000071302,None,153.03133919999982,153.03133919999982,153.03133919999982,153.03133919999982,153.03133919999982,153.03133919999982,153.03133919999982,153.03133919999982,153.03133919999982,153.03133919999982,,007,P011,2025_Feb_08_1048,ConditionRich,2021.2.3,59.92703284458933,
121.0,121.75,8,0.75,Stimuli/P011/sun_asppejhsplpizvag.jpg,0,0,0.0,0,204,204,204,,,,,,,,,,,,,121.00528290000057,0.00528290000056586,None,153.26488489999974,153.26488489999974,153.26488489999974,153.26488489999974,153.26488489999974,153.26488489999974,153.26488489999974,153.26488489999974,153.26488489999974,153.26488489999974,,007,P011,2025_Feb_08_1048,ConditionRich,2021.2.3,59.92703284458933,
121.75,122.0,41,0.0,Stimuli/Blank.png,0,0,0.0,0,205,205,205,,,,,,,,,,,,,121.7562066999999,0.006206699999893317,None,154.01554690000012,154.01554690000012,154.01554690000012,154.01554690000012,154.01554690000012,154.01554690000012,154.01554690000012,154.01554690000012,154.01554690000012,154.01554690000012,,007,P011,2025_Feb_08_1048,ConditionRich,2021.2.3,59.92703284458933,
122.0,122.75,8,0.75,Stimuli/P011/sun_asppejhsplpizvag.jpg,0,0,0.0,0,206,206,206,,,,,,,,,,,,,122.00664680000045,0.006646800000453368,None,154.2657736000001,154.2657736000001,154.2657736000001,154.2657736000001,154.2657736000001,154.2657736000001,154.2657736000001,154.2657736000001,154.2657736000001,154.2657736000001,,007,P011,2025_Feb_08_1048,ConditionRich,2021.2.3,59.92703284458933,
122.75,123.0,41,0.0,Stimuli/Blank.png,0,0,0.0,0,207,207,207,,,,,,,,,,,,,122.75652260000061,0.006522600000607781,None,155.01643929999955,155.01643929999955,155.01643929999955,155.01643929999955,155.01643929999955,155.01643929999955,155.01643929999955,155.01643929999955,155.01643929999955,155.01643929999955,,007,P011,2025_Feb_08_1048,ConditionRich,2021.2.3,59.92703284458933,
123.0,123.75,8,0.75,Stimuli/P011/sun_asppejhsplpizvag.jpg,0,0,0.0,0,208,208,208,,,,,,,,,,,,,123.00722850000056,0.0072285000005649636,None,155.28339059999962,155.28339059999962,155.28339059999962,155.28339059999962,155.28339059999962,155.28339059999962,155.28339059999962,155.28339059999962,155.28339059999962,155.28339059999962,,007,P011,2025_Feb_08_1048,ConditionRich,2021.2.3,59.92703284458933,
123.75,124.0,41,0.0,Stimuli/Blank.png,0,0,0.0,0,209,209,209,,,,,,,,,,,,,123.77520749999985,0.02520749999985128,None,156.03400939999938,156.03400939999938,156.03400939999938,156.03400939999938,156.03400939999938,156.03400939999938,156.03400939999938,156.03400939999938,156.03400939999938,156.03400939999938,,007,P011,2025_Feb_08_1048,ConditionRich,2021.2.3,59.92703284458933,
124.0,124.75,22,0.75,Stimuli/P011/things_boy_06s.jpg,0,0,0.0,0,210,210,210,,,,,,,,,,,,,124.01080869999987,0.010808699999870441,None,156.28421919999982,156.28421919999982,156.28421919999982,156.28421919999982,156.28421919999982,156.28421919999982,156.28421919999982,156.28421919999982,156.28421919999982,156.28421919999982,,007,P011,2025_Feb_08_1048,ConditionRich,2021.2.3,59.92703284458933,
124.75,125.0,41,0.0,Stimuli/Blank.png,0,0,0.0,0,211,211,211,,,,,,,,,,,,,124.77499930000067,0.02499930000067252,None,157.03488449999986,157.03488449999986,157.03488449999986,157.03488449999986,157.03488449999986,157.03488449999986,157.03488449999986,157.03488449999986,157.03488449999986,157.03488449999986,,007,P011,2025_Feb_08_1048,ConditionRich,2021.2.3,59.92703284458933,
125.0,125.75,22,0.75,Stimuli/P011/things_boy_06s.jpg,0,0,0.0,0,212,212,212,,,,,,,,,,,,,125.00939180000023,0.009391800000230432,None,157.2684249999993,157.2684249999993,157.2684249999993,157.2684249999993,157.2684249999993,157.2684249999993,157.2684249999993,157.2684249999993,157.2684249999993,157.2684249999993,,007,P011,2025_Feb_08_1048,ConditionRich,2021.2.3,59.92703284458933,
125.75,126.0,41,0.0,Stimuli/Blank.png,0,0,0.0,0,213,213,213,,,,,,,,,,,,,125.76040809999995,0.010408099999949627,None,158.0191245999995,158.0191245999995,158.0191245999995,158.0191245999995,158.0191245999995,158.0191245999995,158.0191245999995,158.0191245999995,158.0191245999995,158.0191245999995,,007,P011,2025_Feb_08_1048,ConditionRich,2021.2.3,59.92703284458933,
126.0,126.75,22,0.75,Stimuli/P011/things_boy_06s.jpg,1,0,0.75,0,214,214,214,,,,,,,,,,,,,126.00992990000032,0.009929900000315683,None,158.2693075999996,158.2693075999996,158.2693075999996,158.2693075999996,158.2693075999996,158.2693075999996,158.2693075999996,159.00328319999971,158.2693075999996,158.2693075999996,,007,P011,2025_Feb_08_1048,ConditionRich,2021.2.3,59.92703284458933,
126.75,127.0,41,0.0,Stimuli/Blank.png,0,0,0.0,0,215,215,215,,,,,,,,,,,,,126.76087860000007,0.010878600000069127,None,159.01997409999967,159.01997409999967,159.01997409999967,159.01997409999967,159.01997409999967,159.01997409999967,159.01997409999967,159.01997409999967,159.01997409999967,159.01997409999967,,007,P011,2025_Feb_08_1048,ConditionRich,2021.2.3,59.92703284458933,
127.0,127.75,22,0.75,Stimuli/P011/things_boy_06s.jpg,0,0,0.0,0,216,216,216,,,,,,,,,,,,,127.0103852000002,0.010385200000200712,None,159.27019479999944,159.27019479999944,159.27019479999944,159.27019479999944,159.27019479999944,159.27019479999944,159.27019479999944,159.27019479999944,159.27019479999944,159.27019479999944,,007,P011,2025_Feb_08_1048,ConditionRich,2021.2.3,59.92703284458933,
127.75,128.0,41,0.0,Stimuli/Blank.png,0,0,0.0,0,217,217,217,,,,,,,,,,,,,127.7616136000006,0.011613600000600854,None,160.02085979999993,160.02085979999993,160.02085979999993,160.02085979999993,160.02085979999993,160.02085979999993,160.02085979999993,160.02085979999993,160.02085979999993,160.02085979999993,,007,P011,2025_Feb_08_1048,ConditionRich,2021.2.3,59.92703284458933,
128.0,128.75,26,0.75,Stimuli/P011/things_gazelle_06s.jpg,0,0,0.0,0,218,218,218,,,,,,,,,,,,,128.01149369999985,0.011493699999846285,None,160.28779510000004,160.28779510000004,160.28779510000004,160.28779510000004,160.28779510000004,160.28779510000004,160.28779510000004,160.28779510000004,160.28779510000004,160.28779510000004,,007,P011,2025_Feb_08_1048,ConditionRich,2021.2.3,59.92703284458933,
128.75,129.0,41,0.0,Stimuli/Blank.png,0,0,0.0,0,219,219,219,,,,,,,,,,,,,128.7800489000001,0.030048900000110734,None,161.03843939999933,161.03843939999933,161.03843939999933,161.03843939999933,161.03843939999933,161.03843939999933,161.03843939999933,161.03843939999933,161.03843939999933,161.03843939999933,,007,P011,2025_Feb_08_1048,ConditionRich,2021.2.3,59.92703284458933,
129.0,129.75,26,0.75,Stimuli/P011/things_gazelle_06s.jpg,0,0,0.0,0,220,220,220,,,,,,,,,,,,,129.0121122999999,0.012112299999898823,None,161.28861899999993,161.28861899999993,161.28861899999993,161.28861899999993,161.28861899999993,161.28861899999993,161.28861899999993,161.28861899999993,161.28861899999993,161.28861899999993,,007,P011,2025_Feb_08_1048,ConditionRich,2021.2.3,59.92703284458933,
129.75,130.0,41,0.0,Stimuli/Blank.png,0,0,0.0,0,221,221,221,,,,,,,,,,,,,129.78006170000026,0.030061700000260316,None,162.0393157999997,162.0393157999997,162.0393157999997,162.0393157999997,162.0393157999997,162.0393157999997,162.0393157999997,162.0393157999997,162.0393157999997,162.0393157999997,,007,P011,2025_Feb_08_1048,ConditionRich,2021.2.3,59.92703284458933,
130.0,130.75,26,0.75,Stimuli/P011/things_gazelle_06s.jpg,0,0,0.0,0,222,222,222,,,,,,,,,,,,,130.01584510000066,0.01584510000066075,None,162.28958989999956,162.28958989999956,162.28958989999956,162.28958989999956,162.28958989999956,162.28958989999956,162.28958989999956,162.28958989999956,162.28958989999956,162.28958989999956,,007,P011,2025_Feb_08_1048,ConditionRich,2021.2.3,59.92703284458933,
130.75,131.0,41,0.0,Stimuli/Blank.png,0,0,0.0,0,223,223,223,,,,,,,,,,,,,130.76492850000068,0.014928500000678468,None,163.02353399999993,163.02353399999993,163.02353399999993,163.02353399999993,163.02353399999993,163.02353399999993,163.02353399999993,163.02353399999993,163.02353399999993,163.02353399999993,,007,P011,2025_Feb_08_1048,ConditionRich,2021.2.3,59.92703284458933,
131.0,131.75,26,0.75,Stimuli/P011/things_gazelle_06s.jpg,0,0,0.0,0,224,224,224,,,,,,,,,,,,,131.01446320000014,0.014463200000136567,None,163.27373409999927,163.27373409999927,163.27373409999927,163.27373409999927,163.27373409999927,163.27373409999927,163.27373409999927,163.27373409999927,163.27373409999927,163.27373409999927,,007,P011,2025_Feb_08_1048,ConditionRich,2021.2.3,59.92703284458933,
131.75,132.0,41,0.0,Stimuli/Blank.png,0,0,0.0,0,225,225,225,,,,,,,,,,,,,131.76540040000054,0.015400400000544323,None,164.02440359999946,164.02440359999946,164.02440359999946,164.02440359999946,164.02440359999946,164.02440359999946,164.02440359999946,164.02440359999946,164.02440359999946,164.02440359999946,,007,P011,2025_Feb_08_1048,ConditionRich,2021.2.3,59.92703284458933,
132.0,132.75,1,0.75,Stimuli/P011/sun_aeakbqnvptdnxtno.jpg,0,0,0.0,0,226,226,226,,,,,,,,,,,,,132.01556010000058,0.015560100000584498,None,164.27463249999983,164.27463249999983,164.27463249999983,164.27463249999983,164.27463249999983,164.27463249999983,164.27463249999983,164.27463249999983,164.27463249999983,164.27463249999983,,007,P011,2025_Feb_08_1048,ConditionRich,2021.2.3,59.92703284458933,
132.75,133.0,41,0.0,Stimuli/Blank.png,0,0,0.0,0,227,227,227,,,,,,,,,,,,,132.74956629999997,-0.00043370000003051246,None,165.00861209999948,165.00861209999948,165.00861209999948,165.00861209999948,165.00861209999948,165.00861209999948,165.00861209999948,165.00861209999948,165.00861209999948,165.00861209999948,,007,P011,2025_Feb_08_1048,ConditionRich,2021.2.3,59.92703284458933,
133.0,133.75,1,0.75,Stimuli/P011/sun_aeakbqnvptdnxtno.jpg,1,0,0.75,0,228,228,228,,,,,,,,,,,,,132.99924910000027,-0.0007508999997298815,1,165.25882879999972,165.25882879999972,165.25882879999972,165.25882879999972,165.25882879999972,165.25882879999972,165.25882879999972,165.99282589999984,165.25882879999972,165.25882879999972,0.5197345000005953,007,P011,2025_Feb_08_1048,ConditionRich,2021.2.3,59.92703284458933,
133.75,134.0,41,0.0,Stimuli/Blank.png,0,0,0.0,0,229,229,229,,,,,,,,,,,,,133.75037740000062,0.00037740000061603496,None,166.00949969999965,166.00949969999965,166.00949969999965,166.00949969999965,166.00949969999965,166.00949969999965,166.00949969999965,166.00949969999965,166.00949969999965,166.00949969999965,,007,P011,2025_Feb_08_1048,ConditionRich,2021.2.3,59.92703284458933,
134.0,134.75,1,0.75,Stimuli/P011/sun_aeakbqnvptdnxtno.jpg,0,0,0.0,0,230,230,230,,,,,,,,,,,,,134.0012800000004,0.0012800000004062895,None,166.2763957999996,166.2763957999996,166.2763957999996,166.2763957999996,166.2763957999996,166.2763957999996,166.2763957999996,166.2763957999996,166.2763957999996,166.2763957999996,,007,P011,2025_Feb_08_1048,ConditionRich,2021.2.3,59.92703284458933,
134.75,135.0,41,0.0,Stimuli/Blank.png,0,0,0.0,0,231,231,231,,,,,,,,,,,,,134.76836679999997,0.018366799999967043,None,167.02706949999993,167.02706949999993,167.02706949999993,167.02706949999993,167.02706949999993,167.02706949999993,167.02706949999993,167.02706949999993,167.02706949999993,167.02706949999993,,007,P011,2025_Feb_08_1048,ConditionRich,2021.2.3,59.92703284458933,
135.0,135.75,1,0.75,Stimuli/P011/sun_aeakbqnvptdnxtno.jpg,0,0,0.0,0,232,232,232,,,,,,,,,,,,,135.00141609999991,0.0014160999999148771,None,167.27729649999947,167.27729649999947,167.27729649999947,167.27729649999947,167.27729649999947,167.27729649999947,167.27729649999947,167.27729649999947,167.27729649999947,167.27729649999947,,007,P011,2025_Feb_08_1048,ConditionRich,2021.2.3,59.92703284458933,
135.75,136.0,41,0.0,Stimuli/Blank.png,0,0,0.0,0,233,233,233,,,,,,,,,,,,,135.77005999999983,0.020059999999830325,None,168.04464279999956,168.04464279999956,168.04464279999956,168.04464279999956,168.04464279999956,168.04464279999956,168.04464279999956,168.04464279999956,168.04464279999956,168.04464279999956,,007,P011,2025_Feb_08_1048,ConditionRich,2021.2.3,59.92703284458933,
136.0,136.75,24,0.75,Stimuli/P011/things_doily_06s.jpg,0,0,0.0,0,234,234,234,,,,,,,,,,,,,136.01827260000027,0.018272600000273087,None,168.2781697999999,168.2781697999999,168.2781697999999,168.2781697999999,168.2781697999999,168.2781697999999,168.2781697999999,168.2781697999999,168.2781697999999,168.2781697999999,,007,P011,2025_Feb_08_1048,ConditionRich,2021.2.3,59.92703284458933,
136.75,137.0,41,0.0,Stimuli/Blank.png,0,0,0.0,0,235,235,235,,,,,,,,,,,,,136.75239750000037,0.0023975000003702007,None,169.0122191999999,169.0122191999999,169.0122191999999,169.0122191999999,169.0122191999999,169.0122191999999,169.0122191999999,169.0122191999999,169.0122191999999,169.0122191999999,,007,P011,2025_Feb_08_1048,ConditionRich,2021.2.3,59.92703284458933,
137.0,137.75,24,0.75,Stimuli/P011/things_doily_06s.jpg,0,0,0.0,0,236,236,236,,,,,,,,,,,,,137.00405730000057,0.0040573000005679205,None,169.27904390000003,169.27904390000003,169.27904390000003,169.27904390000003,169.27904390000003,169.27904390000003,169.27904390000003,169.27904390000003,169.27904390000003,169.27904390000003,,007,P011,2025_Feb_08_1048,ConditionRich,2021.2.3,59.92703284458933,
137.75,138.0,41,0.0,Stimuli/Blank.png,0,0,0.0,0,237,237,237,,,,,,,,,,,,,137.7704547000003,0.020454700000300363,None,170.02971909999997,170.02971909999997,170.02971909999997,170.02971909999997,170.02971909999997,170.02971909999997,170.02971909999997,170.02971909999997,170.02971909999997,170.02971909999997,,007,P011,2025_Feb_08_1048,ConditionRich,2021.2.3,59.92703284458933,
138.0,138.75,24,0.75,Stimuli/P011/things_doily_06s.jpg,0,0,0.0,0,238,238,238,,,,,,,,,,,,,138.0040669,0.004066899999997986,None,170.2799385999997,170.2799385999997,170.2799385999997,170.2799385999997,170.2799385999997,170.2799385999997,170.2799385999997,170.2799385999997,170.2799385999997,170.2799385999997,,007,P011,2025_Feb_08_1048,ConditionRich,2021.2.3,59.92703284458933,
138.75,139.0,41,0.0,Stimuli/Blank.png,0,0,0.0,0,239,239,239,,,,,,,,,,,,,138.7709746999999,0.020974699999896984,None,171.03059489999941,171.03059489999941,171.03059489999941,171.03059489999941,171.03059489999941,171.03059489999941,171.03059489999941,171.03059489999941,171.03059489999941,171.03059489999941,,007,P011,2025_Feb_08_1048,ConditionRich,2021.2.3,59.92703284458933,
139.0,139.75,24,0.75,Stimuli/P011/things_doily_06s.jpg,0,0,0.0,0,240,240,240,,,,,,,,,,,,,139.00505020000037,0.005050200000368932,None,171.28081639999982,171.28081639999982,171.28081639999982,171.28081639999982,171.28081639999982,171.28081639999982,171.28081639999982,171.28081639999982,171.28081639999982,171.28081639999982,,007,P011,2025_Feb_08_1048,ConditionRich,2021.2.3,59.92703284458933,
139.75,140.0,41,0.0,Stimuli/Blank.png,0,0,0.0,0,241,241,241,,,,,,,,,,,,,139.7717244000005,0.021724400000493915,None,172.03148409999994,172.03148409999994,172.03148409999994,172.03148409999994,172.03148409999994,172.03148409999994,172.03148409999994,172.03148409999994,172.03148409999994,172.03148409999994,,007,P011,2025_Feb_08_1048,ConditionRich,2021.2.3,59.92703284458933,
140.0,140.75,21,0.75,Stimuli/P011/things_baby_06s.jpg,0,0,0.0,0,242,242,242,,,,,,,,,,,,,140.0054551000003,0.005455100000290258,None,172.26502889999938,172.26502889999938,172.26502889999938,172.26502889999938,172.26502889999938,172.26502889999938,172.26502889999938,172.26502889999938,172.26502889999938,172.26502889999938,,007,P011,2025_Feb_08_1048,ConditionRich,2021.2.3,59.92703284458933,
140.75,141.0,41,0.0,Stimuli/Blank.png,0,0,0.0,0,243,243,243,,,,,,,,,,,,,140.75662379999994,0.006623799999943003,None,173.01566709999952,173.01566709999952,173.01566709999952,173.01566709999952,173.01566709999952,173.01566709999952,173.01566709999952,173.01566709999952,173.01566709999952,173.01566709999952,,007,P011,2025_Feb_08_1048,ConditionRich,2021.2.3,59.92703284458933,
141.0,141.75,21,0.75,Stimuli/P011/things_baby_06s.jpg,0,0,0.0,0,244,244,244,,,,,,,,,,,,,141.00658050000038,0.006580500000382017,None,173.26590829999986,173.26590829999986,173.26590829999986,173.26590829999986,173.26590829999986,173.26590829999986,173.26590829999986,173.26590829999986,173.26590829999986,173.26590829999986,,007,P011,2025_Feb_08_1048,ConditionRich,2021.2.3,59.92703284458933,
141.75,142.0,41,0.0,Stimuli/Blank.png,0,0,0.0,0,245,245,245,,,,,,,,,,,,,141.75740250000035,0.0074025000003530295,None,174.01656860000003,174.01656860000003,174.01656860000003,174.01656860000003,174.01656860000003,174.01656860000003,174.01656860000003,174.01656860000003,174.01656860000003,174.01656860000003,,007,P011,2025_Feb_08_1048,ConditionRich,2021.2.3,59.92703284458933,
142.0,142.75,21,0.75,Stimuli/P011/things_baby_06s.jpg,0,0,0.0,0,246,246,246,,,,,,,,,,,,,142.00683730000037,0.0068373000003703055,None,174.26679799999965,174.26679799999965,174.26679799999965,174.26679799999965,174.26679799999965,174.26679799999965,174.26679799999965,174.26679799999965,174.26679799999965,174.26679799999965,,007,P011,2025_Feb_08_1048,ConditionRich,2021.2.3,59.92703284458933,
142.75,143.0,41,0.0,Stimuli/Blank.png,0,0,0.0,0,247,247,247,,,,,,,,,,,,,142.75842900000043,0.008429000000433007,None,175.0174563999999,175.0174563999999,175.0174563999999,175.0174563999999,175.0174563999999,175.0174563999999,175.0174563999999,175.0174563999999,175.0174563999999,175.0174563999999,,007,P011,2025_Feb_08_1048,ConditionRich,2021.2.3,59.92703284458933,
143.0,143.75,21,0.75,Stimuli/P011/things_baby_06s.jpg,0,0,0.0,0,248,248,248,,,,,,,,,,,,,143.00995670000066,0.009956700000657293,None,175.28435349999927,175.28435349999927,175.28435349999927,175.28435349999927,175.28435349999927,175.28435349999927,175.28435349999927,175.28435349999927,175.28435349999927,175.28435349999927,,007,P011,2025_Feb_08_1048,ConditionRich,2021.2.3,59.92703284458933,
143.75,144.0,41,0.0,Stimuli/Blank.png,0,0,0.0,0,249,249,249,,,,,,,,,,,,,143.77658789999987,0.02658789999986766,None,176.03504329999942,176.03504329999942,176.03504329999942,176.03504329999942,176.03504329999942,176.03504329999942,176.03504329999942,176.03504329999942,176.03504329999942,176.03504329999942,,007,P011,2025_Feb_08_1048,ConditionRich,2021.2.3,59.92703284458933,
144.0,144.75,40,0.75,Stimuli/P011/things_woman_06s.jpg,0,0,0.0,0,250,250,250,,,,,,,,,,,,,144.01036420000037,0.010364200000367418,None,176.28524319999997,176.28524319999997,176.28524319999997,176.28524319999997,176.28524319999997,176.28524319999997,176.28524319999997,176.28524319999997,176.28524319999997,176.28524319999997,,007,P011,2025_Feb_08_1048,ConditionRich,2021.2.3,59.92703284458933,
144.75,145.0,41,0.0,Stimuli/Blank.png,0,0,0.0,0,251,251,251,,,,,,,,,,,,,144.77708170000005,0.027081700000053388,None,177.03591059999962,177.03591059999962,177.03591059999962,177.03591059999962,177.03591059999962,177.03591059999962,177.03591059999962,177.03591059999962,177.03591059999962,177.03591059999962,,007,P011,2025_Feb_08_1048,ConditionRich,2021.2.3,59.92703284458933,
145.0,145.75,40,0.75,Stimuli/P011/things_woman_06s.jpg,0,0,0.0,0,252,252,252,,,,,,,,,,,,,145.01041590000023,0.01041590000022552,None,177.2861256999995,177.2861256999995,177.2861256999995,177.2861256999995,177.2861256999995,177.2861256999995,177.2861256999995,177.2861256999995,177.2861256999995,177.2861256999995,,007,P011,2025_Feb_08_1048,ConditionRich,2021.2.3,59.92703284458933,
145.75,146.0,41,0.0,Stimuli/Blank.png,0,0,0.0,0,253,253,253,,,,,,,,,,,,,145.77698250000049,0.026982500000485743,None,178.03679229999943,178.03679229999943,178.03679229999943,178.03679229999943,178.03679229999943,178.03679229999943,178.03679229999943,178.03679229999943,178.03679229999943,178.03679229999943,,007,P011,2025_Feb_08_1048,ConditionRich,2021.2.3,59.92703284458933,
146.0,146.75,40,0.75,Stimuli/P011/things_woman_06s.jpg,0,0,0.0,0,254,254,254,,,,,,,,,,,,,146.01052380000056,0.010523800000555639,None,178.27029109999967,178.27029109999967,178.27029109999967,178.27029109999967,178.27029109999967,178.27029109999967,178.27029109999967,178.27029109999967,178.27029109999967,178.27029109999967,,007,P011,2025_Feb_08_1048,ConditionRich,2021.2.3,59.92703284458933,
146.75,147.0,41,0.0,Stimuli/Blank.png,0,0,0.0,0,255,255,255,,,,,,,,,,,,,146.76193169999988,0.01193169999987731,None,179.02099110000017,179.02099110000017,179.02099110000017,179.02099110000017,179.02099110000017,179.02099110000017,179.02099110000017,179.02099110000017,179.02099110000017,179.02099110000017,,007,P011,2025_Feb_08_1048,ConditionRich,2021.2.3,59.92703284458933,
147.0,147.75,40,0.75,Stimuli/P011/things_woman_06s.jpg,0,0,0.0,0,256,256,256,,,,,,,,,,,,,147.01165370000035,0.011653700000351819,None,179.28791209999963,179.28791209999963,179.28791209999963,179.28791209999963,179.28791209999963,179.28791209999963,179.28791209999963,179.28791209999963,179.28791209999963,179.28791209999963,,007,P011,2025_Feb_08_1048,ConditionRich,2021.2.3,59.92703284458933,
147.75,148.0,41,0.0,Stimuli/Blank.png,0,0,0.0,0,257,257,257,,,,,,,,,,,,,147.78052170000046,0.03052170000046317,None,180.03858109999965,180.03858109999965,180.03858109999965,180.03858109999965,180.03858109999965,180.03858109999965,180.03858109999965,180.03858109999965,180.03858109999965,180.03858109999965,,007,P011,2025_Feb_08_1048,ConditionRich,2021.2.3,59.92703284458933,
148.0,148.75,38,0.75,Stimuli/P011/things_squeegee_06s.jpg,0,0,0.0,0,258,258,258,,,,,,,,,,,,,148.0123180999999,0.012318099999902188,None,180.28879999999936,180.28879999999936,180.28879999999936,180.28879999999936,180.28879999999936,180.28879999999936,180.28879999999936,180.28879999999936,180.28879999999936,180.28879999999936,,007,P011,2025_Feb_08_1048,ConditionRich,2021.2.3,59.92703284458933,
148.75,149.0,41,0.0,Stimuli/Blank.png,0,0,0.0,0,259,259,259,,,,,,,,,,,,,148.7802597,0.030259699999987788,None,181.03946089999954,181.03946089999954,181.03946089999954,181.03946089999954,181.03946089999954,181.03946089999954,181.03946089999954,181.03946089999954,181.03946089999954,181.03946089999954,,007,P011,2025_Feb_08_1048,ConditionRich,2021.2.3,59.92703284458933,
149.0,149.75,38,0.75,Stimuli/P011/things_squeegee_06s.jpg,0,0,0.0,0,260,260,260,,,,,,,,,,,,,149.01527729999998,0.015277299999979732,None,181.2896737000001,181.2896737000001,181.2896737000001,181.2896737000001,181.2896737000001,181.2896737000001,181.2896737000001,181.2896737000001,181.2896737000001,181.2896737000001,,007,P011,2025_Feb_08_1048,ConditionRich,2021.2.3,59.92703284458933,
149.75,150.0,41,0.0,Stimuli/Blank.png,0,0,0.0,0,261,261,261,,,,,,,,,,,,,149.76438120000057,0.01438120000057097,None,182.02367409999988,182.02367409999988,182.02367409999988,182.02367409999988,182.02367409999988,182.02367409999988,182.02367409999988,182.02367409999988,182.02367409999988,182.02367409999988,,007,P011,2025_Feb_08_1048,ConditionRich,2021.2.3,59.92703284458933,
