eventStartTime,eventEndTime,eventCond,imSize,imFile,responseEvent,fixRespStart,fixRespEnd,Events.thisRepN,Events.thisTrialN,Events.thisN,Events.thisIndex,Instructions.started,Instructions.stopped,participantReadyResponse.keys,participantReadyResponse.rt,participantReadyResponse.started,participantReadyResponse.stopped,startWaitforTrigger,triggerResponse.keys,triggerResponse.rt,triggerResponse.started,triggerResponse.stopped,globalTimer,actualStartTime,startTimingDiff,participantResponse.keys,participantResponse.started,participantResponse.stopped,image.started,image.stopped,fixationOutside.started,fixationOutside.stopped,fixationResponse.started,fixationResponse.stopped,fixationInside.started,fixationInside.stopped,participantResponse.rt,session,participant,date,expName,psychopyVersion,frameRate,
,,,,,,,,,,,,10.603009600000405,None,1,2.7568639000000985,10.603009600000405,None,,,,,,,,,,,,,,,,,,,,,005,P011,2025_Feb_08_1028,ConditionRich,2021.2.3,59.90007469525478,
,,,,,,,,,,,,,,,,,,13.374425099999826,5,13.787106900000254,13.38788470000054,None,,,,,,,,,,,,,,,,005,P011,2025_Feb_08_1028,ConditionRich,2021.2.3,59.90007469525478,
0.0,4.0,0,0.0,Stimuli/Blank.png,0,0.0,0.0,0,0,0,0,,,,,,,,,,,,27.187860900000487,0.031675799999902665,0.031675799999902665,None,27.233479100000295,None,27.233479100000295,None,27.233479100000295,None,27.233479100000295,27.233479100000295,27.233479100000295,None,,005,P011,2025_Feb_08_1028,ConditionRich,2021.2.3,59.90007469525478,
4.0,4.75,24,0.75,Stimuli/P011/things_doily_06s.jpg,0,0.0,0.0,0,1,1,1,,,,,,,,,,,,,4.001895399999739,0.0018953999997393112,None,31.203935300000012,31.203935300000012,31.203935300000012,31.203935300000012,31.203935300000012,31.203935300000012,31.203935300000012,31.203935300000012,31.203935300000012,31.203935300000012,,005,P011,2025_Feb_08_1028,ConditionRich,2021.2.3,59.90007469525478,
4.75,8.0,41,0.0,Stimuli/Blank.png,0,0.0,0.0,0,2,2,2,,,,,,,,,,,,,4.753783699999985,0.0037836999999854015,None,31.971283900000344,31.971283900000344,31.971283900000344,31.971283900000344,31.971283900000344,31.971283900000344,31.971283900000344,31.971283900000344,31.971283900000344,31.971283900000344,,005,P011,2025_Feb_08_1028,ConditionRich,2021.2.3,59.90007469525478,
8.0,8.75,4,0.75,Stimuli/P011/sun_akpdzjejmtbfopdt.jpg,0,0.0,0.0,0,3,3,3,,,,,,,,,,,,,8.02303109999957,0.02303109999957087,None,35.240546600000016,35.240546600000016,35.240546600000016,35.240546600000016,35.240546600000016,35.240546600000016,35.240546600000016,35.240546600000016,35.240546600000016,35.240546600000016,,005,P011,2025_Feb_08_1028,ConditionRich,2021.2.3,59.90007469525478,
8.75,12.0,41,0.0,Stimuli/Blank.png,0,0.0,0.0,0,4,4,4,,,,,,,,,,,,,8.7728975,0.022897499999999127,None,35.97454540000035,35.97454540000035,35.97454540000035,35.97454540000035,35.97454540000035,35.97454540000035,35.97454540000035,35.97454540000035,35.97454540000035,35.97454540000035,,005,P011,2025_Feb_08_1028,ConditionRich,2021.2.3,59.90007469525478,
12.0,12.75,10,0.75,Stimuli/P011/sun_awufkrkrdrdbvvis.jpg,0,0.0,0.0,0,5,5,5,,,,,,,,,,,,,12.00878659999944,0.008786599999439204,None,39.21074210000006,39.21074210000006,39.21074210000006,39.21074210000006,39.21074210000006,39.21074210000006,39.21074210000006,39.21074210000006,39.21074210000006,39.21074210000006,,005,P011,2025_Feb_08_1028,ConditionRich,2021.2.3,59.90007469525478,
12.75,16.0,41,0.0,Stimuli/Blank.png,0,0.0,0.0,0,6,6,6,,,,,,,,,,,,,12.758976899999652,0.008976899999652233,None,39.9614032999998,39.9614032999998,39.9614032999998,39.9614032999998,39.9614032999998,39.9614032999998,39.9614032999998,39.9614032999998,39.9614032999998,39.9614032999998,,005,P011,2025_Feb_08_1028,ConditionRich,2021.2.3,59.90007469525478,
16.0,16.75,6,0.75,Stimuli/P011/sun_aqysdudvyxnkcxgq.jpg,0,0.0,0.0,0,7,7,7,,,,,,,,,,,,,16.011794699999882,0.011794699999882141,None,43.230966199999784,43.230966199999784,43.230966199999784,43.230966199999784,43.230966199999784,43.230966199999784,43.230966199999784,43.230966199999784,43.230966199999784,43.230966199999784,,005,P011,2025_Feb_08_1028,ConditionRich,2021.2.3,59.90007469525478,
16.75,20.0,41,0.0,Stimuli/Blank.png,0,0.0,0.0,0,8,8,8,,,,,,,,,,,,,16.78002699999979,0.03002699999979086,None,43.98163769999974,43.98163769999974,43.98163769999974,43.98163769999974,43.98163769999974,43.98163769999974,43.98163769999974,43.98163769999974,43.98163769999974,43.98163769999974,,005,P011,2025_Feb_08_1028,ConditionRich,2021.2.3,59.90007469525478,
20.0,20.75,11,0.75,Stimuli/P011/sun_baylllqlgfvxilor.jpg,0,0.0,0.0,0,9,9,9,,,,,,,,,,,,,19.9993271000003,-0.0006728999996994389,None,47.21781749999991,47.21781749999991,47.21781749999991,47.21781749999991,47.21781749999991,47.21781749999991,47.21781749999991,47.21781749999991,47.21781749999991,47.21781749999991,,005,P011,2025_Feb_08_1028,ConditionRich,2021.2.3,59.90007469525478,
20.75,24.0,41,0.0,Stimuli/Blank.png,0,0.0,0.0,0,10,10,10,,,,,,,,,,,,,20.768932199999654,0.018932199999653676,None,47.98517179999999,47.98517179999999,47.98517179999999,47.98517179999999,47.98517179999999,47.98517179999999,47.98517179999999,47.98517179999999,47.98517179999999,47.98517179999999,,005,P011,2025_Feb_08_1028,ConditionRich,2021.2.3,59.90007469525478,
24.0,24.75,14,0.75,Stimuli/P011/sun_blybvkoucskrdgiv.jpg,0,0.0,0.0,0,11,11,11,,,,,,,,,,,,,24.01954569999998,0.01954569999998057,None,51.23803570000018,51.23803570000018,51.23803570000018,51.23803570000018,51.23803570000018,51.23803570000018,51.23803570000018,51.23803570000018,51.23803570000018,51.23803570000018,,005,P011,2025_Feb_08_1028,ConditionRich,2021.2.3,59.90007469525478,
24.75,28.0,41,0.0,Stimuli/Blank.png,0,0.0,0.0,0,12,12,12,,,,,,,,,,,,,24.769634199999928,0.01963419999992766,None,51.97202509999988,51.97202509999988,51.97202509999988,51.97202509999988,51.97202509999988,51.97202509999988,51.97202509999988,51.97202509999988,51.97202509999988,51.97202509999988,,005,P011,2025_Feb_08_1028,ConditionRich,2021.2.3,59.90007469525478,
28.0,28.75,7,0.75,Stimuli/P011/sun_arugqgwhwdjxezyt.jpg,0,0.0,0.0,0,13,13,13,,,,,,,,,,,,,28.006121299999904,0.006121299999904295,None,55.22490860000016,55.22490860000016,55.22490860000016,55.22490860000016,55.22490860000016,55.22490860000016,55.22490860000016,55.22490860000016,55.22490860000016,55.22490860000016,,005,P011,2025_Feb_08_1028,ConditionRich,2021.2.3,59.90007469525478,
28.75,32.0,41,0.0,Stimuli/Blank.png,0,0.0,0.0,0,14,14,14,,,,,,,,,,,,,28.774001099999623,0.024001099999622966,None,55.975566699999945,55.975566699999945,55.975566699999945,55.975566699999945,55.975566699999945,55.975566699999945,55.975566699999945,55.975566699999945,55.975566699999945,55.975566699999945,,005,P011,2025_Feb_08_1028,ConditionRich,2021.2.3,59.90007469525478,
32.0,32.75,39,0.75,Stimuli/P011/things_thermometer_06s.jpg,1,0.0,0.75,0,15,15,15,,,,,,,,,,,,,32.00977570000032,0.009775700000318466,1,59.211761800000204,59.211761800000204,59.211761800000204,59.211761800000204,59.211761800000204,59.211761800000204,59.211761800000204,59.94574040000043,59.211761800000204,59.211761800000204,0.6201822000002721,005,P011,2025_Feb_08_1028,ConditionRich,2021.2.3,59.90007469525478,
32.75,36.0,41,0.0,Stimuli/Blank.png,0,0.0,0.0,0,16,16,16,,,,,,,,,,,,,32.760160099999666,0.010160099999666272,None,59.96242720000009,59.96242720000009,59.96242720000009,59.96242720000009,59.96242720000009,59.96242720000009,59.96242720000009,59.96242720000009,59.96242720000009,59.96242720000009,,005,P011,2025_Feb_08_1028,ConditionRich,2021.2.3,59.90007469525478,
36.0,36.75,34,0.75,Stimuli/P011/things_polar_bear_06s.jpg,0,0.0,0.0,0,17,17,17,,,,,,,,,,,,,36.0128937999998,0.012893799999801558,None,63.21529759999976,63.21529759999976,63.21529759999976,63.21529759999976,63.21529759999976,63.21529759999976,63.21529759999976,63.21529759999976,63.21529759999976,63.21529759999976,,005,P011,2025_Feb_08_1028,ConditionRich,2021.2.3,59.90007469525478,
36.75,40.0,41,0.0,Stimuli/Blank.png,0,0.0,0.0,0,18,18,18,,,,,,,,,,,,,36.76395489999959,0.013954899999589543,None,63.965982100000474,63.965982100000474,63.965982100000474,63.965982100000474,63.965982100000474,63.965982100000474,63.965982100000474,63.965982100000474,63.965982100000474,63.965982100000474,,005,P011,2025_Feb_08_1028,ConditionRich,2021.2.3,59.90007469525478,
40.0,40.75,16,0.75,Stimuli/P011/sun_bpuwvyadswjfoaby.jpg,0,0.0,0.0,0,19,19,19,,,,,,,,,,,,,39.9997685999997,-0.0002314000003025285,None,67.20216600000003,67.20216600000003,67.20216600000003,67.20216600000003,67.20216600000003,67.20216600000003,67.20216600000003,67.20216600000003,67.20216600000003,67.20216600000003,,005,P011,2025_Feb_08_1028,ConditionRich,2021.2.3,59.90007469525478,
40.75,44.0,41,0.0,Stimuli/Blank.png,0,0.0,0.0,0,20,20,20,,,,,,,,,,,,,40.75034020000021,0.00034020000020973384,None,67.95282020000013,67.95282020000013,67.95282020000013,67.95282020000013,67.95282020000013,67.95282020000013,67.95282020000013,67.95282020000013,67.95282020000013,67.95282020000013,,005,P011,2025_Feb_08_1028,ConditionRich,2021.2.3,59.90007469525478,
44.0,44.75,5,0.75,Stimuli/P011/sun_anfwllcezhlypoti.jpg,0,0.0,0.0,0,21,21,21,,,,,,,,,,,,,44.003335100000186,0.0033351000001857756,None,71.20574459999989,71.20574459999989,71.20574459999989,71.20574459999989,71.20574459999989,71.20574459999989,71.20574459999989,71.20574459999989,71.20574459999989,71.20574459999989,,005,P011,2025_Feb_08_1028,ConditionRich,2021.2.3,59.90007469525478,
44.75,48.0,41,0.0,Stimuli/Blank.png,0,0.0,0.0,0,22,22,22,,,,,,,,,,,,,44.754688899999564,0.004688899999564455,None,71.95637940000051,71.95637940000051,71.95637940000051,71.95637940000051,71.95637940000051,71.95637940000051,71.95637940000051,71.95637940000051,71.95637940000051,71.95637940000051,,005,P011,2025_Feb_08_1028,ConditionRich,2021.2.3,59.90007469525478,
48.0,48.75,32,0.75,Stimuli/P011/things_hood_06s.jpg,0,0.0,0.0,0,23,23,23,,,,,,,,,,,,,48.007242900000165,0.007242900000164809,None,75.20924120000018,75.20924120000018,75.20924120000018,75.20924120000018,75.20924120000018,75.20924120000018,75.20924120000018,75.20924120000018,75.20924120000018,75.20924120000018,,005,P011,2025_Feb_08_1028,ConditionRich,2021.2.3,59.90007469525478,
48.75,52.0,41,0.0,Stimuli/Blank.png,0,0.0,0.0,0,24,24,24,,,,,,,,,,,,,48.75810099999944,0.008100999999442138,None,75.95991310000045,75.95991310000045,75.95991310000045,75.95991310000045,75.95991310000045,75.95991310000045,75.95991310000045,75.95991310000045,75.95991310000045,75.95991310000045,,005,P011,2025_Feb_08_1028,ConditionRich,2021.2.3,59.90007469525478,
52.0,52.75,9,0.75,Stimuli/P011/sun_aupohozmrmtfgcsw.jpg,0,0.0,0.0,0,25,25,25,,,,,,,,,,,,,52.011048200000005,0.011048200000004726,None,79.21278840000014,79.21278840000014,79.21278840000014,79.21278840000014,79.21278840000014,79.21278840000014,79.21278840000014,79.21278840000014,79.21278840000014,79.21278840000014,,005,P011,2025_Feb_08_1028,ConditionRich,2021.2.3,59.90007469525478,
52.75,56.0,41,0.0,Stimuli/Blank.png,1,1.25,2.0,0,26,26,26,,,,,,,,,,,,,52.76368860000002,0.013688600000023143,1,79.98014560000047,79.98014560000047,79.98014560000047,79.98014560000047,79.98014560000047,79.98014560000047,81.21458880000046,81.96519910000006,79.98014560000047,79.98014560000047,1.809944199999336,005,P011,2025_Feb_08_1028,ConditionRich,2021.2.3,59.90007469525478,
56.0,56.75,22,0.75,Stimuli/P011/things_boy_06s.jpg,0,0.0,0.0,0,27,27,27,,,,,,,,,,,,,56.014012900000125,0.014012900000125228,None,83.21632000000045,83.21632000000045,83.21632000000045,83.21632000000045,83.21632000000045,83.21632000000045,83.21632000000045,83.21632000000045,83.21632000000045,83.21632000000045,,005,P011,2025_Feb_08_1028,ConditionRich,2021.2.3,59.90007469525478,
56.75,60.0,41,0.0,Stimuli/Blank.png,0,0.0,0.0,0,28,28,28,,,,,,,,,,,,,56.76515430000018,0.01515430000017659,None,83.9669887,83.9669887,83.9669887,83.9669887,83.9669887,83.9669887,83.9669887,83.9669887,83.9669887,83.9669887,,005,P011,2025_Feb_08_1028,ConditionRich,2021.2.3,59.90007469525478,
60.0,60.75,23,0.75,Stimuli/P011/things_clove_06s.jpg,0,0.0,0.0,0,29,29,29,,,,,,,,,,,,,60.0016512000002,0.0016512000001966953,None,87.20318700000007,87.20318700000007,87.20318700000007,87.20318700000007,87.20318700000007,87.20318700000007,87.20318700000007,87.20318700000007,87.20318700000007,87.20318700000007,,005,P011,2025_Feb_08_1028,ConditionRich,2021.2.3,59.90007469525478,
60.75,64.0,41,0.0,Stimuli/Blank.png,0,0.0,0.0,0,30,30,30,,,,,,,,,,,,,60.75357509999958,0.003575099999579834,None,87.97055670000009,87.97055670000009,87.97055670000009,87.97055670000009,87.97055670000009,87.97055670000009,87.97055670000009,87.97055670000009,87.97055670000009,87.97055670000009,,005,P011,2025_Feb_08_1028,ConditionRich,2021.2.3,59.90007469525478,
64.0,64.75,28,0.75,Stimuli/P011/things_grasshopper_06s.jpg,0,0.0,0.0,0,31,31,31,,,,,,,,,,,,,64.02090510000016,0.020905100000163657,None,91.24008930000036,91.24008930000036,91.24008930000036,91.24008930000036,91.24008930000036,91.24008930000036,91.24008930000036,91.24008930000036,91.24008930000036,91.24008930000036,,005,P011,2025_Feb_08_1028,ConditionRich,2021.2.3,59.90007469525478,
64.75,68.0,41,0.0,Stimuli/Blank.png,1,2.25,3.0,0,32,32,32,,,,,,,,,,,,,64.77458649999971,0.02458649999971385,1,91.99075220000032,91.99075220000032,91.99075220000032,91.99075220000032,91.99075220000032,91.99075220000032,94.2260683000004,94.97672169999987,91.99075220000032,91.99075220000032,2.7414785999999367,005,P011,2025_Feb_08_1028,ConditionRich,2021.2.3,59.90007469525478,
68.0,68.75,18,0.75,Stimuli/P011/sun_bxlbxustiovyqyrg.jpg,0,0.0,0.0,0,33,33,33,,,,,,,,,,,,,68.02524850000009,0.025248500000088825,None,95.22698089999994,95.22698089999994,95.22698089999994,95.22698089999994,95.22698089999994,95.22698089999994,95.22698089999994,95.22698089999994,95.22698089999994,95.22698089999994,,005,P011,2025_Feb_08_1028,ConditionRich,2021.2.3,59.90007469525478,
68.75,72.0,41,0.0,Stimuli/Blank.png,0,0.0,0.0,0,34,34,34,,,,,,,,,,,,,68.75845490000029,0.008454900000288035,None,95.96093420000034,95.96093420000034,95.96093420000034,95.96093420000034,95.96093420000034,95.96093420000034,95.96093420000034,95.96093420000034,95.96093420000034,95.96093420000034,,005,P011,2025_Feb_08_1028,ConditionRich,2021.2.3,59.90007469525478,
72.0,72.75,33,0.75,Stimuli/P011/things_hot-air_balloon_06s.jpg,0,0.0,0.0,0,35,35,35,,,,,,,,,,,,,72.0118792000003,0.011879200000294077,None,99.21380520000002,99.21380520000002,99.21380520000002,99.21380520000002,99.21380520000002,99.21380520000002,99.21380520000002,99.21380520000002,99.21380520000002,99.21380520000002,,005,P011,2025_Feb_08_1028,ConditionRich,2021.2.3,59.90007469525478,
72.75,76.0,41,0.0,Stimuli/Blank.png,0,0.0,0.0,0,36,36,36,,,,,,,,,,,,,72.76390689999971,0.013906899999710731,None,99.98116370000025,99.98116370000025,99.98116370000025,99.98116370000025,99.98116370000025,99.98116370000025,99.98116370000025,99.98116370000025,99.98116370000025,99.98116370000025,,005,P011,2025_Feb_08_1028,ConditionRich,2021.2.3,59.90007469525478,
76.0,76.75,35,0.75,Stimuli/P011/things_raccoon_06n.jpg,0,0.0,0.0,0,37,37,37,,,,,,,,,,,,,76.01488319999953,0.014883199999530916,None,103.2173440000006,103.2173440000006,103.2173440000006,103.2173440000006,103.2173440000006,103.2173440000006,103.2173440000006,103.2173440000006,103.2173440000006,103.2173440000006,,005,P011,2025_Feb_08_1028,ConditionRich,2021.2.3,59.90007469525478,
76.75,80.0,41,0.0,Stimuli/Blank.png,0,0.0,0.0,0,38,38,38,,,,,,,,,,,,,76.76706269999977,0.017062699999769393,None,103.96801740000046,103.96801740000046,103.96801740000046,103.96801740000046,103.96801740000046,103.96801740000046,103.96801740000046,103.96801740000046,103.96801740000046,103.96801740000046,,005,P011,2025_Feb_08_1028,ConditionRich,2021.2.3,59.90007469525478,
80.0,80.75,1,0.75,Stimuli/P011/sun_aeakbqnvptdnxtno.jpg,0,0.0,0.0,0,39,39,39,,,,,,,,,,,,,80.00435370000014,0.004353700000137906,None,107.22088750000057,107.22088750000057,107.22088750000057,107.22088750000057,107.22088750000057,107.22088750000057,107.22088750000057,107.22088750000057,107.22088750000057,107.22088750000057,,005,P011,2025_Feb_08_1028,ConditionRich,2021.2.3,59.90007469525478,
80.75,84.0,41,0.0,Stimuli/Blank.png,1,0.25,1.0,0,40,40,40,,,,,,,,,,,,,80.76965049999944,0.019650499999443127,1,107.97155810000004,107.97155810000004,107.97155810000004,107.97155810000004,107.97155810000004,107.97155810000004,108.20509970000057,108.95575360000021,107.97155810000004,107.97155810000004,0.8244199999999182,005,P011,2025_Feb_08_1028,ConditionRich,2021.2.3,59.90007469525478,
84.0,100.0,0,0.0,Stimuli/Blank.png,1,2.0,2.75,0,41,41,41,,,,,,,,,,,,,84.00577989999965,0.005779899999652116,1,111.20775219999996,111.20775219999996,111.20775219999996,111.20775219999996,111.20775219999996,111.20775219999996,113.19285500000024,113.94353850000061,111.20775219999996,111.20775219999996,2.4693631000000096,005,P011,2025_Feb_08_1028,ConditionRich,2021.2.3,59.90007469525478,
100.0,100.75,27,0.75,Stimuli/P011/things_girl_06s.jpg,0,0.0,0.0,0,42,42,42,,,,,,,,,,,,,100.00314890000027,0.00314890000026935,None,127.20522919999985,127.20522919999985,127.20522919999985,127.20522919999985,127.20522919999985,127.20522919999985,127.20522919999985,127.20522919999985,127.20522919999985,127.20522919999985,,005,P011,2025_Feb_08_1028,ConditionRich,2021.2.3,59.90007469525478,
100.75,104.0,41,0.0,Stimuli/Blank.png,0,0.0,0.0,0,43,43,43,,,,,,,,,,,,,100.75407790000008,0.0040779000000839005,None,127.9558992000002,127.9558992000002,127.9558992000002,127.9558992000002,127.9558992000002,127.9558992000002,127.9558992000002,127.9558992000002,127.9558992000002,127.9558992000002,,005,P011,2025_Feb_08_1028,ConditionRich,2021.2.3,59.90007469525478,
104.0,104.75,2,0.75,Stimuli/P011/sun_aewhvqonribwlxiq.jpg,0,0.0,0.0,0,44,44,44,,,,,,,,,,,,,104.00689749999947,0.006897499999467982,None,131.22545850000006,131.22545850000006,131.22545850000006,131.22545850000006,131.22545850000006,131.22545850000006,131.22545850000006,131.22545850000006,131.22545850000006,131.22545850000006,,005,P011,2025_Feb_08_1028,ConditionRich,2021.2.3,59.90007469525478,
104.75,108.0,41,0.0,Stimuli/Blank.png,0,0.0,0.0,0,45,45,45,,,,,,,,,,,,,104.77409340000031,0.024093400000310794,None,131.97611270000016,131.97611270000016,131.97611270000016,131.97611270000016,131.97611270000016,131.97611270000016,131.97611270000016,131.97611270000016,131.97611270000016,131.97611270000016,,005,P011,2025_Feb_08_1028,ConditionRich,2021.2.3,59.90007469525478,
108.0,108.75,25,0.75,Stimuli/P011/things_face_06s.jpg,0,0.0,0.0,0,46,46,46,,,,,,,,,,,,,108.00998460000028,0.009984600000279897,None,135.21231530000023,135.21231530000023,135.21231530000023,135.21231530000023,135.21231530000023,135.21231530000023,135.21231530000023,135.21231530000023,135.21231530000023,135.21231530000023,,005,P011,2025_Feb_08_1028,ConditionRich,2021.2.3,59.90007469525478,
108.75,112.0,41,0.0,Stimuli/Blank.png,0,0.0,0.0,0,47,47,47,,,,,,,,,,,,,108.76058680000006,0.010586800000055518,None,135.96297959999993,135.96297959999993,135.96297959999993,135.96297959999993,135.96297959999993,135.96297959999993,135.96297959999993,135.96297959999993,135.96297959999993,135.96297959999993,,005,P011,2025_Feb_08_1028,ConditionRich,2021.2.3,59.90007469525478,
112.0,112.75,21,0.75,Stimuli/P011/things_baby_06s.jpg,0,0.0,0.0,0,48,48,48,,,,,,,,,,,,,112.01387189999969,0.013871899999685411,None,139.21589500000027,139.21589500000027,139.21589500000027,139.21589500000027,139.21589500000027,139.21589500000027,139.21589500000027,139.21589500000027,139.21589500000027,139.21589500000027,,005,P011,2025_Feb_08_1028,ConditionRich,2021.2.3,59.90007469525478,
112.75,116.0,41,0.0,Stimuli/Blank.png,0,0.0,0.0,0,49,49,49,,,,,,,,,,,,,112.76488890000019,0.014888900000187277,None,139.96651370000018,139.96651370000018,139.96651370000018,139.96651370000018,139.96651370000018,139.96651370000018,139.96651370000018,139.96651370000018,139.96651370000018,139.96651370000018,,005,P011,2025_Feb_08_1028,ConditionRich,2021.2.3,59.90007469525478,
116.0,116.75,17,0.75,Stimuli/P011/sun_btvwhlxbhcqnqzok.jpg,0,0.0,0.0,0,50,50,50,,,,,,,,,,,,,116.00045010000031,0.0004501000003074296,None,143.20267140000033,143.20267140000033,143.20267140000033,143.20267140000033,143.20267140000033,143.20267140000033,143.20267140000033,143.20267140000033,143.20267140000033,143.20267140000033,,005,P011,2025_Feb_08_1028,ConditionRich,2021.2.3,59.90007469525478,
116.75,120.0,41,0.0,Stimuli/Blank.png,0,0.0,0.0,0,51,51,51,,,,,,,,,,,,,116.75083579999955,0.0008357999995496357,None,143.95337030000064,143.95337030000064,143.95337030000064,143.95337030000064,143.95337030000064,143.95337030000064,143.95337030000064,143.95337030000064,143.95337030000064,143.95337030000064,,005,P011,2025_Feb_08_1028,ConditionRich,2021.2.3,59.90007469525478,
120.0,120.75,13,0.75,Stimuli/P011/sun_bjedvzikugwleyer.jpg,0,0.0,0.0,0,52,52,52,,,,,,,,,,,,,120.00376479999977,0.0037647999997716397,None,147.20624659999976,147.20624659999976,147.20624659999976,147.20624659999976,147.20624659999976,147.20624659999976,147.20624659999976,147.20624659999976,147.20624659999976,147.20624659999976,,005,P011,2025_Feb_08_1028,ConditionRich,2021.2.3,59.90007469525478,
120.75,124.0,41,0.0,Stimuli/Blank.png,0,0.0,0.0,0,53,53,53,,,,,,,,,,,,,120.75522790000014,0.005227900000136287,None,147.95691100000022,147.95691100000022,147.95691100000022,147.95691100000022,147.95691100000022,147.95691100000022,147.95691100000022,147.95691100000022,147.95691100000022,147.95691100000022,,005,P011,2025_Feb_08_1028,ConditionRich,2021.2.3,59.90007469525478,
124.0,124.75,36,0.75,Stimuli/P011/things_shower_cap_06s.jpg,0,0.0,0.0,0,54,54,54,,,,,,,,,,,,,124.00827389999995,0.008273899999949208,None,151.2264670000004,151.2264670000004,151.2264670000004,151.2264670000004,151.2264670000004,151.2264670000004,151.2264670000004,151.2264670000004,151.2264670000004,151.2264670000004,,005,P011,2025_Feb_08_1028,ConditionRich,2021.2.3,59.90007469525478,
124.75,128.0,41,0.0,Stimuli/Blank.png,1,0.25,1.0,0,55,55,55,,,,,,,,,,,,,124.77461229999972,0.024612299999716925,1,151.9771367000003,151.9771367000003,151.9771367000003,151.9771367000003,151.9771367000003,151.9771367000003,152.21067099999982,152.96133520000058,151.9771367000003,151.9771367000003,0.7901363999999376,005,P011,2025_Feb_08_1028,ConditionRich,2021.2.3,59.90007469525478,
128.0,128.75,31,0.75,Stimuli/P011/things_hippopotamus_06s.jpg,0,0.0,0.0,0,56,56,56,,,,,,,,,,,,,128.0117952999999,0.011795299999903364,None,155.21333030000005,155.21333030000005,155.21333030000005,155.21333030000005,155.21333030000005,155.21333030000005,155.21333030000005,155.21333030000005,155.21333030000005,155.21333030000005,,005,P011,2025_Feb_08_1028,ConditionRich,2021.2.3,59.90007469525478,
128.75,132.0,41,0.0,Stimuli/Blank.png,0,0.0,0.0,0,57,57,57,,,,,,,,,,,,,128.7638909999996,0.013890999999603082,None,155.9807004000004,155.9807004000004,155.9807004000004,155.9807004000004,155.9807004000004,155.9807004000004,155.9807004000004,155.9807004000004,155.9807004000004,155.9807004000004,,005,P011,2025_Feb_08_1028,ConditionRich,2021.2.3,59.90007469525478,
132.0,132.75,12,0.75,Stimuli/P011/sun_bcesifdfuidnkdhl.jpg,0,0.0,0.0,0,58,58,58,,,,,,,,,,,,,132.01504459999978,0.015044599999782804,None,159.21686910000062,159.21686910000062,159.21686910000062,159.21686910000062,159.21686910000062,159.21686910000062,159.21686910000062,159.21686910000062,159.21686910000062,159.21686910000062,,005,P011,2025_Feb_08_1028,ConditionRich,2021.2.3,59.90007469525478,
132.75,136.0,41,0.0,Stimuli/Blank.png,0,0.0,0.0,0,59,59,59,,,,,,,,,,,,,132.74906529999953,-0.0009347000004709116,None,159.9508663000006,159.9508663000006,159.9508663000006,159.9508663000006,159.9508663000006,159.9508663000006,159.9508663000006,159.9508663000006,159.9508663000006,159.9508663000006,,005,P011,2025_Feb_08_1028,ConditionRich,2021.2.3,59.90007469525478,
136.0,136.75,26,0.75,Stimuli/P011/things_gazelle_06s.jpg,0,0.0,0.0,0,60,60,60,,,,,,,,,,,,,136.00134739999976,0.0013473999997586361,None,163.22042370000054,163.22042370000054,163.22042370000054,163.22042370000054,163.22042370000054,163.22042370000054,163.22042370000054,163.22042370000054,163.22042370000054,163.22042370000054,,005,P011,2025_Feb_08_1028,ConditionRich,2021.2.3,59.90007469525478,
136.75,140.0,41,0.0,Stimuli/Blank.png,0,0.0,0.0,0,61,61,61,,,,,,,,,,,,,136.76925909999954,0.01925909999954456,None,163.97108600000047,163.97108600000047,163.97108600000047,163.97108600000047,163.97108600000047,163.97108600000047,163.97108600000047,163.97108600000047,163.97108600000047,163.97108600000047,,005,P011,2025_Feb_08_1028,ConditionRich,2021.2.3,59.90007469525478,
140.0,140.75,40,0.75,Stimuli/P011/things_woman_06s.jpg,0,0.0,0.0,0,62,62,62,,,,,,,,,,,,,140.00579889999972,0.0057988999997178325,None,167.22397730000012,167.22397730000012,167.22397730000012,167.22397730000012,167.22397730000012,167.22397730000012,167.22397730000012,167.22397730000012,167.22397730000012,167.22397730000012,,005,P011,2025_Feb_08_1028,ConditionRich,2021.2.3,59.90007469525478,
140.75,144.0,41,0.0,Stimuli/Blank.png,0,0.0,0.0,0,63,63,63,,,,,,,,,,,,,140.77502980000008,0.025029800000083924,None,167.99129989999983,167.99129989999983,167.99129989999983,167.99129989999983,167.99129989999983,167.99129989999983,167.99129989999983,167.99129989999983,167.99129989999983,167.99129989999983,,005,P011,2025_Feb_08_1028,ConditionRich,2021.2.3,59.90007469525478,
144.0,144.75,8,0.75,Stimuli/P011/sun_asppejhsplpizvag.jpg,0,0.0,0.0,0,64,64,64,,,,,,,,,,,,,144.0255191999995,0.02551919999950769,None,171.24420110000028,171.24420110000028,171.24420110000028,171.24420110000028,171.24420110000028,171.24420110000028,171.24420110000028,171.24420110000028,171.24420110000028,171.24420110000028,,005,P011,2025_Feb_08_1028,ConditionRich,2021.2.3,59.90007469525478,
144.75,148.0,41,0.0,Stimuli/Blank.png,1,0.25,1.0,0,65,65,65,,,,,,,,,,,,,144.77631029999975,0.026310299999749986,1,171.97815290000017,171.97815290000017,171.97815290000017,171.97815290000017,171.97815290000017,171.97815290000017,172.21169550000013,172.96242530000018,171.97815290000017,171.97815290000017,0.7747990000007121,005,P011,2025_Feb_08_1028,ConditionRich,2021.2.3,59.90007469525478,
148.0,148.75,29,0.75,Stimuli/P011/things_gutter_06s.jpg,0,0.0,0.0,0,66,66,66,,,,,,,,,,,,,148.01283069999954,0.01283069999954023,None,175.21450379999987,175.21450379999987,175.21450379999987,175.21450379999987,175.21450379999987,175.21450379999987,175.21450379999987,175.21450379999987,175.21450379999987,175.21450379999987,,005,P011,2025_Feb_08_1028,ConditionRich,2021.2.3,59.90007469525478,
148.75,152.0,41,0.0,Stimuli/Blank.png,0,0.0,0.0,0,67,67,67,,,,,,,,,,,,,148.7634478,0.013447799999994459,None,175.9650142999999,175.9650142999999,175.9650142999999,175.9650142999999,175.9650142999999,175.9650142999999,175.9650142999999,175.9650142999999,175.9650142999999,175.9650142999999,,005,P011,2025_Feb_08_1028,ConditionRich,2021.2.3,59.90007469525478,
152.0,152.75,19,0.75,Stimuli/P011/sun_byvwakrdyukjigpc.jpg,0,0.0,0.0,0,68,68,68,,,,,,,,,,,,,151.99964569999975,-0.00035430000025371555,None,179.21788639999977,179.21788639999977,179.21788639999977,179.21788639999977,179.21788639999977,179.21788639999977,179.21788639999977,179.21788639999977,179.21788639999977,179.21788639999977,,005,P011,2025_Feb_08_1028,ConditionRich,2021.2.3,59.90007469525478,
152.75,156.0,41,0.0,Stimuli/Blank.png,0,0.0,0.0,0,69,69,69,,,,,,,,,,,,,152.7691179000003,0.01911790000031033,None,179.98525410000002,179.98525410000002,179.98525410000002,179.98525410000002,179.98525410000002,179.98525410000002,179.98525410000002,179.98525410000002,179.98525410000002,179.98525410000002,,005,P011,2025_Feb_08_1028,ConditionRich,2021.2.3,59.90007469525478,
156.0,156.75,38,0.75,Stimuli/P011/things_squeegee_06s.jpg,0,0.0,0.0,0,70,70,70,,,,,,,,,,,,,156.0191923000002,0.019192300000213436,None,183.22143349999988,183.22143349999988,183.22143349999988,183.22143349999988,183.22143349999988,183.22143349999988,183.22143349999988,183.22143349999988,183.22143349999988,183.22143349999988,,005,P011,2025_Feb_08_1028,ConditionRich,2021.2.3,59.90007469525478,
156.75,160.0,41,0.0,Stimuli/Blank.png,0,0.0,0.0,0,71,71,71,,,,,,,,,,,,,156.7538009,0.0038008999999874504,None,183.95541550000053,183.95541550000053,183.95541550000053,183.95541550000053,183.95541550000053,183.95541550000053,183.95541550000053,183.95541550000053,183.95541550000053,183.95541550000053,,005,P011,2025_Feb_08_1028,ConditionRich,2021.2.3,59.90007469525478,
160.0,160.75,20,0.75,Stimuli/P011/sun_ciifteeudwpxupnw.jpg,0,0.0,0.0,0,72,72,72,,,,,,,,,,,,,160.00876030000018,0.008760300000176358,None,187.22502559999975,187.22502559999975,187.22502559999975,187.22502559999975,187.22502559999975,187.22502559999975,187.22502559999975,187.22502559999975,187.22502559999975,187.22502559999975,,005,P011,2025_Feb_08_1028,ConditionRich,2021.2.3,59.90007469525478,
160.75,164.0,41,0.0,Stimuli/Blank.png,0,0.0,0.0,0,73,73,73,,,,,,,,,,,,,160.77314509999997,0.02314509999996517,None,187.9756352000004,187.9756352000004,187.9756352000004,187.9756352000004,187.9756352000004,187.9756352000004,187.9756352000004,187.9756352000004,187.9756352000004,187.9756352000004,,005,P011,2025_Feb_08_1028,ConditionRich,2021.2.3,59.90007469525478,
164.0,164.75,3,0.75,Stimuli/P011/sun_afdaynbvsppiyvxm.jpg,0,0.0,0.0,0,74,74,74,,,,,,,,,,,,,164.0099835000001,0.009983500000089407,None,191.21183370000017,191.21183370000017,191.21183370000017,191.21183370000017,191.21183370000017,191.21183370000017,191.21183370000017,191.21183370000017,191.21183370000017,191.21183370000017,,005,P011,2025_Feb_08_1028,ConditionRich,2021.2.3,59.90007469525478,
164.75,168.0,41,0.0,Stimuli/Blank.png,1,2.25,3.0,0,75,75,75,,,,,,,,,,,,,164.76069180000013,0.01069180000013148,1,191.96249739999985,191.96249739999985,191.96249739999985,191.96249739999985,191.96249739999985,191.96249739999985,194.19777890000023,194.94847240000036,191.96249739999985,191.96249739999985,2.720652799999698,005,P011,2025_Feb_08_1028,ConditionRich,2021.2.3,59.90007469525478,
168.0,168.75,15,0.75,Stimuli/P011/sun_bmngnyuahubpqroh.jpg,0,0.0,0.0,0,76,76,76,,,,,,,,,,,,,168.0141166000003,0.01411660000030679,None,195.21538130000044,195.21538130000044,195.21538130000044,195.21538130000044,195.21538130000044,195.21538130000044,195.21538130000044,195.21538130000044,195.21538130000044,195.21538130000044,,005,P011,2025_Feb_08_1028,ConditionRich,2021.2.3,59.90007469525478,
168.75,172.0,41,0.0,Stimuli/Blank.png,0,0.0,0.0,0,77,77,77,,,,,,,,,,,,,168.7634984999995,0.013498499999514024,None,195.9660375000003,195.9660375000003,195.9660375000003,195.9660375000003,195.9660375000003,195.9660375000003,195.9660375000003,195.9660375000003,195.9660375000003,195.9660375000003,,005,P011,2025_Feb_08_1028,ConditionRich,2021.2.3,59.90007469525478,
172.0,172.75,37,0.75,Stimuli/P011/things_spam_06s.jpg,0,0.0,0.0,0,78,78,78,,,,,,,,,,,,,172.00075560000005,0.000755600000047707,None,199.2189096000002,199.2189096000002,199.2189096000002,199.2189096000002,199.2189096000002,199.2189096000002,199.2189096000002,199.2189096000002,199.2189096000002,199.2189096000002,,005,P011,2025_Feb_08_1028,ConditionRich,2021.2.3,59.90007469525478,
172.75,176.0,41,0.0,Stimuli/Blank.png,0,0.0,0.0,0,79,79,79,,,,,,,,,,,,,172.77090849999968,0.020908499999677588,None,199.98629100000016,199.98629100000016,199.98629100000016,199.98629100000016,199.98629100000016,199.98629100000016,199.98629100000016,199.98629100000016,199.98629100000016,199.98629100000016,,005,P011,2025_Feb_08_1028,ConditionRich,2021.2.3,59.90007469525478,
176.0,176.75,30,0.75,Stimuli/P011/things_hamburger_06s.jpg,0,0.0,0.0,0,80,80,80,,,,,,,,,,,,,176.02083979999952,0.020839799999521347,None,203.23913940000057,203.23913940000057,203.23913940000057,203.23913940000057,203.23913940000057,203.23913940000057,203.23913940000057,203.23913940000057,203.23913940000057,203.23913940000057,,005,P011,2025_Feb_08_1028,ConditionRich,2021.2.3,59.90007469525478,
176.75,180.0,41,0.0,Stimuli/Blank.png,1,0.25,1.0,0,81,81,81,,,,,,,,,,,,,176.7705635000002,0.02056350000020757,1,203.97311549999995,203.97311549999995,203.97311549999995,203.97311549999995,203.97311549999995,203.97311549999995,204.2066579000002,204.95731400000022,203.97311549999995,203.97311549999995,1.0232337999996162,005,P011,2025_Feb_08_1028,ConditionRich,2021.2.3,59.90007469525478,
180.0,196.0,0,0.0,Stimuli/Blank.png,1,5.0,5.75,0,82,82,82,,,,,,,,,,,,,180.00742549999995,0.0074254999999538995,1,207.20937289999983,207.20937289999983,207.20937289999983,207.20937289999983,207.20937289999983,207.20937289999983,212.1970964000002,212.94771769999988,207.20937289999983,207.20937289999983,5.403629500000534,005,P011,2025_Feb_08_1028,ConditionRich,2021.2.3,59.90007469525478,
196.0,196.75,28,0.75,Stimuli/P011/things_grasshopper_06s.jpg,0,0.0,0.0,0,83,83,83,,,,,,,,,,,,,196.00436629999967,0.004366299999674084,None,223.20681560000048,223.20681560000048,223.20681560000048,223.20681560000048,223.20681560000048,223.20681560000048,223.20681560000048,223.20681560000048,223.20681560000048,223.20681560000048,,005,P011,2025_Feb_08_1028,ConditionRich,2021.2.3,59.90007469525478,
196.75,200.0,41,0.0,Stimuli/Blank.png,0,0.0,0.0,0,84,84,84,,,,,,,,,,,,,196.75498470000002,0.004984700000022713,None,223.95745630000056,223.95745630000056,223.95745630000056,223.95745630000056,223.95745630000056,223.95745630000056,223.95745630000056,223.95745630000056,223.95745630000056,223.95745630000056,,005,P011,2025_Feb_08_1028,ConditionRich,2021.2.3,59.90007469525478,
200.0,200.75,21,0.75,Stimuli/P011/things_baby_06s.jpg,1,0.0,0.75,0,85,85,85,,,,,,,,,,,,,200.00863159999972,0.008631599999716855,1,227.2270180000005,227.2270180000005,227.2270180000005,227.2270180000005,227.2270180000005,227.2270180000005,227.2270180000005,227.94434249999995,227.2270180000005,227.2270180000005,0.5121435999999449,005,P011,2025_Feb_08_1028,ConditionRich,2021.2.3,59.90007469525478,
200.75,204.0,41,0.0,Stimuli/Blank.png,0,0.0,0.0,0,86,86,86,,,,,,,,,,,,,200.77537099999972,0.0253709999997227,None,227.97768170000018,227.97768170000018,227.97768170000018,227.97768170000018,227.97768170000018,227.97768170000018,227.97768170000018,227.97768170000018,227.97768170000018,227.97768170000018,,005,P011,2025_Feb_08_1028,ConditionRich,2021.2.3,59.90007469525478,
204.0,204.75,30,0.75,Stimuli/P011/things_hamburger_06s.jpg,0,0.0,0.0,0,87,87,87,,,,,,,,,,,,,204.01216899999963,0.012168999999630614,None,231.23055990000012,231.23055990000012,231.23055990000012,231.23055990000012,231.23055990000012,231.23055990000012,231.23055990000012,231.23055990000012,231.23055990000012,231.23055990000012,,005,P011,2025_Feb_08_1028,ConditionRich,2021.2.3,59.90007469525478,
204.75,208.0,41,0.0,Stimuli/Blank.png,0,0.0,0.0,0,88,88,88,,,,,,,,,,,,,204.78021679999983,0.03021679999983462,None,231.98122990000047,231.98122990000047,231.98122990000047,231.98122990000047,231.98122990000047,231.98122990000047,231.98122990000047,231.98122990000047,231.98122990000047,231.98122990000047,,005,P011,2025_Feb_08_1028,ConditionRich,2021.2.3,59.90007469525478,
208.0,208.75,24,0.75,Stimuli/P011/things_doily_06s.jpg,1,0.0,0.75,0,89,89,89,,,,,,,,,,,,,207.99938289999955,-0.0006171000004542293,1,235.21743640000022,235.21743640000022,235.21743640000022,235.21743640000022,235.21743640000022,235.21743640000022,235.21743640000022,235.9347171999998,235.21743640000022,235.21743640000022,0.5726687999995193,005,P011,2025_Feb_08_1028,ConditionRich,2021.2.3,59.90007469525478,
208.75,212.0,41,0.0,Stimuli/Blank.png,0,0.0,0.0,0,90,90,90,,,,,,,,,,,,,208.76560040000004,0.015600400000039372,None,235.96808510000028,235.96808510000028,235.96808510000028,235.96808510000028,235.96808510000028,235.96808510000028,235.96808510000028,235.96808510000028,235.96808510000028,235.96808510000028,,005,P011,2025_Feb_08_1028,ConditionRich,2021.2.3,59.90007469525478,
212.0,212.75,20,0.75,Stimuli/P011/sun_ciifteeudwpxupnw.jpg,0,0.0,0.0,0,91,91,91,,,,,,,,,,,,,212.00411149999945,0.004111499999453372,None,239.22096229999988,239.22096229999988,239.22096229999988,239.22096229999988,239.22096229999988,239.22096229999988,239.22096229999988,239.22096229999988,239.22096229999988,239.22096229999988,,005,P011,2025_Feb_08_1028,ConditionRich,2021.2.3,59.90007469525478,
212.75,216.0,41,0.0,Stimuli/Blank.png,0,0.0,0.0,0,92,92,92,,,,,,,,,,,,,212.76959369999986,0.019593699999859382,None,239.97162410000055,239.97162410000055,239.97162410000055,239.97162410000055,239.97162410000055,239.97162410000055,239.97162410000055,239.97162410000055,239.97162410000055,239.97162410000055,,005,P011,2025_Feb_08_1028,ConditionRich,2021.2.3,59.90007469525478,
216.0,216.75,40,0.75,Stimuli/P011/things_woman_06s.jpg,0,0.0,0.0,0,93,93,93,,,,,,,,,,,,,216.00588779999998,0.005887799999982235,None,243.20779690000018,243.20779690000018,243.20779690000018,243.20779690000018,243.20779690000018,243.20779690000018,243.20779690000018,243.20779690000018,243.20779690000018,243.20779690000018,,005,P011,2025_Feb_08_1028,ConditionRich,2021.2.3,59.90007469525478,
216.75,220.0,41,0.0,Stimuli/Blank.png,0,0.0,0.0,0,94,94,94,,,,,,,,,,,,,216.7586670999999,0.008667099999911443,None,243.97517719999996,243.97517719999996,243.97517719999996,243.97517719999996,243.97517719999996,243.97517719999996,243.97517719999996,243.97517719999996,243.97517719999996,243.97517719999996,,005,P011,2025_Feb_08_1028,ConditionRich,2021.2.3,59.90007469525478,
220.0,220.75,25,0.75,Stimuli/P011/things_face_06s.jpg,0,0.0,0.0,0,95,95,95,,,,,,,,,,,,,220.0263960000002,0.026396000000204367,None,247.24472220000007,247.24472220000007,247.24472220000007,247.24472220000007,247.24472220000007,247.24472220000007,247.24472220000007,247.24472220000007,247.24472220000007,247.24472220000007,,005,P011,2025_Feb_08_1028,ConditionRich,2021.2.3,59.90007469525478,
220.75,224.0,41,0.0,Stimuli/Blank.png,0,0.0,0.0,0,96,96,96,,,,,,,,,,,,,220.7792902000001,0.02929020000010496,None,247.99545450000005,247.99545450000005,247.99545450000005,247.99545450000005,247.99545450000005,247.99545450000005,247.99545450000005,247.99545450000005,247.99545450000005,247.99545450000005,,005,P011,2025_Feb_08_1028,ConditionRich,2021.2.3,59.90007469525478,
224.0,224.75,11,0.75,Stimuli/P011/sun_baylllqlgfvxilor.jpg,0,0.0,0.0,0,97,97,97,,,,,,,,,,,,,224.02977999999985,0.02977999999984604,None,251.24827430000005,251.24827430000005,251.24827430000005,251.24827430000005,251.24827430000005,251.24827430000005,251.24827430000005,251.24827430000005,251.24827430000005,251.24827430000005,,005,P011,2025_Feb_08_1028,ConditionRich,2021.2.3,59.90007469525478,
224.75,228.0,41,0.0,Stimuli/Blank.png,0,0.0,0.0,0,98,98,98,,,,,,,,,,,,,224.78056089999973,0.030560899999727553,None,251.98222600000008,251.98222600000008,251.98222600000008,251.98222600000008,251.98222600000008,251.98222600000008,251.98222600000008,251.98222600000008,251.98222600000008,251.98222600000008,,005,P011,2025_Feb_08_1028,ConditionRich,2021.2.3,59.90007469525478,
228.0,228.75,35,0.75,Stimuli/P011/things_raccoon_06n.jpg,0,0.0,0.0,0,99,99,99,,,,,,,,,,,,,227.99941789999957,-0.000582100000428909,None,255.20176009999977,255.20176009999977,255.20176009999977,255.20176009999977,255.20176009999977,255.20176009999977,255.20176009999977,255.20176009999977,255.20176009999977,255.20176009999977,,005,P011,2025_Feb_08_1028,ConditionRich,2021.2.3,59.90007469525478,
228.75,232.0,41,0.0,Stimuli/Blank.png,0,0.0,0.0,0,100,100,100,,,,,,,,,,,,,228.75095220000003,0.0009522000000288244,None,255.9524276000002,255.9524276000002,255.9524276000002,255.9524276000002,255.9524276000002,255.9524276000002,255.9524276000002,255.9524276000002,255.9524276000002,255.9524276000002,,005,P011,2025_Feb_08_1028,ConditionRich,2021.2.3,59.90007469525478,
232.0,232.75,27,0.75,Stimuli/P011/things_girl_06s.jpg,0,0.0,0.0,0,101,101,101,,,,,,,,,,,,,232.00336530000004,0.003365300000041316,None,259.2053034999999,259.2053034999999,259.2053034999999,259.2053034999999,259.2053034999999,259.2053034999999,259.2053034999999,259.2053034999999,259.2053034999999,259.2053034999999,,005,P011,2025_Feb_08_1028,ConditionRich,2021.2.3,59.90007469525478,
232.75,236.0,41,0.0,Stimuli/Blank.png,0,0.0,0.0,0,102,102,102,,,,,,,,,,,,,232.75419619999957,0.004196199999569217,None,259.9559698000003,259.9559698000003,259.9559698000003,259.9559698000003,259.9559698000003,259.9559698000003,259.9559698000003,259.9559698000003,259.9559698000003,259.9559698000003,,005,P011,2025_Feb_08_1028,ConditionRich,2021.2.3,59.90007469525478,
236.0,236.75,38,0.75,Stimuli/P011/things_squeegee_06s.jpg,0,0.0,0.0,0,103,103,103,,,,,,,,,,,,,236.00928300000032,0.009283000000323227,None,263.22549510000044,263.22549510000044,263.22549510000044,263.22549510000044,263.22549510000044,263.22549510000044,263.22549510000044,263.22549510000044,263.22549510000044,263.22549510000044,,005,P011,2025_Feb_08_1028,ConditionRich,2021.2.3,59.90007469525478,
236.75,240.0,41,0.0,Stimuli/Blank.png,0,0.0,0.0,0,104,104,104,,,,,,,,,,,,,236.77437159999954,0.024371599999540194,None,263.9762255000005,263.9762255000005,263.9762255000005,263.9762255000005,263.9762255000005,263.9762255000005,263.9762255000005,263.9762255000005,263.9762255000005,263.9762255000005,,005,P011,2025_Feb_08_1028,ConditionRich,2021.2.3,59.90007469525478,
240.0,240.75,19,0.75,Stimuli/P011/sun_byvwakrdyukjigpc.jpg,0,0.0,0.0,0,105,105,105,,,,,,,,,,,,,240.01090999999997,0.010909999999967113,None,267.2123842000001,267.2123842000001,267.2123842000001,267.2123842000001,267.2123842000001,267.2123842000001,267.2123842000001,267.2123842000001,267.2123842000001,267.2123842000001,,005,P011,2025_Feb_08_1028,ConditionRich,2021.2.3,59.90007469525478,
240.75,244.0,41,0.0,Stimuli/Blank.png,0,0.0,0.0,0,106,106,106,,,,,,,,,,,,,240.76052830000026,0.01052830000026006,None,267.9630437000005,267.9630437000005,267.9630437000005,267.9630437000005,267.9630437000005,267.9630437000005,267.9630437000005,267.9630437000005,267.9630437000005,267.9630437000005,,005,P011,2025_Feb_08_1028,ConditionRich,2021.2.3,59.90007469525478,
244.0,244.75,5,0.75,Stimuli/P011/sun_anfwllcezhlypoti.jpg,0,0.0,0.0,0,107,107,107,,,,,,,,,,,,,244.01338729999952,0.013387299999521929,None,271.2159206000006,271.2159206000006,271.2159206000006,271.2159206000006,271.2159206000006,271.2159206000006,271.2159206000006,271.2159206000006,271.2159206000006,271.2159206000006,,005,P011,2025_Feb_08_1028,ConditionRich,2021.2.3,59.90007469525478,
244.75,248.0,41,0.0,Stimuli/Blank.png,1,1.25,2.0,0,108,108,108,,,,,,,,,,,,,244.76486999999997,0.014869999999973516,1,271.9665924000001,271.9665924000001,271.9665924000001,271.9665924000001,271.9665924000001,271.9665924000001,273.20100939999975,273.95164060000025,271.9665924000001,271.9665924000001,1.7116754999997283,005,P011,2025_Feb_08_1028,ConditionRich,2021.2.3,59.90007469525478,
248.0,248.75,9,0.75,Stimuli/P011/sun_aupohozmrmtfgcsw.jpg,0,0.0,0.0,0,109,109,109,,,,,,,,,,,,,248.00121320000017,0.0012132000001656706,None,275.21946670000034,275.21946670000034,275.21946670000034,275.21946670000034,275.21946670000034,275.21946670000034,275.21946670000034,275.21946670000034,275.21946670000034,275.21946670000034,,005,P011,2025_Feb_08_1028,ConditionRich,2021.2.3,59.90007469525478,
248.75,252.0,41,0.0,Stimuli/Blank.png,0,0.0,0.0,0,110,110,110,,,,,,,,,,,,,248.76847610000004,0.018476100000043516,None,275.97013400000014,275.97013400000014,275.97013400000014,275.97013400000014,275.97013400000014,275.97013400000014,275.97013400000014,275.97013400000014,275.97013400000014,275.97013400000014,,005,P011,2025_Feb_08_1028,ConditionRich,2021.2.3,59.90007469525478,
252.0,252.75,15,0.75,Stimuli/P011/sun_bmngnyuahubpqroh.jpg,0,0.0,0.0,0,111,111,111,,,,,,,,,,,,,252.00464459999966,0.004644599999664933,None,279.2229990000005,279.2229990000005,279.2229990000005,279.2229990000005,279.2229990000005,279.2229990000005,279.2229990000005,279.2229990000005,279.2229990000005,279.2229990000005,,005,P011,2025_Feb_08_1028,ConditionRich,2021.2.3,59.90007469525478,
252.75,256.0,41,0.0,Stimuli/Blank.png,0,0.0,0.0,0,112,112,112,,,,,,,,,,,,,252.77126119999957,0.021261199999571545,None,279.97366349999993,279.97366349999993,279.97366349999993,279.97366349999993,279.97366349999993,279.97366349999993,279.97366349999993,279.97366349999993,279.97366349999993,279.97366349999993,,005,P011,2025_Feb_08_1028,ConditionRich,2021.2.3,59.90007469525478,
256.0,256.75,23,0.75,Stimuli/P011/things_clove_06s.jpg,0,0.0,0.0,0,113,113,113,,,,,,,,,,,,,256.0086755000002,0.008675500000208558,None,283.22653790000004,283.22653790000004,283.22653790000004,283.22653790000004,283.22653790000004,283.22653790000004,283.22653790000004,283.22653790000004,283.22653790000004,283.22653790000004,,005,P011,2025_Feb_08_1028,ConditionRich,2021.2.3,59.90007469525478,
256.75,260.0,41,0.0,Stimuli/Blank.png,0,0.0,0.0,0,114,114,114,,,,,,,,,,,,,256.7748676000001,0.024867600000106904,None,283.9772223,283.9772223,283.9772223,283.9772223,283.9772223,283.9772223,283.9772223,283.9772223,283.9772223,283.9772223,,005,P011,2025_Feb_08_1028,ConditionRich,2021.2.3,59.90007469525478,
260.0,260.75,6,0.75,Stimuli/P011/sun_aqysdudvyxnkcxgq.jpg,0,0.0,0.0,0,115,115,115,,,,,,,,,,,,,260.01394809999965,0.013948099999652186,None,287.2300888999998,287.2300888999998,287.2300888999998,287.2300888999998,287.2300888999998,287.2300888999998,287.2300888999998,287.2300888999998,287.2300888999998,287.2300888999998,,005,P011,2025_Feb_08_1028,ConditionRich,2021.2.3,59.90007469525478,
260.75,264.0,41,0.0,Stimuli/Blank.png,1,0.25,1.0,0,116,116,116,,,,,,,,,,,,,260.77935100000013,0.029351000000133354,1,287.98075510000035,287.98075510000035,287.98075510000035,287.98075510000035,287.98075510000035,287.98075510000035,288.21431230000053,288.9649725999998,287.98075510000035,287.98075510000035,0.695537499999773,005,P011,2025_Feb_08_1028,ConditionRich,2021.2.3,59.90007469525478,
264.0,264.75,10,0.75,Stimuli/P011/sun_awufkrkrdrdbvvis.jpg,0,0.0,0.0,0,117,117,117,,,,,,,,,,,,,264.0155275999996,0.015527599999586528,None,291.21694320000006,291.21694320000006,291.21694320000006,291.21694320000006,291.21694320000006,291.21694320000006,291.21694320000006,291.21694320000006,291.21694320000006,291.21694320000006,,005,P011,2025_Feb_08_1028,ConditionRich,2021.2.3,59.90007469525478,
264.75,268.0,41,0.0,Stimuli/Blank.png,0,0.0,0.0,0,118,118,118,,,,,,,,,,,,,264.7500209,2.0899999981338624e-05,None,291.9676096000003,291.9676096000003,291.9676096000003,291.9676096000003,291.9676096000003,291.9676096000003,291.9676096000003,291.9676096000003,291.9676096000003,291.9676096000003,,005,P011,2025_Feb_08_1028,ConditionRich,2021.2.3,59.90007469525478,
268.0,268.75,32,0.75,Stimuli/P011/things_hood_06s.jpg,0,0.0,0.0,0,119,119,119,,,,,,,,,,,,,268.0190057,0.019005699999979697,None,295.2204846000004,295.2204846000004,295.2204846000004,295.2204846000004,295.2204846000004,295.2204846000004,295.2204846000004,295.2204846000004,295.2204846000004,295.2204846000004,,005,P011,2025_Feb_08_1028,ConditionRich,2021.2.3,59.90007469525478,
268.75,272.0,41,0.0,Stimuli/Blank.png,0,0.0,0.0,0,120,120,120,,,,,,,,,,,,,268.75400139999965,0.004001399999651767,None,295.9711457000003,295.9711457000003,295.9711457000003,295.9711457000003,295.9711457000003,295.9711457000003,295.9711457000003,295.9711457000003,295.9711457000003,295.9711457000003,,005,P011,2025_Feb_08_1028,ConditionRich,2021.2.3,59.90007469525478,
272.0,272.75,8,0.75,Stimuli/P011/sun_asppejhsplpizvag.jpg,0,0.0,0.0,0,121,121,121,,,,,,,,,,,,,272.0241162000002,0.024116200000207755,None,299.24070930000016,299.24070930000016,299.24070930000016,299.24070930000016,299.24070930000016,299.24070930000016,299.24070930000016,299.24070930000016,299.24070930000016,299.24070930000016,,005,P011,2025_Feb_08_1028,ConditionRich,2021.2.3,59.90007469525478,
272.75,276.0,41,0.0,Stimuli/Blank.png,0,0.0,0.0,0,122,122,122,,,,,,,,,,,,,272.77523519999977,0.025235199999769975,None,299.9913987,299.9913987,299.9913987,299.9913987,299.9913987,299.9913987,299.9913987,299.9913987,299.9913987,299.9913987,,005,P011,2025_Feb_08_1028,ConditionRich,2021.2.3,59.90007469525478,
276.0,292.0,0,0.0,Stimuli/Blank.png,1,8.0,8.75,0,123,123,123,,,,,,,,,,,,,276.0250794000003,0.025079400000322494,1,303.2275630000004,303.2275630000004,303.2275630000004,303.2275630000004,303.2275630000004,303.2275630000004,311.21800919999987,311.96866409999984,303.2275630000004,303.2275630000004,8.450571800000034,005,P011,2025_Feb_08_1028,ConditionRich,2021.2.3,59.90007469525478,
292.0,292.75,29,0.75,Stimuli/P011/things_gutter_06s.jpg,0,0.0,0.0,0,124,124,124,,,,,,,,,,,,,292.0089584999996,0.008958499999607739,None,319.22504800000024,319.22504800000024,319.22504800000024,319.22504800000024,319.22504800000024,319.22504800000024,319.22504800000024,319.22504800000024,319.22504800000024,319.22504800000024,,005,P011,2025_Feb_08_1028,ConditionRich,2021.2.3,59.90007469525478,
292.75,296.0,41,0.0,Stimuli/Blank.png,0,0.0,0.0,0,125,125,125,,,,,,,,,,,,,292.77332690000003,0.023326900000029127,None,319.97570429999996,319.97570429999996,319.97570429999996,319.97570429999996,319.97570429999996,319.97570429999996,319.97570429999996,319.97570429999996,319.97570429999996,319.97570429999996,,005,P011,2025_Feb_08_1028,ConditionRich,2021.2.3,59.90007469525478,
296.0,296.75,39,0.75,Stimuli/P011/things_thermometer_06s.jpg,0,0.0,0.0,0,126,126,126,,,,,,,,,,,,,296.0097231,0.009723099999973783,None,323.2119008999998,323.2119008999998,323.2119008999998,323.2119008999998,323.2119008999998,323.2119008999998,323.2119008999998,323.2119008999998,323.2119008999998,323.2119008999998,,005,P011,2025_Feb_08_1028,ConditionRich,2021.2.3,59.90007469525478,
296.75,300.0,41,0.0,Stimuli/Blank.png,0,0.0,0.0,0,127,127,127,,,,,,,,,,,,,296.7603925000003,0.010392500000307336,None,323.9625643999998,323.9625643999998,323.9625643999998,323.9625643999998,323.9625643999998,323.9625643999998,323.9625643999998,323.9625643999998,323.9625643999998,323.9625643999998,,005,P011,2025_Feb_08_1028,ConditionRich,2021.2.3,59.90007469525478,
300.0,300.75,3,0.75,Stimuli/P011/sun_afdaynbvsppiyvxm.jpg,0,0.0,0.0,0,128,128,128,,,,,,,,,,,,,300.0145566000001,0.01455660000010539,None,327.23216709999997,327.23216709999997,327.23216709999997,327.23216709999997,327.23216709999997,327.23216709999997,327.23216709999997,327.23216709999997,327.23216709999997,327.23216709999997,,005,P011,2025_Feb_08_1028,ConditionRich,2021.2.3,59.90007469525478,
300.75,304.0,41,0.0,Stimuli/Blank.png,1,0.25,1.0,0,129,129,129,,,,,,,,,,,,,300.7805989999997,0.03059899999971094,1,327.9827887000001,327.9827887000001,327.9827887000001,327.9827887000001,327.9827887000001,327.9827887000001,328.21632320000026,328.9670364000003,327.9827887000001,327.9827887000001,0.6603884999994989,005,P011,2025_Feb_08_1028,ConditionRich,2021.2.3,59.90007469525478,
304.0,304.75,12,0.75,Stimuli/P011/sun_bcesifdfuidnkdhl.jpg,0,0.0,0.0,0,130,130,130,,,,,,,,,,,,,304.00013320000016,0.00013320000016392441,None,331.2023049999998,331.2023049999998,331.2023049999998,331.2023049999998,331.2023049999998,331.2023049999998,331.2023049999998,331.2023049999998,331.2023049999998,331.2023049999998,,005,P011,2025_Feb_08_1028,ConditionRich,2021.2.3,59.90007469525478,
304.75,308.0,41,0.0,Stimuli/Blank.png,0,0.0,0.0,0,131,131,131,,,,,,,,,,,,,304.75094660000013,0.0009466000001339125,None,331.9529714,331.9529714,331.9529714,331.9529714,331.9529714,331.9529714,331.9529714,331.9529714,331.9529714,331.9529714,,005,P011,2025_Feb_08_1028,ConditionRich,2021.2.3,59.90007469525478,
308.0,308.75,22,0.75,Stimuli/P011/things_boy_06s.jpg,0,0.0,0.0,0,132,132,132,,,,,,,,,,,,,308.0040356999998,0.00403569999980391,None,335.2225511000006,335.2225511000006,335.2225511000006,335.2225511000006,335.2225511000006,335.2225511000006,335.2225511000006,335.2225511000006,335.2225511000006,335.2225511000006,,005,P011,2025_Feb_08_1028,ConditionRich,2021.2.3,59.90007469525478,
308.75,312.0,41,0.0,Stimuli/Blank.png,0,0.0,0.0,0,133,133,133,,,,,,,,,,,,,308.7709875999999,0.02098759999989852,None,335.97318840000025,335.97318840000025,335.97318840000025,335.97318840000025,335.97318840000025,335.97318840000025,335.97318840000025,335.97318840000025,335.97318840000025,335.97318840000025,,005,P011,2025_Feb_08_1028,ConditionRich,2021.2.3,59.90007469525478,
312.0,312.75,31,0.75,Stimuli/P011/things_hippopotamus_06s.jpg,0,0.0,0.0,0,134,134,134,,,,,,,,,,,,,312.00986790000024,0.009867900000244845,None,339.2260932999998,339.2260932999998,339.2260932999998,339.2260932999998,339.2260932999998,339.2260932999998,339.2260932999998,339.2260932999998,339.2260932999998,339.2260932999998,,005,P011,2025_Feb_08_1028,ConditionRich,2021.2.3,59.90007469525478,
312.75,316.0,41,0.0,Stimuli/Blank.png,0,0.0,0.0,0,135,135,135,,,,,,,,,,,,,312.7742908,0.024290800000017043,None,339.9767302999999,339.9767302999999,339.9767302999999,339.9767302999999,339.9767302999999,339.9767302999999,339.9767302999999,339.9767302999999,339.9767302999999,339.9767302999999,,005,P011,2025_Feb_08_1028,ConditionRich,2021.2.3,59.90007469525478,
316.0,316.75,1,0.75,Stimuli/P011/sun_aeakbqnvptdnxtno.jpg,0,0.0,0.0,0,136,136,136,,,,,,,,,,,,,316.01084249999985,0.010842499999853317,None,343.21289830000023,343.21289830000023,343.21289830000023,343.21289830000023,343.21289830000023,343.21289830000023,343.21289830000023,343.21289830000023,343.21289830000023,343.21289830000023,,005,P011,2025_Feb_08_1028,ConditionRich,2021.2.3,59.90007469525478,
316.75,320.0,41,0.0,Stimuli/Blank.png,0,0.0,0.0,0,137,137,137,,,,,,,,,,,,,316.76119949999975,0.011199499999747786,None,343.96359399999983,343.96359399999983,343.96359399999983,343.96359399999983,343.96359399999983,343.96359399999983,343.96359399999983,343.96359399999983,343.96359399999983,343.96359399999983,,005,P011,2025_Feb_08_1028,ConditionRich,2021.2.3,59.90007469525478,
320.0,320.75,4,0.75,Stimuli/P011/sun_akpdzjejmtbfopdt.jpg,0,0.0,0.0,0,138,138,138,,,,,,,,,,,,,320.01491910000004,0.014919100000042818,None,347.23316520000026,347.23316520000026,347.23316520000026,347.23316520000026,347.23316520000026,347.23316520000026,347.23316520000026,347.23316520000026,347.23316520000026,347.23316520000026,,005,P011,2025_Feb_08_1028,ConditionRich,2021.2.3,59.90007469525478,
320.75,324.0,41,0.0,Stimuli/Blank.png,0,0.0,0.0,0,139,139,139,,,,,,,,,,,,,320.78131349999967,0.03131349999966915,None,347.98381119999976,347.98381119999976,347.98381119999976,347.98381119999976,347.98381119999976,347.98381119999976,347.98381119999976,347.98381119999976,347.98381119999976,347.98381119999976,,005,P011,2025_Feb_08_1028,ConditionRich,2021.2.3,59.90007469525478,
324.0,324.75,2,0.75,Stimuli/P011/sun_aewhvqonribwlxiq.jpg,0,0.0,0.0,0,140,140,140,,,,,,,,,,,,,324.0007821999998,0.0007821999997759121,None,351.2033224000006,351.2033224000006,351.2033224000006,351.2033224000006,351.2033224000006,351.2033224000006,351.2033224000006,351.2033224000006,351.2033224000006,351.2033224000006,,005,P011,2025_Feb_08_1028,ConditionRich,2021.2.3,59.90007469525478,
324.75,328.0,41,0.0,Stimuli/Blank.png,0,0.0,0.0,0,141,141,141,,,,,,,,,,,,,324.75408400000015,0.00408400000014808,None,351.97067909999987,351.97067909999987,351.97067909999987,351.97067909999987,351.97067909999987,351.97067909999987,351.97067909999987,351.97067909999987,351.97067909999987,351.97067909999987,,005,P011,2025_Feb_08_1028,ConditionRich,2021.2.3,59.90007469525478,
328.0,328.75,34,0.75,Stimuli/P011/things_polar_bear_06s.jpg,0,0.0,0.0,0,142,142,142,,,,,,,,,,,,,328.02107290000004,0.021072900000035588,None,355.24023709999983,355.24023709999983,355.24023709999983,355.24023709999983,355.24023709999983,355.24023709999983,355.24023709999983,355.24023709999983,355.24023709999983,355.24023709999983,,005,P011,2025_Feb_08_1028,ConditionRich,2021.2.3,59.90007469525478,
328.75,332.0,41,0.0,Stimuli/Blank.png,0,0.0,0.0,0,143,143,143,,,,,,,,,,,,,328.7736635000001,0.023663500000111526,None,355.9909101000003,355.9909101000003,355.9909101000003,355.9909101000003,355.9909101000003,355.9909101000003,355.9909101000003,355.9909101000003,355.9909101000003,355.9909101000003,,005,P011,2025_Feb_08_1028,ConditionRich,2021.2.3,59.90007469525478,
332.0,332.75,14,0.75,Stimuli/P011/sun_blybvkoucskrdgiv.jpg,0,0.0,0.0,0,144,144,144,,,,,,,,,,,,,332.0246360000001,0.024636000000100466,None,359.22708409999996,359.22708409999996,359.22708409999996,359.22708409999996,359.22708409999996,359.22708409999996,359.22708409999996,359.22708409999996,359.22708409999996,359.22708409999996,,005,P011,2025_Feb_08_1028,ConditionRich,2021.2.3,59.90007469525478,
332.75,336.0,41,0.0,Stimuli/Blank.png,1,2.25,3.0,0,145,145,145,,,,,,,,,,,,,332.7592778999997,0.009277899999688088,1,359.9610762000002,359.9610762000002,359.9610762000002,359.9610762000002,359.9610762000002,359.9610762000002,362.1964222000006,362.94708360000004,359.9610762000002,359.9610762000002,2.752079500000036,005,P011,2025_Feb_08_1028,ConditionRich,2021.2.3,59.90007469525478,
336.0,336.75,13,0.75,Stimuli/P011/sun_bjedvzikugwleyer.jpg,0,0.0,0.0,0,146,146,146,,,,,,,,,,,,,336.01228059999994,0.012280599999940023,None,363.23064440000053,363.23064440000053,363.23064440000053,363.23064440000053,363.23064440000053,363.23064440000053,363.23064440000053,363.23064440000053,363.23064440000053,363.23064440000053,,005,P011,2025_Feb_08_1028,ConditionRich,2021.2.3,59.90007469525478,
336.75,340.0,41,0.0,Stimuli/Blank.png,0,0.0,0.0,0,147,147,147,,,,,,,,,,,,,336.78031050000027,0.030310500000268803,None,363.99800810000033,363.99800810000033,363.99800810000033,363.99800810000033,363.99800810000033,363.99800810000033,363.99800810000033,363.99800810000033,363.99800810000033,363.99800810000033,,005,P011,2025_Feb_08_1028,ConditionRich,2021.2.3,59.90007469525478,
340.0,340.75,33,0.75,Stimuli/P011/things_hot-air_balloon_06s.jpg,0,0.0,0.0,0,148,148,148,,,,,,,,,,,,,340.0150295000003,0.015029500000309781,None,367.2174849000003,367.2174849000003,367.2174849000003,367.2174849000003,367.2174849000003,367.2174849000003,367.2174849000003,367.2174849000003,367.2174849000003,367.2174849000003,,005,P011,2025_Feb_08_1028,ConditionRich,2021.2.3,59.90007469525478,
340.75,344.0,41,0.0,Stimuli/Blank.png,1,1.25,2.0,0,149,149,149,,,,,,,,,,,,,340.7500818999997,8.189999971364159e-05,1,367.96816020000006,367.96816020000006,367.96816020000006,367.96816020000006,367.96816020000006,367.96816020000006,369.18589729999985,369.93661020000036,367.96816020000006,367.96816020000006,1.7310370000004696,005,P011,2025_Feb_08_1028,ConditionRich,2021.2.3,59.90007469525478,
344.0,344.75,37,0.75,Stimuli/P011/things_spam_06s.jpg,0,0.0,0.0,0,150,150,150,,,,,,,,,,,,,344.01917559999947,0.01917559999947116,None,371.22103049999987,371.22103049999987,371.22103049999987,371.22103049999987,371.22103049999987,371.22103049999987,371.22103049999987,371.22103049999987,371.22103049999987,371.22103049999987,,005,P011,2025_Feb_08_1028,ConditionRich,2021.2.3,59.90007469525478,
344.75,348.0,41,0.0,Stimuli/Blank.png,0,0.0,0.0,0,151,151,151,,,,,,,,,,,,,344.7537149,0.003714899999977206,None,371.95502060000035,371.95502060000035,371.95502060000035,371.95502060000035,371.95502060000035,371.95502060000035,371.95502060000035,371.95502060000035,371.95502060000035,371.95502060000035,,005,P011,2025_Feb_08_1028,ConditionRich,2021.2.3,59.90007469525478,
348.0,348.75,7,0.75,Stimuli/P011/sun_arugqgwhwdjxezyt.jpg,0,0.0,0.0,0,152,152,152,,,,,,,,,,,,,348.00536719999945,0.005367199999454897,None,375.2078941999998,375.2078941999998,375.2078941999998,375.2078941999998,375.2078941999998,375.2078941999998,375.2078941999998,375.2078941999998,375.2078941999998,375.2078941999998,,005,P011,2025_Feb_08_1028,ConditionRich,2021.2.3,59.90007469525478,
348.75,352.0,41,0.0,Stimuli/Blank.png,0,0.0,0.0,0,153,153,153,,,,,,,,,,,,,348.7590677999997,0.009067799999684212,None,375.97523340000043,375.97523340000043,375.97523340000043,375.97523340000043,375.97523340000043,375.97523340000043,375.97523340000043,375.97523340000043,375.97523340000043,375.97523340000043,,005,P011,2025_Feb_08_1028,ConditionRich,2021.2.3,59.90007469525478,
352.0,352.75,36,0.75,Stimuli/P011/things_shower_cap_06s.jpg,0,0.0,0.0,0,154,154,154,,,,,,,,,,,,,352.0257448000002,0.0257448000002114,None,379.22811720000027,379.22811720000027,379.22811720000027,379.22811720000027,379.22811720000027,379.22811720000027,379.22811720000027,379.22811720000027,379.22811720000027,379.22811720000027,,005,P011,2025_Feb_08_1028,ConditionRich,2021.2.3,59.90007469525478,
352.75,356.0,41,0.0,Stimuli/Blank.png,0,0.0,0.0,0,155,155,155,,,,,,,,,,,,,352.7605418000003,0.01054180000028282,None,379.96209780000027,379.96209780000027,379.96209780000027,379.96209780000027,379.96209780000027,379.96209780000027,379.96209780000027,379.96209780000027,379.96209780000027,379.96209780000027,,005,P011,2025_Feb_08_1028,ConditionRich,2021.2.3,59.90007469525478,
356.0,356.75,16,0.75,Stimuli/P011/sun_bpuwvyadswjfoaby.jpg,0,0.0,0.0,0,156,156,156,,,,,,,,,,,,,356.01251129999946,0.01251129999945988,None,383.21497830000044,383.21497830000044,383.21497830000044,383.21497830000044,383.21497830000044,383.21497830000044,383.21497830000044,383.21497830000044,383.21497830000044,383.21497830000044,,005,P011,2025_Feb_08_1028,ConditionRich,2021.2.3,59.90007469525478,
356.75,360.0,41,0.0,Stimuli/Blank.png,0,0.0,0.0,0,157,157,157,,,,,,,,,,,,,356.76379329999963,0.013793299999633746,None,383.9656386000006,383.9656386000006,383.9656386000006,383.9656386000006,383.9656386000006,383.9656386000006,383.9656386000006,383.9656386000006,383.9656386000006,383.9656386000006,,005,P011,2025_Feb_08_1028,ConditionRich,2021.2.3,59.90007469525478,
360.0,360.75,18,0.75,Stimuli/P011/sun_bxlbxustiovyqyrg.jpg,0,0.0,0.0,0,158,158,158,,,,,,,,,,,,,359.9993380999995,-0.0006619000005230191,None,387.2018293000001,387.2018293000001,387.2018293000001,387.2018293000001,387.2018293000001,387.2018293000001,387.2018293000001,387.2018293000001,387.2018293000001,387.2018293000001,,005,P011,2025_Feb_08_1028,ConditionRich,2021.2.3,59.90007469525478,
360.75,364.0,41,0.0,Stimuli/Blank.png,0,0.0,0.0,0,159,159,159,,,,,,,,,,,,,360.74992629999997,-7.370000002993038e-05,None,387.95250469999974,387.95250469999974,387.95250469999974,387.95250469999974,387.95250469999974,387.95250469999974,387.95250469999974,387.95250469999974,387.95250469999974,387.95250469999974,,005,P011,2025_Feb_08_1028,ConditionRich,2021.2.3,59.90007469525478,
364.0,364.75,26,0.75,Stimuli/P011/things_gazelle_06s.jpg,0,0.0,0.0,0,160,160,160,,,,,,,,,,,,,364.0028943999996,0.0028943999996045022,None,391.2053642000001,391.2053642000001,391.2053642000001,391.2053642000001,391.2053642000001,391.2053642000001,391.2053642000001,391.2053642000001,391.2053642000001,391.2053642000001,,005,P011,2025_Feb_08_1028,ConditionRich,2021.2.3,59.90007469525478,
364.75,368.0,41,0.0,Stimuli/Blank.png,0,0.0,0.0,0,161,161,161,,,,,,,,,,,,,364.7545957000002,0.004595700000209035,None,391.9559976999999,391.9559976999999,391.9559976999999,391.9559976999999,391.9559976999999,391.9559976999999,391.9559976999999,391.9559976999999,391.9559976999999,391.9559976999999,,005,P011,2025_Feb_08_1028,ConditionRich,2021.2.3,59.90007469525478,
368.0,368.75,17,0.75,Stimuli/P011/sun_btvwhlxbhcqnqzok.jpg,0,0.0,0.0,0,162,162,162,,,,,,,,,,,,,368.0088995999995,0.008899599999494967,None,395.2255948000002,395.2255948000002,395.2255948000002,395.2255948000002,395.2255948000002,395.2255948000002,395.2255948000002,395.2255948000002,395.2255948000002,395.2255948000002,,005,P011,2025_Feb_08_1028,ConditionRich,2021.2.3,59.90007469525478,
368.75,372.0,41,0.0,Stimuli/Blank.png,1,1.25,2.0,0,163,163,163,,,,,,,,,,,,,368.77456019999954,0.02456019999954151,None,395.9762662000003,395.9762662000003,395.9762662000003,395.9762662000003,395.9762662000003,395.9762662000003,397.21068360000027,397.96133910000026,395.9762662000003,395.9762662000003,,005,P011,2025_Feb_08_1028,ConditionRich,2021.2.3,59.90007469525478,
372.0,388.0,0,0.0,Stimuli/Blank.png,1,4.0,4.75,0,164,164,164,,,,,,,,,,,,,372.01040680000006,0.010406800000055227,1,399.2124488999998,399.2124488999998,399.2124488999998,399.2124488999998,399.2124488999998,399.2124488999998,403.19936640000014,403.9499878000006,399.2124488999998,399.2124488999998,4.416729600000508,005,P011,2025_Feb_08_1028,ConditionRich,2021.2.3,59.90007469525478,
