eventStartTime,eventEndTime,eventCond,imSize,imFile,responseEvent,fixRespStart,fixRespEnd,Events.thisRepN,Events.thisTrialN,Events.thisN,Events.thisIndex,Instructions.started,Instructions.stopped,participantReadyResponse.keys,participantReadyResponse.rt,participantReadyResponse.started,participantReadyResponse.stopped,startWaitforTrigger,triggerResponse.keys,triggerResponse.rt,triggerResponse.started,triggerResponse.stopped,globalTimer,actualStartTime,startTimingDiff,participantResponse.keys,participantResponse.started,participantResponse.stopped,image.started,image.stopped,fixationOutside.started,fixationOutside.stopped,fixationResponse.started,fixationResponse.stopped,fixationInside.started,fixationInside.stopped,participantResponse.rt,session,participant,date,expName,psychopyVersion,frameRate,
,,,,,,,,,,,,10.996670399999857,None,1,4.620958199999677,10.996670399999857,None,,,,,,,,,,,,,,,,,,,,,002,P011,2025_Feb_08_1000,ConditionRich,2021.2.3,59.930839810719625,
,,,,,,,,,,,,,,,,,,15.619858300000033,5,14.544901199999913,15.633698000000095,None,,,,,,,,,,,,,,,,002,P011,2025_Feb_08_1000,ConditionRich,2021.2.3,59.930839810719625,
0.0,4.0,0,0.0,Stimuli/Blank.png,0,0.0,0.0,0,0,0,0,,,,,,,,,,,,30.183280900000227,0.03105379999988145,0.03105379999988145,None,30.22994410000001,None,30.22994410000001,None,30.22994410000001,None,30.22994410000001,30.22994410000001,30.22994410000001,None,,002,P011,2025_Feb_08_1000,ConditionRich,2021.2.3,59.930839810719625,
4.0,4.75,40,0.75,Stimuli/P011/things_woman_06s.jpg,0,0.0,0.0,0,1,1,1,,,,,,,,,,,,,4.0040869999997994,0.0040869999997994455,None,34.217153099999905,34.217153099999905,34.217153099999905,34.217153099999905,34.217153099999905,34.217153099999905,34.217153099999905,34.217153099999905,34.217153099999905,34.217153099999905,,002,P011,2025_Feb_08_1000,ConditionRich,2021.2.3,59.930839810719625,
4.75,8.0,41,0.0,Stimuli/Blank.png,0,0.0,0.0,0,2,2,2,,,,,,,,,,,,,4.771955400000024,0.021955400000024383,None,34.98440789999995,34.98440789999995,34.98440789999995,34.98440789999995,34.98440789999995,34.98440789999995,34.98440789999995,34.98440789999995,34.98440789999995,34.98440789999995,,002,P011,2025_Feb_08_1000,ConditionRich,2021.2.3,59.930839810719625,
8.0,8.75,33,0.75,Stimuli/P011/things_hot-air_balloon_06s.jpg,0,0.0,0.0,0,3,3,3,,,,,,,,,,,,,8.022441799999797,0.022441799999796785,None,38.220342600000095,38.220342600000095,38.220342600000095,38.220342600000095,38.220342600000095,38.220342600000095,38.220342600000095,38.220342600000095,38.220342600000095,38.220342600000095,,002,P011,2025_Feb_08_1000,ConditionRich,2021.2.3,59.930839810719625,
8.75,12.0,41,0.0,Stimuli/Blank.png,0,0.0,0.0,0,4,4,4,,,,,,,,,,,,,8.757640100000117,0.007640100000116945,None,38.95433140000023,38.95433140000023,38.95433140000023,38.95433140000023,38.95433140000023,38.95433140000023,38.95433140000023,38.95433140000023,38.95433140000023,38.95433140000023,,002,P011,2025_Feb_08_1000,ConditionRich,2021.2.3,59.930839810719625,
12.0,12.75,11,0.75,Stimuli/P011/sun_baylllqlgfvxilor.jpg,0,0.0,0.0,0,5,5,5,,,,,,,,,,,,,12.0092795999999,0.009279599999899801,None,42.22388159999991,42.22388159999991,42.22388159999991,42.22388159999991,42.22388159999991,42.22388159999991,42.22388159999991,42.22388159999991,42.22388159999991,42.22388159999991,,002,P011,2025_Feb_08_1000,ConditionRich,2021.2.3,59.930839810719625,
12.75,16.0,41,0.0,Stimuli/Blank.png,0,0.0,0.0,0,6,6,6,,,,,,,,,,,,,12.77781929999992,0.027819299999919167,None,42.974558700000216,42.974558700000216,42.974558700000216,42.974558700000216,42.974558700000216,42.974558700000216,42.974558700000216,42.974558700000216,42.974558700000216,42.974558700000216,,002,P011,2025_Feb_08_1000,ConditionRich,2021.2.3,59.930839810719625,
16.0,16.75,28,0.75,Stimuli/P011/things_grasshopper_06s.jpg,0,0.0,0.0,0,7,7,7,,,,,,,,,,,,,16.013511499999822,0.013511499999822263,None,46.2107431999998,46.2107431999998,46.2107431999998,46.2107431999998,46.2107431999998,46.2107431999998,46.2107431999998,46.2107431999998,46.2107431999998,46.2107431999998,,002,P011,2025_Feb_08_1000,ConditionRich,2021.2.3,59.930839810719625,
16.75,20.0,41,0.0,Stimuli/Blank.png,0,0.0,0.0,0,8,8,8,,,,,,,,,,,,,16.763687899999695,0.013687899999695219,None,46.96140490000016,46.96140490000016,46.96140490000016,46.96140490000016,46.96140490000016,46.96140490000016,46.96140490000016,46.96140490000016,46.96140490000016,46.96140490000016,,002,P011,2025_Feb_08_1000,ConditionRich,2021.2.3,59.930839810719625,
20.0,20.75,17,0.75,Stimuli/P011/sun_btvwhlxbhcqnqzok.jpg,0,0.0,0.0,0,9,9,9,,,,,,,,,,,,,20.001350900000034,0.0013509000000340166,None,50.21428569999989,50.21428569999989,50.21428569999989,50.21428569999989,50.21428569999989,50.21428569999989,50.21428569999989,50.21428569999989,50.21428569999989,50.21428569999989,,002,P011,2025_Feb_08_1000,ConditionRich,2021.2.3,59.930839810719625,
20.75,24.0,41,0.0,Stimuli/Blank.png,0,0.0,0.0,0,10,10,10,,,,,,,,,,,,,20.767977599999995,0.01797759999999471,None,50.964971700000206,50.964971700000206,50.964971700000206,50.964971700000206,50.964971700000206,50.964971700000206,50.964971700000206,50.964971700000206,50.964971700000206,50.964971700000206,,002,P011,2025_Feb_08_1000,ConditionRich,2021.2.3,59.930839810719625,
24.0,24.75,14,0.75,Stimuli/P011/sun_blybvkoucskrdgiv.jpg,1,0.0,0.75,0,11,11,11,,,,,,,,,,,,,24.00397679999969,0.0039767999996911385,1,54.20111189999989,54.20111189999989,54.20111189999989,54.20111189999989,54.20111189999989,54.20111189999989,54.20111189999989,54.935121999999865,54.20111189999989,54.20111189999989,0.5646320000000742,002,P011,2025_Feb_08_1000,ConditionRich,2021.2.3,59.930839810719625,
24.75,28.0,41,0.0,Stimuli/Blank.png,0,0.0,0.0,0,12,12,12,,,,,,,,,,,,,24.75449529999969,0.0044952999996894505,None,54.95181390000016,54.95181390000016,54.95181390000016,54.95181390000016,54.95181390000016,54.95181390000016,54.95181390000016,54.95181390000016,54.95181390000016,54.95181390000016,,002,P011,2025_Feb_08_1000,ConditionRich,2021.2.3,59.930839810719625,
28.0,28.75,10,0.75,Stimuli/P011/sun_awufkrkrdrdbvvis.jpg,0,0.0,0.0,0,13,13,13,,,,,,,,,,,,,28.007760999999846,0.007760999999845808,None,58.204679399999804,58.204679399999804,58.204679399999804,58.204679399999804,58.204679399999804,58.204679399999804,58.204679399999804,58.204679399999804,58.204679399999804,58.204679399999804,,002,P011,2025_Feb_08_1000,ConditionRich,2021.2.3,59.930839810719625,
28.75,32.0,41,0.0,Stimuli/Blank.png,0,0.0,0.0,0,14,14,14,,,,,,,,,,,,,28.758074599999873,0.00807459999987259,None,58.95535040000004,58.95535040000004,58.95535040000004,58.95535040000004,58.95535040000004,58.95535040000004,58.95535040000004,58.95535040000004,58.95535040000004,58.95535040000004,,002,P011,2025_Feb_08_1000,ConditionRich,2021.2.3,59.930839810719625,
32.0,32.75,22,0.75,Stimuli/P011/things_boy_06s.jpg,0,0.0,0.0,0,15,15,15,,,,,,,,,,,,,32.01070299999992,0.010702999999921303,None,62.20822610000005,62.20822610000005,62.20822610000005,62.20822610000005,62.20822610000005,62.20822610000005,62.20822610000005,62.20822610000005,62.20822610000005,62.20822610000005,,002,P011,2025_Feb_08_1000,ConditionRich,2021.2.3,59.930839810719625,
32.75,36.0,41,0.0,Stimuli/Blank.png,0,0.0,0.0,0,16,16,16,,,,,,,,,,,,,32.76156009999977,0.01156009999976959,None,62.95890589999999,62.95890589999999,62.95890589999999,62.95890589999999,62.95890589999999,62.95890589999999,62.95890589999999,62.95890589999999,62.95890589999999,62.95890589999999,,002,P011,2025_Feb_08_1000,ConditionRich,2021.2.3,59.930839810719625,
36.0,36.75,19,0.75,Stimuli/P011/sun_byvwakrdyukjigpc.jpg,0,0.0,0.0,0,17,17,17,,,,,,,,,,,,,36.01447049999979,0.014470499999788444,None,66.22845619999998,66.22845619999998,66.22845619999998,66.22845619999998,66.22845619999998,66.22845619999998,66.22845619999998,66.22845619999998,66.22845619999998,66.22845619999998,,002,P011,2025_Feb_08_1000,ConditionRich,2021.2.3,59.930839810719625,
36.75,40.0,41,0.0,Stimuli/Blank.png,0,0.0,0.0,0,18,18,18,,,,,,,,,,,,,36.781869200000074,0.03186920000007376,None,66.97912450000013,66.97912450000013,66.97912450000013,66.97912450000013,66.97912450000013,66.97912450000013,66.97912450000013,66.97912450000013,66.97912450000013,66.97912450000013,,002,P011,2025_Feb_08_1000,ConditionRich,2021.2.3,59.930839810719625,
40.0,40.75,21,0.75,Stimuli/P011/things_baby_06s.jpg,0,0.0,0.0,0,19,19,19,,,,,,,,,,,,,40.00073229999998,0.0007322999999814783,None,70.1986267000002,70.1986267000002,70.1986267000002,70.1986267000002,70.1986267000002,70.1986267000002,70.1986267000002,70.1986267000002,70.1986267000002,70.1986267000002,,002,P011,2025_Feb_08_1000,ConditionRich,2021.2.3,59.930839810719625,
40.75,44.0,41,0.0,Stimuli/Blank.png,1,0.25,1.0,0,20,20,20,,,,,,,,,,,,,40.7520626999999,0.002062699999896722,1,70.94929869999987,70.94929869999987,70.94929869999987,70.94929869999987,70.94929869999987,70.94929869999987,71.18282529999988,71.93349720000015,70.94929869999987,70.94929869999987,0.6522964999999203,002,P011,2025_Feb_08_1000,ConditionRich,2021.2.3,59.930839810719625,
44.0,44.75,2,0.75,Stimuli/P011/sun_aewhvqonribwlxiq.jpg,0,0.0,0.0,0,21,21,21,,,,,,,,,,,,,44.00697050000008,0.0069705000000794826,None,74.2188543000002,74.2188543000002,74.2188543000002,74.2188543000002,74.2188543000002,74.2188543000002,74.2188543000002,74.2188543000002,74.2188543000002,74.2188543000002,,002,P011,2025_Feb_08_1000,ConditionRich,2021.2.3,59.930839810719625,
44.75,48.0,41,0.0,Stimuli/Blank.png,0,0.0,0.0,0,22,22,22,,,,,,,,,,,,,44.7731960000001,0.023196000000098138,None,74.96952220000003,74.96952220000003,74.96952220000003,74.96952220000003,74.96952220000003,74.96952220000003,74.96952220000003,74.96952220000003,74.96952220000003,74.96952220000003,,002,P011,2025_Feb_08_1000,ConditionRich,2021.2.3,59.930839810719625,
48.0,48.75,6,0.75,Stimuli/P011/sun_aqysdudvyxnkcxgq.jpg,0,0.0,0.0,0,23,23,23,,,,,,,,,,,,,48.00795059999973,0.007950599999730912,None,78.20570889999999,78.20570889999999,78.20570889999999,78.20570889999999,78.20570889999999,78.20570889999999,78.20570889999999,78.20570889999999,78.20570889999999,78.20570889999999,,002,P011,2025_Feb_08_1000,ConditionRich,2021.2.3,59.930839810719625,
48.75,52.0,41,0.0,Stimuli/Blank.png,0,0.0,0.0,0,24,24,24,,,,,,,,,,,,,48.75922589999982,0.009225899999819376,None,78.95645909999985,78.95645909999985,78.95645909999985,78.95645909999985,78.95645909999985,78.95645909999985,78.95645909999985,78.95645909999985,78.95645909999985,78.95645909999985,,002,P011,2025_Feb_08_1000,ConditionRich,2021.2.3,59.930839810719625,
52.0,52.75,37,0.75,Stimuli/P011/things_spam_06s.jpg,0,0.0,0.0,0,25,25,25,,,,,,,,,,,,,52.01136909999968,0.011369099999683385,None,82.20924789999981,82.20924789999981,82.20924789999981,82.20924789999981,82.20924789999981,82.20924789999981,82.20924789999981,82.20924789999981,82.20924789999981,82.20924789999981,,002,P011,2025_Feb_08_1000,ConditionRich,2021.2.3,59.930839810719625,
52.75,56.0,41,0.0,Stimuli/Blank.png,0,0.0,0.0,0,26,26,26,,,,,,,,,,,,,52.76210540000011,0.012105400000109512,None,82.95992400000023,82.95992400000023,82.95992400000023,82.95992400000023,82.95992400000023,82.95992400000023,82.95992400000023,82.95992400000023,82.95992400000023,82.95992400000023,,002,P011,2025_Feb_08_1000,ConditionRich,2021.2.3,59.930839810719625,
56.0,56.75,25,0.75,Stimuli/P011/things_face_06s.jpg,0,0.0,0.0,0,27,27,27,,,,,,,,,,,,,56.01781959999971,0.0178195999997115,None,86.22949609999978,86.22949609999978,86.22949609999978,86.22949609999978,86.22949609999978,86.22949609999978,86.22949609999978,86.22949609999978,86.22949609999978,86.22949609999978,,002,P011,2025_Feb_08_1000,ConditionRich,2021.2.3,59.930839810719625,
56.75,60.0,41,0.0,Stimuli/Blank.png,0,0.0,0.0,0,28,28,28,,,,,,,,,,,,,56.76647759999969,0.01647759999968912,None,86.96346510000012,86.96346510000012,86.96346510000012,86.96346510000012,86.96346510000012,86.96346510000012,86.96346510000012,86.96346510000012,86.96346510000012,86.96346510000012,,002,P011,2025_Feb_08_1000,ConditionRich,2021.2.3,59.930839810719625,
60.0,60.75,36,0.75,Stimuli/P011/things_shower_cap_06s.jpg,0,0.0,0.0,0,29,29,29,,,,,,,,,,,,,60.00295469999992,0.0029546999999183754,None,90.21633359999987,90.21633359999987,90.21633359999987,90.21633359999987,90.21633359999987,90.21633359999987,90.21633359999987,90.21633359999987,90.21633359999987,90.21633359999987,,002,P011,2025_Feb_08_1000,ConditionRich,2021.2.3,59.930839810719625,
60.75,64.0,41,0.0,Stimuli/Blank.png,0,0.0,0.0,0,30,30,30,,,,,,,,,,,,,60.77203550000013,0.022035500000129105,None,90.98370329999989,90.98370329999989,90.98370329999989,90.98370329999989,90.98370329999989,90.98370329999989,90.98370329999989,90.98370329999989,90.98370329999989,90.98370329999989,,002,P011,2025_Feb_08_1000,ConditionRich,2021.2.3,59.930839810719625,
64.0,64.75,7,0.75,Stimuli/P011/sun_arugqgwhwdjxezyt.jpg,0,0.0,0.0,0,31,31,31,,,,,,,,,,,,,64.02265660000012,0.022656600000118488,None,94.21987110000009,94.21987110000009,94.21987110000009,94.21987110000009,94.21987110000009,94.21987110000009,94.21987110000009,94.21987110000009,94.21987110000009,94.21987110000009,,002,P011,2025_Feb_08_1000,ConditionRich,2021.2.3,59.930839810719625,
64.75,68.0,41,0.0,Stimuli/Blank.png,0,0.0,0.0,0,32,32,32,,,,,,,,,,,,,64.75692309999977,0.006923099999767146,None,94.95386120000012,94.95386120000012,94.95386120000012,94.95386120000012,94.95386120000012,94.95386120000012,94.95386120000012,94.95386120000012,94.95386120000012,94.95386120000012,,002,P011,2025_Feb_08_1000,ConditionRich,2021.2.3,59.930839810719625,
68.0,68.75,5,0.75,Stimuli/P011/sun_anfwllcezhlypoti.jpg,0,0.0,0.0,0,33,33,33,,,,,,,,,,,,,68.00885010000002,0.008850100000017846,None,98.20673320000014,98.20673320000014,98.20673320000014,98.20673320000014,98.20673320000014,98.20673320000014,98.20673320000014,98.20673320000014,98.20673320000014,98.20673320000014,,002,P011,2025_Feb_08_1000,ConditionRich,2021.2.3,59.930839810719625,
68.75,72.0,41,0.0,Stimuli/Blank.png,0,0.0,0.0,0,34,34,34,,,,,,,,,,,,,68.75955169999997,0.009551699999974517,None,98.95739959999992,98.95739959999992,98.95739959999992,98.95739959999992,98.95739959999992,98.95739959999992,98.95739959999992,98.95739959999992,98.95739959999992,98.95739959999992,,002,P011,2025_Feb_08_1000,ConditionRich,2021.2.3,59.930839810719625,
72.0,72.75,27,0.75,Stimuli/P011/things_girl_06s.jpg,0,0.0,0.0,0,35,35,35,,,,,,,,,,,,,72.01291279999987,0.012912799999867275,None,102.21026990000018,102.21026990000018,102.21026990000018,102.21026990000018,102.21026990000018,102.21026990000018,102.21026990000018,102.21026990000018,102.21026990000018,102.21026990000018,,002,P011,2025_Feb_08_1000,ConditionRich,2021.2.3,59.930839810719625,
72.75,76.0,41,0.0,Stimuli/Blank.png,1,1.25,2.0,0,36,36,36,,,,,,,,,,,,,72.76382629999989,0.01382629999989149,1,102.96093220000012,102.96093220000012,102.96093220000012,102.96093220000012,102.96093220000012,102.96093220000012,104.19531880000022,104.94601000000011,102.96093220000012,102.96093220000012,1.7647548999998435,002,P011,2025_Feb_08_1000,ConditionRich,2021.2.3,59.930839810719625,
76.0,76.75,39,0.75,Stimuli/P011/things_thermometer_06s.jpg,0,0.0,0.0,0,37,37,37,,,,,,,,,,,,,76.0002027999999,0.00020279999989725184,None,106.19709869999997,106.19709869999997,106.19709869999997,106.19709869999997,106.19709869999997,106.19709869999997,106.19709869999997,106.19709869999997,106.19709869999997,106.19709869999997,,002,P011,2025_Feb_08_1000,ConditionRich,2021.2.3,59.930839810719625,
76.75,80.0,41,0.0,Stimuli/Blank.png,1,1.25,2.0,0,38,38,38,,,,,,,,,,,,,76.75207709999995,0.002077099999951315,1,106.96447949999992,106.96447949999992,106.96447949999992,106.96447949999992,106.96447949999992,106.96447949999992,108.19890179999993,108.94957160000013,106.96447949999992,106.96447949999992,1.7032294999999067,002,P011,2025_Feb_08_1000,ConditionRich,2021.2.3,59.930839810719625,
80.0,80.75,24,0.75,Stimuli/P011/things_doily_06s.jpg,0,0.0,0.0,0,39,39,39,,,,,,,,,,,,,80.02235509999991,0.022355099999913364,None,110.2340505000002,110.2340505000002,110.2340505000002,110.2340505000002,110.2340505000002,110.2340505000002,110.2340505000002,110.2340505000002,110.2340505000002,110.2340505000002,,002,P011,2025_Feb_08_1000,ConditionRich,2021.2.3,59.930839810719625,
80.75,84.0,41,0.0,Stimuli/Blank.png,0,0.0,0.0,0,40,40,40,,,,,,,,,,,,,80.77312350000011,0.023123500000110653,None,110.98471569999992,110.98471569999992,110.98471569999992,110.98471569999992,110.98471569999992,110.98471569999992,110.98471569999992,110.98471569999992,110.98471569999992,110.98471569999992,,002,P011,2025_Feb_08_1000,ConditionRich,2021.2.3,59.930839810719625,
84.0,100.0,0,0.0,Stimuli/Blank.png,1,2.0,2.75,0,41,41,41,,,,,,,,,,,,,84.0230760999998,0.023076099999798316,1,114.22089499999993,114.22089499999993,114.22089499999993,114.22089499999993,114.22089499999993,114.22089499999993,116.20598969999992,116.95665569999983,114.22089499999993,114.22089499999993,2.497893700000077,002,P011,2025_Feb_08_1000,ConditionRich,2021.2.3,59.930839810719625,
100.0,100.75,12,0.75,Stimuli/P011/sun_bcesifdfuidnkdhl.jpg,0,0.0,0.0,0,42,42,42,,,,,,,,,,,,,100.00458919999983,0.004589199999827542,None,130.21837109999979,130.21837109999979,130.21837109999979,130.21837109999979,130.21837109999979,130.21837109999979,130.21837109999979,130.21837109999979,130.21837109999979,130.21837109999979,,002,P011,2025_Feb_08_1000,ConditionRich,2021.2.3,59.930839810719625,
100.75,104.0,41,0.0,Stimuli/Blank.png,0,0.0,0.0,0,43,43,43,,,,,,,,,,,,,100.77189679999992,0.021896799999922223,None,130.9690340000002,130.9690340000002,130.9690340000002,130.9690340000002,130.9690340000002,130.9690340000002,130.9690340000002,130.9690340000002,130.9690340000002,130.9690340000002,,002,P011,2025_Feb_08_1000,ConditionRich,2021.2.3,59.930839810719625,
104.0,104.75,1,0.75,Stimuli/P011/sun_aeakbqnvptdnxtno.jpg,0,0.0,0.0,0,44,44,44,,,,,,,,,,,,,104.00781479999978,0.007814799999778188,None,134.20530240000016,134.20530240000016,134.20530240000016,134.20530240000016,134.20530240000016,134.20530240000016,134.20530240000016,134.20530240000016,134.20530240000016,134.20530240000016,,002,P011,2025_Feb_08_1000,ConditionRich,2021.2.3,59.930839810719625,
104.75,108.0,41,0.0,Stimuli/Blank.png,0,0.0,0.0,0,45,45,45,,,,,,,,,,,,,104.75863410000011,0.008634100000108447,None,134.9559078000002,134.9559078000002,134.9559078000002,134.9559078000002,134.9559078000002,134.9559078000002,134.9559078000002,134.9559078000002,134.9559078000002,134.9559078000002,,002,P011,2025_Feb_08_1000,ConditionRich,2021.2.3,59.930839810719625,
108.0,108.75,34,0.75,Stimuli/P011/things_polar_bear_06s.jpg,0,0.0,0.0,0,46,46,46,,,,,,,,,,,,,108.01258789999974,0.012587899999743968,None,138.22545619999983,138.22545619999983,138.22545619999983,138.22545619999983,138.22545619999983,138.22545619999983,138.22545619999983,138.22545619999983,138.22545619999983,138.22545619999983,,002,P011,2025_Feb_08_1000,ConditionRich,2021.2.3,59.930839810719625,
108.75,112.0,41,0.0,Stimuli/Blank.png,0,0.0,0.0,0,47,47,47,,,,,,,,,,,,,108.77866940000013,0.02866940000012619,None,138.9761239999998,138.9761239999998,138.9761239999998,138.9761239999998,138.9761239999998,138.9761239999998,138.9761239999998,138.9761239999998,138.9761239999998,138.9761239999998,,002,P011,2025_Feb_08_1000,ConditionRich,2021.2.3,59.930839810719625,
112.0,112.75,15,0.75,Stimuli/P011/sun_bmngnyuahubpqroh.jpg,0,0.0,0.0,0,48,48,48,,,,,,,,,,,,,112.01432829999976,0.01432829999976093,None,142.22902410000006,142.22902410000006,142.22902410000006,142.22902410000006,142.22902410000006,142.22902410000006,142.22902410000006,142.22902410000006,142.22902410000006,142.22902410000006,,002,P011,2025_Feb_08_1000,ConditionRich,2021.2.3,59.930839810719625,
112.75,116.0,41,0.0,Stimuli/Blank.png,0,0.0,0.0,0,49,49,49,,,,,,,,,,,,,112.7822984999998,0.03229849999979706,None,142.97966700000006,142.97966700000006,142.97966700000006,142.97966700000006,142.97966700000006,142.97966700000006,142.97966700000006,142.97966700000006,142.97966700000006,142.97966700000006,,002,P011,2025_Feb_08_1000,ConditionRich,2021.2.3,59.930839810719625,
116.0,116.75,32,0.75,Stimuli/P011/things_hood_06s.jpg,0,0.0,0.0,0,50,50,50,,,,,,,,,,,,,116.0018385999997,0.0018385999997008184,None,146.1991349,146.1991349,146.1991349,146.1991349,146.1991349,146.1991349,146.1991349,146.1991349,146.1991349,146.1991349,,002,P011,2025_Feb_08_1000,ConditionRich,2021.2.3,59.930839810719625,
116.75,120.0,41,0.0,Stimuli/Blank.png,0,0.0,0.0,0,51,51,51,,,,,,,,,,,,,116.75275409999995,0.002754099999947357,None,146.94983790000015,146.94983790000015,146.94983790000015,146.94983790000015,146.94983790000015,146.94983790000015,146.94983790000015,146.94983790000015,146.94983790000015,146.94983790000015,,002,P011,2025_Feb_08_1000,ConditionRich,2021.2.3,59.930839810719625,
120.0,120.75,30,0.75,Stimuli/P011/things_hamburger_06s.jpg,0,0.0,0.0,0,52,52,52,,,,,,,,,,,,,120.00696749999997,0.00696749999997337,None,150.21942450000006,150.21942450000006,150.21942450000006,150.21942450000006,150.21942450000006,150.21942450000006,150.21942450000006,150.21942450000006,150.21942450000006,150.21942450000006,,002,P011,2025_Feb_08_1000,ConditionRich,2021.2.3,59.930839810719625,
120.75,124.0,41,0.0,Stimuli/Blank.png,0,0.0,0.0,0,53,53,53,,,,,,,,,,,,,120.77318669999977,0.02318669999976919,None,150.9700668999999,150.9700668999999,150.9700668999999,150.9700668999999,150.9700668999999,150.9700668999999,150.9700668999999,150.9700668999999,150.9700668999999,150.9700668999999,,002,P011,2025_Feb_08_1000,ConditionRich,2021.2.3,59.930839810719625,
124.0,124.75,31,0.75,Stimuli/P011/things_hippopotamus_06s.jpg,0,0.0,0.0,0,54,54,54,,,,,,,,,,,,,124.00844959999995,0.008449599999948987,None,154.20622730000014,154.20622730000014,154.20622730000014,154.20622730000014,154.20622730000014,154.20622730000014,154.20622730000014,154.20622730000014,154.20622730000014,154.20622730000014,,002,P011,2025_Feb_08_1000,ConditionRich,2021.2.3,59.930839810719625,
124.75,128.0,41,0.0,Stimuli/Blank.png,0,0.0,0.0,0,55,55,55,,,,,,,,,,,,,124.75902270000006,0.009022700000059558,None,154.95693849999998,154.95693849999998,154.95693849999998,154.95693849999998,154.95693849999998,154.95693849999998,154.95693849999998,154.95693849999998,154.95693849999998,154.95693849999998,,002,P011,2025_Feb_08_1000,ConditionRich,2021.2.3,59.930839810719625,
128.0,128.75,8,0.75,Stimuli/P011/sun_asppejhsplpizvag.jpg,0,0.0,0.0,0,56,56,56,,,,,,,,,,,,,128.0125078000001,0.012507800000093994,None,158.20979110000007,158.20979110000007,158.20979110000007,158.20979110000007,158.20979110000007,158.20979110000007,158.20979110000007,158.20979110000007,158.20979110000007,158.20979110000007,,002,P011,2025_Feb_08_1000,ConditionRich,2021.2.3,59.930839810719625,
128.75,132.0,41,0.0,Stimuli/Blank.png,0,0.0,0.0,0,57,57,57,,,,,,,,,,,,,128.76252160000013,0.012521600000127364,None,158.96043259999988,158.96043259999988,158.96043259999988,158.96043259999988,158.96043259999988,158.96043259999988,158.96043259999988,158.96043259999988,158.96043259999988,158.96043259999988,,002,P011,2025_Feb_08_1000,ConditionRich,2021.2.3,59.930839810719625,
132.0,132.75,3,0.75,Stimuli/P011/sun_afdaynbvsppiyvxm.jpg,0,0.0,0.0,0,58,58,58,,,,,,,,,,,,,132.01670609999974,0.01670609999973749,None,162.23001410000006,162.23001410000006,162.23001410000006,162.23001410000006,162.23001410000006,162.23001410000006,162.23001410000006,162.23001410000006,162.23001410000006,162.23001410000006,,002,P011,2025_Feb_08_1000,ConditionRich,2021.2.3,59.930839810719625,
132.75,136.0,41,0.0,Stimuli/Blank.png,0,0.0,0.0,0,59,59,59,,,,,,,,,,,,,132.76679209999975,0.016792099999747734,None,162.9640058,162.9640058,162.9640058,162.9640058,162.9640058,162.9640058,162.9640058,162.9640058,162.9640058,162.9640058,,002,P011,2025_Feb_08_1000,ConditionRich,2021.2.3,59.930839810719625,
136.0,136.75,20,0.75,Stimuli/P011/sun_ciifteeudwpxupnw.jpg,0,0.0,0.0,0,60,60,60,,,,,,,,,,,,,136.00241689999984,0.0024168999998437357,None,166.20015650000005,166.20015650000005,166.20015650000005,166.20015650000005,166.20015650000005,166.20015650000005,166.20015650000005,166.20015650000005,166.20015650000005,166.20015650000005,,002,P011,2025_Feb_08_1000,ConditionRich,2021.2.3,59.930839810719625,
136.75,140.0,41,0.0,Stimuli/Blank.png,0,0.0,0.0,0,61,61,61,,,,,,,,,,,,,136.75304129999995,0.0030412999999498425,None,166.95086219999985,166.95086219999985,166.95086219999985,166.95086219999985,166.95086219999985,166.95086219999985,166.95086219999985,166.95086219999985,166.95086219999985,166.95086219999985,,002,P011,2025_Feb_08_1000,ConditionRich,2021.2.3,59.930839810719625,
140.0,140.75,23,0.75,Stimuli/P011/things_clove_06s.jpg,0,0.0,0.0,0,62,62,62,,,,,,,,,,,,,140.00665359999994,0.006653599999935977,None,170.2203844999999,170.2203844999999,170.2203844999999,170.2203844999999,170.2203844999999,170.2203844999999,170.2203844999999,170.2203844999999,170.2203844999999,170.2203844999999,,002,P011,2025_Feb_08_1000,ConditionRich,2021.2.3,59.930839810719625,
140.75,144.0,41,0.0,Stimuli/Blank.png,0,0.0,0.0,0,63,63,63,,,,,,,,,,,,,140.77331460000005,0.023314600000048813,None,170.97109180000007,170.97109180000007,170.97109180000007,170.97109180000007,170.97109180000007,170.97109180000007,170.97109180000007,170.97109180000007,170.97109180000007,170.97109180000007,,002,P011,2025_Feb_08_1000,ConditionRich,2021.2.3,59.930839810719625,
144.0,144.75,9,0.75,Stimuli/P011/sun_aupohozmrmtfgcsw.jpg,0,0.0,0.0,0,64,64,64,,,,,,,,,,,,,144.01212929999974,0.012129299999742216,None,174.22395289999986,174.22395289999986,174.22395289999986,174.22395289999986,174.22395289999986,174.22395289999986,174.22395289999986,174.22395289999986,174.22395289999986,174.22395289999986,,002,P011,2025_Feb_08_1000,ConditionRich,2021.2.3,59.930839810719625,
144.75,148.0,41,0.0,Stimuli/Blank.png,0,0.0,0.0,0,65,65,65,,,,,,,,,,,,,144.77833490000012,0.02833490000011807,None,174.99130950000017,174.99130950000017,174.99130950000017,174.99130950000017,174.99130950000017,174.99130950000017,174.99130950000017,174.99130950000017,174.99130950000017,174.99130950000017,,002,P011,2025_Feb_08_1000,ConditionRich,2021.2.3,59.930839810719625,
148.0,148.75,4,0.75,Stimuli/P011/sun_akpdzjejmtbfopdt.jpg,1,0.0,0.75,0,66,66,66,,,,,,,,,,,,,148.03194029999986,0.031940299999860144,1,178.2441801,178.96147380000002,178.2441801,178.96147380000002,178.2441801,178.96147380000002,178.2441801,None,178.2441801,178.96147380000002,0.4747320999999829,002,P011,2025_Feb_08_1000,ConditionRich,2021.2.3,59.930839810719625,
148.75,152.0,41,0.0,Stimuli/Blank.png,0,0.0,0.0,0,67,67,67,,,,,,,,,,,,,148.78277329999992,0.03277329999991707,None,178.9948502000002,None,178.9948502000002,None,178.9948502000002,None,178.9948502000002,178.9948502000002,178.9948502000002,None,,002,P011,2025_Feb_08_1000,ConditionRich,2021.2.3,59.930839810719625,
152.0,152.75,16,0.75,Stimuli/P011/sun_bpuwvyadswjfoaby.jpg,0,0.0,0.0,0,68,68,68,,,,,,,,,,,,,152.0172190999997,0.017219099999692844,None,182.21435810000003,182.21435810000003,182.21435810000003,182.21435810000003,182.21435810000003,182.21435810000003,182.21435810000003,182.21435810000003,182.21435810000003,182.21435810000003,,002,P011,2025_Feb_08_1000,ConditionRich,2021.2.3,59.930839810719625,
152.75,156.0,41,0.0,Stimuli/Blank.png,1,1.25,2.0,0,69,69,69,,,,,,,,,,,,,152.75313909999977,0.0031390999997711333,1,182.9650213,182.9650213,182.9650213,182.9650213,182.9650213,182.9650213,184.1994420000001,184.9500819,182.9650213,182.9650213,1.908094799999617,002,P011,2025_Feb_08_1000,ConditionRich,2021.2.3,59.930839810719625,
156.0,156.75,35,0.75,Stimuli/P011/things_raccoon_06n.jpg,0,0.0,0.0,0,70,70,70,,,,,,,,,,,,,156.0209064999999,0.02090649999991001,None,186.23456990000022,186.23456990000022,186.23456990000022,186.23456990000022,186.23456990000022,186.23456990000022,186.23456990000022,186.23456990000022,186.23456990000022,186.23456990000022,,002,P011,2025_Feb_08_1000,ConditionRich,2021.2.3,59.930839810719625,
156.75,160.0,41,0.0,Stimuli/Blank.png,1,1.25,2.0,0,71,71,71,,,,,,,,,,,,,156.7715003999997,0.02150039999969522,1,186.9685614,186.9685614,186.9685614,186.9685614,186.9685614,186.9685614,188.20302989999982,188.95367209999995,186.9685614,186.9685614,1.7241940999997496,002,P011,2025_Feb_08_1000,ConditionRich,2021.2.3,59.930839810719625,
160.0,160.75,26,0.75,Stimuli/P011/things_gazelle_06s.jpg,0,0.0,0.0,0,72,72,72,,,,,,,,,,,,,160.0081971999998,0.008197199999813165,None,190.22149470000022,190.22149470000022,190.22149470000022,190.22149470000022,190.22149470000022,190.22149470000022,190.22149470000022,190.22149470000022,190.22149470000022,190.22149470000022,,002,P011,2025_Feb_08_1000,ConditionRich,2021.2.3,59.930839810719625,
160.75,164.0,41,0.0,Stimuli/Blank.png,0,0.0,0.0,0,73,73,73,,,,,,,,,,,,,160.77703639999982,0.02703639999981533,None,190.98875719999978,190.98875719999978,190.98875719999978,190.98875719999978,190.98875719999978,190.98875719999978,190.98875719999978,190.98875719999978,190.98875719999978,190.98875719999978,,002,P011,2025_Feb_08_1000,ConditionRich,2021.2.3,59.930839810719625,
164.0,164.75,38,0.75,Stimuli/P011/things_squeegee_06s.jpg,0,0.0,0.0,0,74,74,74,,,,,,,,,,,,,164.02827519999983,0.028275199999825418,None,194.2249772,194.2249772,194.2249772,194.2249772,194.2249772,194.2249772,194.2249772,194.2249772,194.2249772,194.2249772,,002,P011,2025_Feb_08_1000,ConditionRich,2021.2.3,59.930839810719625,
164.75,168.0,41,0.0,Stimuli/Blank.png,0,0.0,0.0,0,75,75,75,,,,,,,,,,,,,164.7611925000001,0.01119250000010652,None,194.95896249999987,194.95896249999987,194.95896249999987,194.95896249999987,194.95896249999987,194.95896249999987,194.95896249999987,194.95896249999987,194.95896249999987,194.95896249999987,,002,P011,2025_Feb_08_1000,ConditionRich,2021.2.3,59.930839810719625,
168.0,168.75,29,0.75,Stimuli/P011/things_gutter_06s.jpg,0,0.0,0.0,0,76,76,76,,,,,,,,,,,,,168.0145204999999,0.01452049999988958,None,198.22851899999978,198.22851899999978,198.22851899999978,198.22851899999978,198.22851899999978,198.22851899999978,198.22851899999978,198.22851899999978,198.22851899999978,198.22851899999978,,002,P011,2025_Feb_08_1000,ConditionRich,2021.2.3,59.930839810719625,
168.75,172.0,41,0.0,Stimuli/Blank.png,0,0.0,0.0,0,77,77,77,,,,,,,,,,,,,168.78273349999972,0.03273349999972197,None,198.9791879999998,198.9791879999998,198.9791879999998,198.9791879999998,198.9791879999998,198.9791879999998,198.9791879999998,198.9791879999998,198.9791879999998,198.9791879999998,,002,P011,2025_Feb_08_1000,ConditionRich,2021.2.3,59.930839810719625,
172.0,172.75,13,0.75,Stimuli/P011/sun_bjedvzikugwleyer.jpg,0,0.0,0.0,0,78,78,78,,,,,,,,,,,,,172.00335659999973,0.0033565999997335894,None,202.21534520000023,202.21534520000023,202.21534520000023,202.21534520000023,202.21534520000023,202.21534520000023,202.21534520000023,202.21534520000023,202.21534520000023,202.21534520000023,,002,P011,2025_Feb_08_1000,ConditionRich,2021.2.3,59.930839810719625,
172.75,176.0,41,0.0,Stimuli/Blank.png,1,0.25,1.0,0,79,79,79,,,,,,,,,,,,,172.76824080000006,0.01824080000005779,1,202.96604389999993,202.96604389999993,202.96604389999993,202.96604389999993,202.96604389999993,202.96604389999993,203.19957870000007,203.95025560000022,202.96604389999993,202.96604389999993,0.9509532000001855,002,P011,2025_Feb_08_1000,ConditionRich,2021.2.3,59.930839810719625,
176.0,176.75,18,0.75,Stimuli/P011/sun_bxlbxustiovyqyrg.jpg,0,0.0,0.0,0,80,80,80,,,,,,,,,,,,,176.00534070000003,0.005340700000033394,None,206.2189330000001,206.2189330000001,206.2189330000001,206.2189330000001,206.2189330000001,206.2189330000001,206.2189330000001,206.2189330000001,206.2189330000001,206.2189330000001,,002,P011,2025_Feb_08_1000,ConditionRich,2021.2.3,59.930839810719625,
176.75,180.0,41,0.0,Stimuli/Blank.png,0,0.0,0.0,0,81,81,81,,,,,,,,,,,,,176.7716236000001,0.021623600000111765,None,206.9695869000002,206.9695869000002,206.9695869000002,206.9695869000002,206.9695869000002,206.9695869000002,206.9695869000002,206.9695869000002,206.9695869000002,206.9695869000002,,002,P011,2025_Feb_08_1000,ConditionRich,2021.2.3,59.930839810719625,
180.0,196.0,0,0.0,Stimuli/Blank.png,1,9.0,9.75,0,82,82,82,,,,,,,,,,,,,180.00865299999987,0.008652999999867461,1,210.20577760000015,210.20577760000015,210.20577760000015,210.20577760000015,210.20577760000015,210.20577760000015,219.19710609999993,219.9477270000002,210.20577760000015,210.20577760000015,9.501973100000214,002,P011,2025_Feb_08_1000,ConditionRich,2021.2.3,59.930839810719625,
196.0,196.75,21,0.75,Stimuli/P011/things_baby_06s.jpg,0,0.0,0.0,0,83,83,83,,,,,,,,,,,,,196.00768470000003,0.007684700000027078,None,226.21995349999997,226.21995349999997,226.21995349999997,226.21995349999997,226.21995349999997,226.21995349999997,226.21995349999997,226.21995349999997,226.21995349999997,226.21995349999997,,002,P011,2025_Feb_08_1000,ConditionRich,2021.2.3,59.930839810719625,
196.75,200.0,41,0.0,Stimuli/Blank.png,0,0.0,0.0,0,84,84,84,,,,,,,,,,,,,196.7730902999997,0.023090299999694253,None,226.97060210000018,226.97060210000018,226.97060210000018,226.97060210000018,226.97060210000018,226.97060210000018,226.97060210000018,226.97060210000018,226.97060210000018,226.97060210000018,,002,P011,2025_Feb_08_1000,ConditionRich,2021.2.3,59.930839810719625,
200.0,200.75,30,0.75,Stimuli/P011/things_hamburger_06s.jpg,0,0.0,0.0,0,85,85,85,,,,,,,,,,,,,200.00995169999987,0.009951699999874108,None,230.2234767,230.2234767,230.2234767,230.2234767,230.2234767,230.2234767,230.2234767,230.2234767,230.2234767,230.2234767,,002,P011,2025_Feb_08_1000,ConditionRich,2021.2.3,59.930839810719625,
200.75,204.0,41,0.0,Stimuli/Blank.png,0,0.0,0.0,0,86,86,86,,,,,,,,,,,,,200.7768431999998,0.02684319999980289,None,230.9741454,230.9741454,230.9741454,230.9741454,230.9741454,230.9741454,230.9741454,230.9741454,230.9741454,230.9741454,,002,P011,2025_Feb_08_1000,ConditionRich,2021.2.3,59.930839810719625,
204.0,204.75,20,0.75,Stimuli/P011/sun_ciifteeudwpxupnw.jpg,0,0.0,0.0,0,87,87,87,,,,,,,,,,,,,204.01267129999997,0.012671299999965413,None,234.21033949999992,234.21033949999992,234.21033949999992,234.21033949999992,234.21033949999992,234.21033949999992,234.21033949999992,234.21033949999992,234.21033949999992,234.21033949999992,,002,P011,2025_Feb_08_1000,ConditionRich,2021.2.3,59.930839810719625,
204.75,208.0,41,0.0,Stimuli/Blank.png,0,0.0,0.0,0,88,88,88,,,,,,,,,,,,,204.76325069999984,0.013250699999844073,None,234.96100990000014,234.96100990000014,234.96100990000014,234.96100990000014,234.96100990000014,234.96100990000014,234.96100990000014,234.96100990000014,234.96100990000014,234.96100990000014,,002,P011,2025_Feb_08_1000,ConditionRich,2021.2.3,59.930839810719625,
208.0,208.75,35,0.75,Stimuli/P011/things_raccoon_06n.jpg,0,0.0,0.0,0,89,89,89,,,,,,,,,,,,,207.9993055,-0.000694500000008702,None,238.21389390000013,238.21389390000013,238.21389390000013,238.21389390000013,238.21389390000013,238.21389390000013,238.21389390000013,238.21389390000013,238.21389390000013,238.21389390000013,,002,P011,2025_Feb_08_1000,ConditionRich,2021.2.3,59.930839810719625,
208.75,212.0,41,0.0,Stimuli/Blank.png,0,0.0,0.0,0,90,90,90,,,,,,,,,,,,,208.76730529999986,0.017305299999861745,None,238.96454409999978,238.96454409999978,238.96454409999978,238.96454409999978,238.96454409999978,238.96454409999978,238.96454409999978,238.96454409999978,238.96454409999978,238.96454409999978,,002,P011,2025_Feb_08_1000,ConditionRich,2021.2.3,59.930839810719625,
212.0,212.75,40,0.75,Stimuli/P011/things_woman_06s.jpg,0,0.0,0.0,0,91,91,91,,,,,,,,,,,,,212.0029531,0.0029531000000133645,None,242.2007394000002,242.2007394000002,242.2007394000002,242.2007394000002,242.2007394000002,242.2007394000002,242.2007394000002,242.2007394000002,242.2007394000002,242.2007394000002,,002,P011,2025_Feb_08_1000,ConditionRich,2021.2.3,59.930839810719625,
212.75,216.0,41,0.0,Stimuli/Blank.png,0,0.0,0.0,0,92,92,92,,,,,,,,,,,,,212.7542937999997,0.004293799999686598,None,242.9514049999998,242.9514049999998,242.9514049999998,242.9514049999998,242.9514049999998,242.9514049999998,242.9514049999998,242.9514049999998,242.9514049999998,242.9514049999998,,002,P011,2025_Feb_08_1000,ConditionRich,2021.2.3,59.930839810719625,
216.0,216.75,23,0.75,Stimuli/P011/things_clove_06s.jpg,0,0.0,0.0,0,93,93,93,,,,,,,,,,,,,216.00647979999985,0.006479799999851821,None,246.20427789999985,246.20427789999985,246.20427789999985,246.20427789999985,246.20427789999985,246.20427789999985,246.20427789999985,246.20427789999985,246.20427789999985,246.20427789999985,,002,P011,2025_Feb_08_1000,ConditionRich,2021.2.3,59.930839810719625,
216.75,220.0,41,0.0,Stimuli/Blank.png,0,0.0,0.0,0,94,94,94,,,,,,,,,,,,,216.7585727999999,0.008572799999910785,None,246.97162750000007,246.97162750000007,246.97162750000007,246.97162750000007,246.97162750000007,246.97162750000007,246.97162750000007,246.97162750000007,246.97162750000007,246.97162750000007,,002,P011,2025_Feb_08_1000,ConditionRich,2021.2.3,59.930839810719625,
220.0,220.75,8,0.75,Stimuli/P011/sun_asppejhsplpizvag.jpg,0,0.0,0.0,0,95,95,95,,,,,,,,,,,,,220.02726080000002,0.027260800000021845,None,250.2245085999998,250.2245085999998,250.2245085999998,250.2245085999998,250.2245085999998,250.2245085999998,250.2245085999998,250.2245085999998,250.2245085999998,250.2245085999998,,002,P011,2025_Feb_08_1000,ConditionRich,2021.2.3,59.930839810719625,
220.75,224.0,41,0.0,Stimuli/Blank.png,0,0.0,0.0,0,96,96,96,,,,,,,,,,,,,220.76328250000006,0.013282500000059372,None,250.9751928999999,250.9751928999999,250.9751928999999,250.9751928999999,250.9751928999999,250.9751928999999,250.9751928999999,250.9751928999999,250.9751928999999,250.9751928999999,,002,P011,2025_Feb_08_1000,ConditionRich,2021.2.3,59.930839810719625,
224.0,224.75,26,0.75,Stimuli/P011/things_gazelle_06s.jpg,0,0.0,0.0,0,97,97,97,,,,,,,,,,,,,224.0145281,0.014528100000006816,None,254.2113629999999,254.2113629999999,254.2113629999999,254.2113629999999,254.2113629999999,254.2113629999999,254.2113629999999,254.2113629999999,254.2113629999999,254.2113629999999,,002,P011,2025_Feb_08_1000,ConditionRich,2021.2.3,59.930839810719625,
224.75,228.0,41,0.0,Stimuli/Blank.png,1,0.25,1.0,0,98,98,98,,,,,,,,,,,,,224.76786459999994,0.017864599999938946,1,254.97873470000013,254.97873470000013,254.97873470000013,254.97873470000013,254.97873470000013,254.97873470000013,255.21225730000015,255.96290180000005,254.97873470000013,254.97873470000013,0.61614709999958,002,P011,2025_Feb_08_1000,ConditionRich,2021.2.3,59.930839810719625,
228.0,228.75,5,0.75,Stimuli/P011/sun_anfwllcezhlypoti.jpg,0,0.0,0.0,0,99,99,99,,,,,,,,,,,,,228.0177923000001,0.017792300000110117,None,258.2315819999999,258.2315819999999,258.2315819999999,258.2315819999999,258.2315819999999,258.2315819999999,258.2315819999999,258.2315819999999,258.2315819999999,258.2315819999999,,002,P011,2025_Feb_08_1000,ConditionRich,2021.2.3,59.930839810719625,
228.75,232.0,41,0.0,Stimuli/Blank.png,0,0.0,0.0,0,100,100,100,,,,,,,,,,,,,228.76774870000008,0.017748700000083772,None,258.96556409999994,258.96556409999994,258.96556409999994,258.96556409999994,258.96556409999994,258.96556409999994,258.96556409999994,258.96556409999994,258.96556409999994,258.96556409999994,,002,P011,2025_Feb_08_1000,ConditionRich,2021.2.3,59.930839810719625,
232.0,232.75,16,0.75,Stimuli/P011/sun_bpuwvyadswjfoaby.jpg,0,0.0,0.0,0,101,101,101,,,,,,,,,,,,,232.00399749999997,0.003997499999968568,None,262.20175599999993,262.20175599999993,262.20175599999993,262.20175599999993,262.20175599999993,262.20175599999993,262.20175599999993,262.20175599999993,262.20175599999993,262.20175599999993,,002,P011,2025_Feb_08_1000,ConditionRich,2021.2.3,59.930839810719625,
232.75,236.0,41,0.0,Stimuli/Blank.png,0,0.0,0.0,0,102,102,102,,,,,,,,,,,,,232.75536220000004,0.005362200000035955,None,262.9524329999999,262.9524329999999,262.9524329999999,262.9524329999999,262.9524329999999,262.9524329999999,262.9524329999999,262.9524329999999,262.9524329999999,262.9524329999999,,002,P011,2025_Feb_08_1000,ConditionRich,2021.2.3,59.930839810719625,
236.0,236.75,4,0.75,Stimuli/P011/sun_akpdzjejmtbfopdt.jpg,0,0.0,0.0,0,103,103,103,,,,,,,,,,,,,236.00805050000008,0.008050500000081229,None,266.20529769999985,266.20529769999985,266.20529769999985,266.20529769999985,266.20529769999985,266.20529769999985,266.20529769999985,266.20529769999985,266.20529769999985,266.20529769999985,,002,P011,2025_Feb_08_1000,ConditionRich,2021.2.3,59.930839810719625,
236.75,240.0,41,0.0,Stimuli/Blank.png,0,0.0,0.0,0,104,104,104,,,,,,,,,,,,,236.7580751999999,0.008075199999893812,None,266.9559376000002,266.9559376000002,266.9559376000002,266.9559376000002,266.9559376000002,266.9559376000002,266.9559376000002,266.9559376000002,266.9559376000002,266.9559376000002,,002,P011,2025_Feb_08_1000,ConditionRich,2021.2.3,59.930839810719625,
240.0,240.75,38,0.75,Stimuli/P011/things_squeegee_06s.jpg,0,0.0,0.0,0,105,105,105,,,,,,,,,,,,,240.01170279999997,0.011702799999966373,None,270.2255237999998,270.2255237999998,270.2255237999998,270.2255237999998,270.2255237999998,270.2255237999998,270.2255237999998,270.2255237999998,270.2255237999998,270.2255237999998,,002,P011,2025_Feb_08_1000,ConditionRich,2021.2.3,59.930839810719625,
240.75,244.0,41,0.0,Stimuli/Blank.png,0,0.0,0.0,0,106,106,106,,,,,,,,,,,,,240.77846279999994,0.028462799999942945,None,270.97620670000015,270.97620670000015,270.97620670000015,270.97620670000015,270.97620670000015,270.97620670000015,270.97620670000015,270.97620670000015,270.97620670000015,270.97620670000015,,002,P011,2025_Feb_08_1000,ConditionRich,2021.2.3,59.930839810719625,
244.0,244.75,13,0.75,Stimuli/P011/sun_bjedvzikugwleyer.jpg,0,0.0,0.0,0,107,107,107,,,,,,,,,,,,,244.01695119999977,0.016951199999766686,None,274.22906620000003,274.22906620000003,274.22906620000003,274.22906620000003,274.22906620000003,274.22906620000003,274.22906620000003,274.22906620000003,274.22906620000003,274.22906620000003,,002,P011,2025_Feb_08_1000,ConditionRich,2021.2.3,59.930839810719625,
244.75,248.0,41,0.0,Stimuli/Blank.png,0,0.0,0.0,0,108,108,108,,,,,,,,,,,,,244.7673175,0.017317499999990105,None,274.9797354000002,274.9797354000002,274.9797354000002,274.9797354000002,274.9797354000002,274.9797354000002,274.9797354000002,274.9797354000002,274.9797354000002,274.9797354000002,,002,P011,2025_Feb_08_1000,ConditionRich,2021.2.3,59.930839810719625,
248.0,248.75,19,0.75,Stimuli/P011/sun_byvwakrdyukjigpc.jpg,0,0.0,0.0,0,109,109,109,,,,,,,,,,,,,248.01905859999988,0.019058599999880244,None,278.2159195999998,278.2159195999998,278.2159195999998,278.2159195999998,278.2159195999998,278.2159195999998,278.2159195999998,278.2159195999998,278.2159195999998,278.2159195999998,,002,P011,2025_Feb_08_1000,ConditionRich,2021.2.3,59.930839810719625,
248.75,252.0,41,0.0,Stimuli/Blank.png,0,0.0,0.0,0,110,110,110,,,,,,,,,,,,,248.7520430999998,0.002043099999809783,None,278.9498800000001,278.9498800000001,278.9498800000001,278.9498800000001,278.9498800000001,278.9498800000001,278.9498800000001,278.9498800000001,278.9498800000001,278.9498800000001,,002,P011,2025_Feb_08_1000,ConditionRich,2021.2.3,59.930839810719625,
252.0,252.75,33,0.75,Stimuli/P011/things_hot-air_balloon_06s.jpg,0,0.0,0.0,0,111,111,111,,,,,,,,,,,,,252.00592099999994,0.005920999999943888,None,282.20277840000017,282.20277840000017,282.20277840000017,282.20277840000017,282.20277840000017,282.20277840000017,282.20277840000017,282.20277840000017,282.20277840000017,282.20277840000017,,002,P011,2025_Feb_08_1000,ConditionRich,2021.2.3,59.930839810719625,
252.75,256.0,41,0.0,Stimuli/Blank.png,0,0.0,0.0,0,112,112,112,,,,,,,,,,,,,252.7564225000001,0.0064225000000988075,None,282.9534533000001,282.9534533000001,282.9534533000001,282.9534533000001,282.9534533000001,282.9534533000001,282.9534533000001,282.9534533000001,282.9534533000001,282.9534533000001,,002,P011,2025_Feb_08_1000,ConditionRich,2021.2.3,59.930839810719625,
256.0,256.75,32,0.75,Stimuli/P011/things_hood_06s.jpg,0,0.0,0.0,0,113,113,113,,,,,,,,,,,,,256.0084004,0.00840040000002773,None,286.20631649999996,286.20631649999996,286.20631649999996,286.20631649999996,286.20631649999996,286.20631649999996,286.20631649999996,286.20631649999996,286.20631649999996,286.20631649999996,,002,P011,2025_Feb_08_1000,ConditionRich,2021.2.3,59.930839810719625,
256.75,260.0,41,0.0,Stimuli/Blank.png,0,0.0,0.0,0,114,114,114,,,,,,,,,,,,,256.7598509999998,0.00985099999979866,None,286.95699680000007,286.95699680000007,286.95699680000007,286.95699680000007,286.95699680000007,286.95699680000007,286.95699680000007,286.95699680000007,286.95699680000007,286.95699680000007,,002,P011,2025_Feb_08_1000,ConditionRich,2021.2.3,59.930839810719625,
260.0,260.75,27,0.75,Stimuli/P011/things_girl_06s.jpg,1,0.0,0.75,0,115,115,115,,,,,,,,,,,,,260.01288569999997,0.012885699999969802,None,290.2265403000001,290.2265403000001,290.2265403000001,290.2265403000001,290.2265403000001,290.2265403000001,290.2265403000001,290.9605198999998,290.2265403000001,290.2265403000001,,002,P011,2025_Feb_08_1000,ConditionRich,2021.2.3,59.930839810719625,
260.75,264.0,41,0.0,Stimuli/Blank.png,0,0.0,0.0,0,116,116,116,,,,,,,,,,,,,260.7792884999999,0.029288499999893247,1,290.9772065000002,290.9772065000002,290.9772065000002,290.9772065000002,290.9772065000002,290.9772065000002,290.9772065000002,290.9772065000002,290.9772065000002,290.9772065000002,0.025870400000258087,002,P011,2025_Feb_08_1000,ConditionRich,2021.2.3,59.930839810719625,
264.0,264.75,37,0.75,Stimuli/P011/things_spam_06s.jpg,1,0.0,0.75,0,117,117,117,,,,,,,,,,,,,264.0184188999997,0.01841889999968771,1,294.2300931999998,294.2300931999998,294.2300931999998,294.2300931999998,294.2300931999998,294.2300931999998,294.2300931999998,None,294.2300931999998,294.2300931999998,0.5007275999996637,002,P011,2025_Feb_08_1000,ConditionRich,2021.2.3,59.930839810719625,
264.75,268.0,41,0.0,Stimuli/Blank.png,0,0.0,0.0,0,118,118,118,,,,,,,,,,,,,264.7671347999999,0.017134799999894312,None,294.9640684000001,294.9640684000001,294.9640684000001,294.9640684000001,294.9640684000001,294.9640684000001,294.9640684000001,294.9640684000001,294.9640684000001,294.9640684000001,,002,P011,2025_Feb_08_1000,ConditionRich,2021.2.3,59.930839810719625,
268.0,268.75,6,0.75,Stimuli/P011/sun_aqysdudvyxnkcxgq.jpg,0,0.0,0.0,0,119,119,119,,,,,,,,,,,,,268.0035315,0.0035315000000082364,None,298.21696629999997,298.21696629999997,298.21696629999997,298.21696629999997,298.21696629999997,298.21696629999997,298.21696629999997,298.21696629999997,298.21696629999997,298.21696629999997,,002,P011,2025_Feb_08_1000,ConditionRich,2021.2.3,59.930839810719625,
268.75,272.0,41,0.0,Stimuli/Blank.png,0,0.0,0.0,0,120,120,120,,,,,,,,,,,,,268.7704358000001,0.0204358000000866,None,298.9677264000002,298.9677264000002,298.9677264000002,298.9677264000002,298.9677264000002,298.9677264000002,298.9677264000002,298.9677264000002,298.9677264000002,298.9677264000002,,002,P011,2025_Feb_08_1000,ConditionRich,2021.2.3,59.930839810719625,
272.0,272.75,22,0.75,Stimuli/P011/things_boy_06s.jpg,0,0.0,0.0,0,121,121,121,,,,,,,,,,,,,272.0061175000001,0.006117500000073051,None,302.2038099000001,302.2038099000001,302.2038099000001,302.2038099000001,302.2038099000001,302.2038099000001,302.2038099000001,302.2038099000001,302.2038099000001,302.2038099000001,,002,P011,2025_Feb_08_1000,ConditionRich,2021.2.3,59.930839810719625,
272.75,276.0,41,0.0,Stimuli/Blank.png,1,2.25,3.0,0,122,122,122,,,,,,,,,,,,,272.75778249999985,0.007782499999848369,1,302.95447839999997,302.95447839999997,302.95447839999997,302.95447839999997,302.95447839999997,302.95447839999997,305.18979739999986,305.94042649999983,302.95447839999997,302.95447839999997,2.6344694999997955,002,P011,2025_Feb_08_1000,ConditionRich,2021.2.3,59.930839810719625,
276.0,292.0,0,0.0,Stimuli/Blank.png,1,7.0,7.75,0,123,123,123,,,,,,,,,,,,,276.0102235999998,0.010223599999790167,1,306.2074782999998,306.2074782999998,306.2074782999998,306.2074782999998,306.2074782999998,306.2074782999998,313.19684589999997,313.9475542,306.2074782999998,306.2074782999998,7.595352100000127,002,P011,2025_Feb_08_1000,ConditionRich,2021.2.3,59.930839810719625,
292.0,292.75,12,0.75,Stimuli/P011/sun_bcesifdfuidnkdhl.jpg,0,0.0,0.0,0,124,124,124,,,,,,,,,,,,,292.0080619999999,0.008061999999881664,None,322.2215369999999,322.2215369999999,322.2215369999999,322.2215369999999,322.2215369999999,322.2215369999999,322.2215369999999,322.2215369999999,322.2215369999999,322.2215369999999,,002,P011,2025_Feb_08_1000,ConditionRich,2021.2.3,59.930839810719625,
292.75,296.0,41,0.0,Stimuli/Blank.png,0,0.0,0.0,0,125,125,125,,,,,,,,,,,,,292.7756899000001,0.025689900000088528,None,322.9721872,322.9721872,322.9721872,322.9721872,322.9721872,322.9721872,322.9721872,322.9721872,322.9721872,322.9721872,,002,P011,2025_Feb_08_1000,ConditionRich,2021.2.3,59.930839810719625,
296.0,296.75,15,0.75,Stimuli/P011/sun_bmngnyuahubpqroh.jpg,0,0.0,0.0,0,126,126,126,,,,,,,,,,,,,296.01317329999983,0.013173299999834853,None,326.22503989999996,326.22503989999996,326.22503989999996,326.22503989999996,326.22503989999996,326.22503989999996,326.22503989999996,326.22503989999996,326.22503989999996,326.22503989999996,,002,P011,2025_Feb_08_1000,ConditionRich,2021.2.3,59.930839810719625,
296.75,300.0,41,0.0,Stimuli/Blank.png,1,1.25,2.0,0,127,127,127,,,,,,,,,,,,,296.7787559999997,0.028755999999702908,1,326.97570159999987,326.97570159999987,326.97570159999987,326.97570159999987,326.97570159999987,326.97570159999987,328.2101582,328.96076219999986,326.97570159999987,326.97570159999987,1.6894361999998182,002,P011,2025_Feb_08_1000,ConditionRich,2021.2.3,59.930839810719625,
300.0,300.75,28,0.75,Stimuli/P011/things_grasshopper_06s.jpg,0,0.0,0.0,0,128,128,128,,,,,,,,,,,,,300.01417219999985,0.01417219999984809,None,330.21190690000003,330.21190690000003,330.21190690000003,330.21190690000003,330.21190690000003,330.21190690000003,330.21190690000003,330.21190690000003,330.21190690000003,330.21190690000003,,002,P011,2025_Feb_08_1000,ConditionRich,2021.2.3,59.930839810719625,
300.75,304.0,41,0.0,Stimuli/Blank.png,0,0.0,0.0,0,129,129,129,,,,,,,,,,,,,300.7656053999999,0.015605399999913061,None,330.9625833,330.9625833,330.9625833,330.9625833,330.9625833,330.9625833,330.9625833,330.9625833,330.9625833,330.9625833,,002,P011,2025_Feb_08_1000,ConditionRich,2021.2.3,59.930839810719625,
304.0,304.75,1,0.75,Stimuli/P011/sun_aeakbqnvptdnxtno.jpg,0,0.0,0.0,0,130,130,130,,,,,,,,,,,,,304.0015985,0.0015985000000000582,None,334.2154452999998,334.2154452999998,334.2154452999998,334.2154452999998,334.2154452999998,334.2154452999998,334.2154452999998,334.2154452999998,334.2154452999998,334.2154452999998,,002,P011,2025_Feb_08_1000,ConditionRich,2021.2.3,59.930839810719625,
304.75,308.0,41,0.0,Stimuli/Blank.png,0,0.0,0.0,0,131,131,131,,,,,,,,,,,,,304.76818449999973,0.018184499999733816,None,334.96610599999985,334.96610599999985,334.96610599999985,334.96610599999985,334.96610599999985,334.96610599999985,334.96610599999985,334.96610599999985,334.96610599999985,334.96610599999985,,002,P011,2025_Feb_08_1000,ConditionRich,2021.2.3,59.930839810719625,
308.0,308.75,39,0.75,Stimuli/P011/things_thermometer_06s.jpg,0,0.0,0.0,0,132,132,132,,,,,,,,,,,,,308.0053763000001,0.005376300000079937,None,338.2022966999998,338.2022966999998,338.2022966999998,338.2022966999998,338.2022966999998,338.2022966999998,338.2022966999998,338.2022966999998,338.2022966999998,338.2022966999998,,002,P011,2025_Feb_08_1000,ConditionRich,2021.2.3,59.930839810719625,
308.75,312.0,41,0.0,Stimuli/Blank.png,0,0.0,0.0,0,133,133,133,,,,,,,,,,,,,308.7574786,0.0074786000000131025,None,338.96964750000006,338.96964750000006,338.96964750000006,338.96964750000006,338.96964750000006,338.96964750000006,338.96964750000006,338.96964750000006,338.96964750000006,338.96964750000006,,002,P011,2025_Feb_08_1000,ConditionRich,2021.2.3,59.930839810719625,
312.0,312.75,2,0.75,Stimuli/P011/sun_aewhvqonribwlxiq.jpg,0,0.0,0.0,0,134,134,134,,,,,,,,,,,,,312.0273689999999,0.027368999999907828,None,342.2392104999999,342.2392104999999,342.2392104999999,342.2392104999999,342.2392104999999,342.2392104999999,342.2392104999999,342.2392104999999,342.2392104999999,342.2392104999999,,002,P011,2025_Feb_08_1000,ConditionRich,2021.2.3,59.930839810719625,
312.75,316.0,41,0.0,Stimuli/Blank.png,0,0.0,0.0,0,135,135,135,,,,,,,,,,,,,312.7759584999999,0.025958499999887863,None,342.9732343999999,342.9732343999999,342.9732343999999,342.9732343999999,342.9732343999999,342.9732343999999,342.9732343999999,342.9732343999999,342.9732343999999,342.9732343999999,,002,P011,2025_Feb_08_1000,ConditionRich,2021.2.3,59.930839810719625,
316.0,316.75,9,0.75,Stimuli/P011/sun_aupohozmrmtfgcsw.jpg,0,0.0,0.0,0,136,136,136,,,,,,,,,,,,,316.0127973999997,0.012797399999726622,None,346.22606589999987,346.22606589999987,346.22606589999987,346.22606589999987,346.22606589999987,346.22606589999987,346.22606589999987,346.22606589999987,346.22606589999987,346.22606589999987,,002,P011,2025_Feb_08_1000,ConditionRich,2021.2.3,59.930839810719625,
316.75,320.0,41,0.0,Stimuli/Blank.png,0,0.0,0.0,0,137,137,137,,,,,,,,,,,,,316.77893989999984,0.028939899999841145,None,346.97672439999997,346.97672439999997,346.97672439999997,346.97672439999997,346.97672439999997,346.97672439999997,346.97672439999997,346.97672439999997,346.97672439999997,346.97672439999997,,002,P011,2025_Feb_08_1000,ConditionRich,2021.2.3,59.930839810719625,
320.0,320.75,34,0.75,Stimuli/P011/things_polar_bear_06s.jpg,0,0.0,0.0,0,138,138,138,,,,,,,,,,,,,320.01717329999974,0.017173299999740266,None,350.2296185,350.2296185,350.2296185,350.2296185,350.2296185,350.2296185,350.2296185,350.2296185,350.2296185,350.2296185,,002,P011,2025_Feb_08_1000,ConditionRich,2021.2.3,59.930839810719625,
320.75,324.0,41,0.0,Stimuli/Blank.png,0,0.0,0.0,0,139,139,139,,,,,,,,,,,,,320.7659582000001,0.01595820000011372,None,350.9636387999999,350.9636387999999,350.9636387999999,350.9636387999999,350.9636387999999,350.9636387999999,350.9636387999999,350.9636387999999,350.9636387999999,350.9636387999999,,002,P011,2025_Feb_08_1000,ConditionRich,2021.2.3,59.930839810719625,
324.0,324.75,10,0.75,Stimuli/P011/sun_awufkrkrdrdbvvis.jpg,0,0.0,0.0,0,140,140,140,,,,,,,,,,,,,324.0029813000001,0.002981300000101328,None,354.2164845000002,354.2164845000002,354.2164845000002,354.2164845000002,354.2164845000002,354.2164845000002,354.2164845000002,354.2164845000002,354.2164845000002,354.2164845000002,,002,P011,2025_Feb_08_1000,ConditionRich,2021.2.3,59.930839810719625,
324.75,328.0,41,0.0,Stimuli/Blank.png,1,1.25,2.0,0,141,141,141,,,,,,,,,,,,,324.7691980999998,0.019198099999812257,1,354.9671245999998,354.9671245999998,354.9671245999998,354.9671245999998,354.9671245999998,354.9671245999998,356.2015434,356.95225530000016,354.9671245999998,354.9671245999998,1.6988853999996536,002,P011,2025_Feb_08_1000,ConditionRich,2021.2.3,59.930839810719625,
328.0,328.75,31,0.75,Stimuli/P011/things_hippopotamus_06s.jpg,0,0.0,0.0,0,142,142,142,,,,,,,,,,,,,328.0060140999999,0.0060140999999021005,None,358.20332400000007,358.20332400000007,358.20332400000007,358.20332400000007,358.20332400000007,358.20332400000007,358.20332400000007,358.20332400000007,358.20332400000007,358.20332400000007,,002,P011,2025_Feb_08_1000,ConditionRich,2021.2.3,59.930839810719625,
328.75,332.0,41,0.0,Stimuli/Blank.png,0,0.0,0.0,0,143,143,143,,,,,,,,,,,,,328.75675869999986,0.006758699999863893,None,358.9539937999998,358.9539937999998,358.9539937999998,358.9539937999998,358.9539937999998,358.9539937999998,358.9539937999998,358.9539937999998,358.9539937999998,358.9539937999998,,002,P011,2025_Feb_08_1000,ConditionRich,2021.2.3,59.930839810719625,
332.0,332.75,7,0.75,Stimuli/P011/sun_arugqgwhwdjxezyt.jpg,0,0.0,0.0,0,144,144,144,,,,,,,,,,,,,332.0106722999999,0.010672299999896495,None,362.2235433000001,362.2235433000001,362.2235433000001,362.2235433000001,362.2235433000001,362.2235433000001,362.2235433000001,362.2235433000001,362.2235433000001,362.2235433000001,,002,P011,2025_Feb_08_1000,ConditionRich,2021.2.3,59.930839810719625,
332.75,336.0,41,0.0,Stimuli/Blank.png,0,0.0,0.0,0,145,145,145,,,,,,,,,,,,,332.7771603000001,0.027160300000105053,None,362.97420920000013,362.97420920000013,362.97420920000013,362.97420920000013,362.97420920000013,362.97420920000013,362.97420920000013,362.97420920000013,362.97420920000013,362.97420920000013,,002,P011,2025_Feb_08_1000,ConditionRich,2021.2.3,59.930839810719625,
336.0,336.75,11,0.75,Stimuli/P011/sun_baylllqlgfvxilor.jpg,0,0.0,0.0,0,146,146,146,,,,,,,,,,,,,336.0134647,0.013464699999985896,None,366.2104005000001,366.2104005000001,366.2104005000001,366.2104005000001,366.2104005000001,366.2104005000001,366.2104005000001,366.2104005000001,366.2104005000001,366.2104005000001,,002,P011,2025_Feb_08_1000,ConditionRich,2021.2.3,59.930839810719625,
336.75,340.0,41,0.0,Stimuli/Blank.png,1,2.25,3.0,0,147,147,147,,,,,,,,,,,,,336.7631630000001,0.013163000000076863,1,366.96106370000007,366.96106370000007,366.96106370000007,366.96106370000007,366.96106370000007,366.96106370000007,369.19641189999993,369.9470815999998,366.96106370000007,366.96106370000007,2.854845000000296,002,P011,2025_Feb_08_1000,ConditionRich,2021.2.3,59.930839810719625,
340.0,340.75,18,0.75,Stimuli/P011/sun_bxlbxustiovyqyrg.jpg,0,0.0,0.0,0,148,148,148,,,,,,,,,,,,,340.0025536999997,0.002553699999680248,None,370.2139459,370.2139459,370.2139459,370.2139459,370.2139459,370.2139459,370.2139459,370.2139459,370.2139459,370.2139459,,002,P011,2025_Feb_08_1000,ConditionRich,2021.2.3,59.930839810719625,
340.75,344.0,41,0.0,Stimuli/Blank.png,0,0.0,0.0,0,149,149,149,,,,,,,,,,,,,340.7674425,0.01744250000001557,None,370.9646094999998,370.9646094999998,370.9646094999998,370.9646094999998,370.9646094999998,370.9646094999998,370.9646094999998,370.9646094999998,370.9646094999998,370.9646094999998,,002,P011,2025_Feb_08_1000,ConditionRich,2021.2.3,59.930839810719625,
344.0,344.75,17,0.75,Stimuli/P011/sun_btvwhlxbhcqnqzok.jpg,0,0.0,0.0,0,150,150,150,,,,,,,,,,,,,344.0030557,0.0030557000000044354,None,374.2007795999998,374.2007795999998,374.2007795999998,374.2007795999998,374.2007795999998,374.2007795999998,374.2007795999998,374.2007795999998,374.2007795999998,374.2007795999998,,002,P011,2025_Feb_08_1000,ConditionRich,2021.2.3,59.930839810719625,
344.75,348.0,41,0.0,Stimuli/Blank.png,1,1.25,2.0,0,151,151,151,,,,,,,,,,,,,344.75452689999975,0.004526899999746092,1,374.9515341000001,374.9515341000001,374.9515341000001,374.9515341000001,374.9515341000001,374.9515341000001,376.1859453000002,376.9365905999998,374.9515341000001,374.9515341000001,1.8113078000001224,002,P011,2025_Feb_08_1000,ConditionRich,2021.2.3,59.930839810719625,
348.0,348.75,14,0.75,Stimuli/P011/sun_blybvkoucskrdgiv.jpg,0,0.0,0.0,0,152,152,152,,,,,,,,,,,,,348.00731640000004,0.007316400000036083,None,378.2210200999998,378.2210200999998,378.2210200999998,378.2210200999998,378.2210200999998,378.2210200999998,378.2210200999998,378.2210200999998,378.2210200999998,378.2210200999998,,002,P011,2025_Feb_08_1000,ConditionRich,2021.2.3,59.930839810719625,
348.75,352.0,41,0.0,Stimuli/Blank.png,0,0.0,0.0,0,153,153,153,,,,,,,,,,,,,348.77465789999997,0.024657899999965593,None,378.9716907000002,378.9716907000002,378.9716907000002,378.9716907000002,378.9716907000002,378.9716907000002,378.9716907000002,378.9716907000002,378.9716907000002,378.9716907000002,,002,P011,2025_Feb_08_1000,ConditionRich,2021.2.3,59.930839810719625,
352.0,352.75,3,0.75,Stimuli/P011/sun_afdaynbvsppiyvxm.jpg,0,0.0,0.0,0,154,154,154,,,,,,,,,,,,,352.0120938,0.012093800000002375,None,382.2245770999998,382.2245770999998,382.2245770999998,382.2245770999998,382.2245770999998,382.2245770999998,382.2245770999998,382.2245770999998,382.2245770999998,382.2245770999998,,002,P011,2025_Feb_08_1000,ConditionRich,2021.2.3,59.930839810719625,
352.75,356.0,41,0.0,Stimuli/Blank.png,0,0.0,0.0,0,155,155,155,,,,,,,,,,,,,352.7781068999998,0.02810689999978422,None,382.9752274000002,382.9752274000002,382.9752274000002,382.9752274000002,382.9752274000002,382.9752274000002,382.9752274000002,382.9752274000002,382.9752274000002,382.9752274000002,,002,P011,2025_Feb_08_1000,ConditionRich,2021.2.3,59.930839810719625,
356.0,356.75,24,0.75,Stimuli/P011/things_doily_06s.jpg,0,0.0,0.0,0,156,156,156,,,,,,,,,,,,,356.0142768999999,0.01427689999991344,None,386.22811649999994,386.22811649999994,386.22811649999994,386.22811649999994,386.22811649999994,386.22811649999994,386.22811649999994,386.22811649999994,386.22811649999994,386.22811649999994,,002,P011,2025_Feb_08_1000,ConditionRich,2021.2.3,59.930839810719625,
356.75,360.0,41,0.0,Stimuli/Blank.png,0,0.0,0.0,0,157,157,157,,,,,,,,,,,,,356.7817649999997,0.03176499999972293,None,386.9787758000002,386.9787758000002,386.9787758000002,386.9787758000002,386.9787758000002,386.9787758000002,386.9787758000002,386.9787758000002,386.9787758000002,386.9787758000002,,002,P011,2025_Feb_08_1000,ConditionRich,2021.2.3,59.930839810719625,
360.0,360.75,25,0.75,Stimuli/P011/things_face_06s.jpg,0,0.0,0.0,0,158,158,158,,,,,,,,,,,,,360.0034104000001,0.003410400000120717,None,390.2149651,390.2149651,390.2149651,390.2149651,390.2149651,390.2149651,390.2149651,390.2149651,390.2149651,390.2149651,,002,P011,2025_Feb_08_1000,ConditionRich,2021.2.3,59.930839810719625,
360.75,364.0,41,0.0,Stimuli/Blank.png,1,0.25,1.0,0,159,159,159,,,,,,,,,,,,,360.76766180000004,0.017661800000041694,1,390.96562300000005,390.96562300000005,390.96562300000005,390.96562300000005,390.96562300000005,390.96562300000005,391.1991739,391.94981610000013,390.96562300000005,390.96562300000005,0.7922591000001376,002,P011,2025_Feb_08_1000,ConditionRich,2021.2.3,59.930839810719625,
364.0,364.75,36,0.75,Stimuli/P011/things_shower_cap_06s.jpg,0,0.0,0.0,0,160,160,160,,,,,,,,,,,,,364.0044829999997,0.004482999999709136,None,394.21851749999996,394.21851749999996,394.21851749999996,394.21851749999996,394.21851749999996,394.21851749999996,394.21851749999996,394.21851749999996,394.21851749999996,394.21851749999996,,002,P011,2025_Feb_08_1000,ConditionRich,2021.2.3,59.930839810719625,
364.75,368.0,41,0.0,Stimuli/Blank.png,0,0.0,0.0,0,161,161,161,,,,,,,,,,,,,364.7720070999999,0.022007099999882485,None,394.9691753000002,394.9691753000002,394.9691753000002,394.9691753000002,394.9691753000002,394.9691753000002,394.9691753000002,394.9691753000002,394.9691753000002,394.9691753000002,,002,P011,2025_Feb_08_1000,ConditionRich,2021.2.3,59.930839810719625,
368.0,368.75,29,0.75,Stimuli/P011/things_gutter_06s.jpg,0,0.0,0.0,0,162,162,162,,,,,,,,,,,,,368.0090723999997,0.009072399999695335,None,398.22204250000004,398.22204250000004,398.22204250000004,398.22204250000004,398.22204250000004,398.22204250000004,398.22204250000004,398.22204250000004,398.22204250000004,398.22204250000004,,002,P011,2025_Feb_08_1000,ConditionRich,2021.2.3,59.930839810719625,
368.75,372.0,41,0.0,Stimuli/Blank.png,0,0.0,0.0,0,163,163,163,,,,,,,,,,,,,368.7755502,0.025550199999997858,None,398.97279179999987,398.97279179999987,398.97279179999987,398.97279179999987,398.97279179999987,398.97279179999987,398.97279179999987,398.97279179999987,398.97279179999987,398.97279179999987,,002,P011,2025_Feb_08_1000,ConditionRich,2021.2.3,59.930839810719625,
372.0,388.0,0,0.0,Stimuli/Blank.png,1,8.0,8.75,0,164,164,164,,,,,,,,,,,,,372.01163959999985,0.01163959999985309,1,402.2089077999999,402.2089077999999,402.2089077999999,402.2089077999999,402.2089077999999,402.2089077999999,410.1993048999998,410.9499775999998,402.2089077999999,402.2089077999999,8.39306970000007,002,P011,2025_Feb_08_1000,ConditionRich,2021.2.3,59.930839810719625,
