eventStartTime,eventEndTime,eventCond,imSize,imFile,responseEvent,fixRespStart,fixRespEnd,Events.thisRepN,Events.thisTrialN,Events.thisN,Events.thisIndex,Instructions.started,Instructions.stopped,participantReadyResponse.keys,participantReadyResponse.rt,participantReadyResponse.started,participantReadyResponse.stopped,startWaitforTrigger,triggerResponse.keys,triggerResponse.rt,triggerResponse.started,triggerResponse.stopped,globalTimer,actualStartTime,startTimingDiff,participantResponse.keys,participantResponse.started,participantResponse.stopped,image.started,image.stopped,fixationOutside.started,fixationOutside.stopped,fixationResponse.started,fixationResponse.stopped,fixationInside.started,fixationInside.stopped,participantResponse.rt,session,participant,date,expName,psychopyVersion,frameRate,
,,,,,,,,,,,,11.606375899999875,None,1,0.8053111999997782,11.606375899999875,None,,,,,,,,,,,,,,,,,,,,,004,P011,2025_Feb_08_1021,ConditionRich,2021.2.3,59.93550939186639,
,,,,,,,,,,,,,,,,,,12.418945199999143,5,21.311460899999474,12.432233099999394,None,,,,,,,,,,,,,,,,004,P011,2025_Feb_08_1021,ConditionRich,2021.2.3,59.93550939186639,
0.0,4.0,0,0.0,Stimuli/Blank.png,0,0,0.0,0,0,0,0,,,,,,,,,,,,33.75457229999938,0.05973849999918457,0.05973849999918457,None,33.83458559999963,None,33.83458559999963,None,33.83458559999963,None,33.83458559999963,33.83458559999963,33.83458559999963,None,,004,P011,2025_Feb_08_1021,ConditionRich,2021.2.3,59.93550939186639,
4.0,4.75,15,0.75,Stimuli/P011/sun_bmngnyuahubpqroh.jpg,0,0,0.0,0,1,1,1,,,,,,,,,,,,,4.020517299999483,0.02051729999948293,None,37.788384499999665,37.788384499999665,37.788384499999665,37.788384499999665,37.788384499999665,37.788384499999665,37.788384499999665,37.788384499999665,37.788384499999665,37.788384499999665,,004,P011,2025_Feb_08_1021,ConditionRich,2021.2.3,59.93550939186639,
4.75,5.0,41,0.0,Stimuli/Blank.png,0,0,0.0,0,2,2,2,,,,,,,,,,,,,4.752904899999521,0.002904899999521149,None,38.52237049999985,38.52237049999985,38.52237049999985,38.52237049999985,38.52237049999985,38.52237049999985,38.52237049999985,38.52237049999985,38.52237049999985,38.52237049999985,,004,P011,2025_Feb_08_1021,ConditionRich,2021.2.3,59.93550939186639,
5.0,5.75,15,0.75,Stimuli/P011/sun_bmngnyuahubpqroh.jpg,0,0,0.0,0,3,3,3,,,,,,,,,,,,,5.004201099999591,0.0042010999995909515,None,38.77227859999948,38.77227859999948,38.77227859999948,38.77227859999948,38.77227859999948,38.77227859999948,38.77227859999948,38.77227859999948,38.77227859999948,38.77227859999948,,004,P011,2025_Feb_08_1021,ConditionRich,2021.2.3,59.93550939186639,
5.75,6.0,41,0.0,Stimuli/Blank.png,0,0,0.0,0,4,4,4,,,,,,,,,,,,,5.7544474999995145,0.004447499999514548,None,39.522957599999245,39.522957599999245,39.522957599999245,39.522957599999245,39.522957599999245,39.522957599999245,39.522957599999245,39.522957599999245,39.522957599999245,39.522957599999245,,004,P011,2025_Feb_08_1021,ConditionRich,2021.2.3,59.93550939186639,
6.0,6.75,15,0.75,Stimuli/P011/sun_bmngnyuahubpqroh.jpg,0,0,0.0,0,5,5,5,,,,,,,,,,,,,6.005285099999128,0.005285099999127851,None,39.78987319999942,39.78987319999942,39.78987319999942,39.78987319999942,39.78987319999942,39.78987319999942,39.78987319999942,39.78987319999942,39.78987319999942,39.78987319999942,,004,P011,2025_Feb_08_1021,ConditionRich,2021.2.3,59.93550939186639,
6.75,7.0,41,0.0,Stimuli/Blank.png,0,0,0.0,0,6,6,6,,,,,,,,,,,,,6.774159499999769,0.02415949999976874,None,40.5572102999995,40.5572102999995,40.5572102999995,40.5572102999995,40.5572102999995,40.5572102999995,40.5572102999995,40.5572102999995,40.5572102999995,40.5572102999995,,004,P011,2025_Feb_08_1021,ConditionRich,2021.2.3,59.93550939186639,
7.0,7.75,15,0.75,Stimuli/P011/sun_bmngnyuahubpqroh.jpg,0,0,0.0,0,7,7,7,,,,,,,,,,,,,7.021495899999536,0.02149589999953605,None,40.79072869999982,40.79072869999982,40.79072869999982,40.79072869999982,40.79072869999982,40.79072869999982,40.79072869999982,40.79072869999982,40.79072869999982,40.79072869999982,,004,P011,2025_Feb_08_1021,ConditionRich,2021.2.3,59.93550939186639,
7.75,8.0,41,0.0,Stimuli/Blank.png,0,0,0.0,0,8,8,8,,,,,,,,,,,,,7.757616499999131,0.00761649999913061,None,41.541401499999665,41.541401499999665,41.541401499999665,41.541401499999665,41.541401499999665,41.541401499999665,41.541401499999665,41.541401499999665,41.541401499999665,41.541401499999665,,004,P011,2025_Feb_08_1021,ConditionRich,2021.2.3,59.93550939186639,
8.0,8.75,12,0.75,Stimuli/P011/sun_bcesifdfuidnkdhl.jpg,0,0,0.0,0,9,9,9,,,,,,,,,,,,,8.022651599999335,0.022651599999335303,None,41.791619399999945,41.791619399999945,41.791619399999945,41.791619399999945,41.791619399999945,41.791619399999945,41.791619399999945,41.791619399999945,41.791619399999945,41.791619399999945,,004,P011,2025_Feb_08_1021,ConditionRich,2021.2.3,59.93550939186639,
8.75,9.0,41,0.0,Stimuli/Blank.png,0,0,0.0,0,10,10,10,,,,,,,,,,,,,8.75771149999946,0.007711499999459193,None,42.52561879999939,42.52561879999939,42.52561879999939,42.52561879999939,42.52561879999939,42.52561879999939,42.52561879999939,42.52561879999939,42.52561879999939,42.52561879999939,,004,P011,2025_Feb_08_1021,ConditionRich,2021.2.3,59.93550939186639,
9.0,9.75,12,0.75,Stimuli/P011/sun_bcesifdfuidnkdhl.jpg,0,0,0.0,0,11,11,11,,,,,,,,,,,,,9.007302600000003,0.0073026000000027125,None,42.79250949999914,42.79250949999914,42.79250949999914,42.79250949999914,42.79250949999914,42.79250949999914,42.79250949999914,42.79250949999914,42.79250949999914,42.79250949999914,,004,P011,2025_Feb_08_1021,ConditionRich,2021.2.3,59.93550939186639,
9.75,10.0,41,0.0,Stimuli/Blank.png,0,0,0.0,0,12,12,12,,,,,,,,,,,,,9.77433099999962,0.024330999999619962,None,43.54316899999958,43.54316899999958,43.54316899999958,43.54316899999958,43.54316899999958,43.54316899999958,43.54316899999958,43.54316899999958,43.54316899999958,43.54316899999958,,004,P011,2025_Feb_08_1021,ConditionRich,2021.2.3,59.93550939186639,
10.0,10.75,12,0.75,Stimuli/P011/sun_bcesifdfuidnkdhl.jpg,0,0,0.0,0,13,13,13,,,,,,,,,,,,,10.0086397999994,0.008639799999400566,None,43.77671609999925,43.77671609999925,43.77671609999925,43.77671609999925,43.77671609999925,43.77671609999925,43.77671609999925,43.77671609999925,43.77671609999925,43.77671609999925,,004,P011,2025_Feb_08_1021,ConditionRich,2021.2.3,59.93550939186639,
10.75,11.0,41,0.0,Stimuli/Blank.png,0,0,0.0,0,14,14,14,,,,,,,,,,,,,10.75885229999949,0.008852299999489333,None,44.52734519999922,44.52734519999922,44.52734519999922,44.52734519999922,44.52734519999922,44.52734519999922,44.52734519999922,44.52734519999922,44.52734519999922,44.52734519999922,,004,P011,2025_Feb_08_1021,ConditionRich,2021.2.3,59.93550939186639,
11.0,11.75,12,0.75,Stimuli/P011/sun_bcesifdfuidnkdhl.jpg,0,0,0.0,0,15,15,15,,,,,,,,,,,,,11.008381699999518,0.008381699999517878,None,44.777591799999755,44.777591799999755,44.777591799999755,44.777591799999755,44.777591799999755,44.777591799999755,44.777591799999755,44.777591799999755,44.777591799999755,44.777591799999755,,004,P011,2025_Feb_08_1021,ConditionRich,2021.2.3,59.93550939186639,
11.75,12.0,41,0.0,Stimuli/Blank.png,0,0,0.0,0,16,16,16,,,,,,,,,,,,,11.759164099999907,0.009164099999907194,None,45.52826699999969,45.52826699999969,45.52826699999969,45.52826699999969,45.52826699999969,45.52826699999969,45.52826699999969,45.52826699999969,45.52826699999969,45.52826699999969,,004,P011,2025_Feb_08_1021,ConditionRich,2021.2.3,59.93550939186639,
12.0,12.75,26,0.75,Stimuli/P011/things_gazelle_06s.jpg,0,0,0.0,0,17,17,17,,,,,,,,,,,,,12.00989539999955,0.009895399999550136,None,45.79515999999967,45.79515999999967,45.79515999999967,45.79515999999967,45.79515999999967,45.79515999999967,45.79515999999967,45.79515999999967,45.79515999999967,45.79515999999967,,004,P011,2025_Feb_08_1021,ConditionRich,2021.2.3,59.93550939186639,
12.75,13.0,41,0.0,Stimuli/Blank.png,0,0,0.0,0,18,18,18,,,,,,,,,,,,,12.777848199999426,0.02784819999942556,None,46.54584589999922,46.54584589999922,46.54584589999922,46.54584589999922,46.54584589999922,46.54584589999922,46.54584589999922,46.54584589999922,46.54584589999922,46.54584589999922,,004,P011,2025_Feb_08_1021,ConditionRich,2021.2.3,59.93550939186639,
13.0,13.75,26,0.75,Stimuli/P011/things_gazelle_06s.jpg,0,0,0.0,0,19,19,19,,,,,,,,,,,,,13.013214199999311,0.01321419999931095,None,46.79608869999993,46.79608869999993,46.79608869999993,46.79608869999993,46.79608869999993,46.79608869999993,46.79608869999993,46.79608869999993,46.79608869999993,46.79608869999993,,004,P011,2025_Feb_08_1021,ConditionRich,2021.2.3,59.93550939186639,
13.75,14.0,41,0.0,Stimuli/Blank.png,0,0,0.0,0,20,20,20,,,,,,,,,,,,,13.77828909999971,0.028289099999710743,None,47.54671269999926,47.54671269999926,47.54671269999926,47.54671269999926,47.54671269999926,47.54671269999926,47.54671269999926,47.54671269999926,47.54671269999926,47.54671269999926,,004,P011,2025_Feb_08_1021,ConditionRich,2021.2.3,59.93550939186639,
14.0,14.75,26,0.75,Stimuli/P011/things_gazelle_06s.jpg,0,0,0.0,0,21,21,21,,,,,,,,,,,,,14.011354599999322,0.01135459999932209,None,47.7802529999999,47.7802529999999,47.7802529999999,47.7802529999999,47.7802529999999,47.7802529999999,47.7802529999999,47.7802529999999,47.7802529999999,47.7802529999999,,004,P011,2025_Feb_08_1021,ConditionRich,2021.2.3,59.93550939186639,
14.75,15.0,41,0.0,Stimuli/Blank.png,0,0,0.0,0,22,22,22,,,,,,,,,,,,,14.76233669999965,0.012336699999650591,None,48.53091889999996,48.53091889999996,48.53091889999996,48.53091889999996,48.53091889999996,48.53091889999996,48.53091889999996,48.53091889999996,48.53091889999996,48.53091889999996,,004,P011,2025_Feb_08_1021,ConditionRich,2021.2.3,59.93550939186639,
15.0,15.75,26,0.75,Stimuli/P011/things_gazelle_06s.jpg,0,0,0.0,0,23,23,23,,,,,,,,,,,,,15.012412299999596,0.012412299999596144,None,48.78112919999967,48.78112919999967,48.78112919999967,48.78112919999967,48.78112919999967,48.78112919999967,48.78112919999967,48.78112919999967,48.78112919999967,48.78112919999967,,004,P011,2025_Feb_08_1021,ConditionRich,2021.2.3,59.93550939186639,
15.75,16.0,41,0.0,Stimuli/Blank.png,0,0,0.0,0,24,24,24,,,,,,,,,,,,,15.763364599999477,0.013364599999476923,None,49.53180579999935,49.53180579999935,49.53180579999935,49.53180579999935,49.53180579999935,49.53180579999935,49.53180579999935,49.53180579999935,49.53180579999935,49.53180579999935,,004,P011,2025_Feb_08_1021,ConditionRich,2021.2.3,59.93550939186639,
16.0,16.75,31,0.75,Stimuli/P011/things_hippopotamus_06s.jpg,0,0,0.0,0,25,25,25,,,,,,,,,,,,,16.013191399999414,0.013191399999413989,None,49.782016099999964,49.782016099999964,49.782016099999964,49.782016099999964,49.782016099999964,49.782016099999964,49.782016099999964,49.782016099999964,49.782016099999964,49.782016099999964,,004,P011,2025_Feb_08_1021,ConditionRich,2021.2.3,59.93550939186639,
16.75,17.0,41,0.0,Stimuli/Blank.png,0,0,0.0,0,26,26,26,,,,,,,,,,,,,16.763970499999232,0.013970499999231833,None,50.53268659999958,50.53268659999958,50.53268659999958,50.53268659999958,50.53268659999958,50.53268659999958,50.53268659999958,50.53268659999958,50.53268659999958,50.53268659999958,,004,P011,2025_Feb_08_1021,ConditionRich,2021.2.3,59.93550939186639,
17.0,17.75,31,0.75,Stimuli/P011/things_hippopotamus_06s.jpg,0,0,0.0,0,27,27,27,,,,,,,,,,,,,17.013827099999617,0.013827099999616621,None,50.78290359999937,50.78290359999937,50.78290359999937,50.78290359999937,50.78290359999937,50.78290359999937,50.78290359999937,50.78290359999937,50.78290359999937,50.78290359999937,,004,P011,2025_Feb_08_1021,ConditionRich,2021.2.3,59.93550939186639,
17.75,18.0,41,0.0,Stimuli/Blank.png,0,0,0.0,0,28,28,28,,,,,,,,,,,,,17.766017199999624,0.0160171999996237,None,51.53357979999964,51.53357979999964,51.53357979999964,51.53357979999964,51.53357979999964,51.53357979999964,51.53357979999964,51.53357979999964,51.53357979999964,51.53357979999964,,004,P011,2025_Feb_08_1021,ConditionRich,2021.2.3,59.93550939186639,
18.0,18.75,31,0.75,Stimuli/P011/things_hippopotamus_06s.jpg,0,0,0.0,0,29,29,29,,,,,,,,,,,,,17.998825899999247,-0.001174100000753242,None,51.78379009999935,51.78379009999935,51.78379009999935,51.78379009999935,51.78379009999935,51.78379009999935,51.78379009999935,51.78379009999935,51.78379009999935,51.78379009999935,,004,P011,2025_Feb_08_1021,ConditionRich,2021.2.3,59.93550939186639,
18.75,19.0,41,0.0,Stimuli/Blank.png,0,0,0.0,0,30,30,30,,,,,,,,,,,,,18.76765829999931,0.017658299999311566,None,52.55113859999983,52.55113859999983,52.55113859999983,52.55113859999983,52.55113859999983,52.55113859999983,52.55113859999983,52.55113859999983,52.55113859999983,52.55113859999983,,004,P011,2025_Feb_08_1021,ConditionRich,2021.2.3,59.93550939186639,
19.0,19.75,31,0.75,Stimuli/P011/things_hippopotamus_06s.jpg,0,0,0.0,0,31,31,31,,,,,,,,,,,,,19.016546999999264,0.01654699999926379,None,52.785078999999314,52.785078999999314,52.785078999999314,52.785078999999314,52.785078999999314,52.785078999999314,52.785078999999314,52.785078999999314,52.785078999999314,52.785078999999314,,004,P011,2025_Feb_08_1021,ConditionRich,2021.2.3,59.93550939186639,
19.75,20.0,41,0.0,Stimuli/Blank.png,0,0,0.0,0,32,32,32,,,,,,,,,,,,,19.749553399999968,-0.00044660000003204914,None,53.51865419999922,53.51865419999922,53.51865419999922,53.51865419999922,53.51865419999922,53.51865419999922,53.51865419999922,53.51865419999922,53.51865419999922,53.51865419999922,,004,P011,2025_Feb_08_1021,ConditionRich,2021.2.3,59.93550939186639,
20.0,20.75,7,0.75,Stimuli/P011/sun_arugqgwhwdjxezyt.jpg,0,0,0.0,0,33,33,33,,,,,,,,,,,,,19.999747699999716,-0.0002523000002838671,None,53.768881599999986,53.768881599999986,53.768881599999986,53.768881599999986,53.768881599999986,53.768881599999986,53.768881599999986,53.768881599999986,53.768881599999986,53.768881599999986,,004,P011,2025_Feb_08_1021,ConditionRich,2021.2.3,59.93550939186639,
20.75,21.0,41,0.0,Stimuli/Blank.png,0,0,0.0,0,34,34,34,,,,,,,,,,,,,20.750362199999472,0.00036219999947206816,None,54.5196178999995,54.5196178999995,54.5196178999995,54.5196178999995,54.5196178999995,54.5196178999995,54.5196178999995,54.5196178999995,54.5196178999995,54.5196178999995,,004,P011,2025_Feb_08_1021,ConditionRich,2021.2.3,59.93550939186639,
21.0,21.75,7,0.75,Stimuli/P011/sun_arugqgwhwdjxezyt.jpg,0,0,0.0,0,35,35,35,,,,,,,,,,,,,21.002505699999347,0.002505699999346689,None,54.786447899999985,54.786447899999985,54.786447899999985,54.786447899999985,54.786447899999985,54.786447899999985,54.786447899999985,54.786447899999985,54.786447899999985,54.786447899999985,,004,P011,2025_Feb_08_1021,ConditionRich,2021.2.3,59.93550939186639,
21.75,22.0,41,0.0,Stimuli/Blank.png,0,0,0.0,0,36,36,36,,,,,,,,,,,,,21.768886899999416,0.01888689999941562,None,55.55381849999958,55.55381849999958,55.55381849999958,55.55381849999958,55.55381849999958,55.55381849999958,55.55381849999958,55.55381849999958,55.55381849999958,55.55381849999958,,004,P011,2025_Feb_08_1021,ConditionRich,2021.2.3,59.93550939186639,
22.0,22.75,7,0.75,Stimuli/P011/sun_arugqgwhwdjxezyt.jpg,0,0,0.0,0,37,37,37,,,,,,,,,,,,,22.018157199999223,0.01815719999922294,None,55.78732739999941,55.78732739999941,55.78732739999941,55.78732739999941,55.78732739999941,55.78732739999941,55.78732739999941,55.78732739999941,55.78732739999941,55.78732739999941,,004,P011,2025_Feb_08_1021,ConditionRich,2021.2.3,59.93550939186639,
22.75,23.0,41,0.0,Stimuli/Blank.png,0,0,0.0,0,38,38,38,,,,,,,,,,,,,22.75376049999977,0.0037604999997711275,None,56.521336699999665,56.521336699999665,56.521336699999665,56.521336699999665,56.521336699999665,56.521336699999665,56.521336699999665,56.521336699999665,56.521336699999665,56.521336699999665,,004,P011,2025_Feb_08_1021,ConditionRich,2021.2.3,59.93550939186639,
23.0,23.75,7,0.75,Stimuli/P011/sun_arugqgwhwdjxezyt.jpg,0,0,0.0,0,39,39,39,,,,,,,,,,,,,23.003445199999987,0.0034451999999873806,None,56.78823269999975,56.78823269999975,56.78823269999975,56.78823269999975,56.78823269999975,56.78823269999975,56.78823269999975,56.78823269999975,56.78823269999975,56.78823269999975,,004,P011,2025_Feb_08_1021,ConditionRich,2021.2.3,59.93550939186639,
23.75,24.0,41,0.0,Stimuli/Blank.png,0,0,0.0,0,40,40,40,,,,,,,,,,,,,23.770455500000025,0.020455500000025495,None,57.53889149999941,57.53889149999941,57.53889149999941,57.53889149999941,57.53889149999941,57.53889149999941,57.53889149999941,57.53889149999941,57.53889149999941,57.53889149999941,,004,P011,2025_Feb_08_1021,ConditionRich,2021.2.3,59.93550939186639,
24.0,24.75,4,0.75,Stimuli/P011/sun_akpdzjejmtbfopdt.jpg,0,0,0.0,0,41,41,41,,,,,,,,,,,,,24.00420309999936,0.004203099999358528,None,57.77242549999937,57.77242549999937,57.77242549999937,57.77242549999937,57.77242549999937,57.77242549999937,57.77242549999937,57.77242549999937,57.77242549999937,57.77242549999937,,004,P011,2025_Feb_08_1021,ConditionRich,2021.2.3,59.93550939186639,
24.75,25.0,41,0.0,Stimuli/Blank.png,0,0,0.0,0,42,42,42,,,,,,,,,,,,,24.75388329999987,0.00388329999987036,None,58.5230890999992,58.5230890999992,58.5230890999992,58.5230890999992,58.5230890999992,58.5230890999992,58.5230890999992,58.5230890999992,58.5230890999992,58.5230890999992,,004,P011,2025_Feb_08_1021,ConditionRich,2021.2.3,59.93550939186639,
25.0,25.75,4,0.75,Stimuli/P011/sun_akpdzjejmtbfopdt.jpg,0,0,0.0,0,43,43,43,,,,,,,,,,,,,25.004837899999984,0.004837899999984074,None,58.79001249999965,58.79001249999965,58.79001249999965,58.79001249999965,58.79001249999965,58.79001249999965,58.79001249999965,58.79001249999965,58.79001249999965,58.79001249999965,,004,P011,2025_Feb_08_1021,ConditionRich,2021.2.3,59.93550939186639,
25.75,26.0,41,0.0,Stimuli/Blank.png,0,0,0.0,0,44,44,44,,,,,,,,,,,,,25.772285600000032,0.02228560000003199,None,59.54064909999943,59.54064909999943,59.54064909999943,59.54064909999943,59.54064909999943,59.54064909999943,59.54064909999943,59.54064909999943,59.54064909999943,59.54064909999943,,004,P011,2025_Feb_08_1021,ConditionRich,2021.2.3,59.93550939186639,
26.0,26.75,4,0.75,Stimuli/P011/sun_akpdzjejmtbfopdt.jpg,0,0,0.0,0,45,45,45,,,,,,,,,,,,,26.00500959999954,0.005009599999539205,None,59.77419119999922,59.77419119999922,59.77419119999922,59.77419119999922,59.77419119999922,59.77419119999922,59.77419119999922,59.77419119999922,59.77419119999922,59.77419119999922,,004,P011,2025_Feb_08_1021,ConditionRich,2021.2.3,59.93550939186639,
26.75,27.0,41,0.0,Stimuli/Blank.png,0,0,0.0,0,46,46,46,,,,,,,,,,,,,26.755879899999854,0.005879899999854388,None,60.52485559999968,60.52485559999968,60.52485559999968,60.52485559999968,60.52485559999968,60.52485559999968,60.52485559999968,60.52485559999968,60.52485559999968,60.52485559999968,,004,P011,2025_Feb_08_1021,ConditionRich,2021.2.3,59.93550939186639,
27.0,27.75,4,0.75,Stimuli/P011/sun_akpdzjejmtbfopdt.jpg,0,0,0.0,0,47,47,47,,,,,,,,,,,,,27.00801069999943,0.008010699999431381,None,60.79175369999939,60.79175369999939,60.79175369999939,60.79175369999939,60.79175369999939,60.79175369999939,60.79175369999939,60.79175369999939,60.79175369999939,60.79175369999939,,004,P011,2025_Feb_08_1021,ConditionRich,2021.2.3,59.93550939186639,
27.75,28.0,41,0.0,Stimuli/Blank.png,0,0,0.0,0,48,48,48,,,,,,,,,,,,,27.77411999999913,0.024119999999129504,None,61.54242609999983,61.54242609999983,61.54242609999983,61.54242609999983,61.54242609999983,61.54242609999983,61.54242609999983,61.54242609999983,61.54242609999983,61.54242609999983,,004,P011,2025_Feb_08_1021,ConditionRich,2021.2.3,59.93550939186639,
28.0,28.75,30,0.75,Stimuli/P011/things_hamburger_06s.jpg,0,0,0.0,0,49,49,49,,,,,,,,,,,,,28.007083599999532,0.007083599999532453,None,61.77596619999986,61.77596619999986,61.77596619999986,61.77596619999986,61.77596619999986,61.77596619999986,61.77596619999986,61.77596619999986,61.77596619999986,61.77596619999986,,004,P011,2025_Feb_08_1021,ConditionRich,2021.2.3,59.93550939186639,
28.75,29.0,41,0.0,Stimuli/Blank.png,0,0,0.0,0,50,50,50,,,,,,,,,,,,,28.75837589999992,0.008375899999919056,None,62.526625199999216,62.526625199999216,62.526625199999216,62.526625199999216,62.526625199999216,62.526625199999216,62.526625199999216,62.526625199999216,62.526625199999216,62.526625199999216,,004,P011,2025_Feb_08_1021,ConditionRich,2021.2.3,59.93550939186639,
29.0,29.75,30,0.75,Stimuli/P011/things_hamburger_06s.jpg,0,0,0.0,0,51,51,51,,,,,,,,,,,,,29.00830269999915,0.0083026999991489,None,62.7935465999999,62.7935465999999,62.7935465999999,62.7935465999999,62.7935465999999,62.7935465999999,62.7935465999999,62.7935465999999,62.7935465999999,62.7935465999999,,004,P011,2025_Feb_08_1021,ConditionRich,2021.2.3,59.93550939186639,
29.75,30.0,41,0.0,Stimuli/Blank.png,0,0,0.0,0,52,52,52,,,,,,,,,,,,,29.77544249999937,0.02544249999937165,None,63.54418759999953,63.54418759999953,63.54418759999953,63.54418759999953,63.54418759999953,63.54418759999953,63.54418759999953,63.54418759999953,63.54418759999953,63.54418759999953,,004,P011,2025_Feb_08_1021,ConditionRich,2021.2.3,59.93550939186639,
30.0,30.75,30,0.75,Stimuli/P011/things_hamburger_06s.jpg,0,0,0.0,0,53,53,53,,,,,,,,,,,,,30.00928379999914,0.009283799999138864,None,63.77773249999973,63.77773249999973,63.77773249999973,63.77773249999973,63.77773249999973,63.77773249999973,63.77773249999973,63.77773249999973,63.77773249999973,63.77773249999973,,004,P011,2025_Feb_08_1021,ConditionRich,2021.2.3,59.93550939186639,
30.75,31.0,41,0.0,Stimuli/Blank.png,0,0,0.0,0,54,54,54,,,,,,,,,,,,,30.760030199999164,0.010030199999164324,None,64.52839059999951,64.52839059999951,64.52839059999951,64.52839059999951,64.52839059999951,64.52839059999951,64.52839059999951,64.52839059999951,64.52839059999951,64.52839059999951,,004,P011,2025_Feb_08_1021,ConditionRich,2021.2.3,59.93550939186639,
31.0,31.75,30,0.75,Stimuli/P011/things_hamburger_06s.jpg,0,0,0.0,0,55,55,55,,,,,,,,,,,,,31.00953379999919,0.009533799999189796,None,64.77861699999994,64.77861699999994,64.77861699999994,64.77861699999994,64.77861699999994,64.77861699999994,64.77861699999994,64.77861699999994,64.77861699999994,64.77861699999994,,004,P011,2025_Feb_08_1021,ConditionRich,2021.2.3,59.93550939186639,
31.75,32.0,41,0.0,Stimuli/Blank.png,0,0,0.0,0,56,56,56,,,,,,,,,,,,,31.76301289999992,0.013012899999921501,None,65.5459852999993,65.5459852999993,65.5459852999993,65.5459852999993,65.5459852999993,65.5459852999993,65.5459852999993,65.5459852999993,65.5459852999993,65.5459852999993,,004,P011,2025_Feb_08_1021,ConditionRich,2021.2.3,59.93550939186639,
32.0,32.75,28,0.75,Stimuli/P011/things_grasshopper_06s.jpg,0,0,0.0,0,57,57,57,,,,,,,,,,,,,32.02767019999919,0.027670199999192846,None,65.81286719999935,65.81286719999935,65.81286719999935,65.81286719999935,65.81286719999935,65.81286719999935,65.81286719999935,65.81286719999935,65.81286719999935,65.81286719999935,,004,P011,2025_Feb_08_1021,ConditionRich,2021.2.3,59.93550939186639,
32.75,33.0,41,0.0,Stimuli/Blank.png,0,0,0.0,0,58,58,58,,,,,,,,,,,,,32.77875539999968,0.028755399999681686,None,66.54684399999951,66.54684399999951,66.54684399999951,66.54684399999951,66.54684399999951,66.54684399999951,66.54684399999951,66.54684399999951,66.54684399999951,66.54684399999951,,004,P011,2025_Feb_08_1021,ConditionRich,2021.2.3,59.93550939186639,
33.0,33.75,28,0.75,Stimuli/P011/things_grasshopper_06s.jpg,0,0,0.0,0,59,59,59,,,,,,,,,,,,,33.01199309999993,0.011993099999926926,None,66.79706469999928,66.79706469999928,66.79706469999928,66.79706469999928,66.79706469999928,66.79706469999928,66.79706469999928,66.79706469999928,66.79706469999928,66.79706469999928,,004,P011,2025_Feb_08_1021,ConditionRich,2021.2.3,59.93550939186639,
33.75,34.0,41,0.0,Stimuli/Blank.png,0,0,0.0,0,60,60,60,,,,,,,,,,,,,33.77853569999934,0.02853569999933825,None,67.54773109999951,67.54773109999951,67.54773109999951,67.54773109999951,67.54773109999951,67.54773109999951,67.54773109999951,67.54773109999951,67.54773109999951,67.54773109999951,,004,P011,2025_Feb_08_1021,ConditionRich,2021.2.3,59.93550939186639,
34.0,34.75,28,0.75,Stimuli/P011/things_grasshopper_06s.jpg,0,0,0.0,0,61,61,61,,,,,,,,,,,,,34.012637599999834,0.012637599999834492,None,67.78127379999933,67.78127379999933,67.78127379999933,67.78127379999933,67.78127379999933,67.78127379999933,67.78127379999933,67.78127379999933,67.78127379999933,67.78127379999933,,004,P011,2025_Feb_08_1021,ConditionRich,2021.2.3,59.93550939186639,
34.75,35.0,41,0.0,Stimuli/Blank.png,0,0,0.0,0,62,62,62,,,,,,,,,,,,,34.76287890000003,0.012878900000032445,None,68.5319415999993,68.5319415999993,68.5319415999993,68.5319415999993,68.5319415999993,68.5319415999993,68.5319415999993,68.5319415999993,68.5319415999993,68.5319415999993,,004,P011,2025_Feb_08_1021,ConditionRich,2021.2.3,59.93550939186639,
35.0,35.75,28,0.75,Stimuli/P011/things_grasshopper_06s.jpg,0,0,0.0,0,63,63,63,,,,,,,,,,,,,35.01300099999935,0.013000999999349006,None,68.7821598999999,68.7821598999999,68.7821598999999,68.7821598999999,68.7821598999999,68.7821598999999,68.7821598999999,68.7821598999999,68.7821598999999,68.7821598999999,,004,P011,2025_Feb_08_1021,ConditionRich,2021.2.3,59.93550939186639,
35.75,36.0,41,0.0,Stimuli/Blank.png,0,0,0.0,0,64,64,64,,,,,,,,,,,,,35.76384579999922,0.013845799999216979,None,69.53283359999932,69.53283359999932,69.53283359999932,69.53283359999932,69.53283359999932,69.53283359999932,69.53283359999932,69.53283359999932,69.53283359999932,69.53283359999932,,004,P011,2025_Feb_08_1021,ConditionRich,2021.2.3,59.93550939186639,
36.0,36.75,19,0.75,Stimuli/P011/sun_byvwakrdyukjigpc.jpg,0,0,0.0,0,65,65,65,,,,,,,,,,,,,36.01463519999925,0.014635199999247561,None,69.7997379999997,69.7997379999997,69.7997379999997,69.7997379999997,69.7997379999997,69.7997379999997,69.7997379999997,69.7997379999997,69.7997379999997,69.7997379999997,,004,P011,2025_Feb_08_1021,ConditionRich,2021.2.3,59.93550939186639,
36.75,37.0,41,0.0,Stimuli/Blank.png,0,0,0.0,0,66,66,66,,,,,,,,,,,,,36.78425319999951,0.03425319999951171,None,70.56708329999947,70.56708329999947,70.56708329999947,70.56708329999947,70.56708329999947,70.56708329999947,70.56708329999947,70.56708329999947,70.56708329999947,70.56708329999947,,004,P011,2025_Feb_08_1021,ConditionRich,2021.2.3,59.93550939186639,
37.0,37.75,19,0.75,Stimuli/P011/sun_byvwakrdyukjigpc.jpg,1,0,0.75,0,67,67,67,,,,,,,,,,,,,37.015547799999695,0.01554779999969469,1,70.80060460000004,70.80060460000004,70.80060460000004,70.80060460000004,70.80060460000004,70.80060460000004,70.80060460000004,71.51794639999935,70.80060460000004,70.80060460000004,0.4372226999994382,004,P011,2025_Feb_08_1021,ConditionRich,2021.2.3,59.93550939186639,
37.75,38.0,41,0.0,Stimuli/Blank.png,0,0,0.0,0,68,68,68,,,,,,,,,,,,,37.76787609999974,0.01787609999973938,None,71.55128169999989,71.55128169999989,71.55128169999989,71.55128169999989,71.55128169999989,71.55128169999989,71.55128169999989,71.55128169999989,71.55128169999989,71.55128169999989,,004,P011,2025_Feb_08_1021,ConditionRich,2021.2.3,59.93550939186639,
38.0,38.75,19,0.75,Stimuli/P011/sun_byvwakrdyukjigpc.jpg,0,0,0.0,0,69,69,69,,,,,,,,,,,,,38.01778359999935,0.017783599999347643,None,71.80150460000004,71.80150460000004,71.80150460000004,71.80150460000004,71.80150460000004,71.80150460000004,71.80150460000004,71.80150460000004,71.80150460000004,71.80150460000004,,004,P011,2025_Feb_08_1021,ConditionRich,2021.2.3,59.93550939186639,
38.75,39.0,41,0.0,Stimuli/Blank.png,0,0,0.0,0,70,70,70,,,,,,,,,,,,,38.76899449999928,0.01899449999928038,None,72.55216669999936,72.55216669999936,72.55216669999936,72.55216669999936,72.55216669999936,72.55216669999936,72.55216669999936,72.55216669999936,72.55216669999936,72.55216669999936,,004,P011,2025_Feb_08_1021,ConditionRich,2021.2.3,59.93550939186639,
39.0,39.75,19,0.75,Stimuli/P011/sun_byvwakrdyukjigpc.jpg,0,0,0.0,0,71,71,71,,,,,,,,,,,,,39.017212599999766,0.0172125999997661,None,72.80237849999958,72.80237849999958,72.80237849999958,72.80237849999958,72.80237849999958,72.80237849999958,72.80237849999958,72.80237849999958,72.80237849999958,72.80237849999958,,004,P011,2025_Feb_08_1021,ConditionRich,2021.2.3,59.93550939186639,
39.75,40.0,41,0.0,Stimuli/Blank.png,0,0,0.0,0,72,72,72,,,,,,,,,,,,,39.76806449999913,0.018064499999127293,None,73.53636229999938,73.53636229999938,73.53636229999938,73.53636229999938,73.53636229999938,73.53636229999938,73.53636229999938,73.53636229999938,73.53636229999938,73.53636229999938,,004,P011,2025_Feb_08_1021,ConditionRich,2021.2.3,59.93550939186639,
40.0,40.75,35,0.75,Stimuli/P011/things_raccoon_06n.jpg,0,0,0.0,0,73,73,73,,,,,,,,,,,,,40.001596599999175,0.0015965999991749413,None,73.78657609999937,73.78657609999937,73.78657609999937,73.78657609999937,73.78657609999937,73.78657609999937,73.78657609999937,73.78657609999937,73.78657609999937,73.78657609999937,,004,P011,2025_Feb_08_1021,ConditionRich,2021.2.3,59.93550939186639,
40.75,41.0,41,0.0,Stimuli/Blank.png,0,0,0.0,0,74,74,74,,,,,,,,,,,,,40.7691176999997,0.019117699999696924,None,74.53724359999978,74.53724359999978,74.53724359999978,74.53724359999978,74.53724359999978,74.53724359999978,74.53724359999978,74.53724359999978,74.53724359999978,74.53724359999978,,004,P011,2025_Feb_08_1021,ConditionRich,2021.2.3,59.93550939186639,
41.0,41.75,35,0.75,Stimuli/P011/things_raccoon_06n.jpg,0,0,0.0,0,75,75,75,,,,,,,,,,,,,41.00228759999936,0.0022875999993630103,None,74.78745789999994,74.78745789999994,74.78745789999994,74.78745789999994,74.78745789999994,74.78745789999994,74.78745789999994,74.78745789999994,74.78745789999994,74.78745789999994,,004,P011,2025_Feb_08_1021,ConditionRich,2021.2.3,59.93550939186639,
41.75,42.0,41,0.0,Stimuli/Blank.png,0,0,0.0,0,76,76,76,,,,,,,,,,,,,41.76901799999996,0.01901799999996001,None,75.53813199999968,75.53813199999968,75.53813199999968,75.53813199999968,75.53813199999968,75.53813199999968,75.53813199999968,75.53813199999968,75.53813199999968,75.53813199999968,,004,P011,2025_Feb_08_1021,ConditionRich,2021.2.3,59.93550939186639,
42.0,42.75,35,0.75,Stimuli/P011/things_raccoon_06n.jpg,0,0,0.0,0,77,77,77,,,,,,,,,,,,,42.00273919999927,0.002739199999268749,None,75.77167179999924,75.77167179999924,75.77167179999924,75.77167179999924,75.77167179999924,75.77167179999924,75.77167179999924,75.77167179999924,75.77167179999924,75.77167179999924,,004,P011,2025_Feb_08_1021,ConditionRich,2021.2.3,59.93550939186639,
42.75,43.0,41,0.0,Stimuli/Blank.png,0,0,0.0,0,78,78,78,,,,,,,,,,,,,42.75418399999944,0.004183999999440857,None,76.52235209999981,76.52235209999981,76.52235209999981,76.52235209999981,76.52235209999981,76.52235209999981,76.52235209999981,76.52235209999981,76.52235209999981,76.52235209999981,,004,P011,2025_Feb_08_1021,ConditionRich,2021.2.3,59.93550939186639,
43.0,43.75,35,0.75,Stimuli/P011/things_raccoon_06n.jpg,0,0,0.0,0,79,79,79,,,,,,,,,,,,,43.00430519999918,0.004305199999180331,None,76.77255649999915,76.77255649999915,76.77255649999915,76.77255649999915,76.77255649999915,76.77255649999915,76.77255649999915,76.77255649999915,76.77255649999915,76.77255649999915,,004,P011,2025_Feb_08_1021,ConditionRich,2021.2.3,59.93550939186639,
43.75,44.0,41,0.0,Stimuli/Blank.png,0,0,0.0,0,80,80,80,,,,,,,,,,,,,43.75480229999994,0.0048022999999375315,None,77.52323230000002,77.52323230000002,77.52323230000002,77.52323230000002,77.52323230000002,77.52323230000002,77.52323230000002,77.52323230000002,77.52323230000002,77.52323230000002,,004,P011,2025_Feb_08_1021,ConditionRich,2021.2.3,59.93550939186639,
44.0,44.75,5,0.75,Stimuli/P011/sun_anfwllcezhlypoti.jpg,0,0,0.0,0,81,81,81,,,,,,,,,,,,,44.00499619999937,0.0049961999993684,None,77.79013639999994,77.79013639999994,77.79013639999994,77.79013639999994,77.79013639999994,77.79013639999994,77.79013639999994,77.79013639999994,77.79013639999994,77.79013639999994,,004,P011,2025_Feb_08_1021,ConditionRich,2021.2.3,59.93550939186639,
44.75,45.0,41,0.0,Stimuli/Blank.png,0,0,0.0,0,82,82,82,,,,,,,,,,,,,44.773093199999494,0.023093199999493663,None,78.54081159999987,78.54081159999987,78.54081159999987,78.54081159999987,78.54081159999987,78.54081159999987,78.54081159999987,78.54081159999987,78.54081159999987,78.54081159999987,,004,P011,2025_Feb_08_1021,ConditionRich,2021.2.3,59.93550939186639,
45.0,45.75,5,0.75,Stimuli/P011/sun_anfwllcezhlypoti.jpg,0,0,0.0,0,83,83,83,,,,,,,,,,,,,45.00585089999913,0.005850899999131798,None,78.79101119999996,78.79101119999996,78.79101119999996,78.79101119999996,78.79101119999996,78.79101119999996,78.79101119999996,78.79101119999996,78.79101119999996,78.79101119999996,,004,P011,2025_Feb_08_1021,ConditionRich,2021.2.3,59.93550939186639,
45.75,46.0,41,0.0,Stimuli/Blank.png,0,0,0.0,0,84,84,84,,,,,,,,,,,,,45.773649199999454,0.02364919999945414,None,79.55838279999989,79.55838279999989,79.55838279999989,79.55838279999989,79.55838279999989,79.55838279999989,79.55838279999989,79.55838279999989,79.55838279999989,79.55838279999989,,004,P011,2025_Feb_08_1021,ConditionRich,2021.2.3,59.93550939186639,
46.0,46.75,5,0.75,Stimuli/P011/sun_anfwllcezhlypoti.jpg,1,0,0.75,0,85,85,85,,,,,,,,,,,,,46.022747199999685,0.022747199999685108,1,79.79189719999977,79.79189719999977,79.79189719999977,79.79189719999977,79.79189719999977,79.79189719999977,79.79189719999977,None,79.79189719999977,79.79189719999977,0.42688360000011016,004,P011,2025_Feb_08_1021,ConditionRich,2021.2.3,59.93550939186639,
46.75,47.0,41,0.0,Stimuli/Blank.png,0,0,0.0,0,86,86,86,,,,,,,,,,,,,46.75831359999938,0.008313599999382859,None,80.52588749999995,80.52588749999995,80.52588749999995,80.52588749999995,80.52588749999995,80.52588749999995,80.52588749999995,80.52588749999995,80.52588749999995,80.52588749999995,,004,P011,2025_Feb_08_1021,ConditionRich,2021.2.3,59.93550939186639,
47.0,47.75,5,0.75,Stimuli/P011/sun_anfwllcezhlypoti.jpg,0,0,0.0,0,87,87,87,,,,,,,,,,,,,47.00690919999943,0.006909199999427074,None,80.77610219999951,80.77610219999951,80.77610219999951,80.77610219999951,80.77610219999951,80.77610219999951,80.77610219999951,80.77610219999951,80.77610219999951,80.77610219999951,,004,P011,2025_Feb_08_1021,ConditionRich,2021.2.3,59.93550939186639,
47.75,48.0,41,0.0,Stimuli/Blank.png,0,0,0.0,0,88,88,88,,,,,,,,,,,,,47.75853129999996,0.008531299999958719,None,81.52677519999997,81.52677519999997,81.52677519999997,81.52677519999997,81.52677519999997,81.52677519999997,81.52677519999997,81.52677519999997,81.52677519999997,81.52677519999997,,004,P011,2025_Feb_08_1021,ConditionRich,2021.2.3,59.93550939186639,
48.0,48.75,24,0.75,Stimuli/P011/things_doily_06s.jpg,0,0,0.0,0,89,89,89,,,,,,,,,,,,,48.00818479999998,0.008184799999980896,None,81.77698699999928,81.77698699999928,81.77698699999928,81.77698699999928,81.77698699999928,81.77698699999928,81.77698699999928,81.77698699999928,81.77698699999928,81.77698699999928,,004,P011,2025_Feb_08_1021,ConditionRich,2021.2.3,59.93550939186639,
48.75,49.0,41,0.0,Stimuli/Blank.png,0,0,0.0,0,90,90,90,,,,,,,,,,,,,48.75848179999957,0.008481799999572104,None,82.5276600999996,82.5276600999996,82.5276600999996,82.5276600999996,82.5276600999996,82.5276600999996,82.5276600999996,82.5276600999996,82.5276600999996,82.5276600999996,,004,P011,2025_Feb_08_1021,ConditionRich,2021.2.3,59.93550939186639,
49.0,49.75,24,0.75,Stimuli/P011/things_doily_06s.jpg,0,0,0.0,0,91,91,91,,,,,,,,,,,,,49.00881140000001,0.008811400000013236,None,82.77787099999932,82.77787099999932,82.77787099999932,82.77787099999932,82.77787099999932,82.77787099999932,82.77787099999932,82.77787099999932,82.77787099999932,82.77787099999932,,004,P011,2025_Feb_08_1021,ConditionRich,2021.2.3,59.93550939186639,
49.75,50.0,41,0.0,Stimuli/Blank.png,0,0,0.0,0,92,92,92,,,,,,,,,,,,,49.75961669999924,0.009616699999241973,None,83.52853629999936,83.52853629999936,83.52853629999936,83.52853629999936,83.52853629999936,83.52853629999936,83.52853629999936,83.52853629999936,83.52853629999936,83.52853629999936,,004,P011,2025_Feb_08_1021,ConditionRich,2021.2.3,59.93550939186639,
50.0,50.75,24,0.75,Stimuli/P011/things_doily_06s.jpg,0,0,0.0,0,93,93,93,,,,,,,,,,,,,50.009696999999505,0.009696999999505351,None,83.79544779999924,83.79544779999924,83.79544779999924,83.79544779999924,83.79544779999924,83.79544779999924,83.79544779999924,83.79544779999924,83.79544779999924,83.79544779999924,,004,P011,2025_Feb_08_1021,ConditionRich,2021.2.3,59.93550939186639,
50.75,51.0,41,0.0,Stimuli/Blank.png,0,0,0.0,0,94,94,94,,,,,,,,,,,,,50.77697829999943,0.02697829999942769,None,84.54610109999976,84.54610109999976,84.54610109999976,84.54610109999976,84.54610109999976,84.54610109999976,84.54610109999976,84.54610109999976,84.54610109999976,84.54610109999976,,004,P011,2025_Feb_08_1021,ConditionRich,2021.2.3,59.93550939186639,
51.0,51.75,24,0.75,Stimuli/P011/things_doily_06s.jpg,0,0,0.0,0,95,95,95,,,,,,,,,,,,,51.01281199999994,0.012811999999939871,None,84.79632469999979,84.79632469999979,84.79632469999979,84.79632469999979,84.79632469999979,84.79632469999979,84.79632469999979,84.79632469999979,84.79632469999979,84.79632469999979,,004,P011,2025_Feb_08_1021,ConditionRich,2021.2.3,59.93550939186639,
51.75,52.0,41,0.0,Stimuli/Blank.png,0,0,0.0,0,96,96,96,,,,,,,,,,,,,51.7784045999997,0.02840459999970335,None,85.54700319999938,85.54700319999938,85.54700319999938,85.54700319999938,85.54700319999938,85.54700319999938,85.54700319999938,85.54700319999938,85.54700319999938,85.54700319999938,,004,P011,2025_Feb_08_1021,ConditionRich,2021.2.3,59.93550939186639,
52.0,52.75,17,0.75,Stimuli/P011/sun_btvwhlxbhcqnqzok.jpg,0,0,0.0,0,97,97,97,,,,,,,,,,,,,52.01343029999953,0.013430299999527051,None,85.79720999999972,85.79720999999972,85.79720999999972,85.79720999999972,85.79720999999972,85.79720999999972,85.79720999999972,85.79720999999972,85.79720999999972,85.79720999999972,,004,P011,2025_Feb_08_1021,ConditionRich,2021.2.3,59.93550939186639,
52.75,53.0,41,0.0,Stimuli/Blank.png,0,0,0.0,0,98,98,98,,,,,,,,,,,,,52.77990729999965,0.029907299999649695,None,86.54788269999972,86.54788269999972,86.54788269999972,86.54788269999972,86.54788269999972,86.54788269999972,86.54788269999972,86.54788269999972,86.54788269999972,86.54788269999972,,004,P011,2025_Feb_08_1021,ConditionRich,2021.2.3,59.93550939186639,
53.0,53.75,17,0.75,Stimuli/P011/sun_btvwhlxbhcqnqzok.jpg,0,0,0.0,0,99,99,99,,,,,,,,,,,,,53.01353769999969,0.013537699999687902,None,86.79809589999968,86.79809589999968,86.79809589999968,86.79809589999968,86.79809589999968,86.79809589999968,86.79809589999968,86.79809589999968,86.79809589999968,86.79809589999968,,004,P011,2025_Feb_08_1021,ConditionRich,2021.2.3,59.93550939186639,
53.75,54.0,41,0.0,Stimuli/Blank.png,0,0,0.0,0,100,100,100,,,,,,,,,,,,,53.7796658999996,0.029665899999599787,None,87.54876239999976,87.54876239999976,87.54876239999976,87.54876239999976,87.54876239999976,87.54876239999976,87.54876239999976,87.54876239999976,87.54876239999976,87.54876239999976,,004,P011,2025_Feb_08_1021,ConditionRich,2021.2.3,59.93550939186639,
54.0,54.75,17,0.75,Stimuli/P011/sun_btvwhlxbhcqnqzok.jpg,0,0,0.0,0,101,101,101,,,,,,,,,,,,,54.01352109999971,0.013521099999707076,None,87.7990190999999,87.7990190999999,87.7990190999999,87.7990190999999,87.7990190999999,87.7990190999999,87.7990190999999,87.7990190999999,87.7990190999999,87.7990190999999,,004,P011,2025_Feb_08_1021,ConditionRich,2021.2.3,59.93550939186639,
54.75,55.0,41,0.0,Stimuli/Blank.png,0,0,0.0,0,102,102,102,,,,,,,,,,,,,54.783102399999734,0.03310239999973419,None,88.56632509999963,88.56632509999963,88.56632509999963,88.56632509999963,88.56632509999963,88.56632509999963,88.56632509999963,88.56632509999963,88.56632509999963,88.56632509999963,,004,P011,2025_Feb_08_1021,ConditionRich,2021.2.3,59.93550939186639,
55.0,55.75,17,0.75,Stimuli/P011/sun_btvwhlxbhcqnqzok.jpg,0,0,0.0,0,103,103,103,,,,,,,,,,,,,55.01456629999939,0.014566299999387411,None,88.78318059999947,88.78318059999947,88.78318059999947,88.78318059999947,88.78318059999947,88.78318059999947,88.78318059999947,88.78318059999947,88.78318059999947,88.78318059999947,,004,P011,2025_Feb_08_1021,ConditionRich,2021.2.3,59.93550939186639,
55.75,56.0,41,0.0,Stimuli/Blank.png,0,0,0.0,0,104,104,104,,,,,,,,,,,,,55.76609169999938,0.01609169999937876,None,89.5338587999995,89.5338587999995,89.5338587999995,89.5338587999995,89.5338587999995,89.5338587999995,89.5338587999995,89.5338587999995,89.5338587999995,89.5338587999995,,004,P011,2025_Feb_08_1021,ConditionRich,2021.2.3,59.93550939186639,
56.0,56.75,8,0.75,Stimuli/P011/sun_asppejhsplpizvag.jpg,0,0,0.0,0,105,105,105,,,,,,,,,,,,,55.998325999999906,-0.0016740000000936561,None,89.76734869999927,89.76734869999927,89.76734869999927,89.76734869999927,89.76734869999927,89.76734869999927,89.76734869999927,89.76734869999927,89.76734869999927,89.76734869999927,,004,P011,2025_Feb_08_1021,ConditionRich,2021.2.3,59.93550939186639,
56.75,57.0,41,0.0,Stimuli/Blank.png,0,0,0.0,0,106,106,106,,,,,,,,,,,,,56.74890779999987,-0.0010922000001301058,None,90.51805019999938,90.51805019999938,90.51805019999938,90.51805019999938,90.51805019999938,90.51805019999938,90.51805019999938,90.51805019999938,90.51805019999938,90.51805019999938,,004,P011,2025_Feb_08_1021,ConditionRich,2021.2.3,59.93550939186639,
57.0,57.75,8,0.75,Stimuli/P011/sun_asppejhsplpizvag.jpg,0,0,0.0,0,107,107,107,,,,,,,,,,,,,56.999108899999555,-0.0008911000004445668,None,90.76826609999989,90.76826609999989,90.76826609999989,90.76826609999989,90.76826609999989,90.76826609999989,90.76826609999989,90.76826609999989,90.76826609999989,90.76826609999989,,004,P011,2025_Feb_08_1021,ConditionRich,2021.2.3,59.93550939186639,
57.75,58.0,41,0.0,Stimuli/Blank.png,0,0,0.0,0,108,108,108,,,,,,,,,,,,,57.74987139999939,-0.00012860000060754828,None,91.51893349999955,91.51893349999955,91.51893349999955,91.51893349999955,91.51893349999955,91.51893349999955,91.51893349999955,91.51893349999955,91.51893349999955,91.51893349999955,,004,P011,2025_Feb_08_1021,ConditionRich,2021.2.3,59.93550939186639,
58.0,58.75,8,0.75,Stimuli/P011/sun_asppejhsplpizvag.jpg,1,0,0.75,0,109,109,109,,,,,,,,,,,,,57.999965499999234,-3.4500000765547156e-05,1,91.78585919999932,91.78585919999932,91.78585919999932,91.78585919999932,91.78585919999932,91.78585919999932,91.78585919999932,92.50317389999964,91.78585919999932,91.78585919999932,0.42403640000065934,004,P011,2025_Feb_08_1021,ConditionRich,2021.2.3,59.93550939186639,
58.75,59.0,41,0.0,Stimuli/Blank.png,0,0,0.0,0,110,110,110,,,,,,,,,,,,,58.76850299999933,0.018502999999327585,None,92.53651009999976,92.53651009999976,92.53651009999976,92.53651009999976,92.53651009999976,92.53651009999976,92.53651009999976,92.53651009999976,92.53651009999976,92.53651009999976,,004,P011,2025_Feb_08_1021,ConditionRich,2021.2.3,59.93550939186639,
59.0,59.75,8,0.75,Stimuli/P011/sun_asppejhsplpizvag.jpg,0,0,0.0,0,111,111,111,,,,,,,,,,,,,59.00289459999931,0.0028945999993084115,None,92.78672119999919,92.78672119999919,92.78672119999919,92.78672119999919,92.78672119999919,92.78672119999919,92.78672119999919,92.78672119999919,92.78672119999919,92.78672119999919,,004,P011,2025_Feb_08_1021,ConditionRich,2021.2.3,59.93550939186639,
59.75,60.0,41,0.0,Stimuli/Blank.png,0,0,0.0,0,112,112,112,,,,,,,,,,,,,59.768458599999576,0.01845859999957611,None,93.53738229999999,93.53738229999999,93.53738229999999,93.53738229999999,93.53738229999999,93.53738229999999,93.53738229999999,93.53738229999999,93.53738229999999,93.53738229999999,,004,P011,2025_Feb_08_1021,ConditionRich,2021.2.3,59.93550939186639,
60.0,60.75,22,0.75,Stimuli/P011/things_boy_06s.jpg,0,0,0.0,0,113,113,113,,,,,,,,,,,,,60.00181199999952,0.001811999999517866,None,93.77092439999979,93.77092439999979,93.77092439999979,93.77092439999979,93.77092439999979,93.77092439999979,93.77092439999979,93.77092439999979,93.77092439999979,93.77092439999979,,004,P011,2025_Feb_08_1021,ConditionRich,2021.2.3,59.93550939186639,
60.75,61.0,41,0.0,Stimuli/Blank.png,0,0,0.0,0,114,114,114,,,,,,,,,,,,,60.75307609999982,0.003076099999816506,None,94.5215877999999,94.5215877999999,94.5215877999999,94.5215877999999,94.5215877999999,94.5215877999999,94.5215877999999,94.5215877999999,94.5215877999999,94.5215877999999,,004,P011,2025_Feb_08_1021,ConditionRich,2021.2.3,59.93550939186639,
61.0,61.75,22,0.75,Stimuli/P011/things_boy_06s.jpg,0,0,0.0,0,115,115,115,,,,,,,,,,,,,61.003778399999646,0.0037783999996463535,None,94.78846319999957,94.78846319999957,94.78846319999957,94.78846319999957,94.78846319999957,94.78846319999957,94.78846319999957,94.78846319999957,94.78846319999957,94.78846319999957,,004,P011,2025_Feb_08_1021,ConditionRich,2021.2.3,59.93550939186639,
61.75,62.0,41,0.0,Stimuli/Blank.png,0,0,0.0,0,116,116,116,,,,,,,,,,,,,61.769919200000004,0.01991920000000391,None,95.53915609999967,95.53915609999967,95.53915609999967,95.53915609999967,95.53915609999967,95.53915609999967,95.53915609999967,95.53915609999967,95.53915609999967,95.53915609999967,,004,P011,2025_Feb_08_1021,ConditionRich,2021.2.3,59.93550939186639,
62.0,62.75,22,0.75,Stimuli/P011/things_boy_06s.jpg,0,0,0.0,0,117,117,117,,,,,,,,,,,,,62.003465399999186,0.0034653999991860474,None,95.77269269999942,95.77269269999942,95.77269269999942,95.77269269999942,95.77269269999942,95.77269269999942,95.77269269999942,95.77269269999942,95.77269269999942,95.77269269999942,,004,P011,2025_Feb_08_1021,ConditionRich,2021.2.3,59.93550939186639,
62.75,63.0,41,0.0,Stimuli/Blank.png,0,0,0.0,0,118,118,118,,,,,,,,,,,,,62.75514849999945,0.005148499999449996,None,96.54006299999946,96.54006299999946,96.54006299999946,96.54006299999946,96.54006299999946,96.54006299999946,96.54006299999946,96.54006299999946,96.54006299999946,96.54006299999946,,004,P011,2025_Feb_08_1021,ConditionRich,2021.2.3,59.93550939186639,
63.0,63.75,22,0.75,Stimuli/P011/things_boy_06s.jpg,0,0,0.0,0,119,119,119,,,,,,,,,,,,,63.022963999999774,0.022963999999774387,None,96.80696329999955,96.80696329999955,96.80696329999955,96.80696329999955,96.80696329999955,96.80696329999955,96.80696329999955,96.80696329999955,96.80696329999955,96.80696329999955,,004,P011,2025_Feb_08_1021,ConditionRich,2021.2.3,59.93550939186639,
63.75,64.0,41,0.0,Stimuli/Blank.png,0,0,0.0,0,120,120,120,,,,,,,,,,,,,63.771704199999476,0.02170419999947626,None,97.5409211999995,97.5409211999995,97.5409211999995,97.5409211999995,97.5409211999995,97.5409211999995,97.5409211999995,97.5409211999995,97.5409211999995,97.5409211999995,,004,P011,2025_Feb_08_1021,ConditionRich,2021.2.3,59.93550939186639,
64.0,64.75,6,0.75,Stimuli/P011/sun_aqysdudvyxnkcxgq.jpg,0,0,0.0,0,121,121,121,,,,,,,,,,,,,64.00564549999945,0.005645499999445747,None,97.79115879999972,97.79115879999972,97.79115879999972,97.79115879999972,97.79115879999972,97.79115879999972,97.79115879999972,97.79115879999972,97.79115879999972,97.79115879999972,,004,P011,2025_Feb_08_1021,ConditionRich,2021.2.3,59.93550939186639,
64.75,65.0,41,0.0,Stimuli/Blank.png,0,0,0.0,0,122,122,122,,,,,,,,,,,,,64.77340959999947,0.0234095999994679,None,98.54182469999978,98.54182469999978,98.54182469999978,98.54182469999978,98.54182469999978,98.54182469999978,98.54182469999978,98.54182469999978,98.54182469999978,98.54182469999978,,004,P011,2025_Feb_08_1021,ConditionRich,2021.2.3,59.93550939186639,
65.0,65.75,6,0.75,Stimuli/P011/sun_aqysdudvyxnkcxgq.jpg,0,0,0.0,0,123,123,123,,,,,,,,,,,,,65.00839589999941,0.008395899999413814,None,98.79204069999923,98.79204069999923,98.79204069999923,98.79204069999923,98.79204069999923,98.79204069999923,98.79204069999923,98.79204069999923,98.79204069999923,98.79204069999923,,004,P011,2025_Feb_08_1021,ConditionRich,2021.2.3,59.93550939186639,
65.75,66.0,41,0.0,Stimuli/Blank.png,0,0,0.0,0,124,124,124,,,,,,,,,,,,,65.77371549999953,0.02371549999952549,None,99.54271599999993,99.54271599999993,99.54271599999993,99.54271599999993,99.54271599999993,99.54271599999993,99.54271599999993,99.54271599999993,99.54271599999993,99.54271599999993,,004,P011,2025_Feb_08_1021,ConditionRich,2021.2.3,59.93550939186639,
66.0,66.75,6,0.75,Stimuli/P011/sun_aqysdudvyxnkcxgq.jpg,0,0,0.0,0,125,125,125,,,,,,,,,,,,,66.00707349999993,0.007073499999933119,None,99.77624039999955,99.77624039999955,99.77624039999955,99.77624039999955,99.77624039999955,99.77624039999955,99.77624039999955,99.77624039999955,99.77624039999955,99.77624039999955,,004,P011,2025_Feb_08_1021,ConditionRich,2021.2.3,59.93550939186639,
66.75,67.0,41,0.0,Stimuli/Blank.png,0,0,0.0,0,126,126,126,,,,,,,,,,,,,66.75838379999914,0.008383799999137409,None,100.52690970000003,100.52690970000003,100.52690970000003,100.52690970000003,100.52690970000003,100.52690970000003,100.52690970000003,100.52690970000003,100.52690970000003,100.52690970000003,,004,P011,2025_Feb_08_1021,ConditionRich,2021.2.3,59.93550939186639,
67.0,67.75,6,0.75,Stimuli/P011/sun_aqysdudvyxnkcxgq.jpg,0,0,0.0,0,127,127,127,,,,,,,,,,,,,67.00818249999975,0.00818249999974796,None,100.77711849999923,100.77711849999923,100.77711849999923,100.77711849999923,100.77711849999923,100.77711849999923,100.77711849999923,100.77711849999923,100.77711849999923,100.77711849999923,,004,P011,2025_Feb_08_1021,ConditionRich,2021.2.3,59.93550939186639,
67.75,68.0,41,0.0,Stimuli/Blank.png,0,0,0.0,0,128,128,128,,,,,,,,,,,,,67.75858099999914,0.008580999999139749,None,101.52775429999929,101.52775429999929,101.52775429999929,101.52775429999929,101.52775429999929,101.52775429999929,101.52775429999929,101.52775429999929,101.52775429999929,101.52775429999929,,004,P011,2025_Feb_08_1021,ConditionRich,2021.2.3,59.93550939186639,
68.0,68.75,34,0.75,Stimuli/P011/things_polar_bear_06s.jpg,0,0,0.0,0,129,129,129,,,,,,,,,,,,,68.00980639999943,0.00980639999943378,None,101.77799939999932,101.77799939999932,101.77799939999932,101.77799939999932,101.77799939999932,101.77799939999932,101.77799939999932,101.77799939999932,101.77799939999932,101.77799939999932,,004,P011,2025_Feb_08_1021,ConditionRich,2021.2.3,59.93550939186639,
68.75,69.0,41,0.0,Stimuli/Blank.png,0,0,0.0,0,130,130,130,,,,,,,,,,,,,68.7595838999996,0.009583899999597634,None,102.52867759999936,102.52867759999936,102.52867759999936,102.52867759999936,102.52867759999936,102.52867759999936,102.52867759999936,102.52867759999936,102.52867759999936,102.52867759999936,,004,P011,2025_Feb_08_1021,ConditionRich,2021.2.3,59.93550939186639,
69.0,69.75,34,0.75,Stimuli/P011/things_polar_bear_06s.jpg,0,0,0.0,0,131,131,131,,,,,,,,,,,,,69.00962779999918,0.009627799999179842,None,102.77888959999927,102.77888959999927,102.77888959999927,102.77888959999927,102.77888959999927,102.77888959999927,102.77888959999927,102.77888959999927,102.77888959999927,102.77888959999927,,004,P011,2025_Feb_08_1021,ConditionRich,2021.2.3,59.93550939186639,
69.75,70.0,41,0.0,Stimuli/Blank.png,0,0,0.0,0,132,132,132,,,,,,,,,,,,,69.76292749999993,0.012927499999932479,None,103.54624279999916,103.54624279999916,103.54624279999916,103.54624279999916,103.54624279999916,103.54624279999916,103.54624279999916,103.54624279999916,103.54624279999916,103.54624279999916,,004,P011,2025_Feb_08_1021,ConditionRich,2021.2.3,59.93550939186639,
70.0,70.75,34,0.75,Stimuli/P011/things_polar_bear_06s.jpg,0,0,0.0,0,133,133,133,,,,,,,,,,,,,70.02728829999978,0.027288299999781884,None,103.79646460000004,103.79646460000004,103.79646460000004,103.79646460000004,103.79646460000004,103.79646460000004,103.79646460000004,103.79646460000004,103.79646460000004,103.79646460000004,,004,P011,2025_Feb_08_1021,ConditionRich,2021.2.3,59.93550939186639,
70.75,71.0,41,0.0,Stimuli/Blank.png,0,0,0.0,0,134,134,134,,,,,,,,,,,,,70.76392359999954,0.013923599999543512,None,104.53044409999984,104.53044409999984,104.53044409999984,104.53044409999984,104.53044409999984,104.53044409999984,104.53044409999984,104.53044409999984,104.53044409999984,104.53044409999984,,004,P011,2025_Feb_08_1021,ConditionRich,2021.2.3,59.93550939186639,
71.0,71.75,34,0.75,Stimuli/P011/things_polar_bear_06s.jpg,0,0,0.0,0,135,135,135,,,,,,,,,,,,,71.0122008999997,0.012200899999697867,None,104.79733849999957,104.79733849999957,104.79733849999957,104.79733849999957,104.79733849999957,104.79733849999957,104.79733849999957,104.79733849999957,104.79733849999957,104.79733849999957,,004,P011,2025_Feb_08_1021,ConditionRich,2021.2.3,59.93550939186639,
71.75,72.0,41,0.0,Stimuli/Blank.png,0,0,0.0,0,136,136,136,,,,,,,,,,,,,71.77895229999922,0.028952299999218667,None,105.54801379999935,105.54801379999935,105.54801379999935,105.54801379999935,105.54801379999935,105.54801379999935,105.54801379999935,105.54801379999935,105.54801379999935,105.54801379999935,,004,P011,2025_Feb_08_1021,ConditionRich,2021.2.3,59.93550939186639,
72.0,72.75,25,0.75,Stimuli/P011/things_face_06s.jpg,0,0,0.0,0,137,137,137,,,,,,,,,,,,,72.01310209999974,0.013102099999741768,None,105.78155049999987,105.78155049999987,105.78155049999987,105.78155049999987,105.78155049999987,105.78155049999987,105.78155049999987,105.78155049999987,105.78155049999987,105.78155049999987,,004,P011,2025_Feb_08_1021,ConditionRich,2021.2.3,59.93550939186639,
72.75,73.0,41,0.0,Stimuli/Blank.png,0,0,0.0,0,138,138,138,,,,,,,,,,,,,72.7631193999996,0.013119399999595771,None,106.53221020000001,106.53221020000001,106.53221020000001,106.53221020000001,106.53221020000001,106.53221020000001,106.53221020000001,106.53221020000001,106.53221020000001,106.53221020000001,,004,P011,2025_Feb_08_1021,ConditionRich,2021.2.3,59.93550939186639,
73.0,73.75,25,0.75,Stimuli/P011/things_face_06s.jpg,0,0,0.0,0,139,139,139,,,,,,,,,,,,,73.01379599999927,0.0137959999992745,None,106.78243389999989,106.78243389999989,106.78243389999989,106.78243389999989,106.78243389999989,106.78243389999989,106.78243389999989,106.78243389999989,106.78243389999989,106.78243389999989,,004,P011,2025_Feb_08_1021,ConditionRich,2021.2.3,59.93550939186639,
73.75,74.0,41,0.0,Stimuli/Blank.png,0,0,0.0,0,140,140,140,,,,,,,,,,,,,73.76469319999978,0.014693199999783246,None,107.53309419999914,107.53309419999914,107.53309419999914,107.53309419999914,107.53309419999914,107.53309419999914,107.53309419999914,107.53309419999914,107.53309419999914,107.53309419999914,,004,P011,2025_Feb_08_1021,ConditionRich,2021.2.3,59.93550939186639,
74.0,74.75,25,0.75,Stimuli/P011/things_face_06s.jpg,1,0,0.75,0,141,141,141,,,,,,,,,,,,,74.01453759999913,0.01453759999913018,1,107.80001029999949,107.80001029999949,107.80001029999949,107.80001029999949,107.80001029999949,107.80001029999949,107.80001029999949,108.51733889999923,107.80001029999949,107.80001029999949,0.454718199999661,004,P011,2025_Feb_08_1021,ConditionRich,2021.2.3,59.93550939186639,
74.75,75.0,41,0.0,Stimuli/Blank.png,0,0,0.0,0,142,142,142,,,,,,,,,,,,,74.78252739999971,0.032527399999707995,None,108.55065949999971,108.55065949999971,108.55065949999971,108.55065949999971,108.55065949999971,108.55065949999971,108.55065949999971,108.55065949999971,108.55065949999971,108.55065949999971,,004,P011,2025_Feb_08_1021,ConditionRich,2021.2.3,59.93550939186639,
75.0,75.75,25,0.75,Stimuli/P011/things_face_06s.jpg,0,0,0.0,0,143,143,143,,,,,,,,,,,,,74.99853179999991,-0.0014682000000902917,None,108.76752399999987,108.76752399999987,108.76752399999987,108.76752399999987,108.76752399999987,108.76752399999987,108.76752399999987,108.76752399999987,108.76752399999987,108.76752399999987,,004,P011,2025_Feb_08_1021,ConditionRich,2021.2.3,59.93550939186639,
75.75,76.0,41,0.0,Stimuli/Blank.png,0,0,0.0,0,144,144,144,,,,,,,,,,,,,75.7490528999997,-0.0009471000003031804,None,109.51818800000001,109.51818800000001,109.51818800000001,109.51818800000001,109.51818800000001,109.51818800000001,109.51818800000001,109.51818800000001,109.51818800000001,109.51818800000001,,004,P011,2025_Feb_08_1021,ConditionRich,2021.2.3,59.93550939186639,
76.0,76.75,39,0.75,Stimuli/P011/things_thermometer_06s.jpg,0,0,0.0,0,145,145,145,,,,,,,,,,,,,76.00002699999914,2.699999913602369e-05,None,109.78505319999931,109.78505319999931,109.78505319999931,109.78505319999931,109.78505319999931,109.78505319999931,109.78505319999931,109.78505319999931,109.78505319999931,109.78505319999931,,004,P011,2025_Feb_08_1021,ConditionRich,2021.2.3,59.93550939186639,
76.75,77.0,41,0.0,Stimuli/Blank.png,0,0,0.0,0,146,146,146,,,,,,,,,,,,,76.76721169999928,0.017211699999279517,None,110.53576459999931,110.53576459999931,110.53576459999931,110.53576459999931,110.53576459999931,110.53576459999931,110.53576459999931,110.53576459999931,110.53576459999931,110.53576459999931,,004,P011,2025_Feb_08_1021,ConditionRich,2021.2.3,59.93550939186639,
77.0,77.75,39,0.75,Stimuli/P011/things_thermometer_06s.jpg,0,0,0.0,0,147,147,147,,,,,,,,,,,,,77.00120969999989,0.0012096999998902902,None,110.76929289999953,110.76929289999953,110.76929289999953,110.76929289999953,110.76929289999953,110.76929289999953,110.76929289999953,110.76929289999953,110.76929289999953,110.76929289999953,,004,P011,2025_Feb_08_1021,ConditionRich,2021.2.3,59.93550939186639,
77.75,78.0,41,0.0,Stimuli/Blank.png,0,0,0.0,0,148,148,148,,,,,,,,,,,,,77.75325859999975,0.003258599999753642,None,111.53664969999954,111.53664969999954,111.53664969999954,111.53664969999954,111.53664969999954,111.53664969999954,111.53664969999954,111.53664969999954,111.53664969999954,111.53664969999954,,004,P011,2025_Feb_08_1021,ConditionRich,2021.2.3,59.93550939186639,
78.0,78.75,39,0.75,Stimuli/P011/things_thermometer_06s.jpg,0,0,0.0,0,149,149,149,,,,,,,,,,,,,78.0182350999994,0.018235099999401427,None,111.7868596999997,111.7868596999997,111.7868596999997,111.7868596999997,111.7868596999997,111.7868596999997,111.7868596999997,111.7868596999997,111.7868596999997,111.7868596999997,,004,P011,2025_Feb_08_1021,ConditionRich,2021.2.3,59.93550939186639,
78.75,79.0,41,0.0,Stimuli/Blank.png,0,0,0.0,0,150,150,150,,,,,,,,,,,,,78.75223759999972,0.002237599999716622,None,112.5208462999999,112.5208462999999,112.5208462999999,112.5208462999999,112.5208462999999,112.5208462999999,112.5208462999999,112.5208462999999,112.5208462999999,112.5208462999999,,004,P011,2025_Feb_08_1021,ConditionRich,2021.2.3,59.93550939186639,
79.0,79.75,39,0.75,Stimuli/P011/things_thermometer_06s.jpg,0,0,0.0,0,151,151,151,,,,,,,,,,,,,79.002297,0.0022969999999986612,None,112.77106179999919,112.77106179999919,112.77106179999919,112.77106179999919,112.77106179999919,112.77106179999919,112.77106179999919,112.77106179999919,112.77106179999919,112.77106179999919,,004,P011,2025_Feb_08_1021,ConditionRich,2021.2.3,59.93550939186639,
79.75,80.0,41,0.0,Stimuli/Blank.png,0,0,0.0,0,152,152,152,,,,,,,,,,,,,79.75264729999981,0.0026472999998077285,None,113.52172899999914,113.52172899999914,113.52172899999914,113.52172899999914,113.52172899999914,113.52172899999914,113.52172899999914,113.52172899999914,113.52172899999914,113.52172899999914,,004,P011,2025_Feb_08_1021,ConditionRich,2021.2.3,59.93550939186639,
80.0,80.75,21,0.75,Stimuli/P011/things_baby_06s.jpg,0,0,0.0,0,153,153,153,,,,,,,,,,,,,80.00278879999951,0.0027887999995073187,None,113.77191999999923,113.77191999999923,113.77191999999923,113.77191999999923,113.77191999999923,113.77191999999923,113.77191999999923,113.77191999999923,113.77191999999923,113.77191999999923,,004,P011,2025_Feb_08_1021,ConditionRich,2021.2.3,59.93550939186639,
80.75,81.0,41,0.0,Stimuli/Blank.png,0,0,0.0,0,154,154,154,,,,,,,,,,,,,80.75352959999964,0.003529599999637867,None,114.52262059999975,114.52262059999975,114.52262059999975,114.52262059999975,114.52262059999975,114.52262059999975,114.52262059999975,114.52262059999975,114.52262059999975,114.52262059999975,,004,P011,2025_Feb_08_1021,ConditionRich,2021.2.3,59.93550939186639,
81.0,81.75,21,0.75,Stimuli/P011/things_baby_06s.jpg,0,0,0.0,0,155,155,155,,,,,,,,,,,,,81.00420109999959,0.0042010999995909515,None,114.7728303999993,114.7728303999993,114.7728303999993,114.7728303999993,114.7728303999993,114.7728303999993,114.7728303999993,114.7728303999993,114.7728303999993,114.7728303999993,,004,P011,2025_Feb_08_1021,ConditionRich,2021.2.3,59.93550939186639,
81.75,82.0,41,0.0,Stimuli/Blank.png,0,0,0.0,0,156,156,156,,,,,,,,,,,,,81.75511479999932,0.005114799999319075,None,115.52349449999929,115.52349449999929,115.52349449999929,115.52349449999929,115.52349449999929,115.52349449999929,115.52349449999929,115.52349449999929,115.52349449999929,115.52349449999929,,004,P011,2025_Feb_08_1021,ConditionRich,2021.2.3,59.93550939186639,
82.0,82.75,21,0.75,Stimuli/P011/things_baby_06s.jpg,0,0,0.0,0,157,157,157,,,,,,,,,,,,,82.00467639999988,0.004676399999880232,None,115.77378769999996,115.77378769999996,115.77378769999996,115.77378769999996,115.77378769999996,115.77378769999996,115.77378769999996,115.77378769999996,115.77378769999996,115.77378769999996,,004,P011,2025_Feb_08_1021,ConditionRich,2021.2.3,59.93550939186639,
82.75,83.0,41,0.0,Stimuli/Blank.png,0,0,0.0,0,158,158,158,,,,,,,,,,,,,82.75534759999937,0.005347599999367958,None,116.5243802999994,116.5243802999994,116.5243802999994,116.5243802999994,116.5243802999994,116.5243802999994,116.5243802999994,116.5243802999994,116.5243802999994,116.5243802999994,,004,P011,2025_Feb_08_1021,ConditionRich,2021.2.3,59.93550939186639,
83.0,83.75,21,0.75,Stimuli/P011/things_baby_06s.jpg,0,0,0.0,0,159,159,159,,,,,,,,,,,,,83.00541899999916,0.005418999999164953,None,116.7913052999993,116.7913052999993,116.7913052999993,116.7913052999993,116.7913052999993,116.7913052999993,116.7913052999993,116.7913052999993,116.7913052999993,116.7913052999993,,004,P011,2025_Feb_08_1021,ConditionRich,2021.2.3,59.93550939186639,
83.75,84.0,41,0.0,Stimuli/Blank.png,0,0,0.0,0,160,160,160,,,,,,,,,,,,,83.7727230999999,0.022723099999893748,None,117.54194729999926,117.54194729999926,117.54194729999926,117.54194729999926,117.54194729999926,117.54194729999926,117.54194729999926,117.54194729999926,117.54194729999926,117.54194729999926,,004,P011,2025_Feb_08_1021,ConditionRich,2021.2.3,59.93550939186639,
84.0,100.0,0,0.0,Stimuli/Blank.png,1,13,13.75,0,161,161,161,,,,,,,,,,,,,84.00645649999933,0.006456499999330845,1,117.77554409999993,117.77554409999993,117.77554409999993,117.77554409999993,117.77554409999993,117.77554409999993,130.75362719999976,131.50434629999927,117.77554409999993,117.77554409999993,13.452239799999916,004,P011,2025_Feb_08_1021,ConditionRich,2021.2.3,59.93550939186639,
100.0,100.75,10,0.75,Stimuli/P011/sun_awufkrkrdrdbvvis.jpg,0,0,0.0,0,162,162,162,,,,,,,,,,,,,100.00407349999932,0.004073499999321939,None,133.77294149999943,133.77294149999943,133.77294149999943,133.77294149999943,133.77294149999943,133.77294149999943,133.77294149999943,133.77294149999943,133.77294149999943,133.77294149999943,,004,P011,2025_Feb_08_1021,ConditionRich,2021.2.3,59.93550939186639,
100.75,101.0,41,0.0,Stimuli/Blank.png,0,0,0.0,0,163,163,163,,,,,,,,,,,,,100.75544619999982,0.005446199999823875,None,134.52364269999998,134.52364269999998,134.52364269999998,134.52364269999998,134.52364269999998,134.52364269999998,134.52364269999998,134.52364269999998,134.52364269999998,134.52364269999998,,004,P011,2025_Feb_08_1021,ConditionRich,2021.2.3,59.93550939186639,
101.0,101.75,10,0.75,Stimuli/P011/sun_awufkrkrdrdbvvis.jpg,0,0,0.0,0,164,164,164,,,,,,,,,,,,,101.00467049999952,0.004670499999519961,None,134.79055099999914,134.79055099999914,134.79055099999914,134.79055099999914,134.79055099999914,134.79055099999914,134.79055099999914,134.79055099999914,134.79055099999914,134.79055099999914,,004,P011,2025_Feb_08_1021,ConditionRich,2021.2.3,59.93550939186639,
101.75,102.0,41,0.0,Stimuli/Blank.png,0,0,0.0,0,165,165,165,,,,,,,,,,,,,101.77363019999939,0.023630199999388424,None,135.54120759999932,135.54120759999932,135.54120759999932,135.54120759999932,135.54120759999932,135.54120759999932,135.54120759999932,135.54120759999932,135.54120759999932,135.54120759999932,,004,P011,2025_Feb_08_1021,ConditionRich,2021.2.3,59.93550939186639,
102.0,102.75,10,0.75,Stimuli/P011/sun_awufkrkrdrdbvvis.jpg,0,0,0.0,0,166,166,166,,,,,,,,,,,,,102.00545949999923,0.0054594999992332305,None,135.79142869999941,135.79142869999941,135.79142869999941,135.79142869999941,135.79142869999941,135.79142869999941,135.79142869999941,135.79142869999941,135.79142869999941,135.79142869999941,,004,P011,2025_Feb_08_1021,ConditionRich,2021.2.3,59.93550939186639,
102.75,103.0,41,0.0,Stimuli/Blank.png,0,0,0.0,0,167,167,167,,,,,,,,,,,,,102.77290989999983,0.022909899999831396,None,136.54212539999935,136.54212539999935,136.54212539999935,136.54212539999935,136.54212539999935,136.54212539999935,136.54212539999935,136.54212539999935,136.54212539999935,136.54212539999935,,004,P011,2025_Feb_08_1021,ConditionRich,2021.2.3,59.93550939186639,
103.0,103.75,10,0.75,Stimuli/P011/sun_awufkrkrdrdbvvis.jpg,0,0,0.0,0,168,168,168,,,,,,,,,,,,,103.0076282,0.007628199999999197,None,136.79230579999967,136.79230579999967,136.79230579999967,136.79230579999967,136.79230579999967,136.79230579999967,136.79230579999967,136.79230579999967,136.79230579999967,136.79230579999967,,004,P011,2025_Feb_08_1021,ConditionRich,2021.2.3,59.93550939186639,
103.75,104.0,41,0.0,Stimuli/Blank.png,0,0,0.0,0,169,169,169,,,,,,,,,,,,,103.77402799999982,0.02402799999981653,None,137.54297119999956,137.54297119999956,137.54297119999956,137.54297119999956,137.54297119999956,137.54297119999956,137.54297119999956,137.54297119999956,137.54297119999956,137.54297119999956,,004,P011,2025_Feb_08_1021,ConditionRich,2021.2.3,59.93550939186639,
104.0,104.75,32,0.75,Stimuli/P011/things_hood_06s.jpg,0,0,0.0,0,170,170,170,,,,,,,,,,,,,104.00783069999943,0.00783069999943109,None,137.77651100000003,137.77651100000003,137.77651100000003,137.77651100000003,137.77651100000003,137.77651100000003,137.77651100000003,137.77651100000003,137.77651100000003,137.77651100000003,,004,P011,2025_Feb_08_1021,ConditionRich,2021.2.3,59.93550939186639,
104.75,105.0,41,0.0,Stimuli/Blank.png,0,0,0.0,0,171,171,171,,,,,,,,,,,,,104.75794289999976,0.007942899999761721,None,138.5272232999996,138.5272232999996,138.5272232999996,138.5272232999996,138.5272232999996,138.5272232999996,138.5272232999996,138.5272232999996,138.5272232999996,138.5272232999996,,004,P011,2025_Feb_08_1021,ConditionRich,2021.2.3,59.93550939186639,
105.0,105.75,32,0.75,Stimuli/P011/things_hood_06s.jpg,0,0,0.0,0,172,172,172,,,,,,,,,,,,,105.00868399999945,0.008683999999448133,None,138.77739139999994,138.77739139999994,138.77739139999994,138.77739139999994,138.77739139999994,138.77739139999994,138.77739139999994,138.77739139999994,138.77739139999994,138.77739139999994,,004,P011,2025_Feb_08_1021,ConditionRich,2021.2.3,59.93550939186639,
105.75,106.0,41,0.0,Stimuli/Blank.png,0,0,0.0,0,173,173,173,,,,,,,,,,,,,105.75896599999942,0.008965999999418273,None,139.52813389999937,139.52813389999937,139.52813389999937,139.52813389999937,139.52813389999937,139.52813389999937,139.52813389999937,139.52813389999937,139.52813389999937,139.52813389999937,,004,P011,2025_Feb_08_1021,ConditionRich,2021.2.3,59.93550939186639,
106.0,106.75,32,0.75,Stimuli/P011/things_hood_06s.jpg,0,0,0.0,0,174,174,174,,,,,,,,,,,,,106.00977869999952,0.009778699999515084,None,139.79495849999967,139.79495849999967,139.79495849999967,139.79495849999967,139.79495849999967,139.79495849999967,139.79495849999967,139.79495849999967,139.79495849999967,139.79495849999967,,004,P011,2025_Feb_08_1021,ConditionRich,2021.2.3,59.93550939186639,
106.75,107.0,41,0.0,Stimuli/Blank.png,0,0,0.0,0,175,175,175,,,,,,,,,,,,,106.77726579999944,0.027265799999440787,None,140.54563359999975,140.54563359999975,140.54563359999975,140.54563359999975,140.54563359999975,140.54563359999975,140.54563359999975,140.54563359999975,140.54563359999975,140.54563359999975,,004,P011,2025_Feb_08_1021,ConditionRich,2021.2.3,59.93550939186639,
107.0,107.75,32,0.75,Stimuli/P011/things_hood_06s.jpg,0,0,0.0,0,176,176,176,,,,,,,,,,,,,107.01077219999934,0.010772199999337317,None,140.7958510999997,140.7958510999997,140.7958510999997,140.7958510999997,140.7958510999997,140.7958510999997,140.7958510999997,140.7958510999997,140.7958510999997,140.7958510999997,,004,P011,2025_Feb_08_1021,ConditionRich,2021.2.3,59.93550939186639,
107.75,108.0,41,0.0,Stimuli/Blank.png,0,0,0.0,0,177,177,177,,,,,,,,,,,,,107.77877219999937,0.02877219999936642,None,141.54652309999983,141.54652309999983,141.54652309999983,141.54652309999983,141.54652309999983,141.54652309999983,141.54652309999983,141.54652309999983,141.54652309999983,141.54652309999983,,004,P011,2025_Feb_08_1021,ConditionRich,2021.2.3,59.93550939186639,
108.0,108.75,40,0.75,Stimuli/P011/things_woman_06s.jpg,0,0,0.0,0,178,178,178,,,,,,,,,,,,,108.01138300000002,0.011383000000023458,None,141.7967338999997,141.7967338999997,141.7967338999997,141.7967338999997,141.7967338999997,141.7967338999997,141.7967338999997,141.7967338999997,141.7967338999997,141.7967338999997,,004,P011,2025_Feb_08_1021,ConditionRich,2021.2.3,59.93550939186639,
108.75,109.0,41,0.0,Stimuli/Blank.png,0,0,0.0,0,179,179,179,,,,,,,,,,,,,108.77861309999935,0.02861309999934747,None,142.54739759999939,142.54739759999939,142.54739759999939,142.54739759999939,142.54739759999939,142.54739759999939,142.54739759999939,142.54739759999939,142.54739759999939,142.54739759999939,,004,P011,2025_Feb_08_1021,ConditionRich,2021.2.3,59.93550939186639,
109.0,109.75,40,0.75,Stimuli/P011/things_woman_06s.jpg,0,0,0.0,0,180,180,180,,,,,,,,,,,,,109.01183649999984,0.011836499999844818,None,142.78093589999935,142.78093589999935,142.78093589999935,142.78093589999935,142.78093589999935,142.78093589999935,142.78093589999935,142.78093589999935,142.78093589999935,142.78093589999935,,004,P011,2025_Feb_08_1021,ConditionRich,2021.2.3,59.93550939186639,
109.75,110.0,41,0.0,Stimuli/Blank.png,0,0,0.0,0,181,181,181,,,,,,,,,,,,,109.76377030000003,0.013770300000032876,None,143.53179809999983,143.53179809999983,143.53179809999983,143.53179809999983,143.53179809999983,143.53179809999983,143.53179809999983,143.53179809999983,143.53179809999983,143.53179809999983,,004,P011,2025_Feb_08_1021,ConditionRich,2021.2.3,59.93550939186639,
110.0,110.75,40,0.75,Stimuli/P011/things_woman_06s.jpg,0,0,0.0,0,182,182,182,,,,,,,,,,,,,110.01340619999974,0.01340619999973569,None,143.78182229999948,143.78182229999948,143.78182229999948,143.78182229999948,143.78182229999948,143.78182229999948,143.78182229999948,143.78182229999948,143.78182229999948,143.78182229999948,,004,P011,2025_Feb_08_1021,ConditionRich,2021.2.3,59.93550939186639,
110.75,111.0,41,0.0,Stimuli/Blank.png,0,0,0.0,0,183,183,183,,,,,,,,,,,,,110.76340989999971,0.01340989999971498,None,144.5324845999994,144.5324845999994,144.5324845999994,144.5324845999994,144.5324845999994,144.5324845999994,144.5324845999994,144.5324845999994,144.5324845999994,144.5324845999994,,004,P011,2025_Feb_08_1021,ConditionRich,2021.2.3,59.93550939186639,
111.0,111.75,40,0.75,Stimuli/P011/things_woman_06s.jpg,0,0,0.0,0,184,184,184,,,,,,,,,,,,,111.01431429999957,0.014314299999568902,None,144.78271369999948,144.78271369999948,144.78271369999948,144.78271369999948,144.78271369999948,144.78271369999948,144.78271369999948,144.78271369999948,144.78271369999948,144.78271369999948,,004,P011,2025_Feb_08_1021,ConditionRich,2021.2.3,59.93550939186639,
111.75,112.0,41,0.0,Stimuli/Blank.png,0,0,0.0,0,185,185,185,,,,,,,,,,,,,111.76487819999966,0.014878199999657227,None,145.53337069999998,145.53337069999998,145.53337069999998,145.53337069999998,145.53337069999998,145.53337069999998,145.53337069999998,145.53337069999998,145.53337069999998,145.53337069999998,,004,P011,2025_Feb_08_1021,ConditionRich,2021.2.3,59.93550939186639,
112.0,112.75,29,0.75,Stimuli/P011/things_gutter_06s.jpg,0,0,0.0,0,186,186,186,,,,,,,,,,,,,112.0143264999997,0.014326499999697262,None,145.80029429999922,145.80029429999922,145.80029429999922,145.80029429999922,145.80029429999922,145.80029429999922,145.80029429999922,145.80029429999922,145.80029429999922,145.80029429999922,,004,P011,2025_Feb_08_1021,ConditionRich,2021.2.3,59.93550939186639,
112.75,113.0,41,0.0,Stimuli/Blank.png,0,0,0.0,0,187,187,187,,,,,,,,,,,,,112.7816688999992,0.03166889999920386,None,146.55100089999996,146.55100089999996,146.55100089999996,146.55100089999996,146.55100089999996,146.55100089999996,146.55100089999996,146.55100089999996,146.55100089999996,146.55100089999996,,004,P011,2025_Feb_08_1021,ConditionRich,2021.2.3,59.93550939186639,
113.0,113.75,29,0.75,Stimuli/P011/things_gutter_06s.jpg,1,0,0.75,0,188,188,188,,,,,,,,,,,,,113.01539189999949,0.015391899999485759,1,146.7844815999997,146.7844815999997,146.7844815999997,146.7844815999997,146.7844815999997,146.7844815999997,146.7844815999997,None,146.7844815999997,146.7844815999997,0.5274718999999095,004,P011,2025_Feb_08_1021,ConditionRich,2021.2.3,59.93550939186639,
113.75,114.0,41,0.0,Stimuli/Blank.png,0,0,0.0,0,189,189,189,,,,,,,,,,,,,113.74995229999968,-4.7700000322947744e-05,None,147.51846409999962,147.51846409999962,147.51846409999962,147.51846409999962,147.51846409999962,147.51846409999962,147.51846409999962,147.51846409999962,147.51846409999962,147.51846409999962,,004,P011,2025_Feb_08_1021,ConditionRich,2021.2.3,59.93550939186639,
114.0,114.75,29,0.75,Stimuli/P011/things_gutter_06s.jpg,0,0,0.0,0,190,190,190,,,,,,,,,,,,,114.00016909999977,0.00016909999976633117,None,147.78536609999992,147.78536609999992,147.78536609999992,147.78536609999992,147.78536609999992,147.78536609999992,147.78536609999992,147.78536609999992,147.78536609999992,147.78536609999992,,004,P011,2025_Feb_08_1021,ConditionRich,2021.2.3,59.93550939186639,
114.75,115.0,41,0.0,Stimuli/Blank.png,0,0,0.0,0,191,191,191,,,,,,,,,,,,,114.76763239999946,0.01763239999945654,None,148.53603759999987,148.53603759999987,148.53603759999987,148.53603759999987,148.53603759999987,148.53603759999987,148.53603759999987,148.53603759999987,148.53603759999987,148.53603759999987,,004,P011,2025_Feb_08_1021,ConditionRich,2021.2.3,59.93550939186639,
115.0,115.75,29,0.75,Stimuli/P011/things_gutter_06s.jpg,0,0,0.0,0,192,192,192,,,,,,,,,,,,,115.00059799999963,0.0005979999996270635,None,148.78626349999922,148.78626349999922,148.78626349999922,148.78626349999922,148.78626349999922,148.78626349999922,148.78626349999922,148.78626349999922,148.78626349999922,148.78626349999922,,004,P011,2025_Feb_08_1021,ConditionRich,2021.2.3,59.93550939186639,
115.75,116.0,41,0.0,Stimuli/Blank.png,0,0,0.0,0,193,193,193,,,,,,,,,,,,,115.76835149999988,0.018351499999880616,None,149.53692349999983,149.53692349999983,149.53692349999983,149.53692349999983,149.53692349999983,149.53692349999983,149.53692349999983,149.53692349999983,149.53692349999983,149.53692349999983,,004,P011,2025_Feb_08_1021,ConditionRich,2021.2.3,59.93550939186639,
116.0,116.75,27,0.75,Stimuli/P011/things_girl_06s.jpg,0,0,0.0,0,194,194,194,,,,,,,,,,,,,116.00183169999946,0.0018316999994567595,None,149.7704535999992,149.7704535999992,149.7704535999992,149.7704535999992,149.7704535999992,149.7704535999992,149.7704535999992,149.7704535999992,149.7704535999992,149.7704535999992,,004,P011,2025_Feb_08_1021,ConditionRich,2021.2.3,59.93550939186639,
116.75,117.0,41,0.0,Stimuli/Blank.png,0,0,0.0,0,195,195,195,,,,,,,,,,,,,116.75190269999985,0.001902699999845936,None,150.5211191999997,150.5211191999997,150.5211191999997,150.5211191999997,150.5211191999997,150.5211191999997,150.5211191999997,150.5211191999997,150.5211191999997,150.5211191999997,,004,P011,2025_Feb_08_1021,ConditionRich,2021.2.3,59.93550939186639,
117.0,117.75,27,0.75,Stimuli/P011/things_girl_06s.jpg,1,0,0.75,0,196,196,196,,,,,,,,,,,,,117.00208139999995,0.0020813999999518273,1,150.77134429999933,150.77134429999933,150.77134429999933,150.77134429999933,150.77134429999933,150.77134429999933,150.77134429999933,151.50535859999945,150.77134429999933,150.77134429999933,0.556724199999735,004,P011,2025_Feb_08_1021,ConditionRich,2021.2.3,59.93550939186639,
117.75,118.0,41,0.0,Stimuli/Blank.png,0,0,0.0,0,197,197,197,,,,,,,,,,,,,117.75453769999967,0.00453769999967335,None,151.53869779999968,151.53869779999968,151.53869779999968,151.53869779999968,151.53869779999968,151.53869779999968,151.53869779999968,151.53869779999968,151.53869779999968,151.53869779999968,,004,P011,2025_Feb_08_1021,ConditionRich,2021.2.3,59.93550939186639,
118.0,118.75,27,0.75,Stimuli/P011/things_girl_06s.jpg,0,0,0.0,0,198,198,198,,,,,,,,,,,,,118.02036209999915,0.020362099999147176,None,151.80560279999918,151.80560279999918,151.80560279999918,151.80560279999918,151.80560279999918,151.80560279999918,151.80560279999918,151.80560279999918,151.80560279999918,151.80560279999918,,004,P011,2025_Feb_08_1021,ConditionRich,2021.2.3,59.93550939186639,
118.75,119.0,41,0.0,Stimuli/Blank.png,0,0,0.0,0,199,199,199,,,,,,,,,,,,,118.77120990000003,0.021209900000030757,None,152.53959419999956,152.53959419999956,152.53959419999956,152.53959419999956,152.53959419999956,152.53959419999956,152.53959419999956,152.53959419999956,152.53959419999956,152.53959419999956,,004,P011,2025_Feb_08_1021,ConditionRich,2021.2.3,59.93550939186639,
119.0,119.75,27,0.75,Stimuli/P011/things_girl_06s.jpg,0,0,0.0,0,200,200,200,,,,,,,,,,,,,119.00456880000002,0.004568800000015472,None,152.78980589999992,152.78980589999992,152.78980589999992,152.78980589999992,152.78980589999992,152.78980589999992,152.78980589999992,152.78980589999992,152.78980589999992,152.78980589999992,,004,P011,2025_Feb_08_1021,ConditionRich,2021.2.3,59.93550939186639,
119.75,120.0,41,0.0,Stimuli/Blank.png,0,0,0.0,0,201,201,201,,,,,,,,,,,,,119.77326639999956,0.023266399999556597,None,153.55715269999928,153.55715269999928,153.55715269999928,153.55715269999928,153.55715269999928,153.55715269999928,153.55715269999928,153.55715269999928,153.55715269999928,153.55715269999928,,004,P011,2025_Feb_08_1021,ConditionRich,2021.2.3,59.93550939186639,
120.0,120.75,13,0.75,Stimuli/P011/sun_bjedvzikugwleyer.jpg,0,0,0.0,0,202,202,202,,,,,,,,,,,,,120.02318089999972,0.02318089999971562,None,153.80735929999992,153.80735929999992,153.80735929999992,153.80735929999992,153.80735929999992,153.80735929999992,153.80735929999992,153.80735929999992,153.80735929999992,153.80735929999992,,004,P011,2025_Feb_08_1021,ConditionRich,2021.2.3,59.93550939186639,
120.75,121.0,41,0.0,Stimuli/Blank.png,0,0,0.0,0,203,203,203,,,,,,,,,,,,,120.77375429999938,0.023754299999382056,None,154.55804909999915,154.55804909999915,154.55804909999915,154.55804909999915,154.55804909999915,154.55804909999915,154.55804909999915,154.55804909999915,154.55804909999915,154.55804909999915,,004,P011,2025_Feb_08_1021,ConditionRich,2021.2.3,59.93550939186639,
121.0,121.75,13,0.75,Stimuli/P011/sun_bjedvzikugwleyer.jpg,0,0,0.0,0,204,204,204,,,,,,,,,,,,,121.02343159999964,0.02343159999963973,None,154.80825929999992,154.80825929999992,154.80825929999992,154.80825929999992,154.80825929999992,154.80825929999992,154.80825929999992,154.80825929999992,154.80825929999992,154.80825929999992,,004,P011,2025_Feb_08_1021,ConditionRich,2021.2.3,59.93550939186639,
121.75,122.0,41,0.0,Stimuli/Blank.png,0,0,0.0,0,205,205,205,,,,,,,,,,,,,121.77381399999922,0.02381399999921996,None,155.54222919999938,155.54222919999938,155.54222919999938,155.54222919999938,155.54222919999938,155.54222919999938,155.54222919999938,155.54222919999938,155.54222919999938,155.54222919999938,,004,P011,2025_Feb_08_1021,ConditionRich,2021.2.3,59.93550939186639,
122.0,122.75,13,0.75,Stimuli/P011/sun_bjedvzikugwleyer.jpg,0,0,0.0,0,206,206,206,,,,,,,,,,,,,122.00666899999942,0.006668999999419611,None,155.7757692999994,155.7757692999994,155.7757692999994,155.7757692999994,155.7757692999994,155.7757692999994,155.7757692999994,155.7757692999994,155.7757692999994,155.7757692999994,,004,P011,2025_Feb_08_1021,ConditionRich,2021.2.3,59.93550939186639,
122.75,123.0,41,0.0,Stimuli/Blank.png,0,0,0.0,0,207,207,207,,,,,,,,,,,,,122.75837329999922,0.008373299999220762,None,156.52643409999928,156.52643409999928,156.52643409999928,156.52643409999928,156.52643409999928,156.52643409999928,156.52643409999928,156.52643409999928,156.52643409999928,156.52643409999928,,004,P011,2025_Feb_08_1021,ConditionRich,2021.2.3,59.93550939186639,
123.0,123.75,13,0.75,Stimuli/P011/sun_bjedvzikugwleyer.jpg,0,0,0.0,0,208,208,208,,,,,,,,,,,,,123.00870239999949,0.008702399999492627,None,156.79334319999998,156.79334319999998,156.79334319999998,156.79334319999998,156.79334319999998,156.79334319999998,156.79334319999998,156.79334319999998,156.79334319999998,156.79334319999998,,004,P011,2025_Feb_08_1021,ConditionRich,2021.2.3,59.93550939186639,
123.75,124.0,41,0.0,Stimuli/Blank.png,0,0,0.0,0,209,209,209,,,,,,,,,,,,,123.77766139999949,0.027661399999487912,None,157.56068269999923,157.56068269999923,157.56068269999923,157.56068269999923,157.56068269999923,157.56068269999923,157.56068269999923,157.56068269999923,157.56068269999923,157.56068269999923,,004,P011,2025_Feb_08_1021,ConditionRich,2021.2.3,59.93550939186639,
124.0,124.75,9,0.75,Stimuli/P011/sun_aupohozmrmtfgcsw.jpg,0,0,0.0,0,210,210,210,,,,,,,,,,,,,124.02519789999951,0.02519789999951172,None,157.79419319999943,157.79419319999943,157.79419319999943,157.79419319999943,157.79419319999943,157.79419319999943,157.79419319999943,157.79419319999943,157.79419319999943,157.79419319999943,,004,P011,2025_Feb_08_1021,ConditionRich,2021.2.3,59.93550939186639,
124.75,125.0,41,0.0,Stimuli/Blank.png,0,0,0.0,0,211,211,211,,,,,,,,,,,,,124.75898299999972,0.008982999999716412,None,158.5282086999996,158.5282086999996,158.5282086999996,158.5282086999996,158.5282086999996,158.5282086999996,158.5282086999996,158.5282086999996,158.5282086999996,158.5282086999996,,004,P011,2025_Feb_08_1021,ConditionRich,2021.2.3,59.93550939186639,
125.0,125.75,9,0.75,Stimuli/P011/sun_aupohozmrmtfgcsw.jpg,0,0,0.0,0,212,212,212,,,,,,,,,,,,,125.01002799999969,0.010027999999692838,None,158.79512469999918,158.79512469999918,158.79512469999918,158.79512469999918,158.79512469999918,158.79512469999918,158.79512469999918,158.79512469999918,158.79512469999918,158.79512469999918,,004,P011,2025_Feb_08_1021,ConditionRich,2021.2.3,59.93550939186639,
125.75,126.0,41,0.0,Stimuli/Blank.png,0,0,0.0,0,213,213,213,,,,,,,,,,,,,125.77741259999948,0.027412599999479426,None,159.54576739999993,159.54576739999993,159.54576739999993,159.54576739999993,159.54576739999993,159.54576739999993,159.54576739999993,159.54576739999993,159.54576739999993,159.54576739999993,,004,P011,2025_Feb_08_1021,ConditionRich,2021.2.3,59.93550939186639,
126.0,126.75,9,0.75,Stimuli/P011/sun_aupohozmrmtfgcsw.jpg,0,0,0.0,0,214,214,214,,,,,,,,,,,,,126.01082559999941,0.010825599999407132,None,159.77931869999975,159.77931869999975,159.77931869999975,159.77931869999975,159.77931869999975,159.77931869999975,159.77931869999975,159.77931869999975,159.77931869999975,159.77931869999975,,004,P011,2025_Feb_08_1021,ConditionRich,2021.2.3,59.93550939186639,
126.75,127.0,41,0.0,Stimuli/Blank.png,0,0,0.0,0,215,215,215,,,,,,,,,,,,,126.76146909999989,0.011469099999885657,None,160.53002039999956,160.53002039999956,160.53002039999956,160.53002039999956,160.53002039999956,160.53002039999956,160.53002039999956,160.53002039999956,160.53002039999956,160.53002039999956,,004,P011,2025_Feb_08_1021,ConditionRich,2021.2.3,59.93550939186639,
127.0,127.75,9,0.75,Stimuli/P011/sun_aupohozmrmtfgcsw.jpg,0,0,0.0,0,216,216,216,,,,,,,,,,,,,127.01309069999934,0.01309069999933854,None,160.79687919999924,160.79687919999924,160.79687919999924,160.79687919999924,160.79687919999924,160.79687919999924,160.79687919999924,160.79687919999924,160.79687919999924,160.79687919999924,,004,P011,2025_Feb_08_1021,ConditionRich,2021.2.3,59.93550939186639,
127.75,128.0,41,0.0,Stimuli/Blank.png,0,0,0.0,0,217,217,217,,,,,,,,,,,,,127.77847139999994,0.02847139999994397,None,161.54753749999963,161.54753749999963,161.54753749999963,161.54753749999963,161.54753749999963,161.54753749999963,161.54753749999963,161.54753749999963,161.54753749999963,161.54753749999963,,004,P011,2025_Feb_08_1021,ConditionRich,2021.2.3,59.93550939186639,
128.0,128.75,11,0.75,Stimuli/P011/sun_baylllqlgfvxilor.jpg,0,0,0.0,0,218,218,218,,,,,,,,,,,,,128.0129225999999,0.012922599999910744,None,161.78114370000003,161.78114370000003,161.78114370000003,161.78114370000003,161.78114370000003,161.78114370000003,161.78114370000003,161.78114370000003,161.78114370000003,161.78114370000003,,004,P011,2025_Feb_08_1021,ConditionRich,2021.2.3,59.93550939186639,
128.75,129.0,41,0.0,Stimuli/Blank.png,0,0,0.0,0,219,219,219,,,,,,,,,,,,,128.76344899999913,0.013448999999127409,None,162.53174669999953,162.53174669999953,162.53174669999953,162.53174669999953,162.53174669999953,162.53174669999953,162.53174669999953,162.53174669999953,162.53174669999953,162.53174669999953,,004,P011,2025_Feb_08_1021,ConditionRich,2021.2.3,59.93550939186639,
129.0,129.75,11,0.75,Stimuli/P011/sun_baylllqlgfvxilor.jpg,0,0,0.0,0,220,220,220,,,,,,,,,,,,,129.0135333999997,0.01353339999968739,None,162.79864120000002,162.79864120000002,162.79864120000002,162.79864120000002,162.79864120000002,162.79864120000002,162.79864120000002,162.79864120000002,162.79864120000002,162.79864120000002,,004,P011,2025_Feb_08_1021,ConditionRich,2021.2.3,59.93550939186639,
129.75,130.0,41,0.0,Stimuli/Blank.png,0,0,0.0,0,221,221,221,,,,,,,,,,,,,129.78010249999988,0.030102499999884458,None,163.54931299999953,163.54931299999953,163.54931299999953,163.54931299999953,163.54931299999953,163.54931299999953,163.54931299999953,163.54931299999953,163.54931299999953,163.54931299999953,,004,P011,2025_Feb_08_1021,ConditionRich,2021.2.3,59.93550939186639,
130.0,130.75,11,0.75,Stimuli/P011/sun_baylllqlgfvxilor.jpg,0,0,0.0,0,222,222,222,,,,,,,,,,,,,130.01464169999963,0.014641699999629054,None,163.79955289999998,163.79955289999998,163.79955289999998,163.79955289999998,163.79955289999998,163.79955289999998,163.79955289999998,163.79955289999998,163.79955289999998,163.79955289999998,,004,P011,2025_Feb_08_1021,ConditionRich,2021.2.3,59.93550939186639,
130.75,131.0,41,0.0,Stimuli/Blank.png,0,0,0.0,0,223,223,223,,,,,,,,,,,,,130.78203889999986,0.032038899999861314,None,164.5502082999992,164.5502082999992,164.5502082999992,164.5502082999992,164.5502082999992,164.5502082999992,164.5502082999992,164.5502082999992,164.5502082999992,164.5502082999992,,004,P011,2025_Feb_08_1021,ConditionRich,2021.2.3,59.93550939186639,
131.0,131.75,11,0.75,Stimuli/P011/sun_baylllqlgfvxilor.jpg,0,0,0.0,0,224,224,224,,,,,,,,,,,,,131.0146139999997,0.014613999999710359,None,164.80043979999937,164.80043979999937,164.80043979999937,164.80043979999937,164.80043979999937,164.80043979999937,164.80043979999937,164.80043979999937,164.80043979999937,164.80043979999937,,004,P011,2025_Feb_08_1021,ConditionRich,2021.2.3,59.93550939186639,
131.75,132.0,41,0.0,Stimuli/Blank.png,0,0,0.0,0,225,225,225,,,,,,,,,,,,,131.78256579999925,0.03256579999924725,None,165.5510863999998,165.5510863999998,165.5510863999998,165.5510863999998,165.5510863999998,165.5510863999998,165.5510863999998,165.5510863999998,165.5510863999998,165.5510863999998,,004,P011,2025_Feb_08_1021,ConditionRich,2021.2.3,59.93550939186639,
132.0,132.75,38,0.75,Stimuli/P011/things_squeegee_06s.jpg,0,0,0.0,0,226,226,226,,,,,,,,,,,,,131.99873429999934,-0.0012657000006583985,None,165.76794249999966,165.76794249999966,165.76794249999966,165.76794249999966,165.76794249999966,165.76794249999966,165.76794249999966,165.76794249999966,165.76794249999966,165.76794249999966,,004,P011,2025_Feb_08_1021,ConditionRich,2021.2.3,59.93550939186639,
132.75,133.0,41,0.0,Stimuli/Blank.png,0,0,0.0,0,227,227,227,,,,,,,,,,,,,132.7495059999992,-0.000494000000799133,None,166.51860659999966,166.51860659999966,166.51860659999966,166.51860659999966,166.51860659999966,166.51860659999966,166.51860659999966,166.51860659999966,166.51860659999966,166.51860659999966,,004,P011,2025_Feb_08_1021,ConditionRich,2021.2.3,59.93550939186639,
133.0,133.75,38,0.75,Stimuli/P011/things_squeegee_06s.jpg,0,0,0.0,0,228,228,228,,,,,,,,,,,,,132.99974739999925,-0.00025260000074922573,None,166.76882379999915,166.76882379999915,166.76882379999915,166.76882379999915,166.76882379999915,166.76882379999915,166.76882379999915,166.76882379999915,166.76882379999915,166.76882379999915,,004,P011,2025_Feb_08_1021,ConditionRich,2021.2.3,59.93550939186639,
133.75,134.0,41,0.0,Stimuli/Blank.png,0,0,0.0,0,229,229,229,,,,,,,,,,,,,133.75297499999942,0.002974999999423744,None,167.53614079999988,167.53614079999988,167.53614079999988,167.53614079999988,167.53614079999988,167.53614079999988,167.53614079999988,167.53614079999988,167.53614079999988,167.53614079999988,,004,P011,2025_Feb_08_1021,ConditionRich,2021.2.3,59.93550939186639,
134.0,134.75,38,0.75,Stimuli/P011/things_squeegee_06s.jpg,0,0,0.0,0,230,230,230,,,,,,,,,,,,,134.0179791999999,0.01797919999989972,None,167.78639049999947,167.78639049999947,167.78639049999947,167.78639049999947,167.78639049999947,167.78639049999947,167.78639049999947,167.78639049999947,167.78639049999947,167.78639049999947,,004,P011,2025_Feb_08_1021,ConditionRich,2021.2.3,59.93550939186639,
134.75,135.0,41,0.0,Stimuli/Blank.png,0,0,0.0,0,231,231,231,,,,,,,,,,,,,134.75195809999968,0.001958099999683327,None,168.5203804999992,168.5203804999992,168.5203804999992,168.5203804999992,168.5203804999992,168.5203804999992,168.5203804999992,168.5203804999992,168.5203804999992,168.5203804999992,,004,P011,2025_Feb_08_1021,ConditionRich,2021.2.3,59.93550939186639,
135.0,135.75,38,0.75,Stimuli/P011/things_squeegee_06s.jpg,0,0,0.0,0,232,232,232,,,,,,,,,,,,,135.00218179999956,0.0021817999995619175,None,168.78727009999966,168.78727009999966,168.78727009999966,168.78727009999966,168.78727009999966,168.78727009999966,168.78727009999966,168.78727009999966,168.78727009999966,168.78727009999966,,004,P011,2025_Feb_08_1021,ConditionRich,2021.2.3,59.93550939186639,
135.75,136.0,41,0.0,Stimuli/Blank.png,0,0,0.0,0,233,233,233,,,,,,,,,,,,,135.76961140000003,0.0196114000000307,None,169.53797719999966,169.53797719999966,169.53797719999966,169.53797719999966,169.53797719999966,169.53797719999966,169.53797719999966,169.53797719999966,169.53797719999966,169.53797719999966,,004,P011,2025_Feb_08_1021,ConditionRich,2021.2.3,59.93550939186639,
136.0,136.75,23,0.75,Stimuli/P011/things_clove_06s.jpg,0,0,0.0,0,234,234,234,,,,,,,,,,,,,136.00329129999955,0.003291299999546027,None,169.77147969999987,169.77147969999987,169.77147969999987,169.77147969999987,169.77147969999987,169.77147969999987,169.77147969999987,169.77147969999987,169.77147969999987,169.77147969999987,,004,P011,2025_Feb_08_1021,ConditionRich,2021.2.3,59.93550939186639,
136.75,137.0,41,0.0,Stimuli/Blank.png,0,0,0.0,0,235,235,235,,,,,,,,,,,,,136.75371389999964,0.00371389999963867,None,170.52215389999947,170.52215389999947,170.52215389999947,170.52215389999947,170.52215389999947,170.52215389999947,170.52215389999947,170.52215389999947,170.52215389999947,170.52215389999947,,004,P011,2025_Feb_08_1021,ConditionRich,2021.2.3,59.93550939186639,
137.0,137.75,23,0.75,Stimuli/P011/things_clove_06s.jpg,0,0,0.0,0,236,236,236,,,,,,,,,,,,,137.00345249999918,0.0034524999991845107,None,170.77235699999983,170.77235699999983,170.77235699999983,170.77235699999983,170.77235699999983,170.77235699999983,170.77235699999983,170.77235699999983,170.77235699999983,170.77235699999983,,004,P011,2025_Feb_08_1021,ConditionRich,2021.2.3,59.93550939186639,
137.75,138.0,41,0.0,Stimuli/Blank.png,0,0,0.0,0,237,237,237,,,,,,,,,,,,,137.75450039999942,0.0045003999994150945,None,171.52302280000004,171.52302280000004,171.52302280000004,171.52302280000004,171.52302280000004,171.52302280000004,171.52302280000004,171.52302280000004,171.52302280000004,171.52302280000004,,004,P011,2025_Feb_08_1021,ConditionRich,2021.2.3,59.93550939186639,
138.0,138.75,23,0.75,Stimuli/P011/things_clove_06s.jpg,0,0,0.0,0,238,238,238,,,,,,,,,,,,,138.00399079999988,0.003990799999883166,None,171.7732232999997,171.7732232999997,171.7732232999997,171.7732232999997,171.7732232999997,171.7732232999997,171.7732232999997,171.7732232999997,171.7732232999997,171.7732232999997,,004,P011,2025_Feb_08_1021,ConditionRich,2021.2.3,59.93550939186639,
138.75,139.0,41,0.0,Stimuli/Blank.png,0,0,0.0,0,239,239,239,,,,,,,,,,,,,138.75551359999918,0.005513599999176222,None,172.5239216,172.5239216,172.5239216,172.5239216,172.5239216,172.5239216,172.5239216,172.5239216,172.5239216,172.5239216,,004,P011,2025_Feb_08_1021,ConditionRich,2021.2.3,59.93550939186639,
139.0,139.75,23,0.75,Stimuli/P011/things_clove_06s.jpg,1,0,0.75,0,240,240,240,,,,,,,,,,,,,139.0055671,0.0055671000000074855,1,172.7907884999995,172.7907884999995,172.7907884999995,172.7907884999995,172.7907884999995,172.7907884999995,172.7907884999995,173.50817479999932,172.7907884999995,172.7907884999995,0.4043470000005982,004,P011,2025_Feb_08_1021,ConditionRich,2021.2.3,59.93550939186639,
139.75,140.0,41,0.0,Stimuli/Blank.png,0,0,0.0,0,241,241,241,,,,,,,,,,,,,139.7734507999994,0.023450799999409355,None,173.54146259999925,173.54146259999925,173.54146259999925,173.54146259999925,173.54146259999925,173.54146259999925,173.54146259999925,173.54146259999925,173.54146259999925,173.54146259999925,,004,P011,2025_Feb_08_1021,ConditionRich,2021.2.3,59.93550939186639,
140.0,140.75,3,0.75,Stimuli/P011/sun_afdaynbvsppiyvxm.jpg,0,0,0.0,0,242,242,242,,,,,,,,,,,,,140.00607169999967,0.006071699999665725,None,173.77502449999974,173.77502449999974,173.77502449999974,173.77502449999974,173.77502449999974,173.77502449999974,173.77502449999974,173.77502449999974,173.77502449999974,173.77502449999974,,004,P011,2025_Feb_08_1021,ConditionRich,2021.2.3,59.93550939186639,
140.75,141.0,41,0.0,Stimuli/Blank.png,0,0,0.0,0,243,243,243,,,,,,,,,,,,,140.75667499999963,0.0066749999996318365,None,174.52568729999984,174.52568729999984,174.52568729999984,174.52568729999984,174.52568729999984,174.52568729999984,174.52568729999984,174.52568729999984,174.52568729999984,174.52568729999984,,004,P011,2025_Feb_08_1021,ConditionRich,2021.2.3,59.93550939186639,
141.0,141.75,3,0.75,Stimuli/P011/sun_afdaynbvsppiyvxm.jpg,0,0,0.0,0,244,244,244,,,,,,,,,,,,,141.00834069999928,0.008340699999280332,None,174.79259579999962,174.79259579999962,174.79259579999962,174.79259579999962,174.79259579999962,174.79259579999962,174.79259579999962,174.79259579999962,174.79259579999962,174.79259579999962,,004,P011,2025_Feb_08_1021,ConditionRich,2021.2.3,59.93550939186639,
141.75,142.0,41,0.0,Stimuli/Blank.png,0,0,0.0,0,245,245,245,,,,,,,,,,,,,141.77495309999995,0.02495309999994788,None,175.54325119999976,175.54325119999976,175.54325119999976,175.54325119999976,175.54325119999976,175.54325119999976,175.54325119999976,175.54325119999976,175.54325119999976,175.54325119999976,,004,P011,2025_Feb_08_1021,ConditionRich,2021.2.3,59.93550939186639,
142.0,142.75,3,0.75,Stimuli/P011/sun_afdaynbvsppiyvxm.jpg,0,0,0.0,0,246,246,246,,,,,,,,,,,,,142.00833299999977,0.008332999999765889,None,175.77678539999943,175.77678539999943,175.77678539999943,175.77678539999943,175.77678539999943,175.77678539999943,175.77678539999943,175.77678539999943,175.77678539999943,175.77678539999943,,004,P011,2025_Feb_08_1021,ConditionRich,2021.2.3,59.93550939186639,
142.75,143.0,41,0.0,Stimuli/Blank.png,0,0,0.0,0,247,247,247,,,,,,,,,,,,,142.75875239999914,0.008752399999139016,None,176.52746119999938,176.52746119999938,176.52746119999938,176.52746119999938,176.52746119999938,176.52746119999938,176.52746119999938,176.52746119999938,176.52746119999938,176.52746119999938,,004,P011,2025_Feb_08_1021,ConditionRich,2021.2.3,59.93550939186639,
143.0,143.75,3,0.75,Stimuli/P011/sun_afdaynbvsppiyvxm.jpg,0,0,0.0,0,248,248,248,,,,,,,,,,,,,143.00857929999984,0.00857929999983753,None,176.77767549999953,176.77767549999953,176.77767549999953,176.77767549999953,176.77767549999953,176.77767549999953,176.77767549999953,176.77767549999953,176.77767549999953,176.77767549999953,,004,P011,2025_Feb_08_1021,ConditionRich,2021.2.3,59.93550939186639,
143.75,144.0,41,0.0,Stimuli/Blank.png,0,0,0.0,0,249,249,249,,,,,,,,,,,,,143.75994229999924,0.009942299999238458,None,177.52843209999992,177.52843209999992,177.52843209999992,177.52843209999992,177.52843209999992,177.52843209999992,177.52843209999992,177.52843209999992,177.52843209999992,177.52843209999992,,004,P011,2025_Feb_08_1021,ConditionRich,2021.2.3,59.93550939186639,
144.0,144.75,14,0.75,Stimuli/P011/sun_blybvkoucskrdgiv.jpg,0,0,0.0,0,250,250,250,,,,,,,,,,,,,144.00991519999934,0.009915199999340985,None,177.7952507,177.7952507,177.7952507,177.7952507,177.7952507,177.7952507,177.7952507,177.7952507,177.7952507,177.7952507,,004,P011,2025_Feb_08_1021,ConditionRich,2021.2.3,59.93550939186639,
144.75,145.0,41,0.0,Stimuli/Blank.png,0,0,0.0,0,251,251,251,,,,,,,,,,,,,144.77777499999956,0.027774999999564898,None,178.54588869999952,178.54588869999952,178.54588869999952,178.54588869999952,178.54588869999952,178.54588869999952,178.54588869999952,178.54588869999952,178.54588869999952,178.54588869999952,,004,P011,2025_Feb_08_1021,ConditionRich,2021.2.3,59.93550939186639,
145.0,145.75,14,0.75,Stimuli/P011/sun_blybvkoucskrdgiv.jpg,0,0,0.0,0,252,252,252,,,,,,,,,,,,,145.01105069999994,0.011050699999941571,None,178.79612109999925,178.79612109999925,178.79612109999925,178.79612109999925,178.79612109999925,178.79612109999925,178.79612109999925,178.79612109999925,178.79612109999925,178.79612109999925,,004,P011,2025_Feb_08_1021,ConditionRich,2021.2.3,59.93550939186639,
145.75,146.0,41,0.0,Stimuli/Blank.png,0,0,0.0,0,253,253,253,,,,,,,,,,,,,145.77842339999916,0.028423399999155663,None,179.54679709999982,179.54679709999982,179.54679709999982,179.54679709999982,179.54679709999982,179.54679709999982,179.54679709999982,179.54679709999982,179.54679709999982,179.54679709999982,,004,P011,2025_Feb_08_1021,ConditionRich,2021.2.3,59.93550939186639,
146.0,146.75,14,0.75,Stimuli/P011/sun_blybvkoucskrdgiv.jpg,0,0,0.0,0,254,254,254,,,,,,,,,,,,,146.01148560000001,0.011485600000014529,None,179.78050369999983,179.78050369999983,179.78050369999983,179.78050369999983,179.78050369999983,179.78050369999983,179.78050369999983,179.78050369999983,179.78050369999983,179.78050369999983,,004,P011,2025_Feb_08_1021,ConditionRich,2021.2.3,59.93550939186639,
146.75,147.0,41,0.0,Stimuli/Blank.png,0,0,0.0,0,255,255,255,,,,,,,,,,,,,146.76252979999936,0.012529799999356328,None,180.53100429999995,180.53100429999995,180.53100429999995,180.53100429999995,180.53100429999995,180.53100429999995,180.53100429999995,180.53100429999995,180.53100429999995,180.53100429999995,,004,P011,2025_Feb_08_1021,ConditionRich,2021.2.3,59.93550939186639,
147.0,147.75,14,0.75,Stimuli/P011/sun_blybvkoucskrdgiv.jpg,0,0,0.0,0,256,256,256,,,,,,,,,,,,,147.01233409999986,0.012334099999861792,None,180.78121909999936,180.78121909999936,180.78121909999936,180.78121909999936,180.78121909999936,180.78121909999936,180.78121909999936,180.78121909999936,180.78121909999936,180.78121909999936,,004,P011,2025_Feb_08_1021,ConditionRich,2021.2.3,59.93550939186639,
147.75,148.0,41,0.0,Stimuli/Blank.png,0,0,0.0,0,257,257,257,,,,,,,,,,,,,147.7633825999992,0.013382599999204103,None,181.53189119999934,181.53189119999934,181.53189119999934,181.53189119999934,181.53189119999934,181.53189119999934,181.53189119999934,181.53189119999934,181.53189119999934,181.53189119999934,,004,P011,2025_Feb_08_1021,ConditionRich,2021.2.3,59.93550939186639,
148.0,148.75,18,0.75,Stimuli/P011/sun_bxlbxustiovyqyrg.jpg,0,0,0.0,0,258,258,258,,,,,,,,,,,,,148.0139104,0.013910399999986112,None,181.78210319999926,181.78210319999926,181.78210319999926,181.78210319999926,181.78210319999926,181.78210319999926,181.78210319999926,181.78210319999926,181.78210319999926,181.78210319999926,,004,P011,2025_Feb_08_1021,ConditionRich,2021.2.3,59.93550939186639,
148.75,149.0,41,0.0,Stimuli/Blank.png,0,0,0.0,0,259,259,259,,,,,,,,,,,,,148.76361449999968,0.0136144999996759,None,182.53275959999974,182.53275959999974,182.53275959999974,182.53275959999974,182.53275959999974,182.53275959999974,182.53275959999974,182.53275959999974,182.53275959999974,182.53275959999974,,004,P011,2025_Feb_08_1021,ConditionRich,2021.2.3,59.93550939186639,
149.0,149.75,18,0.75,Stimuli/P011/sun_bxlbxustiovyqyrg.jpg,1,0,0.75,0,260,260,260,,,,,,,,,,,,,149.0144550999994,0.014455099999395316,1,182.7996891999992,182.7996891999992,182.7996891999992,182.7996891999992,182.7996891999992,182.7996891999992,182.7996891999992,183.51697590000003,182.7996891999992,182.7996891999992,0.4793002999995224,004,P011,2025_Feb_08_1021,ConditionRich,2021.2.3,59.93550939186639,
149.75,150.0,41,0.0,Stimuli/Blank.png,0,0,0.0,0,261,261,261,,,,,,,,,,,,,149.78327539999918,0.03327539999918372,None,183.56704369999989,183.56704369999989,183.56704369999989,183.56704369999989,183.56704369999989,183.56704369999989,183.56704369999989,183.56704369999989,183.56704369999989,183.56704369999989,,004,P011,2025_Feb_08_1021,ConditionRich,2021.2.3,59.93550939186639,
