eventStartTime,eventEndTime,eventCond,imSize,imFile,responseEvent,fixRespStart,fixRespEnd,Events.thisRepN,Events.thisTrialN,Events.thisN,Events.thisIndex,Instructions.started,Instructions.stopped,participantReadyResponse.keys,participantReadyResponse.rt,participantReadyResponse.started,participantReadyResponse.stopped,startWaitforTrigger,triggerResponse.keys,triggerResponse.rt,triggerResponse.started,triggerResponse.stopped,globalTimer,actualStartTime,startTimingDiff,participantResponse.keys,participantResponse.started,participantResponse.stopped,image.started,image.stopped,fixationOutside.started,fixationOutside.stopped,fixationResponse.started,fixationResponse.stopped,fixationInside.started,fixationInside.stopped,participantResponse.rt,session,participant,date,expName,psychopyVersion,frameRate,
,,,,,,,,,,,,11.49835340000027,None,1,2.910979700000098,11.49835340000027,None,,,,,,,,,,,,,,,,,,,,,009,P011,2025_Feb_08_1103,ConditionRich,2021.2.3,59.92089243785749,
,,,,,,,,,,,,,,,,,,14.421542200000658,5,13.953869400000258,14.43428540000059,None,,,,,,,,,,,,,,,,009,P011,2025_Feb_08_1103,ConditionRich,2021.2.3,59.92089243785749,
0.0,4.0,0,0.0,Stimuli/Blank.png,0,0,0.0,0,0,0,0,,,,,,,,,,,,28.40009480000026,0.02817349999986618,0.02817349999986618,None,28.446675900000628,None,28.446675900000628,None,28.446675900000628,None,28.446675900000628,28.446675900000628,28.446675900000628,None,,009,P011,2025_Feb_08_1103,ConditionRich,2021.2.3,59.92089243785749,
4.0,7.75,38,0.75,Stimuli/P011/things_squeegee_06s.jpg,0,0,0.0,0,1,1,1,,,,,,,,,,,,,4.0239284999997835,0.023928499999783526,None,32.450509900000725,32.450509900000725,32.450509900000725,32.450509900000725,32.450509900000725,32.450509900000725,32.450509900000725,32.450509900000725,32.450509900000725,32.450509900000725,,009,P011,2025_Feb_08_1103,ConditionRich,2021.2.3,59.92089243785749,
7.75,8.0,41,0.0,Stimuli/Blank.png,0,0,0.0,0,2,2,2,,,,,,,,,,,,,7.772918299999219,0.022918299999219016,None,36.187139700000444,36.187139700000444,36.187139700000444,36.187139700000444,36.187139700000444,36.187139700000444,36.187139700000444,36.187139700000444,36.187139700000444,36.187139700000444,,009,P011,2025_Feb_08_1103,ConditionRich,2021.2.3,59.92089243785749,
8.0,11.75,37,0.75,Stimuli/P011/things_spam_06s.jpg,0,0,0.0,0,3,3,3,,,,,,,,,,,,,8.005607399999462,0.005607399999462359,None,36.42038910000065,36.42038910000065,36.42038910000065,36.42038910000065,36.42038910000065,36.42038910000065,36.42038910000065,36.42038910000065,36.42038910000065,36.42038910000065,,009,P011,2025_Feb_08_1103,ConditionRich,2021.2.3,59.92089243785749,
11.75,12.0,41,0.0,Stimuli/Blank.png,0,0,0.0,0,4,4,4,,,,,,,,,,,,,11.761974199999713,0.011974199999713164,None,40.190555700000004,40.190555700000004,40.190555700000004,40.190555700000004,40.190555700000004,40.190555700000004,40.190555700000004,40.190555700000004,40.190555700000004,40.190555700000004,,009,P011,2025_Feb_08_1103,ConditionRich,2021.2.3,59.92089243785749,
12.0,15.75,13,0.75,Stimuli/P011/sun_bjedvzikugwleyer.jpg,0,0,0.0,0,5,5,5,,,,,,,,,,,,,12.025885000000017,0.02588500000001659,None,40.44061440000041,40.44061440000041,40.44061440000041,40.44061440000041,40.44061440000041,40.44061440000041,40.44061440000041,40.44061440000041,40.44061440000041,40.44061440000041,,009,P011,2025_Feb_08_1103,ConditionRich,2021.2.3,59.92089243785749,
15.75,16.0,41,0.0,Stimuli/Blank.png,0,0,0.0,0,6,6,6,,,,,,,,,,,,,15.76267419999931,0.012674199999310076,None,44.1772488000006,44.1772488000006,44.1772488000006,44.1772488000006,44.1772488000006,44.1772488000006,44.1772488000006,44.1772488000006,44.1772488000006,44.1772488000006,,009,P011,2025_Feb_08_1103,ConditionRich,2021.2.3,59.92089243785749,
16.0,19.75,12,0.75,Stimuli/P011/sun_bcesifdfuidnkdhl.jpg,0,0,0.0,0,7,7,7,,,,,,,,,,,,,16.012939899999765,0.012939899999764748,None,44.42747340000005,44.42747340000005,44.42747340000005,44.42747340000005,44.42747340000005,44.42747340000005,44.42747340000005,44.42747340000005,44.42747340000005,44.42747340000005,,009,P011,2025_Feb_08_1103,ConditionRich,2021.2.3,59.92089243785749,
19.75,20.0,41,0.0,Stimuli/Blank.png,0,0,0.0,0,8,8,8,,,,,,,,,,,,,19.75185109999984,0.0018510999998397892,None,48.180798700000196,48.180798700000196,48.180798700000196,48.180798700000196,48.180798700000196,48.180798700000196,48.180798700000196,48.180798700000196,48.180798700000196,48.180798700000196,,009,P011,2025_Feb_08_1103,ConditionRich,2021.2.3,59.92089243785749,
20.0,23.75,6,0.75,Stimuli/P011/sun_aqysdudvyxnkcxgq.jpg,0,0,0.0,0,9,9,9,,,,,,,,,,,,,20.016258199999356,0.016258199999356293,None,48.43101470000056,48.43101470000056,48.43101470000056,48.43101470000056,48.43101470000056,48.43101470000056,48.43101470000056,48.43101470000056,48.43101470000056,48.43101470000056,,009,P011,2025_Feb_08_1103,ConditionRich,2021.2.3,59.92089243785749,
23.75,24.0,41,0.0,Stimuli/Blank.png,0,0,0.0,0,10,10,10,,,,,,,,,,,,,23.75374929999998,0.0037492999999813037,None,52.16766650000045,52.16766650000045,52.16766650000045,52.16766650000045,52.16766650000045,52.16766650000045,52.16766650000045,52.16766650000045,52.16766650000045,52.16766650000045,,009,P011,2025_Feb_08_1103,ConditionRich,2021.2.3,59.92089243785749,
24.0,27.75,10,0.75,Stimuli/P011/sun_awufkrkrdrdbvvis.jpg,0,0,0.0,0,11,11,11,,,,,,,,,,,,,24.003782499999943,0.0037824999999429565,None,52.41788120000001,52.41788120000001,52.41788120000001,52.41788120000001,52.41788120000001,52.41788120000001,52.41788120000001,52.41788120000001,52.41788120000001,52.41788120000001,,009,P011,2025_Feb_08_1103,ConditionRich,2021.2.3,59.92089243785749,
27.75,28.0,41,0.0,Stimuli/Blank.png,0,0,0.0,0,12,12,12,,,,,,,,,,,,,27.757357599999523,0.00735759999952279,None,56.17120220000015,56.17120220000015,56.17120220000015,56.17120220000015,56.17120220000015,56.17120220000015,56.17120220000015,56.17120220000015,56.17120220000015,56.17120220000015,,009,P011,2025_Feb_08_1103,ConditionRich,2021.2.3,59.92089243785749,
28.0,31.75,14,0.75,Stimuli/P011/sun_blybvkoucskrdgiv.jpg,0,0,0.0,0,13,13,13,,,,,,,,,,,,,28.007014299999355,0.007014299999354989,None,56.42141940000056,56.42141940000056,56.42141940000056,56.42141940000056,56.42141940000056,56.42141940000056,56.42141940000056,56.42141940000056,56.42141940000056,56.42141940000056,,009,P011,2025_Feb_08_1103,ConditionRich,2021.2.3,59.92089243785749,
31.75,32.0,41,0.0,Stimuli/Blank.png,0,0,0.0,0,14,14,14,,,,,,,,,,,,,31.76207499999964,0.012074999999640568,None,60.19143630000053,60.19143630000053,60.19143630000053,60.19143630000053,60.19143630000053,60.19143630000053,60.19143630000053,60.19143630000053,60.19143630000053,60.19143630000053,,009,P011,2025_Feb_08_1103,ConditionRich,2021.2.3,59.92089243785749,
32.0,35.75,15,0.75,Stimuli/P011/sun_bmngnyuahubpqroh.jpg,0,0,0.0,0,15,15,15,,,,,,,,,,,,,32.027581099999225,0.027581099999224534,None,60.441635700000006,60.441635700000006,60.441635700000006,60.441635700000006,60.441635700000006,60.441635700000006,60.441635700000006,60.441635700000006,60.441635700000006,60.441635700000006,,009,P011,2025_Feb_08_1103,ConditionRich,2021.2.3,59.92089243785749,
35.75,36.0,41,0.0,Stimuli/Blank.png,0,0,0.0,0,16,16,16,,,,,,,,,,,,,35.76653329999954,0.01653329999953712,None,64.19496150000032,64.19496150000032,64.19496150000032,64.19496150000032,64.19496150000032,64.19496150000032,64.19496150000032,64.19496150000032,64.19496150000032,64.19496150000032,,009,P011,2025_Feb_08_1103,ConditionRich,2021.2.3,59.92089243785749,
36.0,39.75,34,0.75,Stimuli/P011/things_polar_bear_06s.jpg,0,0,0.0,0,17,17,17,,,,,,,,,,,,,36.01380339999923,0.01380339999923308,None,64.42849660000047,64.42849660000047,64.42849660000047,64.42849660000047,64.42849660000047,64.42849660000047,64.42849660000047,64.42849660000047,64.42849660000047,64.42849660000047,,009,P011,2025_Feb_08_1103,ConditionRich,2021.2.3,59.92089243785749,
39.75,40.0,41,0.0,Stimuli/Blank.png,0,0,0.0,0,18,18,18,,,,,,,,,,,,,39.750608499999544,0.0006084999995437101,None,68.16513230000055,68.16513230000055,68.16513230000055,68.16513230000055,68.16513230000055,68.16513230000055,68.16513230000055,68.16513230000055,68.16513230000055,68.16513230000055,,009,P011,2025_Feb_08_1103,ConditionRich,2021.2.3,59.92089243785749,
40.0,43.75,25,0.75,Stimuli/P011/things_face_06s.jpg,0,0,0.0,0,19,19,19,,,,,,,,,,,,,40.00300419999985,0.0030041999998502433,None,68.4320660000003,68.4320660000003,68.4320660000003,68.4320660000003,68.4320660000003,68.4320660000003,68.4320660000003,68.4320660000003,68.4320660000003,68.4320660000003,,009,P011,2025_Feb_08_1103,ConditionRich,2021.2.3,59.92089243785749,
43.75,44.0,41,0.0,Stimuli/Blank.png,0,0,0.0,0,20,20,20,,,,,,,,,,,,,43.77110819999962,0.021108199999616772,None,72.18532400000004,72.18532400000004,72.18532400000004,72.18532400000004,72.18532400000004,72.18532400000004,72.18532400000004,72.18532400000004,72.18532400000004,72.18532400000004,,009,P011,2025_Feb_08_1103,ConditionRich,2021.2.3,59.92089243785749,
44.0,47.75,18,0.75,Stimuli/P011/sun_bxlbxustiovyqyrg.jpg,1,2,2.75,0,21,21,21,,,,,,,,,,,,,44.00502939999933,0.005029399999330053,1,72.43557820000024,72.43557820000024,72.43557820000024,72.43557820000024,72.43557820000024,72.43557820000024,74.40394930000002,75.15466760000072,72.43557820000024,72.43557820000024,2.4876147000004494,009,P011,2025_Feb_08_1103,ConditionRich,2021.2.3,59.92089243785749,
47.75,48.0,41,0.0,Stimuli/Blank.png,0,0,0.0,0,22,22,22,,,,,,,,,,,,,47.77427659999921,0.024276599999211612,None,76.18889459999991,76.18889459999991,76.18889459999991,76.18889459999991,76.18889459999991,76.18889459999991,76.18889459999991,76.18889459999991,76.18889459999991,76.18889459999991,,009,P011,2025_Feb_08_1103,ConditionRich,2021.2.3,59.92089243785749,
48.0,51.75,35,0.75,Stimuli/P011/things_raccoon_06n.jpg,1,0,0.75,0,23,23,23,,,,,,,,,,,,,48.00837539999975,0.008375399999749789,1,76.42263249999996,76.42263249999996,76.42263249999996,76.42263249999996,76.42263249999996,76.42263249999996,76.42263249999996,77.15641920000053,76.42263249999996,76.42263249999996,0.7157076000003144,009,P011,2025_Feb_08_1103,ConditionRich,2021.2.3,59.92089243785749,
51.75,52.0,41,0.0,Stimuli/Blank.png,0,0,0.0,0,24,24,24,,,,,,,,,,,,,51.76140159999977,0.011401599999771861,None,80.17576740000004,80.17576740000004,80.17576740000004,80.17576740000004,80.17576740000004,80.17576740000004,80.17576740000004,80.17576740000004,80.17576740000004,80.17576740000004,,009,P011,2025_Feb_08_1103,ConditionRich,2021.2.3,59.92089243785749,
52.0,55.75,39,0.75,Stimuli/P011/things_thermometer_06s.jpg,1,3,3.75,0,25,25,25,,,,,,,,,,,,,52.013799800000015,0.013799800000015239,1,80.44266380000045,80.44266380000045,80.44266380000045,80.44266380000045,80.44266380000045,80.44266380000045,83.42868679999992,None,80.44266380000045,80.44266380000045,3.4455928999996104,009,P011,2025_Feb_08_1103,ConditionRich,2021.2.3,59.92089243785749,
55.75,56.0,41,0.0,Stimuli/Blank.png,0,0,0.0,0,26,26,26,,,,,,,,,,,,,55.765671199999815,0.015671199999815144,None,84.17933930000072,84.17933930000072,84.17933930000072,84.17933930000072,84.17933930000072,84.17933930000072,84.17933930000072,84.17933930000072,84.17933930000072,84.17933930000072,,009,P011,2025_Feb_08_1103,ConditionRich,2021.2.3,59.92089243785749,
56.0,59.75,7,0.75,Stimuli/P011/sun_arugqgwhwdjxezyt.jpg,1,2,2.75,0,27,27,27,,,,,,,,,,,,,55.998323299999356,-0.0016767000006439048,1,84.41283780000049,84.41283780000049,84.41283780000049,84.41283780000049,84.41283780000049,84.41283780000049,86.39792380000017,87.14863980000064,84.41283780000049,84.41283780000049,2.372664100000293,009,P011,2025_Feb_08_1103,ConditionRich,2021.2.3,59.92089243785749,
59.75,60.0,41,0.0,Stimuli/Blank.png,0,0,0.0,0,28,28,28,,,,,,,,,,,,,59.75242079999953,0.0024207999995269347,None,88.16615960000036,88.16615960000036,88.16615960000036,88.16615960000036,88.16615960000036,88.16615960000036,88.16615960000036,88.16615960000036,88.16615960000036,88.16615960000036,,009,P011,2025_Feb_08_1103,ConditionRich,2021.2.3,59.92089243785749,
60.0,63.75,31,0.75,Stimuli/P011/things_hippopotamus_06s.jpg,0,0,0.0,0,29,29,29,,,,,,,,,,,,,60.002412099999674,0.0024120999996739556,None,88.41638620000049,88.41638620000049,88.41638620000049,88.41638620000049,88.41638620000049,88.41638620000049,88.41638620000049,88.41638620000049,88.41638620000049,88.41638620000049,,009,P011,2025_Feb_08_1103,ConditionRich,2021.2.3,59.92089243785749,
63.75,64.0,41,0.0,Stimuli/Blank.png,0,0,0.0,0,30,30,30,,,,,,,,,,,,,63.75797389999934,0.007973899999342393,None,92.18638290000035,92.18638290000035,92.18638290000035,92.18638290000035,92.18638290000035,92.18638290000035,92.18638290000035,92.18638290000035,92.18638290000035,92.18638290000035,,009,P011,2025_Feb_08_1103,ConditionRich,2021.2.3,59.92089243785749,
64.0,67.75,27,0.75,Stimuli/P011/things_girl_06s.jpg,0,0,0.0,0,31,31,31,,,,,,,,,,,,,64.02277289999984,0.022772899999836227,None,92.43660240000008,92.43660240000008,92.43660240000008,92.43660240000008,92.43660240000008,92.43660240000008,92.43660240000008,92.43660240000008,92.43660240000008,92.43660240000008,,009,P011,2025_Feb_08_1103,ConditionRich,2021.2.3,59.92089243785749,
67.75,68.0,41,0.0,Stimuli/Blank.png,0,0,0.0,0,32,32,32,,,,,,,,,,,,,67.75863519999984,0.00863519999984419,None,96.17322510000031,96.17322510000031,96.17322510000031,96.17322510000031,96.17322510000031,96.17322510000031,96.17322510000031,96.17322510000031,96.17322510000031,96.17322510000031,,009,P011,2025_Feb_08_1103,ConditionRich,2021.2.3,59.92089243785749,
68.0,71.75,5,0.75,Stimuli/P011/sun_anfwllcezhlypoti.jpg,0,0,0.0,0,33,33,33,,,,,,,,,,,,,68.00872469999922,0.00872469999922032,None,96.42346110000017,96.42346110000017,96.42346110000017,96.42346110000017,96.42346110000017,96.42346110000017,96.42346110000017,96.42346110000017,96.42346110000017,96.42346110000017,,009,P011,2025_Feb_08_1103,ConditionRich,2021.2.3,59.92089243785749,
71.75,72.0,41,0.0,Stimuli/Blank.png,0,0,0.0,0,34,34,34,,,,,,,,,,,,,71.7621681999999,0.012168199999905482,None,100.17675660000077,100.17675660000077,100.17675660000077,100.17675660000077,100.17675660000077,100.17675660000077,100.17675660000077,100.17675660000077,100.17675660000077,100.17675660000077,,009,P011,2025_Feb_08_1103,ConditionRich,2021.2.3,59.92089243785749,
72.0,75.75,30,0.75,Stimuli/P011/things_hamburger_06s.jpg,1,1,1.75,0,35,35,35,,,,,,,,,,,,,72.0124954999992,0.012495499999204185,1,100.42700180000065,100.42700180000065,100.42700180000065,100.42700180000065,100.42700180000065,100.42700180000065,101.41122720000021,102.16185720000067,100.42700180000065,100.42700180000065,2.2542828999994526,009,P011,2025_Feb_08_1103,ConditionRich,2021.2.3,59.92089243785749,
75.75,76.0,41,0.0,Stimuli/Blank.png,0,0,0.0,0,36,36,36,,,,,,,,,,,,,75.74900939999952,-0.0009906000004775706,None,104.16364180000073,104.16364180000073,104.16364180000073,104.16364180000073,104.16364180000073,104.16364180000073,104.16364180000073,104.16364180000073,104.16364180000073,104.16364180000073,,009,P011,2025_Feb_08_1103,ConditionRich,2021.2.3,59.92089243785749,
76.0,79.75,8,0.75,Stimuli/P011/sun_asppejhsplpizvag.jpg,0,0,0.0,0,37,37,37,,,,,,,,,,,,,76.00015529999928,0.00015529999927821336,None,104.43054310000025,104.43054310000025,104.43054310000025,104.43054310000025,104.43054310000025,104.43054310000025,104.43054310000025,104.43054310000025,104.43054310000025,104.43054310000025,,009,P011,2025_Feb_08_1103,ConditionRich,2021.2.3,59.92089243785749,
79.75,80.0,41,0.0,Stimuli/Blank.png,0,0,0.0,0,38,38,38,,,,,,,,,,,,,79.76907579999988,0.019075799999882292,None,108.18386340000052,108.18386340000052,108.18386340000052,108.18386340000052,108.18386340000052,108.18386340000052,108.18386340000052,108.18386340000052,108.18386340000052,108.18386340000052,,009,P011,2025_Feb_08_1103,ConditionRich,2021.2.3,59.92089243785749,
80.0,83.75,9,0.75,Stimuli/P011/sun_aupohozmrmtfgcsw.jpg,0,0,0.0,0,39,39,39,,,,,,,,,,,,,80.0035898999995,0.0035898999994969927,None,108.4174081000001,108.4174081000001,108.4174081000001,108.4174081000001,108.4174081000001,108.4174081000001,108.4174081000001,108.4174081000001,108.4174081000001,108.4174081000001,,009,P011,2025_Feb_08_1103,ConditionRich,2021.2.3,59.92089243785749,
83.75,84.0,41,0.0,Stimuli/Blank.png,0,0,0.0,0,40,40,40,,,,,,,,,,,,,83.75719509999999,0.007195099999989907,None,112.1707335000001,112.1707335000001,112.1707335000001,112.1707335000001,112.1707335000001,112.1707335000001,112.1707335000001,112.1707335000001,112.1707335000001,112.1707335000001,,009,P011,2025_Feb_08_1103,ConditionRich,2021.2.3,59.92089243785749,
84.0,100.0,0,0.0,Stimuli/Blank.png,1,10,10.75,0,41,41,41,,,,,,,,,,,,,84.0067669,0.006766900000002352,1,112.42094080000061,112.42094080000061,112.42094080000061,112.42094080000061,112.42094080000061,112.42094080000061,122.4131393000007,123.14709720000064,112.42094080000061,112.42094080000061,10.836501099999623,009,P011,2025_Feb_08_1103,ConditionRich,2021.2.3,59.92089243785749,
100.0,103.75,1,0.75,Stimuli/P011/sun_aeakbqnvptdnxtno.jpg,0,0,0.0,0,42,42,42,,,,,,,,,,,,,100.00380659999973,0.003806599999734317,None,128.41844670000046,128.41844670000046,128.41844670000046,128.41844670000046,128.41844670000046,128.41844670000046,128.41844670000046,128.41844670000046,128.41844670000046,128.41844670000046,,009,P011,2025_Feb_08_1103,ConditionRich,2021.2.3,59.92089243785749,
103.75,104.0,41,0.0,Stimuli/Blank.png,0,0,0.0,0,43,43,43,,,,,,,,,,,,,103.75758799999949,0.007587999999486783,None,132.17173860000003,132.17173860000003,132.17173860000003,132.17173860000003,132.17173860000003,132.17173860000003,132.17173860000003,132.17173860000003,132.17173860000003,132.17173860000003,,009,P011,2025_Feb_08_1103,ConditionRich,2021.2.3,59.92089243785749,
104.0,107.75,36,0.75,Stimuli/P011/things_shower_cap_06s.jpg,1,1,1.75,0,44,44,44,,,,,,,,,,,,,104.00780079999913,0.007800799999131414,1,132.42196289999993,132.42196289999993,132.42196289999993,132.42196289999993,132.42196289999993,132.42196289999993,133.40616790000058,134.15682210000068,132.42196289999993,132.42196289999993,1.4744573999996646,009,P011,2025_Feb_08_1103,ConditionRich,2021.2.3,59.92089243785749,
107.75,108.0,41,0.0,Stimuli/Blank.png,0,0,0.0,0,45,45,45,,,,,,,,,,,,,107.7623165999994,0.012316599999394384,None,136.1752879000005,136.1752879000005,136.1752879000005,136.1752879000005,136.1752879000005,136.1752879000005,136.1752879000005,136.1752879000005,136.1752879000005,136.1752879000005,,009,P011,2025_Feb_08_1103,ConditionRich,2021.2.3,59.92089243785749,
108.0,111.75,29,0.75,Stimuli/P011/things_gutter_06s.jpg,0,0,0.0,0,46,46,46,,,,,,,,,,,,,108.0107909999997,0.010790999999699125,None,136.42550690000007,136.42550690000007,136.42550690000007,136.42550690000007,136.42550690000007,136.42550690000007,136.42550690000007,136.42550690000007,136.42550690000007,136.42550690000007,,009,P011,2025_Feb_08_1103,ConditionRich,2021.2.3,59.92089243785749,
111.75,112.0,41,0.0,Stimuli/Blank.png,0,0,0.0,0,47,47,47,,,,,,,,,,,,,111.76411649999955,0.01411649999954534,None,140.1788271000005,140.1788271000005,140.1788271000005,140.1788271000005,140.1788271000005,140.1788271000005,140.1788271000005,140.1788271000005,140.1788271000005,140.1788271000005,,009,P011,2025_Feb_08_1103,ConditionRich,2021.2.3,59.92089243785749,
112.0,115.75,4,0.75,Stimuli/P011/sun_akpdzjejmtbfopdt.jpg,0,0,0.0,0,48,48,48,,,,,,,,,,,,,112.0173264999994,0.017326499999398948,None,140.44573149999997,140.44573149999997,140.44573149999997,140.44573149999997,140.44573149999997,140.44573149999997,140.44573149999997,140.44573149999997,140.44573149999997,140.44573149999997,,009,P011,2025_Feb_08_1103,ConditionRich,2021.2.3,59.92089243785749,
115.75,116.0,41,0.0,Stimuli/Blank.png,0,0,0.0,0,49,49,49,,,,,,,,,,,,,115.76770959999976,0.01770959999976185,None,144.18235630000072,144.18235630000072,144.18235630000072,144.18235630000072,144.18235630000072,144.18235630000072,144.18235630000072,144.18235630000072,144.18235630000072,144.18235630000072,,009,P011,2025_Feb_08_1103,ConditionRich,2021.2.3,59.92089243785749,
116.0,119.75,40,0.75,Stimuli/P011/things_woman_06s.jpg,0,0,0.0,0,50,50,50,,,,,,,,,,,,,116.00208229999953,0.0020822999995289138,None,144.4159023000002,144.4159023000002,144.4159023000002,144.4159023000002,144.4159023000002,144.4159023000002,144.4159023000002,144.4159023000002,144.4159023000002,144.4159023000002,,009,P011,2025_Feb_08_1103,ConditionRich,2021.2.3,59.92089243785749,
119.75,120.0,41,0.0,Stimuli/Blank.png,0,0,0.0,0,51,51,51,,,,,,,,,,,,,119.75689739999962,0.006897399999616027,None,148.1859156999999,148.1859156999999,148.1859156999999,148.1859156999999,148.1859156999999,148.1859156999999,148.1859156999999,148.1859156999999,148.1859156999999,148.1859156999999,,009,P011,2025_Feb_08_1103,ConditionRich,2021.2.3,59.92089243785749,
120.0,123.75,32,0.75,Stimuli/P011/things_hood_06s.jpg,0,0,0.0,0,52,52,52,,,,,,,,,,,,,120.02198999999928,0.021989999999277643,None,148.43613189999996,148.43613189999996,148.43613189999996,148.43613189999996,148.43613189999996,148.43613189999996,148.43613189999996,148.43613189999996,148.43613189999996,148.43613189999996,,009,P011,2025_Feb_08_1103,ConditionRich,2021.2.3,59.92089243785749,
123.75,124.0,41,0.0,Stimuli/Blank.png,0,0,0.0,0,53,53,53,,,,,,,,,,,,,123.75811429999976,0.008114299999760988,None,152.17273100000057,152.17273100000057,152.17273100000057,152.17273100000057,152.17273100000057,152.17273100000057,152.17273100000057,152.17273100000057,152.17273100000057,152.17273100000057,,009,P011,2025_Feb_08_1103,ConditionRich,2021.2.3,59.92089243785749,
124.0,127.75,28,0.75,Stimuli/P011/things_grasshopper_06s.jpg,0,0,0.0,0,54,54,54,,,,,,,,,,,,,124.00905479999983,0.00905479999983072,None,152.43967500000053,152.43967500000053,152.43967500000053,152.43967500000053,152.43967500000053,152.43967500000053,152.43967500000053,152.43967500000053,152.43967500000053,152.43967500000053,,009,P011,2025_Feb_08_1103,ConditionRich,2021.2.3,59.92089243785749,
127.75,128.0,41,0.0,Stimuli/Blank.png,0,0,0.0,0,55,55,55,,,,,,,,,,,,,127.77836439999919,0.028364399999190937,None,156.1929514000003,156.1929514000003,156.1929514000003,156.1929514000003,156.1929514000003,156.1929514000003,156.1929514000003,156.1929514000003,156.1929514000003,156.1929514000003,,009,P011,2025_Feb_08_1103,ConditionRich,2021.2.3,59.92089243785749,
128.0,131.75,16,0.75,Stimuli/P011/sun_bpuwvyadswjfoaby.jpg,0,0,0.0,0,56,56,56,,,,,,,,,,,,,128.0134995999997,0.013499599999704515,None,156.44322490000013,156.44322490000013,156.44322490000013,156.44322490000013,156.44322490000013,156.44322490000013,156.44322490000013,156.44322490000013,156.44322490000013,156.44322490000013,,009,P011,2025_Feb_08_1103,ConditionRich,2021.2.3,59.92089243785749,
131.75,132.0,41,0.0,Stimuli/Blank.png,0,0,0.0,0,57,57,57,,,,,,,,,,,,,131.76796719999948,0.01796719999947527,None,160.1965396000005,160.1965396000005,160.1965396000005,160.1965396000005,160.1965396000005,160.1965396000005,160.1965396000005,160.1965396000005,160.1965396000005,160.1965396000005,,009,P011,2025_Feb_08_1103,ConditionRich,2021.2.3,59.92089243785749,
132.0,135.75,21,0.75,Stimuli/P011/things_baby_06s.jpg,0,0,0.0,0,58,58,58,,,,,,,,,,,,,132.01686749999953,0.01686749999953463,None,160.44676729999992,160.44676729999992,160.44676729999992,160.44676729999992,160.44676729999992,160.44676729999992,160.44676729999992,160.44676729999992,160.44676729999992,160.44676729999992,,009,P011,2025_Feb_08_1103,ConditionRich,2021.2.3,59.92089243785749,
135.75,136.0,41,0.0,Stimuli/Blank.png,0,0,0.0,0,59,59,59,,,,,,,,,,,,,135.76878709999983,0.01878709999982675,None,164.18338519999998,164.18338519999998,164.18338519999998,164.18338519999998,164.18338519999998,164.18338519999998,164.18338519999998,164.18338519999998,164.18338519999998,164.18338519999998,,009,P011,2025_Feb_08_1103,ConditionRich,2021.2.3,59.92089243785749,
136.0,139.75,11,0.75,Stimuli/P011/sun_baylllqlgfvxilor.jpg,0,0,0.0,0,60,60,60,,,,,,,,,,,,,136.0025625999997,0.0025625999996918836,None,164.4169236000007,164.4169236000007,164.4169236000007,164.4169236000007,164.4169236000007,164.4169236000007,164.4169236000007,164.4169236000007,164.4169236000007,164.4169236000007,,009,P011,2025_Feb_08_1103,ConditionRich,2021.2.3,59.92089243785749,
139.75,140.0,41,0.0,Stimuli/Blank.png,0,0,0.0,0,61,61,61,,,,,,,,,,,,,139.75549369999953,0.005493699999533419,None,168.17022030000044,168.17022030000044,168.17022030000044,168.17022030000044,168.17022030000044,168.17022030000044,168.17022030000044,168.17022030000044,168.17022030000044,168.17022030000044,,009,P011,2025_Feb_08_1103,ConditionRich,2021.2.3,59.92089243785749,
140.0,143.75,17,0.75,Stimuli/P011/sun_btvwhlxbhcqnqzok.jpg,0,0,0.0,0,62,62,62,,,,,,,,,,,,,140.00644289999946,0.006442899999456131,None,168.4371473000001,168.4371473000001,168.4371473000001,168.4371473000001,168.4371473000001,168.4371473000001,168.4371473000001,168.4371473000001,168.4371473000001,168.4371473000001,,009,P011,2025_Feb_08_1103,ConditionRich,2021.2.3,59.92089243785749,
143.75,144.0,41,0.0,Stimuli/Blank.png,0,0,0.0,0,63,63,63,,,,,,,,,,,,,143.77653049999935,0.026530499999353196,None,172.19047090000004,172.19047090000004,172.19047090000004,172.19047090000004,172.19047090000004,172.19047090000004,172.19047090000004,172.19047090000004,172.19047090000004,172.19047090000004,,009,P011,2025_Feb_08_1103,ConditionRich,2021.2.3,59.92089243785749,
144.0,147.75,2,0.75,Stimuli/P011/sun_aewhvqonribwlxiq.jpg,1,2,2.75,0,64,64,64,,,,,,,,,,,,,144.0099814999994,0.009981499999412335,1,172.42401830000017,172.42401830000017,172.42401830000017,172.42401830000017,172.42401830000017,172.42401830000017,174.40906670000004,175.1597582000004,172.42401830000017,172.42401830000017,2.4182813999996142,009,P011,2025_Feb_08_1103,ConditionRich,2021.2.3,59.92089243785749,
147.75,148.0,41,0.0,Stimuli/Blank.png,0,0,0.0,0,65,65,65,,,,,,,,,,,,,147.76260569999977,0.01260569999976724,None,176.17732740000065,176.17732740000065,176.17732740000065,176.17732740000065,176.17732740000065,176.17732740000065,176.17732740000065,176.17732740000065,176.17732740000065,176.17732740000065,,009,P011,2025_Feb_08_1103,ConditionRich,2021.2.3,59.92089243785749,
148.0,151.75,33,0.75,Stimuli/P011/things_hot-air_balloon_06s.jpg,0,0,0.0,0,66,66,66,,,,,,,,,,,,,148.01289199999974,0.012891999999737891,None,176.42754850000074,176.42754850000074,176.42754850000074,176.42754850000074,176.42754850000074,176.42754850000074,176.42754850000074,176.42754850000074,176.42754850000074,176.42754850000074,,009,P011,2025_Feb_08_1103,ConditionRich,2021.2.3,59.92089243785749,
151.75,152.0,41,0.0,Stimuli/Blank.png,0,0,0.0,0,67,67,67,,,,,,,,,,,,,151.75019969999994,0.00019969999993918464,None,180.1642055000002,180.1642055000002,180.1642055000002,180.1642055000002,180.1642055000002,180.1642055000002,180.1642055000002,180.1642055000002,180.1642055000002,180.1642055000002,,009,P011,2025_Feb_08_1103,ConditionRich,2021.2.3,59.92089243785749,
152.0,155.75,20,0.75,Stimuli/P011/sun_ciifteeudwpxupnw.jpg,1,2,2.75,0,68,68,68,,,,,,,,,,,,,152.00194319999991,0.0019431999999142135,1,180.43111090000002,180.43111090000002,180.43111090000002,180.43111090000002,180.43111090000002,180.43111090000002,182.41617250000036,183.16683680000006,180.43111090000002,180.43111090000002,2.390187699999842,009,P011,2025_Feb_08_1103,ConditionRich,2021.2.3,59.92089243785749,
155.75,156.0,41,0.0,Stimuli/Blank.png,0,0,0.0,0,69,69,69,,,,,,,,,,,,,155.77129249999962,0.021292499999617576,None,184.1844269000003,184.1844269000003,184.1844269000003,184.1844269000003,184.1844269000003,184.1844269000003,184.1844269000003,184.1844269000003,184.1844269000003,184.1844269000003,,009,P011,2025_Feb_08_1103,ConditionRich,2021.2.3,59.92089243785749,
156.0,159.75,22,0.75,Stimuli/P011/things_boy_06s.jpg,0,0,0.0,0,70,70,70,,,,,,,,,,,,,156.00322699999924,0.0032269999992422527,None,184.41795120000006,184.41795120000006,184.41795120000006,184.41795120000006,184.41795120000006,184.41795120000006,184.41795120000006,184.41795120000006,184.41795120000006,184.41795120000006,,009,P011,2025_Feb_08_1103,ConditionRich,2021.2.3,59.92089243785749,
159.75,160.0,41,0.0,Stimuli/Blank.png,0,0,0.0,0,71,71,71,,,,,,,,,,,,,159.75759039999957,0.007590399999571673,None,188.17127299999993,188.17127299999993,188.17127299999993,188.17127299999993,188.17127299999993,188.17127299999993,188.17127299999993,188.17127299999993,188.17127299999993,188.17127299999993,,009,P011,2025_Feb_08_1103,ConditionRich,2021.2.3,59.92089243785749,
160.0,163.75,3,0.75,Stimuli/P011/sun_afdaynbvsppiyvxm.jpg,0,0,0.0,0,72,72,72,,,,,,,,,,,,,160.0077913999994,0.007791399999405257,None,188.4214918000007,188.4214918000007,188.4214918000007,188.4214918000007,188.4214918000007,188.4214918000007,188.4214918000007,188.4214918000007,188.4214918000007,188.4214918000007,,009,P011,2025_Feb_08_1103,ConditionRich,2021.2.3,59.92089243785749,
163.75,164.0,41,0.0,Stimuli/Blank.png,0,0,0.0,0,73,73,73,,,,,,,,,,,,,163.76296659999934,0.012966599999344908,None,192.19149520000065,192.19149520000065,192.19149520000065,192.19149520000065,192.19149520000065,192.19149520000065,192.19149520000065,192.19149520000065,192.19149520000065,192.19149520000065,,009,P011,2025_Feb_08_1103,ConditionRich,2021.2.3,59.92089243785749,
164.0,167.75,26,0.75,Stimuli/P011/things_gazelle_06s.jpg,0,0,0.0,0,74,74,74,,,,,,,,,,,,,164.02777359999982,0.027773599999818543,None,192.4417168,192.4417168,192.4417168,192.4417168,192.4417168,192.4417168,192.4417168,192.4417168,192.4417168,192.4417168,,009,P011,2025_Feb_08_1103,ConditionRich,2021.2.3,59.92089243785749,
167.75,168.0,41,0.0,Stimuli/Blank.png,0,0,0.0,0,75,75,75,,,,,,,,,,,,,167.76360889999978,0.013608899999780988,None,196.1783304999999,196.1783304999999,196.1783304999999,196.1783304999999,196.1783304999999,196.1783304999999,196.1783304999999,196.1783304999999,196.1783304999999,196.1783304999999,,009,P011,2025_Feb_08_1103,ConditionRich,2021.2.3,59.92089243785749,
168.0,171.75,24,0.75,Stimuli/P011/things_doily_06s.jpg,0,0,0.0,0,76,76,76,,,,,,,,,,,,,168.01684059999934,0.016840599999341066,None,196.44525410000006,196.44525410000006,196.44525410000006,196.44525410000006,196.44525410000006,196.44525410000006,196.44525410000006,196.44525410000006,196.44525410000006,196.44525410000006,,009,P011,2025_Feb_08_1103,ConditionRich,2021.2.3,59.92089243785749,
171.75,172.0,41,0.0,Stimuli/Blank.png,0,0,0.0,0,77,77,77,,,,,,,,,,,,,171.76727199999914,0.017271999999138643,None,200.18189690000054,200.18189690000054,200.18189690000054,200.18189690000054,200.18189690000054,200.18189690000054,200.18189690000054,200.18189690000054,200.18189690000054,200.18189690000054,,009,P011,2025_Feb_08_1103,ConditionRich,2021.2.3,59.92089243785749,
172.0,175.75,23,0.75,Stimuli/P011/things_clove_06s.jpg,0,0,0.0,0,78,78,78,,,,,,,,,,,,,172.0027640999997,0.0027640999996947357,None,200.43211150000025,200.43211150000025,200.43211150000025,200.43211150000025,200.43211150000025,200.43211150000025,200.43211150000025,200.43211150000025,200.43211150000025,200.43211150000025,,009,P011,2025_Feb_08_1103,ConditionRich,2021.2.3,59.92089243785749,
175.75,176.0,41,0.0,Stimuli/Blank.png,0,0,0.0,0,79,79,79,,,,,,,,,,,,,175.77084859999923,0.02084859999922628,None,204.18544180000026,204.18544180000026,204.18544180000026,204.18544180000026,204.18544180000026,204.18544180000026,204.18544180000026,204.18544180000026,204.18544180000026,204.18544180000026,,009,P011,2025_Feb_08_1103,ConditionRich,2021.2.3,59.92089243785749,
176.0,179.75,19,0.75,Stimuli/P011/sun_byvwakrdyukjigpc.jpg,1,3,3.75,0,80,80,80,,,,,,,,,,,,,176.0058294999999,0.005829499999890686,1,204.4356673000002,204.4356673000002,204.4356673000002,204.4356673000002,204.4356673000002,204.4356673000002,207.42162630000075,208.15559870000016,204.4356673000002,204.4356673000002,3.409650800000236,009,P011,2025_Feb_08_1103,ConditionRich,2021.2.3,59.92089243785749,
179.75,180.0,41,0.0,Stimuli/Blank.png,0,0,0.0,0,81,81,81,,,,,,,,,,,,,179.77510209999946,0.025102099999458005,None,208.18898650000028,208.18898650000028,208.18898650000028,208.18898650000028,208.18898650000028,208.18898650000028,208.18898650000028,208.18898650000028,208.18898650000028,208.18898650000028,,009,P011,2025_Feb_08_1103,ConditionRich,2021.2.3,59.92089243785749,
180.0,196.0,0,0.0,Stimuli/Blank.png,1,13,13.75,0,82,82,82,,,,,,,,,,,,,180.00788609999927,0.007886099999268481,1,208.42257900000004,208.42257900000004,208.42257900000004,208.42257900000004,208.42257900000004,208.42257900000004,221.40080430000035,222.15133060000062,208.42257900000004,208.42257900000004,13.473700800000188,009,P011,2025_Feb_08_1103,ConditionRich,2021.2.3,59.92089243785749,
196.0,199.75,28,0.75,Stimuli/P011/things_grasshopper_06s.jpg,1,3,3.75,0,83,83,83,,,,,,,,,,,,,196.00627709999935,0.006277099999351776,1,224.436694,224.436694,224.436694,224.436694,224.436694,224.436694,227.40596989999995,228.15661940000064,224.436694,224.436694,3.4017672999998467,009,P011,2025_Feb_08_1103,ConditionRich,2021.2.3,59.92089243785749,
199.75,200.0,41,0.0,Stimuli/Blank.png,0,0,0.0,0,84,84,84,,,,,,,,,,,,,199.77739499999916,0.027394999999160063,None,228.2066947000003,228.2066947000003,228.2066947000003,228.2066947000003,228.2066947000003,228.2066947000003,228.2066947000003,228.2066947000003,228.2066947000003,228.2066947000003,,009,P011,2025_Feb_08_1103,ConditionRich,2021.2.3,59.92089243785749,
200.0,203.75,17,0.75,Stimuli/P011/sun_btvwhlxbhcqnqzok.jpg,0,0,0.0,0,85,85,85,,,,,,,,,,,,,200.02716319999945,0.027163199999449716,None,228.4569158000004,228.4569158000004,228.4569158000004,228.4569158000004,228.4569158000004,228.4569158000004,228.4569158000004,228.4569158000004,228.4569158000004,228.4569158000004,,009,P011,2025_Feb_08_1103,ConditionRich,2021.2.3,59.92089243785749,
203.75,204.0,41,0.0,Stimuli/Blank.png,0,0,0.0,0,86,86,86,,,,,,,,,,,,,203.77882189999946,0.028821899999456946,None,232.1935368000004,232.1935368000004,232.1935368000004,232.1935368000004,232.1935368000004,232.1935368000004,232.1935368000004,232.1935368000004,232.1935368000004,232.1935368000004,,009,P011,2025_Feb_08_1103,ConditionRich,2021.2.3,59.92089243785749,
204.0,207.75,1,0.75,Stimuli/P011/sun_aeakbqnvptdnxtno.jpg,1,1,1.75,0,87,87,87,,,,,,,,,,,,,204.0125541999996,0.012554199999613047,1,232.4270778,232.4270778,232.4270778,232.4270778,232.4270778,232.4270778,233.41128920000028,234.16193580000072,232.4270778,232.4270778,1.3683358999996926,009,P011,2025_Feb_08_1103,ConditionRich,2021.2.3,59.92089243785749,
207.75,208.0,41,0.0,Stimuli/Blank.png,0,0,0.0,0,88,88,88,,,,,,,,,,,,,207.75200809999933,0.0020080999993297155,None,236.18040030000066,236.18040030000066,236.18040030000066,236.18040030000066,236.18040030000066,236.18040030000066,236.18040030000066,236.18040030000066,236.18040030000066,236.18040030000066,,009,P011,2025_Feb_08_1103,ConditionRich,2021.2.3,59.92089243785749,
208.0,211.75,37,0.75,Stimuli/P011/things_spam_06s.jpg,0,0,0.0,0,89,89,89,,,,,,,,,,,,,208.01688459999968,0.016884599999684724,None,236.44729439999992,236.44729439999992,236.44729439999992,236.44729439999992,236.44729439999992,236.44729439999992,236.44729439999992,236.44729439999992,236.44729439999992,236.44729439999992,,009,P011,2025_Feb_08_1103,ConditionRich,2021.2.3,59.92089243785749,
211.75,212.0,41,0.0,Stimuli/Blank.png,0,0,0.0,0,90,90,90,,,,,,,,,,,,,211.77012149999973,0.020121499999731896,None,240.1839525000005,240.1839525000005,240.1839525000005,240.1839525000005,240.1839525000005,240.1839525000005,240.1839525000005,240.1839525000005,240.1839525000005,240.1839525000005,,009,P011,2025_Feb_08_1103,ConditionRich,2021.2.3,59.92089243785749,
212.0,215.75,16,0.75,Stimuli/P011/sun_bpuwvyadswjfoaby.jpg,0,0,0.0,0,91,91,91,,,,,,,,,,,,,212.0035825999994,0.003582599999390368,None,240.4341613000006,240.4341613000006,240.4341613000006,240.4341613000006,240.4341613000006,240.4341613000006,240.4341613000006,240.4341613000006,240.4341613000006,240.4341613000006,,009,P011,2025_Feb_08_1103,ConditionRich,2021.2.3,59.92089243785749,
215.75,216.0,41,0.0,Stimuli/Blank.png,0,0,0.0,0,92,92,92,,,,,,,,,,,,,215.7728193999992,0.022819399999207235,None,244.18750570000066,244.18750570000066,244.18750570000066,244.18750570000066,244.18750570000066,244.18750570000066,244.18750570000066,244.18750570000066,244.18750570000066,244.18750570000066,,009,P011,2025_Feb_08_1103,ConditionRich,2021.2.3,59.92089243785749,
216.0,219.75,24,0.75,Stimuli/P011/things_doily_06s.jpg,0,0,0.0,0,93,93,93,,,,,,,,,,,,,216.0069670999992,0.006967099999201309,None,244.43772059999992,244.43772059999992,244.43772059999992,244.43772059999992,244.43772059999992,244.43772059999992,244.43772059999992,244.43772059999992,244.43772059999992,244.43772059999992,,009,P011,2025_Feb_08_1103,ConditionRich,2021.2.3,59.92089243785749,
219.75,220.0,41,0.0,Stimuli/Blank.png,0,0,0.0,0,94,94,94,,,,,,,,,,,,,219.77631889999975,0.02631889999975101,None,248.19102120000025,248.19102120000025,248.19102120000025,248.19102120000025,248.19102120000025,248.19102120000025,248.19102120000025,248.19102120000025,248.19102120000025,248.19102120000025,,009,P011,2025_Feb_08_1103,ConditionRich,2021.2.3,59.92089243785749,
220.0,223.75,34,0.75,Stimuli/P011/things_polar_bear_06s.jpg,1,3,3.75,0,95,95,95,,,,,,,,,,,,,220.0109837,0.010983699999997043,1,248.42456380000021,248.42456380000021,248.42456380000021,248.42456380000021,248.42456380000021,248.42456380000021,251.41053360000024,252.16119400000025,248.42456380000021,248.42456380000021,3.394978899999842,009,P011,2025_Feb_08_1103,ConditionRich,2021.2.3,59.92089243785749,
223.75,224.0,41,0.0,Stimuli/Blank.png,0,0,0.0,0,96,96,96,,,,,,,,,,,,,223.76389479999943,0.013894799999434326,None,252.17787410000074,252.17787410000074,252.17787410000074,252.17787410000074,252.17787410000074,252.17787410000074,252.17787410000074,252.17787410000074,252.17787410000074,252.17787410000074,,009,P011,2025_Feb_08_1103,ConditionRich,2021.2.3,59.92089243785749,
224.0,227.75,10,0.75,Stimuli/P011/sun_awufkrkrdrdbvvis.jpg,0,0,0.0,0,97,97,97,,,,,,,,,,,,,224.01352679999945,0.013526799999453942,None,252.42809490000036,252.42809490000036,252.42809490000036,252.42809490000036,252.42809490000036,252.42809490000036,252.42809490000036,252.42809490000036,252.42809490000036,252.42809490000036,,009,P011,2025_Feb_08_1103,ConditionRich,2021.2.3,59.92089243785749,
227.75,228.0,41,0.0,Stimuli/Blank.png,0,0,0.0,0,98,98,98,,,,,,,,,,,,,227.7513597999996,0.001359799999590905,None,256.1647458000007,256.1647458000007,256.1647458000007,256.1647458000007,256.1647458000007,256.1647458000007,256.1647458000007,256.1647458000007,256.1647458000007,256.1647458000007,,009,P011,2025_Feb_08_1103,ConditionRich,2021.2.3,59.92089243785749,
228.0,231.75,20,0.75,Stimuli/P011/sun_ciifteeudwpxupnw.jpg,0,0,0.0,0,99,99,99,,,,,,,,,,,,,228.00241199999982,0.002411999999822001,None,256.4316494000004,256.4316494000004,256.4316494000004,256.4316494000004,256.4316494000004,256.4316494000004,256.4316494000004,256.4316494000004,256.4316494000004,256.4316494000004,,009,P011,2025_Feb_08_1103,ConditionRich,2021.2.3,59.92089243785749,
231.75,232.0,41,0.0,Stimuli/Blank.png,0,0,0.0,0,100,100,100,,,,,,,,,,,,,231.77300189999914,0.02300189999914437,None,260.20163780000075,260.20163780000075,260.20163780000075,260.20163780000075,260.20163780000075,260.20163780000075,260.20163780000075,260.20163780000075,260.20163780000075,260.20163780000075,,009,P011,2025_Feb_08_1103,ConditionRich,2021.2.3,59.92089243785749,
232.0,235.75,23,0.75,Stimuli/P011/things_clove_06s.jpg,0,0,0.0,0,101,101,101,,,,,,,,,,,,,232.0214747,0.021474699999998847,None,260.45188770000004,260.45188770000004,260.45188770000004,260.45188770000004,260.45188770000004,260.45188770000004,260.45188770000004,260.45188770000004,260.45188770000004,260.45188770000004,,009,P011,2025_Feb_08_1103,ConditionRich,2021.2.3,59.92089243785749,
235.75,236.0,41,0.0,Stimuli/Blank.png,0,0,0.0,0,102,102,102,,,,,,,,,,,,,235.77759369999967,0.027593699999670207,None,264.2052104000004,264.2052104000004,264.2052104000004,264.2052104000004,264.2052104000004,264.2052104000004,264.2052104000004,264.2052104000004,264.2052104000004,264.2052104000004,,009,P011,2025_Feb_08_1103,ConditionRich,2021.2.3,59.92089243785749,
236.0,239.75,12,0.75,Stimuli/P011/sun_bcesifdfuidnkdhl.jpg,0,0,0.0,0,103,103,103,,,,,,,,,,,,,236.02391759999955,0.023917599999549566,None,264.4387187000002,264.4387187000002,264.4387187000002,264.4387187000002,264.4387187000002,264.4387187000002,264.4387187000002,264.4387187000002,264.4387187000002,264.4387187000002,,009,P011,2025_Feb_08_1103,ConditionRich,2021.2.3,59.92089243785749,
239.75,240.0,41,0.0,Stimuli/Blank.png,0,0,0.0,0,104,104,104,,,,,,,,,,,,,239.76094209999974,0.010942099999738275,None,268.1753662000001,268.1753662000001,268.1753662000001,268.1753662000001,268.1753662000001,268.1753662000001,268.1753662000001,268.1753662000001,268.1753662000001,268.1753662000001,,009,P011,2025_Feb_08_1103,ConditionRich,2021.2.3,59.92089243785749,
240.0,243.75,21,0.75,Stimuli/P011/things_baby_06s.jpg,0,0,0.0,0,105,105,105,,,,,,,,,,,,,240.01170509999974,0.011705099999744562,None,268.4256046999999,268.4256046999999,268.4256046999999,268.4256046999999,268.4256046999999,268.4256046999999,268.4256046999999,268.4256046999999,268.4256046999999,268.4256046999999,,009,P011,2025_Feb_08_1103,ConditionRich,2021.2.3,59.92089243785749,
243.75,244.0,41,0.0,Stimuli/Blank.png,0,0,0.0,0,106,106,106,,,,,,,,,,,,,243.76571859999967,0.015718599999672733,None,272.17891529999997,272.17891529999997,272.17891529999997,272.17891529999997,272.17891529999997,272.17891529999997,272.17891529999997,272.17891529999997,272.17891529999997,272.17891529999997,,009,P011,2025_Feb_08_1103,ConditionRich,2021.2.3,59.92089243785749,
244.0,247.75,2,0.75,Stimuli/P011/sun_aewhvqonribwlxiq.jpg,0,0,0.0,0,107,107,107,,,,,,,,,,,,,244.00013449999915,0.00013449999914882937,None,272.42913970000063,272.42913970000063,272.42913970000063,272.42913970000063,272.42913970000063,272.42913970000063,272.42913970000063,272.42913970000063,272.42913970000063,272.42913970000063,,009,P011,2025_Feb_08_1103,ConditionRich,2021.2.3,59.92089243785749,
247.75,248.0,41,0.0,Stimuli/Blank.png,0,0,0.0,0,108,108,108,,,,,,,,,,,,,247.7679038999995,0.01790389999951003,None,276.18243880000045,276.18243880000045,276.18243880000045,276.18243880000045,276.18243880000045,276.18243880000045,276.18243880000045,276.18243880000045,276.18243880000045,276.18243880000045,,009,P011,2025_Feb_08_1103,ConditionRich,2021.2.3,59.92089243785749,
248.0,251.75,35,0.75,Stimuli/P011/things_raccoon_06n.jpg,0,0,0.0,0,109,109,109,,,,,,,,,,,,,248.00136869999915,0.0013686999991477933,None,276.41597660000025,276.41597660000025,276.41597660000025,276.41597660000025,276.41597660000025,276.41597660000025,276.41597660000025,276.41597660000025,276.41597660000025,276.41597660000025,,009,P011,2025_Feb_08_1103,ConditionRich,2021.2.3,59.92089243785749,
251.75,252.0,41,0.0,Stimuli/Blank.png,0,0,0.0,0,110,110,110,,,,,,,,,,,,,251.75557429999935,0.005574299999352661,None,280.1693036000006,280.1693036000006,280.1693036000006,280.1693036000006,280.1693036000006,280.1693036000006,280.1693036000006,280.1693036000006,280.1693036000006,280.1693036000006,,009,P011,2025_Feb_08_1103,ConditionRich,2021.2.3,59.92089243785749,
252.0,255.75,30,0.75,Stimuli/P011/things_hamburger_06s.jpg,0,0,0.0,0,111,111,111,,,,,,,,,,,,,252.00547469999947,0.005474699999467703,None,280.43619800000033,280.43619800000033,280.43619800000033,280.43619800000033,280.43619800000033,280.43619800000033,280.43619800000033,280.43619800000033,280.43619800000033,280.43619800000033,,009,P011,2025_Feb_08_1103,ConditionRich,2021.2.3,59.92089243785749,
255.75,256.0,41,0.0,Stimuli/Blank.png,0,0,0.0,0,112,112,112,,,,,,,,,,,,,255.77588659999947,0.025886599999466853,None,284.18953600000077,284.18953600000077,284.18953600000077,284.18953600000077,284.18953600000077,284.18953600000077,284.18953600000077,284.18953600000077,284.18953600000077,284.18953600000077,,009,P011,2025_Feb_08_1103,ConditionRich,2021.2.3,59.92089243785749,
256.0,259.75,13,0.75,Stimuli/P011/sun_bjedvzikugwleyer.jpg,1,3,3.75,0,113,113,113,,,,,,,,,,,,,256.0103159999999,0.010315999999875203,1,284.43975560000035,284.43975560000035,284.43975560000035,284.43975560000035,284.43975560000035,284.43975560000035,287.42577580000034,288.1763748000003,284.43975560000035,284.43975560000035,3.3856316000001243,009,P011,2025_Feb_08_1103,ConditionRich,2021.2.3,59.92089243785749,
259.75,260.0,41,0.0,Stimuli/Blank.png,0,0,0.0,0,114,114,114,,,,,,,,,,,,,259.78111379999973,0.031113799999729963,None,288.2097509000005,288.2097509000005,288.2097509000005,288.2097509000005,288.2097509000005,288.2097509000005,288.2097509000005,288.2097509000005,288.2097509000005,288.2097509000005,,009,P011,2025_Feb_08_1103,ConditionRich,2021.2.3,59.92089243785749,
260.0,263.75,19,0.75,Stimuli/P011/sun_byvwakrdyukjigpc.jpg,0,0,0.0,0,115,115,115,,,,,,,,,,,,,260.0292884999999,0.029288499999893247,None,288.4600623000006,288.4600623000006,288.4600623000006,288.4600623000006,288.4600623000006,288.4600623000006,288.4600623000006,288.4600623000006,288.4600623000006,288.4600623000006,,009,P011,2025_Feb_08_1103,ConditionRich,2021.2.3,59.92089243785749,
263.75,264.0,41,0.0,Stimuli/Blank.png,0,0,0.0,0,116,116,116,,,,,,,,,,,,,263.7653714999997,0.015371499999673688,None,292.17992290000075,292.17992290000075,292.17992290000075,292.17992290000075,292.17992290000075,292.17992290000075,292.17992290000075,292.17992290000075,292.17992290000075,292.17992290000075,,009,P011,2025_Feb_08_1103,ConditionRich,2021.2.3,59.92089243785749,
264.0,267.75,6,0.75,Stimuli/P011/sun_aqysdudvyxnkcxgq.jpg,0,0,0.0,0,117,117,117,,,,,,,,,,,,,264.01626379999925,0.016263799999251205,None,292.4468487000004,292.4468487000004,292.4468487000004,292.4468487000004,292.4468487000004,292.4468487000004,292.4468487000004,292.4468487000004,292.4468487000004,292.4468487000004,,009,P011,2025_Feb_08_1103,ConditionRich,2021.2.3,59.92089243785749,
267.75,268.0,41,0.0,Stimuli/Blank.png,0,0,0.0,0,118,118,118,,,,,,,,,,,,,267.7696186999992,0.01961869999922783,None,296.18348030000016,296.18348030000016,296.18348030000016,296.18348030000016,296.18348030000016,296.18348030000016,296.18348030000016,296.18348030000016,296.18348030000016,296.18348030000016,,009,P011,2025_Feb_08_1103,ConditionRich,2021.2.3,59.92089243785749,
268.0,271.75,25,0.75,Stimuli/P011/things_face_06s.jpg,0,0,0.0,0,119,119,119,,,,,,,,,,,,,268.004817,0.004817000000002736,None,296.4336935000001,296.4336935000001,296.4336935000001,296.4336935000001,296.4336935000001,296.4336935000001,296.4336935000001,296.4336935000001,296.4336935000001,296.4336935000001,,009,P011,2025_Feb_08_1103,ConditionRich,2021.2.3,59.92089243785749,
271.75,272.0,41,0.0,Stimuli/Blank.png,0,0,0.0,0,120,120,120,,,,,,,,,,,,,271.7751249999992,0.02512499999920692,None,300.20368959999996,300.20368959999996,300.20368959999996,300.20368959999996,300.20368959999996,300.20368959999996,300.20368959999996,300.20368959999996,300.20368959999996,300.20368959999996,,009,P011,2025_Feb_08_1103,ConditionRich,2021.2.3,59.92089243785749,
272.0,275.75,5,0.75,Stimuli/P011/sun_anfwllcezhlypoti.jpg,0,0,0.0,0,121,121,121,,,,,,,,,,,,,272.0235671999999,0.023567199999888544,None,300.4539134000006,300.4539134000006,300.4539134000006,300.4539134000006,300.4539134000006,300.4539134000006,300.4539134000006,300.4539134000006,300.4539134000006,300.4539134000006,,009,P011,2025_Feb_08_1103,ConditionRich,2021.2.3,59.92089243785749,
275.75,276.0,41,0.0,Stimuli/Blank.png,0,0,0.0,0,122,122,122,,,,,,,,,,,,,275.77593479999996,0.02593479999995907,None,304.1905469000003,304.1905469000003,304.1905469000003,304.1905469000003,304.1905469000003,304.1905469000003,304.1905469000003,304.1905469000003,304.1905469000003,304.1905469000003,,009,P011,2025_Feb_08_1103,ConditionRich,2021.2.3,59.92089243785749,
276.0,292.0,0,0.0,Stimuli/Blank.png,1,12,12.75,0,123,123,123,,,,,,,,,,,,,276.01002809999954,0.010028099999544793,1,304.42408330000035,304.42408330000035,304.42408330000035,304.42408330000035,304.42408330000035,304.42408330000035,316.40138490000027,317.1520631000003,304.42408330000035,304.42408330000035,12.849653000000217,009,P011,2025_Feb_08_1103,ConditionRich,2021.2.3,59.92089243785749,
292.0,295.75,4,0.75,Stimuli/P011/sun_akpdzjejmtbfopdt.jpg,1,3,3.75,0,124,124,124,,,,,,,,,,,,,292.00685949999934,0.006859499999336549,1,320.42157040000075,320.42157040000075,320.42157040000075,320.42157040000075,320.42157040000075,320.42157040000075,323.407553,324.15822449999996,320.42157040000075,320.42157040000075,3.4399411000003965,009,P011,2025_Feb_08_1103,ConditionRich,2021.2.3,59.92089243785749,
295.75,296.0,41,0.0,Stimuli/Blank.png,0,0,0.0,0,125,125,125,,,,,,,,,,,,,295.7610414999999,0.011041499999919324,None,324.1748942000004,324.1748942000004,324.1748942000004,324.1748942000004,324.1748942000004,324.1748942000004,324.1748942000004,324.1748942000004,324.1748942000004,324.1748942000004,,009,P011,2025_Feb_08_1103,ConditionRich,2021.2.3,59.92089243785749,
296.0,299.75,26,0.75,Stimuli/P011/things_gazelle_06s.jpg,0,0,0.0,0,126,126,126,,,,,,,,,,,,,296.01075219999984,0.01075219999984256,None,324.4251109000006,324.4251109000006,324.4251109000006,324.4251109000006,324.4251109000006,324.4251109000006,324.4251109000006,324.4251109000006,324.4251109000006,324.4251109000006,,009,P011,2025_Feb_08_1103,ConditionRich,2021.2.3,59.92089243785749,
299.75,300.0,41,0.0,Stimuli/Blank.png,0,0,0.0,0,127,127,127,,,,,,,,,,,,,299.7638288999997,0.013828899999680289,None,328.1784354000001,328.1784354000001,328.1784354000001,328.1784354000001,328.1784354000001,328.1784354000001,328.1784354000001,328.1784354000001,328.1784354000001,328.1784354000001,,009,P011,2025_Feb_08_1103,ConditionRich,2021.2.3,59.92089243785749,
300.0,303.75,15,0.75,Stimuli/P011/sun_bmngnyuahubpqroh.jpg,0,0,0.0,0,128,128,128,,,,,,,,,,,,,300.0146672999999,0.014667299999928218,None,328.4453366000007,328.4453366000007,328.4453366000007,328.4453366000007,328.4453366000007,328.4453366000007,328.4453366000007,328.4453366000007,328.4453366000007,328.4453366000007,,009,P011,2025_Feb_08_1103,ConditionRich,2021.2.3,59.92089243785749,
303.75,304.0,41,0.0,Stimuli/Blank.png,0,0,0.0,0,129,129,129,,,,,,,,,,,,,303.7671343999991,0.017134399999122252,None,332.18198200000006,332.18198200000006,332.18198200000006,332.18198200000006,332.18198200000006,332.18198200000006,332.18198200000006,332.18198200000006,332.18198200000006,332.18198200000006,,009,P011,2025_Feb_08_1103,ConditionRich,2021.2.3,59.92089243785749,
304.0,307.75,14,0.75,Stimuli/P011/sun_blybvkoucskrdgiv.jpg,0,0,0.0,0,130,130,130,,,,,,,,,,,,,304.00152199999957,0.0015219999995679245,None,332.4155049000001,332.4155049000001,332.4155049000001,332.4155049000001,332.4155049000001,332.4155049000001,332.4155049000001,332.4155049000001,332.4155049000001,332.4155049000001,,009,P011,2025_Feb_08_1103,ConditionRich,2021.2.3,59.92089243785749,
307.75,308.0,41,0.0,Stimuli/Blank.png,0,0,0.0,0,131,131,131,,,,,,,,,,,,,307.7548008999993,0.0048008999992816825,None,336.16883230000076,336.16883230000076,336.16883230000076,336.16883230000076,336.16883230000076,336.16883230000076,336.16883230000076,336.16883230000076,336.16883230000076,336.16883230000076,,009,P011,2025_Feb_08_1103,ConditionRich,2021.2.3,59.92089243785749,
308.0,311.75,31,0.75,Stimuli/P011/things_hippopotamus_06s.jpg,0,0,0.0,0,132,132,132,,,,,,,,,,,,,308.0058036999999,0.005803699999887613,None,336.43577390000064,336.43577390000064,336.43577390000064,336.43577390000064,336.43577390000064,336.43577390000064,336.43577390000064,336.43577390000064,336.43577390000064,336.43577390000064,,009,P011,2025_Feb_08_1103,ConditionRich,2021.2.3,59.92089243785749,
311.75,312.0,41,0.0,Stimuli/Blank.png,0,0,0.0,0,133,133,133,,,,,,,,,,,,,311.7744385999995,0.024438599999484723,None,340.1890529000002,340.1890529000002,340.1890529000002,340.1890529000002,340.1890529000002,340.1890529000002,340.1890529000002,340.1890529000002,340.1890529000002,340.1890529000002,,009,P011,2025_Feb_08_1103,ConditionRich,2021.2.3,59.92089243785749,
312.0,315.75,3,0.75,Stimuli/P011/sun_afdaynbvsppiyvxm.jpg,0,0,0.0,0,134,134,134,,,,,,,,,,,,,312.00973129999966,0.009731299999657494,None,340.4392678000004,340.4392678000004,340.4392678000004,340.4392678000004,340.4392678000004,340.4392678000004,340.4392678000004,340.4392678000004,340.4392678000004,340.4392678000004,,009,P011,2025_Feb_08_1103,ConditionRich,2021.2.3,59.92089243785749,
315.75,316.0,41,0.0,Stimuli/Blank.png,0,0,0.0,0,135,135,135,,,,,,,,,,,,,315.7800989999996,0.030098999999609077,None,344.2093209000004,344.2093209000004,344.2093209000004,344.2093209000004,344.2093209000004,344.2093209000004,344.2093209000004,344.2093209000004,344.2093209000004,344.2093209000004,,009,P011,2025_Feb_08_1103,ConditionRich,2021.2.3,59.92089243785749,
316.0,319.75,33,0.75,Stimuli/P011/things_hot-air_balloon_06s.jpg,0,0,0.0,0,136,136,136,,,,,,,,,,,,,316.0310026999996,0.031002699999589822,None,344.45951070000046,344.45951070000046,344.45951070000046,344.45951070000046,344.45951070000046,344.45951070000046,344.45951070000046,344.45951070000046,344.45951070000046,344.45951070000046,,009,P011,2025_Feb_08_1103,ConditionRich,2021.2.3,59.92089243785749,
319.75,320.0,41,0.0,Stimuli/Blank.png,0,0,0.0,0,137,137,137,,,,,,,,,,,,,319.76522169999953,0.015221699999528937,None,348.1794452000004,348.1794452000004,348.1794452000004,348.1794452000004,348.1794452000004,348.1794452000004,348.1794452000004,348.1794452000004,348.1794452000004,348.1794452000004,,009,P011,2025_Feb_08_1103,ConditionRich,2021.2.3,59.92089243785749,
320.0,323.75,11,0.75,Stimuli/P011/sun_baylllqlgfvxilor.jpg,1,3,3.75,0,138,138,138,,,,,,,,,,,,,320.01628059999985,0.016280599999845435,1,348.4464145000002,348.4464145000002,348.4464145000002,348.4464145000002,348.4464145000002,348.4464145000002,351.41568220000045,352.1663472,348.4464145000002,348.4464145000002,3.3480325999998968,009,P011,2025_Feb_08_1103,ConditionRich,2021.2.3,59.92089243785749,
323.75,324.0,41,0.0,Stimuli/Blank.png,0,0,0.0,0,139,139,139,,,,,,,,,,,,,323.77114879999954,0.021148799999537005,None,352.19972270000017,352.19972270000017,352.19972270000017,352.19972270000017,352.19972270000017,352.19972270000017,352.19972270000017,352.19972270000017,352.19972270000017,352.19972270000017,,009,P011,2025_Feb_08_1103,ConditionRich,2021.2.3,59.92089243785749,
324.0,327.75,38,0.75,Stimuli/P011/things_squeegee_06s.jpg,0,0,0.0,0,140,140,140,,,,,,,,,,,,,324.01919259999977,0.0191925999997693,None,352.44990080000025,352.44990080000025,352.44990080000025,352.44990080000025,352.44990080000025,352.44990080000025,352.44990080000025,352.44990080000025,352.44990080000025,352.44990080000025,,009,P011,2025_Feb_08_1103,ConditionRich,2021.2.3,59.92089243785749,
327.75,328.0,41,0.0,Stimuli/Blank.png,0,0,0.0,0,141,141,141,,,,,,,,,,,,,327.7723443999994,0.022344399999383313,None,356.18654080000033,356.18654080000033,356.18654080000033,356.18654080000033,356.18654080000033,356.18654080000033,356.18654080000033,356.18654080000033,356.18654080000033,356.18654080000033,,009,P011,2025_Feb_08_1103,ConditionRich,2021.2.3,59.92089243785749,
328.0,331.75,29,0.75,Stimuli/P011/things_gutter_06s.jpg,1,0,0.75,0,142,142,142,,,,,,,,,,,,,328.0054234999998,0.005423499999778869,1,356.4200752000006,356.4200752000006,356.4200752000006,356.4200752000006,356.4200752000006,356.4200752000006,356.4200752000006,357.1540520000008,356.4200752000006,356.4200752000006,0.6674179999999978,009,P011,2025_Feb_08_1103,ConditionRich,2021.2.3,59.92089243785749,
331.75,332.0,41,0.0,Stimuli/Blank.png,0,0,0.0,0,143,143,143,,,,,,,,,,,,,331.7598374999998,0.0098374999997759,None,360.17338590000054,360.17338590000054,360.17338590000054,360.17338590000054,360.17338590000054,360.17338590000054,360.17338590000054,360.17338590000054,360.17338590000054,360.17338590000054,,009,P011,2025_Feb_08_1103,ConditionRich,2021.2.3,59.92089243785749,
332.0,335.75,9,0.75,Stimuli/P011/sun_aupohozmrmtfgcsw.jpg,1,3,3.75,0,144,144,144,,,,,,,,,,,,,332.00994059999994,0.00994059999993624,1,360.44030999999995,360.44030999999995,360.44030999999995,360.44030999999995,360.44030999999995,360.44030999999995,363.4095797,364.16023720000067,360.44030999999995,360.44030999999995,3.4191397000004145,009,P011,2025_Feb_08_1103,ConditionRich,2021.2.3,59.92089243785749,
335.75,336.0,41,0.0,Stimuli/Blank.png,0,0,0.0,0,145,145,145,,,,,,,,,,,,,335.77964019999945,0.02964019999944867,None,364.1936228000004,364.1936228000004,364.1936228000004,364.1936228000004,364.1936228000004,364.1936228000004,364.1936228000004,364.1936228000004,364.1936228000004,364.1936228000004,,009,P011,2025_Feb_08_1103,ConditionRich,2021.2.3,59.92089243785749,
336.0,339.75,7,0.75,Stimuli/P011/sun_arugqgwhwdjxezyt.jpg,0,0,0.0,0,146,146,146,,,,,,,,,,,,,336.0131724999992,0.013172499999200227,None,364.4438284000007,364.4438284000007,364.4438284000007,364.4438284000007,364.4438284000007,364.4438284000007,364.4438284000007,364.4438284000007,364.4438284000007,364.4438284000007,,009,P011,2025_Feb_08_1103,ConditionRich,2021.2.3,59.92089243785749,
339.75,340.0,41,0.0,Stimuli/Blank.png,0,0,0.0,0,147,147,147,,,,,,,,,,,,,339.7658857999995,0.015885799999523442,None,368.18047690000003,368.18047690000003,368.18047690000003,368.18047690000003,368.18047690000003,368.18047690000003,368.18047690000003,368.18047690000003,368.18047690000003,368.18047690000003,,009,P011,2025_Feb_08_1103,ConditionRich,2021.2.3,59.92089243785749,
340.0,343.75,22,0.75,Stimuli/P011/things_boy_06s.jpg,1,3,3.75,0,148,148,148,,,,,,,,,,,,,339.99988719999965,-0.00011280000035185367,1,368.4140111000006,368.4140111000006,368.4140111000006,368.4140111000006,368.4140111000006,368.4140111000006,371.3999764,372.15071460000036,368.4140111000006,368.4140111000006,3.3917611999995643,009,P011,2025_Feb_08_1103,ConditionRich,2021.2.3,59.92089243785749,
343.75,344.0,41,0.0,Stimuli/Blank.png,0,0,0.0,0,149,149,149,,,,,,,,,,,,,343.75521259999914,0.005212599999140366,None,372.18402400000014,372.18402400000014,372.18402400000014,372.18402400000014,372.18402400000014,372.18402400000014,372.18402400000014,372.18402400000014,372.18402400000014,372.18402400000014,,009,P011,2025_Feb_08_1103,ConditionRich,2021.2.3,59.92089243785749,
344.0,347.75,32,0.75,Stimuli/P011/things_hood_06s.jpg,0,0,0.0,0,150,150,150,,,,,,,,,,,,,344.02020469999934,0.020204699999339937,None,372.4342376000004,372.4342376000004,372.4342376000004,372.4342376000004,372.4342376000004,372.4342376000004,372.4342376000004,372.4342376000004,372.4342376000004,372.4342376000004,,009,P011,2025_Feb_08_1103,ConditionRich,2021.2.3,59.92089243785749,
347.75,348.0,41,0.0,Stimuli/Blank.png,0,0,0.0,0,151,151,151,,,,,,,,,,,,,347.75624959999914,0.00624959999913699,None,376.17087320000064,376.17087320000064,376.17087320000064,376.17087320000064,376.17087320000064,376.17087320000064,376.17087320000064,376.17087320000064,376.17087320000064,376.17087320000064,,009,P011,2025_Feb_08_1103,ConditionRich,2021.2.3,59.92089243785749,
348.0,351.75,39,0.75,Stimuli/P011/things_thermometer_06s.jpg,0,0,0.0,0,152,152,152,,,,,,,,,,,,,348.0073223999998,0.007322399999793561,None,376.4377708000002,376.4377708000002,376.4377708000002,376.4377708000002,376.4377708000002,376.4377708000002,376.4377708000002,376.4377708000002,376.4377708000002,376.4377708000002,,009,P011,2025_Feb_08_1103,ConditionRich,2021.2.3,59.92089243785749,
351.75,352.0,41,0.0,Stimuli/Blank.png,0,0,0.0,0,153,153,153,,,,,,,,,,,,,351.7763273999999,0.02632739999990008,None,380.19109690000005,380.19109690000005,380.19109690000005,380.19109690000005,380.19109690000005,380.19109690000005,380.19109690000005,380.19109690000005,380.19109690000005,380.19109690000005,,009,P011,2025_Feb_08_1103,ConditionRich,2021.2.3,59.92089243785749,
352.0,355.75,36,0.75,Stimuli/P011/things_shower_cap_06s.jpg,0,0,0.0,0,154,154,154,,,,,,,,,,,,,352.01083069999913,0.010830699999132776,None,380.44132510000054,380.44132510000054,380.44132510000054,380.44132510000054,380.44132510000054,380.44132510000054,380.44132510000054,380.44132510000054,380.44132510000054,380.44132510000054,,009,P011,2025_Feb_08_1103,ConditionRich,2021.2.3,59.92089243785749,
355.75,356.0,41,0.0,Stimuli/Blank.png,0,0,0.0,0,155,155,155,,,,,,,,,,,,,355.7817525999999,0.03175259999989066,None,384.2113349000001,384.2113349000001,384.2113349000001,384.2113349000001,384.2113349000001,384.2113349000001,384.2113349000001,384.2113349000001,384.2113349000001,384.2113349000001,,009,P011,2025_Feb_08_1103,ConditionRich,2021.2.3,59.92089243785749,
356.0,359.75,8,0.75,Stimuli/P011/sun_asppejhsplpizvag.jpg,0,0,0.0,0,156,156,156,,,,,,,,,,,,,356.030941,0.030940999999984342,None,384.46154000000024,384.46154000000024,384.46154000000024,384.46154000000024,384.46154000000024,384.46154000000024,384.46154000000024,384.46154000000024,384.46154000000024,384.46154000000024,,009,P011,2025_Feb_08_1103,ConditionRich,2021.2.3,59.92089243785749,
359.75,360.0,41,0.0,Stimuli/Blank.png,0,0,0.0,0,157,157,157,,,,,,,,,,,,,359.7670843999995,0.017084399999475863,None,388.1814979999999,388.1814979999999,388.1814979999999,388.1814979999999,388.1814979999999,388.1814979999999,388.1814979999999,388.1814979999999,388.1814979999999,388.1814979999999,,009,P011,2025_Feb_08_1103,ConditionRich,2021.2.3,59.92089243785749,
360.0,363.75,40,0.75,Stimuli/P011/things_woman_06s.jpg,0,0,0.0,0,158,158,158,,,,,,,,,,,,,360.0011455999993,0.0011455999992904253,None,388.41503720000037,388.41503720000037,388.41503720000037,388.41503720000037,388.41503720000037,388.41503720000037,388.41503720000037,388.41503720000037,388.41503720000037,388.41503720000037,,009,P011,2025_Feb_08_1103,ConditionRich,2021.2.3,59.92089243785749,
363.75,364.0,41,0.0,Stimuli/Blank.png,0,0,0.0,0,159,159,159,,,,,,,,,,,,,363.75434269999914,0.004342699999142496,None,392.1683612000006,392.1683612000006,392.1683612000006,392.1683612000006,392.1683612000006,392.1683612000006,392.1683612000006,392.1683612000006,392.1683612000006,392.1683612000006,,009,P011,2025_Feb_08_1103,ConditionRich,2021.2.3,59.92089243785749,
364.0,367.75,27,0.75,Stimuli/P011/things_girl_06s.jpg,0,0,0.0,0,160,160,160,,,,,,,,,,,,,364.00457989999995,0.004579899999953341,None,392.41857230000005,392.41857230000005,392.41857230000005,392.41857230000005,392.41857230000005,392.41857230000005,392.41857230000005,392.41857230000005,392.41857230000005,392.41857230000005,,009,P011,2025_Feb_08_1103,ConditionRich,2021.2.3,59.92089243785749,
367.75,368.0,41,0.0,Stimuli/Blank.png,0,0,0.0,0,161,161,161,,,,,,,,,,,,,367.75714639999933,0.007146399999328423,None,396.1719128000004,396.1719128000004,396.1719128000004,396.1719128000004,396.1719128000004,396.1719128000004,396.1719128000004,396.1719128000004,396.1719128000004,396.1719128000004,,009,P011,2025_Feb_08_1103,ConditionRich,2021.2.3,59.92089243785749,
368.0,371.75,18,0.75,Stimuli/P011/sun_bxlbxustiovyqyrg.jpg,0,0,0.0,0,162,162,162,,,,,,,,,,,,,368.0081468999997,0.008146899999701418,None,396.43884290000005,396.43884290000005,396.43884290000005,396.43884290000005,396.43884290000005,396.43884290000005,396.43884290000005,396.43884290000005,396.43884290000005,396.43884290000005,,009,P011,2025_Feb_08_1103,ConditionRich,2021.2.3,59.92089243785749,
371.75,372.0,41,0.0,Stimuli/Blank.png,0,0,0.0,0,163,163,163,,,,,,,,,,,,,371.7777286999999,0.0277286999998978,None,400.1921210999999,400.1921210999999,400.1921210999999,400.1921210999999,400.1921210999999,400.1921210999999,400.1921210999999,400.1921210999999,400.1921210999999,400.1921210999999,,009,P011,2025_Feb_08_1103,ConditionRich,2021.2.3,59.92089243785749,
372.0,388.0,0,0.0,Stimuli/Blank.png,1,13,13.75,0,164,164,164,,,,,,,,,,,,,372.0110167999992,0.011016799999197247,1,400.4256582000007,400.4256582000007,400.4256582000007,400.4256582000007,400.4256582000007,400.4256582000007,413.4038061000001,414.15445420000015,400.4256582000007,400.4256582000007,13.456956899999568,009,P011,2025_Feb_08_1103,ConditionRich,2021.2.3,59.92089243785749,
