eventStartTime,eventEndTime,eventCond,imSize,imFile,responseEvent,fixRespStart,fixRespEnd,Events.thisRepN,Events.thisTrialN,Events.thisN,Events.thisIndex,Instructions.started,Instructions.stopped,participantReadyResponse.keys,participantReadyResponse.rt,participantReadyResponse.started,participantReadyResponse.stopped,startWaitforTrigger,triggerResponse.keys,triggerResponse.rt,triggerResponse.started,triggerResponse.stopped,globalTimer,actualStartTime,startTimingDiff,participantResponse.keys,participantResponse.started,participantResponse.stopped,image.started,image.stopped,fixationOutside.started,fixationOutside.stopped,fixationResponse.started,fixationResponse.stopped,fixationInside.started,fixationInside.stopped,participantResponse.rt,session,participant,date,expName,psychopyVersion,frameRate,
,,,,,,,,,,,,19.0397753999996,None,1,0.6906988999999157,19.0397753999996,None,,,,,,,,,,,,,,,,,,,,,008,P011,2025_Feb_08_1056,ConditionRich,2021.2.3,60.243105026092024,
,,,,,,,,,,,,,,,,,,19.73711639999965,5,16.052449599999818,19.749809599999935,None,,,,,,,,,,,,,,,,008,P011,2025_Feb_08_1056,ConditionRich,2021.2.3,60.243105026092024,
0.0,4.0,0,0.0,Stimuli/Blank.png,0,0.0,0.0,0,0,0,0,,,,,,,,,,,,35.817372100000284,0.05123439999988477,0.05123439999988477,None,35.89736520000042,None,35.89736520000042,None,35.89736520000042,None,35.89736520000042,35.89736520000042,35.89736520000042,None,,008,P011,2025_Feb_08_1056,ConditionRich,2021.2.3,60.243105026092024,
4.0,4.75,38,0.75,Stimuli/P011/things_squeegee_06s.jpg,0,0.0,0.0,0,1,1,1,,,,,,,,,,,,,4.021297500000401,0.02129750000040076,None,39.86780960000033,39.86780960000033,39.86780960000033,39.86780960000033,39.86780960000033,39.86780960000033,39.86780960000033,39.86780960000033,39.86780960000033,39.86780960000033,,008,P011,2025_Feb_08_1056,ConditionRich,2021.2.3,60.243105026092024,
4.75,8.0,41,0.0,Stimuli/Blank.png,0,0.0,0.0,0,2,2,2,,,,,,,,,,,,,4.770312200000262,0.020312200000262237,None,40.60181029999967,40.60181029999967,40.60181029999967,40.60181029999967,40.60181029999967,40.60181029999967,40.60181029999967,40.60181029999967,40.60181029999967,40.60181029999967,,008,P011,2025_Feb_08_1056,ConditionRich,2021.2.3,60.243105026092024,
8.0,8.75,37,0.75,Stimuli/P011/things_spam_06s.jpg,0,0.0,0.0,0,3,3,3,,,,,,,,,,,,,8.006419899999855,0.006419899999855261,None,43.85443010000017,43.85443010000017,43.85443010000017,43.85443010000017,43.85443010000017,43.85443010000017,43.85443010000017,43.85443010000017,43.85443010000017,43.85443010000017,,008,P011,2025_Feb_08_1056,ConditionRich,2021.2.3,60.243105026092024,
8.75,12.0,41,0.0,Stimuli/Blank.png,0,0.0,0.0,0,4,4,4,,,,,,,,,,,,,8.773775700000442,0.023775700000442157,None,44.605034299999716,44.605034299999716,44.605034299999716,44.605034299999716,44.605034299999716,44.605034299999716,44.605034299999716,44.605034299999716,44.605034299999716,44.605034299999716,,008,P011,2025_Feb_08_1056,ConditionRich,2021.2.3,60.243105026092024,
12.0,12.75,8,0.75,Stimuli/P011/sun_asppejhsplpizvag.jpg,0,0.0,0.0,0,5,5,5,,,,,,,,,,,,,12.009770100000424,0.009770100000423554,None,47.841264200000296,47.841264200000296,47.841264200000296,47.841264200000296,47.841264200000296,47.841264200000296,47.841264200000296,47.841264200000296,47.841264200000296,47.841264200000296,,008,P011,2025_Feb_08_1056,ConditionRich,2021.2.3,60.243105026092024,
12.75,16.0,41,0.0,Stimuli/Blank.png,1,2.25,3.0,0,6,6,6,,,,,,,,,,,,,12.759891800000332,0.009891800000332296,1,48.591921600000205,48.591921600000205,48.591921600000205,48.591921600000205,48.591921600000205,48.591921600000205,50.82733040000039,51.57793820000006,48.591921600000205,48.591921600000205,2.794020299999829,008,P011,2025_Feb_08_1056,ConditionRich,2021.2.3,60.243105026092024,
16.0,16.75,19,0.75,Stimuli/P011/sun_byvwakrdyukjigpc.jpg,0,0.0,0.0,0,7,7,7,,,,,,,,,,,,,16.012963500000296,0.012963500000296335,None,51.84479910000027,51.84479910000027,51.84479910000027,51.84479910000027,51.84479910000027,51.84479910000027,51.84479910000027,51.84479910000027,51.84479910000027,51.84479910000027,,008,P011,2025_Feb_08_1056,ConditionRich,2021.2.3,60.243105026092024,
16.75,20.0,41,0.0,Stimuli/Blank.png,0,0.0,0.0,0,8,8,8,,,,,,,,,,,,,16.764098800000284,0.014098800000283518,None,52.595475899999656,52.595475899999656,52.595475899999656,52.595475899999656,52.595475899999656,52.595475899999656,52.595475899999656,52.595475899999656,52.595475899999656,52.595475899999656,,008,P011,2025_Feb_08_1056,ConditionRich,2021.2.3,60.243105026092024,
20.0,20.75,36,0.75,Stimuli/P011/things_shower_cap_06s.jpg,0,0.0,0.0,0,9,9,9,,,,,,,,,,,,,19.999682399999983,-0.0003176000000166823,None,55.83166280000023,55.83166280000023,55.83166280000023,55.83166280000023,55.83166280000023,55.83166280000023,55.83166280000023,55.83166280000023,55.83166280000023,55.83166280000023,,008,P011,2025_Feb_08_1056,ConditionRich,2021.2.3,60.243105026092024,
20.75,24.0,41,0.0,Stimuli/Blank.png,0,0.0,0.0,0,10,10,10,,,,,,,,,,,,,20.750493900000038,0.0004939000000376836,None,56.58232769999995,56.58232769999995,56.58232769999995,56.58232769999995,56.58232769999995,56.58232769999995,56.58232769999995,56.58232769999995,56.58232769999995,56.58232769999995,,008,P011,2025_Feb_08_1056,ConditionRich,2021.2.3,60.243105026092024,
24.0,24.75,26,0.75,Stimuli/P011/things_gazelle_06s.jpg,0,0.0,0.0,0,11,11,11,,,,,,,,,,,,,24.003882500000145,0.003882500000145228,None,59.83520219999991,59.83520219999991,59.83520219999991,59.83520219999991,59.83520219999991,59.83520219999991,59.83520219999991,59.83520219999991,59.83520219999991,59.83520219999991,,008,P011,2025_Feb_08_1056,ConditionRich,2021.2.3,60.243105026092024,
24.75,28.0,41,0.0,Stimuli/Blank.png,0,0.0,0.0,0,12,12,12,,,,,,,,,,,,,24.754898199999843,0.0048981999998432,None,60.58670859999984,60.58670859999984,60.58670859999984,60.58670859999984,60.58670859999984,60.58670859999984,60.58670859999984,60.58670859999984,60.58670859999984,60.58670859999984,,008,P011,2025_Feb_08_1056,ConditionRich,2021.2.3,60.243105026092024,
28.0,28.75,11,0.75,Stimuli/P011/sun_baylllqlgfvxilor.jpg,0,0.0,0.0,0,13,13,13,,,,,,,,,,,,,28.007214199999908,0.007214199999907578,None,63.85544209999989,63.85544209999989,63.85544209999989,63.85544209999989,63.85544209999989,63.85544209999989,63.85544209999989,63.85544209999989,63.85544209999989,63.85544209999989,,008,P011,2025_Feb_08_1056,ConditionRich,2021.2.3,60.243105026092024,
28.75,32.0,41,0.0,Stimuli/Blank.png,0,0.0,0.0,0,14,14,14,,,,,,,,,,,,,28.775692500000332,0.025692500000332075,None,64.62277030000041,64.62277030000041,64.62277030000041,64.62277030000041,64.62277030000041,64.62277030000041,64.62277030000041,64.62277030000041,64.62277030000041,64.62277030000041,,008,P011,2025_Feb_08_1056,ConditionRich,2021.2.3,60.243105026092024,
32.0,32.75,12,0.75,Stimuli/P011/sun_bcesifdfuidnkdhl.jpg,0,0.0,0.0,0,15,15,15,,,,,,,,,,,,,32.02845200000047,0.028452000000470434,None,67.87564610000027,67.87564610000027,67.87564610000027,67.87564610000027,67.87564610000027,67.87564610000027,67.87564610000027,67.87564610000027,67.87564610000027,67.87564610000027,,008,P011,2025_Feb_08_1056,ConditionRich,2021.2.3,60.243105026092024,
32.75,36.0,41,0.0,Stimuli/Blank.png,0,0.0,0.0,0,16,16,16,,,,,,,,,,,,,32.78021020000051,0.030210200000510667,None,68.62632089999988,68.62632089999988,68.62632089999988,68.62632089999988,68.62632089999988,68.62632089999988,68.62632089999988,68.62632089999988,68.62632089999988,68.62632089999988,,008,P011,2025_Feb_08_1056,ConditionRich,2021.2.3,60.243105026092024,
36.0,36.75,25,0.75,Stimuli/P011/things_face_06s.jpg,0,0.0,0.0,0,17,17,17,,,,,,,,,,,,,36.013811499999974,0.01381149999997433,None,71.8458257000002,71.8458257000002,71.8458257000002,71.8458257000002,71.8458257000002,71.8458257000002,71.8458257000002,71.8458257000002,71.8458257000002,71.8458257000002,,008,P011,2025_Feb_08_1056,ConditionRich,2021.2.3,60.243105026092024,
36.75,40.0,41,0.0,Stimuli/Blank.png,0,0.0,0.0,0,18,18,18,,,,,,,,,,,,,36.76456340000004,0.014563400000042748,None,72.59650779999993,72.59650779999993,72.59650779999993,72.59650779999993,72.59650779999993,72.59650779999993,72.59650779999993,72.59650779999993,72.59650779999993,72.59650779999993,,008,P011,2025_Feb_08_1056,ConditionRich,2021.2.3,60.243105026092024,
40.0,40.75,10,0.75,Stimuli/P011/sun_awufkrkrdrdbvvis.jpg,0,0.0,0.0,0,19,19,19,,,,,,,,,,,,,40.00138380000044,0.0013838000004398054,None,75.84937929999978,75.84937929999978,75.84937929999978,75.84937929999978,75.84937929999978,75.84937929999978,75.84937929999978,75.84937929999978,75.84937929999978,75.84937929999978,,008,P011,2025_Feb_08_1056,ConditionRich,2021.2.3,60.243105026092024,
40.75,44.0,41,0.0,Stimuli/Blank.png,0,0.0,0.0,0,20,20,20,,,,,,,,,,,,,40.76856450000014,0.01856450000013865,None,76.60001089999969,76.60001089999969,76.60001089999969,76.60001089999969,76.60001089999969,76.60001089999969,76.60001089999969,76.60001089999969,76.60001089999969,76.60001089999969,,008,P011,2025_Feb_08_1056,ConditionRich,2021.2.3,60.243105026092024,
44.0,44.75,22,0.75,Stimuli/P011/things_boy_06s.jpg,0,0.0,0.0,0,21,21,21,,,,,,,,,,,,,44.00506620000033,0.005066200000328536,None,79.85290840000016,79.85290840000016,79.85290840000016,79.85290840000016,79.85290840000016,79.85290840000016,79.85290840000016,79.85290840000016,79.85290840000016,79.85290840000016,,008,P011,2025_Feb_08_1056,ConditionRich,2021.2.3,60.243105026092024,
44.75,48.0,41,0.0,Stimuli/Blank.png,1,2.25,3.0,0,22,22,22,,,,,,,,,,,,,44.77171739999994,0.021717399999943154,1,80.60364170000048,80.60364170000048,80.60364170000048,80.60364170000048,80.60364170000048,80.60364170000048,82.83892819999983,83.58956930000022,80.60364170000048,80.60364170000048,2.8206010000003516,008,P011,2025_Feb_08_1056,ConditionRich,2021.2.3,60.243105026092024,
48.0,48.75,6,0.75,Stimuli/P011/sun_aqysdudvyxnkcxgq.jpg,0,0.0,0.0,0,23,23,23,,,,,,,,,,,,,48.00834010000017,0.008340100000168604,None,83.83976910000001,83.83976910000001,83.83976910000001,83.83976910000001,83.83976910000001,83.83976910000001,83.83976910000001,83.83976910000001,83.83976910000001,83.83976910000001,,008,P011,2025_Feb_08_1056,ConditionRich,2021.2.3,60.243105026092024,
48.75,52.0,41,0.0,Stimuli/Blank.png,0,0.0,0.0,0,24,24,24,,,,,,,,,,,,,48.76032639999994,0.010326399999939895,None,84.5904513000005,84.5904513000005,84.5904513000005,84.5904513000005,84.5904513000005,84.5904513000005,84.5904513000005,84.5904513000005,84.5904513000005,84.5904513000005,,008,P011,2025_Feb_08_1056,ConditionRich,2021.2.3,60.243105026092024,
52.0,52.75,16,0.75,Stimuli/P011/sun_bpuwvyadswjfoaby.jpg,0,0.0,0.0,0,25,25,25,,,,,,,,,,,,,52.01274790000025,0.012747900000249501,None,87.86003710000023,87.86003710000023,87.86003710000023,87.86003710000023,87.86003710000023,87.86003710000023,87.86003710000023,87.86003710000023,87.86003710000023,87.86003710000023,,008,P011,2025_Feb_08_1056,ConditionRich,2021.2.3,60.243105026092024,
52.75,56.0,41,0.0,Stimuli/Blank.png,0,0.0,0.0,0,26,26,26,,,,,,,,,,,,,52.77930389999983,0.02930389999983163,None,88.61065520000011,88.61065520000011,88.61065520000011,88.61065520000011,88.61065520000011,88.61065520000011,88.61065520000011,88.61065520000011,88.61065520000011,88.61065520000011,,008,P011,2025_Feb_08_1056,ConditionRich,2021.2.3,60.243105026092024,
56.0,56.75,7,0.75,Stimuli/P011/sun_arugqgwhwdjxezyt.jpg,0,0.0,0.0,0,27,27,27,,,,,,,,,,,,,56.0151050000004,0.015105000000403379,None,91.84685139999965,91.84685139999965,91.84685139999965,91.84685139999965,91.84685139999965,91.84685139999965,91.84685139999965,91.84685139999965,91.84685139999965,91.84685139999965,,008,P011,2025_Feb_08_1056,ConditionRich,2021.2.3,60.243105026092024,
56.75,60.0,41,0.0,Stimuli/Blank.png,1,0.25,1.0,0,28,28,28,,,,,,,,,,,,,56.74946699999964,-0.0005330000003596069,1,92.58083629999965,92.58083629999965,92.58083629999965,92.58083629999965,92.58083629999965,92.58083629999965,92.81434850000005,93.5650268999998,92.58083629999965,92.58083629999965,0.9093296000000919,008,P011,2025_Feb_08_1056,ConditionRich,2021.2.3,60.243105026092024,
60.0,60.75,30,0.75,Stimuli/P011/things_hamburger_06s.jpg,0,0.0,0.0,0,29,29,29,,,,,,,,,,,,,60.00457280000046,0.00457280000046012,None,95.85039119999965,95.85039119999965,95.85039119999965,95.85039119999965,95.85039119999965,95.85039119999965,95.85039119999965,95.85039119999965,95.85039119999965,95.85039119999965,,008,P011,2025_Feb_08_1056,ConditionRich,2021.2.3,60.243105026092024,
60.75,64.0,41,0.0,Stimuli/Blank.png,0,0.0,0.0,0,30,30,30,,,,,,,,,,,,,60.76919309999994,0.019193099999938568,None,96.6010567000003,96.6010567000003,96.6010567000003,96.6010567000003,96.6010567000003,96.6010567000003,96.6010567000003,96.6010567000003,96.6010567000003,96.6010567000003,,008,P011,2025_Feb_08_1056,ConditionRich,2021.2.3,60.243105026092024,
64.0,64.75,3,0.75,Stimuli/P011/sun_afdaynbvsppiyvxm.jpg,0,0.0,0.0,0,31,31,31,,,,,,,,,,,,,64.00519650000024,0.005196500000238302,None,99.83725380000033,99.83725380000033,99.83725380000033,99.83725380000033,99.83725380000033,99.83725380000033,99.83725380000033,99.83725380000033,99.83725380000033,99.83725380000033,,008,P011,2025_Feb_08_1056,ConditionRich,2021.2.3,60.243105026092024,
64.75,68.0,41,0.0,Stimuli/Blank.png,0,0.0,0.0,0,32,32,32,,,,,,,,,,,,,64.7565698999997,0.006569899999703921,None,100.58791550000024,100.58791550000024,100.58791550000024,100.58791550000024,100.58791550000024,100.58791550000024,100.58791550000024,100.58791550000024,100.58791550000024,100.58791550000024,,008,P011,2025_Feb_08_1056,ConditionRich,2021.2.3,60.243105026092024,
68.0,68.75,33,0.75,Stimuli/P011/things_hot-air_balloon_06s.jpg,0,0.0,0.0,0,33,33,33,,,,,,,,,,,,,68.00994100000025,0.009941000000253553,None,103.84079870000005,103.84079870000005,103.84079870000005,103.84079870000005,103.84079870000005,103.84079870000005,103.84079870000005,103.84079870000005,103.84079870000005,103.84079870000005,,008,P011,2025_Feb_08_1056,ConditionRich,2021.2.3,60.243105026092024,
68.75,72.0,41,0.0,Stimuli/Blank.png,0,0.0,0.0,0,34,34,34,,,,,,,,,,,,,68.75955520000025,0.009555200000249897,None,104.5914315,104.5914315,104.5914315,104.5914315,104.5914315,104.5914315,104.5914315,104.5914315,104.5914315,104.5914315,,008,P011,2025_Feb_08_1056,ConditionRich,2021.2.3,60.243105026092024,
72.0,72.75,4,0.75,Stimuli/P011/sun_akpdzjejmtbfopdt.jpg,0,0.0,0.0,0,35,35,35,,,,,,,,,,,,,72.01317569999992,0.013175699999919743,None,107.84433160000026,107.84433160000026,107.84433160000026,107.84433160000026,107.84433160000026,107.84433160000026,107.84433160000026,107.84433160000026,107.84433160000026,107.84433160000026,,008,P011,2025_Feb_08_1056,ConditionRich,2021.2.3,60.243105026092024,
72.75,76.0,41,0.0,Stimuli/Blank.png,0,0.0,0.0,0,36,36,36,,,,,,,,,,,,,72.7636637000005,0.013663700000506651,None,108.59499570000025,108.59499570000025,108.59499570000025,108.59499570000025,108.59499570000025,108.59499570000025,108.59499570000025,108.59499570000025,108.59499570000025,108.59499570000025,,008,P011,2025_Feb_08_1056,ConditionRich,2021.2.3,60.243105026092024,
76.0,76.75,2,0.75,Stimuli/P011/sun_aewhvqonribwlxiq.jpg,0,0.0,0.0,0,37,37,37,,,,,,,,,,,,,75.99947369999973,-0.0005263000002742046,None,111.83118980000017,111.83118980000017,111.83118980000017,111.83118980000017,111.83118980000017,111.83118980000017,111.83118980000017,111.83118980000017,111.83118980000017,111.83118980000017,,008,P011,2025_Feb_08_1056,ConditionRich,2021.2.3,60.243105026092024,
76.75,80.0,41,0.0,Stimuli/Blank.png,1,1.25,2.0,0,38,38,38,,,,,,,,,,,,,76.75011590000031,0.00011590000030992087,1,112.58185959999992,112.58185959999992,112.58185959999992,112.58185959999992,112.58185959999992,112.58185959999992,113.81624170000032,114.56695810000019,112.58185959999992,112.58185959999992,1.6112278999999035,008,P011,2025_Feb_08_1056,ConditionRich,2021.2.3,60.243105026092024,
80.0,80.75,29,0.75,Stimuli/P011/things_gutter_06s.jpg,0,0.0,0.0,0,39,39,39,,,,,,,,,,,,,80.00332729999991,0.003327299999909883,None,115.83473279999998,115.83473279999998,115.83473279999998,115.83473279999998,115.83473279999998,115.83473279999998,115.83473279999998,115.83473279999998,115.83473279999998,115.83473279999998,,008,P011,2025_Feb_08_1056,ConditionRich,2021.2.3,60.243105026092024,
80.75,84.0,41,0.0,Stimuli/Blank.png,0,0.0,0.0,0,40,40,40,,,,,,,,,,,,,80.75390630000038,0.003906300000380725,None,116.58539089999977,116.58539089999977,116.58539089999977,116.58539089999977,116.58539089999977,116.58539089999977,116.58539089999977,116.58539089999977,116.58539089999977,116.58539089999977,,008,P011,2025_Feb_08_1056,ConditionRich,2021.2.3,60.243105026092024,
84.0,100.0,0,0.0,Stimuli/Blank.png,1,2.0,2.75,0,41,41,41,,,,,,,,,,,,,84.00723259999995,0.007232599999952072,1,119.83827459999975,119.83827459999975,119.83827459999975,119.83827459999975,119.83827459999975,119.83827459999975,121.82341650000035,122.57408130000022,119.83827459999975,119.83827459999975,2.895763800000168,008,P011,2025_Feb_08_1056,ConditionRich,2021.2.3,60.243105026092024,
100.0,100.75,5,0.75,Stimuli/P011/sun_anfwllcezhlypoti.jpg,0,0.0,0.0,0,42,42,42,,,,,,,,,,,,,100.00378900000032,0.0037890000003244495,None,135.83575709999968,135.83575709999968,135.83575709999968,135.83575709999968,135.83575709999968,135.83575709999968,135.83575709999968,135.83575709999968,135.83575709999968,135.83575709999968,,008,P011,2025_Feb_08_1056,ConditionRich,2021.2.3,60.243105026092024,
100.75,104.0,41,0.0,Stimuli/Blank.png,0,0.0,0.0,0,43,43,43,,,,,,,,,,,,,100.75595410000005,0.005954100000053586,None,136.58642700000019,136.58642700000019,136.58642700000019,136.58642700000019,136.58642700000019,136.58642700000019,136.58642700000019,136.58642700000019,136.58642700000019,136.58642700000019,,008,P011,2025_Feb_08_1056,ConditionRich,2021.2.3,60.243105026092024,
104.0,104.75,18,0.75,Stimuli/P011/sun_bxlbxustiovyqyrg.jpg,0,0.0,0.0,0,44,44,44,,,,,,,,,,,,,104.00729140000021,0.007291400000212889,None,139.8559836000004,139.8559836000004,139.8559836000004,139.8559836000004,139.8559836000004,139.8559836000004,139.8559836000004,139.8559836000004,139.8559836000004,139.8559836000004,,008,P011,2025_Feb_08_1056,ConditionRich,2021.2.3,60.243105026092024,
104.75,108.0,41,0.0,Stimuli/Blank.png,1,0.25,1.0,0,45,45,45,,,,,,,,,,,,,104.77501740000025,0.025017400000251655,1,140.60664160000033,140.60664160000033,140.60664160000033,140.60664160000033,140.60664160000033,140.60664160000033,140.84018019999985,141.5908376999996,140.60664160000033,140.60664160000033,0.7425576000005094,008,P011,2025_Feb_08_1056,ConditionRich,2021.2.3,60.243105026092024,
108.0,108.75,28,0.75,Stimuli/P011/things_grasshopper_06s.jpg,0,0.0,0.0,0,46,46,46,,,,,,,,,,,,,108.01152110000021,0.011521100000209117,None,143.85952730000008,143.85952730000008,143.85952730000008,143.85952730000008,143.85952730000008,143.85952730000008,143.85952730000008,143.85952730000008,143.85952730000008,143.85952730000008,,008,P011,2025_Feb_08_1056,ConditionRich,2021.2.3,60.243105026092024,
108.75,112.0,41,0.0,Stimuli/Blank.png,0,0.0,0.0,0,47,47,47,,,,,,,,,,,,,108.77950500000043,0.029505000000426662,None,144.6101948000005,144.6101948000005,144.6101948000005,144.6101948000005,144.6101948000005,144.6101948000005,144.6101948000005,144.6101948000005,144.6101948000005,144.6101948000005,,008,P011,2025_Feb_08_1056,ConditionRich,2021.2.3,60.243105026092024,
112.0,112.75,31,0.75,Stimuli/P011/things_hippopotamus_06s.jpg,0,0.0,0.0,0,48,48,48,,,,,,,,,,,,,112.01580650000051,0.015806500000508095,None,147.8630591000001,147.8630591000001,147.8630591000001,147.8630591000001,147.8630591000001,147.8630591000001,147.8630591000001,147.8630591000001,147.8630591000001,147.8630591000001,,008,P011,2025_Feb_08_1056,ConditionRich,2021.2.3,60.243105026092024,
112.75,116.0,41,0.0,Stimuli/Blank.png,0,0.0,0.0,0,49,49,49,,,,,,,,,,,,,112.76527050000004,0.015270500000042375,None,148.59703400000035,148.59703400000035,148.59703400000035,148.59703400000035,148.59703400000035,148.59703400000035,148.59703400000035,148.59703400000035,148.59703400000035,148.59703400000035,,008,P011,2025_Feb_08_1056,ConditionRich,2021.2.3,60.243105026092024,
116.0,116.75,23,0.75,Stimuli/P011/things_clove_06s.jpg,0,0.0,0.0,0,50,50,50,,,,,,,,,,,,,116.00282570000036,0.002825700000357756,None,151.8499136999999,151.8499136999999,151.8499136999999,151.8499136999999,151.8499136999999,151.8499136999999,151.8499136999999,151.8499136999999,151.8499136999999,151.8499136999999,,008,P011,2025_Feb_08_1056,ConditionRich,2021.2.3,60.243105026092024,
116.75,120.0,41,0.0,Stimuli/Blank.png,0,0.0,0.0,0,51,51,51,,,,,,,,,,,,,116.76879220000046,0.01879220000046189,None,152.60058329999993,152.60058329999993,152.60058329999993,152.60058329999993,152.60058329999993,152.60058329999993,152.60058329999993,152.60058329999993,152.60058329999993,152.60058329999993,,008,P011,2025_Feb_08_1056,ConditionRich,2021.2.3,60.243105026092024,
120.0,120.75,17,0.75,Stimuli/P011/sun_btvwhlxbhcqnqzok.jpg,0,0.0,0.0,0,52,52,52,,,,,,,,,,,,,120.00483439999971,0.004834399999708694,None,155.83678320000035,155.83678320000035,155.83678320000035,155.83678320000035,155.83678320000035,155.83678320000035,155.83678320000035,155.83678320000035,155.83678320000035,155.83678320000035,,008,P011,2025_Feb_08_1056,ConditionRich,2021.2.3,60.243105026092024,
120.75,124.0,41,0.0,Stimuli/Blank.png,0,0.0,0.0,0,53,53,53,,,,,,,,,,,,,120.75597290000042,0.005972900000415393,None,156.58744370000022,156.58744370000022,156.58744370000022,156.58744370000022,156.58744370000022,156.58744370000022,156.58744370000022,156.58744370000022,156.58744370000022,156.58744370000022,,008,P011,2025_Feb_08_1056,ConditionRich,2021.2.3,60.243105026092024,
124.0,124.75,39,0.75,Stimuli/P011/things_thermometer_06s.jpg,0,0.0,0.0,0,54,54,54,,,,,,,,,,,,,124.00921159999962,0.009211599999616737,None,159.84031870000035,159.84031870000035,159.84031870000035,159.84031870000035,159.84031870000035,159.84031870000035,159.84031870000035,159.84031870000035,159.84031870000035,159.84031870000035,,008,P011,2025_Feb_08_1056,ConditionRich,2021.2.3,60.243105026092024,
124.75,128.0,41,0.0,Stimuli/Blank.png,0,0.0,0.0,0,55,55,55,,,,,,,,,,,,,124.75962340000024,0.00962340000023687,None,160.59098749999976,160.59098749999976,160.59098749999976,160.59098749999976,160.59098749999976,160.59098749999976,160.59098749999976,160.59098749999976,160.59098749999976,160.59098749999976,,008,P011,2025_Feb_08_1056,ConditionRich,2021.2.3,60.243105026092024,
128.0,128.75,40,0.75,Stimuli/P011/things_woman_06s.jpg,0,0.0,0.0,0,56,56,56,,,,,,,,,,,,,128.01187970000046,0.011879700000463345,None,163.86054630000035,163.86054630000035,163.86054630000035,163.86054630000035,163.86054630000035,163.86054630000035,163.86054630000035,163.86054630000035,163.86054630000035,163.86054630000035,,008,P011,2025_Feb_08_1056,ConditionRich,2021.2.3,60.243105026092024,
128.75,132.0,41,0.0,Stimuli/Blank.png,0,0.0,0.0,0,57,57,57,,,,,,,,,,,,,128.77999920000002,0.02999920000002021,None,164.61120540000047,164.61120540000047,164.61120540000047,164.61120540000047,164.61120540000047,164.61120540000047,164.61120540000047,164.61120540000047,164.61120540000047,164.61120540000047,,008,P011,2025_Feb_08_1056,ConditionRich,2021.2.3,60.243105026092024,
132.0,132.75,35,0.75,Stimuli/P011/things_raccoon_06n.jpg,0,0.0,0.0,0,58,58,58,,,,,,,,,,,,,131.99895840000045,-0.001041599999553,None,167.8307206999998,167.8307206999998,167.8307206999998,167.8307206999998,167.8307206999998,167.8307206999998,167.8307206999998,167.8307206999998,167.8307206999998,167.8307206999998,,008,P011,2025_Feb_08_1056,ConditionRich,2021.2.3,60.243105026092024,
132.75,136.0,41,0.0,Stimuli/Blank.png,0,0.0,0.0,0,59,59,59,,,,,,,,,,,,,132.75048530000004,0.0004853000000366592,None,168.58138580000013,168.58138580000013,168.58138580000013,168.58138580000013,168.58138580000013,168.58138580000013,168.58138580000013,168.58138580000013,168.58138580000013,168.58138580000013,,008,P011,2025_Feb_08_1056,ConditionRich,2021.2.3,60.243105026092024,
136.0,136.75,15,0.75,Stimuli/P011/sun_bmngnyuahubpqroh.jpg,0,0.0,0.0,0,60,60,60,,,,,,,,,,,,,136.0029316,0.0029316000000108033,None,171.85094440000012,171.85094440000012,171.85094440000012,171.85094440000012,171.85094440000012,171.85094440000012,171.85094440000012,171.85094440000012,171.85094440000012,171.85094440000012,,008,P011,2025_Feb_08_1056,ConditionRich,2021.2.3,60.243105026092024,
136.75,140.0,41,0.0,Stimuli/Blank.png,1,0.25,1.0,0,61,61,61,,,,,,,,,,,,,136.76971709999998,0.019717099999979837,1,172.60161189999963,172.60161189999963,172.60161189999963,172.60161189999963,172.60161189999963,172.60161189999963,172.8351560000001,173.58580580000034,172.60161189999963,172.60161189999963,0.6814672000000428,008,P011,2025_Feb_08_1056,ConditionRich,2021.2.3,60.243105026092024,
140.0,140.75,14,0.75,Stimuli/P011/sun_blybvkoucskrdgiv.jpg,0,0.0,0.0,0,62,62,62,,,,,,,,,,,,,140.0061238999997,0.006123899999693094,None,175.85449210000024,175.85449210000024,175.85449210000024,175.85449210000024,175.85449210000024,175.85449210000024,175.85449210000024,175.85449210000024,175.85449210000024,175.85449210000024,,008,P011,2025_Feb_08_1056,ConditionRich,2021.2.3,60.243105026092024,
140.75,144.0,41,0.0,Stimuli/Blank.png,0,0.0,0.0,0,63,63,63,,,,,,,,,,,,,140.77385090000007,0.023850900000070396,None,176.6051491999997,176.6051491999997,176.6051491999997,176.6051491999997,176.6051491999997,176.6051491999997,176.6051491999997,176.6051491999997,176.6051491999997,176.6051491999997,,008,P011,2025_Feb_08_1056,ConditionRich,2021.2.3,60.243105026092024,
144.0,144.75,1,0.75,Stimuli/P011/sun_aeakbqnvptdnxtno.jpg,0,0.0,0.0,0,64,64,64,,,,,,,,,,,,,144.0096242999998,0.009624299999813957,None,179.8413459000003,179.8413459000003,179.8413459000003,179.8413459000003,179.8413459000003,179.8413459000003,179.8413459000003,179.8413459000003,179.8413459000003,179.8413459000003,,008,P011,2025_Feb_08_1056,ConditionRich,2021.2.3,60.243105026092024,
144.75,148.0,41,0.0,Stimuli/Blank.png,1,0.25,1.0,0,65,65,65,,,,,,,,,,,,,144.7600981000005,0.010098100000504928,1,180.59200200000032,180.59200200000032,180.59200200000032,180.59200200000032,180.59200200000032,180.59200200000032,180.82553869999992,181.5762150999999,180.59200200000032,180.59200200000032,0.6680879000005007,008,P011,2025_Feb_08_1056,ConditionRich,2021.2.3,60.243105026092024,
148.0,148.75,21,0.75,Stimuli/P011/things_baby_06s.jpg,0,0.0,0.0,0,66,66,66,,,,,,,,,,,,,148.0133037000005,0.013303700000506069,None,183.84488109999984,183.84488109999984,183.84488109999984,183.84488109999984,183.84488109999984,183.84488109999984,183.84488109999984,183.84488109999984,183.84488109999984,183.84488109999984,,008,P011,2025_Feb_08_1056,ConditionRich,2021.2.3,60.243105026092024,
148.75,152.0,41,0.0,Stimuli/Blank.png,0,0.0,0.0,0,67,67,67,,,,,,,,,,,,,148.76355739999963,0.013557399999626796,None,184.59553770000002,184.59553770000002,184.59553770000002,184.59553770000002,184.59553770000002,184.59553770000002,184.59553770000002,184.59553770000002,184.59553770000002,184.59553770000002,,008,P011,2025_Feb_08_1056,ConditionRich,2021.2.3,60.243105026092024,
152.0,152.75,9,0.75,Stimuli/P011/sun_aupohozmrmtfgcsw.jpg,0,0.0,0.0,0,68,68,68,,,,,,,,,,,,,152.00005940000028,5.94000002820394e-05,None,187.83177100000012,187.83177100000012,187.83177100000012,187.83177100000012,187.83177100000012,187.83177100000012,187.83177100000012,187.83177100000012,187.83177100000012,187.83177100000012,,008,P011,2025_Feb_08_1056,ConditionRich,2021.2.3,60.243105026092024,
152.75,156.0,41,0.0,Stimuli/Blank.png,0,0.0,0.0,0,69,69,69,,,,,,,,,,,,,152.75108120000004,0.0010812000000441913,None,188.58249119999982,188.58249119999982,188.58249119999982,188.58249119999982,188.58249119999982,188.58249119999982,188.58249119999982,188.58249119999982,188.58249119999982,188.58249119999982,,008,P011,2025_Feb_08_1056,ConditionRich,2021.2.3,60.243105026092024,
156.0,156.75,24,0.75,Stimuli/P011/things_doily_06s.jpg,0,0.0,0.0,0,70,70,70,,,,,,,,,,,,,156.0041695,0.004169499999989057,None,191.8519634000004,191.8519634000004,191.8519634000004,191.8519634000004,191.8519634000004,191.8519634000004,191.8519634000004,191.8519634000004,191.8519634000004,191.8519634000004,,008,P011,2025_Feb_08_1056,ConditionRich,2021.2.3,60.243105026092024,
156.75,160.0,41,0.0,Stimuli/Blank.png,0,0.0,0.0,0,71,71,71,,,,,,,,,,,,,156.77058959999977,0.020589599999766506,None,192.60262770000008,192.60262770000008,192.60262770000008,192.60262770000008,192.60262770000008,192.60262770000008,192.60262770000008,192.60262770000008,192.60262770000008,192.60262770000008,,008,P011,2025_Feb_08_1056,ConditionRich,2021.2.3,60.243105026092024,
160.0,160.75,34,0.75,Stimuli/P011/things_polar_bear_06s.jpg,0,0.0,0.0,0,72,72,72,,,,,,,,,,,,,160.00672730000042,0.006727300000420655,None,195.85551380000015,195.85551380000015,195.85551380000015,195.85551380000015,195.85551380000015,195.85551380000015,195.85551380000015,195.85551380000015,195.85551380000015,195.85551380000015,,008,P011,2025_Feb_08_1056,ConditionRich,2021.2.3,60.243105026092024,
160.75,164.0,41,0.0,Stimuli/Blank.png,0,0.0,0.0,0,73,73,73,,,,,,,,,,,,,160.77524900000026,0.025249000000258093,None,196.60617160000038,196.60617160000038,196.60617160000038,196.60617160000038,196.60617160000038,196.60617160000038,196.60617160000038,196.60617160000038,196.60617160000038,196.60617160000038,,008,P011,2025_Feb_08_1056,ConditionRich,2021.2.3,60.243105026092024,
164.0,164.75,20,0.75,Stimuli/P011/sun_ciifteeudwpxupnw.jpg,0,0.0,0.0,0,74,74,74,,,,,,,,,,,,,164.01059970000006,0.010599700000057055,None,199.8590688000004,199.8590688000004,199.8590688000004,199.8590688000004,199.8590688000004,199.8590688000004,199.8590688000004,199.8590688000004,199.8590688000004,199.8590688000004,,008,P011,2025_Feb_08_1056,ConditionRich,2021.2.3,60.243105026092024,
164.75,168.0,41,0.0,Stimuli/Blank.png,0,0.0,0.0,0,75,75,75,,,,,,,,,,,,,164.77964580000025,0.029645800000253075,None,200.6263941999996,200.6263941999996,200.6263941999996,200.6263941999996,200.6263941999996,200.6263941999996,200.6263941999996,200.6263941999996,200.6263941999996,200.6263941999996,,008,P011,2025_Feb_08_1056,ConditionRich,2021.2.3,60.243105026092024,
168.0,168.75,27,0.75,Stimuli/P011/things_girl_06s.jpg,0,0.0,0.0,0,76,76,76,,,,,,,,,,,,,168.0143048,0.014304799999990792,None,203.84590920000028,203.84590920000028,203.84590920000028,203.84590920000028,203.84590920000028,203.84590920000028,203.84590920000028,203.84590920000028,203.84590920000028,203.84590920000028,,008,P011,2025_Feb_08_1056,ConditionRich,2021.2.3,60.243105026092024,
168.75,172.0,41,0.0,Stimuli/Blank.png,1,2.25,3.0,0,77,77,77,,,,,,,,,,,,,168.76522320000004,0.01522320000003674,1,204.59656710000036,204.59656710000036,204.59656710000036,204.59656710000036,204.59656710000036,204.59656710000036,206.8319303999997,207.58257830000002,204.59656710000036,204.59656710000036,2.713488700000198,008,P011,2025_Feb_08_1056,ConditionRich,2021.2.3,60.243105026092024,
172.0,172.75,13,0.75,Stimuli/P011/sun_bjedvzikugwleyer.jpg,0,0.0,0.0,0,78,78,78,,,,,,,,,,,,,172.0012155000004,0.001215500000398606,None,207.8494499999997,207.8494499999997,207.8494499999997,207.8494499999997,207.8494499999997,207.8494499999997,207.8494499999997,207.8494499999997,207.8494499999997,207.8494499999997,,008,P011,2025_Feb_08_1056,ConditionRich,2021.2.3,60.243105026092024,
172.75,176.0,41,0.0,Stimuli/Blank.png,0,0.0,0.0,0,79,79,79,,,,,,,,,,,,,172.7687734000001,0.018773400000100082,None,208.6001108999999,208.6001108999999,208.6001108999999,208.6001108999999,208.6001108999999,208.6001108999999,208.6001108999999,208.6001108999999,208.6001108999999,208.6001108999999,,008,P011,2025_Feb_08_1056,ConditionRich,2021.2.3,60.243105026092024,
176.0,176.75,32,0.75,Stimuli/P011/things_hood_06s.jpg,1,0.0,0.75,0,80,80,80,,,,,,,,,,,,,176.0058654000004,0.0058654000004025875,1,211.85298010000042,211.85298010000042,211.85298010000042,211.85298010000042,211.85298010000042,211.85298010000042,211.85298010000042,212.58700270000008,211.85298010000042,211.85298010000042,0.521089299999403,008,P011,2025_Feb_08_1056,ConditionRich,2021.2.3,60.243105026092024,
176.75,180.0,41,0.0,Stimuli/Blank.png,0,0.0,0.0,0,81,81,81,,,,,,,,,,,,,176.77258359999996,0.022583599999961734,None,212.6036680999996,212.6036680999996,212.6036680999996,212.6036680999996,212.6036680999996,212.6036680999996,212.6036680999996,212.6036680999996,212.6036680999996,212.6036680999996,,008,P011,2025_Feb_08_1056,ConditionRich,2021.2.3,60.243105026092024,
180.0,196.0,0,0.0,Stimuli/Blank.png,1,9.0,9.75,0,82,82,82,,,,,,,,,,,,,180.0085392000001,0.008539200000086566,1,215.8398527999998,215.8398527999998,215.8398527999998,215.8398527999998,215.8398527999998,215.8398527999998,224.83112849999998,225.58178980000048,215.8398527999998,215.8398527999998,9.421263799999906,008,P011,2025_Feb_08_1056,ConditionRich,2021.2.3,60.243105026092024,
196.0,196.75,1,0.75,Stimuli/P011/sun_aeakbqnvptdnxtno.jpg,0,0.0,0.0,0,83,83,83,,,,,,,,,,,,,196.0063525000005,0.006352500000502914,None,231.83736169999975,231.83736169999975,231.83736169999975,231.83736169999975,231.83736169999975,231.83736169999975,231.83736169999975,231.83736169999975,231.83736169999975,231.83736169999975,,008,P011,2025_Feb_08_1056,ConditionRich,2021.2.3,60.243105026092024,
196.75,200.0,41,0.0,Stimuli/Blank.png,0,0.0,0.0,0,84,84,84,,,,,,,,,,,,,196.7566383000003,0.006638300000304298,None,232.5879898000003,232.5879898000003,232.5879898000003,232.5879898000003,232.5879898000003,232.5879898000003,232.5879898000003,232.5879898000003,232.5879898000003,232.5879898000003,,008,P011,2025_Feb_08_1056,ConditionRich,2021.2.3,60.243105026092024,
200.0,200.75,19,0.75,Stimuli/P011/sun_byvwakrdyukjigpc.jpg,0,0.0,0.0,0,85,85,85,,,,,,,,,,,,,200.0104779000003,0.010477900000296358,None,235.85754520000046,235.85754520000046,235.85754520000046,235.85754520000046,235.85754520000046,235.85754520000046,235.85754520000046,235.85754520000046,235.85754520000046,235.85754520000046,,008,P011,2025_Feb_08_1056,ConditionRich,2021.2.3,60.243105026092024,
200.75,204.0,41,0.0,Stimuli/Blank.png,1,1.25,2.0,0,86,86,86,,,,,,,,,,,,,200.77696259999993,0.026962599999933445,1,236.60821010000018,236.60821010000018,236.60821010000018,236.60821010000018,236.60821010000018,236.60821010000018,237.84267389999968,238.59330349999982,236.60821010000018,236.60821010000018,1.6441905000001498,008,P011,2025_Feb_08_1056,ConditionRich,2021.2.3,60.243105026092024,
204.0,204.75,27,0.75,Stimuli/P011/things_girl_06s.jpg,0,0.0,0.0,0,87,87,87,,,,,,,,,,,,,204.01458079999975,0.014580799999748706,None,239.86113380000006,239.86113380000006,239.86113380000006,239.86113380000006,239.86113380000006,239.86113380000006,239.86113380000006,239.86113380000006,239.86113380000006,239.86113380000006,,008,P011,2025_Feb_08_1056,ConditionRich,2021.2.3,60.243105026092024,
204.75,208.0,41,0.0,Stimuli/Blank.png,1,0.25,1.0,0,88,88,88,,,,,,,,,,,,,204.77969630000007,0.02969630000006873,1,240.61175569999978,240.61175569999978,240.61175569999978,240.61175569999978,240.61175569999978,240.61175569999978,240.84529329999987,241.59595119999994,240.61175569999978,240.61175569999978,0.6373460999993767,008,P011,2025_Feb_08_1056,ConditionRich,2021.2.3,60.243105026092024,
208.0,208.75,18,0.75,Stimuli/P011/sun_bxlbxustiovyqyrg.jpg,0,0.0,0.0,0,89,89,89,,,,,,,,,,,,,208.00007780000033,7.780000032653334e-05,None,243.84797530000014,243.84797530000014,243.84797530000014,243.84797530000014,243.84797530000014,243.84797530000014,243.84797530000014,243.84797530000014,243.84797530000014,243.84797530000014,,008,P011,2025_Feb_08_1056,ConditionRich,2021.2.3,60.243105026092024,
208.75,212.0,41,0.0,Stimuli/Blank.png,0,0.0,0.0,0,90,90,90,,,,,,,,,,,,,208.7666588000002,0.016658800000186602,None,244.59870409999985,244.59870409999985,244.59870409999985,244.59870409999985,244.59870409999985,244.59870409999985,244.59870409999985,244.59870409999985,244.59870409999985,244.59870409999985,,008,P011,2025_Feb_08_1056,ConditionRich,2021.2.3,60.243105026092024,
212.0,212.75,35,0.75,Stimuli/P011/things_raccoon_06n.jpg,0,0.0,0.0,0,91,91,91,,,,,,,,,,,,,212.0054968000004,0.005496800000400981,None,247.85151899999983,247.85151899999983,247.85151899999983,247.85151899999983,247.85151899999983,247.85151899999983,247.85151899999983,247.85151899999983,247.85151899999983,247.85151899999983,,008,P011,2025_Feb_08_1056,ConditionRich,2021.2.3,60.243105026092024,
212.75,216.0,41,0.0,Stimuli/Blank.png,0,0.0,0.0,0,92,92,92,,,,,,,,,,,,,212.7708088999998,0.02080889999979263,None,248.6021536999997,248.6021536999997,248.6021536999997,248.6021536999997,248.6021536999997,248.6021536999997,248.6021536999997,248.6021536999997,248.6021536999997,248.6021536999997,,008,P011,2025_Feb_08_1056,ConditionRich,2021.2.3,60.243105026092024,
216.0,216.75,26,0.75,Stimuli/P011/things_gazelle_06s.jpg,0,0.0,0.0,0,93,93,93,,,,,,,,,,,,,216.00703859999976,0.007038599999759754,None,251.8550207999997,251.8550207999997,251.8550207999997,251.8550207999997,251.8550207999997,251.8550207999997,251.8550207999997,251.8550207999997,251.8550207999997,251.8550207999997,,008,P011,2025_Feb_08_1056,ConditionRich,2021.2.3,60.243105026092024,
216.75,220.0,41,0.0,Stimuli/Blank.png,1,1.25,2.0,0,94,94,94,,,,,,,,,,,,,216.7738343000001,0.02383430000008957,1,252.60569140000007,252.60569140000007,252.60569140000007,252.60569140000007,252.60569140000007,252.60569140000007,253.84015590000035,254.59082829999988,252.60569140000007,252.60569140000007,1.933697100000245,008,P011,2025_Feb_08_1056,ConditionRich,2021.2.3,60.243105026092024,
220.0,220.75,38,0.75,Stimuli/P011/things_squeegee_06s.jpg,0,0.0,0.0,0,95,95,95,,,,,,,,,,,,,220.01277519999985,0.012775199999850884,None,255.8585763000001,255.8585763000001,255.8585763000001,255.8585763000001,255.8585763000001,255.8585763000001,255.8585763000001,255.8585763000001,255.8585763000001,255.8585763000001,,008,P011,2025_Feb_08_1056,ConditionRich,2021.2.3,60.243105026092024,
220.75,224.0,41,0.0,Stimuli/Blank.png,0,0.0,0.0,0,96,96,96,,,,,,,,,,,,,220.77786360000027,0.027863600000273436,None,256.6092445000004,256.6092445000004,256.6092445000004,256.6092445000004,256.6092445000004,256.6092445000004,256.6092445000004,256.6092445000004,256.6092445000004,256.6092445000004,,008,P011,2025_Feb_08_1056,ConditionRich,2021.2.3,60.243105026092024,
224.0,224.75,32,0.75,Stimuli/P011/things_hood_06s.jpg,0,0.0,0.0,0,97,97,97,,,,,,,,,,,,,224.01421469999968,0.014214699999683944,None,259.84543159999976,259.84543159999976,259.84543159999976,259.84543159999976,259.84543159999976,259.84543159999976,259.84543159999976,259.84543159999976,259.84543159999976,259.84543159999976,,008,P011,2025_Feb_08_1056,ConditionRich,2021.2.3,60.243105026092024,
224.75,228.0,41,0.0,Stimuli/Blank.png,0,0.0,0.0,0,98,98,98,,,,,,,,,,,,,224.7651206999999,0.015120699999897624,None,260.59617119999984,260.59617119999984,260.59617119999984,260.59617119999984,260.59617119999984,260.59617119999984,260.59617119999984,260.59617119999984,260.59617119999984,260.59617119999984,,008,P011,2025_Feb_08_1056,ConditionRich,2021.2.3,60.243105026092024,
228.0,228.75,8,0.75,Stimuli/P011/sun_asppejhsplpizvag.jpg,0,0.0,0.0,0,99,99,99,,,,,,,,,,,,,228.00257059999967,0.0025705999996716855,None,263.8489752000005,263.8489752000005,263.8489752000005,263.8489752000005,263.8489752000005,263.8489752000005,263.8489752000005,263.8489752000005,263.8489752000005,263.8489752000005,,008,P011,2025_Feb_08_1056,ConditionRich,2021.2.3,60.243105026092024,
228.75,232.0,41,0.0,Stimuli/Blank.png,0,0.0,0.0,0,100,100,100,,,,,,,,,,,,,228.76839740000014,0.018397400000139896,None,264.5996347999999,264.5996347999999,264.5996347999999,264.5996347999999,264.5996347999999,264.5996347999999,264.5996347999999,264.5996347999999,264.5996347999999,264.5996347999999,,008,P011,2025_Feb_08_1056,ConditionRich,2021.2.3,60.243105026092024,
232.0,232.75,2,0.75,Stimuli/P011/sun_aewhvqonribwlxiq.jpg,0,0.0,0.0,0,101,101,101,,,,,,,,,,,,,232.0045087999997,0.00450879999971221,None,267.8358282999998,267.8358282999998,267.8358282999998,267.8358282999998,267.8358282999998,267.8358282999998,267.8358282999998,267.8358282999998,267.8358282999998,267.8358282999998,,008,P011,2025_Feb_08_1056,ConditionRich,2021.2.3,60.243105026092024,
232.75,236.0,41,0.0,Stimuli/Blank.png,0,0.0,0.0,0,102,102,102,,,,,,,,,,,,,232.75730879999992,0.007308799999918847,None,268.6031836000002,268.6031836000002,268.6031836000002,268.6031836000002,268.6031836000002,268.6031836000002,268.6031836000002,268.6031836000002,268.6031836000002,268.6031836000002,,008,P011,2025_Feb_08_1056,ConditionRich,2021.2.3,60.243105026092024,
236.0,236.75,10,0.75,Stimuli/P011/sun_awufkrkrdrdbvvis.jpg,0,0.0,0.0,0,103,103,103,,,,,,,,,,,,,236.02415110000038,0.02415110000038112,None,271.8727388999996,271.8727388999996,271.8727388999996,271.8727388999996,271.8727388999996,271.8727388999996,271.8727388999996,271.8727388999996,271.8727388999996,271.8727388999996,,008,P011,2025_Feb_08_1056,ConditionRich,2021.2.3,60.243105026092024,
236.75,240.0,41,0.0,Stimuli/Blank.png,0,0.0,0.0,0,104,104,104,,,,,,,,,,,,,236.77749419999964,0.027494199999637203,None,272.6234002000001,272.6234002000001,272.6234002000001,272.6234002000001,272.6234002000001,272.6234002000001,272.6234002000001,272.6234002000001,272.6234002000001,272.6234002000001,,008,P011,2025_Feb_08_1056,ConditionRich,2021.2.3,60.243105026092024,
240.0,240.75,3,0.75,Stimuli/P011/sun_afdaynbvsppiyvxm.jpg,0,0.0,0.0,0,105,105,105,,,,,,,,,,,,,240.0282285000003,0.028228500000295753,None,275.87626679999994,275.87626679999994,275.87626679999994,275.87626679999994,275.87626679999994,275.87626679999994,275.87626679999994,275.87626679999994,275.87626679999994,275.87626679999994,,008,P011,2025_Feb_08_1056,ConditionRich,2021.2.3,60.243105026092024,
240.75,244.0,41,0.0,Stimuli/Blank.png,0,0.0,0.0,0,106,106,106,,,,,,,,,,,,,240.77911010000025,0.029110100000252714,None,276.61025750000044,276.61025750000044,276.61025750000044,276.61025750000044,276.61025750000044,276.61025750000044,276.61025750000044,276.61025750000044,276.61025750000044,276.61025750000044,,008,P011,2025_Feb_08_1056,ConditionRich,2021.2.3,60.243105026092024,
244.0,244.75,37,0.75,Stimuli/P011/things_spam_06s.jpg,0,0.0,0.0,0,107,107,107,,,,,,,,,,,,,244.01444300000003,0.014443000000028405,None,279.8631413000003,279.8631413000003,279.8631413000003,279.8631413000003,279.8631413000003,279.8631413000003,279.8631413000003,279.8631413000003,279.8631413000003,279.8631413000003,,008,P011,2025_Feb_08_1056,ConditionRich,2021.2.3,60.243105026092024,
244.75,248.0,41,0.0,Stimuli/Blank.png,0,0.0,0.0,0,108,108,108,,,,,,,,,,,,,244.7828188000003,0.032818800000313786,None,280.61380650000046,280.61380650000046,280.61380650000046,280.61380650000046,280.61380650000046,280.61380650000046,280.61380650000046,280.61380650000046,280.61380650000046,280.61380650000046,,008,P011,2025_Feb_08_1056,ConditionRich,2021.2.3,60.243105026092024,
248.0,248.75,17,0.75,Stimuli/P011/sun_btvwhlxbhcqnqzok.jpg,0,0.0,0.0,0,109,109,109,,,,,,,,,,,,,248.00127840000005,0.0012784000000465312,None,283.8333144999997,283.8333144999997,283.8333144999997,283.8333144999997,283.8333144999997,283.8333144999997,283.8333144999997,283.8333144999997,283.8333144999997,283.8333144999997,,008,P011,2025_Feb_08_1056,ConditionRich,2021.2.3,60.243105026092024,
248.75,252.0,41,0.0,Stimuli/Blank.png,0,0.0,0.0,0,110,110,110,,,,,,,,,,,,,248.75258510000003,0.0025851000000329805,None,284.58398659999966,284.58398659999966,284.58398659999966,284.58398659999966,284.58398659999966,284.58398659999966,284.58398659999966,284.58398659999966,284.58398659999966,284.58398659999966,,008,P011,2025_Feb_08_1056,ConditionRich,2021.2.3,60.243105026092024,
252.0,252.75,4,0.75,Stimuli/P011/sun_akpdzjejmtbfopdt.jpg,0,0.0,0.0,0,111,111,111,,,,,,,,,,,,,252.00729580000007,0.0072958000000653556,None,287.85353750000013,287.85353750000013,287.85353750000013,287.85353750000013,287.85353750000013,287.85353750000013,287.85353750000013,287.85353750000013,287.85353750000013,287.85353750000013,,008,P011,2025_Feb_08_1056,ConditionRich,2021.2.3,60.243105026092024,
252.75,256.0,41,0.0,Stimuli/Blank.png,0,0.0,0.0,0,112,112,112,,,,,,,,,,,,,252.77317820000007,0.023178200000074867,None,288.60418389999995,288.60418389999995,288.60418389999995,288.60418389999995,288.60418389999995,288.60418389999995,288.60418389999995,288.60418389999995,288.60418389999995,288.60418389999995,,008,P011,2025_Feb_08_1056,ConditionRich,2021.2.3,60.243105026092024,
256.0,256.75,9,0.75,Stimuli/P011/sun_aupohozmrmtfgcsw.jpg,0,0.0,0.0,0,113,113,113,,,,,,,,,,,,,256.0086572,0.008657200000016019,None,291.8403945,291.8403945,291.8403945,291.8403945,291.8403945,291.8403945,291.8403945,291.8403945,291.8403945,291.8403945,,008,P011,2025_Feb_08_1056,ConditionRich,2021.2.3,60.243105026092024,
256.75,260.0,41,0.0,Stimuli/Blank.png,0,0.0,0.0,0,114,114,114,,,,,,,,,,,,,256.7594673000003,0.00946730000032403,None,292.5910536000001,292.5910536000001,292.5910536000001,292.5910536000001,292.5910536000001,292.5910536000001,292.5910536000001,292.5910536000001,292.5910536000001,292.5910536000001,,008,P011,2025_Feb_08_1056,ConditionRich,2021.2.3,60.243105026092024,
260.0,260.75,24,0.75,Stimuli/P011/things_doily_06s.jpg,0,0.0,0.0,0,115,115,115,,,,,,,,,,,,,260.01304789999995,0.013047899999946821,None,295.86063360000026,295.86063360000026,295.86063360000026,295.86063360000026,295.86063360000026,295.86063360000026,295.86063360000026,295.86063360000026,295.86063360000026,295.86063360000026,,008,P011,2025_Feb_08_1056,ConditionRich,2021.2.3,60.243105026092024,
260.75,264.0,41,0.0,Stimuli/Blank.png,1,2.25,3.0,0,116,116,116,,,,,,,,,,,,,260.7822431000004,0.032243100000414415,1,296.6279930999999,296.6279930999999,296.6279930999999,296.6279930999999,296.6279930999999,296.6279930999999,298.8632735000001,299.6139254999998,296.6279930999999,296.6279930999999,2.882158200000049,008,P011,2025_Feb_08_1056,ConditionRich,2021.2.3,60.243105026092024,
264.0,264.75,16,0.75,Stimuli/P011/sun_bpuwvyadswjfoaby.jpg,0,0.0,0.0,0,117,117,117,,,,,,,,,,,,,264.0179361999999,0.017936199999894598,None,299.8641542000005,299.8641542000005,299.8641542000005,299.8641542000005,299.8641542000005,299.8641542000005,299.8641542000005,299.8641542000005,299.8641542000005,299.8641542000005,,008,P011,2025_Feb_08_1056,ConditionRich,2021.2.3,60.243105026092024,
264.75,268.0,41,0.0,Stimuli/Blank.png,0,0.0,0.0,0,118,118,118,,,,,,,,,,,,,264.7668249999997,0.016824999999698775,None,300.5981413999998,300.5981413999998,300.5981413999998,300.5981413999998,300.5981413999998,300.5981413999998,300.5981413999998,300.5981413999998,300.5981413999998,300.5981413999998,,008,P011,2025_Feb_08_1056,ConditionRich,2021.2.3,60.243105026092024,
268.0,268.75,25,0.75,Stimuli/P011/things_face_06s.jpg,0,0.0,0.0,0,119,119,119,,,,,,,,,,,,,268.00296080000044,0.0029608000004373025,None,303.8510347000001,303.8510347000001,303.8510347000001,303.8510347000001,303.8510347000001,303.8510347000001,303.8510347000001,303.8510347000001,303.8510347000001,303.8510347000001,,008,P011,2025_Feb_08_1056,ConditionRich,2021.2.3,60.243105026092024,
268.75,272.0,41,0.0,Stimuli/Blank.png,0,0.0,0.0,0,120,120,120,,,,,,,,,,,,,268.76963950000027,0.019639500000266708,None,304.60167360000014,304.60167360000014,304.60167360000014,304.60167360000014,304.60167360000014,304.60167360000014,304.60167360000014,304.60167360000014,304.60167360000014,304.60167360000014,,008,P011,2025_Feb_08_1056,ConditionRich,2021.2.3,60.243105026092024,
272.0,272.75,15,0.75,Stimuli/P011/sun_bmngnyuahubpqroh.jpg,0,0.0,0.0,0,121,121,121,,,,,,,,,,,,,272.00667200000044,0.006672000000435219,None,307.8545506999999,307.8545506999999,307.8545506999999,307.8545506999999,307.8545506999999,307.8545506999999,307.8545506999999,307.8545506999999,307.8545506999999,307.8545506999999,,008,P011,2025_Feb_08_1056,ConditionRich,2021.2.3,60.243105026092024,
272.75,276.0,41,0.0,Stimuli/Blank.png,0,0.0,0.0,0,122,122,122,,,,,,,,,,,,,272.7732291000002,0.023229100000207836,None,308.60521020000033,308.60521020000033,308.60521020000033,308.60521020000033,308.60521020000033,308.60521020000033,308.60521020000033,308.60521020000033,308.60521020000033,308.60521020000033,,008,P011,2025_Feb_08_1056,ConditionRich,2021.2.3,60.243105026092024,
276.0,292.0,0,0.0,Stimuli/Blank.png,1,4.0,4.75,0,123,123,123,,,,,,,,,,,,,276.00943879999977,0.009438799999770708,1,311.85814130000017,311.85814130000017,311.85814130000017,311.85814130000017,311.85814130000017,311.85814130000017,315.82827650000036,316.5789229000002,311.85814130000017,311.85814130000017,4.410093700000289,008,P011,2025_Feb_08_1056,ConditionRich,2021.2.3,60.243105026092024,
292.0,292.75,23,0.75,Stimuli/P011/things_clove_06s.jpg,0,0.0,0.0,0,124,124,124,,,,,,,,,,,,,292.0246169000002,0.024616900000182795,None,327.85557080000035,327.85557080000035,327.85557080000035,327.85557080000035,327.85557080000035,327.85557080000035,327.85557080000035,327.85557080000035,327.85557080000035,327.85557080000035,,008,P011,2025_Feb_08_1056,ConditionRich,2021.2.3,60.243105026092024,
292.75,296.0,41,0.0,Stimuli/Blank.png,0,0.0,0.0,0,125,125,125,,,,,,,,,,,,,292.7588286,0.008828600000015285,None,328.60626109999976,328.60626109999976,328.60626109999976,328.60626109999976,328.60626109999976,328.60626109999976,328.60626109999976,328.60626109999976,328.60626109999976,328.60626109999976,,008,P011,2025_Feb_08_1056,ConditionRich,2021.2.3,60.243105026092024,
296.0,296.75,39,0.75,Stimuli/P011/things_thermometer_06s.jpg,0,0.0,0.0,0,126,126,126,,,,,,,,,,,,,296.02715350000017,0.027153500000167696,None,331.85911880000003,331.85911880000003,331.85911880000003,331.85911880000003,331.85911880000003,331.85911880000003,331.85911880000003,331.85911880000003,331.85911880000003,331.85911880000003,,008,P011,2025_Feb_08_1056,ConditionRich,2021.2.3,60.243105026092024,
296.75,300.0,41,0.0,Stimuli/Blank.png,0,0.0,0.0,0,127,127,127,,,,,,,,,,,,,296.76291479999963,0.012914799999634852,None,332.59396410000045,332.59396410000045,332.59396410000045,332.59396410000045,332.59396410000045,332.59396410000045,332.59396410000045,332.59396410000045,332.59396410000045,332.59396410000045,,008,P011,2025_Feb_08_1056,ConditionRich,2021.2.3,60.243105026092024,
300.0,300.75,31,0.75,Stimuli/P011/things_hippopotamus_06s.jpg,0,0.0,0.0,0,128,128,128,,,,,,,,,,,,,300.0141745000001,0.014174500000081025,None,335.8459740999997,335.8459740999997,335.8459740999997,335.8459740999997,335.8459740999997,335.8459740999997,335.8459740999997,335.8459740999997,335.8459740999997,335.8459740999997,,008,P011,2025_Feb_08_1056,ConditionRich,2021.2.3,60.243105026092024,
300.75,304.0,41,0.0,Stimuli/Blank.png,0,0.0,0.0,0,129,129,129,,,,,,,,,,,,,300.76766940000016,0.01766940000015893,None,336.6133313,336.6133313,336.6133313,336.6133313,336.6133313,336.6133313,336.6133313,336.6133313,336.6133313,336.6133313,,008,P011,2025_Feb_08_1056,ConditionRich,2021.2.3,60.243105026092024,
304.0,304.75,13,0.75,Stimuli/P011/sun_bjedvzikugwleyer.jpg,0,0.0,0.0,0,130,130,130,,,,,,,,,,,,,304.01757499999985,0.01757499999985157,None,339.84951660000024,339.84951660000024,339.84951660000024,339.84951660000024,339.84951660000024,339.84951660000024,339.84951660000024,339.84951660000024,339.84951660000024,339.84951660000024,,008,P011,2025_Feb_08_1056,ConditionRich,2021.2.3,60.243105026092024,
304.75,308.0,41,0.0,Stimuli/Blank.png,0,0.0,0.0,0,131,131,131,,,,,,,,,,,,,304.7530859999997,0.0030859999997119303,None,340.58349890000045,340.58349890000045,340.58349890000045,340.58349890000045,340.58349890000045,340.58349890000045,340.58349890000045,340.58349890000045,340.58349890000045,340.58349890000045,,008,P011,2025_Feb_08_1056,ConditionRich,2021.2.3,60.243105026092024,
308.0,308.75,22,0.75,Stimuli/P011/things_boy_06s.jpg,0,0.0,0.0,0,132,132,132,,,,,,,,,,,,,308.00459370000044,0.0045937000004414585,None,343.8363712999999,343.8363712999999,343.8363712999999,343.8363712999999,343.8363712999999,343.8363712999999,343.8363712999999,343.8363712999999,343.8363712999999,343.8363712999999,,008,P011,2025_Feb_08_1056,ConditionRich,2021.2.3,60.243105026092024,
308.75,312.0,41,0.0,Stimuli/Blank.png,0,0.0,0.0,0,133,133,133,,,,,,,,,,,,,308.7577658,0.007765800000015588,None,344.6037374999996,344.6037374999996,344.6037374999996,344.6037374999996,344.6037374999996,344.6037374999996,344.6037374999996,344.6037374999996,344.6037374999996,344.6037374999996,,008,P011,2025_Feb_08_1056,ConditionRich,2021.2.3,60.243105026092024,
312.0,312.75,33,0.75,Stimuli/P011/things_hot-air_balloon_06s.jpg,0,0.0,0.0,0,134,134,134,,,,,,,,,,,,,312.02520449999975,0.025204499999745167,None,347.8732848999998,347.8732848999998,347.8732848999998,347.8732848999998,347.8732848999998,347.8732848999998,347.8732848999998,347.8732848999998,347.8732848999998,347.8732848999998,,008,P011,2025_Feb_08_1056,ConditionRich,2021.2.3,60.243105026092024,
312.75,316.0,41,0.0,Stimuli/Blank.png,0,0.0,0.0,0,135,135,135,,,,,,,,,,,,,312.77733160000025,0.027331600000252365,None,348.62395730000026,348.62395730000026,348.62395730000026,348.62395730000026,348.62395730000026,348.62395730000026,348.62395730000026,348.62395730000026,348.62395730000026,348.62395730000026,,008,P011,2025_Feb_08_1056,ConditionRich,2021.2.3,60.243105026092024,
316.0,316.75,34,0.75,Stimuli/P011/things_polar_bear_06s.jpg,1,0.0,0.75,0,136,136,136,,,,,,,,,,,,,316.02809439999965,0.028094399999645248,1,351.8601314999996,351.8601314999996,351.8601314999996,351.8601314999996,351.8601314999996,351.8601314999996,351.8601314999996,None,351.8601314999996,351.8601314999996,0.6132211000003736,008,P011,2025_Feb_08_1056,ConditionRich,2021.2.3,60.243105026092024,
316.75,320.0,41,0.0,Stimuli/Blank.png,0,0.0,0.0,0,137,137,137,,,,,,,,,,,,,316.7632566000002,0.013256600000204344,None,352.5941235999999,352.5941235999999,352.5941235999999,352.5941235999999,352.5941235999999,352.5941235999999,352.5941235999999,352.5941235999999,352.5941235999999,352.5941235999999,,008,P011,2025_Feb_08_1056,ConditionRich,2021.2.3,60.243105026092024,
320.0,320.75,40,0.75,Stimuli/P011/things_woman_06s.jpg,0,0.0,0.0,0,138,138,138,,,,,,,,,,,,,319.99827280000045,-0.0017271999995500664,None,355.8303102,355.8303102,355.8303102,355.8303102,355.8303102,355.8303102,355.8303102,355.8303102,355.8303102,355.8303102,,008,P011,2025_Feb_08_1056,ConditionRich,2021.2.3,60.243105026092024,
320.75,324.0,41,0.0,Stimuli/Blank.png,0,0.0,0.0,0,139,139,139,,,,,,,,,,,,,320.76760379999996,0.017603799999960756,None,356.6143493999998,356.6143493999998,356.6143493999998,356.6143493999998,356.6143493999998,356.6143493999998,356.6143493999998,356.6143493999998,356.6143493999998,356.6143493999998,,008,P011,2025_Feb_08_1056,ConditionRich,2021.2.3,60.243105026092024,
324.0,324.75,6,0.75,Stimuli/P011/sun_aqysdudvyxnkcxgq.jpg,0,0.0,0.0,0,140,140,140,,,,,,,,,,,,,324.0196444000003,0.019644400000288442,None,359.8505375000004,359.8505375000004,359.8505375000004,359.8505375000004,359.8505375000004,359.8505375000004,359.8505375000004,359.8505375000004,359.8505375000004,359.8505375000004,,008,P011,2025_Feb_08_1056,ConditionRich,2021.2.3,60.243105026092024,
324.75,328.0,41,0.0,Stimuli/Blank.png,0,0.0,0.0,0,141,141,141,,,,,,,,,,,,,324.7537725000002,0.0037725000001955777,None,360.6012160999999,360.6012160999999,360.6012160999999,360.6012160999999,360.6012160999999,360.6012160999999,360.6012160999999,360.6012160999999,360.6012160999999,360.6012160999999,,008,P011,2025_Feb_08_1056,ConditionRich,2021.2.3,60.243105026092024,
328.0,328.75,7,0.75,Stimuli/P011/sun_arugqgwhwdjxezyt.jpg,0,0.0,0.0,0,142,142,142,,,,,,,,,,,,,328.02332000000024,0.023320000000239816,None,363.85407490000034,363.85407490000034,363.85407490000034,363.85407490000034,363.85407490000034,363.85407490000034,363.85407490000034,363.85407490000034,363.85407490000034,363.85407490000034,,008,P011,2025_Feb_08_1056,ConditionRich,2021.2.3,60.243105026092024,
328.75,332.0,41,0.0,Stimuli/Blank.png,0,0.0,0.0,0,143,143,143,,,,,,,,,,,,,328.7568984999998,0.006898499999806518,None,364.5880649999999,364.5880649999999,364.5880649999999,364.5880649999999,364.5880649999999,364.5880649999999,364.5880649999999,364.5880649999999,364.5880649999999,364.5880649999999,,008,P011,2025_Feb_08_1056,ConditionRich,2021.2.3,60.243105026092024,
332.0,332.75,12,0.75,Stimuli/P011/sun_bcesifdfuidnkdhl.jpg,0,0.0,0.0,0,144,144,144,,,,,,,,,,,,,332.00893429999996,0.008934299999964423,None,367.84093610000036,367.84093610000036,367.84093610000036,367.84093610000036,367.84093610000036,367.84093610000036,367.84093610000036,367.84093610000036,367.84093610000036,367.84093610000036,,008,P011,2025_Feb_08_1056,ConditionRich,2021.2.3,60.243105026092024,
332.75,336.0,41,0.0,Stimuli/Blank.png,1,2.25,3.0,0,145,145,145,,,,,,,,,,,,,332.7623163999997,0.012316399999690475,1,368.60828690000017,368.60828690000017,368.60828690000017,368.60828690000017,368.60828690000017,368.60828690000017,370.8435593000004,371.59425139999985,368.60828690000017,368.60828690000017,2.694152799999756,008,P011,2025_Feb_08_1056,ConditionRich,2021.2.3,60.243105026092024,
336.0,336.75,29,0.75,Stimuli/P011/things_gutter_06s.jpg,0,0.0,0.0,0,146,146,146,,,,,,,,,,,,,336.0293969000004,0.029396900000392634,None,371.87784399999964,371.87784399999964,371.87784399999964,371.87784399999964,371.87784399999964,371.87784399999964,371.87784399999964,371.87784399999964,371.87784399999964,371.87784399999964,,008,P011,2025_Feb_08_1056,ConditionRich,2021.2.3,60.243105026092024,
336.75,340.0,41,0.0,Stimuli/Blank.png,1,1.25,2.0,0,147,147,147,,,,,,,,,,,,,336.7805973000004,0.030597300000408723,1,372.61183450000044,372.61183450000044,372.61183450000044,372.61183450000044,372.61183450000044,372.61183450000044,373.8462849999996,374.5969477999997,372.61183450000044,372.61183450000044,1.6154098000006343,008,P011,2025_Feb_08_1056,ConditionRich,2021.2.3,60.243105026092024,
340.0,340.75,30,0.75,Stimuli/P011/things_hamburger_06s.jpg,0,0.0,0.0,0,148,148,148,,,,,,,,,,,,,339.9993959000003,-0.0006040999996912433,None,375.83134299999983,375.83134299999983,375.83134299999983,375.83134299999983,375.83134299999983,375.83134299999983,375.83134299999983,375.83134299999983,375.83134299999983,375.83134299999983,,008,P011,2025_Feb_08_1056,ConditionRich,2021.2.3,60.243105026092024,
340.75,344.0,41,0.0,Stimuli/Blank.png,0,0.0,0.0,0,149,149,149,,,,,,,,,,,,,340.7499995999997,-4.000003173132427e-07,None,376.58200300000044,376.58200300000044,376.58200300000044,376.58200300000044,376.58200300000044,376.58200300000044,376.58200300000044,376.58200300000044,376.58200300000044,376.58200300000044,,008,P011,2025_Feb_08_1056,ConditionRich,2021.2.3,60.243105026092024,
344.0,344.75,11,0.75,Stimuli/P011/sun_baylllqlgfvxilor.jpg,0,0.0,0.0,0,150,150,150,,,,,,,,,,,,,344.00283469999977,0.002834699999766599,None,379.8348815999998,379.8348815999998,379.8348815999998,379.8348815999998,379.8348815999998,379.8348815999998,379.8348815999998,379.8348815999998,379.8348815999998,379.8348815999998,,008,P011,2025_Feb_08_1056,ConditionRich,2021.2.3,60.243105026092024,
344.75,348.0,41,0.0,Stimuli/Blank.png,0,0.0,0.0,0,151,151,151,,,,,,,,,,,,,344.75431260000005,0.0043126000000484055,None,380.5855432999997,380.5855432999997,380.5855432999997,380.5855432999997,380.5855432999997,380.5855432999997,380.5855432999997,380.5855432999997,380.5855432999997,380.5855432999997,,008,P011,2025_Feb_08_1056,ConditionRich,2021.2.3,60.243105026092024,
348.0,348.75,36,0.75,Stimuli/P011/things_shower_cap_06s.jpg,0,0.0,0.0,0,152,152,152,,,,,,,,,,,,,348.00794940000014,0.007949400000143214,None,383.85513379999975,383.85513379999975,383.85513379999975,383.85513379999975,383.85513379999975,383.85513379999975,383.85513379999975,383.85513379999975,383.85513379999975,383.85513379999975,,008,P011,2025_Feb_08_1056,ConditionRich,2021.2.3,60.243105026092024,
348.75,352.0,41,0.0,Stimuli/Blank.png,0,0.0,0.0,0,153,153,153,,,,,,,,,,,,,348.7737029,0.023702899999989313,None,384.60575900000003,384.60575900000003,384.60575900000003,384.60575900000003,384.60575900000003,384.60575900000003,384.60575900000003,384.60575900000003,384.60575900000003,384.60575900000003,,008,P011,2025_Feb_08_1056,ConditionRich,2021.2.3,60.243105026092024,
352.0,352.75,14,0.75,Stimuli/P011/sun_blybvkoucskrdgiv.jpg,0,0.0,0.0,0,154,154,154,,,,,,,,,,,,,352.00993389999985,0.009933899999850837,None,387.85865250000006,387.85865250000006,387.85865250000006,387.85865250000006,387.85865250000006,387.85865250000006,387.85865250000006,387.85865250000006,387.85865250000006,387.85865250000006,,008,P011,2025_Feb_08_1056,ConditionRich,2021.2.3,60.243105026092024,
352.75,356.0,41,0.0,Stimuli/Blank.png,0,0.0,0.0,0,155,155,155,,,,,,,,,,,,,352.77724839999973,0.02724839999973483,None,388.60930689999986,388.60930689999986,388.60930689999986,388.60930689999986,388.60930689999986,388.60930689999986,388.60930689999986,388.60930689999986,388.60930689999986,388.60930689999986,,008,P011,2025_Feb_08_1056,ConditionRich,2021.2.3,60.243105026092024,
356.0,356.75,28,0.75,Stimuli/P011/things_grasshopper_06s.jpg,0,0.0,0.0,0,156,156,156,,,,,,,,,,,,,356.01438450000023,0.014384500000232947,None,391.8454963000004,391.8454963000004,391.8454963000004,391.8454963000004,391.8454963000004,391.8454963000004,391.8454963000004,391.8454963000004,391.8454963000004,391.8454963000004,,008,P011,2025_Feb_08_1056,ConditionRich,2021.2.3,60.243105026092024,
356.75,360.0,41,0.0,Stimuli/Blank.png,0,0.0,0.0,0,157,157,157,,,,,,,,,,,,,356.7643919000002,0.014391900000191526,None,392.59616170000027,392.59616170000027,392.59616170000027,392.59616170000027,392.59616170000027,392.59616170000027,392.59616170000027,392.59616170000027,392.59616170000027,392.59616170000027,,008,P011,2025_Feb_08_1056,ConditionRich,2021.2.3,60.243105026092024,
360.0,360.75,5,0.75,Stimuli/P011/sun_anfwllcezhlypoti.jpg,0,0.0,0.0,0,158,158,158,,,,,,,,,,,,,360.0026869000003,0.0026869000002989196,None,395.8490413999998,395.8490413999998,395.8490413999998,395.8490413999998,395.8490413999998,395.8490413999998,395.8490413999998,395.8490413999998,395.8490413999998,395.8490413999998,,008,P011,2025_Feb_08_1056,ConditionRich,2021.2.3,60.243105026092024,
360.75,364.0,41,0.0,Stimuli/Blank.png,0,0.0,0.0,0,159,159,159,,,,,,,,,,,,,360.7684613000001,0.018461300000126357,None,396.61639790000027,396.61639790000027,396.61639790000027,396.61639790000027,396.61639790000027,396.61639790000027,396.61639790000027,396.61639790000027,396.61639790000027,396.61639790000027,,008,P011,2025_Feb_08_1056,ConditionRich,2021.2.3,60.243105026092024,
364.0,364.75,21,0.75,Stimuli/P011/things_baby_06s.jpg,0,0.0,0.0,0,160,160,160,,,,,,,,,,,,,364.0227281999996,0.022728199999619392,None,399.86923899999965,399.86923899999965,399.86923899999965,399.86923899999965,399.86923899999965,399.86923899999965,399.86923899999965,399.86923899999965,399.86923899999965,399.86923899999965,,008,P011,2025_Feb_08_1056,ConditionRich,2021.2.3,60.243105026092024,
364.75,368.0,41,0.0,Stimuli/Blank.png,0,0.0,0.0,0,161,161,161,,,,,,,,,,,,,364.7721781,0.022178100000019185,None,400.60322449999967,400.60322449999967,400.60322449999967,400.60322449999967,400.60322449999967,400.60322449999967,400.60322449999967,400.60322449999967,400.60322449999967,400.60322449999967,,008,P011,2025_Feb_08_1056,ConditionRich,2021.2.3,60.243105026092024,
368.0,368.75,20,0.75,Stimuli/P011/sun_ciifteeudwpxupnw.jpg,0,0.0,0.0,0,162,162,162,,,,,,,,,,,,,368.0080774999997,0.008077499999672,None,403.8394496000001,403.8394496000001,403.8394496000001,403.8394496000001,403.8394496000001,403.8394496000001,403.8394496000001,403.8394496000001,403.8394496000001,403.8394496000001,,008,P011,2025_Feb_08_1056,ConditionRich,2021.2.3,60.243105026092024,
368.75,372.0,41,0.0,Stimuli/Blank.png,1,2.25,3.0,0,163,163,163,,,,,,,,,,,,,368.7586306000003,0.008630600000287814,1,404.59011250000003,404.59011250000003,404.59011250000003,404.59011250000003,404.59011250000003,404.59011250000003,406.8254155000004,407.57611389999965,404.59011250000003,404.59011250000003,3.1160898000007364,008,P011,2025_Feb_08_1056,ConditionRich,2021.2.3,60.243105026092024,
372.0,388.0,0,0.0,Stimuli/Blank.png,1,3.0,3.75,0,164,164,164,,,,,,,,,,,,,372.0141100000001,0.014110000000073342,1,407.8596754,407.8596754,407.8596754,407.8596754,407.8596754,407.8596754,410.84568149999996,411.59631420000005,407.8596754,407.8596754,3.4646027999997386,008,P011,2025_Feb_08_1056,ConditionRich,2021.2.3,60.243105026092024,
