eventStartTime,eventEndTime,eventCond,imSize,imFile,responseEvent,fixRespStart,fixRespEnd,Events.thisRepN,Events.thisTrialN,Events.thisN,Events.thisIndex,Instructions.started,Instructions.stopped,participantReadyResponse.keys,participantReadyResponse.rt,participantReadyResponse.started,participantReadyResponse.stopped,startWaitforTrigger,triggerResponse.keys,triggerResponse.rt,triggerResponse.started,triggerResponse.stopped,globalTimer,actualStartTime,startTimingDiff,participantResponse.keys,participantResponse.started,participantResponse.stopped,image.started,image.stopped,fixationOutside.started,fixationOutside.stopped,fixationResponse.started,fixationResponse.stopped,fixationInside.started,fixationInside.stopped,participantResponse.rt,session,participant,date,expName,psychopyVersion,frameRate,
,,,,,,,,,,,,15.020551399999931,None,1,11.085121199999776,15.020551399999931,None,,,,,,,,,,,,,,,,,,,,,001,P011,2025_Feb_08_0952,ConditionRich,2021.2.3,59.951067938326425,
,,,,,,,,,,,,,,,,,,26.11792850000029,5,27.165884099999857,26.13100310000027,None,,,,,,,,,,,,,,,,001,P011,2025_Feb_08_0952,ConditionRich,2021.2.3,59.951067938326425,
0.0,4.0,0,0.0,Stimuli/Blank.png,0,0,0.0,0,0,0,0,,,,,,,,,,,,53.308631400000195,0.04890639999985069,0.04890639999985069,None,53.3717431,None,53.3717431,None,53.3717431,None,53.3717431,53.3717431,53.3717431,None,,001,P011,2025_Feb_08_0952,ConditionRich,2021.2.3,59.951067938326425,
4.0,4.75,17,0.75,Stimuli/P011/sun_btvwhlxbhcqnqzok.jpg,0,0,0.0,0,1,1,1,,,,,,,,,,,,,4.004618200000095,0.004618200000095385,None,57.34223390000034,57.34223390000034,57.34223390000034,57.34223390000034,57.34223390000034,57.34223390000034,57.34223390000034,57.34223390000034,57.34223390000034,57.34223390000034,,001,P011,2025_Feb_08_0952,ConditionRich,2021.2.3,59.951067938326425,
4.75,5.0,41,0.0,Stimuli/Blank.png,0,0,0.0,0,2,2,2,,,,,,,,,,,,,4.770165200000065,0.020165200000064942,None,58.092905299999984,58.092905299999984,58.092905299999984,58.092905299999984,58.092905299999984,58.092905299999984,58.092905299999984,58.092905299999984,58.092905299999984,58.092905299999984,,001,P011,2025_Feb_08_0952,ConditionRich,2021.2.3,59.951067938326425,
5.0,5.75,17,0.75,Stimuli/P011/sun_btvwhlxbhcqnqzok.jpg,0,0,0.0,0,3,3,3,,,,,,,,,,,,,5.00362559999985,0.0036255999998502375,None,58.34280949999993,58.34280949999993,58.34280949999993,58.34280949999993,58.34280949999993,58.34280949999993,58.34280949999993,58.34280949999993,58.34280949999993,58.34280949999993,,001,P011,2025_Feb_08_0952,ConditionRich,2021.2.3,59.951067938326425,
5.75,6.0,41,0.0,Stimuli/Blank.png,0,0,0.0,0,4,4,4,,,,,,,,,,,,,5.770971100000224,0.020971100000224396,None,59.09354510000003,59.09354510000003,59.09354510000003,59.09354510000003,59.09354510000003,59.09354510000003,59.09354510000003,59.09354510000003,59.09354510000003,59.09354510000003,,001,P011,2025_Feb_08_0952,ConditionRich,2021.2.3,59.951067938326425,
6.0,6.75,17,0.75,Stimuli/P011/sun_btvwhlxbhcqnqzok.jpg,0,0,0.0,0,5,5,5,,,,,,,,,,,,,6.005323500000031,0.005323500000031345,None,59.34372230000008,59.34372230000008,59.34372230000008,59.34372230000008,59.34372230000008,59.34372230000008,59.34372230000008,59.34372230000008,59.34372230000008,59.34372230000008,,001,P011,2025_Feb_08_0952,ConditionRich,2021.2.3,59.951067938326425,
6.75,7.0,41,0.0,Stimuli/Blank.png,0,0,0.0,0,6,6,6,,,,,,,,,,,,,6.77105389999997,0.02105389999996987,None,60.094365299999936,60.094365299999936,60.094365299999936,60.094365299999936,60.094365299999936,60.094365299999936,60.094365299999936,60.094365299999936,60.094365299999936,60.094365299999936,,001,P011,2025_Feb_08_0952,ConditionRich,2021.2.3,59.951067938326425,
7.0,7.75,17,0.75,Stimuli/P011/sun_btvwhlxbhcqnqzok.jpg,0,0,0.0,0,7,7,7,,,,,,,,,,,,,7.006263499999932,0.00626349999993181,None,60.34459719999995,60.34459719999995,60.34459719999995,60.34459719999995,60.34459719999995,60.34459719999995,60.34459719999995,60.34459719999995,60.34459719999995,60.34459719999995,,001,P011,2025_Feb_08_0952,ConditionRich,2021.2.3,59.951067938326425,
7.75,8.0,41,0.0,Stimuli/Blank.png,0,0,0.0,0,8,8,8,,,,,,,,,,,,,7.772610299999997,0.02261029999999664,None,61.09523930000023,61.09523930000023,61.09523930000023,61.09523930000023,61.09523930000023,61.09523930000023,61.09523930000023,61.09523930000023,61.09523930000023,61.09523930000023,,001,P011,2025_Feb_08_0952,ConditionRich,2021.2.3,59.951067938326425,
8.0,8.75,40,0.75,Stimuli/P011/things_woman_06s.jpg,0,0,0.0,0,9,9,9,,,,,,,,,,,,,8.00613199999998,0.006131999999979598,None,61.345486500000334,61.345486500000334,61.345486500000334,61.345486500000334,61.345486500000334,61.345486500000334,61.345486500000334,61.345486500000334,61.345486500000334,61.345486500000334,,001,P011,2025_Feb_08_0952,ConditionRich,2021.2.3,59.951067938326425,
8.75,9.0,41,0.0,Stimuli/Blank.png,0,0,0.0,0,10,10,10,,,,,,,,,,,,,8.772835700000087,0.022835700000086945,None,62.09612310000011,62.09612310000011,62.09612310000011,62.09612310000011,62.09612310000011,62.09612310000011,62.09612310000011,62.09612310000011,62.09612310000011,62.09612310000011,,001,P011,2025_Feb_08_0952,ConditionRich,2021.2.3,59.951067938326425,
9.0,9.75,40,0.75,Stimuli/P011/things_woman_06s.jpg,1,0,0.75,0,11,11,11,,,,,,,,,,,,,9.007128799999919,0.007128799999918556,1,62.329639900000075,62.329639900000075,62.329639900000075,62.329639900000075,62.329639900000075,62.329639900000075,62.329639900000075,63.06364600000006,62.329639900000075,62.329639900000075,0.48415010000007896,001,P011,2025_Feb_08_0952,ConditionRich,2021.2.3,59.951067938326425,
9.75,10.0,41,0.0,Stimuli/Blank.png,0,0,0.0,0,12,12,12,,,,,,,,,,,,,9.75794040000028,0.007940400000279624,None,63.080327000000125,63.080327000000125,63.080327000000125,63.080327000000125,63.080327000000125,63.080327000000125,63.080327000000125,63.080327000000125,63.080327000000125,63.080327000000125,,001,P011,2025_Feb_08_0952,ConditionRich,2021.2.3,59.951067938326425,
10.0,10.75,40,0.75,Stimuli/P011/things_woman_06s.jpg,0,0,0.0,0,13,13,13,,,,,,,,,,,,,10.008032300000195,0.008032300000195391,None,63.34723020000001,63.34723020000001,63.34723020000001,63.34723020000001,63.34723020000001,63.34723020000001,63.34723020000001,63.34723020000001,63.34723020000001,63.34723020000001,,001,P011,2025_Feb_08_0952,ConditionRich,2021.2.3,59.951067938326425,
10.75,11.0,41,0.0,Stimuli/Blank.png,0,0,0.0,0,14,14,14,,,,,,,,,,,,,10.77455910000026,0.024559100000260514,None,64.0979467000002,64.0979467000002,64.0979467000002,64.0979467000002,64.0979467000002,64.0979467000002,64.0979467000002,64.0979467000002,64.0979467000002,64.0979467000002,,001,P011,2025_Feb_08_0952,ConditionRich,2021.2.3,59.951067938326425,
11.0,11.75,40,0.75,Stimuli/P011/things_woman_06s.jpg,0,0,0.0,0,15,15,15,,,,,,,,,,,,,11.008909399999993,0.008909399999993184,None,64.34811160000027,64.34811160000027,64.34811160000027,64.34811160000027,64.34811160000027,64.34811160000027,64.34811160000027,64.34811160000027,64.34811160000027,64.34811160000027,,001,P011,2025_Feb_08_0952,ConditionRich,2021.2.3,59.951067938326425,
11.75,12.0,41,0.0,Stimuli/Blank.png,0,0,0.0,0,16,16,16,,,,,,,,,,,,,11.777152500000284,0.027152500000283908,None,65.09878960000015,65.09878960000015,65.09878960000015,65.09878960000015,65.09878960000015,65.09878960000015,65.09878960000015,65.09878960000015,65.09878960000015,65.09878960000015,,001,P011,2025_Feb_08_0952,ConditionRich,2021.2.3,59.951067938326425,
12.0,12.75,6,0.75,Stimuli/P011/sun_aqysdudvyxnkcxgq.jpg,0,0,0.0,0,17,17,17,,,,,,,,,,,,,12.011870499999986,0.01187049999998635,None,65.3490025000001,65.3490025000001,65.3490025000001,65.3490025000001,65.3490025000001,65.3490025000001,65.3490025000001,65.3490025000001,65.3490025000001,65.3490025000001,,001,P011,2025_Feb_08_0952,ConditionRich,2021.2.3,59.951067938326425,
12.75,13.0,41,0.0,Stimuli/Blank.png,0,0,0.0,0,18,18,18,,,,,,,,,,,,,12.776664600000004,0.026664600000003702,None,66.09967000000006,66.09967000000006,66.09967000000006,66.09967000000006,66.09967000000006,66.09967000000006,66.09967000000006,66.09967000000006,66.09967000000006,66.09967000000006,,001,P011,2025_Feb_08_0952,ConditionRich,2021.2.3,59.951067938326425,
13.0,13.75,6,0.75,Stimuli/P011/sun_aqysdudvyxnkcxgq.jpg,0,0,0.0,0,19,19,19,,,,,,,,,,,,,13.009864500000276,0.009864500000276166,None,66.33320929999991,66.33320929999991,66.33320929999991,66.33320929999991,66.33320929999991,66.33320929999991,66.33320929999991,66.33320929999991,66.33320929999991,66.33320929999991,,001,P011,2025_Feb_08_0952,ConditionRich,2021.2.3,59.951067938326425,
13.75,14.0,41,0.0,Stimuli/Blank.png,0,0,0.0,0,20,20,20,,,,,,,,,,,,,13.761235599999964,0.011235599999963597,None,67.08387399999992,67.08387399999992,67.08387399999992,67.08387399999992,67.08387399999992,67.08387399999992,67.08387399999992,67.08387399999992,67.08387399999992,67.08387399999992,,001,P011,2025_Feb_08_0952,ConditionRich,2021.2.3,59.951067938326425,
14.0,14.75,6,0.75,Stimuli/P011/sun_aqysdudvyxnkcxgq.jpg,0,0,0.0,0,21,21,21,,,,,,,,,,,,,14.010722200000146,0.010722200000145676,None,67.33408940000027,67.33408940000027,67.33408940000027,67.33408940000027,67.33408940000027,67.33408940000027,67.33408940000027,67.33408940000027,67.33408940000027,67.33408940000027,,001,P011,2025_Feb_08_0952,ConditionRich,2021.2.3,59.951067938326425,
14.75,15.0,41,0.0,Stimuli/Blank.png,0,0,0.0,0,22,22,22,,,,,,,,,,,,,14.761589100000037,0.011589100000037433,None,68.08475360000011,68.08475360000011,68.08475360000011,68.08475360000011,68.08475360000011,68.08475360000011,68.08475360000011,68.08475360000011,68.08475360000011,68.08475360000011,,001,P011,2025_Feb_08_0952,ConditionRich,2021.2.3,59.951067938326425,
15.0,15.75,6,0.75,Stimuli/P011/sun_aqysdudvyxnkcxgq.jpg,0,0,0.0,0,23,23,23,,,,,,,,,,,,,15.012521900000138,0.012521900000137975,None,68.33497639999996,68.33497639999996,68.33497639999996,68.33497639999996,68.33497639999996,68.33497639999996,68.33497639999996,68.33497639999996,68.33497639999996,68.33497639999996,,001,P011,2025_Feb_08_0952,ConditionRich,2021.2.3,59.951067938326425,
15.75,16.0,41,0.0,Stimuli/Blank.png,0,0,0.0,0,24,24,24,,,,,,,,,,,,,15.763138300000264,0.01313830000026428,None,69.0856375000003,69.0856375000003,69.0856375000003,69.0856375000003,69.0856375000003,69.0856375000003,69.0856375000003,69.0856375000003,69.0856375000003,69.0856375000003,,001,P011,2025_Feb_08_0952,ConditionRich,2021.2.3,59.951067938326425,
16.0,16.75,32,0.75,Stimuli/P011/things_hood_06s.jpg,0,0,0.0,0,25,25,25,,,,,,,,,,,,,16.01328330000024,0.013283300000239251,None,69.33588700000018,69.33588700000018,69.33588700000018,69.33588700000018,69.33588700000018,69.33588700000018,69.33588700000018,69.33588700000018,69.33588700000018,69.33588700000018,,001,P011,2025_Feb_08_0952,ConditionRich,2021.2.3,59.951067938326425,
16.75,17.0,41,0.0,Stimuli/Blank.png,0,0,0.0,0,26,26,26,,,,,,,,,,,,,16.76409680000006,0.014096800000061194,None,70.08653940000022,70.08653940000022,70.08653940000022,70.08653940000022,70.08653940000022,70.08653940000022,70.08653940000022,70.08653940000022,70.08653940000022,70.08653940000022,,001,P011,2025_Feb_08_0952,ConditionRich,2021.2.3,59.951067938326425,
17.0,17.75,32,0.75,Stimuli/P011/things_hood_06s.jpg,0,0,0.0,0,27,27,27,,,,,,,,,,,,,17.01557670000011,0.015576700000110577,None,70.35342720000017,70.35342720000017,70.35342720000017,70.35342720000017,70.35342720000017,70.35342720000017,70.35342720000017,70.35342720000017,70.35342720000017,70.35342720000017,,001,P011,2025_Feb_08_0952,ConditionRich,2021.2.3,59.951067938326425,
17.75,18.0,41,0.0,Stimuli/Blank.png,0,0,0.0,0,28,28,28,,,,,,,,,,,,,17.766226000000188,0.016226000000187923,None,71.10409460000028,71.10409460000028,71.10409460000028,71.10409460000028,71.10409460000028,71.10409460000028,71.10409460000028,71.10409460000028,71.10409460000028,71.10409460000028,,001,P011,2025_Feb_08_0952,ConditionRich,2021.2.3,59.951067938326425,
18.0,18.75,32,0.75,Stimuli/P011/things_hood_06s.jpg,0,0,0.0,0,29,29,29,,,,,,,,,,,,,18.01490240000021,0.014902400000210037,None,71.33762780000006,71.33762780000006,71.33762780000006,71.33762780000006,71.33762780000006,71.33762780000006,71.33762780000006,71.33762780000006,71.33762780000006,71.33762780000006,,001,P011,2025_Feb_08_0952,ConditionRich,2021.2.3,59.951067938326425,
18.75,19.0,41,0.0,Stimuli/Blank.png,0,0,0.0,0,30,30,30,,,,,,,,,,,,,18.765688899999986,0.01568889999998646,None,72.0883017000001,72.0883017000001,72.0883017000001,72.0883017000001,72.0883017000001,72.0883017000001,72.0883017000001,72.0883017000001,72.0883017000001,72.0883017000001,,001,P011,2025_Feb_08_0952,ConditionRich,2021.2.3,59.951067938326425,
19.0,19.75,32,0.75,Stimuli/P011/things_hood_06s.jpg,0,0,0.0,0,31,31,31,,,,,,,,,,,,,19.00084680000009,0.0008468000000902975,None,72.3385174,72.3385174,72.3385174,72.3385174,72.3385174,72.3385174,72.3385174,72.3385174,72.3385174,72.3385174,,001,P011,2025_Feb_08_0952,ConditionRich,2021.2.3,59.951067938326425,
19.75,20.0,41,0.0,Stimuli/Blank.png,0,0,0.0,0,32,32,32,,,,,,,,,,,,,19.766785400000117,0.01678540000011708,None,73.08917770000016,73.08917770000016,73.08917770000016,73.08917770000016,73.08917770000016,73.08917770000016,73.08917770000016,73.08917770000016,73.08917770000016,73.08917770000016,,001,P011,2025_Feb_08_0952,ConditionRich,2021.2.3,59.951067938326425,
20.0,20.75,27,0.75,Stimuli/P011/things_girl_06s.jpg,0,0,0.0,0,33,33,33,,,,,,,,,,,,,20.0004128999999,0.00041289999990112847,None,73.33936230000018,73.33936230000018,73.33936230000018,73.33936230000018,73.33936230000018,73.33936230000018,73.33936230000018,73.33936230000018,73.33936230000018,73.33936230000018,,001,P011,2025_Feb_08_0952,ConditionRich,2021.2.3,59.951067938326425,
20.75,21.0,41,0.0,Stimuli/Blank.png,0,0,0.0,0,34,34,34,,,,,,,,,,,,,20.767343399999845,0.017343399999845133,None,74.0900646,74.0900646,74.0900646,74.0900646,74.0900646,74.0900646,74.0900646,74.0900646,74.0900646,74.0900646,,001,P011,2025_Feb_08_0952,ConditionRich,2021.2.3,59.951067938326425,
21.0,21.75,27,0.75,Stimuli/P011/things_girl_06s.jpg,0,0,0.0,0,35,35,35,,,,,,,,,,,,,21.001323800000137,0.0013238000001365435,None,74.34030040000016,74.34030040000016,74.34030040000016,74.34030040000016,74.34030040000016,74.34030040000016,74.34030040000016,74.34030040000016,74.34030040000016,74.34030040000016,,001,P011,2025_Feb_08_0952,ConditionRich,2021.2.3,59.951067938326425,
21.75,22.0,41,0.0,Stimuli/Blank.png,0,0,0.0,0,36,36,36,,,,,,,,,,,,,21.76834860000008,0.018348600000081206,None,75.09094830000004,75.09094830000004,75.09094830000004,75.09094830000004,75.09094830000004,75.09094830000004,75.09094830000004,75.09094830000004,75.09094830000004,75.09094830000004,,001,P011,2025_Feb_08_0952,ConditionRich,2021.2.3,59.951067938326425,
22.0,22.75,27,0.75,Stimuli/P011/things_girl_06s.jpg,0,0,0.0,0,37,37,37,,,,,,,,,,,,,22.001939400000083,0.0019394000000829692,None,75.32448610000029,75.32448610000029,75.32448610000029,75.32448610000029,75.32448610000029,75.32448610000029,75.32448610000029,75.32448610000029,75.32448610000029,75.32448610000029,,001,P011,2025_Feb_08_0952,ConditionRich,2021.2.3,59.951067938326425,
22.75,23.0,41,0.0,Stimuli/Blank.png,0,0,0.0,0,38,38,38,,,,,,,,,,,,,22.75276359999998,0.002763599999980215,None,76.07514930000025,76.07514930000025,76.07514930000025,76.07514930000025,76.07514930000025,76.07514930000025,76.07514930000025,76.07514930000025,76.07514930000025,76.07514930000025,,001,P011,2025_Feb_08_0952,ConditionRich,2021.2.3,59.951067938326425,
23.0,23.75,27,0.75,Stimuli/P011/things_girl_06s.jpg,0,0,0.0,0,39,39,39,,,,,,,,,,,,,23.00218810000024,0.0021881000002395012,None,76.32538340000019,76.32538340000019,76.32538340000019,76.32538340000019,76.32538340000019,76.32538340000019,76.32538340000019,76.32538340000019,76.32538340000019,76.32538340000019,,001,P011,2025_Feb_08_0952,ConditionRich,2021.2.3,59.951067938326425,
23.75,24.0,41,0.0,Stimuli/Blank.png,0,0,0.0,0,40,40,40,,,,,,,,,,,,,23.75587859999996,0.005878599999959988,None,77.09284920000027,77.09284920000027,77.09284920000027,77.09284920000027,77.09284920000027,77.09284920000027,77.09284920000027,77.09284920000027,77.09284920000027,77.09284920000027,,001,P011,2025_Feb_08_0952,ConditionRich,2021.2.3,59.951067938326425,
24.0,24.75,7,0.75,Stimuli/P011/sun_arugqgwhwdjxezyt.jpg,0,0,0.0,0,41,41,41,,,,,,,,,,,,,24.020147199999883,0.020147199999883014,None,77.35963900000024,77.35963900000024,77.35963900000024,77.35963900000024,77.35963900000024,77.35963900000024,77.35963900000024,77.35963900000024,77.35963900000024,77.35963900000024,,001,P011,2025_Feb_08_0952,ConditionRich,2021.2.3,59.951067938326425,
24.75,25.0,41,0.0,Stimuli/Blank.png,0,0,0.0,0,42,42,42,,,,,,,,,,,,,24.771179200000006,0.02117920000000595,None,78.09360650000008,78.09360650000008,78.09360650000008,78.09360650000008,78.09360650000008,78.09360650000008,78.09360650000008,78.09360650000008,78.09360650000008,78.09360650000008,,001,P011,2025_Feb_08_0952,ConditionRich,2021.2.3,59.951067938326425,
25.0,25.75,7,0.75,Stimuli/P011/sun_arugqgwhwdjxezyt.jpg,0,0,0.0,0,43,43,43,,,,,,,,,,,,,25.006760199999917,0.006760199999916949,None,78.34383130000015,78.34383130000015,78.34383130000015,78.34383130000015,78.34383130000015,78.34383130000015,78.34383130000015,78.34383130000015,78.34383130000015,78.34383130000015,,001,P011,2025_Feb_08_0952,ConditionRich,2021.2.3,59.951067938326425,
25.75,26.0,41,0.0,Stimuli/Blank.png,0,0,0.0,0,44,44,44,,,,,,,,,,,,,25.77194589999999,0.021945899999991525,None,79.0944840000002,79.0944840000002,79.0944840000002,79.0944840000002,79.0944840000002,79.0944840000002,79.0944840000002,79.0944840000002,79.0944840000002,79.0944840000002,,001,P011,2025_Feb_08_0952,ConditionRich,2021.2.3,59.951067938326425,
26.0,26.75,7,0.75,Stimuli/P011/sun_arugqgwhwdjxezyt.jpg,0,0,0.0,0,45,45,45,,,,,,,,,,,,,26.005452800000057,0.005452800000057323,None,79.32802800000036,79.32802800000036,79.32802800000036,79.32802800000036,79.32802800000036,79.32802800000036,79.32802800000036,79.32802800000036,79.32802800000036,79.32802800000036,,001,P011,2025_Feb_08_0952,ConditionRich,2021.2.3,59.951067938326425,
26.75,27.0,41,0.0,Stimuli/Blank.png,0,0,0.0,0,46,46,46,,,,,,,,,,,,,26.756182600000102,0.0061826000001019565,None,80.07868619999999,80.07868619999999,80.07868619999999,80.07868619999999,80.07868619999999,80.07868619999999,80.07868619999999,80.07868619999999,80.07868619999999,80.07868619999999,,001,P011,2025_Feb_08_0952,ConditionRich,2021.2.3,59.951067938326425,
27.0,27.75,7,0.75,Stimuli/P011/sun_arugqgwhwdjxezyt.jpg,1,0,0.75,0,47,47,47,,,,,,,,,,,,,27.006329499999993,0.006329499999992549,1,80.34559609999997,80.34559609999997,80.34559609999997,80.34559609999997,80.34559609999997,80.34559609999997,80.34559609999997,81.06289480000032,80.34559609999997,80.34559609999997,0.4031840999996348,001,P011,2025_Feb_08_0952,ConditionRich,2021.2.3,59.951067938326425,
27.75,28.0,41,0.0,Stimuli/Blank.png,0,0,0.0,0,48,48,48,,,,,,,,,,,,,27.776116900000034,0.026116900000033638,None,81.1129406,81.1129406,81.1129406,81.1129406,81.1129406,81.1129406,81.1129406,81.1129406,81.1129406,81.1129406,,001,P011,2025_Feb_08_0952,ConditionRich,2021.2.3,59.951067938326425,
28.0,28.75,31,0.75,Stimuli/P011/things_hippopotamus_06s.jpg,0,0,0.0,0,49,49,49,,,,,,,,,,,,,28.02573050000001,0.02573050000000876,None,81.36315749999994,81.36315749999994,81.36315749999994,81.36315749999994,81.36315749999994,81.36315749999994,81.36315749999994,81.36315749999994,81.36315749999994,81.36315749999994,,001,P011,2025_Feb_08_0952,ConditionRich,2021.2.3,59.951067938326425,
28.75,29.0,41,0.0,Stimuli/Blank.png,0,0,0.0,0,50,50,50,,,,,,,,,,,,,28.77677820000008,0.026778200000080687,None,82.11382490000005,82.11382490000005,82.11382490000005,82.11382490000005,82.11382490000005,82.11382490000005,82.11382490000005,82.11382490000005,82.11382490000005,82.11382490000005,,001,P011,2025_Feb_08_0952,ConditionRich,2021.2.3,59.951067938326425,
29.0,29.75,31,0.75,Stimuli/P011/things_hippopotamus_06s.jpg,0,0,0.0,0,51,51,51,,,,,,,,,,,,,29.02622560000009,0.02622560000008889,None,82.36405020000029,82.36405020000029,82.36405020000029,82.36405020000029,82.36405020000029,82.36405020000029,82.36405020000029,82.36405020000029,82.36405020000029,82.36405020000029,,001,P011,2025_Feb_08_0952,ConditionRich,2021.2.3,59.951067938326425,
29.75,30.0,41,0.0,Stimuli/Blank.png,0,0,0.0,0,52,52,52,,,,,,,,,,,,,29.775211000000127,0.02521100000012666,None,83.09802330000002,83.09802330000002,83.09802330000002,83.09802330000002,83.09802330000002,83.09802330000002,83.09802330000002,83.09802330000002,83.09802330000002,83.09802330000002,,001,P011,2025_Feb_08_0952,ConditionRich,2021.2.3,59.951067938326425,
30.0,30.75,31,0.75,Stimuli/P011/things_hippopotamus_06s.jpg,0,0,0.0,0,53,53,53,,,,,,,,,,,,,30.00848739999992,0.008487399999921763,None,83.34826079999993,83.34826079999993,83.34826079999993,83.34826079999993,83.34826079999993,83.34826079999993,83.34826079999993,83.34826079999993,83.34826079999993,83.34826079999993,,001,P011,2025_Feb_08_0952,ConditionRich,2021.2.3,59.951067938326425,
30.75,31.0,41,0.0,Stimuli/Blank.png,0,0,0.0,0,54,54,54,,,,,,,,,,,,,30.777330500000062,0.027330500000061875,None,84.09891310000012,84.09891310000012,84.09891310000012,84.09891310000012,84.09891310000012,84.09891310000012,84.09891310000012,84.09891310000012,84.09891310000012,84.09891310000012,,001,P011,2025_Feb_08_0952,ConditionRich,2021.2.3,59.951067938326425,
31.0,31.75,31,0.75,Stimuli/P011/things_hippopotamus_06s.jpg,0,0,0.0,0,55,55,55,,,,,,,,,,,,,31.009979700000258,0.009979700000258163,None,84.34912540000005,84.34912540000005,84.34912540000005,84.34912540000005,84.34912540000005,84.34912540000005,84.34912540000005,84.34912540000005,84.34912540000005,84.34912540000005,,001,P011,2025_Feb_08_0952,ConditionRich,2021.2.3,59.951067938326425,
31.75,32.0,41,0.0,Stimuli/Blank.png,0,0,0.0,0,56,56,56,,,,,,,,,,,,,31.77727679999998,0.02727679999998145,None,85.09982519999994,85.09982519999994,85.09982519999994,85.09982519999994,85.09982519999994,85.09982519999994,85.09982519999994,85.09982519999994,85.09982519999994,85.09982519999994,,001,P011,2025_Feb_08_0952,ConditionRich,2021.2.3,59.951067938326425,
32.0,32.75,39,0.75,Stimuli/P011/things_thermometer_06s.jpg,0,0,0.0,0,57,57,57,,,,,,,,,,,,,32.01061699999991,0.010616999999911059,None,85.35006950000025,85.35006950000025,85.35006950000025,85.35006950000025,85.35006950000025,85.35006950000025,85.35006950000025,85.35006950000025,85.35006950000025,85.35006950000025,,001,P011,2025_Feb_08_0952,ConditionRich,2021.2.3,59.951067938326425,
32.75,33.0,41,0.0,Stimuli/Blank.png,0,0,0.0,0,58,58,58,,,,,,,,,,,,,32.7775474,0.02754740000000311,None,86.10068799999999,86.10068799999999,86.10068799999999,86.10068799999999,86.10068799999999,86.10068799999999,86.10068799999999,86.10068799999999,86.10068799999999,86.10068799999999,,001,P011,2025_Feb_08_0952,ConditionRich,2021.2.3,59.951067938326425,
33.0,33.75,39,0.75,Stimuli/P011/things_thermometer_06s.jpg,0,0,0.0,0,59,59,59,,,,,,,,,,,,,33.01108310000018,0.011083100000178092,None,86.33421990000033,86.33421990000033,86.33421990000033,86.33421990000033,86.33421990000033,86.33421990000033,86.33421990000033,86.33421990000033,86.33421990000033,86.33421990000033,,001,P011,2025_Feb_08_0952,ConditionRich,2021.2.3,59.951067938326425,
33.75,34.0,41,0.0,Stimuli/Blank.png,0,0,0.0,0,60,60,60,,,,,,,,,,,,,33.76153629999999,0.011536299999988842,None,87.08488280000029,87.08488280000029,87.08488280000029,87.08488280000029,87.08488280000029,87.08488280000029,87.08488280000029,87.08488280000029,87.08488280000029,87.08488280000029,,001,P011,2025_Feb_08_0952,ConditionRich,2021.2.3,59.951067938326425,
34.0,34.75,39,0.75,Stimuli/P011/things_thermometer_06s.jpg,0,0,0.0,0,61,61,61,,,,,,,,,,,,,34.01201910000009,0.012019100000088656,None,87.33510260000003,87.33510260000003,87.33510260000003,87.33510260000003,87.33510260000003,87.33510260000003,87.33510260000003,87.33510260000003,87.33510260000003,87.33510260000003,,001,P011,2025_Feb_08_0952,ConditionRich,2021.2.3,59.951067938326425,
34.75,35.0,41,0.0,Stimuli/Blank.png,0,0,0.0,0,62,62,62,,,,,,,,,,,,,34.76272670000026,0.012726700000257551,None,88.08580380000012,88.08580380000012,88.08580380000012,88.08580380000012,88.08580380000012,88.08580380000012,88.08580380000012,88.08580380000012,88.08580380000012,88.08580380000012,,001,P011,2025_Feb_08_0952,ConditionRich,2021.2.3,59.951067938326425,
35.0,35.75,39,0.75,Stimuli/P011/things_thermometer_06s.jpg,0,0,0.0,0,63,63,63,,,,,,,,,,,,,35.01569419999987,0.01569419999987076,None,88.35267150000027,88.35267150000027,88.35267150000027,88.35267150000027,88.35267150000027,88.35267150000027,88.35267150000027,88.35267150000027,88.35267150000027,88.35267150000027,,001,P011,2025_Feb_08_0952,ConditionRich,2021.2.3,59.951067938326425,
35.75,36.0,41,0.0,Stimuli/Blank.png,0,0,0.0,0,64,64,64,,,,,,,,,,,,,35.76590040000019,0.01590040000019144,None,89.10333930000024,89.10333930000024,89.10333930000024,89.10333930000024,89.10333930000024,89.10333930000024,89.10333930000024,89.10333930000024,89.10333930000024,89.10333930000024,,001,P011,2025_Feb_08_0952,ConditionRich,2021.2.3,59.951067938326425,
36.0,36.75,8,0.75,Stimuli/P011/sun_asppejhsplpizvag.jpg,0,0,0.0,0,65,65,65,,,,,,,,,,,,,36.015668800000185,0.015668800000185,None,89.37023670000008,89.37023670000008,89.37023670000008,89.37023670000008,89.37023670000008,89.37023670000008,89.37023670000008,89.37023670000008,89.37023670000008,89.37023670000008,,001,P011,2025_Feb_08_0952,ConditionRich,2021.2.3,59.951067938326425,
36.75,37.0,41,0.0,Stimuli/Blank.png,0,0,0.0,0,66,66,66,,,,,,,,,,,,,36.78166139999985,0.03166139999984807,None,90.10421470000028,90.10421470000028,90.10421470000028,90.10421470000028,90.10421470000028,90.10421470000028,90.10421470000028,90.10421470000028,90.10421470000028,90.10421470000028,,001,P011,2025_Feb_08_0952,ConditionRich,2021.2.3,59.951067938326425,
37.0,37.75,8,0.75,Stimuli/P011/sun_asppejhsplpizvag.jpg,0,0,0.0,0,67,67,67,,,,,,,,,,,,,37.01522830000022,0.015228300000217132,None,90.337759,90.337759,90.337759,90.337759,90.337759,90.337759,90.337759,90.337759,90.337759,90.337759,,001,P011,2025_Feb_08_0952,ConditionRich,2021.2.3,59.951067938326425,
37.75,38.0,41,0.0,Stimuli/Blank.png,0,0,0.0,0,68,68,68,,,,,,,,,,,,,37.750656400000025,0.0006564000000253145,None,91.08844360000012,91.08844360000012,91.08844360000012,91.08844360000012,91.08844360000012,91.08844360000012,91.08844360000012,91.08844360000012,91.08844360000012,91.08844360000012,,001,P011,2025_Feb_08_0952,ConditionRich,2021.2.3,59.951067938326425,
38.0,38.75,8,0.75,Stimuli/P011/sun_asppejhsplpizvag.jpg,0,0,0.0,0,69,69,69,,,,,,,,,,,,,38.0163035999999,0.016303599999901053,None,91.35534839999991,91.35534839999991,91.35534839999991,91.35534839999991,91.35534839999991,91.35534839999991,91.35534839999991,91.35534839999991,91.35534839999991,91.35534839999991,,001,P011,2025_Feb_08_0952,ConditionRich,2021.2.3,59.951067938326425,
38.75,39.0,41,0.0,Stimuli/Blank.png,0,0,0.0,0,70,70,70,,,,,,,,,,,,,38.76670610000019,0.016706100000192237,None,92.08930760000021,92.08930760000021,92.08930760000021,92.08930760000021,92.08930760000021,92.08930760000021,92.08930760000021,92.08930760000021,92.08930760000021,92.08930760000021,,001,P011,2025_Feb_08_0952,ConditionRich,2021.2.3,59.951067938326425,
39.0,39.75,8,0.75,Stimuli/P011/sun_asppejhsplpizvag.jpg,0,0,0.0,0,71,71,71,,,,,,,,,,,,,39.001204400000006,0.0012044000000059896,None,92.33952720000025,92.33952720000025,92.33952720000025,92.33952720000025,92.33952720000025,92.33952720000025,92.33952720000025,92.33952720000025,92.33952720000025,92.33952720000025,,001,P011,2025_Feb_08_0952,ConditionRich,2021.2.3,59.951067938326425,
39.75,40.0,41,0.0,Stimuli/Blank.png,0,0,0.0,0,72,72,72,,,,,,,,,,,,,39.76713229999996,0.017132299999957468,None,93.09019420000004,93.09019420000004,93.09019420000004,93.09019420000004,93.09019420000004,93.09019420000004,93.09019420000004,93.09019420000004,93.09019420000004,93.09019420000004,,001,P011,2025_Feb_08_0952,ConditionRich,2021.2.3,59.951067938326425,
40.0,40.75,30,0.75,Stimuli/P011/things_hamburger_06s.jpg,0,0,0.0,0,73,73,73,,,,,,,,,,,,,40.0018285000001,0.001828500000101485,None,93.34044010000025,93.34044010000025,93.34044010000025,93.34044010000025,93.34044010000025,93.34044010000025,93.34044010000025,93.34044010000025,93.34044010000025,93.34044010000025,,001,P011,2025_Feb_08_0952,ConditionRich,2021.2.3,59.951067938326425,
40.75,41.0,41,0.0,Stimuli/Blank.png,0,0,0.0,0,74,74,74,,,,,,,,,,,,,40.77055280000013,0.020552800000132265,None,94.10776179999993,94.10776179999993,94.10776179999993,94.10776179999993,94.10776179999993,94.10776179999993,94.10776179999993,94.10776179999993,94.10776179999993,94.10776179999993,,001,P011,2025_Feb_08_0952,ConditionRich,2021.2.3,59.951067938326425,
41.0,41.75,30,0.75,Stimuli/P011/things_hamburger_06s.jpg,0,0,0.0,0,75,75,75,,,,,,,,,,,,,41.018898700000136,0.01889870000013616,None,94.35798220000015,94.35798220000015,94.35798220000015,94.35798220000015,94.35798220000015,94.35798220000015,94.35798220000015,94.35798220000015,94.35798220000015,94.35798220000015,,001,P011,2025_Feb_08_0952,ConditionRich,2021.2.3,59.951067938326425,
41.75,42.0,41,0.0,Stimuli/Blank.png,0,0,0.0,0,76,76,76,,,,,,,,,,,,,41.77086989999998,0.02086989999997968,None,95.09233620000032,95.09233620000032,95.09233620000032,95.09233620000032,95.09233620000032,95.09233620000032,95.09233620000032,95.09233620000032,95.09233620000032,95.09233620000032,,001,P011,2025_Feb_08_0952,ConditionRich,2021.2.3,59.951067938326425,
42.0,42.75,30,0.75,Stimuli/P011/things_hamburger_06s.jpg,0,0,0.0,0,77,77,77,,,,,,,,,,,,,42.00236309999991,0.0023630999999113556,None,95.32564290000028,95.32564290000028,95.32564290000028,95.32564290000028,95.32564290000028,95.32564290000028,95.32564290000028,95.32564290000028,95.32564290000028,95.32564290000028,,001,P011,2025_Feb_08_0952,ConditionRich,2021.2.3,59.951067938326425,
42.75,43.0,41,0.0,Stimuli/Blank.png,0,0,0.0,0,78,78,78,,,,,,,,,,,,,42.752867400000014,0.002867400000013731,None,96.07616540000026,96.07616540000026,96.07616540000026,96.07616540000026,96.07616540000026,96.07616540000026,96.07616540000026,96.07616540000026,96.07616540000026,96.07616540000026,,001,P011,2025_Feb_08_0952,ConditionRich,2021.2.3,59.951067938326425,
43.0,43.75,30,0.75,Stimuli/P011/things_hamburger_06s.jpg,0,0,0.0,0,79,79,79,,,,,,,,,,,,,43.00582179999992,0.005821799999921495,None,96.34306830000014,96.34306830000014,96.34306830000014,96.34306830000014,96.34306830000014,96.34306830000014,96.34306830000014,96.34306830000014,96.34306830000014,96.34306830000014,,001,P011,2025_Feb_08_0952,ConditionRich,2021.2.3,59.951067938326425,
43.75,44.0,41,0.0,Stimuli/Blank.png,0,0,0.0,0,80,80,80,,,,,,,,,,,,,43.7712532999999,0.021253299999898445,None,97.09374210000033,97.09374210000033,97.09374210000033,97.09374210000033,97.09374210000033,97.09374210000033,97.09374210000033,97.09374210000033,97.09374210000033,97.09374210000033,,001,P011,2025_Feb_08_0952,ConditionRich,2021.2.3,59.951067938326425,
44.0,44.75,37,0.75,Stimuli/P011/things_spam_06s.jpg,0,0,0.0,0,81,81,81,,,,,,,,,,,,,44.00493240000014,0.004932400000143389,None,97.34395020000011,97.34395020000011,97.34395020000011,97.34395020000011,97.34395020000011,97.34395020000011,97.34395020000011,97.34395020000011,97.34395020000011,97.34395020000011,,001,P011,2025_Feb_08_0952,ConditionRich,2021.2.3,59.951067938326425,
44.75,45.0,41,0.0,Stimuli/Blank.png,0,0,0.0,0,82,82,82,,,,,,,,,,,,,44.77145830000018,0.021458300000176678,None,98.09462460000032,98.09462460000032,98.09462460000032,98.09462460000032,98.09462460000032,98.09462460000032,98.09462460000032,98.09462460000032,98.09462460000032,98.09462460000032,,001,P011,2025_Feb_08_0952,ConditionRich,2021.2.3,59.951067938326425,
45.0,45.75,37,0.75,Stimuli/P011/things_spam_06s.jpg,0,0,0.0,0,83,83,83,,,,,,,,,,,,,45.005099900000005,0.005099900000004709,None,98.3281594,98.3281594,98.3281594,98.3281594,98.3281594,98.3281594,98.3281594,98.3281594,98.3281594,98.3281594,,001,P011,2025_Feb_08_0952,ConditionRich,2021.2.3,59.951067938326425,
45.75,46.0,41,0.0,Stimuli/Blank.png,0,0,0.0,0,84,84,84,,,,,,,,,,,,,45.75715089999994,0.0071508999999423395,None,99.0788279000003,99.0788279000003,99.0788279000003,99.0788279000003,99.0788279000003,99.0788279000003,99.0788279000003,99.0788279000003,99.0788279000003,99.0788279000003,,001,P011,2025_Feb_08_0952,ConditionRich,2021.2.3,59.951067938326425,
46.0,46.75,37,0.75,Stimuli/P011/things_spam_06s.jpg,0,0,0.0,0,85,85,85,,,,,,,,,,,,,46.00629630000003,0.006296300000030897,None,99.32904600000029,99.32904600000029,99.32904600000029,99.32904600000029,99.32904600000029,99.32904600000029,99.32904600000029,99.32904600000029,99.32904600000029,99.32904600000029,,001,P011,2025_Feb_08_0952,ConditionRich,2021.2.3,59.951067938326425,
46.75,47.0,41,0.0,Stimuli/Blank.png,0,0,0.0,0,86,86,86,,,,,,,,,,,,,46.75683200000003,0.0068320000000312575,None,100.07970550000027,100.07970550000027,100.07970550000027,100.07970550000027,100.07970550000027,100.07970550000027,100.07970550000027,100.07970550000027,100.07970550000027,100.07970550000027,,001,P011,2025_Feb_08_0952,ConditionRich,2021.2.3,59.951067938326425,
47.0,47.75,37,0.75,Stimuli/P011/things_spam_06s.jpg,0,0,0.0,0,87,87,87,,,,,,,,,,,,,47.00684880000017,0.0068488000001707405,None,100.32992490000015,100.32992490000015,100.32992490000015,100.32992490000015,100.32992490000015,100.32992490000015,100.32992490000015,100.32992490000015,100.32992490000015,100.32992490000015,,001,P011,2025_Feb_08_0952,ConditionRich,2021.2.3,59.951067938326425,
47.75,48.0,41,0.0,Stimuli/Blank.png,0,0,0.0,0,88,88,88,,,,,,,,,,,,,47.75824520000015,0.008245200000146724,None,101.08060120000027,101.08060120000027,101.08060120000027,101.08060120000027,101.08060120000027,101.08060120000027,101.08060120000027,101.08060120000027,101.08060120000027,101.08060120000027,,001,P011,2025_Feb_08_0952,ConditionRich,2021.2.3,59.951067938326425,
48.0,48.75,20,0.75,Stimuli/P011/sun_ciifteeudwpxupnw.jpg,0,0,0.0,0,89,89,89,,,,,,,,,,,,,48.010787300000175,0.010787300000174582,None,101.36417680000022,101.36417680000022,101.36417680000022,101.36417680000022,101.36417680000022,101.36417680000022,101.36417680000022,101.36417680000022,101.36417680000022,101.36417680000022,,001,P011,2025_Feb_08_0952,ConditionRich,2021.2.3,59.951067938326425,
48.75,49.0,41,0.0,Stimuli/Blank.png,0,0,0.0,0,90,90,90,,,,,,,,,,,,,48.79168800000025,0.0416880000002493,None,102.11484440000004,102.11484440000004,102.11484440000004,102.11484440000004,102.11484440000004,102.11484440000004,102.11484440000004,102.11484440000004,102.11484440000004,102.11484440000004,,001,P011,2025_Feb_08_0952,ConditionRich,2021.2.3,59.951067938326425,
49.0,49.75,20,0.75,Stimuli/P011/sun_ciifteeudwpxupnw.jpg,0,0,0.0,0,91,91,91,,,,,,,,,,,,,49.011073000000124,0.011073000000124011,None,102.34838190000028,102.34838190000028,102.34838190000028,102.34838190000028,102.34838190000028,102.34838190000028,102.34838190000028,102.34838190000028,102.34838190000028,102.34838190000028,,001,P011,2025_Feb_08_0952,ConditionRich,2021.2.3,59.951067938326425,
49.75,50.0,41,0.0,Stimuli/Blank.png,0,0,0.0,0,92,92,92,,,,,,,,,,,,,49.776631799999905,0.026631799999904615,None,103.09905010000011,103.09905010000011,103.09905010000011,103.09905010000011,103.09905010000011,103.09905010000011,103.09905010000011,103.09905010000011,103.09905010000011,103.09905010000011,,001,P011,2025_Feb_08_0952,ConditionRich,2021.2.3,59.951067938326425,
50.0,50.75,20,0.75,Stimuli/P011/sun_ciifteeudwpxupnw.jpg,0,0,0.0,0,93,93,93,,,,,,,,,,,,,50.00971979999986,0.00971979999985706,None,103.33258330000035,103.33258330000035,103.33258330000035,103.33258330000035,103.33258330000035,103.33258330000035,103.33258330000035,103.33258330000035,103.33258330000035,103.33258330000035,,001,P011,2025_Feb_08_0952,ConditionRich,2021.2.3,59.951067938326425,
50.75,51.0,41,0.0,Stimuli/Blank.png,0,0,0.0,0,94,94,94,,,,,,,,,,,,,50.76061290000007,0.010612900000069203,None,104.08325000000013,104.08325000000013,104.08325000000013,104.08325000000013,104.08325000000013,104.08325000000013,104.08325000000013,104.08325000000013,104.08325000000013,104.08325000000013,,001,P011,2025_Feb_08_0952,ConditionRich,2021.2.3,59.951067938326425,
51.0,51.75,20,0.75,Stimuli/P011/sun_ciifteeudwpxupnw.jpg,0,0,0.0,0,95,95,95,,,,,,,,,,,,,51.01131910000004,0.011319100000036997,None,104.33346060000031,104.33346060000031,104.33346060000031,104.33346060000031,104.33346060000031,104.33346060000031,104.33346060000031,104.33346060000031,104.33346060000031,104.33346060000031,,001,P011,2025_Feb_08_0952,ConditionRich,2021.2.3,59.951067938326425,
51.75,52.0,41,0.0,Stimuli/Blank.png,0,0,0.0,0,96,96,96,,,,,,,,,,,,,51.762447500000235,0.012447500000234868,None,105.08417850000023,105.08417850000023,105.08417850000023,105.08417850000023,105.08417850000023,105.08417850000023,105.08417850000023,105.08417850000023,105.08417850000023,105.08417850000023,,001,P011,2025_Feb_08_0952,ConditionRich,2021.2.3,59.951067938326425,
52.0,52.75,33,0.75,Stimuli/P011/things_hot-air_balloon_06s.jpg,0,0,0.0,0,97,97,97,,,,,,,,,,,,,52.011069000000134,0.01106900000013411,None,105.35105659999999,105.35105659999999,105.35105659999999,105.35105659999999,105.35105659999999,105.35105659999999,105.35105659999999,105.35105659999999,105.35105659999999,105.35105659999999,,001,P011,2025_Feb_08_0952,ConditionRich,2021.2.3,59.951067938326425,
52.75,53.0,41,0.0,Stimuli/Blank.png,0,0,0.0,0,98,98,98,,,,,,,,,,,,,52.780531899999914,0.030531899999914458,None,106.11838160000025,106.11838160000025,106.11838160000025,106.11838160000025,106.11838160000025,106.11838160000025,106.11838160000025,106.11838160000025,106.11838160000025,106.11838160000025,,001,P011,2025_Feb_08_0952,ConditionRich,2021.2.3,59.951067938326425,
53.0,53.75,33,0.75,Stimuli/P011/things_hot-air_balloon_06s.jpg,0,0,0.0,0,99,99,99,,,,,,,,,,,,,53.0301515000001,0.030151500000101805,None,106.35189360000004,106.35189360000004,106.35189360000004,106.35189360000004,106.35189360000004,106.35189360000004,106.35189360000004,106.35189360000004,106.35189360000004,106.35189360000004,,001,P011,2025_Feb_08_0952,ConditionRich,2021.2.3,59.951067938326425,
53.75,54.0,41,0.0,Stimuli/Blank.png,0,0,0.0,0,100,100,100,,,,,,,,,,,,,53.7656336,0.015633600000001024,None,107.10260560000006,107.10260560000006,107.10260560000006,107.10260560000006,107.10260560000006,107.10260560000006,107.10260560000006,107.10260560000006,107.10260560000006,107.10260560000006,,001,P011,2025_Feb_08_0952,ConditionRich,2021.2.3,59.951067938326425,
54.0,54.75,33,0.75,Stimuli/P011/things_hot-air_balloon_06s.jpg,0,0,0.0,0,101,101,101,,,,,,,,,,,,,54.01286130000017,0.01286130000016783,None,107.35281440000017,107.35281440000017,107.35281440000017,107.35281440000017,107.35281440000017,107.35281440000017,107.35281440000017,107.35281440000017,107.35281440000017,107.35281440000017,,001,P011,2025_Feb_08_0952,ConditionRich,2021.2.3,59.951067938326425,
54.75,55.0,41,0.0,Stimuli/Blank.png,0,0,0.0,0,102,102,102,,,,,,,,,,,,,54.78017499999987,0.030174999999871943,None,108.10346419999996,108.10346419999996,108.10346419999996,108.10346419999996,108.10346419999996,108.10346419999996,108.10346419999996,108.10346419999996,108.10346419999996,108.10346419999996,,001,P011,2025_Feb_08_0952,ConditionRich,2021.2.3,59.951067938326425,
55.0,55.75,33,0.75,Stimuli/P011/things_hot-air_balloon_06s.jpg,0,0,0.0,0,103,103,103,,,,,,,,,,,,,55.014258300000165,0.014258300000165036,None,108.33701010000004,108.33701010000004,108.33701010000004,108.33701010000004,108.33701010000004,108.33701010000004,108.33701010000004,108.33701010000004,108.33701010000004,108.33701010000004,,001,P011,2025_Feb_08_0952,ConditionRich,2021.2.3,59.951067938326425,
55.75,56.0,41,0.0,Stimuli/Blank.png,0,0,0.0,0,104,104,104,,,,,,,,,,,,,55.76552410000022,0.015524100000220642,None,109.0876787000002,109.0876787000002,109.0876787000002,109.0876787000002,109.0876787000002,109.0876787000002,109.0876787000002,109.0876787000002,109.0876787000002,109.0876787000002,,001,P011,2025_Feb_08_0952,ConditionRich,2021.2.3,59.951067938326425,
56.0,56.75,2,0.75,Stimuli/P011/sun_aewhvqonribwlxiq.jpg,0,0,0.0,0,105,105,105,,,,,,,,,,,,,56.000893800000085,0.0008938000000853208,None,109.33791139999994,109.33791139999994,109.33791139999994,109.33791139999994,109.33791139999994,109.33791139999994,109.33791139999994,109.33791139999994,109.33791139999994,109.33791139999994,,001,P011,2025_Feb_08_0952,ConditionRich,2021.2.3,59.951067938326425,
56.75,57.0,41,0.0,Stimuli/Blank.png,0,0,0.0,0,106,106,106,,,,,,,,,,,,,56.766175600000224,0.01617560000022422,None,110.08860140000024,110.08860140000024,110.08860140000024,110.08860140000024,110.08860140000024,110.08860140000024,110.08860140000024,110.08860140000024,110.08860140000024,110.08860140000024,,001,P011,2025_Feb_08_0952,ConditionRich,2021.2.3,59.951067938326425,
57.0,57.75,2,0.75,Stimuli/P011/sun_aewhvqonribwlxiq.jpg,0,0,0.0,0,107,107,107,,,,,,,,,,,,,57.00181070000008,0.0018107000000782136,None,110.33877669999993,110.33877669999993,110.33877669999993,110.33877669999993,110.33877669999993,110.33877669999993,110.33877669999993,110.33877669999993,110.33877669999993,110.33877669999993,,001,P011,2025_Feb_08_0952,ConditionRich,2021.2.3,59.951067938326425,
57.75,58.0,41,0.0,Stimuli/Blank.png,0,0,0.0,0,108,108,108,,,,,,,,,,,,,57.76698250000027,0.016982500000267464,None,111.08944109999993,111.08944109999993,111.08944109999993,111.08944109999993,111.08944109999993,111.08944109999993,111.08944109999993,111.08944109999993,111.08944109999993,111.08944109999993,,001,P011,2025_Feb_08_0952,ConditionRich,2021.2.3,59.951067938326425,
58.0,58.75,2,0.75,Stimuli/P011/sun_aewhvqonribwlxiq.jpg,0,0,0.0,0,109,109,109,,,,,,,,,,,,,57.99961510000003,-0.00038489999997182167,None,111.32297970000036,111.32297970000036,111.32297970000036,111.32297970000036,111.32297970000036,111.32297970000036,111.32297970000036,111.32297970000036,111.32297970000036,111.32297970000036,,001,P011,2025_Feb_08_0952,ConditionRich,2021.2.3,59.951067938326425,
58.75,59.0,41,0.0,Stimuli/Blank.png,0,0,0.0,0,110,110,110,,,,,,,,,,,,,58.75145740000016,0.0014574000001630338,None,112.07365430000027,112.07365430000027,112.07365430000027,112.07365430000027,112.07365430000027,112.07365430000027,112.07365430000027,112.07365430000027,112.07365430000027,112.07365430000027,,001,P011,2025_Feb_08_0952,ConditionRich,2021.2.3,59.951067938326425,
59.0,59.75,2,0.75,Stimuli/P011/sun_aewhvqonribwlxiq.jpg,0,0,0.0,0,111,111,111,,,,,,,,,,,,,59.001282600000195,0.0012826000001950888,None,112.32386720000022,112.32386720000022,112.32386720000022,112.32386720000022,112.32386720000022,112.32386720000022,112.32386720000022,112.32386720000022,112.32386720000022,112.32386720000022,,001,P011,2025_Feb_08_0952,ConditionRich,2021.2.3,59.951067938326425,
59.75,60.0,41,0.0,Stimuli/Blank.png,0,0,0.0,0,112,112,112,,,,,,,,,,,,,59.75141200000007,0.0014120000000730215,None,113.07452880000028,113.07452880000028,113.07452880000028,113.07452880000028,113.07452880000028,113.07452880000028,113.07452880000028,113.07452880000028,113.07452880000028,113.07452880000028,,001,P011,2025_Feb_08_0952,ConditionRich,2021.2.3,59.951067938326425,
60.0,60.75,5,0.75,Stimuli/P011/sun_anfwllcezhlypoti.jpg,0,0,0.0,0,113,113,113,,,,,,,,,,,,,60.00163539999994,0.0016353999999410007,None,113.32496540000011,113.32496540000011,113.32496540000011,113.32496540000011,113.32496540000011,113.32496540000011,113.32496540000011,113.32496540000011,113.32496540000011,113.32496540000011,,001,P011,2025_Feb_08_0952,ConditionRich,2021.2.3,59.951067938326425,
60.75,61.0,41,0.0,Stimuli/Blank.png,0,0,0.0,0,114,114,114,,,,,,,,,,,,,60.752259700000195,0.002259700000195153,None,114.07541519999995,114.07541519999995,114.07541519999995,114.07541519999995,114.07541519999995,114.07541519999995,114.07541519999995,114.07541519999995,114.07541519999995,114.07541519999995,,001,P011,2025_Feb_08_0952,ConditionRich,2021.2.3,59.951067938326425,
61.0,61.75,5,0.75,Stimuli/P011/sun_anfwllcezhlypoti.jpg,0,0,0.0,0,115,115,115,,,,,,,,,,,,,61.00314350000008,0.0031435000000783475,None,114.34232049999991,114.34232049999991,114.34232049999991,114.34232049999991,114.34232049999991,114.34232049999991,114.34232049999991,114.34232049999991,114.34232049999991,114.34232049999991,,001,P011,2025_Feb_08_0952,ConditionRich,2021.2.3,59.951067938326425,
61.75,62.0,41,0.0,Stimuli/Blank.png,0,0,0.0,0,116,116,116,,,,,,,,,,,,,61.771011499999986,0.021011499999985972,None,115.09298620000027,115.09298620000027,115.09298620000027,115.09298620000027,115.09298620000027,115.09298620000027,115.09298620000027,115.09298620000027,115.09298620000027,115.09298620000027,,001,P011,2025_Feb_08_0952,ConditionRich,2021.2.3,59.951067938326425,
62.0,62.75,5,0.75,Stimuli/P011/sun_anfwllcezhlypoti.jpg,0,0,0.0,0,117,117,117,,,,,,,,,,,,,62.00444040000002,0.004440400000021327,None,115.34319610000011,115.34319610000011,115.34319610000011,115.34319610000011,115.34319610000011,115.34319610000011,115.34319610000011,115.34319610000011,115.34319610000011,115.34319610000011,,001,P011,2025_Feb_08_0952,ConditionRich,2021.2.3,59.951067938326425,
62.75,63.0,41,0.0,Stimuli/Blank.png,0,0,0.0,0,118,118,118,,,,,,,,,,,,,62.77102560000003,0.021025600000029954,None,116.09390250000024,116.09390250000024,116.09390250000024,116.09390250000024,116.09390250000024,116.09390250000024,116.09390250000024,116.09390250000024,116.09390250000024,116.09390250000024,,001,P011,2025_Feb_08_0952,ConditionRich,2021.2.3,59.951067938326425,
63.0,63.75,5,0.75,Stimuli/P011/sun_anfwllcezhlypoti.jpg,0,0,0.0,0,119,119,119,,,,,,,,,,,,,63.00429889999987,0.00429889999986699,None,116.3274437,116.3274437,116.3274437,116.3274437,116.3274437,116.3274437,116.3274437,116.3274437,116.3274437,116.3274437,,001,P011,2025_Feb_08_0952,ConditionRich,2021.2.3,59.951067938326425,
63.75,64.0,41,0.0,Stimuli/Blank.png,0,0,0.0,0,120,120,120,,,,,,,,,,,,,63.75496310000017,0.004963100000168197,None,117.07805589999998,117.07805589999998,117.07805589999998,117.07805589999998,117.07805589999998,117.07805589999998,117.07805589999998,117.07805589999998,117.07805589999998,117.07805589999998,,001,P011,2025_Feb_08_0952,ConditionRich,2021.2.3,59.951067938326425,
64.0,64.75,16,0.75,Stimuli/P011/sun_bpuwvyadswjfoaby.jpg,0,0,0.0,0,121,121,121,,,,,,,,,,,,,64.00582140000006,0.0058214000000589294,None,117.34496960000024,117.34496960000024,117.34496960000024,117.34496960000024,117.34496960000024,117.34496960000024,117.34496960000024,117.34496960000024,117.34496960000024,117.34496960000024,,001,P011,2025_Feb_08_0952,ConditionRich,2021.2.3,59.951067938326425,
64.75,65.0,41,0.0,Stimuli/Blank.png,0,0,0.0,0,122,122,122,,,,,,,,,,,,,64.77236840000023,0.022368400000232214,None,118.09563230000003,118.09563230000003,118.09563230000003,118.09563230000003,118.09563230000003,118.09563230000003,118.09563230000003,118.09563230000003,118.09563230000003,118.09563230000003,,001,P011,2025_Feb_08_0952,ConditionRich,2021.2.3,59.951067938326425,
65.0,65.75,16,0.75,Stimuli/P011/sun_bpuwvyadswjfoaby.jpg,0,0,0.0,0,123,123,123,,,,,,,,,,,,,65.00604860000021,0.0060486000002129,None,118.32917540000017,118.32917540000017,118.32917540000017,118.32917540000017,118.32917540000017,118.32917540000017,118.32917540000017,118.32917540000017,118.32917540000017,118.32917540000017,,001,P011,2025_Feb_08_0952,ConditionRich,2021.2.3,59.951067938326425,
65.75,66.0,41,0.0,Stimuli/Blank.png,0,0,0.0,0,124,124,124,,,,,,,,,,,,,65.75680860000011,0.006808600000113074,None,119.07983590000003,119.07983590000003,119.07983590000003,119.07983590000003,119.07983590000003,119.07983590000003,119.07983590000003,119.07983590000003,119.07983590000003,119.07983590000003,,001,P011,2025_Feb_08_0952,ConditionRich,2021.2.3,59.951067938326425,
66.0,66.75,16,0.75,Stimuli/P011/sun_bpuwvyadswjfoaby.jpg,0,0,0.0,0,125,125,125,,,,,,,,,,,,,66.00751900000023,0.0075190000002294255,None,119.33005700000012,119.33005700000012,119.33005700000012,119.33005700000012,119.33005700000012,119.33005700000012,119.33005700000012,119.33005700000012,119.33005700000012,119.33005700000012,,001,P011,2025_Feb_08_0952,ConditionRich,2021.2.3,59.951067938326425,
66.75,67.0,41,0.0,Stimuli/Blank.png,0,0,0.0,0,126,126,126,,,,,,,,,,,,,66.75838079999994,0.008380799999940791,None,120.08073620000005,120.08073620000005,120.08073620000005,120.08073620000005,120.08073620000005,120.08073620000005,120.08073620000005,120.08073620000005,120.08073620000005,120.08073620000005,,001,P011,2025_Feb_08_0952,ConditionRich,2021.2.3,59.951067938326425,
67.0,67.75,16,0.75,Stimuli/P011/sun_bpuwvyadswjfoaby.jpg,1,0,0.75,0,127,127,127,,,,,,,,,,,,,67.00784460000023,0.00784460000022591,1,120.33093830000007,120.33093830000007,120.33093830000007,120.33093830000007,120.33093830000007,120.33093830000007,120.33093830000007,121.06496050000032,120.33093830000007,120.33093830000007,0.4188389000000825,001,P011,2025_Feb_08_0952,ConditionRich,2021.2.3,59.951067938326425,
67.75,68.0,41,0.0,Stimuli/Blank.png,0,0,0.0,0,128,128,128,,,,,,,,,,,,,67.7591824000001,0.009182400000099733,None,121.08161840000002,121.08161840000002,121.08161840000002,121.08161840000002,121.08161840000002,121.08161840000002,121.08161840000002,121.08161840000002,121.08161840000002,121.08161840000002,,001,P011,2025_Feb_08_0952,ConditionRich,2021.2.3,59.951067938326425,
68.0,68.75,23,0.75,Stimuli/P011/things_clove_06s.jpg,0,0,0.0,0,129,129,129,,,,,,,,,,,,,68.00864559999991,0.008645599999908882,None,121.34855900000002,121.34855900000002,121.34855900000002,121.34855900000002,121.34855900000002,121.34855900000002,121.34855900000002,121.34855900000002,121.34855900000002,121.34855900000002,,001,P011,2025_Feb_08_0952,ConditionRich,2021.2.3,59.951067938326425,
68.75,69.0,41,0.0,Stimuli/Blank.png,0,0,0.0,0,130,130,130,,,,,,,,,,,,,68.77711690000024,0.027116900000237365,None,122.11587180000015,122.11587180000015,122.11587180000015,122.11587180000015,122.11587180000015,122.11587180000015,122.11587180000015,122.11587180000015,122.11587180000015,122.11587180000015,,001,P011,2025_Feb_08_0952,ConditionRich,2021.2.3,59.951067938326425,
69.0,69.75,23,0.75,Stimuli/P011/things_clove_06s.jpg,1,0,0.75,0,131,131,131,,,,,,,,,,,,,69.02636200000006,0.026362000000062835,None,122.34940490000008,122.34940490000008,122.34940490000008,122.34940490000008,122.34940490000008,122.34940490000008,122.34940490000008,None,122.34940490000008,122.34940490000008,,001,P011,2025_Feb_08_0952,ConditionRich,2021.2.3,59.951067938326425,
69.75,70.0,41,0.0,Stimuli/Blank.png,0,0,0.0,0,132,132,132,,,,,,,,,,,,,69.76165399999991,0.011653999999907683,None,123.08338800000001,123.08338800000001,123.08338800000001,123.08338800000001,123.08338800000001,123.08338800000001,123.08338800000001,123.08338800000001,123.08338800000001,123.08338800000001,,001,P011,2025_Feb_08_0952,ConditionRich,2021.2.3,59.951067938326425,
70.0,70.75,23,0.75,Stimuli/P011/things_clove_06s.jpg,0,0,0.0,0,133,133,133,,,,,,,,,,,,,70.01096540000026,0.010965400000259251,None,123.35029579999991,123.35029579999991,123.35029579999991,123.35029579999991,123.35029579999991,123.35029579999991,123.35029579999991,123.35029579999991,123.35029579999991,123.35029579999991,,001,P011,2025_Feb_08_0952,ConditionRich,2021.2.3,59.951067938326425,
70.75,71.0,41,0.0,Stimuli/Blank.png,0,0,0.0,0,134,134,134,,,,,,,,,,,,,70.78066230000013,0.030662300000130926,None,124.11761770000021,124.11761770000021,124.11761770000021,124.11761770000021,124.11761770000021,124.11761770000021,124.11761770000021,124.11761770000021,124.11761770000021,124.11761770000021,,001,P011,2025_Feb_08_0952,ConditionRich,2021.2.3,59.951067938326425,
71.0,71.75,23,0.75,Stimuli/P011/things_clove_06s.jpg,0,0,0.0,0,135,135,135,,,,,,,,,,,,,71.0307413999999,0.030741399999897112,None,124.36785129999998,124.36785129999998,124.36785129999998,124.36785129999998,124.36785129999998,124.36785129999998,124.36785129999998,124.36785129999998,124.36785129999998,124.36785129999998,,001,P011,2025_Feb_08_0952,ConditionRich,2021.2.3,59.951067938326425,
71.75,72.0,41,0.0,Stimuli/Blank.png,0,0,0.0,0,136,136,136,,,,,,,,,,,,,71.78061070000012,0.03061070000012478,None,125.11851280000019,125.11851280000019,125.11851280000019,125.11851280000019,125.11851280000019,125.11851280000019,125.11851280000019,125.11851280000019,125.11851280000019,125.11851280000019,,001,P011,2025_Feb_08_0952,ConditionRich,2021.2.3,59.951067938326425,
72.0,72.75,35,0.75,Stimuli/P011/things_raccoon_06n.jpg,0,0,0.0,0,137,137,137,,,,,,,,,,,,,72.03092250000009,0.030922500000087894,None,125.3687304,125.3687304,125.3687304,125.3687304,125.3687304,125.3687304,125.3687304,125.3687304,125.3687304,125.3687304,,001,P011,2025_Feb_08_0952,ConditionRich,2021.2.3,59.951067938326425,
72.75,73.0,41,0.0,Stimuli/Blank.png,0,0,0.0,0,138,138,138,,,,,,,,,,,,,72.78014979999989,0.030149799999890092,None,126.10271890000013,126.10271890000013,126.10271890000013,126.10271890000013,126.10271890000013,126.10271890000013,126.10271890000013,126.10271890000013,126.10271890000013,126.10271890000013,,001,P011,2025_Feb_08_0952,ConditionRich,2021.2.3,59.951067938326425,
73.0,73.75,35,0.75,Stimuli/P011/things_raccoon_06n.jpg,0,0,0.0,0,139,139,139,,,,,,,,,,,,,73.01596800000016,0.01596800000015719,None,126.35294680000015,126.35294680000015,126.35294680000015,126.35294680000015,126.35294680000015,126.35294680000015,126.35294680000015,126.35294680000015,126.35294680000015,126.35294680000015,,001,P011,2025_Feb_08_0952,ConditionRich,2021.2.3,59.951067938326425,
73.75,74.0,41,0.0,Stimuli/Blank.png,0,0,0.0,0,140,140,140,,,,,,,,,,,,,73.7662405000001,0.01624050000009447,None,127.10359199999994,127.10359199999994,127.10359199999994,127.10359199999994,127.10359199999994,127.10359199999994,127.10359199999994,127.10359199999994,127.10359199999994,127.10359199999994,,001,P011,2025_Feb_08_0952,ConditionRich,2021.2.3,59.951067938326425,
74.0,74.75,35,0.75,Stimuli/P011/things_raccoon_06n.jpg,0,0,0.0,0,141,141,141,,,,,,,,,,,,,74.01598869999998,0.015988699999979872,None,127.35384019999992,127.35384019999992,127.35384019999992,127.35384019999992,127.35384019999992,127.35384019999992,127.35384019999992,127.35384019999992,127.35384019999992,127.35384019999992,,001,P011,2025_Feb_08_0952,ConditionRich,2021.2.3,59.951067938326425,
74.75,75.0,41,0.0,Stimuli/Blank.png,0,0,0.0,0,142,142,142,,,,,,,,,,,,,74.76532739999993,0.015327399999932823,None,128.08781769999996,128.08781769999996,128.08781769999996,128.08781769999996,128.08781769999996,128.08781769999996,128.08781769999996,128.08781769999996,128.08781769999996,128.08781769999996,,001,P011,2025_Feb_08_0952,ConditionRich,2021.2.3,59.951067938326425,
75.0,75.75,35,0.75,Stimuli/P011/things_raccoon_06n.jpg,0,0,0.0,0,143,143,143,,,,,,,,,,,,,75.01545990000022,0.01545990000022357,None,128.3546891000001,128.3546891000001,128.3546891000001,128.3546891000001,128.3546891000001,128.3546891000001,128.3546891000001,128.3546891000001,128.3546891000001,128.3546891000001,,001,P011,2025_Feb_08_0952,ConditionRich,2021.2.3,59.951067938326425,
75.75,76.0,41,0.0,Stimuli/Blank.png,0,0,0.0,0,144,144,144,,,,,,,,,,,,,75.76625749999994,0.016257499999937863,None,129.08869189999996,129.08869189999996,129.08869189999996,129.08869189999996,129.08869189999996,129.08869189999996,129.08869189999996,129.08869189999996,129.08869189999996,129.08869189999996,,001,P011,2025_Feb_08_0952,ConditionRich,2021.2.3,59.951067938326425,
76.0,76.75,10,0.75,Stimuli/P011/sun_awufkrkrdrdbvvis.jpg,0,0,0.0,0,145,145,145,,,,,,,,,,,,,76.00170759999992,0.0017075999999178748,None,129.33891070000027,129.33891070000027,129.33891070000027,129.33891070000027,129.33891070000027,129.33891070000027,129.33891070000027,129.33891070000027,129.33891070000027,129.33891070000027,,001,P011,2025_Feb_08_0952,ConditionRich,2021.2.3,59.951067938326425,
76.75,77.0,41,0.0,Stimuli/Blank.png,0,0,0.0,0,146,146,146,,,,,,,,,,,,,76.7670677000001,0.01706770000009783,None,130.08957320000036,130.08957320000036,130.08957320000036,130.08957320000036,130.08957320000036,130.08957320000036,130.08957320000036,130.08957320000036,130.08957320000036,130.08957320000036,,001,P011,2025_Feb_08_0952,ConditionRich,2021.2.3,59.951067938326425,
77.0,77.75,10,0.75,Stimuli/P011/sun_awufkrkrdrdbvvis.jpg,0,0,0.0,0,147,147,147,,,,,,,,,,,,,77.00118680000014,0.0011868000001413748,None,130.33979769999996,130.33979769999996,130.33979769999996,130.33979769999996,130.33979769999996,130.33979769999996,130.33979769999996,130.33979769999996,130.33979769999996,130.33979769999996,,001,P011,2025_Feb_08_0952,ConditionRich,2021.2.3,59.951067938326425,
77.75,78.0,41,0.0,Stimuli/Blank.png,0,0,0.0,0,148,148,148,,,,,,,,,,,,,77.76791860000003,0.017918600000029983,None,131.09045930000002,131.09045930000002,131.09045930000002,131.09045930000002,131.09045930000002,131.09045930000002,131.09045930000002,131.09045930000002,131.09045930000002,131.09045930000002,,001,P011,2025_Feb_08_0952,ConditionRich,2021.2.3,59.951067938326425,
78.0,78.75,10,0.75,Stimuli/P011/sun_awufkrkrdrdbvvis.jpg,0,0,0.0,0,149,149,149,,,,,,,,,,,,,78.00165779999998,0.0016577999999753956,None,131.32400140000027,131.32400140000027,131.32400140000027,131.32400140000027,131.32400140000027,131.32400140000027,131.32400140000027,131.32400140000027,131.32400140000027,131.32400140000027,,001,P011,2025_Feb_08_0952,ConditionRich,2021.2.3,59.951067938326425,
78.75,79.0,41,0.0,Stimuli/Blank.png,0,0,0.0,0,150,150,150,,,,,,,,,,,,,78.75151159999996,0.0015115999999579799,None,132.07466560000012,132.07466560000012,132.07466560000012,132.07466560000012,132.07466560000012,132.07466560000012,132.07466560000012,132.07466560000012,132.07466560000012,132.07466560000012,,001,P011,2025_Feb_08_0952,ConditionRich,2021.2.3,59.951067938326425,
79.0,79.75,10,0.75,Stimuli/P011/sun_awufkrkrdrdbvvis.jpg,0,0,0.0,0,151,151,151,,,,,,,,,,,,,79.00232249999999,0.0023224999999911233,None,132.32490880000023,132.32490880000023,132.32490880000023,132.32490880000023,132.32490880000023,132.32490880000023,132.32490880000023,132.32490880000023,132.32490880000023,132.32490880000023,,001,P011,2025_Feb_08_0952,ConditionRich,2021.2.3,59.951067938326425,
79.75,80.0,41,0.0,Stimuli/Blank.png,0,0,0.0,0,152,152,152,,,,,,,,,,,,,79.75239409999995,0.002394099999946775,None,133.0755876000003,133.0755876000003,133.0755876000003,133.0755876000003,133.0755876000003,133.0755876000003,133.0755876000003,133.0755876000003,133.0755876000003,133.0755876000003,,001,P011,2025_Feb_08_0952,ConditionRich,2021.2.3,59.951067938326425,
80.0,80.75,15,0.75,Stimuli/P011/sun_bmngnyuahubpqroh.jpg,0,0,0.0,0,153,153,153,,,,,,,,,,,,,80.00249620000022,0.0024962000002233253,None,133.34241760000032,133.34241760000032,133.34241760000032,133.34241760000032,133.34241760000032,133.34241760000032,133.34241760000032,133.34241760000032,133.34241760000032,133.34241760000032,,001,P011,2025_Feb_08_0952,ConditionRich,2021.2.3,59.951067938326425,
80.75,81.0,41,0.0,Stimuli/Blank.png,0,0,0.0,0,154,154,154,,,,,,,,,,,,,80.77013119999992,0.02013119999992341,None,134.0931111,134.0931111,134.0931111,134.0931111,134.0931111,134.0931111,134.0931111,134.0931111,134.0931111,134.0931111,,001,P011,2025_Feb_08_0952,ConditionRich,2021.2.3,59.951067938326425,
81.0,81.75,15,0.75,Stimuli/P011/sun_bmngnyuahubpqroh.jpg,1,0,0.75,0,155,155,155,,,,,,,,,,,,,81.0060625000001,0.006062500000098225,1,134.34333540000034,134.34333540000034,134.34333540000034,134.34333540000034,134.34333540000034,134.34333540000034,134.34333540000034,135.07733970000027,134.34333540000034,134.34333540000034,0.37662360000012995,001,P011,2025_Feb_08_0952,ConditionRich,2021.2.3,59.951067938326425,
81.75,82.0,41,0.0,Stimuli/Blank.png,0,0,0.0,0,156,156,156,,,,,,,,,,,,,81.77151080000021,0.021510800000214658,None,135.09400540000024,135.09400540000024,135.09400540000024,135.09400540000024,135.09400540000024,135.09400540000024,135.09400540000024,135.09400540000024,135.09400540000024,135.09400540000024,,001,P011,2025_Feb_08_0952,ConditionRich,2021.2.3,59.951067938326425,
82.0,82.75,15,0.75,Stimuli/P011/sun_bmngnyuahubpqroh.jpg,0,0,0.0,0,157,157,157,,,,,,,,,,,,,82.0048099999999,0.004809999999906722,None,135.32753720000028,135.32753720000028,135.32753720000028,135.32753720000028,135.32753720000028,135.32753720000028,135.32753720000028,135.32753720000028,135.32753720000028,135.32753720000028,,001,P011,2025_Feb_08_0952,ConditionRich,2021.2.3,59.951067938326425,
82.75,83.0,41,0.0,Stimuli/Blank.png,0,0,0.0,0,158,158,158,,,,,,,,,,,,,82.75568199999998,0.005681999999978871,None,136.07820800000036,136.07820800000036,136.07820800000036,136.07820800000036,136.07820800000036,136.07820800000036,136.07820800000036,136.07820800000036,136.07820800000036,136.07820800000036,,001,P011,2025_Feb_08_0952,ConditionRich,2021.2.3,59.951067938326425,
83.0,83.75,15,0.75,Stimuli/P011/sun_bmngnyuahubpqroh.jpg,0,0,0.0,0,159,159,159,,,,,,,,,,,,,83.00595610000028,0.00595610000027591,None,136.34510450000016,136.34510450000016,136.34510450000016,136.34510450000016,136.34510450000016,136.34510450000016,136.34510450000016,136.34510450000016,136.34510450000016,136.34510450000016,,001,P011,2025_Feb_08_0952,ConditionRich,2021.2.3,59.951067938326425,
83.75,84.0,41,0.0,Stimuli/Blank.png,0,0,0.0,0,160,160,160,,,,,,,,,,,,,83.77325659999997,0.023256599999967875,None,137.0958542000003,137.0958542000003,137.0958542000003,137.0958542000003,137.0958542000003,137.0958542000003,137.0958542000003,137.0958542000003,137.0958542000003,137.0958542000003,,001,P011,2025_Feb_08_0952,ConditionRich,2021.2.3,59.951067938326425,
84.0,100.0,0,0.0,Stimuli/Blank.png,1,11,11.75,0,161,161,161,,,,,,,,,,,,,84.00680190000003,0.006801900000027672,1,137.32930530000021,137.32930530000021,137.32930530000021,137.32930530000021,137.32930530000021,137.32930530000021,148.30571320000035,149.0563846,137.32930530000021,137.32930530000021,11.41946549999966,001,P011,2025_Feb_08_0952,ConditionRich,2021.2.3,59.951067938326425,
100.0,100.75,4,0.75,Stimuli/P011/sun_akpdzjejmtbfopdt.jpg,1,0,0.75,0,162,162,162,,,,,,,,,,,,,100.00421020000022,0.004210200000215991,1,153.34346110000024,153.34346110000024,153.34346110000024,153.34346110000024,153.34346110000024,153.34346110000024,153.34346110000024,154.07746260000022,153.34346110000024,153.34346110000024,0.6386532999999872,001,P011,2025_Feb_08_0952,ConditionRich,2021.2.3,59.951067938326425,
100.75,101.0,41,0.0,Stimuli/Blank.png,0,0,0.0,0,163,163,163,,,,,,,,,,,,,100.77208419999988,0.022084199999881093,None,154.09413750000022,154.09413750000022,154.09413750000022,154.09413750000022,154.09413750000022,154.09413750000022,154.09413750000022,154.09413750000022,154.09413750000022,154.09413750000022,,001,P011,2025_Feb_08_0952,ConditionRich,2021.2.3,59.951067938326425,
101.0,101.75,4,0.75,Stimuli/P011/sun_akpdzjejmtbfopdt.jpg,0,0,0.0,0,164,164,164,,,,,,,,,,,,,101.00524989999985,0.005249899999853369,None,154.34436910000022,154.34436910000022,154.34436910000022,154.34436910000022,154.34436910000022,154.34436910000022,154.34436910000022,154.34436910000022,154.34436910000022,154.34436910000022,,001,P011,2025_Feb_08_0952,ConditionRich,2021.2.3,59.951067938326425,
101.75,102.0,41,0.0,Stimuli/Blank.png,0,0,0.0,0,165,165,165,,,,,,,,,,,,,101.77170109999997,0.02170109999997294,None,155.09501390000014,155.09501390000014,155.09501390000014,155.09501390000014,155.09501390000014,155.09501390000014,155.09501390000014,155.09501390000014,155.09501390000014,155.09501390000014,,001,P011,2025_Feb_08_0952,ConditionRich,2021.2.3,59.951067938326425,
102.0,102.75,4,0.75,Stimuli/P011/sun_akpdzjejmtbfopdt.jpg,0,0,0.0,0,166,166,166,,,,,,,,,,,,,102.00645600000007,0.0064560000000710716,None,155.32855870000003,155.32855870000003,155.32855870000003,155.32855870000003,155.32855870000003,155.32855870000003,155.32855870000003,155.32855870000003,155.32855870000003,155.32855870000003,,001,P011,2025_Feb_08_0952,ConditionRich,2021.2.3,59.951067938326425,
102.75,103.0,41,0.0,Stimuli/Blank.png,0,0,0.0,0,167,167,167,,,,,,,,,,,,,102.75748909999993,0.007489099999929749,None,156.09591760000012,156.09591760000012,156.09591760000012,156.09591760000012,156.09591760000012,156.09591760000012,156.09591760000012,156.09591760000012,156.09591760000012,156.09591760000012,,001,P011,2025_Feb_08_0952,ConditionRich,2021.2.3,59.951067938326425,
103.0,103.75,4,0.75,Stimuli/P011/sun_akpdzjejmtbfopdt.jpg,0,0,0.0,0,168,168,168,,,,,,,,,,,,,103.02292639999996,0.022926399999960267,None,156.34612130000005,156.34612130000005,156.34612130000005,156.34612130000005,156.34612130000005,156.34612130000005,156.34612130000005,156.34612130000005,156.34612130000005,156.34612130000005,,001,P011,2025_Feb_08_0952,ConditionRich,2021.2.3,59.951067938326425,
103.75,104.0,41,0.0,Stimuli/Blank.png,0,0,0.0,0,169,169,169,,,,,,,,,,,,,103.75694190000013,0.006941900000128953,None,157.08009690000017,157.08009690000017,157.08009690000017,157.08009690000017,157.08009690000017,157.08009690000017,157.08009690000017,157.08009690000017,157.08009690000017,157.08009690000017,,001,P011,2025_Feb_08_0952,ConditionRich,2021.2.3,59.951067938326425,
104.0,104.75,29,0.75,Stimuli/P011/things_gutter_06s.jpg,0,0,0.0,0,170,170,170,,,,,,,,,,,,,104.00763159999997,0.007631599999967875,None,157.34700470000007,157.34700470000007,157.34700470000007,157.34700470000007,157.34700470000007,157.34700470000007,157.34700470000007,157.34700470000007,157.34700470000007,157.34700470000007,,001,P011,2025_Feb_08_0952,ConditionRich,2021.2.3,59.951067938326425,
104.75,105.0,41,0.0,Stimuli/Blank.png,0,0,0.0,0,171,171,171,,,,,,,,,,,,,104.77511690000028,0.02511690000028466,None,158.09767520000014,158.09767520000014,158.09767520000014,158.09767520000014,158.09767520000014,158.09767520000014,158.09767520000014,158.09767520000014,158.09767520000014,158.09767520000014,,001,P011,2025_Feb_08_0952,ConditionRich,2021.2.3,59.951067938326425,
105.0,105.75,29,0.75,Stimuli/P011/things_gutter_06s.jpg,0,0,0.0,0,172,172,172,,,,,,,,,,,,,105.0105782999999,0.010578299999906449,None,158.34789,158.34789,158.34789,158.34789,158.34789,158.34789,158.34789,158.34789,158.34789,158.34789,,001,P011,2025_Feb_08_0952,ConditionRich,2021.2.3,59.951067938326425,
105.75,106.0,41,0.0,Stimuli/Blank.png,0,0,0.0,0,173,173,173,,,,,,,,,,,,,105.7754559,0.0254558999999972,None,159.0985582000003,159.0985582000003,159.0985582000003,159.0985582000003,159.0985582000003,159.0985582000003,159.0985582000003,159.0985582000003,159.0985582000003,159.0985582000003,,001,P011,2025_Feb_08_0952,ConditionRich,2021.2.3,59.951067938326425,
106.0,106.75,29,0.75,Stimuli/P011/things_gutter_06s.jpg,0,0,0.0,0,174,174,174,,,,,,,,,,,,,106.00884200000019,0.00884200000018609,None,159.34878320000007,159.34878320000007,159.34878320000007,159.34878320000007,159.34878320000007,159.34878320000007,159.34878320000007,159.34878320000007,159.34878320000007,159.34878320000007,,001,P011,2025_Feb_08_0952,ConditionRich,2021.2.3,59.951067938326425,
106.75,107.0,41,0.0,Stimuli/Blank.png,0,0,0.0,0,175,175,175,,,,,,,,,,,,,106.77714920000017,0.027149200000167184,None,160.09945830000015,160.09945830000015,160.09945830000015,160.09945830000015,160.09945830000015,160.09945830000015,160.09945830000015,160.09945830000015,160.09945830000015,160.09945830000015,,001,P011,2025_Feb_08_0952,ConditionRich,2021.2.3,59.951067938326425,
107.0,107.75,29,0.75,Stimuli/P011/things_gutter_06s.jpg,0,0,0.0,0,176,176,176,,,,,,,,,,,,,107.01064550000001,0.010645500000009633,None,160.33297110000012,160.33297110000012,160.33297110000012,160.33297110000012,160.33297110000012,160.33297110000012,160.33297110000012,160.33297110000012,160.33297110000012,160.33297110000012,,001,P011,2025_Feb_08_0952,ConditionRich,2021.2.3,59.951067938326425,
107.75,108.0,41,0.0,Stimuli/Blank.png,0,0,0.0,0,177,177,177,,,,,,,,,,,,,107.76148220000005,0.01148220000004585,None,161.0836537,161.0836537,161.0836537,161.0836537,161.0836537,161.0836537,161.0836537,161.0836537,161.0836537,161.0836537,,001,P011,2025_Feb_08_0952,ConditionRich,2021.2.3,59.951067938326425,
108.0,108.75,38,0.75,Stimuli/P011/things_squeegee_06s.jpg,0,0,0.0,0,178,178,178,,,,,,,,,,,,,108.01133890000028,0.011338900000282592,None,161.35055880000027,161.35055880000027,161.35055880000027,161.35055880000027,161.35055880000027,161.35055880000027,161.35055880000027,161.35055880000027,161.35055880000027,161.35055880000027,,001,P011,2025_Feb_08_0952,ConditionRich,2021.2.3,59.951067938326425,
108.75,109.0,41,0.0,Stimuli/Blank.png,0,0,0.0,0,179,179,179,,,,,,,,,,,,,108.77855249999993,0.02855249999993248,None,162.1012157,162.1012157,162.1012157,162.1012157,162.1012157,162.1012157,162.1012157,162.1012157,162.1012157,162.1012157,,001,P011,2025_Feb_08_0952,ConditionRich,2021.2.3,59.951067938326425,
109.0,109.75,38,0.75,Stimuli/P011/things_squeegee_06s.jpg,1,0,0.75,0,180,180,180,,,,,,,,,,,,,109.01166830000011,0.011668300000110321,1,162.33473950000007,162.33473950000007,162.33473950000007,162.33473950000007,162.33473950000007,162.33473950000007,162.33473950000007,163.06871460000002,162.33473950000007,162.33473950000007,0.5860900000002403,001,P011,2025_Feb_08_0952,ConditionRich,2021.2.3,59.951067938326425,
109.75,110.0,41,0.0,Stimuli/Blank.png,0,0,0.0,0,181,181,181,,,,,,,,,,,,,109.76229150000017,0.012291500000173983,None,163.08540790000006,163.08540790000006,163.08540790000006,163.08540790000006,163.08540790000006,163.08540790000006,163.08540790000006,163.08540790000006,163.08540790000006,163.08540790000006,,001,P011,2025_Feb_08_0952,ConditionRich,2021.2.3,59.951067938326425,
110.0,110.75,38,0.75,Stimuli/P011/things_squeegee_06s.jpg,0,0,0.0,0,182,182,182,,,,,,,,,,,,,110.01253420000012,0.01253420000011829,None,163.33563030000005,163.33563030000005,163.33563030000005,163.33563030000005,163.33563030000005,163.33563030000005,163.33563030000005,163.33563030000005,163.33563030000005,163.33563030000005,,001,P011,2025_Feb_08_0952,ConditionRich,2021.2.3,59.951067938326425,
110.75,111.0,41,0.0,Stimuli/Blank.png,0,0,0.0,0,183,183,183,,,,,,,,,,,,,110.76306740000018,0.013067400000181806,None,164.08629169999995,164.08629169999995,164.08629169999995,164.08629169999995,164.08629169999995,164.08629169999995,164.08629169999995,164.08629169999995,164.08629169999995,164.08629169999995,,001,P011,2025_Feb_08_0952,ConditionRich,2021.2.3,59.951067938326425,
111.0,111.75,38,0.75,Stimuli/P011/things_squeegee_06s.jpg,0,0,0.0,0,184,184,184,,,,,,,,,,,,,111.01412600000003,0.014126000000032946,None,164.35317149999992,164.35317149999992,164.35317149999992,164.35317149999992,164.35317149999992,164.35317149999992,164.35317149999992,164.35317149999992,164.35317149999992,164.35317149999992,,001,P011,2025_Feb_08_0952,ConditionRich,2021.2.3,59.951067938326425,
111.75,112.0,41,0.0,Stimuli/Blank.png,0,0,0.0,0,185,185,185,,,,,,,,,,,,,111.78128490000017,0.031284900000173366,None,165.10386480000034,165.10386480000034,165.10386480000034,165.10386480000034,165.10386480000034,165.10386480000034,165.10386480000034,165.10386480000034,165.10386480000034,165.10386480000034,,001,P011,2025_Feb_08_0952,ConditionRich,2021.2.3,59.951067938326425,
112.0,112.75,13,0.75,Stimuli/P011/sun_bjedvzikugwleyer.jpg,0,0,0.0,0,186,186,186,,,,,,,,,,,,,112.01623169999993,0.01623169999993479,None,165.35410159999992,165.35410159999992,165.35410159999992,165.35410159999992,165.35410159999992,165.35410159999992,165.35410159999992,165.35410159999992,165.35410159999992,165.35410159999992,,001,P011,2025_Feb_08_0952,ConditionRich,2021.2.3,59.951067938326425,
112.75,113.0,41,0.0,Stimuli/Blank.png,0,0,0.0,0,187,187,187,,,,,,,,,,,,,112.76551860000018,0.015518600000177685,None,166.08806950000007,166.08806950000007,166.08806950000007,166.08806950000007,166.08806950000007,166.08806950000007,166.08806950000007,166.08806950000007,166.08806950000007,166.08806950000007,,001,P011,2025_Feb_08_0952,ConditionRich,2021.2.3,59.951067938326425,
113.0,113.75,13,0.75,Stimuli/P011/sun_bjedvzikugwleyer.jpg,0,0,0.0,0,188,188,188,,,,,,,,,,,,,112.99912119999999,-0.0008788000000095053,None,166.33827390000033,166.33827390000033,166.33827390000033,166.33827390000033,166.33827390000033,166.33827390000033,166.33827390000033,166.33827390000033,166.33827390000033,166.33827390000033,,001,P011,2025_Feb_08_0952,ConditionRich,2021.2.3,59.951067938326425,
113.75,114.0,41,0.0,Stimuli/Blank.png,0,0,0.0,0,189,189,189,,,,,,,,,,,,,113.76659759999984,0.016597599999840895,None,167.0889331000003,167.0889331000003,167.0889331000003,167.0889331000003,167.0889331000003,167.0889331000003,167.0889331000003,167.0889331000003,167.0889331000003,167.0889331000003,,001,P011,2025_Feb_08_0952,ConditionRich,2021.2.3,59.951067938326425,
114.0,114.75,13,0.75,Stimuli/P011/sun_bjedvzikugwleyer.jpg,0,0,0.0,0,190,190,190,,,,,,,,,,,,,114.00122460000011,0.001224600000114151,None,167.33917079999992,167.33917079999992,167.33917079999992,167.33917079999992,167.33917079999992,167.33917079999992,167.33917079999992,167.33917079999992,167.33917079999992,167.33917079999992,,001,P011,2025_Feb_08_0952,ConditionRich,2021.2.3,59.951067938326425,
114.75,115.0,41,0.0,Stimuli/Blank.png,0,0,0.0,0,191,191,191,,,,,,,,,,,,,114.76699460000009,0.016994600000089122,None,168.08983260000014,168.08983260000014,168.08983260000014,168.08983260000014,168.08983260000014,168.08983260000014,168.08983260000014,168.08983260000014,168.08983260000014,168.08983260000014,,001,P011,2025_Feb_08_0952,ConditionRich,2021.2.3,59.951067938326425,
115.0,115.75,13,0.75,Stimuli/P011/sun_bjedvzikugwleyer.jpg,0,0,0.0,0,192,192,192,,,,,,,,,,,,,115.00028900000007,0.000289000000066153,None,168.32336990000022,168.32336990000022,168.32336990000022,168.32336990000022,168.32336990000022,168.32336990000022,168.32336990000022,168.32336990000022,168.32336990000022,168.32336990000022,,001,P011,2025_Feb_08_0952,ConditionRich,2021.2.3,59.951067938326425,
115.75,116.0,41,0.0,Stimuli/Blank.png,0,0,0.0,0,193,193,193,,,,,,,,,,,,,115.7515725000003,0.0015725000002930756,None,169.0740450000003,169.0740450000003,169.0740450000003,169.0740450000003,169.0740450000003,169.0740450000003,169.0740450000003,169.0740450000003,169.0740450000003,169.0740450000003,,001,P011,2025_Feb_08_0952,ConditionRich,2021.2.3,59.951067938326425,
116.0,116.75,21,0.75,Stimuli/P011/things_baby_06s.jpg,0,0,0.0,0,194,194,194,,,,,,,,,,,,,116.00116190000017,0.0011619000001701352,None,169.34089489999997,169.34089489999997,169.34089489999997,169.34089489999997,169.34089489999997,169.34089489999997,169.34089489999997,169.34089489999997,169.34089489999997,169.34089489999997,,001,P011,2025_Feb_08_0952,ConditionRich,2021.2.3,59.951067938326425,
116.75,117.0,41,0.0,Stimuli/Blank.png,0,0,0.0,0,195,195,195,,,,,,,,,,,,,116.76909370000021,0.019093700000212266,None,170.09161829999994,170.09161829999994,170.09161829999994,170.09161829999994,170.09161829999994,170.09161829999994,170.09161829999994,170.09161829999994,170.09161829999994,170.09161829999994,,001,P011,2025_Feb_08_0952,ConditionRich,2021.2.3,59.951067938326425,
117.0,117.75,21,0.75,Stimuli/P011/things_baby_06s.jpg,0,0,0.0,0,196,196,196,,,,,,,,,,,,,117.00199840000005,0.0019984000000476954,None,170.3251382000003,170.3251382000003,170.3251382000003,170.3251382000003,170.3251382000003,170.3251382000003,170.3251382000003,170.3251382000003,170.3251382000003,170.3251382000003,,001,P011,2025_Feb_08_0952,ConditionRich,2021.2.3,59.951067938326425,
117.75,118.0,41,0.0,Stimuli/Blank.png,0,0,0.0,0,197,197,197,,,,,,,,,,,,,117.75330870000016,0.0033087000001614797,None,171.07587289999992,171.07587289999992,171.07587289999992,171.07587289999992,171.07587289999992,171.07587289999992,171.07587289999992,171.07587289999992,171.07587289999992,171.07587289999992,,001,P011,2025_Feb_08_0952,ConditionRich,2021.2.3,59.951067938326425,
118.0,118.75,21,0.75,Stimuli/P011/things_baby_06s.jpg,0,0,0.0,0,198,198,198,,,,,,,,,,,,,118.0049782000001,0.004978200000095967,None,171.34270229999993,171.34270229999993,171.34270229999993,171.34270229999993,171.34270229999993,171.34270229999993,171.34270229999993,171.34270229999993,171.34270229999993,171.34270229999993,,001,P011,2025_Feb_08_0952,ConditionRich,2021.2.3,59.951067938326425,
118.75,119.0,41,0.0,Stimuli/Blank.png,0,0,0.0,0,199,199,199,,,,,,,,,,,,,118.7707832000001,0.020783200000096258,None,172.09337330000017,172.09337330000017,172.09337330000017,172.09337330000017,172.09337330000017,172.09337330000017,172.09337330000017,172.09337330000017,172.09337330000017,172.09337330000017,,001,P011,2025_Feb_08_0952,ConditionRich,2021.2.3,59.951067938326425,
119.0,119.75,21,0.75,Stimuli/P011/things_baby_06s.jpg,0,0,0.0,0,200,200,200,,,,,,,,,,,,,119.00634609999997,0.006346099999973376,None,172.3435932000002,172.3435932000002,172.3435932000002,172.3435932000002,172.3435932000002,172.3435932000002,172.3435932000002,172.3435932000002,172.3435932000002,172.3435932000002,,001,P011,2025_Feb_08_0952,ConditionRich,2021.2.3,59.951067938326425,
119.75,120.0,41,0.0,Stimuli/Blank.png,0,0,0.0,0,201,201,201,,,,,,,,,,,,,119.77163590000009,0.02163590000009208,None,173.09427000000005,173.09427000000005,173.09427000000005,173.09427000000005,173.09427000000005,173.09427000000005,173.09427000000005,173.09427000000005,173.09427000000005,173.09427000000005,,001,P011,2025_Feb_08_0952,ConditionRich,2021.2.3,59.951067938326425,
120.0,120.75,3,0.75,Stimuli/P011/sun_afdaynbvsppiyvxm.jpg,1,0,0.75,0,202,202,202,,,,,,,,,,,,,120.00521690000005,0.005216900000050373,1,173.3277951,173.3277951,173.3277951,173.3277951,173.3277951,173.3277951,173.3277951,174.06182370000033,173.3277951,173.3277951,0.4220946999998887,001,P011,2025_Feb_08_0952,ConditionRich,2021.2.3,59.951067938326425,
120.75,121.0,41,0.0,Stimuli/Blank.png,0,0,0.0,0,203,203,203,,,,,,,,,,,,,120.75659339999993,0.006593399999928806,None,174.07846830000017,174.07846830000017,174.07846830000017,174.07846830000017,174.07846830000017,174.07846830000017,174.07846830000017,174.07846830000017,174.07846830000017,174.07846830000017,,001,P011,2025_Feb_08_0952,ConditionRich,2021.2.3,59.951067938326425,
121.0,121.75,3,0.75,Stimuli/P011/sun_afdaynbvsppiyvxm.jpg,0,0,0.0,0,204,204,204,,,,,,,,,,,,,121.00552890000017,0.005528900000172143,None,174.32867850000002,174.32867850000002,174.32867850000002,174.32867850000002,174.32867850000002,174.32867850000002,174.32867850000002,174.32867850000002,174.32867850000002,174.32867850000002,,001,P011,2025_Feb_08_0952,ConditionRich,2021.2.3,59.951067938326425,
121.75,122.0,41,0.0,Stimuli/Blank.png,0,0,0.0,0,205,205,205,,,,,,,,,,,,,121.75632829999995,0.006328299999950104,None,175.0793437000002,175.0793437000002,175.0793437000002,175.0793437000002,175.0793437000002,175.0793437000002,175.0793437000002,175.0793437000002,175.0793437000002,175.0793437000002,,001,P011,2025_Feb_08_0952,ConditionRich,2021.2.3,59.951067938326425,
122.0,122.75,3,0.75,Stimuli/P011/sun_afdaynbvsppiyvxm.jpg,0,0,0.0,0,206,206,206,,,,,,,,,,,,,122.00628030000007,0.006280300000071293,None,175.32956520000016,175.32956520000016,175.32956520000016,175.32956520000016,175.32956520000016,175.32956520000016,175.32956520000016,175.32956520000016,175.32956520000016,175.32956520000016,,001,P011,2025_Feb_08_0952,ConditionRich,2021.2.3,59.951067938326425,
122.75,123.0,41,0.0,Stimuli/Blank.png,0,0,0.0,0,207,207,207,,,,,,,,,,,,,122.75750430000016,0.007504300000164221,None,176.08022690000007,176.08022690000007,176.08022690000007,176.08022690000007,176.08022690000007,176.08022690000007,176.08022690000007,176.08022690000007,176.08022690000007,176.08022690000007,,001,P011,2025_Feb_08_0952,ConditionRich,2021.2.3,59.951067938326425,
123.0,123.75,3,0.75,Stimuli/P011/sun_afdaynbvsppiyvxm.jpg,0,0,0.0,0,208,208,208,,,,,,,,,,,,,123.00762590000022,0.007625900000221009,None,176.3304551000001,176.3304551000001,176.3304551000001,176.3304551000001,176.3304551000001,176.3304551000001,176.3304551000001,176.3304551000001,176.3304551000001,176.3304551000001,,001,P011,2025_Feb_08_0952,ConditionRich,2021.2.3,59.951067938326425,
123.75,124.0,41,0.0,Stimuli/Blank.png,0,0,0.0,0,209,209,209,,,,,,,,,,,,,123.75784340000018,0.007843400000183465,None,177.08111000000008,177.08111000000008,177.08111000000008,177.08111000000008,177.08111000000008,177.08111000000008,177.08111000000008,177.08111000000008,177.08111000000008,177.08111000000008,,001,P011,2025_Feb_08_0952,ConditionRich,2021.2.3,59.951067938326425,
124.0,124.75,25,0.75,Stimuli/P011/things_face_06s.jpg,0,0,0.0,0,210,210,210,,,,,,,,,,,,,124.00956559999986,0.009565599999859842,None,177.34803790000024,177.34803790000024,177.34803790000024,177.34803790000024,177.34803790000024,177.34803790000024,177.34803790000024,177.34803790000024,177.34803790000024,177.34803790000024,,001,P011,2025_Feb_08_0952,ConditionRich,2021.2.3,59.951067938326425,
124.75,125.0,41,0.0,Stimuli/Blank.png,0,0,0.0,0,211,211,211,,,,,,,,,,,,,124.77646340000001,0.02646340000001146,None,178.0986885000002,178.0986885000002,178.0986885000002,178.0986885000002,178.0986885000002,178.0986885000002,178.0986885000002,178.0986885000002,178.0986885000002,178.0986885000002,,001,P011,2025_Feb_08_0952,ConditionRich,2021.2.3,59.951067938326425,
125.0,125.75,25,0.75,Stimuli/P011/things_face_06s.jpg,0,0,0.0,0,212,212,212,,,,,,,,,,,,,125.01203420000002,0.012034200000016426,None,178.3489101,178.3489101,178.3489101,178.3489101,178.3489101,178.3489101,178.3489101,178.3489101,178.3489101,178.3489101,,001,P011,2025_Feb_08_0952,ConditionRich,2021.2.3,59.951067938326425,
125.75,126.0,41,0.0,Stimuli/Blank.png,0,0,0.0,0,213,213,213,,,,,,,,,,,,,125.7771289000002,0.027128900000207068,None,179.09957140000006,179.09957140000006,179.09957140000006,179.09957140000006,179.09957140000006,179.09957140000006,179.09957140000006,179.09957140000006,179.09957140000006,179.09957140000006,,001,P011,2025_Feb_08_0952,ConditionRich,2021.2.3,59.951067938326425,
126.0,126.75,25,0.75,Stimuli/P011/things_face_06s.jpg,0,0,0.0,0,214,214,214,,,,,,,,,,,,,126.01016770000024,0.010167700000238256,None,179.33310260000007,179.33310260000007,179.33310260000007,179.33310260000007,179.33310260000007,179.33310260000007,179.33310260000007,179.33310260000007,179.33310260000007,179.33310260000007,,001,P011,2025_Feb_08_0952,ConditionRich,2021.2.3,59.951067938326425,
126.75,127.0,41,0.0,Stimuli/Blank.png,0,0,0.0,0,215,215,215,,,,,,,,,,,,,126.7604854000001,0.010485400000106893,None,180.08376940000016,180.08376940000016,180.08376940000016,180.08376940000016,180.08376940000016,180.08376940000016,180.08376940000016,180.08376940000016,180.08376940000016,180.08376940000016,,001,P011,2025_Feb_08_0952,ConditionRich,2021.2.3,59.951067938326425,
127.0,127.75,25,0.75,Stimuli/P011/things_face_06s.jpg,0,0,0.0,0,216,216,216,,,,,,,,,,,,,127.01069180000013,0.01069180000013148,None,180.33398660000012,180.33398660000012,180.33398660000012,180.33398660000012,180.33398660000012,180.33398660000012,180.33398660000012,180.33398660000012,180.33398660000012,180.33398660000012,,001,P011,2025_Feb_08_0952,ConditionRich,2021.2.3,59.951067938326425,
127.75,128.0,41,0.0,Stimuli/Blank.png,0,0,0.0,0,217,217,217,,,,,,,,,,,,,127.76190690000021,0.011906900000212772,None,181.08465300000034,181.08465300000034,181.08465300000034,181.08465300000034,181.08465300000034,181.08465300000034,181.08465300000034,181.08465300000034,181.08465300000034,181.08465300000034,,001,P011,2025_Feb_08_0952,ConditionRich,2021.2.3,59.951067938326425,
128.0,128.75,11,0.75,Stimuli/P011/sun_baylllqlgfvxilor.jpg,0,0,0.0,0,218,218,218,,,,,,,,,,,,,128.01160570000002,0.01160570000001826,None,181.3348734000001,181.3348734000001,181.3348734000001,181.3348734000001,181.3348734000001,181.3348734000001,181.3348734000001,181.3348734000001,181.3348734000001,181.3348734000001,,001,P011,2025_Feb_08_0952,ConditionRich,2021.2.3,59.951067938326425,
128.75,129.0,41,0.0,Stimuli/Blank.png,0,0,0.0,0,219,219,219,,,,,,,,,,,,,128.76237450000008,0.012374500000078115,None,182.08554670000012,182.08554670000012,182.08554670000012,182.08554670000012,182.08554670000012,182.08554670000012,182.08554670000012,182.08554670000012,182.08554670000012,182.08554670000012,,001,P011,2025_Feb_08_0952,ConditionRich,2021.2.3,59.951067938326425,
129.0,129.75,11,0.75,Stimuli/P011/sun_baylllqlgfvxilor.jpg,0,0,0.0,0,220,220,220,,,,,,,,,,,,,129.0125948,0.012594799999988027,None,182.35245179999993,182.35245179999993,182.35245179999993,182.35245179999993,182.35245179999993,182.35245179999993,182.35245179999993,182.35245179999993,182.35245179999993,182.35245179999993,,001,P011,2025_Feb_08_0952,ConditionRich,2021.2.3,59.951067938326425,
129.75,130.0,41,0.0,Stimuli/Blank.png,0,0,0.0,0,221,221,221,,,,,,,,,,,,,129.78124149999985,0.03124149999985093,None,183.10312860000022,183.10312860000022,183.10312860000022,183.10312860000022,183.10312860000022,183.10312860000022,183.10312860000022,183.10312860000022,183.10312860000022,183.10312860000022,,001,P011,2025_Feb_08_0952,ConditionRich,2021.2.3,59.951067938326425,
130.0,130.75,11,0.75,Stimuli/P011/sun_baylllqlgfvxilor.jpg,0,0,0.0,0,222,222,222,,,,,,,,,,,,,130.0139223000001,0.01392230000010386,None,183.33664120000003,183.33664120000003,183.33664120000003,183.33664120000003,183.33664120000003,183.33664120000003,183.33664120000003,183.33664120000003,183.33664120000003,183.33664120000003,,001,P011,2025_Feb_08_0952,ConditionRich,2021.2.3,59.951067938326425,
130.75,131.0,41,0.0,Stimuli/Blank.png,0,0,0.0,0,223,223,223,,,,,,,,,,,,,130.76704100000006,0.017041000000062922,None,184.1039966000003,184.1039966000003,184.1039966000003,184.1039966000003,184.1039966000003,184.1039966000003,184.1039966000003,184.1039966000003,184.1039966000003,184.1039966000003,,001,P011,2025_Feb_08_0952,ConditionRich,2021.2.3,59.951067938326425,
131.0,131.75,11,0.75,Stimuli/P011/sun_baylllqlgfvxilor.jpg,0,0,0.0,0,224,224,224,,,,,,,,,,,,,131.01695150000023,0.016951500000232045,None,184.35421850000012,184.35421850000012,184.35421850000012,184.35421850000012,184.35421850000012,184.35421850000012,184.35421850000012,184.35421850000012,184.35421850000012,184.35421850000012,,001,P011,2025_Feb_08_0952,ConditionRich,2021.2.3,59.951067938326425,
131.75,132.0,41,0.0,Stimuli/Blank.png,0,0,0.0,0,225,225,225,,,,,,,,,,,,,131.76521249999996,0.015212499999961437,None,185.08818980000024,185.08818980000024,185.08818980000024,185.08818980000024,185.08818980000024,185.08818980000024,185.08818980000024,185.08818980000024,185.08818980000024,185.08818980000024,,001,P011,2025_Feb_08_0952,ConditionRich,2021.2.3,59.951067938326425,
132.0,132.75,36,0.75,Stimuli/P011/things_shower_cap_06s.jpg,0,0,0.0,0,226,226,226,,,,,,,,,,,,,132.01567840000007,0.015678400000069814,None,185.355094,185.355094,185.355094,185.355094,185.355094,185.355094,185.355094,185.355094,185.355094,185.355094,,001,P011,2025_Feb_08_0952,ConditionRich,2021.2.3,59.951067938326425,
132.75,133.0,41,0.0,Stimuli/Blank.png,0,0,0.0,0,227,227,227,,,,,,,,,,,,,132.7659203000003,0.01592030000028899,None,186.08909240000003,186.08909240000003,186.08909240000003,186.08909240000003,186.08909240000003,186.08909240000003,186.08909240000003,186.08909240000003,186.08909240000003,186.08909240000003,,001,P011,2025_Feb_08_0952,ConditionRich,2021.2.3,59.951067938326425,
133.0,133.75,36,0.75,Stimuli/P011/things_shower_cap_06s.jpg,0,0,0.0,0,228,228,228,,,,,,,,,,,,,133.0021995000002,0.0021995000001879816,None,186.3392984000002,186.3392984000002,186.3392984000002,186.3392984000002,186.3392984000002,186.3392984000002,186.3392984000002,186.3392984000002,186.3392984000002,186.3392984000002,,001,P011,2025_Feb_08_0952,ConditionRich,2021.2.3,59.951067938326425,
133.75,134.0,41,0.0,Stimuli/Blank.png,0,0,0.0,0,229,229,229,,,,,,,,,,,,,133.76745000000028,0.017450000000280852,None,187.08996370000023,187.08996370000023,187.08996370000023,187.08996370000023,187.08996370000023,187.08996370000023,187.08996370000023,187.08996370000023,187.08996370000023,187.08996370000023,,001,P011,2025_Feb_08_0952,ConditionRich,2021.2.3,59.951067938326425,
134.0,134.75,36,0.75,Stimuli/P011/things_shower_cap_06s.jpg,0,0,0.0,0,230,230,230,,,,,,,,,,,,,134.0012313000002,0.0012313000001995533,None,187.32350369999995,187.32350369999995,187.32350369999995,187.32350369999995,187.32350369999995,187.32350369999995,187.32350369999995,187.32350369999995,187.32350369999995,187.32350369999995,,001,P011,2025_Feb_08_0952,ConditionRich,2021.2.3,59.951067938326425,
134.75,135.0,41,0.0,Stimuli/Blank.png,0,0,0.0,0,231,231,231,,,,,,,,,,,,,134.7525286,0.002528600000005099,None,188.07417920000034,188.07417920000034,188.07417920000034,188.07417920000034,188.07417920000034,188.07417920000034,188.07417920000034,188.07417920000034,188.07417920000034,188.07417920000034,,001,P011,2025_Feb_08_0952,ConditionRich,2021.2.3,59.951067938326425,
135.0,135.75,36,0.75,Stimuli/P011/things_shower_cap_06s.jpg,0,0,0.0,0,232,232,232,,,,,,,,,,,,,135.0020910000003,0.0020910000002913876,None,188.32438580000007,188.32438580000007,188.32438580000007,188.32438580000007,188.32438580000007,188.32438580000007,188.32438580000007,188.32438580000007,188.32438580000007,188.32438580000007,,001,P011,2025_Feb_08_0952,ConditionRich,2021.2.3,59.951067938326425,
135.75,136.0,41,0.0,Stimuli/Blank.png,0,0,0.0,0,233,233,233,,,,,,,,,,,,,135.75175790000003,0.0017579000000296219,None,189.07505930000025,189.07505930000025,189.07505930000025,189.07505930000025,189.07505930000025,189.07505930000025,189.07505930000025,189.07505930000025,189.07505930000025,189.07505930000025,,001,P011,2025_Feb_08_0952,ConditionRich,2021.2.3,59.951067938326425,
136.0,136.75,18,0.75,Stimuli/P011/sun_bxlbxustiovyqyrg.jpg,0,0,0.0,0,234,234,234,,,,,,,,,,,,,136.00257060000013,0.002570600000126433,None,189.32523320000018,189.32523320000018,189.32523320000018,189.32523320000018,189.32523320000018,189.32523320000018,189.32523320000018,189.32523320000018,189.32523320000018,189.32523320000018,,001,P011,2025_Feb_08_0952,ConditionRich,2021.2.3,59.951067938326425,
136.75,137.0,41,0.0,Stimuli/Blank.png,0,0,0.0,0,235,235,235,,,,,,,,,,,,,136.75277929999993,0.002779299999929208,None,190.07593540000016,190.07593540000016,190.07593540000016,190.07593540000016,190.07593540000016,190.07593540000016,190.07593540000016,190.07593540000016,190.07593540000016,190.07593540000016,,001,P011,2025_Feb_08_0952,ConditionRich,2021.2.3,59.951067938326425,
137.0,137.75,18,0.75,Stimuli/P011/sun_bxlbxustiovyqyrg.jpg,0,0,0.0,0,236,236,236,,,,,,,,,,,,,137.00574460000007,0.005744600000070932,None,190.34283929999992,190.34283929999992,190.34283929999992,190.34283929999992,190.34283929999992,190.34283929999992,190.34283929999992,190.34283929999992,190.34283929999992,190.34283929999992,,001,P011,2025_Feb_08_0952,ConditionRich,2021.2.3,59.951067938326425,
137.75,138.0,41,0.0,Stimuli/Blank.png,0,0,0.0,0,237,237,237,,,,,,,,,,,,,137.7713463,0.021346300000004703,None,191.09351199999992,191.09351199999992,191.09351199999992,191.09351199999992,191.09351199999992,191.09351199999992,191.09351199999992,191.09351199999992,191.09351199999992,191.09351199999992,,001,P011,2025_Feb_08_0952,ConditionRich,2021.2.3,59.951067938326425,
138.0,138.75,18,0.75,Stimuli/P011/sun_bxlbxustiovyqyrg.jpg,0,0,0.0,0,238,238,238,,,,,,,,,,,,,138.00713750000023,0.007137500000226282,None,191.34374079999998,191.34374079999998,191.34374079999998,191.34374079999998,191.34374079999998,191.34374079999998,191.34374079999998,191.34374079999998,191.34374079999998,191.34374079999998,,001,P011,2025_Feb_08_0952,ConditionRich,2021.2.3,59.951067938326425,
138.75,139.0,41,0.0,Stimuli/Blank.png,0,0,0.0,0,239,239,239,,,,,,,,,,,,,138.77124349999985,0.021243499999854976,None,192.09444190000022,192.09444190000022,192.09444190000022,192.09444190000022,192.09444190000022,192.09444190000022,192.09444190000022,192.09444190000022,192.09444190000022,192.09444190000022,,001,P011,2025_Feb_08_0952,ConditionRich,2021.2.3,59.951067938326425,
139.0,139.75,18,0.75,Stimuli/P011/sun_bxlbxustiovyqyrg.jpg,0,0,0.0,0,240,240,240,,,,,,,,,,,,,139.00527569999986,0.0052756999998564424,None,192.32796970000027,192.32796970000027,192.32796970000027,192.32796970000027,192.32796970000027,192.32796970000027,192.32796970000027,192.32796970000027,192.32796970000027,192.32796970000027,,001,P011,2025_Feb_08_0952,ConditionRich,2021.2.3,59.951067938326425,
139.75,140.0,41,0.0,Stimuli/Blank.png,0,0,0.0,0,241,241,241,,,,,,,,,,,,,139.75649320000002,0.006493200000022625,None,193.09529820000034,193.09529820000034,193.09529820000034,193.09529820000034,193.09529820000034,193.09529820000034,193.09529820000034,193.09529820000034,193.09529820000034,193.09529820000034,,001,P011,2025_Feb_08_0952,ConditionRich,2021.2.3,59.951067938326425,
140.0,140.75,28,0.75,Stimuli/P011/things_grasshopper_06s.jpg,1,0,0.75,0,242,242,242,,,,,,,,,,,,,140.0232959,0.023295899999993708,1,193.36220390000017,193.36220390000017,193.36220390000017,193.36220390000017,193.36220390000017,193.36220390000017,193.36220390000017,194.0794737000001,193.36220390000017,193.36220390000017,0.5208974000001945,001,P011,2025_Feb_08_0952,ConditionRich,2021.2.3,59.951067938326425,
140.75,141.0,41,0.0,Stimuli/Blank.png,0,0,0.0,0,243,243,243,,,,,,,,,,,,,140.77290730000004,0.022907300000042596,None,194.09615650000023,194.09615650000023,194.09615650000023,194.09615650000023,194.09615650000023,194.09615650000023,194.09615650000023,194.09615650000023,194.09615650000023,194.09615650000023,,001,P011,2025_Feb_08_0952,ConditionRich,2021.2.3,59.951067938326425,
141.0,141.75,28,0.75,Stimuli/P011/things_grasshopper_06s.jpg,0,0,0.0,0,244,244,244,,,,,,,,,,,,,141.00699470000018,0.006994700000177545,None,194.32976210000015,194.32976210000015,194.32976210000015,194.32976210000015,194.32976210000015,194.32976210000015,194.32976210000015,194.32976210000015,194.32976210000015,194.32976210000015,,001,P011,2025_Feb_08_0952,ConditionRich,2021.2.3,59.951067938326425,
141.75,142.0,41,0.0,Stimuli/Blank.png,0,0,0.0,0,245,245,245,,,,,,,,,,,,,141.75714960000005,0.00714960000004794,None,195.0803605000001,195.0803605000001,195.0803605000001,195.0803605000001,195.0803605000001,195.0803605000001,195.0803605000001,195.0803605000001,195.0803605000001,195.0803605000001,,001,P011,2025_Feb_08_0952,ConditionRich,2021.2.3,59.951067938326425,
142.0,142.75,28,0.75,Stimuli/P011/things_grasshopper_06s.jpg,0,0,0.0,0,246,246,246,,,,,,,,,,,,,142.00812029999997,0.008120299999973213,None,195.33058640000036,195.33058640000036,195.33058640000036,195.33058640000036,195.33058640000036,195.33058640000036,195.33058640000036,195.33058640000036,195.33058640000036,195.33058640000036,,001,P011,2025_Feb_08_0952,ConditionRich,2021.2.3,59.951067938326425,
142.75,143.0,41,0.0,Stimuli/Blank.png,0,0,0.0,0,247,247,247,,,,,,,,,,,,,142.75799670000015,0.007996700000148849,None,196.08124640000005,196.08124640000005,196.08124640000005,196.08124640000005,196.08124640000005,196.08124640000005,196.08124640000005,196.08124640000005,196.08124640000005,196.08124640000005,,001,P011,2025_Feb_08_0952,ConditionRich,2021.2.3,59.951067938326425,
143.0,143.75,28,0.75,Stimuli/P011/things_grasshopper_06s.jpg,0,0,0.0,0,248,248,248,,,,,,,,,,,,,143.01108310000018,0.011083100000178092,None,196.34815690000005,196.34815690000005,196.34815690000005,196.34815690000005,196.34815690000005,196.34815690000005,196.34815690000005,196.34815690000005,196.34815690000005,196.34815690000005,,001,P011,2025_Feb_08_0952,ConditionRich,2021.2.3,59.951067938326425,
143.75,144.0,41,0.0,Stimuli/Blank.png,0,0,0.0,0,249,249,249,,,,,,,,,,,,,143.7764348999999,0.026434899999912886,None,197.09882229999994,197.09882229999994,197.09882229999994,197.09882229999994,197.09882229999994,197.09882229999994,197.09882229999994,197.09882229999994,197.09882229999994,197.09882229999994,,001,P011,2025_Feb_08_0952,ConditionRich,2021.2.3,59.951067938326425,
144.0,144.75,24,0.75,Stimuli/P011/things_doily_06s.jpg,0,0,0.0,0,250,250,250,,,,,,,,,,,,,144.01047359999984,0.010473599999841099,None,197.36574670000027,197.36574670000027,197.36574670000027,197.36574670000027,197.36574670000027,197.36574670000027,197.36574670000027,197.36574670000027,197.36574670000027,197.36574670000027,,001,P011,2025_Feb_08_0952,ConditionRich,2021.2.3,59.951067938326425,
144.75,145.0,41,0.0,Stimuli/Blank.png,0,0,0.0,0,251,251,251,,,,,,,,,,,,,144.79400149999992,0.04400149999992209,None,198.1163947,198.1163947,198.1163947,198.1163947,198.1163947,198.1163947,198.1163947,198.1163947,198.1163947,198.1163947,,001,P011,2025_Feb_08_0952,ConditionRich,2021.2.3,59.951067938326425,
145.0,145.75,24,0.75,Stimuli/P011/things_doily_06s.jpg,0,0,0.0,0,252,252,252,,,,,,,,,,,,,145.0105784000002,0.01057840000021315,None,198.3499111000001,198.3499111000001,198.3499111000001,198.3499111000001,198.3499111000001,198.3499111000001,198.3499111000001,198.3499111000001,198.3499111000001,198.3499111000001,,001,P011,2025_Feb_08_0952,ConditionRich,2021.2.3,59.951067938326425,
145.75,146.0,41,0.0,Stimuli/Blank.png,0,0,0.0,0,253,253,253,,,,,,,,,,,,,145.7782026,0.028202599999985978,None,199.1006622,199.1006622,199.1006622,199.1006622,199.1006622,199.1006622,199.1006622,199.1006622,199.1006622,199.1006622,,001,P011,2025_Feb_08_0952,ConditionRich,2021.2.3,59.951067938326425,
146.0,146.75,24,0.75,Stimuli/P011/things_doily_06s.jpg,0,0,0.0,0,254,254,254,,,,,,,,,,,,,146.01121710000007,0.011217100000067148,None,199.3341201000003,199.3341201000003,199.3341201000003,199.3341201000003,199.3341201000003,199.3341201000003,199.3341201000003,199.3341201000003,199.3341201000003,199.3341201000003,,001,P011,2025_Feb_08_0952,ConditionRich,2021.2.3,59.951067938326425,
146.75,147.0,41,0.0,Stimuli/Blank.png,0,0,0.0,0,255,255,255,,,,,,,,,,,,,146.76171329999988,0.01171329999988302,None,200.08478520000017,200.08478520000017,200.08478520000017,200.08478520000017,200.08478520000017,200.08478520000017,200.08478520000017,200.08478520000017,200.08478520000017,200.08478520000017,,001,P011,2025_Feb_08_0952,ConditionRich,2021.2.3,59.951067938326425,
147.0,147.75,24,0.75,Stimuli/P011/things_doily_06s.jpg,0,0,0.0,0,256,256,256,,,,,,,,,,,,,147.01188869999987,0.011888699999872188,None,200.33500219999996,200.33500219999996,200.33500219999996,200.33500219999996,200.33500219999996,200.33500219999996,200.33500219999996,200.33500219999996,200.33500219999996,200.33500219999996,,001,P011,2025_Feb_08_0952,ConditionRich,2021.2.3,59.951067938326425,
147.75,148.0,41,0.0,Stimuli/Blank.png,0,0,0.0,0,257,257,257,,,,,,,,,,,,,147.76312670000016,0.013126700000157143,None,201.08575520000022,201.08575520000022,201.08575520000022,201.08575520000022,201.08575520000022,201.08575520000022,201.08575520000022,201.08575520000022,201.08575520000022,201.08575520000022,,001,P011,2025_Feb_08_0952,ConditionRich,2021.2.3,59.951067938326425,
148.0,148.75,1,0.75,Stimuli/P011/sun_aeakbqnvptdnxtno.jpg,0,0,0.0,0,258,258,258,,,,,,,,,,,,,148.01264739999988,0.012647399999877962,None,201.3692556000001,201.3692556000001,201.3692556000001,201.3692556000001,201.3692556000001,201.3692556000001,201.3692556000001,201.3692556000001,201.3692556000001,201.3692556000001,,001,P011,2025_Feb_08_0952,ConditionRich,2021.2.3,59.951067938326425,
148.75,149.0,41,0.0,Stimuli/Blank.png,0,0,0.0,0,259,259,259,,,,,,,,,,,,,148.7975832000002,0.04758320000019012,None,202.11991780000017,202.11991780000017,202.11991780000017,202.11991780000017,202.11991780000017,202.11991780000017,202.11991780000017,202.11991780000017,202.11991780000017,202.11991780000017,,001,P011,2025_Feb_08_0952,ConditionRich,2021.2.3,59.951067938326425,
149.0,149.75,1,0.75,Stimuli/P011/sun_aeakbqnvptdnxtno.jpg,0,0,0.0,0,260,260,260,,,,,,,,,,,,,149.0157408,0.01574080000000322,None,202.35346019999997,202.35346019999997,202.35346019999997,202.35346019999997,202.35346019999997,202.35346019999997,202.35346019999997,202.35346019999997,202.35346019999997,202.35346019999997,,001,P011,2025_Feb_08_0952,ConditionRich,2021.2.3,59.951067938326425,
149.75,150.0,41,0.0,Stimuli/Blank.png,0,0,0.0,0,261,261,261,,,,,,,,,,,,,149.76611520000006,0.016115200000058394,None,203.10412110000016,203.10412110000016,203.10412110000016,203.10412110000016,203.10412110000016,203.10412110000016,203.10412110000016,203.10412110000016,203.10412110000016,203.10412110000016,,001,P011,2025_Feb_08_0952,ConditionRich,2021.2.3,59.951067938326425,
150.0,150.75,1,0.75,Stimuli/P011/sun_aeakbqnvptdnxtno.jpg,0,0,0.0,0,262,262,262,,,,,,,,,,,,,150.01497819999986,0.014978199999859498,None,203.33766250000008,203.33766250000008,203.33766250000008,203.33766250000008,203.33766250000008,203.33766250000008,203.33766250000008,203.33766250000008,203.33766250000008,203.33766250000008,,001,P011,2025_Feb_08_0952,ConditionRich,2021.2.3,59.951067938326425,
