eventStartTime,eventEndTime,eventCond,imSize,imFile,responseEvent,fixRespStart,fixRespEnd,Events.thisRepN,Events.thisTrialN,Events.thisN,Events.thisIndex,Instructions.started,Instructions.stopped,participantReadyResponse.keys,participantReadyResponse.rt,participantReadyResponse.started,participantReadyResponse.stopped,startWaitforTrigger,triggerResponse.keys,triggerResponse.rt,triggerResponse.started,triggerResponse.stopped,globalTimer,actualStartTime,startTimingDiff,participantResponse.keys,participantResponse.started,participantResponse.stopped,image.started,image.stopped,fixationOutside.started,fixationOutside.stopped,fixationResponse.started,fixationResponse.stopped,fixationInside.started,fixationInside.stopped,participantResponse.rt,session,participant,date,expName,psychopyVersion,frameRate,
,,,,,,,,,,,,9.219863199999963,None,2,17.640690500000346,9.219863199999963,None,,,,,,,,,,,,,,,,,,,,,001,P012,2025_Feb_08_1130,ConditionRich,2021.2.3,59.93949707193237,
,,,,,,,,,,,,,,,,,,26.868519700001343,5,14.221526000001177,26.881283200000325,None,,,,,,,,,,,,,,,,001,P012,2025_Feb_08_1130,ConditionRich,2021.2.3,59.93949707193237,
0.0,4.0,0,0.0,Stimuli/Blank.png,0,0,0.0,0,0,0,0,,,,,,,,,,,,41.11399580000034,0.05096919999959937,0.05096919999959937,None,41.1772245000011,None,41.1772245000011,None,41.1772245000011,None,41.1772245000011,41.1772245000011,41.1772245000011,None,,001,P012,2025_Feb_08_1130,ConditionRich,2021.2.3,59.93949707193237,
4.0,7.75,27,0.75,Stimuli/P012/things_girl_06s.jpg,0,0,0.0,0,1,1,1,,,,,,,,,,,,,4.004370399999971,0.004370399999970687,None,45.14785180000035,45.14785180000035,45.14785180000035,45.14785180000035,45.14785180000035,45.14785180000035,45.14785180000035,45.14785180000035,45.14785180000035,45.14785180000035,,001,P012,2025_Feb_08_1130,ConditionRich,2021.2.3,59.93949707193237,
7.75,8.0,41,0.0,Stimuli/Blank.png,0,0,0.0,0,2,2,2,,,,,,,,,,,,,7.773122499998863,0.023122499998862622,None,48.901198999999906,48.901198999999906,48.901198999999906,48.901198999999906,48.901198999999906,48.901198999999906,48.901198999999906,48.901198999999906,48.901198999999906,48.901198999999906,,001,P012,2025_Feb_08_1130,ConditionRich,2021.2.3,59.93949707193237,
8.0,11.75,11,0.75,Stimuli/P012/sun_baylllqlgfvxilor.jpg,0,0,0.0,0,3,3,3,,,,,,,,,,,,,8.007380499999272,0.007380499999271706,None,49.15118750000147,49.15118750000147,49.15118750000147,49.15118750000147,49.15118750000147,49.15118750000147,49.15118750000147,49.15118750000147,49.15118750000147,49.15118750000147,,001,P012,2025_Feb_08_1130,ConditionRich,2021.2.3,59.93949707193237,
11.75,12.0,41,0.0,Stimuli/Blank.png,0,0,0.0,0,4,4,4,,,,,,,,,,,,,11.776693099998738,0.026693099998738035,None,52.904515000000174,52.904515000000174,52.904515000000174,52.904515000000174,52.904515000000174,52.904515000000174,52.904515000000174,52.904515000000174,52.904515000000174,52.904515000000174,,001,P012,2025_Feb_08_1130,ConditionRich,2021.2.3,59.93949707193237,
12.0,15.75,15,0.75,Stimuli/P012/sun_bmngnyuahubpqroh.jpg,1,0,0.75,0,5,5,5,,,,,,,,,,,,,12.01067409999996,0.010674099999960163,2,53.1547526000013,53.1547526000013,53.1547526000013,53.1547526000013,53.1547526000013,53.1547526000013,53.1547526000013,53.88867290000053,53.1547526000013,53.1547526000013,0.5718803999989177,001,P012,2025_Feb_08_1130,ConditionRich,2021.2.3,59.93949707193237,
15.75,16.0,41,0.0,Stimuli/Blank.png,0,0,0.0,0,6,6,6,,,,,,,,,,,,,15.782850799998414,0.032850799998414004,None,56.92474829999992,56.92474829999992,56.92474829999992,56.92474829999992,56.92474829999992,56.92474829999992,56.92474829999992,56.92474829999992,56.92474829999992,56.92474829999992,,001,P012,2025_Feb_08_1130,ConditionRich,2021.2.3,59.93949707193237,
16.0,19.75,7,0.75,Stimuli/P012/sun_arugqgwhwdjxezyt.jpg,1,0,0.75,0,7,7,7,,,,,,,,,,,,,16.01397209999959,0.013972099999591592,2,57.1749620999999,57.1749620999999,57.1749620999999,57.1749620999999,57.1749620999999,57.1749620999999,57.1749620999999,57.89230520000092,57.1749620999999,57.1749620999999,0.5338044000000082,001,P012,2025_Feb_08_1130,ConditionRich,2021.2.3,59.93949707193237,
19.75,20.0,41,0.0,Stimuli/Blank.png,0,0,0.0,0,8,8,8,,,,,,,,,,,,,19.78402819999974,0.03402819999973872,None,60.91168749999997,60.91168749999997,60.91168749999997,60.91168749999997,60.91168749999997,60.91168749999997,60.91168749999997,60.91168749999997,60.91168749999997,60.91168749999997,,001,P012,2025_Feb_08_1130,ConditionRich,2021.2.3,59.93949707193237,
20.0,23.75,40,0.75,Stimuli/P012/things_woman_06s.jpg,1,2,2.75,0,9,9,9,,,,,,,,,,,,,20.00254219999988,0.002542199999879813,2,61.1451391999999,61.1451391999999,61.1451391999999,61.1451391999999,61.1451391999999,61.1451391999999,63.13022270000147,63.88090100000045,61.1451391999999,61.1451391999999,2.470523799998773,001,P012,2025_Feb_08_1130,ConditionRich,2021.2.3,59.93949707193237,
23.75,24.0,41,0.0,Stimuli/Blank.png,0,0,0.0,0,10,10,10,,,,,,,,,,,,,23.772465599999123,0.022465599999122787,None,64.91518980000001,64.91518980000001,64.91518980000001,64.91518980000001,64.91518980000001,64.91518980000001,64.91518980000001,64.91518980000001,64.91518980000001,64.91518980000001,,001,P012,2025_Feb_08_1130,ConditionRich,2021.2.3,59.93949707193237,
24.0,27.75,8,0.75,Stimuli/P012/sun_asppejhsplpizvag.jpg,0,0,0.0,0,11,11,11,,,,,,,,,,,,,24.022887799999808,0.022887799999807612,None,65.16537900000003,65.16537900000003,65.16537900000003,65.16537900000003,65.16537900000003,65.16537900000003,65.16537900000003,65.16537900000003,65.16537900000003,65.16537900000003,,001,P012,2025_Feb_08_1130,ConditionRich,2021.2.3,59.93949707193237,
27.75,28.0,41,0.0,Stimuli/Blank.png,0,0,0.0,0,12,12,12,,,,,,,,,,,,,27.773393399998895,0.023393399998894893,None,68.90200060000097,68.90200060000097,68.90200060000097,68.90200060000097,68.90200060000097,68.90200060000097,68.90200060000097,68.90200060000097,68.90200060000097,68.90200060000097,,001,P012,2025_Feb_08_1130,ConditionRich,2021.2.3,59.93949707193237,
28.0,31.75,14,0.75,Stimuli/P012/sun_blybvkoucskrdgiv.jpg,1,3,3.75,0,13,13,13,,,,,,,,,,,,,28.007746599998427,0.007746599998426973,2,69.15224520000083,69.15224520000083,69.15224520000083,69.15224520000083,69.15224520000083,69.15224520000083,72.13823980000052,72.88883140000144,69.15224520000083,69.15224520000083,3.5752922000010585,001,P012,2025_Feb_08_1130,ConditionRich,2021.2.3,59.93949707193237,
31.75,32.0,41,0.0,Stimuli/Blank.png,0,0,0.0,0,14,14,14,,,,,,,,,,,,,31.776934899999105,0.026934899999105255,None,72.90555080000013,72.90555080000013,72.90555080000013,72.90555080000013,72.90555080000013,72.90555080000013,72.90555080000013,72.90555080000013,72.90555080000013,72.90555080000013,,001,P012,2025_Feb_08_1130,ConditionRich,2021.2.3,59.93949707193237,
32.0,35.75,34,0.75,Stimuli/P012/things_polar_bear_06s.jpg,0,0,0.0,0,15,15,15,,,,,,,,,,,,,32.013324399998965,0.013324399998964509,None,73.15579600000092,73.15579600000092,73.15579600000092,73.15579600000092,73.15579600000092,73.15579600000092,73.15579600000092,73.15579600000092,73.15579600000092,73.15579600000092,,001,P012,2025_Feb_08_1130,ConditionRich,2021.2.3,59.93949707193237,
35.75,36.0,41,0.0,Stimuli/Blank.png,0,0,0.0,0,16,16,16,,,,,,,,,,,,,35.76523610000004,0.015236100000038277,None,76.89241930000026,76.89241930000026,76.89241930000026,76.89241930000026,76.89241930000026,76.89241930000026,76.89241930000026,76.89241930000026,76.89241930000026,76.89241930000026,,001,P012,2025_Feb_08_1130,ConditionRich,2021.2.3,59.93949707193237,
36.0,39.75,5,0.75,Stimuli/P012/sun_anfwllcezhlypoti.jpg,0,0,0.0,0,17,17,17,,,,,,,,,,,,,36.01403699999901,0.014036999999007094,None,77.17605970000113,77.17605970000113,77.17605970000113,77.17605970000113,77.17605970000113,77.17605970000113,77.17605970000113,77.17605970000113,77.17605970000113,77.17605970000113,,001,P012,2025_Feb_08_1130,ConditionRich,2021.2.3,59.93949707193237,
39.75,40.0,41,0.0,Stimuli/Blank.png,0,0,0.0,0,18,18,18,,,,,,,,,,,,,39.78470930000003,0.03470930000003136,None,80.91263620000063,80.91263620000063,80.91263620000063,80.91263620000063,80.91263620000063,80.91263620000063,80.91263620000063,80.91263620000063,80.91263620000063,80.91263620000063,,001,P012,2025_Feb_08_1130,ConditionRich,2021.2.3,59.93949707193237,
40.0,43.75,13,0.75,Stimuli/P012/sun_bjedvzikugwleyer.jpg,0,0,0.0,0,19,19,19,,,,,,,,,,,,,40.00081139999929,0.0008113999992929166,None,81.16288570000142,81.16288570000142,81.16288570000142,81.16288570000142,81.16288570000142,81.16288570000142,81.16288570000142,81.16288570000142,81.16288570000142,81.16288570000142,,001,P012,2025_Feb_08_1130,ConditionRich,2021.2.3,59.93949707193237,
43.75,44.0,41,0.0,Stimuli/Blank.png,0,0,0.0,0,20,20,20,,,,,,,,,,,,,43.787926799999696,0.037926799999695504,None,84.91618070000004,84.91618070000004,84.91618070000004,84.91618070000004,84.91618070000004,84.91618070000004,84.91618070000004,84.91618070000004,84.91618070000004,84.91618070000004,,001,P012,2025_Feb_08_1130,ConditionRich,2021.2.3,59.93949707193237,
44.0,47.75,16,0.75,Stimuli/P012/sun_bpuwvyadswjfoaby.jpg,0,0,0.0,0,21,21,21,,,,,,,,,,,,,44.004490199999054,0.004490199999054312,None,85.13304070000049,85.13304070000049,85.13304070000049,85.13304070000049,85.13304070000049,85.13304070000049,85.13304070000049,85.13304070000049,85.13304070000049,85.13304070000049,,001,P012,2025_Feb_08_1130,ConditionRich,2021.2.3,59.93949707193237,
47.75,48.0,41,0.0,Stimuli/Blank.png,0,0,0.0,0,22,22,22,,,,,,,,,,,,,47.75871039999947,0.008710399999472429,None,88.8863607000003,88.8863607000003,88.8863607000003,88.8863607000003,88.8863607000003,88.8863607000003,88.8863607000003,88.8863607000003,88.8863607000003,88.8863607000003,,001,P012,2025_Feb_08_1130,ConditionRich,2021.2.3,59.93949707193237,
48.0,51.75,22,0.75,Stimuli/P012/things_boy_06s.jpg,0,0,0.0,0,23,23,23,,,,,,,,,,,,,48.00854209999852,0.008542099998521735,None,89.15328460000092,89.15328460000092,89.15328460000092,89.15328460000092,89.15328460000092,89.15328460000092,89.15328460000092,89.15328460000092,89.15328460000092,89.15328460000092,,001,P012,2025_Feb_08_1130,ConditionRich,2021.2.3,59.93949707193237,
51.75,52.0,41,0.0,Stimuli/Blank.png,0,0,0.0,0,24,24,24,,,,,,,,,,,,,51.77808169999844,0.028081699998438125,None,92.90658760000042,92.90658760000042,92.90658760000042,92.90658760000042,92.90658760000042,92.90658760000042,92.90658760000042,92.90658760000042,92.90658760000042,92.90658760000042,,001,P012,2025_Feb_08_1130,ConditionRich,2021.2.3,59.93949707193237,
52.0,55.75,19,0.75,Stimuli/P012/sun_byvwakrdyukjigpc.jpg,1,1,1.75,0,25,25,25,,,,,,,,,,,,,52.01190979999956,0.011909799999557436,2,93.15681750000113,93.15681750000113,93.15681750000113,93.15681750000113,93.15681750000113,93.15681750000113,94.14100120000148,94.89173889999984,93.15681750000113,93.15681750000113,1.512800000000425,001,P012,2025_Feb_08_1130,ConditionRich,2021.2.3,59.93949707193237,
55.75,56.0,41,0.0,Stimuli/Blank.png,0,0,0.0,0,26,26,26,,,,,,,,,,,,,55.78166269999929,0.031662699999287724,None,96.91012589999991,96.91012589999991,96.91012589999991,96.91012589999991,96.91012589999991,96.91012589999991,96.91012589999991,96.91012589999991,96.91012589999991,96.91012589999991,,001,P012,2025_Feb_08_1130,ConditionRich,2021.2.3,59.93949707193237,
56.0,59.75,2,0.75,Stimuli/P012/sun_aewhvqonribwlxiq.jpg,0,0,0.0,0,27,27,27,,,,,,,,,,,,,56.016406599999755,0.01640659999975469,None,97.16035990000091,97.16035990000091,97.16035990000091,97.16035990000091,97.16035990000091,97.16035990000091,97.16035990000091,97.16035990000091,97.16035990000091,97.16035990000091,,001,P012,2025_Feb_08_1130,ConditionRich,2021.2.3,59.93949707193237,
59.75,60.0,41,0.0,Stimuli/Blank.png,0,0,0.0,0,28,28,28,,,,,,,,,,,,,59.768514099998356,0.01851409999835596,None,100.89698930000122,100.89698930000122,100.89698930000122,100.89698930000122,100.89698930000122,100.89698930000122,100.89698930000122,100.89698930000122,100.89698930000122,100.89698930000122,,001,P012,2025_Feb_08_1130,ConditionRich,2021.2.3,59.93949707193237,
60.0,63.75,18,0.75,Stimuli/P012/sun_bxlbxustiovyqyrg.jpg,0,0,0.0,0,29,29,29,,,,,,,,,,,,,60.00408779999998,0.004087799999979325,None,101.1472147000004,101.1472147000004,101.1472147000004,101.1472147000004,101.1472147000004,101.1472147000004,101.1472147000004,101.1472147000004,101.1472147000004,101.1472147000004,,001,P012,2025_Feb_08_1130,ConditionRich,2021.2.3,59.93949707193237,
63.75,64.0,41,0.0,Stimuli/Blank.png,0,0,0.0,0,30,30,30,,,,,,,,,,,,,63.772633399999904,0.022633399999904213,None,104.90053290000105,104.90053290000105,104.90053290000105,104.90053290000105,104.90053290000105,104.90053290000105,104.90053290000105,104.90053290000105,104.90053290000105,104.90053290000105,,001,P012,2025_Feb_08_1130,ConditionRich,2021.2.3,59.93949707193237,
64.0,67.75,29,0.75,Stimuli/P012/things_gutter_06s.jpg,0,0,0.0,0,31,31,31,,,,,,,,,,,,,64.00827109999955,0.008271099999547005,None,105.15077329999986,105.15077329999986,105.15077329999986,105.15077329999986,105.15077329999986,105.15077329999986,105.15077329999986,105.15077329999986,105.15077329999986,105.15077329999986,,001,P012,2025_Feb_08_1130,ConditionRich,2021.2.3,59.93949707193237,
67.75,68.0,41,0.0,Stimuli/Blank.png,0,0,0.0,0,32,32,32,,,,,,,,,,,,,67.77823889999854,0.028238899998541456,None,108.92076559999987,108.92076559999987,108.92076559999987,108.92076559999987,108.92076559999987,108.92076559999987,108.92076559999987,108.92076559999987,108.92076559999987,108.92076559999987,,001,P012,2025_Feb_08_1130,ConditionRich,2021.2.3,59.93949707193237,
68.0,71.75,21,0.75,Stimuli/P012/things_baby_06s.jpg,0,0,0.0,0,33,33,33,,,,,,,,,,,,,68.02655629999936,0.02655629999935627,None,109.17099310000049,109.17099310000049,109.17099310000049,109.17099310000049,109.17099310000049,109.17099310000049,109.17099310000049,109.17099310000049,109.17099310000049,109.17099310000049,,001,P012,2025_Feb_08_1130,ConditionRich,2021.2.3,59.93949707193237,
71.75,72.0,41,0.0,Stimuli/Blank.png,0,0,0.0,0,34,34,34,,,,,,,,,,,,,71.77968139999939,0.029681399999390123,None,112.90761360000033,112.90761360000033,112.90761360000033,112.90761360000033,112.90761360000033,112.90761360000033,112.90761360000033,112.90761360000033,112.90761360000033,112.90761360000033,,001,P012,2025_Feb_08_1130,ConditionRich,2021.2.3,59.93949707193237,
72.0,75.75,35,0.75,Stimuli/P012/things_raccoon_06n.jpg,0,0,0.0,0,35,35,35,,,,,,,,,,,,,72.01279359999899,0.012793599998985883,None,113.1583724000011,113.1583724000011,113.1583724000011,113.1583724000011,113.1583724000011,113.1583724000011,113.1583724000011,113.1583724000011,113.1583724000011,113.1583724000011,,001,P012,2025_Feb_08_1130,ConditionRich,2021.2.3,59.93949707193237,
75.75,76.0,41,0.0,Stimuli/Blank.png,0,0,0.0,0,36,36,36,,,,,,,,,,,,,75.78271119999954,0.03271119999953953,None,116.91117040000063,116.91117040000063,116.91117040000063,116.91117040000063,116.91117040000063,116.91117040000063,116.91117040000063,116.91117040000063,116.91117040000063,116.91117040000063,,001,P012,2025_Feb_08_1130,ConditionRich,2021.2.3,59.93949707193237,
76.0,79.75,28,0.75,Stimuli/P012/things_grasshopper_06s.jpg,0,0,0.0,0,37,37,37,,,,,,,,,,,,,75.99948529999892,-0.0005147000010765623,None,117.12801780000154,117.12801780000154,117.12801780000154,117.12801780000154,117.12801780000154,117.12801780000154,117.12801780000154,117.12801780000154,117.12801780000154,117.12801780000154,,001,P012,2025_Feb_08_1130,ConditionRich,2021.2.3,59.93949707193237,
79.75,80.0,41,0.0,Stimuli/Blank.png,0,0,0.0,0,38,38,38,,,,,,,,,,,,,79.75362519999908,0.003625199999078177,None,120.88133500000004,120.88133500000004,120.88133500000004,120.88133500000004,120.88133500000004,120.88133500000004,120.88133500000004,120.88133500000004,120.88133500000004,120.88133500000004,,001,P012,2025_Feb_08_1130,ConditionRich,2021.2.3,59.93949707193237,
80.0,83.75,39,0.75,Stimuli/P012/things_thermometer_06s.jpg,0,0,0.0,0,39,39,39,,,,,,,,,,,,,80.00313959999949,0.003139599999485654,None,121.14828060000036,121.14828060000036,121.14828060000036,121.14828060000036,121.14828060000036,121.14828060000036,121.14828060000036,121.14828060000036,121.14828060000036,121.14828060000036,,001,P012,2025_Feb_08_1130,ConditionRich,2021.2.3,59.93949707193237,
83.75,84.0,41,0.0,Stimuli/Blank.png,0,0,0.0,0,40,40,40,,,,,,,,,,,,,83.77369319999889,0.023693199998888304,None,124.90153890000147,124.90153890000147,124.90153890000147,124.90153890000147,124.90153890000147,124.90153890000147,124.90153890000147,124.90153890000147,124.90153890000147,124.90153890000147,,001,P012,2025_Feb_08_1130,ConditionRich,2021.2.3,59.93949707193237,
84.0,100.0,0,0.0,Stimuli/Blank.png,1,2,2.75,0,41,41,41,,,,,,,,,,,,,84.00655789999837,0.006557899998369976,2,125.13511540000036,125.13511540000036,125.13511540000036,125.13511540000036,125.13511540000036,125.13511540000036,127.12019060000057,127.87087930000052,125.13511540000036,125.13511540000036,2.5205533999996987,001,P012,2025_Feb_08_1130,ConditionRich,2021.2.3,59.93949707193237,
100.0,103.75,30,0.75,Stimuli/P012/things_hamburger_06s.jpg,0,0,0.0,0,42,42,42,,,,,,,,,,,,,100.00406369999837,0.004063699998368975,None,141.14928230000078,141.14928230000078,141.14928230000078,141.14928230000078,141.14928230000078,141.14928230000078,141.14928230000078,141.14928230000078,141.14928230000078,141.14928230000078,,001,P012,2025_Feb_08_1130,ConditionRich,2021.2.3,59.93949707193237,
103.75,104.0,41,0.0,Stimuli/Blank.png,0,0,0.0,0,43,43,43,,,,,,,,,,,,,103.77409629999966,0.024096299999655457,None,144.90320150000116,144.90320150000116,144.90320150000116,144.90320150000116,144.90320150000116,144.90320150000116,144.90320150000116,144.90320150000116,144.90320150000116,144.90320150000116,,001,P012,2025_Feb_08_1130,ConditionRich,2021.2.3,59.93949707193237,
104.0,107.75,20,0.75,Stimuli/P012/sun_ciifteeudwpxupnw.jpg,0,0,0.0,0,44,44,44,,,,,,,,,,,,,104.00814929999979,0.008149299999786308,None,145.15286080000078,145.15286080000078,145.15286080000078,145.15286080000078,145.15286080000078,145.15286080000078,145.15286080000078,145.15286080000078,145.15286080000078,145.15286080000078,,001,P012,2025_Feb_08_1130,ConditionRich,2021.2.3,59.93949707193237,
107.75,108.0,41,0.0,Stimuli/Blank.png,0,0,0.0,0,45,45,45,,,,,,,,,,,,,107.77764969999953,0.02764969999952882,None,148.90613630000007,148.90613630000007,148.90613630000007,148.90613630000007,148.90613630000007,148.90613630000007,148.90613630000007,148.90613630000007,148.90613630000007,148.90613630000007,,001,P012,2025_Feb_08_1130,ConditionRich,2021.2.3,59.93949707193237,
108.0,111.75,38,0.75,Stimuli/P012/things_squeegee_06s.jpg,0,0,0.0,0,46,46,46,,,,,,,,,,,,,108.01123609999922,0.01123609999922337,None,149.15635450000082,149.15635450000082,149.15635450000082,149.15635450000082,149.15635450000082,149.15635450000082,149.15635450000082,149.15635450000082,149.15635450000082,149.15635450000082,,001,P012,2025_Feb_08_1130,ConditionRich,2021.2.3,59.93949707193237,
111.75,112.0,41,0.0,Stimuli/Blank.png,0,0,0.0,0,47,47,47,,,,,,,,,,,,,111.78212879999955,0.03212879999955476,None,152.90969440000117,152.90969440000117,152.90969440000117,152.90969440000117,152.90969440000117,152.90969440000117,152.90969440000117,152.90969440000117,152.90969440000117,152.90969440000117,,001,P012,2025_Feb_08_1130,ConditionRich,2021.2.3,59.93949707193237,
112.0,115.75,4,0.75,Stimuli/P012/sun_akpdzjejmtbfopdt.jpg,0,0,0.0,0,48,48,48,,,,,,,,,,,,,112.01546029999918,0.015460299999176641,None,153.15987660000064,153.15987660000064,153.15987660000064,153.15987660000064,153.15987660000064,153.15987660000064,153.15987660000064,153.15987660000064,153.15987660000064,153.15987660000064,,001,P012,2025_Feb_08_1130,ConditionRich,2021.2.3,59.93949707193237,
115.75,116.0,41,0.0,Stimuli/Blank.png,0,0,0.0,0,49,49,49,,,,,,,,,,,,,115.76806099999885,0.018060999998851912,None,156.89654750000045,156.89654750000045,156.89654750000045,156.89654750000045,156.89654750000045,156.89654750000045,156.89654750000045,156.89654750000045,156.89654750000045,156.89654750000045,,001,P012,2025_Feb_08_1130,ConditionRich,2021.2.3,59.93949707193237,
116.0,119.75,12,0.75,Stimuli/P012/sun_bcesifdfuidnkdhl.jpg,0,0,0.0,0,50,50,50,,,,,,,,,,,,,116.00188149999849,0.001881499998489744,None,157.14679060000162,157.14679060000162,157.14679060000162,157.14679060000162,157.14679060000162,157.14679060000162,157.14679060000162,157.14679060000162,157.14679060000162,157.14679060000162,,001,P012,2025_Feb_08_1130,ConditionRich,2021.2.3,59.93949707193237,
119.75,120.0,41,0.0,Stimuli/Blank.png,0,0,0.0,0,51,51,51,,,,,,,,,,,,,119.7717509999984,0.02175099999840313,None,160.9001240000016,160.9001240000016,160.9001240000016,160.9001240000016,160.9001240000016,160.9001240000016,160.9001240000016,160.9001240000016,160.9001240000016,160.9001240000016,,001,P012,2025_Feb_08_1130,ConditionRich,2021.2.3,59.93949707193237,
120.0,123.75,3,0.75,Stimuli/P012/sun_afdaynbvsppiyvxm.jpg,0,0,0.0,0,52,52,52,,,,,,,,,,,,,120.00592369999868,0.005923699998675147,None,161.13363220000065,161.13363220000065,161.13363220000065,161.13363220000065,161.13363220000065,161.13363220000065,161.13363220000065,161.13363220000065,161.13363220000065,161.13363220000065,,001,P012,2025_Feb_08_1130,ConditionRich,2021.2.3,59.93949707193237,
123.75,124.0,41,0.0,Stimuli/Blank.png,0,0,0.0,0,53,53,53,,,,,,,,,,,,,123.75939479999943,0.00939479999942705,None,164.88694820000092,164.88694820000092,164.88694820000092,164.88694820000092,164.88694820000092,164.88694820000092,164.88694820000092,164.88694820000092,164.88694820000092,164.88694820000092,,001,P012,2025_Feb_08_1130,ConditionRich,2021.2.3,59.93949707193237,
124.0,127.75,32,0.75,Stimuli/P012/things_hood_06s.jpg,0,0,0.0,0,54,54,54,,,,,,,,,,,,,124.00849779999953,0.008497799999531708,None,165.15385640000022,165.15385640000022,165.15385640000022,165.15385640000022,165.15385640000022,165.15385640000022,165.15385640000022,165.15385640000022,165.15385640000022,165.15385640000022,,001,P012,2025_Feb_08_1130,ConditionRich,2021.2.3,59.93949707193237,
127.75,128.0,41,0.0,Stimuli/Blank.png,0,0,0.0,0,55,55,55,,,,,,,,,,,,,127.77874029999839,0.028740299998389673,None,168.90714590000061,168.90714590000061,168.90714590000061,168.90714590000061,168.90714590000061,168.90714590000061,168.90714590000061,168.90714590000061,168.90714590000061,168.90714590000061,,001,P012,2025_Feb_08_1130,ConditionRich,2021.2.3,59.93949707193237,
128.0,131.75,17,0.75,Stimuli/P012/sun_btvwhlxbhcqnqzok.jpg,0,0,0.0,0,56,56,56,,,,,,,,,,,,,128.0126707999989,0.01267079999888665,None,169.15738840000085,169.15738840000085,169.15738840000085,169.15738840000085,169.15738840000085,169.15738840000085,169.15738840000085,169.15738840000085,169.15738840000085,169.15738840000085,,001,P012,2025_Feb_08_1130,ConditionRich,2021.2.3,59.93949707193237,
131.75,132.0,41,0.0,Stimuli/Blank.png,0,0,0.0,0,57,57,57,,,,,,,,,,,,,131.76609219999955,0.01609219999954803,None,172.8940414000008,172.8940414000008,172.8940414000008,172.8940414000008,172.8940414000008,172.8940414000008,172.8940414000008,172.8940414000008,172.8940414000008,172.8940414000008,,001,P012,2025_Feb_08_1130,ConditionRich,2021.2.3,59.93949707193237,
132.0,135.75,31,0.75,Stimuli/P012/things_hippopotamus_06s.jpg,1,2,2.75,0,58,58,58,,,,,,,,,,,,,132.00009879999925,9.87999992503319e-05,2,173.14425269999992,173.14425269999992,173.14425269999992,173.14425269999992,173.14425269999992,173.14425269999992,175.12934290000157,175.8800110000011,173.14425269999992,173.14425269999992,2.4004186000001937,001,P012,2025_Feb_08_1130,ConditionRich,2021.2.3,59.93949707193237,
135.75,136.0,41,0.0,Stimuli/Blank.png,0,0,0.0,0,59,59,59,,,,,,,,,,,,,135.76914359999864,0.019143599998642458,None,176.89757640000062,176.89757640000062,176.89757640000062,176.89757640000062,176.89757640000062,176.89757640000062,176.89757640000062,176.89757640000062,176.89757640000062,176.89757640000062,,001,P012,2025_Feb_08_1130,ConditionRich,2021.2.3,59.93949707193237,
136.0,139.75,10,0.75,Stimuli/P012/sun_awufkrkrdrdbvvis.jpg,0,0,0.0,0,60,60,60,,,,,,,,,,,,,136.00310829999944,0.003108299999439623,None,177.14779210000052,177.14779210000052,177.14779210000052,177.14779210000052,177.14779210000052,177.14779210000052,177.14779210000052,177.14779210000052,177.14779210000052,177.14779210000052,,001,P012,2025_Feb_08_1130,ConditionRich,2021.2.3,59.93949707193237,
139.75,140.0,41,0.0,Stimuli/Blank.png,0,0,0.0,0,61,61,61,,,,,,,,,,,,,139.7738180999986,0.023818099998607067,None,180.90111590000015,180.90111590000015,180.90111590000015,180.90111590000015,180.90111590000015,180.90111590000015,180.90111590000015,180.90111590000015,180.90111590000015,180.90111590000015,,001,P012,2025_Feb_08_1130,ConditionRich,2021.2.3,59.93949707193237,
140.0,143.75,33,0.75,Stimuli/P012/things_hot-air_balloon_06s.jpg,0,0,0.0,0,62,62,62,,,,,,,,,,,,,140.0075444999984,0.007544499998402898,None,181.15139780000027,181.15139780000027,181.15139780000027,181.15139780000027,181.15139780000027,181.15139780000027,181.15139780000027,181.15139780000027,181.15139780000027,181.15139780000027,,001,P012,2025_Feb_08_1130,ConditionRich,2021.2.3,59.93949707193237,
143.75,144.0,41,0.0,Stimuli/Blank.png,0,0,0.0,0,63,63,63,,,,,,,,,,,,,143.77602419999857,0.02602419999857375,None,184.9047053000013,184.9047053000013,184.9047053000013,184.9047053000013,184.9047053000013,184.9047053000013,184.9047053000013,184.9047053000013,184.9047053000013,184.9047053000013,,001,P012,2025_Feb_08_1130,ConditionRich,2021.2.3,59.93949707193237,
144.0,147.75,37,0.75,Stimuli/P012/things_spam_06s.jpg,0,0,0.0,0,64,64,64,,,,,,,,,,,,,144.0104844999987,0.010484499998710817,None,185.15491460000158,185.15491460000158,185.15491460000158,185.15491460000158,185.15491460000158,185.15491460000158,185.15491460000158,185.15491460000158,185.15491460000158,185.15491460000158,,001,P012,2025_Feb_08_1130,ConditionRich,2021.2.3,59.93949707193237,
147.75,148.0,41,0.0,Stimuli/Blank.png,0,0,0.0,0,65,65,65,,,,,,,,,,,,,147.7796813999994,0.029681399999390123,None,188.90820690000146,188.90820690000146,188.90820690000146,188.90820690000146,188.90820690000146,188.90820690000146,188.90820690000146,188.90820690000146,188.90820690000146,188.90820690000146,,001,P012,2025_Feb_08_1130,ConditionRich,2021.2.3,59.93949707193237,
148.0,151.75,6,0.75,Stimuli/P012/sun_aqysdudvyxnkcxgq.jpg,1,3,3.75,0,66,66,66,,,,,,,,,,,,,148.0144610999996,0.01446109999960754,2,189.1584326000011,189.1584326000011,189.1584326000011,189.1584326000011,189.1584326000011,189.1584326000011,192.14438970000083,None,189.1584326000011,189.1584326000011,3.5153823000000557,001,P012,2025_Feb_08_1130,ConditionRich,2021.2.3,59.93949707193237,
151.75,152.0,41,0.0,Stimuli/Blank.png,0,0,0.0,0,67,67,67,,,,,,,,,,,,,151.7672917,0.01729169999998703,None,192.89506630000142,192.89506630000142,192.89506630000142,192.89506630000142,192.89506630000142,192.89506630000142,192.89506630000142,192.89506630000142,192.89506630000142,192.89506630000142,,001,P012,2025_Feb_08_1130,ConditionRich,2021.2.3,59.93949707193237,
152.0,155.75,9,0.75,Stimuli/P012/sun_aupohozmrmtfgcsw.jpg,0,0,0.0,0,68,68,68,,,,,,,,,,,,,152.00234060000003,0.002340600000025006,None,193.1453001000009,193.1453001000009,193.1453001000009,193.1453001000009,193.1453001000009,193.1453001000009,193.1453001000009,193.1453001000009,193.1453001000009,193.1453001000009,,001,P012,2025_Feb_08_1130,ConditionRich,2021.2.3,59.93949707193237,
155.75,156.0,41,0.0,Stimuli/Blank.png,0,0,0.0,0,69,69,69,,,,,,,,,,,,,155.77220429999943,0.022204299999430077,None,196.9153065999999,196.9153065999999,196.9153065999999,196.9153065999999,196.9153065999999,196.9153065999999,196.9153065999999,196.9153065999999,196.9153065999999,196.9153065999999,,001,P012,2025_Feb_08_1130,ConditionRich,2021.2.3,59.93949707193237,
156.0,159.75,25,0.75,Stimuli/P012/things_face_06s.jpg,1,2,2.75,0,70,70,70,,,,,,,,,,,,,156.0206438999994,0.020643899999413406,2,197.1655094000016,197.1655094000016,197.1655094000016,197.1655094000016,197.1655094000016,197.1655094000016,199.15061270000115,199.90129680000064,197.1655094000016,197.1655094000016,2.459371299999475,001,P012,2025_Feb_08_1130,ConditionRich,2021.2.3,59.93949707193237,
159.75,160.0,41,0.0,Stimuli/Blank.png,0,0,0.0,0,71,71,71,,,,,,,,,,,,,159.77415099999962,0.02415099999961967,None,200.90215549999994,200.90215549999994,200.90215549999994,200.90215549999994,200.90215549999994,200.90215549999994,200.90215549999994,200.90215549999994,200.90215549999994,200.90215549999994,,001,P012,2025_Feb_08_1130,ConditionRich,2021.2.3,59.93949707193237,
160.0,163.75,1,0.75,Stimuli/P012/sun_aeakbqnvptdnxtno.jpg,1,1,1.75,0,72,72,72,,,,,,,,,,,,,160.0071528999997,0.007152899999709916,2,201.1523947000005,201.1523947000005,201.1523947000005,201.1523947000005,201.1523947000005,201.1523947000005,202.13661690000117,202.88729720000083,201.1523947000005,201.1523947000005,1.4756289000015386,001,P012,2025_Feb_08_1130,ConditionRich,2021.2.3,59.93949707193237,
163.75,164.0,41,0.0,Stimuli/Blank.png,0,0,0.0,0,73,73,73,,,,,,,,,,,,,163.77777959999912,0.027779599999121274,None,204.90569030000006,204.90569030000006,204.90569030000006,204.90569030000006,204.90569030000006,204.90569030000006,204.90569030000006,204.90569030000006,204.90569030000006,204.90569030000006,,001,P012,2025_Feb_08_1130,ConditionRich,2021.2.3,59.93949707193237,
164.0,167.75,23,0.75,Stimuli/P012/things_clove_06s.jpg,0,0,0.0,0,74,74,74,,,,,,,,,,,,,164.01162010000007,0.011620100000072853,None,205.1559044000005,205.1559044000005,205.1559044000005,205.1559044000005,205.1559044000005,205.1559044000005,205.1559044000005,205.1559044000005,205.1559044000005,205.1559044000005,,001,P012,2025_Feb_08_1130,ConditionRich,2021.2.3,59.93949707193237,
167.75,168.0,41,0.0,Stimuli/Blank.png,0,0,0.0,0,75,75,75,,,,,,,,,,,,,167.78285909999977,0.03285909999976866,None,208.9270919999999,208.9270919999999,208.9270919999999,208.9270919999999,208.9270919999999,208.9270919999999,208.9270919999999,208.9270919999999,208.9270919999999,208.9270919999999,,001,P012,2025_Feb_08_1130,ConditionRich,2021.2.3,59.93949707193237,
168.0,171.75,36,0.75,Stimuli/P012/things_shower_cap_06s.jpg,0,0,0.0,0,76,76,76,,,,,,,,,,,,,168.03107049999926,0.031070499999259482,None,209.17613530000017,209.17613530000017,209.17613530000017,209.17613530000017,209.17613530000017,209.17613530000017,209.17613530000017,209.17613530000017,209.17613530000017,209.17613530000017,,001,P012,2025_Feb_08_1130,ConditionRich,2021.2.3,59.93949707193237,
171.75,172.0,41,0.0,Stimuli/Blank.png,0,0,0.0,0,77,77,77,,,,,,,,,,,,,171.76889269999992,0.018892699999923934,None,212.91278150000107,212.91278150000107,212.91278150000107,212.91278150000107,212.91278150000107,212.91278150000107,212.91278150000107,212.91278150000107,212.91278150000107,212.91278150000107,,001,P012,2025_Feb_08_1130,ConditionRich,2021.2.3,59.93949707193237,
172.0,175.75,26,0.75,Stimuli/P012/things_gazelle_06s.jpg,0,0,0.0,0,78,78,78,,,,,,,,,,,,,172.01794579999842,0.01794579999841517,None,213.16299489999983,213.16299489999983,213.16299489999983,213.16299489999983,213.16299489999983,213.16299489999983,213.16299489999983,213.16299489999983,213.16299489999983,213.16299489999983,,001,P012,2025_Feb_08_1130,ConditionRich,2021.2.3,59.93949707193237,
175.75,176.0,41,0.0,Stimuli/Blank.png,0,0,0.0,0,79,79,79,,,,,,,,,,,,,175.77208249999967,0.02208249999966938,None,216.89964910000162,216.89964910000162,216.89964910000162,216.89964910000162,216.89964910000162,216.89964910000162,216.89964910000162,216.89964910000162,216.89964910000162,216.89964910000162,,001,P012,2025_Feb_08_1130,ConditionRich,2021.2.3,59.93949707193237,
176.0,179.75,24,0.75,Stimuli/P012/things_doily_06s.jpg,0,0,0.0,0,80,80,80,,,,,,,,,,,,,176.00769599999876,0.007695999998759362,None,217.16654569999992,217.16654569999992,217.16654569999992,217.16654569999992,217.16654569999992,217.16654569999992,217.16654569999992,217.16654569999992,217.16654569999992,217.16654569999992,,001,P012,2025_Feb_08_1130,ConditionRich,2021.2.3,59.93949707193237,
179.75,180.0,41,0.0,Stimuli/Blank.png,0,0,0.0,0,81,81,81,,,,,,,,,,,,,179.79198149999866,0.041981499998655636,None,220.91986240000006,220.91986240000006,220.91986240000006,220.91986240000006,220.91986240000006,220.91986240000006,220.91986240000006,220.91986240000006,220.91986240000006,220.91986240000006,,001,P012,2025_Feb_08_1130,ConditionRich,2021.2.3,59.93949707193237,
180.0,196.0,0,0.0,Stimuli/Blank.png,1,13,13.75,0,82,82,82,,,,,,,,,,,,,180.00858659999903,0.008586599999034661,2,221.1367106000016,221.1367106000016,221.1367106000016,221.1367106000016,221.1367106000016,221.1367106000016,234.11486120000154,234.8655314000007,221.1367106000016,221.1367106000016,13.522002400000929,001,P012,2025_Feb_08_1130,ConditionRich,2021.2.3,59.93949707193237,
196.0,199.75,24,0.75,Stimuli/P012/things_doily_06s.jpg,0,0,0.0,0,83,83,83,,,,,,,,,,,,,196.00803209999867,0.008032099998672493,None,237.15089620000072,237.15089620000072,237.15089620000072,237.15089620000072,237.15089620000072,237.15089620000072,237.15089620000072,237.15089620000072,237.15089620000072,237.15089620000072,,001,P012,2025_Feb_08_1130,ConditionRich,2021.2.3,59.93949707193237,
199.75,200.0,41,0.0,Stimuli/Blank.png,0,0,0.0,0,84,84,84,,,,,,,,,,,,,199.77857739999854,0.028577399998539477,None,240.92089650000162,240.92089650000162,240.92089650000162,240.92089650000162,240.92089650000162,240.92089650000162,240.92089650000162,240.92089650000162,240.92089650000162,240.92089650000162,,001,P012,2025_Feb_08_1130,ConditionRich,2021.2.3,59.93949707193237,
200.0,203.75,35,0.75,Stimuli/P012/things_raccoon_06n.jpg,0,0,0.0,0,85,85,85,,,,,,,,,,,,,200.0278120999992,0.02781209999920975,None,241.1711116000006,241.1711116000006,241.1711116000006,241.1711116000006,241.1711116000006,241.1711116000006,241.1711116000006,241.1711116000006,241.1711116000006,241.1711116000006,,001,P012,2025_Feb_08_1130,ConditionRich,2021.2.3,59.93949707193237,
203.75,204.0,41,0.0,Stimuli/Blank.png,0,0,0.0,0,86,86,86,,,,,,,,,,,,,203.78012919999856,0.030129199998555123,None,244.90774930000043,244.90774930000043,244.90774930000043,244.90774930000043,244.90774930000043,244.90774930000043,244.90774930000043,244.90774930000043,244.90774930000043,244.90774930000043,,001,P012,2025_Feb_08_1130,ConditionRich,2021.2.3,59.93949707193237,
204.0,207.75,34,0.75,Stimuli/P012/things_polar_bear_06s.jpg,0,0,0.0,0,87,87,87,,,,,,,,,,,,,204.01310589999957,0.013105899999573012,None,245.14128150000033,245.14128150000033,245.14128150000033,245.14128150000033,245.14128150000033,245.14128150000033,245.14128150000033,245.14128150000033,245.14128150000033,245.14128150000033,,001,P012,2025_Feb_08_1130,ConditionRich,2021.2.3,59.93949707193237,
207.75,208.0,41,0.0,Stimuli/Blank.png,0,0,0.0,0,88,88,88,,,,,,,,,,,,,207.7500160999989,1.6099998902063817e-05,None,248.87792170000102,248.87792170000102,248.87792170000102,248.87792170000102,248.87792170000102,248.87792170000102,248.87792170000102,248.87792170000102,248.87792170000102,248.87792170000102,,001,P012,2025_Feb_08_1130,ConditionRich,2021.2.3,59.93949707193237,
208.0,211.75,27,0.75,Stimuli/P012/things_girl_06s.jpg,0,0,0.0,0,89,89,89,,,,,,,,,,,,,208.0027682,0.0027681999999913387,None,249.14483269999982,249.14483269999982,249.14483269999982,249.14483269999982,249.14483269999982,249.14483269999982,249.14483269999982,249.14483269999982,249.14483269999982,249.14483269999982,,001,P012,2025_Feb_08_1130,ConditionRich,2021.2.3,59.93949707193237,
211.75,212.0,41,0.0,Stimuli/Blank.png,0,0,0.0,0,90,90,90,,,,,,,,,,,,,211.77036129999942,0.020361299999422044,None,252.89816470000005,252.89816470000005,252.89816470000005,252.89816470000005,252.89816470000005,252.89816470000005,252.89816470000005,252.89816470000005,252.89816470000005,252.89816470000005,,001,P012,2025_Feb_08_1130,ConditionRich,2021.2.3,59.93949707193237,
212.0,215.75,28,0.75,Stimuli/P012/things_grasshopper_06s.jpg,0,0,0.0,0,91,91,91,,,,,,,,,,,,,212.0034158999988,0.003415899998799432,None,253.13168990000122,253.13168990000122,253.13168990000122,253.13168990000122,253.13168990000122,253.13168990000122,253.13168990000122,253.13168990000122,253.13168990000122,253.13168990000122,,001,P012,2025_Feb_08_1130,ConditionRich,2021.2.3,59.93949707193237,
215.75,216.0,41,0.0,Stimuli/Blank.png,0,0,0.0,0,92,92,92,,,,,,,,,,,,,215.7564040999987,0.0064040999986900715,None,256.88501110000107,256.88501110000107,256.88501110000107,256.88501110000107,256.88501110000107,256.88501110000107,256.88501110000107,256.88501110000107,256.88501110000107,256.88501110000107,,001,P012,2025_Feb_08_1130,ConditionRich,2021.2.3,59.93949707193237,
216.0,219.75,10,0.75,Stimuli/P012/sun_awufkrkrdrdbvvis.jpg,0,0,0.0,0,93,93,93,,,,,,,,,,,,,216.00825029999942,0.00825029999941762,None,257.15193210000143,257.15193210000143,257.15193210000143,257.15193210000143,257.15193210000143,257.15193210000143,257.15193210000143,257.15193210000143,257.15193210000143,257.15193210000143,,001,P012,2025_Feb_08_1130,ConditionRich,2021.2.3,59.93949707193237,
219.75,220.0,41,0.0,Stimuli/Blank.png,0,0,0.0,0,94,94,94,,,,,,,,,,,,,219.77705869999954,0.027058699999543023,None,260.9052750999999,260.9052750999999,260.9052750999999,260.9052750999999,260.9052750999999,260.9052750999999,260.9052750999999,260.9052750999999,260.9052750999999,260.9052750999999,,001,P012,2025_Feb_08_1130,ConditionRich,2021.2.3,59.93949707193237,
220.0,223.75,31,0.75,Stimuli/P012/things_hippopotamus_06s.jpg,1,1,1.75,0,95,95,95,,,,,,,,,,,,,220.01234249999834,0.012342499998339918,2,261.1554520000009,261.1554520000009,261.1554520000009,261.1554520000009,261.1554520000009,261.1554520000009,262.1396783,262.89032060000136,261.1554520000009,261.1554520000009,1.4104748999998264,001,P012,2025_Feb_08_1130,ConditionRich,2021.2.3,59.93949707193237,
223.75,224.0,41,0.0,Stimuli/Blank.png,0,0,0.0,0,96,96,96,,,,,,,,,,,,,223.76408300000003,0.014083000000027823,None,264.8920947000006,264.8920947000006,264.8920947000006,264.8920947000006,264.8920947000006,264.8920947000006,264.8920947000006,264.8920947000006,264.8920947000006,264.8920947000006,,001,P012,2025_Feb_08_1130,ConditionRich,2021.2.3,59.93949707193237,
224.0,227.75,1,0.75,Stimuli/P012/sun_aeakbqnvptdnxtno.jpg,0,0,0.0,0,97,97,97,,,,,,,,,,,,,224.01444099999935,0.014440999999351334,None,265.1590059000009,265.1590059000009,265.1590059000009,265.1590059000009,265.1590059000009,265.1590059000009,265.1590059000009,265.1590059000009,265.1590059000009,265.1590059000009,,001,P012,2025_Feb_08_1130,ConditionRich,2021.2.3,59.93949707193237,
227.75,228.0,41,0.0,Stimuli/Blank.png,0,0,0.0,0,98,98,98,,,,,,,,,,,,,227.76787279999917,0.01787279999916791,None,268.89564820000123,268.89564820000123,268.89564820000123,268.89564820000123,268.89564820000123,268.89564820000123,268.89564820000123,268.89564820000123,268.89564820000123,268.89564820000123,,001,P012,2025_Feb_08_1130,ConditionRich,2021.2.3,59.93949707193237,
228.0,231.75,33,0.75,Stimuli/P012/things_hot-air_balloon_06s.jpg,0,0,0.0,0,99,99,99,,,,,,,,,,,,,228.00133969999843,0.0013396999984252034,None,269.12916940000105,269.12916940000105,269.12916940000105,269.12916940000105,269.12916940000105,269.12916940000105,269.12916940000105,269.12916940000105,269.12916940000105,269.12916940000105,,001,P012,2025_Feb_08_1130,ConditionRich,2021.2.3,59.93949707193237,
231.75,232.0,41,0.0,Stimuli/Blank.png,0,0,0.0,0,100,100,100,,,,,,,,,,,,,231.75484819999838,0.004848199998377822,None,272.88248790000034,272.88248790000034,272.88248790000034,272.88248790000034,272.88248790000034,272.88248790000034,272.88248790000034,272.88248790000034,272.88248790000034,272.88248790000034,,001,P012,2025_Feb_08_1130,ConditionRich,2021.2.3,59.93949707193237,
232.0,235.75,9,0.75,Stimuli/P012/sun_aupohozmrmtfgcsw.jpg,0,0,0.0,0,101,101,101,,,,,,,,,,,,,232.0042859999994,0.004285999999410706,None,273.13270980000016,273.13270980000016,273.13270980000016,273.13270980000016,273.13270980000016,273.13270980000016,273.13270980000016,273.13270980000016,273.13270980000016,273.13270980000016,,001,P012,2025_Feb_08_1130,ConditionRich,2021.2.3,59.93949707193237,
235.75,236.0,41,0.0,Stimuli/Blank.png,0,0,0.0,0,102,102,102,,,,,,,,,,,,,235.75824529999954,0.008245299999543931,None,276.8860531999999,276.8860531999999,276.8860531999999,276.8860531999999,276.8860531999999,276.8860531999999,276.8860531999999,276.8860531999999,276.8860531999999,276.8860531999999,,001,P012,2025_Feb_08_1130,ConditionRich,2021.2.3,59.93949707193237,
236.0,239.75,15,0.75,Stimuli/P012/sun_bmngnyuahubpqroh.jpg,0,0,0.0,0,103,103,103,,,,,,,,,,,,,236.0083913999988,0.008391399998799898,None,277.1362532000003,277.1362532000003,277.1362532000003,277.1362532000003,277.1362532000003,277.1362532000003,277.1362532000003,277.1362532000003,277.1362532000003,277.1362532000003,,001,P012,2025_Feb_08_1130,ConditionRich,2021.2.3,59.93949707193237,
239.75,240.0,41,0.0,Stimuli/Blank.png,0,0,0.0,0,104,104,104,,,,,,,,,,,,,239.76159839999855,0.011598399998547393,None,280.88957980000123,280.88957980000123,280.88957980000123,280.88957980000123,280.88957980000123,280.88957980000123,280.88957980000123,280.88957980000123,280.88957980000123,280.88957980000123,,001,P012,2025_Feb_08_1130,ConditionRich,2021.2.3,59.93949707193237,
240.0,243.75,16,0.75,Stimuli/P012/sun_bpuwvyadswjfoaby.jpg,0,0,0.0,0,105,105,105,,,,,,,,,,,,,240.01198399999885,0.011983999998847139,None,281.13976710000134,281.13976710000134,281.13976710000134,281.13976710000134,281.13976710000134,281.13976710000134,281.13976710000134,281.13976710000134,281.13976710000134,281.13976710000134,,001,P012,2025_Feb_08_1130,ConditionRich,2021.2.3,59.93949707193237,
243.75,244.0,41,0.0,Stimuli/Blank.png,0,0,0.0,0,106,106,106,,,,,,,,,,,,,243.76454639999974,0.014546399999744608,None,284.89311950000047,284.89311950000047,284.89311950000047,284.89311950000047,284.89311950000047,284.89311950000047,284.89311950000047,284.89311950000047,284.89311950000047,284.89311950000047,,001,P012,2025_Feb_08_1130,ConditionRich,2021.2.3,59.93949707193237,
244.0,247.75,11,0.75,Stimuli/P012/sun_baylllqlgfvxilor.jpg,1,0,0.75,0,107,107,107,,,,,,,,,,,,,244.0147796000001,0.014779600000110804,2,285.1600304000003,285.1600304000003,285.1600304000003,285.1600304000003,285.1600304000003,285.1600304000003,285.1600304000003,285.8773756999999,285.1600304000003,285.1600304000003,0.6061580000005051,001,P012,2025_Feb_08_1130,ConditionRich,2021.2.3,59.93949707193237,
247.75,248.0,41,0.0,Stimuli/Blank.png,0,0,0.0,0,108,108,108,,,,,,,,,,,,,247.768904999999,0.018904999998994754,None,288.89666130000114,288.89666130000114,288.89666130000114,288.89666130000114,288.89666130000114,288.89666130000114,288.89666130000114,288.89666130000114,288.89666130000114,288.89666130000114,,001,P012,2025_Feb_08_1130,ConditionRich,2021.2.3,59.93949707193237,
248.0,251.75,26,0.75,Stimuli/P012/things_gazelle_06s.jpg,1,1,1.75,0,109,109,109,,,,,,,,,,,,,248.00171239999872,0.0017123999987234129,2,289.1302026000012,289.1302026000012,289.1302026000012,289.1302026000012,289.1302026000012,289.1302026000012,290.11453580000125,290.8650625999999,289.1302026000012,289.1302026000012,1.4546219000003475,001,P012,2025_Feb_08_1130,ConditionRich,2021.2.3,59.93949707193237,
251.75,252.0,41,0.0,Stimuli/Blank.png,0,0,0.0,0,110,110,110,,,,,,,,,,,,,251.7557573999984,0.0057573999984015245,None,292.8835259000007,292.8835259000007,292.8835259000007,292.8835259000007,292.8835259000007,292.8835259000007,292.8835259000007,292.8835259000007,292.8835259000007,292.8835259000007,,001,P012,2025_Feb_08_1130,ConditionRich,2021.2.3,59.93949707193237,
252.0,255.75,13,0.75,Stimuli/P012/sun_bjedvzikugwleyer.jpg,0,0,0.0,0,111,111,111,,,,,,,,,,,,,252.0067958999989,0.006795899998905952,None,293.13374150000163,293.13374150000163,293.13374150000163,293.13374150000163,293.13374150000163,293.13374150000163,293.13374150000163,293.13374150000163,293.13374150000163,293.13374150000163,,001,P012,2025_Feb_08_1130,ConditionRich,2021.2.3,59.93949707193237,
255.75,256.0,41,0.0,Stimuli/Blank.png,0,0,0.0,0,112,112,112,,,,,,,,,,,,,255.75857799999903,0.008577999999033636,None,296.8870588000009,296.8870588000009,296.8870588000009,296.8870588000009,296.8870588000009,296.8870588000009,296.8870588000009,296.8870588000009,296.8870588000009,296.8870588000009,,001,P012,2025_Feb_08_1130,ConditionRich,2021.2.3,59.93949707193237,
256.0,259.75,8,0.75,Stimuli/P012/sun_asppejhsplpizvag.jpg,0,0,0.0,0,113,113,113,,,,,,,,,,,,,256.00880399999915,0.008803999999145162,None,297.1372814000006,297.1372814000006,297.1372814000006,297.1372814000006,297.1372814000006,297.1372814000006,297.1372814000006,297.1372814000006,297.1372814000006,297.1372814000006,,001,P012,2025_Feb_08_1130,ConditionRich,2021.2.3,59.93949707193237,
259.75,260.0,41,0.0,Stimuli/Blank.png,0,0,0.0,0,114,114,114,,,,,,,,,,,,,259.7630593999984,0.013059399998383014,None,300.8906087000014,300.8906087000014,300.8906087000014,300.8906087000014,300.8906087000014,300.8906087000014,300.8906087000014,300.8906087000014,300.8906087000014,300.8906087000014,,001,P012,2025_Feb_08_1130,ConditionRich,2021.2.3,59.93949707193237,
260.0,263.75,3,0.75,Stimuli/P012/sun_afdaynbvsppiyvxm.jpg,1,2,2.75,0,115,115,115,,,,,,,,,,,,,260.0130369999988,0.013036999998803367,2,301.15751590000036,301.15751590000036,301.15751590000036,301.15751590000036,301.15751590000036,301.15751590000036,303.1259151000013,303.876569,301.15751590000036,301.15751590000036,2.3922599000015907,001,P012,2025_Feb_08_1130,ConditionRich,2021.2.3,59.93949707193237,
263.75,264.0,41,0.0,Stimuli/Blank.png,0,0,0.0,0,116,116,116,,,,,,,,,,,,,263.7677155000001,0.01771550000012212,None,304.9108262999998,304.9108262999998,304.9108262999998,304.9108262999998,304.9108262999998,304.9108262999998,304.9108262999998,304.9108262999998,304.9108262999998,304.9108262999998,,001,P012,2025_Feb_08_1130,ConditionRich,2021.2.3,59.93949707193237,
264.0,267.75,5,0.75,Stimuli/P012/sun_anfwllcezhlypoti.jpg,0,0,0.0,0,117,117,117,,,,,,,,,,,,,264.0178535999985,0.01785359999848879,None,305.1610475000016,305.1610475000016,305.1610475000016,305.1610475000016,305.1610475000016,305.1610475000016,305.1610475000016,305.1610475000016,305.1610475000016,305.1610475000016,,001,P012,2025_Feb_08_1130,ConditionRich,2021.2.3,59.93949707193237,
267.75,268.0,41,0.0,Stimuli/Blank.png,0,0,0.0,0,118,118,118,,,,,,,,,,,,,267.76973910000015,0.019739100000151666,None,308.89778260000094,308.89778260000094,308.89778260000094,308.89778260000094,308.89778260000094,308.89778260000094,308.89778260000094,308.89778260000094,308.89778260000094,308.89778260000094,,001,P012,2025_Feb_08_1130,ConditionRich,2021.2.3,59.93949707193237,
268.0,271.75,30,0.75,Stimuli/P012/things_hamburger_06s.jpg,0,0,0.0,0,119,119,119,,,,,,,,,,,,,268.00425149999865,0.0042514999986451585,None,309.1479250000011,309.1479250000011,309.1479250000011,309.1479250000011,309.1479250000011,309.1479250000011,309.1479250000011,309.1479250000011,309.1479250000011,309.1479250000011,,001,P012,2025_Feb_08_1130,ConditionRich,2021.2.3,59.93949707193237,
271.75,272.0,41,0.0,Stimuli/Blank.png,0,0,0.0,0,120,120,120,,,,,,,,,,,,,271.7733952999988,0.023395299998810515,None,312.90122900000097,312.90122900000097,312.90122900000097,312.90122900000097,312.90122900000097,312.90122900000097,312.90122900000097,312.90122900000097,312.90122900000097,312.90122900000097,,001,P012,2025_Feb_08_1130,ConditionRich,2021.2.3,59.93949707193237,
272.0,275.75,17,0.75,Stimuli/P012/sun_btvwhlxbhcqnqzok.jpg,0,0,0.0,0,121,121,121,,,,,,,,,,,,,272.00700340000003,0.007003400000030524,None,313.1347736000007,313.1347736000007,313.1347736000007,313.1347736000007,313.1347736000007,313.1347736000007,313.1347736000007,313.1347736000007,313.1347736000007,313.1347736000007,,001,P012,2025_Feb_08_1130,ConditionRich,2021.2.3,59.93949707193237,
275.75,276.0,41,0.0,Stimuli/Blank.png,0,0,0.0,0,122,122,122,,,,,,,,,,,,,275.7594651999989,0.00946519999888551,None,316.88808080000126,316.88808080000126,316.88808080000126,316.88808080000126,316.88808080000126,316.88808080000126,316.88808080000126,316.88808080000126,316.88808080000126,316.88808080000126,,001,P012,2025_Feb_08_1130,ConditionRich,2021.2.3,59.93949707193237,
276.0,292.0,0,0.0,Stimuli/Blank.png,1,12,12.75,0,123,123,123,,,,,,,,,,,,,276.0128397999997,0.012839799999710522,2,317.1550423000008,317.1550423000008,317.1550423000008,317.1550423000008,317.1550423000008,317.1550423000008,329.1323112000009,329.8829536000012,317.1550423000008,317.1550423000008,12.3828498999992,001,P012,2025_Feb_08_1130,ConditionRich,2021.2.3,59.93949707193237,
292.0,295.75,40,0.75,Stimuli/P012/things_woman_06s.jpg,0,0,0.0,0,124,124,124,,,,,,,,,,,,,292.0242378999992,0.024237899999207002,None,333.1524791000011,333.1524791000011,333.1524791000011,333.1524791000011,333.1524791000011,333.1524791000011,333.1524791000011,333.1524791000011,333.1524791000011,333.1524791000011,,001,P012,2025_Feb_08_1130,ConditionRich,2021.2.3,59.93949707193237,
295.75,296.0,41,0.0,Stimuli/Blank.png,0,0,0.0,0,125,125,125,,,,,,,,,,,,,295.7636320999991,0.013632099999085767,None,336.90580450000016,336.90580450000016,336.90580450000016,336.90580450000016,336.90580450000016,336.90580450000016,336.90580450000016,336.90580450000016,336.90580450000016,336.90580450000016,,001,P012,2025_Feb_08_1130,ConditionRich,2021.2.3,59.93949707193237,
296.0,299.75,12,0.75,Stimuli/P012/sun_bcesifdfuidnkdhl.jpg,0,0,0.0,0,126,126,126,,,,,,,,,,,,,296.02956379999887,0.02956379999886849,None,337.1727105000009,337.1727105000009,337.1727105000009,337.1727105000009,337.1727105000009,337.1727105000009,337.1727105000009,337.1727105000009,337.1727105000009,337.1727105000009,,001,P012,2025_Feb_08_1130,ConditionRich,2021.2.3,59.93949707193237,
299.75,300.0,41,0.0,Stimuli/Blank.png,0,0,0.0,0,127,127,127,,,,,,,,,,,,,299.76455969999915,0.014559699999153963,None,340.89266099999986,340.89266099999986,340.89266099999986,340.89266099999986,340.89266099999986,340.89266099999986,340.89266099999986,340.89266099999986,340.89266099999986,340.89266099999986,,001,P012,2025_Feb_08_1130,ConditionRich,2021.2.3,59.93949707193237,
300.0,303.75,7,0.75,Stimuli/P012/sun_arugqgwhwdjxezyt.jpg,0,0,0.0,0,128,128,128,,,,,,,,,,,,,300.01429499999904,0.014294999999037827,None,341.14288230000057,341.14288230000057,341.14288230000057,341.14288230000057,341.14288230000057,341.14288230000057,341.14288230000057,341.14288230000057,341.14288230000057,341.14288230000057,,001,P012,2025_Feb_08_1130,ConditionRich,2021.2.3,59.93949707193237,
303.75,304.0,41,0.0,Stimuli/Blank.png,0,0,0.0,0,129,129,129,,,,,,,,,,,,,303.75159019999955,0.0015901999995548977,None,344.8795334000006,344.8795334000006,344.8795334000006,344.8795334000006,344.8795334000006,344.8795334000006,344.8795334000006,344.8795334000006,344.8795334000006,344.8795334000006,,001,P012,2025_Feb_08_1130,ConditionRich,2021.2.3,59.93949707193237,
304.0,307.75,20,0.75,Stimuli/P012/sun_ciifteeudwpxupnw.jpg,1,2,2.75,0,130,130,130,,,,,,,,,,,,,304.00118849999853,0.0011884999985340983,2,345.14642040000035,345.14642040000035,345.14642040000035,345.14642040000035,345.14642040000035,345.14642040000035,347.1148245000004,347.8654935000013,345.14642040000035,345.14642040000035,2.381704200000968,001,P012,2025_Feb_08_1130,ConditionRich,2021.2.3,59.93949707193237,
307.75,308.0,41,0.0,Stimuli/Blank.png,0,0,0.0,0,131,131,131,,,,,,,,,,,,,307.7726034999996,0.022603499999604537,None,348.89975030000096,348.89975030000096,348.89975030000096,348.89975030000096,348.89975030000096,348.89975030000096,348.89975030000096,348.89975030000096,348.89975030000096,348.89975030000096,,001,P012,2025_Feb_08_1130,ConditionRich,2021.2.3,59.93949707193237,
308.0,311.75,6,0.75,Stimuli/P012/sun_aqysdudvyxnkcxgq.jpg,0,0,0.0,0,132,132,132,,,,,,,,,,,,,308.00470869999845,0.004708699998445809,None,349.1499807,349.1499807,349.1499807,349.1499807,349.1499807,349.1499807,349.1499807,349.1499807,349.1499807,349.1499807,,001,P012,2025_Feb_08_1130,ConditionRich,2021.2.3,59.93949707193237,
311.75,312.0,41,0.0,Stimuli/Blank.png,0,0,0.0,0,133,133,133,,,,,,,,,,,,,311.77518619999864,0.025186199998643133,None,352.90328650000083,352.90328650000083,352.90328650000083,352.90328650000083,352.90328650000083,352.90328650000083,352.90328650000083,352.90328650000083,352.90328650000083,352.90328650000083,,001,P012,2025_Feb_08_1130,ConditionRich,2021.2.3,59.93949707193237,
312.0,315.75,37,0.75,Stimuli/P012/things_spam_06s.jpg,0,0,0.0,0,134,134,134,,,,,,,,,,,,,312.00912759999846,0.009127599998464575,None,353.13682400000107,353.13682400000107,353.13682400000107,353.13682400000107,353.13682400000107,353.13682400000107,353.13682400000107,353.13682400000107,353.13682400000107,353.13682400000107,,001,P012,2025_Feb_08_1130,ConditionRich,2021.2.3,59.93949707193237,
315.75,316.0,41,0.0,Stimuli/Blank.png,0,0,0.0,0,135,135,135,,,,,,,,,,,,,315.76183390000006,0.011833900000056019,None,356.890143300001,356.890143300001,356.890143300001,356.890143300001,356.890143300001,356.890143300001,356.890143300001,356.890143300001,356.890143300001,356.890143300001,,001,P012,2025_Feb_08_1130,ConditionRich,2021.2.3,59.93949707193237,
316.0,319.75,23,0.75,Stimuli/P012/things_clove_06s.jpg,0,0,0.0,0,136,136,136,,,,,,,,,,,,,316.0130272999995,0.013027299999521347,None,357.1403618000004,357.1403618000004,357.1403618000004,357.1403618000004,357.1403618000004,357.1403618000004,357.1403618000004,357.1403618000004,357.1403618000004,357.1403618000004,,001,P012,2025_Feb_08_1130,ConditionRich,2021.2.3,59.93949707193237,
319.75,320.0,41,0.0,Stimuli/Blank.png,0,0,0.0,0,137,137,137,,,,,,,,,,,,,319.7483624999986,-0.0016375000013795216,None,360.87700420000147,360.87700420000147,360.87700420000147,360.87700420000147,360.87700420000147,360.87700420000147,360.87700420000147,360.87700420000147,360.87700420000147,360.87700420000147,,001,P012,2025_Feb_08_1130,ConditionRich,2021.2.3,59.93949707193237,
320.0,323.75,4,0.75,Stimuli/P012/sun_akpdzjejmtbfopdt.jpg,0,0,0.0,0,138,138,138,,,,,,,,,,,,,320.0175860999989,0.017586099998879945,None,361.1605890999999,361.1605890999999,361.1605890999999,361.1605890999999,361.1605890999999,361.1605890999999,361.1605890999999,361.1605890999999,361.1605890999999,361.1605890999999,,001,P012,2025_Feb_08_1130,ConditionRich,2021.2.3,59.93949707193237,
323.75,324.0,41,0.0,Stimuli/Blank.png,0,0,0.0,0,139,139,139,,,,,,,,,,,,,323.7686103999986,0.01861039999857894,None,364.89721850000024,364.89721850000024,364.89721850000024,364.89721850000024,364.89721850000024,364.89721850000024,364.89721850000024,364.89721850000024,364.89721850000024,364.89721850000024,,001,P012,2025_Feb_08_1130,ConditionRich,2021.2.3,59.93949707193237,
324.0,327.75,22,0.75,Stimuli/P012/things_boy_06s.jpg,0,0,0.0,0,140,140,140,,,,,,,,,,,,,324.0033895999986,0.003389599998627091,None,365.13077520000115,365.13077520000115,365.13077520000115,365.13077520000115,365.13077520000115,365.13077520000115,365.13077520000115,365.13077520000115,365.13077520000115,365.13077520000115,,001,P012,2025_Feb_08_1130,ConditionRich,2021.2.3,59.93949707193237,
327.75,328.0,41,0.0,Stimuli/Blank.png,0,0,0.0,0,141,141,141,,,,,,,,,,,,,327.7561912000001,0.006191200000102981,None,368.88415560000067,368.88415560000067,368.88415560000067,368.88415560000067,368.88415560000067,368.88415560000067,368.88415560000067,368.88415560000067,368.88415560000067,368.88415560000067,,001,P012,2025_Feb_08_1130,ConditionRich,2021.2.3,59.93949707193237,
328.0,331.75,18,0.75,Stimuli/P012/sun_bxlbxustiovyqyrg.jpg,0,0,0.0,0,142,142,142,,,,,,,,,,,,,328.0078356999984,0.007835699998395285,None,369.1509936000002,369.1509936000002,369.1509936000002,369.1509936000002,369.1509936000002,369.1509936000002,369.1509936000002,369.1509936000002,369.1509936000002,369.1509936000002,,001,P012,2025_Feb_08_1130,ConditionRich,2021.2.3,59.93949707193237,
331.75,332.0,41,0.0,Stimuli/Blank.png,0,0,0.0,0,143,143,143,,,,,,,,,,,,,331.7774357999988,0.027435799998784205,None,372.90432300000066,372.90432300000066,372.90432300000066,372.90432300000066,372.90432300000066,372.90432300000066,372.90432300000066,372.90432300000066,372.90432300000066,372.90432300000066,,001,P012,2025_Feb_08_1130,ConditionRich,2021.2.3,59.93949707193237,
332.0,335.75,19,0.75,Stimuli/P012/sun_byvwakrdyukjigpc.jpg,1,3,3.75,0,144,144,144,,,,,,,,,,,,,332.00948439999956,0.00948439999956463,2,373.1384308000015,373.1384308000015,373.1384308000015,373.1384308000015,373.1384308000015,373.1384308000015,376.1238659999999,376.87450920000083,373.1384308000015,373.1384308000015,3.4454265000003943,001,P012,2025_Feb_08_1130,ConditionRich,2021.2.3,59.93949707193237,
335.75,336.0,41,0.0,Stimuli/Blank.png,0,0,0.0,0,145,145,145,,,,,,,,,,,,,335.7642548999993,0.014254899999286863,None,376.90787700000146,376.90787700000146,376.90787700000146,376.90787700000146,376.90787700000146,376.90787700000146,376.90787700000146,376.90787700000146,376.90787700000146,376.90787700000146,,001,P012,2025_Feb_08_1130,ConditionRich,2021.2.3,59.93949707193237,
336.0,339.75,36,0.75,Stimuli/P012/things_shower_cap_06s.jpg,0,0,0.0,0,146,146,146,,,,,,,,,,,,,336.0301942999995,0.030194299999493524,None,377.17475170000034,377.17475170000034,377.17475170000034,377.17475170000034,377.17475170000034,377.17475170000034,377.17475170000034,377.17475170000034,377.17475170000034,377.17475170000034,,001,P012,2025_Feb_08_1130,ConditionRich,2021.2.3,59.93949707193237,
339.75,340.0,41,0.0,Stimuli/Blank.png,0,0,0.0,0,147,147,147,,,,,,,,,,,,,339.7673046,0.017304599999988568,None,380.89474770000015,380.89474770000015,380.89474770000015,380.89474770000015,380.89474770000015,380.89474770000015,380.89474770000015,380.89474770000015,380.89474770000015,380.89474770000015,,001,P012,2025_Feb_08_1130,ConditionRich,2021.2.3,59.93949707193237,
340.0,343.75,38,0.75,Stimuli/P012/things_squeegee_06s.jpg,1,0,0.75,0,148,148,148,,,,,,,,,,,,,340.00273879999986,0.0027387999998609303,2,381.14493460000085,381.14493460000085,381.14493460000085,381.14493460000085,381.14493460000085,381.14493460000085,381.14493460000085,381.8789375000015,381.14493460000085,381.14493460000085,0.46209579999958805,001,P012,2025_Feb_08_1130,ConditionRich,2021.2.3,59.93949707193237,
343.75,344.0,41,0.0,Stimuli/Blank.png,0,0,0.0,0,149,149,149,,,,,,,,,,,,,343.77020099999936,0.020200999999360647,None,384.8982509000016,384.8982509000016,384.8982509000016,384.8982509000016,384.8982509000016,384.8982509000016,384.8982509000016,384.8982509000016,384.8982509000016,384.8982509000016,,001,P012,2025_Feb_08_1130,ConditionRich,2021.2.3,59.93949707193237,
344.0,347.75,21,0.75,Stimuli/P012/things_baby_06s.jpg,0,0,0.0,0,150,150,150,,,,,,,,,,,,,344.00324029999865,0.003240299998651608,None,385.13179560000026,385.13179560000026,385.13179560000026,385.13179560000026,385.13179560000026,385.13179560000026,385.13179560000026,385.13179560000026,385.13179560000026,385.13179560000026,,001,P012,2025_Feb_08_1130,ConditionRich,2021.2.3,59.93949707193237,
347.75,348.0,41,0.0,Stimuli/Blank.png,0,0,0.0,0,151,151,151,,,,,,,,,,,,,347.75651059999836,0.0065105999983643414,None,388.88520570000037,388.88520570000037,388.88520570000037,388.88520570000037,388.88520570000037,388.88520570000037,388.88520570000037,388.88520570000037,388.88520570000037,388.88520570000037,,001,P012,2025_Feb_08_1130,ConditionRich,2021.2.3,59.93949707193237,
348.0,351.75,14,0.75,Stimuli/P012/sun_blybvkoucskrdgiv.jpg,0,0,0.0,0,152,152,152,,,,,,,,,,,,,348.0070760999988,0.007076099998812424,None,389.1353370000015,389.1353370000015,389.1353370000015,389.1353370000015,389.1353370000015,389.1353370000015,389.1353370000015,389.1353370000015,389.1353370000015,389.1353370000015,,001,P012,2025_Feb_08_1130,ConditionRich,2021.2.3,59.93949707193237,
351.75,352.0,41,0.0,Stimuli/Blank.png,0,0,0.0,0,153,153,153,,,,,,,,,,,,,351.76269539999885,0.012695399998847279,None,392.9053434000016,392.9053434000016,392.9053434000016,392.9053434000016,392.9053434000016,392.9053434000016,392.9053434000016,392.9053434000016,392.9053434000016,392.9053434000016,,001,P012,2025_Feb_08_1130,ConditionRich,2021.2.3,59.93949707193237,
352.0,355.75,2,0.75,Stimuli/P012/sun_aewhvqonribwlxiq.jpg,1,1,1.75,0,154,154,154,,,,,,,,,,,,,352.027613799999,0.02761379999901692,2,393.17226029999983,393.17226029999983,393.17226029999983,393.17226029999983,393.17226029999983,393.17226029999983,394.1397545,394.8904127000005,393.17226029999983,393.17226029999983,1.4266019999995478,001,P012,2025_Feb_08_1130,ConditionRich,2021.2.3,59.93949707193237,
355.75,356.0,41,0.0,Stimuli/Blank.png,0,0,0.0,0,155,155,155,,,,,,,,,,,,,355.7809030999997,0.030903099999704864,None,396.9089444000001,396.9089444000001,396.9089444000001,396.9089444000001,396.9089444000001,396.9089444000001,396.9089444000001,396.9089444000001,396.9089444000001,396.9089444000001,,001,P012,2025_Feb_08_1130,ConditionRich,2021.2.3,59.93949707193237,
356.0,359.75,32,0.75,Stimuli/P012/things_hood_06s.jpg,0,0,0.0,0,156,156,156,,,,,,,,,,,,,356.0145690999998,0.014569099999789614,None,397.159102900001,397.159102900001,397.159102900001,397.159102900001,397.159102900001,397.159102900001,397.159102900001,397.159102900001,397.159102900001,397.159102900001,,001,P012,2025_Feb_08_1130,ConditionRich,2021.2.3,59.93949707193237,
359.75,360.0,41,0.0,Stimuli/Blank.png,0,0,0.0,0,157,157,157,,,,,,,,,,,,,359.76704979999886,0.01704979999885836,None,400.89573050000035,400.89573050000035,400.89573050000035,400.89573050000035,400.89573050000035,400.89573050000035,400.89573050000035,400.89573050000035,400.89573050000035,400.89573050000035,,001,P012,2025_Feb_08_1130,ConditionRich,2021.2.3,59.93949707193237,
360.0,363.75,29,0.75,Stimuli/P012/things_gutter_06s.jpg,0,0,0.0,0,158,158,158,,,,,,,,,,,,,360.0029311999988,0.0029311999987839954,None,401.1459637000007,401.1459637000007,401.1459637000007,401.1459637000007,401.1459637000007,401.1459637000007,401.1459637000007,401.1459637000007,401.1459637000007,401.1459637000007,,001,P012,2025_Feb_08_1130,ConditionRich,2021.2.3,59.93949707193237,
363.75,364.0,41,0.0,Stimuli/Blank.png,0,0,0.0,0,159,159,159,,,,,,,,,,,,,363.77202749999924,0.022027499999239808,None,404.89928860000146,404.89928860000146,404.89928860000146,404.89928860000146,404.89928860000146,404.89928860000146,404.89928860000146,404.89928860000146,404.89928860000146,404.89928860000146,,001,P012,2025_Feb_08_1130,ConditionRich,2021.2.3,59.93949707193237,
364.0,367.75,25,0.75,Stimuli/P012/things_face_06s.jpg,1,2,2.75,0,160,160,160,,,,,,,,,,,,,364.0059430000001,0.005943000000115717,2,405.1495093000012,405.1495093000012,405.1495093000012,405.1495093000012,405.1495093000012,405.1495093000012,407.1179025000001,407.8686032000005,405.1495093000012,405.1495093000012,2.3384358000002976,001,P012,2025_Feb_08_1130,ConditionRich,2021.2.3,59.93949707193237,
367.75,368.0,41,0.0,Stimuli/Blank.png,0,0,0.0,0,161,161,161,,,,,,,,,,,,,367.7743696999987,0.024369699998715078,None,408.9028240000007,408.9028240000007,408.9028240000007,408.9028240000007,408.9028240000007,408.9028240000007,408.9028240000007,408.9028240000007,408.9028240000007,408.9028240000007,,001,P012,2025_Feb_08_1130,ConditionRich,2021.2.3,59.93949707193237,
368.0,371.75,39,0.75,Stimuli/P012/things_thermometer_06s.jpg,0,0,0.0,0,162,162,162,,,,,,,,,,,,,368.0081448000001,0.008144800000081887,None,409.1363701999999,409.1363701999999,409.1363701999999,409.1363701999999,409.1363701999999,409.1363701999999,409.1363701999999,409.1363701999999,409.1363701999999,409.1363701999999,,001,P012,2025_Feb_08_1130,ConditionRich,2021.2.3,59.93949707193237,
371.75,372.0,41,0.0,Stimuli/Blank.png,0,0,0.0,0,163,163,163,,,,,,,,,,,,,371.7617425999997,0.011742599999706727,None,412.88967930000035,412.88967930000035,412.88967930000035,412.88967930000035,412.88967930000035,412.88967930000035,412.88967930000035,412.88967930000035,412.88967930000035,412.88967930000035,,001,P012,2025_Feb_08_1130,ConditionRich,2021.2.3,59.93949707193237,
372.0,388.0,0,0.0,Stimuli/Blank.png,1,9,9.75,0,164,164,164,,,,,,,,,,,,,372.0128829999994,0.012882999999419553,2,413.1399076000016,413.1399076000016,413.1399076000016,413.1399076000016,413.1399076000016,413.1399076000016,422.13118209999993,422.8818876000005,413.1399076000016,413.1399076000016,9.385029600000053,001,P012,2025_Feb_08_1130,ConditionRich,2021.2.3,59.93949707193237,
