eventStartTime,eventEndTime,eventCond,imSize,imFile,responseEvent,fixRespStart,fixRespEnd,Events.thisRepN,Events.thisTrialN,Events.thisN,Events.thisIndex,Instructions.started,Instructions.stopped,participantReadyResponse.keys,participantReadyResponse.rt,participantReadyResponse.started,participantReadyResponse.stopped,startWaitforTrigger,triggerResponse.keys,triggerResponse.rt,triggerResponse.started,triggerResponse.stopped,globalTimer,actualStartTime,startTimingDiff,participantResponse.keys,participantResponse.started,participantResponse.stopped,image.started,image.stopped,fixationOutside.started,fixationOutside.stopped,fixationResponse.started,fixationResponse.stopped,fixationInside.started,fixationInside.stopped,participantResponse.rt,session,participant,date,expName,psychopyVersion,frameRate,
,,,,,,,,,,,,15.463363200000458,None,2,7.909115500000553,15.463363200000458,None,,,,,,,,,,,,,,,,,,,,,008,P012,2025_Feb_08_1236,ConditionRich,2021.2.3,59.90696448426143,
,,,,,,,,,,,,,,,,,,23.383841300001222,5,13.014888199999405,23.3968203000004,None,,,,,,,,,,,,,,,,008,P012,2025_Feb_08_1236,ConditionRich,2021.2.3,59.90696448426143,
0.0,4.0,0,0.0,Stimuli/Blank.png,0,0,0.0,0,0,0,0,,,,,,,,,,,,36.429922300001635,0.06349630000113393,0.06349630000113393,None,36.50850890000038,None,36.50850890000038,None,36.50850890000038,None,36.50850890000038,36.50850890000038,36.50850890000038,None,,008,P012,2025_Feb_08_1236,ConditionRich,2021.2.3,59.90696448426143,
4.0,4.75,9,0.75,Stimuli/P012/sun_aupohozmrmtfgcsw.jpg,0,0,0.0,0,1,1,1,,,,,,,,,,,,,4.008281400001579,0.008281400001578731,None,40.46247120000044,40.46247120000044,40.46247120000044,40.46247120000044,40.46247120000044,40.46247120000044,40.46247120000044,40.46247120000044,40.46247120000044,40.46247120000044,,008,P012,2025_Feb_08_1236,ConditionRich,2021.2.3,59.90696448426143,
4.75,5.0,41,0.0,Stimuli/Blank.png,0,0,0.0,0,2,2,2,,,,,,,,,,,,,4.768849000000046,0.018849000000045635,None,41.213028699999995,41.213028699999995,41.213028699999995,41.213028699999995,41.213028699999995,41.213028699999995,41.213028699999995,41.213028699999995,41.213028699999995,41.213028699999995,,008,P012,2025_Feb_08_1236,ConditionRich,2021.2.3,59.90696448426143,
5.0,5.75,9,0.75,Stimuli/P012/sun_aupohozmrmtfgcsw.jpg,0,0,0.0,0,3,3,3,,,,,,,,,,,,,5.0038753000008,0.0038753000008000527,None,41.46302090000063,41.46302090000063,41.46302090000063,41.46302090000063,41.46302090000063,41.46302090000063,41.46302090000063,41.46302090000063,41.46302090000063,41.46302090000063,,008,P012,2025_Feb_08_1236,ConditionRich,2021.2.3,59.90696448426143,
5.75,6.0,41,0.0,Stimuli/Blank.png,0,0,0.0,0,4,4,4,,,,,,,,,,,,,5.769984600001408,0.01998460000140767,None,42.21367880000071,42.21367880000071,42.21367880000071,42.21367880000071,42.21367880000071,42.21367880000071,42.21367880000071,42.21367880000071,42.21367880000071,42.21367880000071,,008,P012,2025_Feb_08_1236,ConditionRich,2021.2.3,59.90696448426143,
6.0,6.75,9,0.75,Stimuli/P012/sun_aupohozmrmtfgcsw.jpg,0,0,0.0,0,5,5,5,,,,,,,,,,,,,6.0034245000006194,0.003424500000619446,None,42.46389220000128,42.46389220000128,42.46389220000128,42.46389220000128,42.46389220000128,42.46389220000128,42.46389220000128,42.46389220000128,42.46389220000128,42.46389220000128,,008,P012,2025_Feb_08_1236,ConditionRich,2021.2.3,59.90696448426143,
6.75,7.0,41,0.0,Stimuli/Blank.png,0,0,0.0,0,6,6,6,,,,,,,,,,,,,6.770148999999947,0.020148999999946682,None,43.21457160000136,43.21457160000136,43.21457160000136,43.21457160000136,43.21457160000136,43.21457160000136,43.21457160000136,43.21457160000136,43.21457160000136,43.21457160000136,,008,P012,2025_Feb_08_1236,ConditionRich,2021.2.3,59.90696448426143,
7.0,7.75,9,0.75,Stimuli/P012/sun_aupohozmrmtfgcsw.jpg,0,0,0.0,0,7,7,7,,,,,,,,,,,,,7.00451190000058,0.004511900000579772,None,43.44811110000046,43.44811110000046,43.44811110000046,43.44811110000046,43.44811110000046,43.44811110000046,43.44811110000046,43.44811110000046,43.44811110000046,43.44811110000046,,008,P012,2025_Feb_08_1236,ConditionRich,2021.2.3,59.90696448426143,
7.75,8.0,41,0.0,Stimuli/Blank.png,0,0,0.0,0,8,8,8,,,,,,,,,,,,,7.755451400000311,0.005451400000310969,None,44.21547030000147,44.21547030000147,44.21547030000147,44.21547030000147,44.21547030000147,44.21547030000147,44.21547030000147,44.21547030000147,44.21547030000147,44.21547030000147,,008,P012,2025_Feb_08_1236,ConditionRich,2021.2.3,59.90696448426143,
8.0,8.75,8,0.75,Stimuli/P012/sun_asppejhsplpizvag.jpg,0,0,0.0,0,9,9,9,,,,,,,,,,,,,8.023961600001712,0.023961600001712213,None,44.4823520000009,44.4823520000009,44.4823520000009,44.4823520000009,44.4823520000009,44.4823520000009,44.4823520000009,44.4823520000009,44.4823520000009,44.4823520000009,,008,P012,2025_Feb_08_1236,ConditionRich,2021.2.3,59.90696448426143,
8.75,9.0,41,0.0,Stimuli/Blank.png,0,0,0.0,0,10,10,10,,,,,,,,,,,,,8.773929000000862,0.02392900000086229,None,45.23301890000039,45.23301890000039,45.23301890000039,45.23301890000039,45.23301890000039,45.23301890000039,45.23301890000039,45.23301890000039,45.23301890000039,45.23301890000039,,008,P012,2025_Feb_08_1236,ConditionRich,2021.2.3,59.90696448426143,
9.0,9.75,8,0.75,Stimuli/P012/sun_asppejhsplpizvag.jpg,0,0,0.0,0,11,11,11,,,,,,,,,,,,,9.02410620000046,0.024106200000460376,None,45.48325580000164,45.48325580000164,45.48325580000164,45.48325580000164,45.48325580000164,45.48325580000164,45.48325580000164,45.48325580000164,45.48325580000164,45.48325580000164,,008,P012,2025_Feb_08_1236,ConditionRich,2021.2.3,59.90696448426143,
9.75,10.0,41,0.0,Stimuli/Blank.png,0,0,0.0,0,12,12,12,,,,,,,,,,,,,9.773400699999911,0.023400699999911012,None,46.21724510000058,46.21724510000058,46.21724510000058,46.21724510000058,46.21724510000058,46.21724510000058,46.21724510000058,46.21724510000058,46.21724510000058,46.21724510000058,,008,P012,2025_Feb_08_1236,ConditionRich,2021.2.3,59.90696448426143,
10.0,10.75,8,0.75,Stimuli/P012/sun_asppejhsplpizvag.jpg,0,0,0.0,0,13,13,13,,,,,,,,,,,,,10.006326500000796,0.0063265000007959316,None,46.46744639999997,46.46744639999997,46.46744639999997,46.46744639999997,46.46744639999997,46.46744639999997,46.46744639999997,46.46744639999997,46.46744639999997,46.46744639999997,,008,P012,2025_Feb_08_1236,ConditionRich,2021.2.3,59.90696448426143,
10.75,11.0,41,0.0,Stimuli/Blank.png,0,0,0.0,0,14,14,14,,,,,,,,,,,,,10.774547100001655,0.024547100001655053,None,47.21811610000077,47.21811610000077,47.21811610000077,47.21811610000077,47.21811610000077,47.21811610000077,47.21811610000077,47.21811610000077,47.21811610000077,47.21811610000077,,008,P012,2025_Feb_08_1236,ConditionRich,2021.2.3,59.90696448426143,
11.0,11.75,8,0.75,Stimuli/P012/sun_asppejhsplpizvag.jpg,0,0,0.0,0,15,15,15,,,,,,,,,,,,,11.009684100001323,0.009684100001322804,None,47.46835220000139,47.46835220000139,47.46835220000139,47.46835220000139,47.46835220000139,47.46835220000139,47.46835220000139,47.46835220000139,47.46835220000139,47.46835220000139,,008,P012,2025_Feb_08_1236,ConditionRich,2021.2.3,59.90696448426143,
11.75,12.0,41,0.0,Stimuli/Blank.png,0,0,0.0,0,16,16,16,,,,,,,,,,,,,11.774696500000573,0.024696500000572996,None,48.21897119999994,48.21897119999994,48.21897119999994,48.21897119999994,48.21897119999994,48.21897119999994,48.21897119999994,48.21897119999994,48.21897119999994,48.21897119999994,,008,P012,2025_Feb_08_1236,ConditionRich,2021.2.3,59.90696448426143,
12.0,12.75,24,0.75,Stimuli/P012/things_doily_06s.jpg,0,0,0.0,0,17,17,17,,,,,,,,,,,,,12.00802240000121,0.008022400001209462,None,48.45252920000166,48.45252920000166,48.45252920000166,48.45252920000166,48.45252920000166,48.45252920000166,48.45252920000166,48.45252920000166,48.45252920000166,48.45252920000166,,008,P012,2025_Feb_08_1236,ConditionRich,2021.2.3,59.90696448426143,
12.75,13.0,41,0.0,Stimuli/Blank.png,0,0,0.0,0,18,18,18,,,,,,,,,,,,,12.759361100001115,0.009361100001115119,None,49.20319810000001,49.20319810000001,49.20319810000001,49.20319810000001,49.20319810000001,49.20319810000001,49.20319810000001,49.20319810000001,49.20319810000001,49.20319810000001,,008,P012,2025_Feb_08_1236,ConditionRich,2021.2.3,59.90696448426143,
13.0,13.75,24,0.75,Stimuli/P012/things_doily_06s.jpg,0,0,0.0,0,19,19,19,,,,,,,,,,,,,13.008897300000172,0.008897300000171526,None,49.45338950000041,49.45338950000041,49.45338950000041,49.45338950000041,49.45338950000041,49.45338950000041,49.45338950000041,49.45338950000041,49.45338950000041,49.45338950000041,,008,P012,2025_Feb_08_1236,ConditionRich,2021.2.3,59.90696448426143,
13.75,14.0,41,0.0,Stimuli/Blank.png,0,0,0.0,0,20,20,20,,,,,,,,,,,,,13.760247000000163,0.010247000000163098,None,50.20408700000007,50.20408700000007,50.20408700000007,50.20408700000007,50.20408700000007,50.20408700000007,50.20408700000007,50.20408700000007,50.20408700000007,50.20408700000007,,008,P012,2025_Feb_08_1236,ConditionRich,2021.2.3,59.90696448426143,
14.0,14.75,24,0.75,Stimuli/P012/things_doily_06s.jpg,0,0,0.0,0,21,21,21,,,,,,,,,,,,,14.009747300000527,0.009747300000526593,None,50.45430380000107,50.45430380000107,50.45430380000107,50.45430380000107,50.45430380000107,50.45430380000107,50.45430380000107,50.45430380000107,50.45430380000107,50.45430380000107,,008,P012,2025_Feb_08_1236,ConditionRich,2021.2.3,59.90696448426143,
14.75,15.0,41,0.0,Stimuli/Blank.png,0,0,0.0,0,22,22,22,,,,,,,,,,,,,14.760533700000451,0.010533700000451063,None,51.20496280000043,51.20496280000043,51.20496280000043,51.20496280000043,51.20496280000043,51.20496280000043,51.20496280000043,51.20496280000043,51.20496280000043,51.20496280000043,,008,P012,2025_Feb_08_1236,ConditionRich,2021.2.3,59.90696448426143,
15.0,15.75,24,0.75,Stimuli/P012/things_doily_06s.jpg,0,0,0.0,0,23,23,23,,,,,,,,,,,,,15.011328500000673,0.011328500000672648,None,51.455193300000246,51.455193300000246,51.455193300000246,51.455193300000246,51.455193300000246,51.455193300000246,51.455193300000246,51.455193300000246,51.455193300000246,51.455193300000246,,008,P012,2025_Feb_08_1236,ConditionRich,2021.2.3,59.90696448426143,
15.75,16.0,41,0.0,Stimuli/Blank.png,0,0,0.0,0,24,24,24,,,,,,,,,,,,,15.764123000000836,0.014123000000836328,None,52.22254720000092,52.22254720000092,52.22254720000092,52.22254720000092,52.22254720000092,52.22254720000092,52.22254720000092,52.22254720000092,52.22254720000092,52.22254720000092,,008,P012,2025_Feb_08_1236,ConditionRich,2021.2.3,59.90696448426143,
16.0,16.75,36,0.75,Stimuli/P012/things_shower_cap_06s.jpg,0,0,0.0,0,25,25,25,,,,,,,,,,,,,16.029866400000174,0.0298664000001736,None,52.48943070000132,52.48943070000132,52.48943070000132,52.48943070000132,52.48943070000132,52.48943070000132,52.48943070000132,52.48943070000132,52.48943070000132,52.48943070000132,,008,P012,2025_Feb_08_1236,ConditionRich,2021.2.3,59.90696448426143,
16.75,17.0,41,0.0,Stimuli/Blank.png,0,0,0.0,0,26,26,26,,,,,,,,,,,,,16.77953720000005,0.02953720000004978,None,53.223424600000726,53.223424600000726,53.223424600000726,53.223424600000726,53.223424600000726,53.223424600000726,53.223424600000726,53.223424600000726,53.223424600000726,53.223424600000726,,008,P012,2025_Feb_08_1236,ConditionRich,2021.2.3,59.90696448426143,
17.0,17.75,36,0.75,Stimuli/P012/things_shower_cap_06s.jpg,0,0,0.0,0,27,27,27,,,,,,,,,,,,,17.01339150000058,0.013391500000579981,None,53.47363840000071,53.47363840000071,53.47363840000071,53.47363840000071,53.47363840000071,53.47363840000071,53.47363840000071,53.47363840000071,53.47363840000071,53.47363840000071,,008,P012,2025_Feb_08_1236,ConditionRich,2021.2.3,59.90696448426143,
17.75,18.0,41,0.0,Stimuli/Blank.png,0,0,0.0,0,28,28,28,,,,,,,,,,,,,17.77997630000027,0.029976300000271294,None,54.224313200000324,54.224313200000324,54.224313200000324,54.224313200000324,54.224313200000324,54.224313200000324,54.224313200000324,54.224313200000324,54.224313200000324,54.224313200000324,,008,P012,2025_Feb_08_1236,ConditionRich,2021.2.3,59.90696448426143,
18.0,18.75,36,0.75,Stimuli/P012/things_shower_cap_06s.jpg,0,0,0.0,0,29,29,29,,,,,,,,,,,,,18.0140879999999,0.014087999999901513,None,54.45784840000124,54.45784840000124,54.45784840000124,54.45784840000124,54.45784840000124,54.45784840000124,54.45784840000124,54.45784840000124,54.45784840000124,54.45784840000124,,008,P012,2025_Feb_08_1236,ConditionRich,2021.2.3,59.90696448426143,
18.75,19.0,41,0.0,Stimuli/Blank.png,0,0,0.0,0,30,30,30,,,,,,,,,,,,,18.764031700000487,0.014031700000487035,None,55.20853720000014,55.20853720000014,55.20853720000014,55.20853720000014,55.20853720000014,55.20853720000014,55.20853720000014,55.20853720000014,55.20853720000014,55.20853720000014,,008,P012,2025_Feb_08_1236,ConditionRich,2021.2.3,59.90696448426143,
19.0,19.75,36,0.75,Stimuli/P012/things_shower_cap_06s.jpg,0,0,0.0,0,31,31,31,,,,,,,,,,,,,19.01545410000108,0.015454100001079496,None,55.47544030000063,55.47544030000063,55.47544030000063,55.47544030000063,55.47544030000063,55.47544030000063,55.47544030000063,55.47544030000063,55.47544030000063,55.47544030000063,,008,P012,2025_Feb_08_1236,ConditionRich,2021.2.3,59.90696448426143,
19.75,20.0,41,0.0,Stimuli/Blank.png,0,0,0.0,0,32,32,32,,,,,,,,,,,,,19.76524700000118,0.015247000001181732,None,56.209405500001594,56.209405500001594,56.209405500001594,56.209405500001594,56.209405500001594,56.209405500001594,56.209405500001594,56.209405500001594,56.209405500001594,56.209405500001594,,008,P012,2025_Feb_08_1236,ConditionRich,2021.2.3,59.90696448426143,
20.0,20.75,31,0.75,Stimuli/P012/things_hippopotamus_06s.jpg,0,0,0.0,0,33,33,33,,,,,,,,,,,,,20.01583700000083,0.015837000000828994,None,56.47632020000128,56.47632020000128,56.47632020000128,56.47632020000128,56.47632020000128,56.47632020000128,56.47632020000128,56.47632020000128,56.47632020000128,56.47632020000128,,008,P012,2025_Feb_08_1236,ConditionRich,2021.2.3,59.90696448426143,
20.75,21.0,41,0.0,Stimuli/Blank.png,0,0,0.0,0,34,34,34,,,,,,,,,,,,,20.765740700000606,0.01574070000060601,None,57.21028760000081,57.21028760000081,57.21028760000081,57.21028760000081,57.21028760000081,57.21028760000081,57.21028760000081,57.21028760000081,57.21028760000081,57.21028760000081,,008,P012,2025_Feb_08_1236,ConditionRich,2021.2.3,59.90696448426143,
21.0,21.75,31,0.75,Stimuli/P012/things_hippopotamus_06s.jpg,0,0,0.0,0,35,35,35,,,,,,,,,,,,,20.999838600000658,-0.00016139999934239313,None,57.4438226000002,57.4438226000002,57.4438226000002,57.4438226000002,57.4438226000002,57.4438226000002,57.4438226000002,57.4438226000002,57.4438226000002,57.4438226000002,,008,P012,2025_Feb_08_1236,ConditionRich,2021.2.3,59.90696448426143,
21.75,22.0,41,0.0,Stimuli/Blank.png,0,0,0.0,0,36,36,36,,,,,,,,,,,,,21.750005200001397,5.20000139658805e-06,None,58.194492500000706,58.194492500000706,58.194492500000706,58.194492500000706,58.194492500000706,58.194492500000706,58.194492500000706,58.194492500000706,58.194492500000706,58.194492500000706,,008,P012,2025_Feb_08_1236,ConditionRich,2021.2.3,59.90696448426143,
22.0,22.75,31,0.75,Stimuli/P012/things_hippopotamus_06s.jpg,1,0,0.75,0,37,37,37,,,,,,,,,,,,,22.000513100001626,0.0005131000016262988,2,58.44470360000014,58.44470360000014,58.44470360000014,58.44470360000014,58.44470360000014,58.44470360000014,58.44470360000014,59.17872660000103,58.44470360000014,58.44470360000014,0.4497045000007347,008,P012,2025_Feb_08_1236,ConditionRich,2021.2.3,59.90696448426143,
22.75,23.0,41,0.0,Stimuli/Blank.png,0,0,0.0,0,38,38,38,,,,,,,,,,,,,22.752528700000767,0.0025287000007665483,None,59.19538199999988,59.19538199999988,59.19538199999988,59.19538199999988,59.19538199999988,59.19538199999988,59.19538199999988,59.19538199999988,59.19538199999988,59.19538199999988,,008,P012,2025_Feb_08_1236,ConditionRich,2021.2.3,59.90696448426143,
23.0,23.75,31,0.75,Stimuli/P012/things_hippopotamus_06s.jpg,0,0,0.0,0,39,39,39,,,,,,,,,,,,,23.004138400001466,0.004138400001465925,None,59.462273500001174,59.462273500001174,59.462273500001174,59.462273500001174,59.462273500001174,59.462273500001174,59.462273500001174,59.462273500001174,59.462273500001174,59.462273500001174,,008,P012,2025_Feb_08_1236,ConditionRich,2021.2.3,59.90696448426143,
23.75,24.0,41,0.0,Stimuli/Blank.png,0,0,0.0,0,40,40,40,,,,,,,,,,,,,23.769508400000632,0.01950840000063181,None,60.21294520000083,60.21294520000083,60.21294520000083,60.21294520000083,60.21294520000083,60.21294520000083,60.21294520000083,60.21294520000083,60.21294520000083,60.21294520000083,,008,P012,2025_Feb_08_1236,ConditionRich,2021.2.3,59.90696448426143,
24.0,24.75,4,0.75,Stimuli/P012/sun_akpdzjejmtbfopdt.jpg,0,0,0.0,0,41,41,41,,,,,,,,,,,,,24.0025166000014,0.002516600001399638,None,60.44647729999997,60.44647729999997,60.44647729999997,60.44647729999997,60.44647729999997,60.44647729999997,60.44647729999997,60.44647729999997,60.44647729999997,60.44647729999997,,008,P012,2025_Feb_08_1236,ConditionRich,2021.2.3,59.90696448426143,
24.75,25.0,41,0.0,Stimuli/Blank.png,0,0,0.0,0,42,42,42,,,,,,,,,,,,,24.753565800001525,0.0035658000015246216,None,61.19714500000009,61.19714500000009,61.19714500000009,61.19714500000009,61.19714500000009,61.19714500000009,61.19714500000009,61.19714500000009,61.19714500000009,61.19714500000009,,008,P012,2025_Feb_08_1236,ConditionRich,2021.2.3,59.90696448426143,
25.0,25.75,4,0.75,Stimuli/P012/sun_akpdzjejmtbfopdt.jpg,0,0,0.0,0,43,43,43,,,,,,,,,,,,,25.003944300000512,0.003944300000512158,None,61.447375400000965,61.447375400000965,61.447375400000965,61.447375400000965,61.447375400000965,61.447375400000965,61.447375400000965,61.447375400000965,61.447375400000965,61.447375400000965,,008,P012,2025_Feb_08_1236,ConditionRich,2021.2.3,59.90696448426143,
25.75,26.0,41,0.0,Stimuli/Blank.png,0,0,0.0,0,44,44,44,,,,,,,,,,,,,25.754321000000346,0.004321000000345521,None,62.198033399999986,62.198033399999986,62.198033399999986,62.198033399999986,62.198033399999986,62.198033399999986,62.198033399999986,62.198033399999986,62.198033399999986,62.198033399999986,,008,P012,2025_Feb_08_1236,ConditionRich,2021.2.3,59.90696448426143,
26.0,26.75,4,0.75,Stimuli/P012/sun_akpdzjejmtbfopdt.jpg,0,0,0.0,0,45,45,45,,,,,,,,,,,,,26.004278800000975,0.004278800000975025,None,62.4482478000009,62.4482478000009,62.4482478000009,62.4482478000009,62.4482478000009,62.4482478000009,62.4482478000009,62.4482478000009,62.4482478000009,62.4482478000009,,008,P012,2025_Feb_08_1236,ConditionRich,2021.2.3,59.90696448426143,
26.75,27.0,41,0.0,Stimuli/Blank.png,0,0,0.0,0,46,46,46,,,,,,,,,,,,,26.755115300000398,0.005115300000397838,None,63.198919899999964,63.198919899999964,63.198919899999964,63.198919899999964,63.198919899999964,63.198919899999964,63.198919899999964,63.198919899999964,63.198919899999964,63.198919899999964,,008,P012,2025_Feb_08_1236,ConditionRich,2021.2.3,59.90696448426143,
27.0,27.75,4,0.75,Stimuli/P012/sun_akpdzjejmtbfopdt.jpg,0,0,0.0,0,47,47,47,,,,,,,,,,,,,27.005231700000877,0.0052317000008770265,None,63.449136799999906,63.449136799999906,63.449136799999906,63.449136799999906,63.449136799999906,63.449136799999906,63.449136799999906,63.449136799999906,63.449136799999906,63.449136799999906,,008,P012,2025_Feb_08_1236,ConditionRich,2021.2.3,59.90696448426143,
27.75,28.0,41,0.0,Stimuli/Blank.png,0,0,0.0,0,48,48,48,,,,,,,,,,,,,27.755472500000906,0.005472500000905711,None,64.19979890000104,64.19979890000104,64.19979890000104,64.19979890000104,64.19979890000104,64.19979890000104,64.19979890000104,64.19979890000104,64.19979890000104,64.19979890000104,,008,P012,2025_Feb_08_1236,ConditionRich,2021.2.3,59.90696448426143,
28.0,28.75,32,0.75,Stimuli/P012/things_hood_06s.jpg,0,0,0.0,0,49,49,49,,,,,,,,,,,,,28.006274000001213,0.006274000001212698,None,64.44995620000009,64.44995620000009,64.44995620000009,64.44995620000009,64.44995620000009,64.44995620000009,64.44995620000009,64.44995620000009,64.44995620000009,64.44995620000009,,008,P012,2025_Feb_08_1236,ConditionRich,2021.2.3,59.90696448426143,
28.75,29.0,41,0.0,Stimuli/Blank.png,0,0,0.0,0,50,50,50,,,,,,,,,,,,,28.75621240000146,0.006212400001459173,None,65.20067700000072,65.20067700000072,65.20067700000072,65.20067700000072,65.20067700000072,65.20067700000072,65.20067700000072,65.20067700000072,65.20067700000072,65.20067700000072,,008,P012,2025_Feb_08_1236,ConditionRich,2021.2.3,59.90696448426143,
29.0,29.75,32,0.75,Stimuli/P012/things_hood_06s.jpg,0,0,0.0,0,51,51,51,,,,,,,,,,,,,29.006345000001602,0.006345000001601875,None,65.45090290000007,65.45090290000007,65.45090290000007,65.45090290000007,65.45090290000007,65.45090290000007,65.45090290000007,65.45090290000007,65.45090290000007,65.45090290000007,,008,P012,2025_Feb_08_1236,ConditionRich,2021.2.3,59.90696448426143,
29.75,30.0,41,0.0,Stimuli/Blank.png,0,0,0.0,0,52,52,52,,,,,,,,,,,,,29.760074600000735,0.01007460000073479,None,66.21825760000138,66.21825760000138,66.21825760000138,66.21825760000138,66.21825760000138,66.21825760000138,66.21825760000138,66.21825760000138,66.21825760000138,66.21825760000138,,008,P012,2025_Feb_08_1236,ConditionRich,2021.2.3,59.90696448426143,
30.0,30.75,32,0.75,Stimuli/P012/things_hood_06s.jpg,0,0,0.0,0,53,53,53,,,,,,,,,,,,,30.024498600001607,0.024498600001606974,None,66.46847060000073,66.46847060000073,66.46847060000073,66.46847060000073,66.46847060000073,66.46847060000073,66.46847060000073,66.46847060000073,66.46847060000073,66.46847060000073,,008,P012,2025_Feb_08_1236,ConditionRich,2021.2.3,59.90696448426143,
30.75,31.0,41,0.0,Stimuli/Blank.png,0,0,0.0,0,54,54,54,,,,,,,,,,,,,30.75945380000121,0.009453800001210766,None,67.20246360000056,67.20246360000056,67.20246360000056,67.20246360000056,67.20246360000056,67.20246360000056,67.20246360000056,67.20246360000056,67.20246360000056,67.20246360000056,,008,P012,2025_Feb_08_1236,ConditionRich,2021.2.3,59.90696448426143,
31.0,31.75,32,0.75,Stimuli/P012/things_hood_06s.jpg,0,0,0.0,0,55,55,55,,,,,,,,,,,,,31.00845280000067,0.008452800000668503,None,67.4526773000016,67.4526773000016,67.4526773000016,67.4526773000016,67.4526773000016,67.4526773000016,67.4526773000016,67.4526773000016,67.4526773000016,67.4526773000016,,008,P012,2025_Feb_08_1236,ConditionRich,2021.2.3,59.90696448426143,
31.75,32.0,41,0.0,Stimuli/Blank.png,0,0,0.0,0,56,56,56,,,,,,,,,,,,,31.75987680000071,0.009876800000711228,None,68.20334950000142,68.20334950000142,68.20334950000142,68.20334950000142,68.20334950000142,68.20334950000142,68.20334950000142,68.20334950000142,68.20334950000142,68.20334950000142,,008,P012,2025_Feb_08_1236,ConditionRich,2021.2.3,59.90696448426143,
32.0,32.75,10,0.75,Stimuli/P012/sun_awufkrkrdrdbvvis.jpg,0,0,0.0,0,57,57,57,,,,,,,,,,,,,32.009021900001244,0.009021900001243921,None,68.45355879999988,68.45355879999988,68.45355879999988,68.45355879999988,68.45355879999988,68.45355879999988,68.45355879999988,68.45355879999988,68.45355879999988,68.45355879999988,,008,P012,2025_Feb_08_1236,ConditionRich,2021.2.3,59.90696448426143,
32.75,33.0,41,0.0,Stimuli/Blank.png,0,0,0.0,0,58,58,58,,,,,,,,,,,,,32.759790500000236,0.009790500000235625,None,69.20422910000161,69.20422910000161,69.20422910000161,69.20422910000161,69.20422910000161,69.20422910000161,69.20422910000161,69.20422910000161,69.20422910000161,69.20422910000161,,008,P012,2025_Feb_08_1236,ConditionRich,2021.2.3,59.90696448426143,
33.0,33.75,10,0.75,Stimuli/P012/sun_awufkrkrdrdbvvis.jpg,0,0,0.0,0,59,59,59,,,,,,,,,,,,,33.010712799999965,0.010712799999964773,None,69.45444380000117,69.45444380000117,69.45444380000117,69.45444380000117,69.45444380000117,69.45444380000117,69.45444380000117,69.45444380000117,69.45444380000117,69.45444380000117,,008,P012,2025_Feb_08_1236,ConditionRich,2021.2.3,59.90696448426143,
33.75,34.0,41,0.0,Stimuli/Blank.png,0,0,0.0,0,60,60,60,,,,,,,,,,,,,33.761553500000446,0.011553500000445638,None,70.2051104000002,70.2051104000002,70.2051104000002,70.2051104000002,70.2051104000002,70.2051104000002,70.2051104000002,70.2051104000002,70.2051104000002,70.2051104000002,,008,P012,2025_Feb_08_1236,ConditionRich,2021.2.3,59.90696448426143,
34.0,34.75,10,0.75,Stimuli/P012/sun_awufkrkrdrdbvvis.jpg,0,0,0.0,0,61,61,61,,,,,,,,,,,,,34.01282680000077,0.012826800000766525,None,70.47201440000026,70.47201440000026,70.47201440000026,70.47201440000026,70.47201440000026,70.47201440000026,70.47201440000026,70.47201440000026,70.47201440000026,70.47201440000026,,008,P012,2025_Feb_08_1236,ConditionRich,2021.2.3,59.90696448426143,
34.75,35.0,41,0.0,Stimuli/Blank.png,0,0,0.0,0,62,62,62,,,,,,,,,,,,,34.77886390000094,0.02886390000094252,None,71.22267470000043,71.22267470000043,71.22267470000043,71.22267470000043,71.22267470000043,71.22267470000043,71.22267470000043,71.22267470000043,71.22267470000043,71.22267470000043,,008,P012,2025_Feb_08_1236,ConditionRich,2021.2.3,59.90696448426143,
35.0,35.75,10,0.75,Stimuli/P012/sun_awufkrkrdrdbvvis.jpg,0,0,0.0,0,63,63,63,,,,,,,,,,,,,35.01407450000079,0.014074500000788248,None,71.47290910000083,71.47290910000083,71.47290910000083,71.47290910000083,71.47290910000083,71.47290910000083,71.47290910000083,71.47290910000083,71.47290910000083,71.47290910000083,,008,P012,2025_Feb_08_1236,ConditionRich,2021.2.3,59.90696448426143,
35.75,36.0,41,0.0,Stimuli/Blank.png,0,0,0.0,0,64,64,64,,,,,,,,,,,,,35.77983080000013,0.029830800000127056,None,72.22358030000032,72.22358030000032,72.22358030000032,72.22358030000032,72.22358030000032,72.22358030000032,72.22358030000032,72.22358030000032,72.22358030000032,72.22358030000032,,008,P012,2025_Feb_08_1236,ConditionRich,2021.2.3,59.90696448426143,
36.0,36.75,12,0.75,Stimuli/P012/sun_bcesifdfuidnkdhl.jpg,0,0,0.0,0,65,65,65,,,,,,,,,,,,,36.01374329999999,0.013743299999987357,None,72.4737808000009,72.4737808000009,72.4737808000009,72.4737808000009,72.4737808000009,72.4737808000009,72.4737808000009,72.4737808000009,72.4737808000009,72.4737808000009,,008,P012,2025_Feb_08_1236,ConditionRich,2021.2.3,59.90696448426143,
36.75,37.0,41,0.0,Stimuli/Blank.png,0,0,0.0,0,66,66,66,,,,,,,,,,,,,36.78059300000132,0.030593000001317705,None,73.22444790000009,73.22444790000009,73.22444790000009,73.22444790000009,73.22444790000009,73.22444790000009,73.22444790000009,73.22444790000009,73.22444790000009,73.22444790000009,,008,P012,2025_Feb_08_1236,ConditionRich,2021.2.3,59.90696448426143,
37.0,37.75,12,0.75,Stimuli/P012/sun_bcesifdfuidnkdhl.jpg,1,0,0.75,0,67,67,67,,,,,,,,,,,,,37.01358530000107,0.01358530000106839,2,73.45798800000011,73.45798800000011,73.45798800000011,73.45798800000011,73.45798800000011,73.45798800000011,73.45798800000011,74.19195040000159,73.45798800000011,73.45798800000011,0.37061139999968873,008,P012,2025_Feb_08_1236,ConditionRich,2021.2.3,59.90696448426143,
37.75,38.0,41,0.0,Stimuli/Blank.png,0,0,0.0,0,68,68,68,,,,,,,,,,,,,37.765072600001076,0.015072600001076353,None,74.20865310000045,74.20865310000045,74.20865310000045,74.20865310000045,74.20865310000045,74.20865310000045,74.20865310000045,74.20865310000045,74.20865310000045,74.20865310000045,,008,P012,2025_Feb_08_1236,ConditionRich,2021.2.3,59.90696448426143,
38.0,38.75,12,0.75,Stimuli/P012/sun_bcesifdfuidnkdhl.jpg,0,0,0.0,0,69,69,69,,,,,,,,,,,,,38.01452539999991,0.014525399999911315,None,74.45886990000145,74.45886990000145,74.45886990000145,74.45886990000145,74.45886990000145,74.45886990000145,74.45886990000145,74.45886990000145,74.45886990000145,74.45886990000145,,008,P012,2025_Feb_08_1236,ConditionRich,2021.2.3,59.90696448426143,
38.75,39.0,41,0.0,Stimuli/Blank.png,0,0,0.0,0,70,70,70,,,,,,,,,,,,,38.76565020000089,0.015650200000891346,None,75.20953520000148,75.20953520000148,75.20953520000148,75.20953520000148,75.20953520000148,75.20953520000148,75.20953520000148,75.20953520000148,75.20953520000148,75.20953520000148,,008,P012,2025_Feb_08_1236,ConditionRich,2021.2.3,59.90696448426143,
39.0,39.75,12,0.75,Stimuli/P012/sun_bcesifdfuidnkdhl.jpg,0,0,0.0,0,71,71,71,,,,,,,,,,,,,38.99923360000139,-0.0007663999986107228,None,75.45978150000155,75.45978150000155,75.45978150000155,75.45978150000155,75.45978150000155,75.45978150000155,75.45978150000155,75.45978150000155,75.45978150000155,75.45978150000155,,008,P012,2025_Feb_08_1236,ConditionRich,2021.2.3,59.90696448426143,
39.75,40.0,41,0.0,Stimuli/Blank.png,0,0,0.0,0,72,72,72,,,,,,,,,,,,,39.76619700000083,0.016197000000829576,None,76.21049820000007,76.21049820000007,76.21049820000007,76.21049820000007,76.21049820000007,76.21049820000007,76.21049820000007,76.21049820000007,76.21049820000007,76.21049820000007,,008,P012,2025_Feb_08_1236,ConditionRich,2021.2.3,59.90696448426143,
40.0,40.75,19,0.75,Stimuli/P012/sun_byvwakrdyukjigpc.jpg,0,0,0.0,0,73,73,73,,,,,,,,,,,,,40.00039300000026,0.0003930000002583256,None,76.44396830000005,76.44396830000005,76.44396830000005,76.44396830000005,76.44396830000005,76.44396830000005,76.44396830000005,76.44396830000005,76.44396830000005,76.44396830000005,,008,P012,2025_Feb_08_1236,ConditionRich,2021.2.3,59.90696448426143,
40.75,41.0,41,0.0,Stimuli/Blank.png,0,0,0.0,0,74,74,74,,,,,,,,,,,,,40.75062810000054,0.0006281000005401438,None,77.1946353000003,77.1946353000003,77.1946353000003,77.1946353000003,77.1946353000003,77.1946353000003,77.1946353000003,77.1946353000003,77.1946353000003,77.1946353000003,,008,P012,2025_Feb_08_1236,ConditionRich,2021.2.3,59.90696448426143,
41.0,41.75,19,0.75,Stimuli/P012/sun_byvwakrdyukjigpc.jpg,0,0,0.0,0,75,75,75,,,,,,,,,,,,,41.00077440000132,0.0007744000013190089,None,77.444856600001,77.444856600001,77.444856600001,77.444856600001,77.444856600001,77.444856600001,77.444856600001,77.444856600001,77.444856600001,77.444856600001,,008,P012,2025_Feb_08_1236,ConditionRich,2021.2.3,59.90696448426143,
41.75,42.0,41,0.0,Stimuli/Blank.png,0,0,0.0,0,76,76,76,,,,,,,,,,,,,41.75089410000146,0.0008941000014601741,None,78.19552870000007,78.19552870000007,78.19552870000007,78.19552870000007,78.19552870000007,78.19552870000007,78.19552870000007,78.19552870000007,78.19552870000007,78.19552870000007,,008,P012,2025_Feb_08_1236,ConditionRich,2021.2.3,59.90696448426143,
42.0,42.75,19,0.75,Stimuli/P012/sun_byvwakrdyukjigpc.jpg,0,0,0.0,0,77,77,77,,,,,,,,,,,,,42.00115200000073,0.0011520000007294584,None,78.44574360000115,78.44574360000115,78.44574360000115,78.44574360000115,78.44574360000115,78.44574360000115,78.44574360000115,78.44574360000115,78.44574360000115,78.44574360000115,,008,P012,2025_Feb_08_1236,ConditionRich,2021.2.3,59.90696448426143,
42.75,43.0,41,0.0,Stimuli/Blank.png,0,0,0.0,0,78,78,78,,,,,,,,,,,,,42.754146700001,0.004146700001001591,None,79.21308480000152,79.21308480000152,79.21308480000152,79.21308480000152,79.21308480000152,79.21308480000152,79.21308480000152,79.21308480000152,79.21308480000152,79.21308480000152,,008,P012,2025_Feb_08_1236,ConditionRich,2021.2.3,59.90696448426143,
43.0,43.75,19,0.75,Stimuli/P012/sun_byvwakrdyukjigpc.jpg,0,0,0.0,0,79,79,79,,,,,,,,,,,,,43.01981710000109,0.019817100001091603,None,79.47998330000155,79.47998330000155,79.47998330000155,79.47998330000155,79.47998330000155,79.47998330000155,79.47998330000155,79.47998330000155,79.47998330000155,79.47998330000155,,008,P012,2025_Feb_08_1236,ConditionRich,2021.2.3,59.90696448426143,
43.75,44.0,41,0.0,Stimuli/Blank.png,0,0,0.0,0,80,80,80,,,,,,,,,,,,,43.769500000000335,0.019500000000334694,None,80.21398500000032,80.21398500000032,80.21398500000032,80.21398500000032,80.21398500000032,80.21398500000032,80.21398500000032,80.21398500000032,80.21398500000032,80.21398500000032,,008,P012,2025_Feb_08_1236,ConditionRich,2021.2.3,59.90696448426143,
44.0,44.75,1,0.75,Stimuli/P012/sun_aeakbqnvptdnxtno.jpg,0,0,0.0,0,81,81,81,,,,,,,,,,,,,44.003055700000914,0.00305570000091393,None,80.44750820000081,80.44750820000081,80.44750820000081,80.44750820000081,80.44750820000081,80.44750820000081,80.44750820000081,80.44750820000081,80.44750820000081,80.44750820000081,,008,P012,2025_Feb_08_1236,ConditionRich,2021.2.3,59.90696448426143,
44.75,45.0,41,0.0,Stimuli/Blank.png,0,0,0.0,0,82,82,82,,,,,,,,,,,,,44.75457210000059,0.004572100000586943,None,81.19828130000133,81.19828130000133,81.19828130000133,81.19828130000133,81.19828130000133,81.19828130000133,81.19828130000133,81.19828130000133,81.19828130000133,81.19828130000133,,008,P012,2025_Feb_08_1236,ConditionRich,2021.2.3,59.90696448426143,
45.0,45.75,1,0.75,Stimuli/P012/sun_aeakbqnvptdnxtno.jpg,0,0,0.0,0,83,83,83,,,,,,,,,,,,,45.004763800001456,0.00476380000145582,None,81.44839970000066,81.44839970000066,81.44839970000066,81.44839970000066,81.44839970000066,81.44839970000066,81.44839970000066,81.44839970000066,81.44839970000066,81.44839970000066,,008,P012,2025_Feb_08_1236,ConditionRich,2021.2.3,59.90696448426143,
45.75,46.0,41,0.0,Stimuli/Blank.png,0,0,0.0,0,84,84,84,,,,,,,,,,,,,45.75459150000097,0.0045915000009699725,None,82.19906260000062,82.19906260000062,82.19906260000062,82.19906260000062,82.19906260000062,82.19906260000062,82.19906260000062,82.19906260000062,82.19906260000062,82.19906260000062,,008,P012,2025_Feb_08_1236,ConditionRich,2021.2.3,59.90696448426143,
46.0,46.75,1,0.75,Stimuli/P012/sun_aeakbqnvptdnxtno.jpg,0,0,0.0,0,85,85,85,,,,,,,,,,,,,46.00521410000147,0.005214100001467159,None,82.44928990000153,82.44928990000153,82.44928990000153,82.44928990000153,82.44928990000153,82.44928990000153,82.44928990000153,82.44928990000153,82.44928990000153,82.44928990000153,,008,P012,2025_Feb_08_1236,ConditionRich,2021.2.3,59.90696448426143,
46.75,47.0,41,0.0,Stimuli/Blank.png,0,0,0.0,0,86,86,86,,,,,,,,,,,,,46.756237800000235,0.006237800000235438,None,83.1999977000014,83.1999977000014,83.1999977000014,83.1999977000014,83.1999977000014,83.1999977000014,83.1999977000014,83.1999977000014,83.1999977000014,83.1999977000014,,008,P012,2025_Feb_08_1236,ConditionRich,2021.2.3,59.90696448426143,
47.0,47.75,1,0.75,Stimuli/P012/sun_aeakbqnvptdnxtno.jpg,0,0,0.0,0,87,87,87,,,,,,,,,,,,,47.00575740000022,0.005757400000220514,None,83.46685539999999,83.46685539999999,83.46685539999999,83.46685539999999,83.46685539999999,83.46685539999999,83.46685539999999,83.46685539999999,83.46685539999999,83.46685539999999,,008,P012,2025_Feb_08_1236,ConditionRich,2021.2.3,59.90696448426143,
47.75,48.0,41,0.0,Stimuli/Blank.png,0,0,0.0,0,88,88,88,,,,,,,,,,,,,47.77351030000136,0.02351030000136234,None,84.21750950000023,84.21750950000023,84.21750950000023,84.21750950000023,84.21750950000023,84.21750950000023,84.21750950000023,84.21750950000023,84.21750950000023,84.21750950000023,,008,P012,2025_Feb_08_1236,ConditionRich,2021.2.3,59.90696448426143,
48.0,48.75,37,0.75,Stimuli/P012/things_spam_06s.jpg,0,0,0.0,0,89,89,89,,,,,,,,,,,,,48.00705560000097,0.007055600000967388,None,84.46773209999992,84.46773209999992,84.46773209999992,84.46773209999992,84.46773209999992,84.46773209999992,84.46773209999992,84.46773209999992,84.46773209999992,84.46773209999992,,008,P012,2025_Feb_08_1236,ConditionRich,2021.2.3,59.90696448426143,
48.75,49.0,41,0.0,Stimuli/Blank.png,0,0,0.0,0,90,90,90,,,,,,,,,,,,,48.774613800000225,0.024613800000224728,None,85.21840260000135,85.21840260000135,85.21840260000135,85.21840260000135,85.21840260000135,85.21840260000135,85.21840260000135,85.21840260000135,85.21840260000135,85.21840260000135,,008,P012,2025_Feb_08_1236,ConditionRich,2021.2.3,59.90696448426143,
49.0,49.75,37,0.75,Stimuli/P012/things_spam_06s.jpg,1,0,0.75,0,91,91,91,,,,,,,,,,,,,49.01060150000012,0.010601500000120723,2,85.46861790000003,85.46861790000003,85.46861790000003,85.46861790000003,85.46861790000003,85.46861790000003,85.46861790000003,86.20259960000112,85.46861790000003,85.46861790000003,0.4078771999993478,008,P012,2025_Feb_08_1236,ConditionRich,2021.2.3,59.90696448426143,
49.75,50.0,41,0.0,Stimuli/Blank.png,0,0,0.0,0,92,92,92,,,,,,,,,,,,,49.77505010000095,0.025050100000953535,None,86.21928670000125,86.21928670000125,86.21928670000125,86.21928670000125,86.21928670000125,86.21928670000125,86.21928670000125,86.21928670000125,86.21928670000125,86.21928670000125,,008,P012,2025_Feb_08_1236,ConditionRich,2021.2.3,59.90696448426143,
50.0,50.75,37,0.75,Stimuli/P012/things_spam_06s.jpg,0,0,0.0,0,93,93,93,,,,,,,,,,,,,50.00873740000134,0.008737400001336937,None,86.45282290000068,86.45282290000068,86.45282290000068,86.45282290000068,86.45282290000068,86.45282290000068,86.45282290000068,86.45282290000068,86.45282290000068,86.45282290000068,,008,P012,2025_Feb_08_1236,ConditionRich,2021.2.3,59.90696448426143,
50.75,51.0,41,0.0,Stimuli/Blank.png,0,0,0.0,0,94,94,94,,,,,,,,,,,,,50.75964830000157,0.009648300001572352,None,87.20348689999992,87.20348689999992,87.20348689999992,87.20348689999992,87.20348689999992,87.20348689999992,87.20348689999992,87.20348689999992,87.20348689999992,87.20348689999992,,008,P012,2025_Feb_08_1236,ConditionRich,2021.2.3,59.90696448426143,
51.0,51.75,37,0.75,Stimuli/P012/things_spam_06s.jpg,0,0,0.0,0,95,95,95,,,,,,,,,,,,,51.01044890000048,0.010448900000483263,None,87.47036000000116,87.47036000000116,87.47036000000116,87.47036000000116,87.47036000000116,87.47036000000116,87.47036000000116,87.47036000000116,87.47036000000116,87.47036000000116,,008,P012,2025_Feb_08_1236,ConditionRich,2021.2.3,59.90696448426143,
51.75,52.0,41,0.0,Stimuli/Blank.png,0,0,0.0,0,96,96,96,,,,,,,,,,,,,51.7773459,0.027345900000000256,None,88.22105780000129,88.22105780000129,88.22105780000129,88.22105780000129,88.22105780000129,88.22105780000129,88.22105780000129,88.22105780000129,88.22105780000129,88.22105780000129,,008,P012,2025_Feb_08_1236,ConditionRich,2021.2.3,59.90696448426143,
52.0,52.75,38,0.75,Stimuli/P012/things_squeegee_06s.jpg,0,0,0.0,0,97,97,97,,,,,,,,,,,,,52.01008290000027,0.010082900000270456,None,88.45459420000043,88.45459420000043,88.45459420000043,88.45459420000043,88.45459420000043,88.45459420000043,88.45459420000043,88.45459420000043,88.45459420000043,88.45459420000043,,008,P012,2025_Feb_08_1236,ConditionRich,2021.2.3,59.90696448426143,
52.75,53.0,41,0.0,Stimuli/Blank.png,0,0,0.0,0,98,98,98,,,,,,,,,,,,,52.76155600000129,0.011556000001291977,None,89.20525000000089,89.20525000000089,89.20525000000089,89.20525000000089,89.20525000000089,89.20525000000089,89.20525000000089,89.20525000000089,89.20525000000089,89.20525000000089,,008,P012,2025_Feb_08_1236,ConditionRich,2021.2.3,59.90696448426143,
53.0,53.75,38,0.75,Stimuli/P012/things_squeegee_06s.jpg,0,0,0.0,0,99,99,99,,,,,,,,,,,,,53.011459000001196,0.011459000001195818,None,89.47216890000163,89.47216890000163,89.47216890000163,89.47216890000163,89.47216890000163,89.47216890000163,89.47216890000163,89.47216890000163,89.47216890000163,89.47216890000163,,008,P012,2025_Feb_08_1236,ConditionRich,2021.2.3,59.90696448426143,
53.75,54.0,41,0.0,Stimuli/Blank.png,0,0,0.0,0,100,100,100,,,,,,,,,,,,,53.77827130000151,0.02827130000150646,None,90.22282480000104,90.22282480000104,90.22282480000104,90.22282480000104,90.22282480000104,90.22282480000104,90.22282480000104,90.22282480000104,90.22282480000104,90.22282480000104,,008,P012,2025_Feb_08_1236,ConditionRich,2021.2.3,59.90696448426143,
54.0,54.75,38,0.75,Stimuli/P012/things_squeegee_06s.jpg,0,0,0.0,0,101,101,101,,,,,,,,,,,,,54.01406670000142,0.01406670000142185,None,90.47305640000013,90.47305640000013,90.47305640000013,90.47305640000013,90.47305640000013,90.47305640000013,90.47305640000013,90.47305640000013,90.47305640000013,90.47305640000013,,008,P012,2025_Feb_08_1236,ConditionRich,2021.2.3,59.90696448426143,
54.75,55.0,41,0.0,Stimuli/Blank.png,0,0,0.0,0,102,102,102,,,,,,,,,,,,,54.77983740000127,0.029837400001269998,None,91.22371110000131,91.22371110000131,91.22371110000131,91.22371110000131,91.22371110000131,91.22371110000131,91.22371110000131,91.22371110000131,91.22371110000131,91.22371110000131,,008,P012,2025_Feb_08_1236,ConditionRich,2021.2.3,59.90696448426143,
55.0,55.75,38,0.75,Stimuli/P012/things_squeegee_06s.jpg,0,0,0.0,0,103,103,103,,,,,,,,,,,,,55.014254300000175,0.014254300000175135,None,91.47478190000038,91.47478190000038,91.47478190000038,91.47478190000038,91.47478190000038,91.47478190000038,91.47478190000038,91.47478190000038,91.47478190000038,91.47478190000038,,008,P012,2025_Feb_08_1236,ConditionRich,2021.2.3,59.90696448426143,
55.75,56.0,41,0.0,Stimuli/Blank.png,0,0,0.0,0,104,104,104,,,,,,,,,,,,,55.78013749999991,0.030137499999909778,None,92.22458950000146,92.22458950000146,92.22458950000146,92.22458950000146,92.22458950000146,92.22458950000146,92.22458950000146,92.22458950000146,92.22458950000146,92.22458950000146,,008,P012,2025_Feb_08_1236,ConditionRich,2021.2.3,59.90696448426143,
56.0,56.75,7,0.75,Stimuli/P012/sun_arugqgwhwdjxezyt.jpg,0,0,0.0,0,105,105,105,,,,,,,,,,,,,56.01449070000126,0.014490700001260848,None,92.4748227,92.4748227,92.4748227,92.4748227,92.4748227,92.4748227,92.4748227,92.4748227,92.4748227,92.4748227,,008,P012,2025_Feb_08_1236,ConditionRich,2021.2.3,59.90696448426143,
56.75,57.0,41,0.0,Stimuli/Blank.png,0,0,0.0,0,106,106,106,,,,,,,,,,,,,56.78162030000021,0.03162030000021332,None,93.2254791000014,93.2254791000014,93.2254791000014,93.2254791000014,93.2254791000014,93.2254791000014,93.2254791000014,93.2254791000014,93.2254791000014,93.2254791000014,,008,P012,2025_Feb_08_1236,ConditionRich,2021.2.3,59.90696448426143,
57.0,57.75,7,0.75,Stimuli/P012/sun_arugqgwhwdjxezyt.jpg,0,0,0.0,0,107,107,107,,,,,,,,,,,,,57.015182000001005,0.01518200000100478,None,93.45902150000074,93.45902150000074,93.45902150000074,93.45902150000074,93.45902150000074,93.45902150000074,93.45902150000074,93.45902150000074,93.45902150000074,93.45902150000074,,008,P012,2025_Feb_08_1236,ConditionRich,2021.2.3,59.90696448426143,
57.75,58.0,41,0.0,Stimuli/Blank.png,0,0,0.0,0,108,108,108,,,,,,,,,,,,,57.7485955000011,-0.0014044999988982454,None,94.193009300001,94.193009300001,94.193009300001,94.193009300001,94.193009300001,94.193009300001,94.193009300001,94.193009300001,94.193009300001,94.193009300001,,008,P012,2025_Feb_08_1236,ConditionRich,2021.2.3,59.90696448426143,
58.0,58.75,7,0.75,Stimuli/P012/sun_arugqgwhwdjxezyt.jpg,0,0,0.0,0,109,109,109,,,,,,,,,,,,,58.01544450000074,0.015444500000739936,None,94.45991160000085,94.45991160000085,94.45991160000085,94.45991160000085,94.45991160000085,94.45991160000085,94.45991160000085,94.45991160000085,94.45991160000085,94.45991160000085,,008,P012,2025_Feb_08_1236,ConditionRich,2021.2.3,59.90696448426143,
58.75,59.0,41,0.0,Stimuli/Blank.png,0,0,0.0,0,110,110,110,,,,,,,,,,,,,58.74990930000058,-9.069999941857532e-05,None,95.19389740000042,95.19389740000042,95.19389740000042,95.19389740000042,95.19389740000042,95.19389740000042,95.19389740000042,95.19389740000042,95.19389740000042,95.19389740000042,,008,P012,2025_Feb_08_1236,ConditionRich,2021.2.3,59.90696448426143,
59.0,59.75,7,0.75,Stimuli/P012/sun_arugqgwhwdjxezyt.jpg,0,0,0.0,0,111,111,111,,,,,,,,,,,,,59.00055900000007,0.0005590000000665896,None,95.46082670000033,95.46082670000033,95.46082670000033,95.46082670000033,95.46082670000033,95.46082670000033,95.46082670000033,95.46082670000033,95.46082670000033,95.46082670000033,,008,P012,2025_Feb_08_1236,ConditionRich,2021.2.3,59.90696448426143,
59.75,60.0,41,0.0,Stimuli/Blank.png,0,0,0.0,0,112,112,112,,,,,,,,,,,,,59.76842949999991,0.01842949999991106,None,96.21146900000167,96.21146900000167,96.21146900000167,96.21146900000167,96.21146900000167,96.21146900000167,96.21146900000167,96.21146900000167,96.21146900000167,96.21146900000167,,008,P012,2025_Feb_08_1236,ConditionRich,2021.2.3,59.90696448426143,
60.0,60.75,35,0.75,Stimuli/P012/things_raccoon_06n.jpg,1,0,0.75,0,113,113,113,,,,,,,,,,,,,60.001608900000065,0.0016089000000647502,2,96.46168900000157,96.46168900000157,96.46168900000157,96.46168900000157,96.46168900000157,96.46168900000157,96.46168900000157,97.17902050000157,96.46168900000157,96.46168900000157,0.4867147999993904,008,P012,2025_Feb_08_1236,ConditionRich,2021.2.3,59.90696448426143,
60.75,61.0,41,0.0,Stimuli/Blank.png,0,0,0.0,0,114,114,114,,,,,,,,,,,,,60.76954790000127,0.019547900001271046,None,97.21234350000123,97.21234350000123,97.21234350000123,97.21234350000123,97.21234350000123,97.21234350000123,97.21234350000123,97.21234350000123,97.21234350000123,97.21234350000123,,008,P012,2025_Feb_08_1236,ConditionRich,2021.2.3,59.90696448426143,
61.0,61.75,35,0.75,Stimuli/P012/things_raccoon_06n.jpg,0,0,0.0,0,115,115,115,,,,,,,,,,,,,61.004393600000185,0.004393600000184961,None,97.46256760000142,97.46256760000142,97.46256760000142,97.46256760000142,97.46256760000142,97.46256760000142,97.46256760000142,97.46256760000142,97.46256760000142,97.46256760000142,,008,P012,2025_Feb_08_1236,ConditionRich,2021.2.3,59.90696448426143,
61.75,62.0,41,0.0,Stimuli/Blank.png,0,0,0.0,0,116,116,116,,,,,,,,,,,,,61.7699031000011,0.019903100001101848,None,98.21323220000158,98.21323220000158,98.21323220000158,98.21323220000158,98.21323220000158,98.21323220000158,98.21323220000158,98.21323220000158,98.21323220000158,98.21323220000158,,008,P012,2025_Feb_08_1236,ConditionRich,2021.2.3,59.90696448426143,
62.0,62.75,35,0.75,Stimuli/P012/things_raccoon_06n.jpg,0,0,0.0,0,117,117,117,,,,,,,,,,,,,62.003126800000246,0.0031268000002455665,None,98.44676830000026,98.44676830000026,98.44676830000026,98.44676830000026,98.44676830000026,98.44676830000026,98.44676830000026,98.44676830000026,98.44676830000026,98.44676830000026,,008,P012,2025_Feb_08_1236,ConditionRich,2021.2.3,59.90696448426143,
62.75,63.0,41,0.0,Stimuli/Blank.png,0,0,0.0,0,118,118,118,,,,,,,,,,,,,62.75474120000035,0.004741200000353274,None,99.19743910000034,99.19743910000034,99.19743910000034,99.19743910000034,99.19743910000034,99.19743910000034,99.19743910000034,99.19743910000034,99.19743910000034,99.19743910000034,,008,P012,2025_Feb_08_1236,ConditionRich,2021.2.3,59.90696448426143,
63.0,63.75,35,0.75,Stimuli/P012/things_raccoon_06n.jpg,0,0,0.0,0,119,119,119,,,,,,,,,,,,,63.004505200000494,0.004505200000494369,None,99.46435080000083,99.46435080000083,99.46435080000083,99.46435080000083,99.46435080000083,99.46435080000083,99.46435080000083,99.46435080000083,99.46435080000083,99.46435080000083,,008,P012,2025_Feb_08_1236,ConditionRich,2021.2.3,59.90696448426143,
63.75,64.0,41,0.0,Stimuli/Blank.png,0,0,0.0,0,120,120,120,,,,,,,,,,,,,63.77133180000055,0.021331800000552903,None,100.21501830000125,100.21501830000125,100.21501830000125,100.21501830000125,100.21501830000125,100.21501830000125,100.21501830000125,100.21501830000125,100.21501830000125,100.21501830000125,,008,P012,2025_Feb_08_1236,ConditionRich,2021.2.3,59.90696448426143,
64.0,64.75,5,0.75,Stimuli/P012/sun_anfwllcezhlypoti.jpg,0,0,0.0,0,121,121,121,,,,,,,,,,,,,64.00429410000106,0.004294100001061452,None,100.44854280000072,100.44854280000072,100.44854280000072,100.44854280000072,100.44854280000072,100.44854280000072,100.44854280000072,100.44854280000072,100.44854280000072,100.44854280000072,,008,P012,2025_Feb_08_1236,ConditionRich,2021.2.3,59.90696448426143,
64.75,65.0,41,0.0,Stimuli/Blank.png,0,0,0.0,0,122,122,122,,,,,,,,,,,,,64.75591650000024,0.005916500000239466,None,101.19936700000108,101.19936700000108,101.19936700000108,101.19936700000108,101.19936700000108,101.19936700000108,101.19936700000108,101.19936700000108,101.19936700000108,101.19936700000108,,008,P012,2025_Feb_08_1236,ConditionRich,2021.2.3,59.90696448426143,
65.0,65.75,5,0.75,Stimuli/P012/sun_anfwllcezhlypoti.jpg,0,0,0.0,0,123,123,123,,,,,,,,,,,,,65.00582000000031,0.005820000000312575,None,101.44942330000049,101.44942330000049,101.44942330000049,101.44942330000049,101.44942330000049,101.44942330000049,101.44942330000049,101.44942330000049,101.44942330000049,101.44942330000049,,008,P012,2025_Feb_08_1236,ConditionRich,2021.2.3,59.90696448426143,
65.75,66.0,41,0.0,Stimuli/Blank.png,0,0,0.0,0,124,124,124,,,,,,,,,,,,,65.75569950000136,0.005699500001355773,None,102.2000893000004,102.2000893000004,102.2000893000004,102.2000893000004,102.2000893000004,102.2000893000004,102.2000893000004,102.2000893000004,102.2000893000004,102.2000893000004,,008,P012,2025_Feb_08_1236,ConditionRich,2021.2.3,59.90696448426143,
66.0,66.75,5,0.75,Stimuli/P012/sun_anfwllcezhlypoti.jpg,0,0,0.0,0,125,125,125,,,,,,,,,,,,,66.00655499999993,0.006554999999934807,None,102.46700070000043,102.46700070000043,102.46700070000043,102.46700070000043,102.46700070000043,102.46700070000043,102.46700070000043,102.46700070000043,102.46700070000043,102.46700070000043,,008,P012,2025_Feb_08_1236,ConditionRich,2021.2.3,59.90696448426143,
66.75,67.0,41,0.0,Stimuli/Blank.png,0,0,0.0,0,126,126,126,,,,,,,,,,,,,66.77384700000039,0.023847000000387197,None,103.2176625000011,103.2176625000011,103.2176625000011,103.2176625000011,103.2176625000011,103.2176625000011,103.2176625000011,103.2176625000011,103.2176625000011,103.2176625000011,,008,P012,2025_Feb_08_1236,ConditionRich,2021.2.3,59.90696448426143,
67.0,67.75,5,0.75,Stimuli/P012/sun_anfwllcezhlypoti.jpg,0,0,0.0,0,127,127,127,,,,,,,,,,,,,67.00891570000022,0.00891570000021602,None,103.46787880000011,103.46787880000011,103.46787880000011,103.46787880000011,103.46787880000011,103.46787880000011,103.46787880000011,103.46787880000011,103.46787880000011,103.46787880000011,,008,P012,2025_Feb_08_1236,ConditionRich,2021.2.3,59.90696448426143,
67.75,68.0,41,0.0,Stimuli/Blank.png,0,0,0.0,0,128,128,128,,,,,,,,,,,,,67.77476060000117,0.02476060000117286,None,104.2185440000012,104.2185440000012,104.2185440000012,104.2185440000012,104.2185440000012,104.2185440000012,104.2185440000012,104.2185440000012,104.2185440000012,104.2185440000012,,008,P012,2025_Feb_08_1236,ConditionRich,2021.2.3,59.90696448426143,
68.0,68.75,16,0.75,Stimuli/P012/sun_bpuwvyadswjfoaby.jpg,0,0,0.0,0,129,129,129,,,,,,,,,,,,,68.00964790000035,0.009647900000345544,None,104.46876310000152,104.46876310000152,104.46876310000152,104.46876310000152,104.46876310000152,104.46876310000152,104.46876310000152,104.46876310000152,104.46876310000152,104.46876310000152,,008,P012,2025_Feb_08_1236,ConditionRich,2021.2.3,59.90696448426143,
68.75,69.0,41,0.0,Stimuli/Blank.png,0,0,0.0,0,130,130,130,,,,,,,,,,,,,68.77588810000088,0.02588810000088415,None,105.21943360000114,105.21943360000114,105.21943360000114,105.21943360000114,105.21943360000114,105.21943360000114,105.21943360000114,105.21943360000114,105.21943360000114,105.21943360000114,,008,P012,2025_Feb_08_1236,ConditionRich,2021.2.3,59.90696448426143,
69.0,69.75,16,0.75,Stimuli/P012/sun_bpuwvyadswjfoaby.jpg,0,0,0.0,0,131,131,131,,,,,,,,,,,,,69.00834910000049,0.008349100000486942,None,105.45296680000138,105.45296680000138,105.45296680000138,105.45296680000138,105.45296680000138,105.45296680000138,105.45296680000138,105.45296680000138,105.45296680000138,105.45296680000138,,008,P012,2025_Feb_08_1236,ConditionRich,2021.2.3,59.90696448426143,
69.75,70.0,41,0.0,Stimuli/Blank.png,0,0,0.0,0,132,132,132,,,,,,,,,,,,,69.75991720000093,0.00991720000092755,None,106.20363189999989,106.20363189999989,106.20363189999989,106.20363189999989,106.20363189999989,106.20363189999989,106.20363189999989,106.20363189999989,106.20363189999989,106.20363189999989,,008,P012,2025_Feb_08_1236,ConditionRich,2021.2.3,59.90696448426143,
70.0,70.75,16,0.75,Stimuli/P012/sun_bpuwvyadswjfoaby.jpg,0,0,0.0,0,133,133,133,,,,,,,,,,,,,70.00938850000057,0.009388500000568456,None,106.45384900000136,106.45384900000136,106.45384900000136,106.45384900000136,106.45384900000136,106.45384900000136,106.45384900000136,106.45384900000136,106.45384900000136,106.45384900000136,,008,P012,2025_Feb_08_1236,ConditionRich,2021.2.3,59.90696448426143,
70.75,71.0,41,0.0,Stimuli/Blank.png,0,0,0.0,0,134,134,134,,,,,,,,,,,,,70.76013650000095,0.010136500000953674,None,107.20451760000105,107.20451760000105,107.20451760000105,107.20451760000105,107.20451760000105,107.20451760000105,107.20451760000105,107.20451760000105,107.20451760000105,107.20451760000105,,008,P012,2025_Feb_08_1236,ConditionRich,2021.2.3,59.90696448426143,
71.0,71.75,16,0.75,Stimuli/P012/sun_bpuwvyadswjfoaby.jpg,0,0,0.0,0,135,135,135,,,,,,,,,,,,,71.01034740000068,0.010347400000682683,None,107.45474040000045,107.45474040000045,107.45474040000045,107.45474040000045,107.45474040000045,107.45474040000045,107.45474040000045,107.45474040000045,107.45474040000045,107.45474040000045,,008,P012,2025_Feb_08_1236,ConditionRich,2021.2.3,59.90696448426143,
71.75,72.0,41,0.0,Stimuli/Blank.png,0,0,0.0,0,136,136,136,,,,,,,,,,,,,71.76120100000117,0.011201000001165085,None,108.2054132000012,108.2054132000012,108.2054132000012,108.2054132000012,108.2054132000012,108.2054132000012,108.2054132000012,108.2054132000012,108.2054132000012,108.2054132000012,,008,P012,2025_Feb_08_1236,ConditionRich,2021.2.3,59.90696448426143,
72.0,72.75,25,0.75,Stimuli/P012/things_face_06s.jpg,0,0,0.0,0,137,137,137,,,,,,,,,,,,,72.01260850000108,0.012608500001078937,None,108.47230500000114,108.47230500000114,108.47230500000114,108.47230500000114,108.47230500000114,108.47230500000114,108.47230500000114,108.47230500000114,108.47230500000114,108.47230500000114,,008,P012,2025_Feb_08_1236,ConditionRich,2021.2.3,59.90696448426143,
72.75,73.0,41,0.0,Stimuli/Blank.png,0,0,0.0,0,138,138,138,,,,,,,,,,,,,72.77988300000106,0.02988300000106392,None,109.22298130000127,109.22298130000127,109.22298130000127,109.22298130000127,109.22298130000127,109.22298130000127,109.22298130000127,109.22298130000127,109.22298130000127,109.22298130000127,,008,P012,2025_Feb_08_1236,ConditionRich,2021.2.3,59.90696448426143,
73.0,73.75,25,0.75,Stimuli/P012/things_face_06s.jpg,0,0,0.0,0,139,139,139,,,,,,,,,,,,,73.01431120000052,0.01431120000052033,None,109.47319560000142,109.47319560000142,109.47319560000142,109.47319560000142,109.47319560000142,109.47319560000142,109.47319560000142,109.47319560000142,109.47319560000142,109.47319560000142,,008,P012,2025_Feb_08_1236,ConditionRich,2021.2.3,59.90696448426143,
73.75,74.0,41,0.0,Stimuli/Blank.png,0,0,0.0,0,140,140,140,,,,,,,,,,,,,73.78134040000077,0.031340400000772206,None,110.22387049999998,110.22387049999998,110.22387049999998,110.22387049999998,110.22387049999998,110.22387049999998,110.22387049999998,110.22387049999998,110.22387049999998,110.22387049999998,,008,P012,2025_Feb_08_1236,ConditionRich,2021.2.3,59.90696448426143,
74.0,74.75,25,0.75,Stimuli/P012/things_face_06s.jpg,0,0,0.0,0,141,141,141,,,,,,,,,,,,,74.01453350000156,0.01453350000156206,None,110.47409300000072,110.47409300000072,110.47409300000072,110.47409300000072,110.47409300000072,110.47409300000072,110.47409300000072,110.47409300000072,110.47409300000072,110.47409300000072,,008,P012,2025_Feb_08_1236,ConditionRich,2021.2.3,59.90696448426143,
74.75,75.0,41,0.0,Stimuli/Blank.png,0,0,0.0,0,142,142,142,,,,,,,,,,,,,74.7803909000013,0.03039090000129363,None,111.22473900000114,111.22473900000114,111.22473900000114,111.22473900000114,111.22473900000114,111.22473900000114,111.22473900000114,111.22473900000114,111.22473900000114,111.22473900000114,,008,P012,2025_Feb_08_1236,ConditionRich,2021.2.3,59.90696448426143,
75.0,75.75,25,0.75,Stimuli/P012/things_face_06s.jpg,0,0,0.0,0,143,143,143,,,,,,,,,,,,,75.014483500001,0.014483500001006178,None,111.45827950000057,111.45827950000057,111.45827950000057,111.45827950000057,111.45827950000057,111.45827950000057,111.45827950000057,111.45827950000057,111.45827950000057,111.45827950000057,,008,P012,2025_Feb_08_1236,ConditionRich,2021.2.3,59.90696448426143,
75.75,76.0,41,0.0,Stimuli/Blank.png,0,0,0.0,0,144,144,144,,,,,,,,,,,,,75.76481220000096,0.014812200000960729,None,112.20894600000065,112.20894600000065,112.20894600000065,112.20894600000065,112.20894600000065,112.20894600000065,112.20894600000065,112.20894600000065,112.20894600000065,112.20894600000065,,008,P012,2025_Feb_08_1236,ConditionRich,2021.2.3,59.90696448426143,
76.0,76.75,6,0.75,Stimuli/P012/sun_aqysdudvyxnkcxgq.jpg,0,0,0.0,0,145,145,145,,,,,,,,,,,,,76.0148706,0.014870599999994738,None,112.45916220000072,112.45916220000072,112.45916220000072,112.45916220000072,112.45916220000072,112.45916220000072,112.45916220000072,112.45916220000072,112.45916220000072,112.45916220000072,,008,P012,2025_Feb_08_1236,ConditionRich,2021.2.3,59.90696448426143,
76.75,77.0,41,0.0,Stimuli/Blank.png,0,0,0.0,0,146,146,146,,,,,,,,,,,,,76.76600950000102,0.01600950000101875,None,113.20983150000029,113.20983150000029,113.20983150000029,113.20983150000029,113.20983150000029,113.20983150000029,113.20983150000029,113.20983150000029,113.20983150000029,113.20983150000029,,008,P012,2025_Feb_08_1236,ConditionRich,2021.2.3,59.90696448426143,
77.0,77.75,6,0.75,Stimuli/P012/sun_aqysdudvyxnkcxgq.jpg,0,0,0.0,0,147,147,147,,,,,,,,,,,,,76.99990880000041,-9.11999995878432e-05,None,113.44338300000163,113.44338300000163,113.44338300000163,113.44338300000163,113.44338300000163,113.44338300000163,113.44338300000163,113.44338300000163,113.44338300000163,113.44338300000163,,008,P012,2025_Feb_08_1236,ConditionRich,2021.2.3,59.90696448426143,
77.75,78.0,41,0.0,Stimuli/Blank.png,0,0,0.0,0,148,148,148,,,,,,,,,,,,,77.75022680000075,0.00022680000074615236,None,114.19403229999989,114.19403229999989,114.19403229999989,114.19403229999989,114.19403229999989,114.19403229999989,114.19403229999989,114.19403229999989,114.19403229999989,114.19403229999989,,008,P012,2025_Feb_08_1236,ConditionRich,2021.2.3,59.90696448426143,
78.0,78.75,6,0.75,Stimuli/P012/sun_aqysdudvyxnkcxgq.jpg,0,0,0.0,0,149,149,149,,,,,,,,,,,,,78.00041820000115,0.00041820000114967115,None,114.44425840000076,114.44425840000076,114.44425840000076,114.44425840000076,114.44425840000076,114.44425840000076,114.44425840000076,114.44425840000076,114.44425840000076,114.44425840000076,,008,P012,2025_Feb_08_1236,ConditionRich,2021.2.3,59.90696448426143,
78.75,79.0,41,0.0,Stimuli/Blank.png,0,0,0.0,0,150,150,150,,,,,,,,,,,,,78.75156779999998,0.00156779999997525,None,115.19492160000118,115.19492160000118,115.19492160000118,115.19492160000118,115.19492160000118,115.19492160000118,115.19492160000118,115.19492160000118,115.19492160000118,115.19492160000118,,008,P012,2025_Feb_08_1236,ConditionRich,2021.2.3,59.90696448426143,
79.0,79.75,6,0.75,Stimuli/P012/sun_aqysdudvyxnkcxgq.jpg,0,0,0.0,0,151,151,151,,,,,,,,,,,,,79.00155240000095,0.0015524000009463634,None,115.4618242000015,115.4618242000015,115.4618242000015,115.4618242000015,115.4618242000015,115.4618242000015,115.4618242000015,115.4618242000015,115.4618242000015,115.4618242000015,,008,P012,2025_Feb_08_1236,ConditionRich,2021.2.3,59.90696448426143,
79.75,80.0,41,0.0,Stimuli/Blank.png,0,0,0.0,0,152,152,152,,,,,,,,,,,,,79.76935990000129,0.019359900001290953,None,116.21249820000048,116.21249820000048,116.21249820000048,116.21249820000048,116.21249820000048,116.21249820000048,116.21249820000048,116.21249820000048,116.21249820000048,116.21249820000048,,008,P012,2025_Feb_08_1236,ConditionRich,2021.2.3,59.90696448426143,
80.0,80.75,28,0.75,Stimuli/P012/things_grasshopper_06s.jpg,0,0,0.0,0,153,153,153,,,,,,,,,,,,,80.00167350000083,0.001673500000833883,None,116.44603630000165,116.44603630000165,116.44603630000165,116.44603630000165,116.44603630000165,116.44603630000165,116.44603630000165,116.44603630000165,116.44603630000165,116.44603630000165,,008,P012,2025_Feb_08_1236,ConditionRich,2021.2.3,59.90696448426143,
80.75,81.0,41,0.0,Stimuli/Blank.png,0,0,0.0,0,154,154,154,,,,,,,,,,,,,80.7534985000002,0.00349850000020524,None,117.19669969999995,117.19669969999995,117.19669969999995,117.19669969999995,117.19669969999995,117.19669969999995,117.19669969999995,117.19669969999995,117.19669969999995,117.19669969999995,,008,P012,2025_Feb_08_1236,ConditionRich,2021.2.3,59.90696448426143,
81.0,81.75,28,0.75,Stimuli/P012/things_grasshopper_06s.jpg,0,0,0.0,0,155,155,155,,,,,,,,,,,,,81.00529590000042,0.005295900000419351,None,117.46361050000087,117.46361050000087,117.46361050000087,117.46361050000087,117.46361050000087,117.46361050000087,117.46361050000087,117.46361050000087,117.46361050000087,117.46361050000087,,008,P012,2025_Feb_08_1236,ConditionRich,2021.2.3,59.90696448426143,
81.75,82.0,41,0.0,Stimuli/Blank.png,0,0,0.0,0,156,156,156,,,,,,,,,,,,,81.77055410000139,0.020554100001390907,None,118.2142582000015,118.2142582000015,118.2142582000015,118.2142582000015,118.2142582000015,118.2142582000015,118.2142582000015,118.2142582000015,118.2142582000015,118.2142582000015,,008,P012,2025_Feb_08_1236,ConditionRich,2021.2.3,59.90696448426143,
82.0,82.75,28,0.75,Stimuli/P012/things_grasshopper_06s.jpg,1,0,0.75,0,157,157,157,,,,,,,,,,,,,82.00359710000157,0.0035971000015706522,2,118.44781289999992,118.44781289999992,118.44781289999992,118.44781289999992,118.44781289999992,118.44781289999992,118.44781289999992,119.18180650000068,118.44781289999992,118.44781289999992,0.38958420000017213,008,P012,2025_Feb_08_1236,ConditionRich,2021.2.3,59.90696448426143,
82.75,83.0,41,0.0,Stimuli/Blank.png,0,0,0.0,0,158,158,158,,,,,,,,,,,,,82.75511499999993,0.005114999999932479,None,119.19846970000071,119.19846970000071,119.19846970000071,119.19846970000071,119.19846970000071,119.19846970000071,119.19846970000071,119.19846970000071,119.19846970000071,119.19846970000071,,008,P012,2025_Feb_08_1236,ConditionRich,2021.2.3,59.90696448426143,
83.0,83.75,28,0.75,Stimuli/P012/things_grasshopper_06s.jpg,0,0,0.0,0,159,159,159,,,,,,,,,,,,,83.00483850000091,0.004838500000914792,None,119.46542350000163,119.46542350000163,119.46542350000163,119.46542350000163,119.46542350000163,119.46542350000163,119.46542350000163,119.46542350000163,119.46542350000163,119.46542350000163,,008,P012,2025_Feb_08_1236,ConditionRich,2021.2.3,59.90696448426143,
83.75,84.0,41,0.0,Stimuli/Blank.png,0,0,0.0,0,160,160,160,,,,,,,,,,,,,83.77238450000004,0.022384500000043772,None,120.21604020000086,120.21604020000086,120.21604020000086,120.21604020000086,120.21604020000086,120.21604020000086,120.21604020000086,120.21604020000086,120.21604020000086,120.21604020000086,,008,P012,2025_Feb_08_1236,ConditionRich,2021.2.3,59.90696448426143,
84.0,100.0,0,0.0,Stimuli/Blank.png,1,9,9.75,0,161,161,161,,,,,,,,,,,,,84.00528030000169,0.005280300001686555,None,120.44956140000068,120.44956140000068,120.44956140000068,120.44956140000068,120.44956140000068,120.44956140000068,129.44089730000087,130.17496690000007,120.44956140000068,120.44956140000068,,008,P012,2025_Feb_08_1236,ConditionRich,2021.2.3,59.90696448426143,
100.0,100.75,23,0.75,Stimuli/P012/things_clove_06s.jpg,0,0,0.0,0,162,162,162,,,,,,,,,,,,,100.00344530000075,0.00344530000074883,None,136.44702660000075,136.44702660000075,136.44702660000075,136.44702660000075,136.44702660000075,136.44702660000075,136.44702660000075,136.44702660000075,136.44702660000075,136.44702660000075,,008,P012,2025_Feb_08_1236,ConditionRich,2021.2.3,59.90696448426143,
100.75,101.0,41,0.0,Stimuli/Blank.png,0,0,0.0,0,163,163,163,,,,,,,,,,,,,100.754523900001,0.004523900001004222,None,137.197715100001,137.197715100001,137.197715100001,137.197715100001,137.197715100001,137.197715100001,137.197715100001,137.197715100001,137.197715100001,137.197715100001,,008,P012,2025_Feb_08_1236,ConditionRich,2021.2.3,59.90696448426143,
101.0,101.75,23,0.75,Stimuli/P012/things_clove_06s.jpg,0,0,0.0,0,164,164,164,,,,,,,,,,,,,101.00440730000082,0.004407300000821124,None,137.46470640000007,137.46470640000007,137.46470640000007,137.46470640000007,137.46470640000007,137.46470640000007,137.46470640000007,137.46470640000007,137.46470640000007,137.46470640000007,,008,P012,2025_Feb_08_1236,ConditionRich,2021.2.3,59.90696448426143,
101.75,102.0,41,0.0,Stimuli/Blank.png,0,0,0.0,0,165,165,165,,,,,,,,,,,,,101.77156560000003,0.021565600000030827,None,138.21529360000022,138.21529360000022,138.21529360000022,138.21529360000022,138.21529360000022,138.21529360000022,138.21529360000022,138.21529360000022,138.21529360000022,138.21529360000022,,008,P012,2025_Feb_08_1236,ConditionRich,2021.2.3,59.90696448426143,
102.0,102.75,23,0.75,Stimuli/P012/things_clove_06s.jpg,0,0,0.0,0,166,166,166,,,,,,,,,,,,,102.00444010000137,0.004440100001374958,None,138.44882470000084,138.44882470000084,138.44882470000084,138.44882470000084,138.44882470000084,138.44882470000084,138.44882470000084,138.44882470000084,138.44882470000084,138.44882470000084,,008,P012,2025_Feb_08_1236,ConditionRich,2021.2.3,59.90696448426143,
102.75,103.0,41,0.0,Stimuli/Blank.png,0,0,0.0,0,167,167,167,,,,,,,,,,,,,102.75501480000094,0.005014800000935793,None,139.19948990000012,139.19948990000012,139.19948990000012,139.19948990000012,139.19948990000012,139.19948990000012,139.19948990000012,139.19948990000012,139.19948990000012,139.19948990000012,,008,P012,2025_Feb_08_1236,ConditionRich,2021.2.3,59.90696448426143,
103.0,103.75,23,0.75,Stimuli/P012/things_clove_06s.jpg,0,0,0.0,0,168,168,168,,,,,,,,,,,,,103.00519050000003,0.005190500000026077,None,139.44971710000027,139.44971710000027,139.44971710000027,139.44971710000027,139.44971710000027,139.44971710000027,139.44971710000027,139.44971710000027,139.44971710000027,139.44971710000027,,008,P012,2025_Feb_08_1236,ConditionRich,2021.2.3,59.90696448426143,
103.75,104.0,41,0.0,Stimuli/Blank.png,0,0,0.0,0,169,169,169,,,,,,,,,,,,,103.75624680000146,0.006246800001463271,None,140.20039170000018,140.20039170000018,140.20039170000018,140.20039170000018,140.20039170000018,140.20039170000018,140.20039170000018,140.20039170000018,140.20039170000018,140.20039170000018,,008,P012,2025_Feb_08_1236,ConditionRich,2021.2.3,59.90696448426143,
104.0,104.75,18,0.75,Stimuli/P012/sun_bxlbxustiovyqyrg.jpg,0,0,0.0,0,170,170,170,,,,,,,,,,,,,104.00597930000004,0.005979300000035437,None,140.4672892000017,140.4672892000017,140.4672892000017,140.4672892000017,140.4672892000017,140.4672892000017,140.4672892000017,140.4672892000017,140.4672892000017,140.4672892000017,,008,P012,2025_Feb_08_1236,ConditionRich,2021.2.3,59.90696448426143,
104.75,105.0,41,0.0,Stimuli/Blank.png,0,0,0.0,0,171,171,171,,,,,,,,,,,,,104.7740947000002,0.024094700000205194,None,141.21795060000113,141.21795060000113,141.21795060000113,141.21795060000113,141.21795060000113,141.21795060000113,141.21795060000113,141.21795060000113,141.21795060000113,141.21795060000113,,008,P012,2025_Feb_08_1236,ConditionRich,2021.2.3,59.90696448426143,
105.0,105.75,18,0.75,Stimuli/P012/sun_bxlbxustiovyqyrg.jpg,0,0,0.0,0,172,172,172,,,,,,,,,,,,,105.00911630000155,0.00911630000155128,None,141.46818239999993,141.46818239999993,141.46818239999993,141.46818239999993,141.46818239999993,141.46818239999993,141.46818239999993,141.46818239999993,141.46818239999993,141.46818239999993,,008,P012,2025_Feb_08_1236,ConditionRich,2021.2.3,59.90696448426143,
105.75,106.0,41,0.0,Stimuli/Blank.png,0,0,0.0,0,173,173,173,,,,,,,,,,,,,105.77443210000092,0.02443210000092222,None,142.21882170000026,142.21882170000026,142.21882170000026,142.21882170000026,142.21882170000026,142.21882170000026,142.21882170000026,142.21882170000026,142.21882170000026,142.21882170000026,,008,P012,2025_Feb_08_1236,ConditionRich,2021.2.3,59.90696448426143,
106.0,106.75,18,0.75,Stimuli/P012/sun_bxlbxustiovyqyrg.jpg,0,0,0.0,0,174,174,174,,,,,,,,,,,,,106.00883040000008,0.008830400000078953,None,142.4523672000014,142.4523672000014,142.4523672000014,142.4523672000014,142.4523672000014,142.4523672000014,142.4523672000014,142.4523672000014,142.4523672000014,142.4523672000014,,008,P012,2025_Feb_08_1236,ConditionRich,2021.2.3,59.90696448426143,
106.75,107.0,41,0.0,Stimuli/Blank.png,0,0,0.0,0,175,175,175,,,,,,,,,,,,,106.75961620000089,0.009616200000891695,None,143.20304940000096,143.20304940000096,143.20304940000096,143.20304940000096,143.20304940000096,143.20304940000096,143.20304940000096,143.20304940000096,143.20304940000096,143.20304940000096,,008,P012,2025_Feb_08_1236,ConditionRich,2021.2.3,59.90696448426143,
107.0,107.75,18,0.75,Stimuli/P012/sun_bxlbxustiovyqyrg.jpg,0,0,0.0,0,176,176,176,,,,,,,,,,,,,107.00886940000055,0.008869400000548922,None,143.45325510000112,143.45325510000112,143.45325510000112,143.45325510000112,143.45325510000112,143.45325510000112,143.45325510000112,143.45325510000112,143.45325510000112,143.45325510000112,,008,P012,2025_Feb_08_1236,ConditionRich,2021.2.3,59.90696448426143,
107.75,108.0,41,0.0,Stimuli/Blank.png,0,0,0.0,0,177,177,177,,,,,,,,,,,,,107.75976940000146,0.009769400001459871,None,144.20391930000005,144.20391930000005,144.20391930000005,144.20391930000005,144.20391930000005,144.20391930000005,144.20391930000005,144.20391930000005,144.20391930000005,144.20391930000005,,008,P012,2025_Feb_08_1236,ConditionRich,2021.2.3,59.90696448426143,
108.0,108.75,33,0.75,Stimuli/P012/things_hot-air_balloon_06s.jpg,0,0,0.0,0,178,178,178,,,,,,,,,,,,,108.00958740000169,0.009587400001692004,None,144.4541401000006,144.4541401000006,144.4541401000006,144.4541401000006,144.4541401000006,144.4541401000006,144.4541401000006,144.4541401000006,144.4541401000006,144.4541401000006,,008,P012,2025_Feb_08_1236,ConditionRich,2021.2.3,59.90696448426143,
108.75,109.0,41,0.0,Stimuli/Blank.png,0,0,0.0,0,179,179,179,,,,,,,,,,,,,108.76027350000004,0.010273500000039348,None,145.2048193999999,145.2048193999999,145.2048193999999,145.2048193999999,145.2048193999999,145.2048193999999,145.2048193999999,145.2048193999999,145.2048193999999,145.2048193999999,,008,P012,2025_Feb_08_1236,ConditionRich,2021.2.3,59.90696448426143,
109.0,109.75,33,0.75,Stimuli/P012/things_hot-air_balloon_06s.jpg,0,0,0.0,0,180,180,180,,,,,,,,,,,,,109.01159130000087,0.011591300000873161,None,145.4723797000006,145.4723797000006,145.4723797000006,145.4723797000006,145.4723797000006,145.4723797000006,145.4723797000006,145.4723797000006,145.4723797000006,145.4723797000006,,008,P012,2025_Feb_08_1236,ConditionRich,2021.2.3,59.90696448426143,
109.75,110.0,41,0.0,Stimuli/Blank.png,0,0,0.0,0,181,181,181,,,,,,,,,,,,,109.77943190000042,0.029431900000417954,None,146.22238930000094,146.22238930000094,146.22238930000094,146.22238930000094,146.22238930000094,146.22238930000094,146.22238930000094,146.22238930000094,146.22238930000094,146.22238930000094,,008,P012,2025_Feb_08_1236,ConditionRich,2021.2.3,59.90696448426143,
110.0,110.75,33,0.75,Stimuli/P012/things_hot-air_balloon_06s.jpg,0,0,0.0,0,182,182,182,,,,,,,,,,,,,110.0124364000003,0.012436400000296999,None,146.45588490000046,146.45588490000046,146.45588490000046,146.45588490000046,146.45588490000046,146.45588490000046,146.45588490000046,146.45588490000046,146.45588490000046,146.45588490000046,,008,P012,2025_Feb_08_1236,ConditionRich,2021.2.3,59.90696448426143,
110.75,111.0,41,0.0,Stimuli/Blank.png,0,0,0.0,0,183,183,183,,,,,,,,,,,,,110.76455420000093,0.014554200000929995,None,147.22327190000033,147.22327190000033,147.22327190000033,147.22327190000033,147.22327190000033,147.22327190000033,147.22327190000033,147.22327190000033,147.22327190000033,147.22327190000033,,008,P012,2025_Feb_08_1236,ConditionRich,2021.2.3,59.90696448426143,
111.0,111.75,33,0.75,Stimuli/P012/things_hot-air_balloon_06s.jpg,0,0,0.0,0,184,184,184,,,,,,,,,,,,,111.02894510000078,0.028945100000782986,None,147.47349160000158,147.47349160000158,147.47349160000158,147.47349160000158,147.47349160000158,147.47349160000158,147.47349160000158,147.47349160000158,147.47349160000158,147.47349160000158,,008,P012,2025_Feb_08_1236,ConditionRich,2021.2.3,59.90696448426143,
111.75,112.0,41,0.0,Stimuli/Blank.png,0,0,0.0,0,185,185,185,,,,,,,,,,,,,111.76445920000151,0.014459200001510908,None,148.2074657000012,148.2074657000012,148.2074657000012,148.2074657000012,148.2074657000012,148.2074657000012,148.2074657000012,148.2074657000012,148.2074657000012,148.2074657000012,,008,P012,2025_Feb_08_1236,ConditionRich,2021.2.3,59.90696448426143,
112.0,112.75,39,0.75,Stimuli/P012/things_thermometer_06s.jpg,0,0,0.0,0,186,186,186,,,,,,,,,,,,,112.01472470000044,0.014724700000442681,None,148.47436720000042,148.47436720000042,148.47436720000042,148.47436720000042,148.47436720000042,148.47436720000042,148.47436720000042,148.47436720000042,148.47436720000042,148.47436720000042,,008,P012,2025_Feb_08_1236,ConditionRich,2021.2.3,59.90696448426143,
112.75,113.0,41,0.0,Stimuli/Blank.png,0,0,0.0,0,187,187,187,,,,,,,,,,,,,112.78137520000018,0.03137520000018412,None,149.22502870000062,149.22502870000062,149.22502870000062,149.22502870000062,149.22502870000062,149.22502870000062,149.22502870000062,149.22502870000062,149.22502870000062,149.22502870000062,,008,P012,2025_Feb_08_1236,ConditionRich,2021.2.3,59.90696448426143,
113.0,113.75,39,0.75,Stimuli/P012/things_thermometer_06s.jpg,0,0,0.0,0,188,188,188,,,,,,,,,,,,,113.01478570000108,0.014785700001084479,None,149.47529080000095,149.47529080000095,149.47529080000095,149.47529080000095,149.47529080000095,149.47529080000095,149.47529080000095,149.47529080000095,149.47529080000095,149.47529080000095,,008,P012,2025_Feb_08_1236,ConditionRich,2021.2.3,59.90696448426143,
113.75,114.0,41,0.0,Stimuli/Blank.png,0,0,0.0,0,189,189,189,,,,,,,,,,,,,113.78146780000134,0.03146780000133731,None,150.2259842000003,150.2259842000003,150.2259842000003,150.2259842000003,150.2259842000003,150.2259842000003,150.2259842000003,150.2259842000003,150.2259842000003,150.2259842000003,,008,P012,2025_Feb_08_1236,ConditionRich,2021.2.3,59.90696448426143,
114.0,114.75,39,0.75,Stimuli/P012/things_thermometer_06s.jpg,0,0,0.0,0,190,190,190,,,,,,,,,,,,,114.01913520000016,0.019135200000164332,None,150.47615730000143,150.47615730000143,150.47615730000143,150.47615730000143,150.47615730000143,150.47615730000143,150.47615730000143,150.47615730000143,150.47615730000143,150.47615730000143,,008,P012,2025_Feb_08_1236,ConditionRich,2021.2.3,59.90696448426143,
114.75,115.0,41,0.0,Stimuli/Blank.png,0,0,0.0,0,191,191,191,,,,,,,,,,,,,114.76599780000106,0.01599780000105966,None,151.21011400000134,151.21011400000134,151.21011400000134,151.21011400000134,151.21011400000134,151.21011400000134,151.21011400000134,151.21011400000134,151.21011400000134,151.21011400000134,,008,P012,2025_Feb_08_1236,ConditionRich,2021.2.3,59.90696448426143,
115.0,115.75,39,0.75,Stimuli/P012/things_thermometer_06s.jpg,0,0,0.0,0,192,192,192,,,,,,,,,,,,,115.00069729999996,0.000697299999956158,None,151.46034520000103,151.46034520000103,151.46034520000103,151.46034520000103,151.46034520000103,151.46034520000103,151.46034520000103,151.46034520000103,151.46034520000103,151.46034520000103,,008,P012,2025_Feb_08_1236,ConditionRich,2021.2.3,59.90696448426143,
115.75,116.0,41,0.0,Stimuli/Blank.png,0,0,0.0,0,193,193,193,,,,,,,,,,,,,115.76722770000015,0.017227700000148616,None,152.2110214000004,152.2110214000004,152.2110214000004,152.2110214000004,152.2110214000004,152.2110214000004,152.2110214000004,152.2110214000004,152.2110214000004,152.2110214000004,,008,P012,2025_Feb_08_1236,ConditionRich,2021.2.3,59.90696448426143,
116.0,116.75,11,0.75,Stimuli/P012/sun_baylllqlgfvxilor.jpg,0,0,0.0,0,194,194,194,,,,,,,,,,,,,116.00095740000143,0.0009574000014254125,None,152.44454340000084,152.44454340000084,152.44454340000084,152.44454340000084,152.44454340000084,152.44454340000084,152.44454340000084,152.44454340000084,152.44454340000084,152.44454340000084,,008,P012,2025_Feb_08_1236,ConditionRich,2021.2.3,59.90696448426143,
116.75,117.0,41,0.0,Stimuli/Blank.png,0,0,0.0,0,195,195,195,,,,,,,,,,,,,116.75068740000097,0.0006874000009702286,None,153.1952061000011,153.1952061000011,153.1952061000011,153.1952061000011,153.1952061000011,153.1952061000011,153.1952061000011,153.1952061000011,153.1952061000011,153.1952061000011,,008,P012,2025_Feb_08_1236,ConditionRich,2021.2.3,59.90696448426143,
117.0,117.75,11,0.75,Stimuli/P012/sun_baylllqlgfvxilor.jpg,0,0,0.0,0,196,196,196,,,,,,,,,,,,,117.00148360000094,0.0014836000009381678,None,153.46212230000128,153.46212230000128,153.46212230000128,153.46212230000128,153.46212230000128,153.46212230000128,153.46212230000128,153.46212230000128,153.46212230000128,153.46212230000128,,008,P012,2025_Feb_08_1236,ConditionRich,2021.2.3,59.90696448426143,
117.75,118.0,41,0.0,Stimuli/Blank.png,0,0,0.0,0,197,197,197,,,,,,,,,,,,,117.76878880000004,0.018788800000038464,None,154.21276949999992,154.21276949999992,154.21276949999992,154.21276949999992,154.21276949999992,154.21276949999992,154.21276949999992,154.21276949999992,154.21276949999992,154.21276949999992,,008,P012,2025_Feb_08_1236,ConditionRich,2021.2.3,59.90696448426143,
118.0,118.75,11,0.75,Stimuli/P012/sun_baylllqlgfvxilor.jpg,0,0,0.0,0,198,198,198,,,,,,,,,,,,,118.00189180000052,0.0018918000005214708,None,154.4629961999999,154.4629961999999,154.4629961999999,154.4629961999999,154.4629961999999,154.4629961999999,154.4629961999999,154.4629961999999,154.4629961999999,154.4629961999999,,008,P012,2025_Feb_08_1236,ConditionRich,2021.2.3,59.90696448426143,
118.75,119.0,41,0.0,Stimuli/Blank.png,0,0,0.0,0,199,199,199,,,,,,,,,,,,,118.7692336,0.019233600000006845,None,155.2136801000015,155.2136801000015,155.2136801000015,155.2136801000015,155.2136801000015,155.2136801000015,155.2136801000015,155.2136801000015,155.2136801000015,155.2136801000015,,008,P012,2025_Feb_08_1236,ConditionRich,2021.2.3,59.90696448426143,
119.0,119.75,11,0.75,Stimuli/P012/sun_baylllqlgfvxilor.jpg,1,0,0.75,0,200,200,200,,,,,,,,,,,,,119.00560980000046,0.005609800000456744,2,155.46388930000103,155.46388930000103,155.46388930000103,155.46388930000103,155.46388930000103,155.46388930000103,155.46388930000103,156.19786329999988,155.46388930000103,155.46388930000103,0.6378324999986944,008,P012,2025_Feb_08_1236,ConditionRich,2021.2.3,59.90696448426143,
119.75,120.0,41,0.0,Stimuli/Blank.png,0,0,0.0,0,201,201,201,,,,,,,,,,,,,119.77018450000105,0.020184500001050765,None,156.21452670000144,156.21452670000144,156.21452670000144,156.21452670000144,156.21452670000144,156.21452670000144,156.21452670000144,156.21452670000144,156.21452670000144,156.21452670000144,,008,P012,2025_Feb_08_1236,ConditionRich,2021.2.3,59.90696448426143,
120.0,120.75,40,0.75,Stimuli/P012/things_woman_06s.jpg,1,0,0.75,0,202,202,202,,,,,,,,,,,,,120.00446460000057,0.004464600000574137,2,156.44808310000008,156.44808310000008,156.44808310000008,156.44808310000008,156.44808310000008,156.44808310000008,156.44808310000008,157.18208910000067,156.44808310000008,156.44808310000008,0.5134219999999914,008,P012,2025_Feb_08_1236,ConditionRich,2021.2.3,59.90696448426143,
120.75,121.0,41,0.0,Stimuli/Blank.png,0,0,0.0,0,203,203,203,,,,,,,,,,,,,120.75493600000118,0.0049360000011802185,None,157.19874890000028,157.19874890000028,157.19874890000028,157.19874890000028,157.19874890000028,157.19874890000028,157.19874890000028,157.19874890000028,157.19874890000028,157.19874890000028,,008,P012,2025_Feb_08_1236,ConditionRich,2021.2.3,59.90696448426143,
121.0,121.75,40,0.75,Stimuli/P012/things_woman_06s.jpg,0,0,0.0,0,204,204,204,,,,,,,,,,,,,121.00505460000022,0.005054600000221399,None,157.44895950000137,157.44895950000137,157.44895950000137,157.44895950000137,157.44895950000137,157.44895950000137,157.44895950000137,157.44895950000137,157.44895950000137,157.44895950000137,,008,P012,2025_Feb_08_1236,ConditionRich,2021.2.3,59.90696448426143,
121.75,122.0,41,0.0,Stimuli/Blank.png,0,0,0.0,0,205,205,205,,,,,,,,,,,,,121.75513030000002,0.005130300000018906,None,158.1996364000006,158.1996364000006,158.1996364000006,158.1996364000006,158.1996364000006,158.1996364000006,158.1996364000006,158.1996364000006,158.1996364000006,158.1996364000006,,008,P012,2025_Feb_08_1236,ConditionRich,2021.2.3,59.90696448426143,
122.0,122.75,40,0.75,Stimuli/P012/things_woman_06s.jpg,0,0,0.0,0,206,206,206,,,,,,,,,,,,,122.00558880000062,0.005588800000623451,None,158.44985220000126,158.44985220000126,158.44985220000126,158.44985220000126,158.44985220000126,158.44985220000126,158.44985220000126,158.44985220000126,158.44985220000126,158.44985220000126,,008,P012,2025_Feb_08_1236,ConditionRich,2021.2.3,59.90696448426143,
122.75,123.0,41,0.0,Stimuli/Blank.png,0,0,0.0,0,207,207,207,,,,,,,,,,,,,122.75683870000103,0.0068387000010261545,None,159.20053370000096,159.20053370000096,159.20053370000096,159.20053370000096,159.20053370000096,159.20053370000096,159.20053370000096,159.20053370000096,159.20053370000096,159.20053370000096,,008,P012,2025_Feb_08_1236,ConditionRich,2021.2.3,59.90696448426143,
123.0,123.75,40,0.75,Stimuli/P012/things_woman_06s.jpg,0,0,0.0,0,208,208,208,,,,,,,,,,,,,123.00908530000015,0.00908530000015162,None,159.4674296000012,159.4674296000012,159.4674296000012,159.4674296000012,159.4674296000012,159.4674296000012,159.4674296000012,159.4674296000012,159.4674296000012,159.4674296000012,,008,P012,2025_Feb_08_1236,ConditionRich,2021.2.3,59.90696448426143,
123.75,124.0,41,0.0,Stimuli/Blank.png,0,0,0.0,0,209,209,209,,,,,,,,,,,,,123.77437800000007,0.024378000000069733,None,160.21808870000132,160.21808870000132,160.21808870000132,160.21808870000132,160.21808870000132,160.21808870000132,160.21808870000132,160.21808870000132,160.21808870000132,160.21808870000132,,008,P012,2025_Feb_08_1236,ConditionRich,2021.2.3,59.90696448426143,
124.0,124.75,27,0.75,Stimuli/P012/things_girl_06s.jpg,0,0,0.0,0,210,210,210,,,,,,,,,,,,,124.00785370000085,0.00785370000085095,None,160.46830860000046,160.46830860000046,160.46830860000046,160.46830860000046,160.46830860000046,160.46830860000046,160.46830860000046,160.46830860000046,160.46830860000046,160.46830860000046,,008,P012,2025_Feb_08_1236,ConditionRich,2021.2.3,59.90696448426143,
124.75,125.0,41,0.0,Stimuli/Blank.png,0,0,0.0,0,211,211,211,,,,,,,,,,,,,124.77539600000091,0.025396000000910135,None,161.218949600001,161.218949600001,161.218949600001,161.218949600001,161.218949600001,161.218949600001,161.218949600001,161.218949600001,161.218949600001,161.218949600001,,008,P012,2025_Feb_08_1236,ConditionRich,2021.2.3,59.90696448426143,
125.0,125.75,27,0.75,Stimuli/P012/things_girl_06s.jpg,0,0,0.0,0,212,212,212,,,,,,,,,,,,,125.00923890000013,0.009238900000127614,None,161.46920640000099,161.46920640000099,161.46920640000099,161.46920640000099,161.46920640000099,161.46920640000099,161.46920640000099,161.46920640000099,161.46920640000099,161.46920640000099,,008,P012,2025_Feb_08_1236,ConditionRich,2021.2.3,59.90696448426143,
125.75,126.0,41,0.0,Stimuli/Blank.png,0,0,0.0,0,213,213,213,,,,,,,,,,,,,125.7761602999999,0.026160299999901326,None,162.21985370000039,162.21985370000039,162.21985370000039,162.21985370000039,162.21985370000039,162.21985370000039,162.21985370000039,162.21985370000039,162.21985370000039,162.21985370000039,,008,P012,2025_Feb_08_1236,ConditionRich,2021.2.3,59.90696448426143,
126.0,126.75,27,0.75,Stimuli/P012/things_girl_06s.jpg,0,0,0.0,0,214,214,214,,,,,,,,,,,,,126.00940010000159,0.009400100001585088,None,162.45339760000024,162.45339760000024,162.45339760000024,162.45339760000024,162.45339760000024,162.45339760000024,162.45339760000024,162.45339760000024,162.45339760000024,162.45339760000024,,008,P012,2025_Feb_08_1236,ConditionRich,2021.2.3,59.90696448426143,
126.75,127.0,41,0.0,Stimuli/Blank.png,0,0,0.0,0,215,215,215,,,,,,,,,,,,,126.75947510000151,0.009475100001509418,None,163.20405390000087,163.20405390000087,163.20405390000087,163.20405390000087,163.20405390000087,163.20405390000087,163.20405390000087,163.20405390000087,163.20405390000087,163.20405390000087,,008,P012,2025_Feb_08_1236,ConditionRich,2021.2.3,59.90696448426143,
127.0,127.75,27,0.75,Stimuli/P012/things_girl_06s.jpg,1,0,0.75,0,216,216,216,,,,,,,,,,,,,127.00972990000082,0.009729900000820635,2,163.4542953,163.4542953,163.4542953,163.4542953,163.4542953,163.4542953,163.4542953,164.18825820000166,163.4542953,163.4542953,0.5151975999997376,008,P012,2025_Feb_08_1236,ConditionRich,2021.2.3,59.90696448426143,
127.75,128.0,41,0.0,Stimuli/Blank.png,0,0,0.0,0,217,217,217,,,,,,,,,,,,,127.76052490000075,0.010524900000746129,None,164.20493830000123,164.20493830000123,164.20493830000123,164.20493830000123,164.20493830000123,164.20493830000123,164.20493830000123,164.20493830000123,164.20493830000123,164.20493830000123,,008,P012,2025_Feb_08_1236,ConditionRich,2021.2.3,59.90696448426143,
128.0,128.75,15,0.75,Stimuli/P012/sun_bmngnyuahubpqroh.jpg,0,0,0.0,0,218,218,218,,,,,,,,,,,,,128.01137830000152,0.011378300001524622,None,164.47188760000063,164.47188760000063,164.47188760000063,164.47188760000063,164.47188760000063,164.47188760000063,164.47188760000063,164.47188760000063,164.47188760000063,164.47188760000063,,008,P012,2025_Feb_08_1236,ConditionRich,2021.2.3,59.90696448426143,
128.75,129.0,41,0.0,Stimuli/Blank.png,0,0,0.0,0,219,219,219,,,,,,,,,,,,,128.77909080000063,0.029090800000631134,None,165.22252389999994,165.22252389999994,165.22252389999994,165.22252389999994,165.22252389999994,165.22252389999994,165.22252389999994,165.22252389999994,165.22252389999994,165.22252389999994,,008,P012,2025_Feb_08_1236,ConditionRich,2021.2.3,59.90696448426143,
129.0,129.75,15,0.75,Stimuli/P012/sun_bmngnyuahubpqroh.jpg,0,0,0.0,0,220,220,220,,,,,,,,,,,,,129.01232580000033,0.012325800000326126,None,165.4560648000006,165.4560648000006,165.4560648000006,165.4560648000006,165.4560648000006,165.4560648000006,165.4560648000006,165.4560648000006,165.4560648000006,165.4560648000006,,008,P012,2025_Feb_08_1236,ConditionRich,2021.2.3,59.90696448426143,
129.75,130.0,41,0.0,Stimuli/Blank.png,0,0,0.0,0,221,221,221,,,,,,,,,,,,,129.76451400000042,0.014514000000417582,None,166.22340640000039,166.22340640000039,166.22340640000039,166.22340640000039,166.22340640000039,166.22340640000039,166.22340640000039,166.22340640000039,166.22340640000039,166.22340640000039,,008,P012,2025_Feb_08_1236,ConditionRich,2021.2.3,59.90696448426143,
130.0,130.75,15,0.75,Stimuli/P012/sun_bmngnyuahubpqroh.jpg,0,0,0.0,0,222,222,222,,,,,,,,,,,,,130.02976640000088,0.02976640000088082,None,166.49032460000126,166.49032460000126,166.49032460000126,166.49032460000126,166.49032460000126,166.49032460000126,166.49032460000126,166.49032460000126,166.49032460000126,166.49032460000126,,008,P012,2025_Feb_08_1236,ConditionRich,2021.2.3,59.90696448426143,
130.75,131.0,41,0.0,Stimuli/Blank.png,0,0,0.0,0,223,223,223,,,,,,,,,,,,,130.77983360000144,0.029833600001438754,None,167.2242890000016,167.2242890000016,167.2242890000016,167.2242890000016,167.2242890000016,167.2242890000016,167.2242890000016,167.2242890000016,167.2242890000016,167.2242890000016,,008,P012,2025_Feb_08_1236,ConditionRich,2021.2.3,59.90696448426143,
131.0,131.75,15,0.75,Stimuli/P012/sun_bmngnyuahubpqroh.jpg,0,0,0.0,0,224,224,224,,,,,,,,,,,,,131.0138216000014,0.013821600001392653,None,167.4577986000004,167.4577986000004,167.4577986000004,167.4577986000004,167.4577986000004,167.4577986000004,167.4577986000004,167.4577986000004,167.4577986000004,167.4577986000004,,008,P012,2025_Feb_08_1236,ConditionRich,2021.2.3,59.90696448426143,
131.75,132.0,41,0.0,Stimuli/Blank.png,0,0,0.0,0,225,225,225,,,,,,,,,,,,,131.7644005000002,0.014400500000192551,None,168.2084988000006,168.2084988000006,168.2084988000006,168.2084988000006,168.2084988000006,168.2084988000006,168.2084988000006,168.2084988000006,168.2084988000006,168.2084988000006,,008,P012,2025_Feb_08_1236,ConditionRich,2021.2.3,59.90696448426143,
132.0,132.75,3,0.75,Stimuli/P012/sun_afdaynbvsppiyvxm.jpg,0,0,0.0,0,226,226,226,,,,,,,,,,,,,132.0143031000007,0.014303100000688573,None,168.45872410000084,168.45872410000084,168.45872410000084,168.45872410000084,168.45872410000084,168.45872410000084,168.45872410000084,168.45872410000084,168.45872410000084,168.45872410000084,,008,P012,2025_Feb_08_1236,ConditionRich,2021.2.3,59.90696448426143,
132.75,133.0,41,0.0,Stimuli/Blank.png,0,0,0.0,0,227,227,227,,,,,,,,,,,,,132.76546320000125,0.015463200001249788,None,169.2093719000004,169.2093719000004,169.2093719000004,169.2093719000004,169.2093719000004,169.2093719000004,169.2093719000004,169.2093719000004,169.2093719000004,169.2093719000004,,008,P012,2025_Feb_08_1236,ConditionRich,2021.2.3,59.90696448426143,
133.0,133.75,3,0.75,Stimuli/P012/sun_afdaynbvsppiyvxm.jpg,0,0,0.0,0,228,228,228,,,,,,,,,,,,,133.01596900000004,0.015969000000040978,None,169.4595917000006,169.4595917000006,169.4595917000006,169.4595917000006,169.4595917000006,169.4595917000006,169.4595917000006,169.4595917000006,169.4595917000006,169.4595917000006,,008,P012,2025_Feb_08_1236,ConditionRich,2021.2.3,59.90696448426143,
133.75,134.0,41,0.0,Stimuli/Blank.png,0,0,0.0,0,229,229,229,,,,,,,,,,,,,133.75013490000129,0.00013490000128513202,None,170.19358850000026,170.19358850000026,170.19358850000026,170.19358850000026,170.19358850000026,170.19358850000026,170.19358850000026,170.19358850000026,170.19358850000026,170.19358850000026,,008,P012,2025_Feb_08_1236,ConditionRich,2021.2.3,59.90696448426143,
134.0,134.75,3,0.75,Stimuli/P012/sun_afdaynbvsppiyvxm.jpg,0,0,0.0,0,230,230,230,,,,,,,,,,,,,133.99980360000154,-0.00019639999845821876,None,170.44379330000083,170.44379330000083,170.44379330000083,170.44379330000083,170.44379330000083,170.44379330000083,170.44379330000083,170.44379330000083,170.44379330000083,170.44379330000083,,008,P012,2025_Feb_08_1236,ConditionRich,2021.2.3,59.90696448426143,
134.75,135.0,41,0.0,Stimuli/Blank.png,0,0,0.0,0,231,231,231,,,,,,,,,,,,,134.74990810000054,-9.189999946102034e-05,None,171.19446720000087,171.19446720000087,171.19446720000087,171.19446720000087,171.19446720000087,171.19446720000087,171.19446720000087,171.19446720000087,171.19446720000087,171.19446720000087,,008,P012,2025_Feb_08_1236,ConditionRich,2021.2.3,59.90696448426143,
135.0,135.75,3,0.75,Stimuli/P012/sun_afdaynbvsppiyvxm.jpg,0,0,0.0,0,232,232,232,,,,,,,,,,,,,135.00013710000167,0.0001371000016661128,None,171.44468010000128,171.44468010000128,171.44468010000128,171.44468010000128,171.44468010000128,171.44468010000128,171.44468010000128,171.44468010000128,171.44468010000128,171.44468010000128,,008,P012,2025_Feb_08_1236,ConditionRich,2021.2.3,59.90696448426143,
135.75,136.0,41,0.0,Stimuli/Blank.png,0,0,0.0,0,233,233,233,,,,,,,,,,,,,135.75078030000077,0.0007803000007697847,None,172.19535020000149,172.19535020000149,172.19535020000149,172.19535020000149,172.19535020000149,172.19535020000149,172.19535020000149,172.19535020000149,172.19535020000149,172.19535020000149,,008,P012,2025_Feb_08_1236,ConditionRich,2021.2.3,59.90696448426143,
136.0,136.75,13,0.75,Stimuli/P012/sun_bjedvzikugwleyer.jpg,0,0,0.0,0,234,234,234,,,,,,,,,,,,,136.00184190000073,0.001841900000727037,None,172.46226820000084,172.46226820000084,172.46226820000084,172.46226820000084,172.46226820000084,172.46226820000084,172.46226820000084,172.46226820000084,172.46226820000084,172.46226820000084,,008,P012,2025_Feb_08_1236,ConditionRich,2021.2.3,59.90696448426143,
136.75,137.0,41,0.0,Stimuli/Blank.png,0,0,0.0,0,235,235,235,,,,,,,,,,,,,136.76875090000067,0.01875090000066848,None,173.2128972999999,173.2128972999999,173.2128972999999,173.2128972999999,173.2128972999999,173.2128972999999,173.2128972999999,173.2128972999999,173.2128972999999,173.2128972999999,,008,P012,2025_Feb_08_1236,ConditionRich,2021.2.3,59.90696448426143,
137.0,137.75,13,0.75,Stimuli/P012/sun_bjedvzikugwleyer.jpg,0,0,0.0,0,236,236,236,,,,,,,,,,,,,137.00439780000124,0.004397800001243013,None,173.46314979999988,173.46314979999988,173.46314979999988,173.46314979999988,173.46314979999988,173.46314979999988,173.46314979999988,173.46314979999988,173.46314979999988,173.46314979999988,,008,P012,2025_Feb_08_1236,ConditionRich,2021.2.3,59.90696448426143,
137.75,138.0,41,0.0,Stimuli/Blank.png,0,0,0.0,0,237,237,237,,,,,,,,,,,,,137.77153830000134,0.02153830000133894,None,174.23050280000098,174.23050280000098,174.23050280000098,174.23050280000098,174.23050280000098,174.23050280000098,174.23050280000098,174.23050280000098,174.23050280000098,174.23050280000098,,008,P012,2025_Feb_08_1236,ConditionRich,2021.2.3,59.90696448426143,
138.0,138.75,13,0.75,Stimuli/P012/sun_bjedvzikugwleyer.jpg,0,0,0.0,0,238,238,238,,,,,,,,,,,,,138.02007530000083,0.020075300000826246,None,174.4640169000013,174.4640169000013,174.4640169000013,174.4640169000013,174.4640169000013,174.4640169000013,174.4640169000013,174.4640169000013,174.4640169000013,174.4640169000013,,008,P012,2025_Feb_08_1236,ConditionRich,2021.2.3,59.90696448426143,
138.75,139.0,41,0.0,Stimuli/Blank.png,0,0,0.0,0,239,239,239,,,,,,,,,,,,,138.7547676000013,0.0047676000012870645,None,175.1980132000008,175.1980132000008,175.1980132000008,175.1980132000008,175.1980132000008,175.1980132000008,175.1980132000008,175.1980132000008,175.1980132000008,175.1980132000008,,008,P012,2025_Feb_08_1236,ConditionRich,2021.2.3,59.90696448426143,
139.0,139.75,13,0.75,Stimuli/P012/sun_bjedvzikugwleyer.jpg,0,0,0.0,0,240,240,240,,,,,,,,,,,,,139.00453240000024,0.004532400000243797,None,175.44823170000018,175.44823170000018,175.44823170000018,175.44823170000018,175.44823170000018,175.44823170000018,175.44823170000018,175.44823170000018,175.44823170000018,175.44823170000018,,008,P012,2025_Feb_08_1236,ConditionRich,2021.2.3,59.90696448426143,
139.75,140.0,41,0.0,Stimuli/Blank.png,0,0,0.0,0,241,241,241,,,,,,,,,,,,,139.7551940000012,0.005194000001210952,None,176.19890160000068,176.19890160000068,176.19890160000068,176.19890160000068,176.19890160000068,176.19890160000068,176.19890160000068,176.19890160000068,176.19890160000068,176.19890160000068,,008,P012,2025_Feb_08_1236,ConditionRich,2021.2.3,59.90696448426143,
140.0,140.75,17,0.75,Stimuli/P012/sun_btvwhlxbhcqnqzok.jpg,0,0,0.0,0,242,242,242,,,,,,,,,,,,,140.0053697000003,0.005369700000301236,None,176.46581460000016,176.46581460000016,176.46581460000016,176.46581460000016,176.46581460000016,176.46581460000016,176.46581460000016,176.46581460000016,176.46581460000016,176.46581460000016,,008,P012,2025_Feb_08_1236,ConditionRich,2021.2.3,59.90696448426143,
140.75,141.0,41,0.0,Stimuli/Blank.png,0,0,0.0,0,243,243,243,,,,,,,,,,,,,140.7735192,0.023519200000009732,None,177.21647980000125,177.21647980000125,177.21647980000125,177.21647980000125,177.21647980000125,177.21647980000125,177.21647980000125,177.21647980000125,177.21647980000125,177.21647980000125,,008,P012,2025_Feb_08_1236,ConditionRich,2021.2.3,59.90696448426143,
141.0,141.75,17,0.75,Stimuli/P012/sun_btvwhlxbhcqnqzok.jpg,0,0,0.0,0,244,244,244,,,,,,,,,,,,,141.0055605000016,0.005560500001593027,None,177.44999730000018,177.44999730000018,177.44999730000018,177.44999730000018,177.44999730000018,177.44999730000018,177.44999730000018,177.44999730000018,177.44999730000018,177.44999730000018,,008,P012,2025_Feb_08_1236,ConditionRich,2021.2.3,59.90696448426143,
141.75,142.0,41,0.0,Stimuli/Blank.png,0,0,0.0,0,245,245,245,,,,,,,,,,,,,141.75611650000064,0.0061165000006440096,None,178.2006519000006,178.2006519000006,178.2006519000006,178.2006519000006,178.2006519000006,178.2006519000006,178.2006519000006,178.2006519000006,178.2006519000006,178.2006519000006,,008,P012,2025_Feb_08_1236,ConditionRich,2021.2.3,59.90696448426143,
142.0,142.75,17,0.75,Stimuli/P012/sun_btvwhlxbhcqnqzok.jpg,0,0,0.0,0,246,246,246,,,,,,,,,,,,,142.0063990000017,0.006399000001692912,None,178.45087720000083,178.45087720000083,178.45087720000083,178.45087720000083,178.45087720000083,178.45087720000083,178.45087720000083,178.45087720000083,178.45087720000083,178.45087720000083,,008,P012,2025_Feb_08_1236,ConditionRich,2021.2.3,59.90696448426143,
142.75,143.0,41,0.0,Stimuli/Blank.png,0,0,0.0,0,247,247,247,,,,,,,,,,,,,142.75909760000104,0.009097600001041428,None,179.21823300000142,179.21823300000142,179.21823300000142,179.21823300000142,179.21823300000142,179.21823300000142,179.21823300000142,179.21823300000142,179.21823300000142,179.21823300000142,,008,P012,2025_Feb_08_1236,ConditionRich,2021.2.3,59.90696448426143,
143.0,143.75,17,0.75,Stimuli/P012/sun_btvwhlxbhcqnqzok.jpg,0,0,0.0,0,248,248,248,,,,,,,,,,,,,143.02429620000112,0.02429620000111754,None,179.46845310000026,179.46845310000026,179.46845310000026,179.46845310000026,179.46845310000026,179.46845310000026,179.46845310000026,179.46845310000026,179.46845310000026,179.46845310000026,,008,P012,2025_Feb_08_1236,ConditionRich,2021.2.3,59.90696448426143,
143.75,144.0,41,0.0,Stimuli/Blank.png,0,0,0.0,0,249,249,249,,,,,,,,,,,,,143.75952040000084,0.00952040000083798,None,180.20244660000026,180.20244660000026,180.20244660000026,180.20244660000026,180.20244660000026,180.20244660000026,180.20244660000026,180.20244660000026,180.20244660000026,180.20244660000026,,008,P012,2025_Feb_08_1236,ConditionRich,2021.2.3,59.90696448426143,
144.0,144.75,29,0.75,Stimuli/P012/things_gutter_06s.jpg,0,0,0.0,0,250,250,250,,,,,,,,,,,,,144.0081990000017,0.008199000001695822,None,180.45265780000045,180.45265780000045,180.45265780000045,180.45265780000045,180.45265780000045,180.45265780000045,180.45265780000045,180.45265780000045,180.45265780000045,180.45265780000045,,008,P012,2025_Feb_08_1236,ConditionRich,2021.2.3,59.90696448426143,
144.75,145.0,41,0.0,Stimuli/Blank.png,0,0,0.0,0,251,251,251,,,,,,,,,,,,,144.75984390000121,0.009843900001214934,None,181.20332899999994,181.20332899999994,181.20332899999994,181.20332899999994,181.20332899999994,181.20332899999994,181.20332899999994,181.20332899999994,181.20332899999994,181.20332899999994,,008,P012,2025_Feb_08_1236,ConditionRich,2021.2.3,59.90696448426143,
145.0,145.75,29,0.75,Stimuli/P012/things_gutter_06s.jpg,0,0,0.0,0,252,252,252,,,,,,,,,,,,,145.01072530000056,0.01072530000055849,None,181.4702212000011,181.4702212000011,181.4702212000011,181.4702212000011,181.4702212000011,181.4702212000011,181.4702212000011,181.4702212000011,181.4702212000011,181.4702212000011,,008,P012,2025_Feb_08_1236,ConditionRich,2021.2.3,59.90696448426143,
145.75,146.0,41,0.0,Stimuli/Blank.png,0,0,0.0,0,253,253,253,,,,,,,,,,,,,145.77802820000034,0.028028200000335346,None,182.22091480000017,182.22091480000017,182.22091480000017,182.22091480000017,182.22091480000017,182.22091480000017,182.22091480000017,182.22091480000017,182.22091480000017,182.22091480000017,,008,P012,2025_Feb_08_1236,ConditionRich,2021.2.3,59.90696448426143,
146.0,146.75,29,0.75,Stimuli/P012/things_gutter_06s.jpg,0,0,0.0,0,254,254,254,,,,,,,,,,,,,146.00988380000126,0.009883800001261989,None,182.45442690000164,182.45442690000164,182.45442690000164,182.45442690000164,182.45442690000164,182.45442690000164,182.45442690000164,182.45442690000164,182.45442690000164,182.45442690000164,,008,P012,2025_Feb_08_1236,ConditionRich,2021.2.3,59.90696448426143,
146.75,147.0,41,0.0,Stimuli/Blank.png,0,0,0.0,0,255,255,255,,,,,,,,,,,,,146.76154470000074,0.011544700000740704,None,183.20508580000023,183.20508580000023,183.20508580000023,183.20508580000023,183.20508580000023,183.20508580000023,183.20508580000023,183.20508580000023,183.20508580000023,183.20508580000023,,008,P012,2025_Feb_08_1236,ConditionRich,2021.2.3,59.90696448426143,
147.0,147.75,29,0.75,Stimuli/P012/things_gutter_06s.jpg,0,0,0.0,0,256,256,256,,,,,,,,,,,,,147.01157180000155,0.011571800001547672,None,183.47199280000132,183.47199280000132,183.47199280000132,183.47199280000132,183.47199280000132,183.47199280000132,183.47199280000132,183.47199280000132,183.47199280000132,183.47199280000132,,008,P012,2025_Feb_08_1236,ConditionRich,2021.2.3,59.90696448426143,
147.75,148.0,41,0.0,Stimuli/Blank.png,0,0,0.0,0,257,257,257,,,,,,,,,,,,,147.77882000000136,0.028820000001360313,None,184.22266130000025,184.22266130000025,184.22266130000025,184.22266130000025,184.22266130000025,184.22266130000025,184.22266130000025,184.22266130000025,184.22266130000025,184.22266130000025,,008,P012,2025_Feb_08_1236,ConditionRich,2021.2.3,59.90696448426143,
148.0,148.75,20,0.75,Stimuli/P012/sun_ciifteeudwpxupnw.jpg,0,0,0.0,0,258,258,258,,,,,,,,,,,,,148.01409990000138,0.014099900001383503,None,184.47287850000066,184.47287850000066,184.47287850000066,184.47287850000066,184.47287850000066,184.47287850000066,184.47287850000066,184.47287850000066,184.47287850000066,184.47287850000066,,008,P012,2025_Feb_08_1236,ConditionRich,2021.2.3,59.90696448426143,
148.75,149.0,41,0.0,Stimuli/Blank.png,0,0,0.0,0,259,259,259,,,,,,,,,,,,,148.77967040000112,0.0296704000011232,None,185.2235414000006,185.2235414000006,185.2235414000006,185.2235414000006,185.2235414000006,185.2235414000006,185.2235414000006,185.2235414000006,185.2235414000006,185.2235414000006,,008,P012,2025_Feb_08_1236,ConditionRich,2021.2.3,59.90696448426143,
149.0,149.75,20,0.75,Stimuli/P012/sun_ciifteeudwpxupnw.jpg,0,0,0.0,0,260,260,260,,,,,,,,,,,,,149.01568780000161,0.01568780000161496,None,185.47373960000004,185.47373960000004,185.47373960000004,185.47373960000004,185.47373960000004,185.47373960000004,185.47373960000004,185.47373960000004,185.47373960000004,185.47373960000004,,008,P012,2025_Feb_08_1236,ConditionRich,2021.2.3,59.90696448426143,
149.75,150.0,41,0.0,Stimuli/Blank.png,0,0,0.0,0,261,261,261,,,,,,,,,,,,,149.76471290000154,0.01471290000154113,None,186.2077498000017,186.2077498000017,186.2077498000017,186.2077498000017,186.2077498000017,186.2077498000017,186.2077498000017,186.2077498000017,186.2077498000017,186.2077498000017,,008,P012,2025_Feb_08_1236,ConditionRich,2021.2.3,59.90696448426143,
