eventStartTime,eventEndTime,eventCond,imSize,imFile,responseEvent,fixRespStart,fixRespEnd,Events.thisRepN,Events.thisTrialN,Events.thisN,Events.thisIndex,Instructions.started,Instructions.stopped,participantReadyResponse.keys,participantReadyResponse.rt,participantReadyResponse.started,participantReadyResponse.stopped,startWaitforTrigger,triggerResponse.keys,triggerResponse.rt,triggerResponse.started,triggerResponse.stopped,globalTimer,actualStartTime,startTimingDiff,participantResponse.keys,participantResponse.started,participantResponse.stopped,image.started,image.stopped,fixationOutside.started,fixationOutside.stopped,fixationResponse.started,fixationResponse.stopped,fixationInside.started,fixationInside.stopped,participantResponse.rt,session,participant,date,expName,psychopyVersion,frameRate,
,,,,,,,,,,,,10.822179500000857,None,2,17.544014099999913,10.822179500000857,None,,,,,,,,,,,,,,,,,,,,,005,P012,2025_Feb_08_1207,ConditionRich,2021.2.3,59.93364147228582,
,,,,,,,,,,,,,,,,,,28.379201400000966,5,13.428020000001197,28.39218450000044,None,,,,,,,,,,,,,,,,005,P012,2025_Feb_08_1207,ConditionRich,2021.2.3,59.93364147228582,
0.0,4.0,0,0.0,Stimuli/Blank.png,0,0,0.0,0,0,0,0,,,,,,,,,,,,41.823022200000196,0.04292919999898004,0.04292919999898004,None,41.88740070000131,None,41.88740070000131,None,41.88740070000131,None,41.88740070000131,41.88740070000131,41.88740070000131,None,,005,P012,2025_Feb_08_1207,ConditionRich,2021.2.3,59.93364147228582,
4.0,4.75,14,0.75,Stimuli/P012/sun_blybvkoucskrdgiv.jpg,0,0,0.0,0,1,1,1,,,,,,,,,,,,,4.021424799999295,0.02142479999929492,None,45.87457370000084,45.87457370000084,45.87457370000084,45.87457370000084,45.87457370000084,45.87457370000084,45.87457370000084,45.87457370000084,45.87457370000084,45.87457370000084,,005,P012,2025_Feb_08_1207,ConditionRich,2021.2.3,59.93364147228582,
4.75,5.0,41,0.0,Stimuli/Blank.png,0,0,0.0,0,2,2,2,,,,,,,,,,,,,4.770877699998891,0.02087769999889133,None,46.608504800000446,46.608504800000446,46.608504800000446,46.608504800000446,46.608504800000446,46.608504800000446,46.608504800000446,46.608504800000446,46.608504800000446,46.608504800000446,,005,P012,2025_Feb_08_1207,ConditionRich,2021.2.3,59.93364147228582,
5.0,5.75,14,0.75,Stimuli/P012/sun_blybvkoucskrdgiv.jpg,0,0,0.0,0,3,3,3,,,,,,,,,,,,,5.004170299998805,0.004170299998804694,None,46.84178320000137,46.84178320000137,46.84178320000137,46.84178320000137,46.84178320000137,46.84178320000137,46.84178320000137,46.84178320000137,46.84178320000137,46.84178320000137,,005,P012,2025_Feb_08_1207,ConditionRich,2021.2.3,59.93364147228582,
5.75,6.0,41,0.0,Stimuli/Blank.png,0,0,0.0,0,4,4,4,,,,,,,,,,,,,5.754814799998712,0.00481479999871226,None,47.59239140000136,47.59239140000136,47.59239140000136,47.59239140000136,47.59239140000136,47.59239140000136,47.59239140000136,47.59239140000136,47.59239140000136,47.59239140000136,,005,P012,2025_Feb_08_1207,ConditionRich,2021.2.3,59.93364147228582,
6.0,6.75,14,0.75,Stimuli/P012/sun_blybvkoucskrdgiv.jpg,1,0,0.75,0,5,5,5,,,,,,,,,,,,,6.005620799998724,0.005620799998723669,2,47.84267390000059,47.84267390000059,47.84267390000059,47.84267390000059,47.84267390000059,47.84267390000059,47.84267390000059,48.57670400000097,47.84267390000059,47.84267390000059,0.47261020000041754,005,P012,2025_Feb_08_1207,ConditionRich,2021.2.3,59.93364147228582,
6.75,7.0,41,0.0,Stimuli/Blank.png,0,0,0.0,0,6,6,6,,,,,,,,,,,,,6.758936700000049,0.008936700000049314,None,48.61001630000101,48.61001630000101,48.61001630000101,48.61001630000101,48.61001630000101,48.61001630000101,48.61001630000101,48.61001630000101,48.61001630000101,48.61001630000101,,005,P012,2025_Feb_08_1207,ConditionRich,2021.2.3,59.93364147228582,
7.0,7.75,14,0.75,Stimuli/P012/sun_blybvkoucskrdgiv.jpg,0,0,0.0,0,7,7,7,,,,,,,,,,,,,7.023480399999244,0.023480399999243673,None,48.86023340000065,48.86023340000065,48.86023340000065,48.86023340000065,48.86023340000065,48.86023340000065,48.86023340000065,48.86023340000065,48.86023340000065,48.86023340000065,,005,P012,2025_Feb_08_1207,ConditionRich,2021.2.3,59.93364147228582,
7.75,8.0,41,0.0,Stimuli/Blank.png,0,0,0.0,0,8,8,8,,,,,,,,,,,,,7.759300899999289,0.009300899999288958,None,49.61090520000107,49.61090520000107,49.61090520000107,49.61090520000107,49.61090520000107,49.61090520000107,49.61090520000107,49.61090520000107,49.61090520000107,49.61090520000107,,005,P012,2025_Feb_08_1207,ConditionRich,2021.2.3,59.93364147228582,
8.0,8.75,12,0.75,Stimuli/P012/sun_bcesifdfuidnkdhl.jpg,0,0,0.0,0,9,9,9,,,,,,,,,,,,,8.024088599999232,0.02408859999923152,None,49.86112840000169,49.86112840000169,49.86112840000169,49.86112840000169,49.86112840000169,49.86112840000169,49.86112840000169,49.86112840000169,49.86112840000169,49.86112840000169,,005,P012,2025_Feb_08_1207,ConditionRich,2021.2.3,59.93364147228582,
8.75,9.0,41,0.0,Stimuli/Blank.png,0,0,0.0,0,10,10,10,,,,,,,,,,,,,8.760186199999225,0.01018619999922521,None,50.61178760000075,50.61178760000075,50.61178760000075,50.61178760000075,50.61178760000075,50.61178760000075,50.61178760000075,50.61178760000075,50.61178760000075,50.61178760000075,,005,P012,2025_Feb_08_1207,ConditionRich,2021.2.3,59.93364147228582,
9.0,9.75,12,0.75,Stimuli/P012/sun_bcesifdfuidnkdhl.jpg,0,0,0.0,0,11,11,11,,,,,,,,,,,,,9.024356899999475,0.02435689999947499,None,50.86199990000023,50.86199990000023,50.86199990000023,50.86199990000023,50.86199990000023,50.86199990000023,50.86199990000023,50.86199990000023,50.86199990000023,50.86199990000023,,005,P012,2025_Feb_08_1207,ConditionRich,2021.2.3,59.93364147228582,
9.75,10.0,41,0.0,Stimuli/Blank.png,0,0,0.0,0,12,12,12,,,,,,,,,,,,,9.759068899998965,0.009068899998965207,None,51.59599330000128,51.59599330000128,51.59599330000128,51.59599330000128,51.59599330000128,51.59599330000128,51.59599330000128,51.59599330000128,51.59599330000128,51.59599330000128,,005,P012,2025_Feb_08_1207,ConditionRich,2021.2.3,59.93364147228582,
10.0,10.75,12,0.75,Stimuli/P012/sun_bcesifdfuidnkdhl.jpg,0,0,0.0,0,13,13,13,,,,,,,,,,,,,10.008589899998697,0.008589899998696637,None,51.84620630000063,51.84620630000063,51.84620630000063,51.84620630000063,51.84620630000063,51.84620630000063,51.84620630000063,51.84620630000063,51.84620630000063,51.84620630000063,,005,P012,2025_Feb_08_1207,ConditionRich,2021.2.3,59.93364147228582,
10.75,11.0,41,0.0,Stimuli/Blank.png,0,0,0.0,0,14,14,14,,,,,,,,,,,,,10.759200299999065,0.009200299999065464,None,52.59687000000122,52.59687000000122,52.59687000000122,52.59687000000122,52.59687000000122,52.59687000000122,52.59687000000122,52.59687000000122,52.59687000000122,52.59687000000122,,005,P012,2025_Feb_08_1207,ConditionRich,2021.2.3,59.93364147228582,
11.0,11.75,12,0.75,Stimuli/P012/sun_bcesifdfuidnkdhl.jpg,0,0,0.0,0,15,15,15,,,,,,,,,,,,,11.0095867,0.009586699999999837,None,52.84708480000154,52.84708480000154,52.84708480000154,52.84708480000154,52.84708480000154,52.84708480000154,52.84708480000154,52.84708480000154,52.84708480000154,52.84708480000154,,005,P012,2025_Feb_08_1207,ConditionRich,2021.2.3,59.93364147228582,
11.75,12.0,41,0.0,Stimuli/Blank.png,0,0,0.0,0,16,16,16,,,,,,,,,,,,,11.760100199999215,0.010100199999214965,None,53.597762800000055,53.597762800000055,53.597762800000055,53.597762800000055,53.597762800000055,53.597762800000055,53.597762800000055,53.597762800000055,53.597762800000055,53.597762800000055,,005,P012,2025_Feb_08_1207,ConditionRich,2021.2.3,59.93364147228582,
12.0,12.75,25,0.75,Stimuli/P012/things_face_06s.jpg,1,0,0.75,0,17,17,17,,,,,,,,,,,,,12.010648599998603,0.010648599998603459,2,53.84794840000177,53.84794840000177,53.84794840000177,53.84794840000177,53.84794840000177,53.84794840000177,53.84794840000177,54.583092800001396,53.84794840000177,53.84794840000177,0.4292453999987629,005,P012,2025_Feb_08_1207,ConditionRich,2021.2.3,59.93364147228582,
12.75,13.0,41,0.0,Stimuli/Blank.png,0,0,0.0,0,18,18,18,,,,,,,,,,,,,12.764126699999906,0.014126699999906123,None,54.59865240000181,54.59865240000181,54.59865240000181,54.59865240000181,54.59865240000181,54.59865240000181,54.59865240000181,54.59865240000181,54.59865240000181,54.59865240000181,,005,P012,2025_Feb_08_1207,ConditionRich,2021.2.3,59.93364147228582,
13.0,13.75,25,0.75,Stimuli/P012/things_face_06s.jpg,0,0,0.0,0,19,19,19,,,,,,,,,,,,,13.013763599999947,0.013763599999947473,None,54.865558800000144,54.865558800000144,54.865558800000144,54.865558800000144,54.865558800000144,54.865558800000144,54.865558800000144,54.865558800000144,54.865558800000144,54.865558800000144,,005,P012,2025_Feb_08_1207,ConditionRich,2021.2.3,59.93364147228582,
13.75,14.0,41,0.0,Stimuli/Blank.png,0,0,0.0,0,20,20,20,,,,,,,,,,,,,13.779941400000098,0.02994140000009793,None,55.63292460000048,55.63292460000048,55.63292460000048,55.63292460000048,55.63292460000048,55.63292460000048,55.63292460000048,55.63292460000048,55.63292460000048,55.63292460000048,,005,P012,2025_Feb_08_1207,ConditionRich,2021.2.3,59.93364147228582,
14.0,14.75,25,0.75,Stimuli/P012/things_face_06s.jpg,0,0,0.0,0,21,21,21,,,,,,,,,,,,,14.029252599999381,0.029252599999381346,None,55.86642230000143,55.86642230000143,55.86642230000143,55.86642230000143,55.86642230000143,55.86642230000143,55.86642230000143,55.86642230000143,55.86642230000143,55.86642230000143,,005,P012,2025_Feb_08_1207,ConditionRich,2021.2.3,59.93364147228582,
14.75,15.0,41,0.0,Stimuli/Blank.png,0,0,0.0,0,22,22,22,,,,,,,,,,,,,14.76359599999887,0.013595999998869956,None,56.60041690000071,56.60041690000071,56.60041690000071,56.60041690000071,56.60041690000071,56.60041690000071,56.60041690000071,56.60041690000071,56.60041690000071,56.60041690000071,,005,P012,2025_Feb_08_1207,ConditionRich,2021.2.3,59.93364147228582,
15.0,15.75,25,0.75,Stimuli/P012/things_face_06s.jpg,0,0,0.0,0,23,23,23,,,,,,,,,,,,,15.013592600000266,0.01359260000026552,None,56.85062950000065,56.85062950000065,56.85062950000065,56.85062950000065,56.85062950000065,56.85062950000065,56.85062950000065,56.85062950000065,56.85062950000065,56.85062950000065,,005,P012,2025_Feb_08_1207,ConditionRich,2021.2.3,59.93364147228582,
15.75,16.0,41,0.0,Stimuli/Blank.png,0,0,0.0,0,24,24,24,,,,,,,,,,,,,15.763691399999516,0.013691399999515852,None,57.6013051000009,57.6013051000009,57.6013051000009,57.6013051000009,57.6013051000009,57.6013051000009,57.6013051000009,57.6013051000009,57.6013051000009,57.6013051000009,,005,P012,2025_Feb_08_1207,ConditionRich,2021.2.3,59.93364147228582,
16.0,16.75,26,0.75,Stimuli/P012/things_gazelle_06s.jpg,0,0,0.0,0,25,25,25,,,,,,,,,,,,,16.01540380000006,0.015403800000058254,None,57.86819250000008,57.86819250000008,57.86819250000008,57.86819250000008,57.86819250000008,57.86819250000008,57.86819250000008,57.86819250000008,57.86819250000008,57.86819250000008,,005,P012,2025_Feb_08_1207,ConditionRich,2021.2.3,59.93364147228582,
16.75,17.0,41,0.0,Stimuli/Blank.png,0,0,0.0,0,26,26,26,,,,,,,,,,,,,16.764675299999,0.014675299998998526,None,58.60218090000126,58.60218090000126,58.60218090000126,58.60218090000126,58.60218090000126,58.60218090000126,58.60218090000126,58.60218090000126,58.60218090000126,58.60218090000126,,005,P012,2025_Feb_08_1207,ConditionRich,2021.2.3,59.93364147228582,
17.0,17.75,26,0.75,Stimuli/P012/things_gazelle_06s.jpg,0,0,0.0,0,27,27,27,,,,,,,,,,,,,17.01576980000027,0.01576980000027106,None,58.86910800000078,58.86910800000078,58.86910800000078,58.86910800000078,58.86910800000078,58.86910800000078,58.86910800000078,58.86910800000078,58.86910800000078,58.86910800000078,,005,P012,2025_Feb_08_1207,ConditionRich,2021.2.3,59.93364147228582,
17.75,18.0,41,0.0,Stimuli/Blank.png,0,0,0.0,0,28,28,28,,,,,,,,,,,,,17.766466600000058,0.01646660000005795,None,59.60316250000142,59.60316250000142,59.60316250000142,59.60316250000142,59.60316250000142,59.60316250000142,59.60316250000142,59.60316250000142,59.60316250000142,59.60316250000142,,005,P012,2025_Feb_08_1207,ConditionRich,2021.2.3,59.93364147228582,
18.0,18.75,26,0.75,Stimuli/P012/things_gazelle_06s.jpg,0,0,0.0,0,29,29,29,,,,,,,,,,,,,17.999517599999308,-0.00048240000069199596,None,59.83658060000016,59.83658060000016,59.83658060000016,59.83658060000016,59.83658060000016,59.83658060000016,59.83658060000016,59.83658060000016,59.83658060000016,59.83658060000016,,005,P012,2025_Feb_08_1207,ConditionRich,2021.2.3,59.93364147228582,
18.75,19.0,41,0.0,Stimuli/Blank.png,0,0,0.0,0,30,30,30,,,,,,,,,,,,,18.749753500000224,-0.00024649999977555126,None,60.587304500000755,60.587304500000755,60.587304500000755,60.587304500000755,60.587304500000755,60.587304500000755,60.587304500000755,60.587304500000755,60.587304500000755,60.587304500000755,,005,P012,2025_Feb_08_1207,ConditionRich,2021.2.3,59.93364147228582,
19.0,19.75,26,0.75,Stimuli/P012/things_gazelle_06s.jpg,0,0,0.0,0,31,31,31,,,,,,,,,,,,,18.999837199999092,-0.00016280000090773683,None,60.83749210000133,60.83749210000133,60.83749210000133,60.83749210000133,60.83749210000133,60.83749210000133,60.83749210000133,60.83749210000133,60.83749210000133,60.83749210000133,,005,P012,2025_Feb_08_1207,ConditionRich,2021.2.3,59.93364147228582,
19.75,20.0,41,0.0,Stimuli/Blank.png,0,0,0.0,0,32,32,32,,,,,,,,,,,,,19.75052489999871,0.000524899998708861,None,61.58815270000014,61.58815270000014,61.58815270000014,61.58815270000014,61.58815270000014,61.58815270000014,61.58815270000014,61.58815270000014,61.58815270000014,61.58815270000014,,005,P012,2025_Feb_08_1207,ConditionRich,2021.2.3,59.93364147228582,
20.0,20.75,7,0.75,Stimuli/P012/sun_arugqgwhwdjxezyt.jpg,0,0,0.0,0,33,33,33,,,,,,,,,,,,,20.00145739999971,0.0014573999997082865,None,61.83839090000038,61.83839090000038,61.83839090000038,61.83839090000038,61.83839090000038,61.83839090000038,61.83839090000038,61.83839090000038,61.83839090000038,61.83839090000038,,005,P012,2025_Feb_08_1207,ConditionRich,2021.2.3,59.93364147228582,
20.75,21.0,41,0.0,Stimuli/Blank.png,0,0,0.0,0,34,34,34,,,,,,,,,,,,,20.75218649999988,0.002186499999879743,None,62.58905010000126,62.58905010000126,62.58905010000126,62.58905010000126,62.58905010000126,62.58905010000126,62.58905010000126,62.58905010000126,62.58905010000126,62.58905010000126,,005,P012,2025_Feb_08_1207,ConditionRich,2021.2.3,59.93364147228582,
21.0,21.75,7,0.75,Stimuli/P012/sun_arugqgwhwdjxezyt.jpg,0,0,0.0,0,35,35,35,,,,,,,,,,,,,21.00412039999901,0.00412039999901026,None,62.85656670000026,62.85656670000026,62.85656670000026,62.85656670000026,62.85656670000026,62.85656670000026,62.85656670000026,62.85656670000026,62.85656670000026,62.85656670000026,,005,P012,2025_Feb_08_1207,ConditionRich,2021.2.3,59.93364147228582,
21.75,22.0,41,0.0,Stimuli/Blank.png,0,0,0.0,0,36,36,36,,,,,,,,,,,,,21.77000609999959,0.020006099999591243,None,63.60661540000001,63.60661540000001,63.60661540000001,63.60661540000001,63.60661540000001,63.60661540000001,63.60661540000001,63.60661540000001,63.60661540000001,63.60661540000001,,005,P012,2025_Feb_08_1207,ConditionRich,2021.2.3,59.93364147228582,
22.0,22.75,7,0.75,Stimuli/P012/sun_arugqgwhwdjxezyt.jpg,0,0,0.0,0,37,37,37,,,,,,,,,,,,,22.003769199998715,0.003769199998714612,None,63.8568275000016,63.8568275000016,63.8568275000016,63.8568275000016,63.8568275000016,63.8568275000016,63.8568275000016,63.8568275000016,63.8568275000016,63.8568275000016,,005,P012,2025_Feb_08_1207,ConditionRich,2021.2.3,59.93364147228582,
22.75,23.0,41,0.0,Stimuli/Blank.png,0,0,0.0,0,38,38,38,,,,,,,,,,,,,22.769887200000085,0.019887200000084704,None,64.60748960000092,64.60748960000092,64.60748960000092,64.60748960000092,64.60748960000092,64.60748960000092,64.60748960000092,64.60748960000092,64.60748960000092,64.60748960000092,,005,P012,2025_Feb_08_1207,ConditionRich,2021.2.3,59.93364147228582,
23.0,23.75,7,0.75,Stimuli/P012/sun_arugqgwhwdjxezyt.jpg,0,0,0.0,0,39,39,39,,,,,,,,,,,,,23.004208399999698,0.004208399999697576,None,64.85773090000112,64.85773090000112,64.85773090000112,64.85773090000112,64.85773090000112,64.85773090000112,64.85773090000112,64.85773090000112,64.85773090000112,64.85773090000112,,005,P012,2025_Feb_08_1207,ConditionRich,2021.2.3,59.93364147228582,
23.75,24.0,41,0.0,Stimuli/Blank.png,0,0,0.0,0,40,40,40,,,,,,,,,,,,,23.770898699998725,0.020898699998724624,None,65.60839490000035,65.60839490000035,65.60839490000035,65.60839490000035,65.60839490000035,65.60839490000035,65.60839490000035,65.60839490000035,65.60839490000035,65.60839490000035,,005,P012,2025_Feb_08_1207,ConditionRich,2021.2.3,59.93364147228582,
24.0,24.75,10,0.75,Stimuli/P012/sun_awufkrkrdrdbvvis.jpg,0,0,0.0,0,41,41,41,,,,,,,,,,,,,24.005221899999015,0.005221899999014568,None,65.84189600000173,65.84189600000173,65.84189600000173,65.84189600000173,65.84189600000173,65.84189600000173,65.84189600000173,65.84189600000173,65.84189600000173,65.84189600000173,,005,P012,2025_Feb_08_1207,ConditionRich,2021.2.3,59.93364147228582,
24.75,25.0,41,0.0,Stimuli/Blank.png,0,0,0.0,0,42,42,42,,,,,,,,,,,,,24.755008299998735,0.0050082999987353105,None,66.5925780000016,66.5925780000016,66.5925780000016,66.5925780000016,66.5925780000016,66.5925780000016,66.5925780000016,66.5925780000016,66.5925780000016,66.5925780000016,,005,P012,2025_Feb_08_1207,ConditionRich,2021.2.3,59.93364147228582,
25.0,25.75,10,0.75,Stimuli/P012/sun_awufkrkrdrdbvvis.jpg,0,0,0.0,0,43,43,43,,,,,,,,,,,,,25.00538079999933,0.005380799999329611,None,66.84279930000048,66.84279930000048,66.84279930000048,66.84279930000048,66.84279930000048,66.84279930000048,66.84279930000048,66.84279930000048,66.84279930000048,66.84279930000048,,005,P012,2025_Feb_08_1207,ConditionRich,2021.2.3,59.93364147228582,
25.75,26.0,41,0.0,Stimuli/Blank.png,0,0,0.0,0,44,44,44,,,,,,,,,,,,,25.757181599999967,0.007181599999967148,None,67.5934797000009,67.5934797000009,67.5934797000009,67.5934797000009,67.5934797000009,67.5934797000009,67.5934797000009,67.5934797000009,67.5934797000009,67.5934797000009,,005,P012,2025_Feb_08_1207,ConditionRich,2021.2.3,59.93364147228582,
26.0,26.75,10,0.75,Stimuli/P012/sun_awufkrkrdrdbvvis.jpg,0,0,0.0,0,45,45,45,,,,,,,,,,,,,26.008990399999675,0.008990399999674992,None,67.86033700000007,67.86033700000007,67.86033700000007,67.86033700000007,67.86033700000007,67.86033700000007,67.86033700000007,67.86033700000007,67.86033700000007,67.86033700000007,,005,P012,2025_Feb_08_1207,ConditionRich,2021.2.3,59.93364147228582,
26.75,27.0,41,0.0,Stimuli/Blank.png,0,0,0.0,0,46,46,46,,,,,,,,,,,,,26.77407409999978,0.02407409999977972,None,68.61104010000054,68.61104010000054,68.61104010000054,68.61104010000054,68.61104010000054,68.61104010000054,68.61104010000054,68.61104010000054,68.61104010000054,68.61104010000054,,005,P012,2025_Feb_08_1207,ConditionRich,2021.2.3,59.93364147228582,
27.0,27.75,10,0.75,Stimuli/P012/sun_awufkrkrdrdbvvis.jpg,0,0,0.0,0,47,47,47,,,,,,,,,,,,,27.00945739999952,0.009457399999519112,None,68.86127810000107,68.86127810000107,68.86127810000107,68.86127810000107,68.86127810000107,68.86127810000107,68.86127810000107,68.86127810000107,68.86127810000107,68.86127810000107,,005,P012,2025_Feb_08_1207,ConditionRich,2021.2.3,59.93364147228582,
27.75,28.0,41,0.0,Stimuli/Blank.png,0,0,0.0,0,48,48,48,,,,,,,,,,,,,27.774707900000067,0.02470790000006673,None,69.6119163000003,69.6119163000003,69.6119163000003,69.6119163000003,69.6119163000003,69.6119163000003,69.6119163000003,69.6119163000003,69.6119163000003,69.6119163000003,,005,P012,2025_Feb_08_1207,ConditionRich,2021.2.3,59.93364147228582,
28.0,28.75,29,0.75,Stimuli/P012/things_gutter_06s.jpg,0,0,0.0,0,49,49,49,,,,,,,,,,,,,28.008502900000167,0.008502900000166846,None,69.84545700000126,69.84545700000126,69.84545700000126,69.84545700000126,69.84545700000126,69.84545700000126,69.84545700000126,69.84545700000126,69.84545700000126,69.84545700000126,,005,P012,2025_Feb_08_1207,ConditionRich,2021.2.3,59.93364147228582,
28.75,29.0,41,0.0,Stimuli/Blank.png,0,0,0.0,0,50,50,50,,,,,,,,,,,,,28.758983899999293,0.008983899999293499,None,70.59611920000134,70.59611920000134,70.59611920000134,70.59611920000134,70.59611920000134,70.59611920000134,70.59611920000134,70.59611920000134,70.59611920000134,70.59611920000134,,005,P012,2025_Feb_08_1207,ConditionRich,2021.2.3,59.93364147228582,
29.0,29.75,29,0.75,Stimuli/P012/things_gutter_06s.jpg,0,0,0.0,0,51,51,51,,,,,,,,,,,,,29.009439999999813,0.009439999999813153,None,70.8630475000009,70.8630475000009,70.8630475000009,70.8630475000009,70.8630475000009,70.8630475000009,70.8630475000009,70.8630475000009,70.8630475000009,70.8630475000009,,005,P012,2025_Feb_08_1207,ConditionRich,2021.2.3,59.93364147228582,
29.75,30.0,41,0.0,Stimuli/Blank.png,0,0,0.0,0,52,52,52,,,,,,,,,,,,,29.779045699999187,0.02904569999918749,None,71.63038000000051,71.63038000000051,71.63038000000051,71.63038000000051,71.63038000000051,71.63038000000051,71.63038000000051,71.63038000000051,71.63038000000051,71.63038000000051,,005,P012,2025_Feb_08_1207,ConditionRich,2021.2.3,59.93364147228582,
30.0,30.75,29,0.75,Stimuli/P012/things_gutter_06s.jpg,0,0,0.0,0,53,53,53,,,,,,,,,,,,,30.02914199999941,0.029141999999410473,None,71.88060010000117,71.88060010000117,71.88060010000117,71.88060010000117,71.88060010000117,71.88060010000117,71.88060010000117,71.88060010000117,71.88060010000117,71.88060010000117,,005,P012,2025_Feb_08_1207,ConditionRich,2021.2.3,59.93364147228582,
30.75,31.0,41,0.0,Stimuli/Blank.png,0,0,0.0,0,54,54,54,,,,,,,,,,,,,30.779166199999963,0.029166199999963283,None,72.63127810000151,72.63127810000151,72.63127810000151,72.63127810000151,72.63127810000151,72.63127810000151,72.63127810000151,72.63127810000151,72.63127810000151,72.63127810000151,,005,P012,2025_Feb_08_1207,ConditionRich,2021.2.3,59.93364147228582,
31.0,31.75,29,0.75,Stimuli/P012/things_gutter_06s.jpg,0,0,0.0,0,55,55,55,,,,,,,,,,,,,31.027854199999638,0.027854199999637785,None,72.8647957000012,72.8647957000012,72.8647957000012,72.8647957000012,72.8647957000012,72.8647957000012,72.8647957000012,72.8647957000012,72.8647957000012,72.8647957000012,,005,P012,2025_Feb_08_1207,ConditionRich,2021.2.3,59.93364147228582,
31.75,32.0,41,0.0,Stimuli/Blank.png,0,0,0.0,0,56,56,56,,,,,,,,,,,,,31.761112799998955,0.01111279999895487,None,73.59878260000005,73.59878260000005,73.59878260000005,73.59878260000005,73.59878260000005,73.59878260000005,73.59878260000005,73.59878260000005,73.59878260000005,73.59878260000005,,005,P012,2025_Feb_08_1207,ConditionRich,2021.2.3,59.93364147228582,
32.0,32.75,15,0.75,Stimuli/P012/sun_bmngnyuahubpqroh.jpg,0,0,0.0,0,57,57,57,,,,,,,,,,,,,32.01169689999915,0.011696899999151356,None,73.86569960000088,73.86569960000088,73.86569960000088,73.86569960000088,73.86569960000088,73.86569960000088,73.86569960000088,73.86569960000088,73.86569960000088,73.86569960000088,,005,P012,2025_Feb_08_1207,ConditionRich,2021.2.3,59.93364147228582,
32.75,33.0,41,0.0,Stimuli/Blank.png,0,0,0.0,0,58,58,58,,,,,,,,,,,,,32.779573799998616,0.02957379999861587,None,74.6163531000002,74.6163531000002,74.6163531000002,74.6163531000002,74.6163531000002,74.6163531000002,74.6163531000002,74.6163531000002,74.6163531000002,74.6163531000002,,005,P012,2025_Feb_08_1207,ConditionRich,2021.2.3,59.93364147228582,
33.0,33.75,15,0.75,Stimuli/P012/sun_bmngnyuahubpqroh.jpg,0,0,0.0,0,59,59,59,,,,,,,,,,,,,33.01431269999921,0.014312699999209144,None,74.8665746000006,74.8665746000006,74.8665746000006,74.8665746000006,74.8665746000006,74.8665746000006,74.8665746000006,74.8665746000006,74.8665746000006,74.8665746000006,,005,P012,2025_Feb_08_1207,ConditionRich,2021.2.3,59.93364147228582,
33.75,34.0,41,0.0,Stimuli/Blank.png,0,0,0.0,0,60,60,60,,,,,,,,,,,,,33.78073979999863,0.03073979999862786,None,75.61723490000077,75.61723490000077,75.61723490000077,75.61723490000077,75.61723490000077,75.61723490000077,75.61723490000077,75.61723490000077,75.61723490000077,75.61723490000077,,005,P012,2025_Feb_08_1207,ConditionRich,2021.2.3,59.93364147228582,
34.0,34.75,15,0.75,Stimuli/P012/sun_bmngnyuahubpqroh.jpg,0,0,0.0,0,61,61,61,,,,,,,,,,,,,34.01326709999921,0.013267099999211496,None,75.85076960000151,75.85076960000151,75.85076960000151,75.85076960000151,75.85076960000151,75.85076960000151,75.85076960000151,75.85076960000151,75.85076960000151,75.85076960000151,,005,P012,2025_Feb_08_1207,ConditionRich,2021.2.3,59.93364147228582,
34.75,35.0,41,0.0,Stimuli/Blank.png,0,0,0.0,0,62,62,62,,,,,,,,,,,,,34.76544079999985,0.015440799999851151,None,76.61811670000134,76.61811670000134,76.61811670000134,76.61811670000134,76.61811670000134,76.61811670000134,76.61811670000134,76.61811670000134,76.61811670000134,76.61811670000134,,005,P012,2025_Feb_08_1207,ConditionRich,2021.2.3,59.93364147228582,
35.0,35.75,15,0.75,Stimuli/P012/sun_bmngnyuahubpqroh.jpg,0,0,0.0,0,63,63,63,,,,,,,,,,,,,35.014912699998604,0.014912699998603784,None,76.86833230000047,76.86833230000047,76.86833230000047,76.86833230000047,76.86833230000047,76.86833230000047,76.86833230000047,76.86833230000047,76.86833230000047,76.86833230000047,,005,P012,2025_Feb_08_1207,ConditionRich,2021.2.3,59.93364147228582,
35.75,36.0,41,0.0,Stimuli/Blank.png,0,0,0.0,0,64,64,64,,,,,,,,,,,,,35.782180700000026,0.03218070000002626,None,77.61901370000123,77.61901370000123,77.61901370000123,77.61901370000123,77.61901370000123,77.61901370000123,77.61901370000123,77.61901370000123,77.61901370000123,77.61901370000123,,005,P012,2025_Feb_08_1207,ConditionRich,2021.2.3,59.93364147228582,
36.0,36.75,35,0.75,Stimuli/P012/things_raccoon_06n.jpg,0,0,0.0,0,65,65,65,,,,,,,,,,,,,35.99933079999937,-0.0006692000006296439,None,77.85257150000143,77.85257150000143,77.85257150000143,77.85257150000143,77.85257150000143,77.85257150000143,77.85257150000143,77.85257150000143,77.85257150000143,77.85257150000143,,005,P012,2025_Feb_08_1207,ConditionRich,2021.2.3,59.93364147228582,
36.75,37.0,41,0.0,Stimuli/Blank.png,0,0,0.0,0,66,66,66,,,,,,,,,,,,,36.766346299998986,0.01634629999898607,None,78.6032051000002,78.6032051000002,78.6032051000002,78.6032051000002,78.6032051000002,78.6032051000002,78.6032051000002,78.6032051000002,78.6032051000002,78.6032051000002,,005,P012,2025_Feb_08_1207,ConditionRich,2021.2.3,59.93364147228582,
37.0,37.75,35,0.75,Stimuli/P012/things_raccoon_06n.jpg,0,0,0.0,0,67,67,67,,,,,,,,,,,,,36.99913860000015,-0.0008613999998487998,None,78.83674570000039,78.83674570000039,78.83674570000039,78.83674570000039,78.83674570000039,78.83674570000039,78.83674570000039,78.83674570000039,78.83674570000039,78.83674570000039,,005,P012,2025_Feb_08_1207,ConditionRich,2021.2.3,59.93364147228582,
37.75,38.0,41,0.0,Stimuli/Blank.png,0,0,0.0,0,68,68,68,,,,,,,,,,,,,37.74982139999884,-0.00017860000116343144,None,79.58741230000123,79.58741230000123,79.58741230000123,79.58741230000123,79.58741230000123,79.58741230000123,79.58741230000123,79.58741230000123,79.58741230000123,79.58741230000123,,005,P012,2025_Feb_08_1207,ConditionRich,2021.2.3,59.93364147228582,
38.0,38.75,35,0.75,Stimuli/P012/things_raccoon_06n.jpg,0,0,0.0,0,69,69,69,,,,,,,,,,,,,38.00003049999941,3.0499999411404133e-05,None,79.83763290000024,79.83763290000024,79.83763290000024,79.83763290000024,79.83763290000024,79.83763290000024,79.83763290000024,79.83763290000024,79.83763290000024,79.83763290000024,,005,P012,2025_Feb_08_1207,ConditionRich,2021.2.3,59.93364147228582,
38.75,39.0,41,0.0,Stimuli/Blank.png,0,0,0.0,0,70,70,70,,,,,,,,,,,,,38.75105689999873,0.0010568999987299321,None,80.58829890000015,80.58829890000015,80.58829890000015,80.58829890000015,80.58829890000015,80.58829890000015,80.58829890000015,80.58829890000015,80.58829890000015,80.58829890000015,,005,P012,2025_Feb_08_1207,ConditionRich,2021.2.3,59.93364147228582,
39.0,39.75,35,0.75,Stimuli/P012/things_raccoon_06n.jpg,0,0,0.0,0,71,71,71,,,,,,,,,,,,,39.0011803999987,0.0011803999987023417,None,80.85521150000022,80.85521150000022,80.85521150000022,80.85521150000022,80.85521150000022,80.85521150000022,80.85521150000022,80.85521150000022,80.85521150000022,80.85521150000022,,005,P012,2025_Feb_08_1207,ConditionRich,2021.2.3,59.93364147228582,
39.75,40.0,41,0.0,Stimuli/Blank.png,0,0,0.0,0,72,72,72,,,,,,,,,,,,,39.76821949999976,0.018219499999759137,None,81.60587580000174,81.60587580000174,81.60587580000174,81.60587580000174,81.60587580000174,81.60587580000174,81.60587580000174,81.60587580000174,81.60587580000174,81.60587580000174,,005,P012,2025_Feb_08_1207,ConditionRich,2021.2.3,59.93364147228582,
40.0,40.75,8,0.75,Stimuli/P012/sun_asppejhsplpizvag.jpg,0,0,0.0,0,73,73,73,,,,,,,,,,,,,40.00497129999894,0.004971299998942413,None,81.85607960000016,81.85607960000016,81.85607960000016,81.85607960000016,81.85607960000016,81.85607960000016,81.85607960000016,81.85607960000016,81.85607960000016,81.85607960000016,,005,P012,2025_Feb_08_1207,ConditionRich,2021.2.3,59.93364147228582,
40.75,41.0,41,0.0,Stimuli/Blank.png,0,0,0.0,0,74,74,74,,,,,,,,,,,,,40.76945869999872,0.019458699998722295,None,82.60674560000007,82.60674560000007,82.60674560000007,82.60674560000007,82.60674560000007,82.60674560000007,82.60674560000007,82.60674560000007,82.60674560000007,82.60674560000007,,005,P012,2025_Feb_08_1207,ConditionRich,2021.2.3,59.93364147228582,
41.0,41.75,8,0.75,Stimuli/P012/sun_asppejhsplpizvag.jpg,0,0,0.0,0,75,75,75,,,,,,,,,,,,,41.00350950000029,0.0035095000002911547,None,82.85696940000162,82.85696940000162,82.85696940000162,82.85696940000162,82.85696940000162,82.85696940000162,82.85696940000162,82.85696940000162,82.85696940000162,82.85696940000162,,005,P012,2025_Feb_08_1207,ConditionRich,2021.2.3,59.93364147228582,
41.75,42.0,41,0.0,Stimuli/Blank.png,0,0,0.0,0,76,76,76,,,,,,,,,,,,,41.7704006999993,0.02040069999929983,None,83.60760690000097,83.60760690000097,83.60760690000097,83.60760690000097,83.60760690000097,83.60760690000097,83.60760690000097,83.60760690000097,83.60760690000097,83.60760690000097,,005,P012,2025_Feb_08_1207,ConditionRich,2021.2.3,59.93364147228582,
42.0,42.75,8,0.75,Stimuli/P012/sun_asppejhsplpizvag.jpg,0,0,0.0,0,77,77,77,,,,,,,,,,,,,42.004407000000356,0.004407000000355765,None,83.8578733000013,83.8578733000013,83.8578733000013,83.8578733000013,83.8578733000013,83.8578733000013,83.8578733000013,83.8578733000013,83.8578733000013,83.8578733000013,,005,P012,2025_Feb_08_1207,ConditionRich,2021.2.3,59.93364147228582,
42.75,43.0,41,0.0,Stimuli/Blank.png,0,0,0.0,0,78,78,78,,,,,,,,,,,,,42.77130899999975,0.021308999999746447,None,84.60848420000002,84.60848420000002,84.60848420000002,84.60848420000002,84.60848420000002,84.60848420000002,84.60848420000002,84.60848420000002,84.60848420000002,84.60848420000002,,005,P012,2025_Feb_08_1207,ConditionRich,2021.2.3,59.93364147228582,
43.0,43.75,8,0.75,Stimuli/P012/sun_asppejhsplpizvag.jpg,0,0,0.0,0,79,79,79,,,,,,,,,,,,,43.00441729999875,0.004417299998749513,None,84.8420582000017,84.8420582000017,84.8420582000017,84.8420582000017,84.8420582000017,84.8420582000017,84.8420582000017,84.8420582000017,84.8420582000017,84.8420582000017,,005,P012,2025_Feb_08_1207,ConditionRich,2021.2.3,59.93364147228582,
43.75,44.0,41,0.0,Stimuli/Blank.png,0,0,0.0,0,80,80,80,,,,,,,,,,,,,43.75519189999977,0.005191899999772431,None,85.59272200000123,85.59272200000123,85.59272200000123,85.59272200000123,85.59272200000123,85.59272200000123,85.59272200000123,85.59272200000123,85.59272200000123,85.59272200000123,,005,P012,2025_Feb_08_1207,ConditionRich,2021.2.3,59.93364147228582,
44.0,44.75,2,0.75,Stimuli/P012/sun_aewhvqonribwlxiq.jpg,0,0,0.0,0,81,81,81,,,,,,,,,,,,,44.005341599999156,0.005341599999155733,None,85.84294310000041,85.84294310000041,85.84294310000041,85.84294310000041,85.84294310000041,85.84294310000041,85.84294310000041,85.84294310000041,85.84294310000041,85.84294310000041,,005,P012,2025_Feb_08_1207,ConditionRich,2021.2.3,59.93364147228582,
44.75,45.0,41,0.0,Stimuli/Blank.png,0,0,0.0,0,82,82,82,,,,,,,,,,,,,44.75680829999874,0.006808299998738221,None,86.59361720000015,86.59361720000015,86.59361720000015,86.59361720000015,86.59361720000015,86.59361720000015,86.59361720000015,86.59361720000015,86.59361720000015,86.59361720000015,,005,P012,2025_Feb_08_1207,ConditionRich,2021.2.3,59.93364147228582,
45.0,45.75,2,0.75,Stimuli/P012/sun_aewhvqonribwlxiq.jpg,0,0,0.0,0,83,83,83,,,,,,,,,,,,,45.00619109999934,0.006191099999341532,None,86.86053890000039,86.86053890000039,86.86053890000039,86.86053890000039,86.86053890000039,86.86053890000039,86.86053890000039,86.86053890000039,86.86053890000039,86.86053890000039,,005,P012,2025_Feb_08_1207,ConditionRich,2021.2.3,59.93364147228582,
45.75,46.0,41,0.0,Stimuli/Blank.png,0,0,0.0,0,84,84,84,,,,,,,,,,,,,45.77416660000017,0.024166600000171456,None,87.61228530000153,87.61228530000153,87.61228530000153,87.61228530000153,87.61228530000153,87.61228530000153,87.61228530000153,87.61228530000153,87.61228530000153,87.61228530000153,,005,P012,2025_Feb_08_1207,ConditionRich,2021.2.3,59.93364147228582,
46.0,46.75,2,0.75,Stimuli/P012/sun_aewhvqonribwlxiq.jpg,0,0,0.0,0,85,85,85,,,,,,,,,,,,,46.007333199999266,0.007333199999266071,None,87.84467560000121,87.84467560000121,87.84467560000121,87.84467560000121,87.84467560000121,87.84467560000121,87.84467560000121,87.84467560000121,87.84467560000121,87.84467560000121,,005,P012,2025_Feb_08_1207,ConditionRich,2021.2.3,59.93364147228582,
46.75,47.0,41,0.0,Stimuli/Blank.png,0,0,0.0,0,86,86,86,,,,,,,,,,,,,46.758313099999214,0.008313099999213591,None,88.59537350000028,88.59537350000028,88.59537350000028,88.59537350000028,88.59537350000028,88.59537350000028,88.59537350000028,88.59537350000028,88.59537350000028,88.59537350000028,,005,P012,2025_Feb_08_1207,ConditionRich,2021.2.3,59.93364147228582,
47.0,47.75,2,0.75,Stimuli/P012/sun_aewhvqonribwlxiq.jpg,0,0,0.0,0,87,87,87,,,,,,,,,,,,,47.00831189999917,0.008311899999171146,None,88.84559340000123,88.84559340000123,88.84559340000123,88.84559340000123,88.84559340000123,88.84559340000123,88.84559340000123,88.84559340000123,88.84559340000123,88.84559340000123,,005,P012,2025_Feb_08_1207,ConditionRich,2021.2.3,59.93364147228582,
47.75,48.0,41,0.0,Stimuli/Blank.png,0,0,0.0,0,88,88,88,,,,,,,,,,,,,47.760028099999545,0.010028099999544793,None,89.59627910000017,89.59627910000017,89.59627910000017,89.59627910000017,89.59627910000017,89.59627910000017,89.59627910000017,89.59627910000017,89.59627910000017,89.59627910000017,,005,P012,2025_Feb_08_1207,ConditionRich,2021.2.3,59.93364147228582,
48.0,48.75,28,0.75,Stimuli/P012/things_grasshopper_06s.jpg,0,0,0.0,0,89,89,89,,,,,,,,,,,,,48.00940669999909,0.009406699999090051,None,89.84648410000045,89.84648410000045,89.84648410000045,89.84648410000045,89.84648410000045,89.84648410000045,89.84648410000045,89.84648410000045,89.84648410000045,89.84648410000045,,005,P012,2025_Feb_08_1207,ConditionRich,2021.2.3,59.93364147228582,
48.75,49.0,41,0.0,Stimuli/Blank.png,0,0,0.0,0,90,90,90,,,,,,,,,,,,,48.760408399999505,0.010408399999505491,None,90.59714310000163,90.59714310000163,90.59714310000163,90.59714310000163,90.59714310000163,90.59714310000163,90.59714310000163,90.59714310000163,90.59714310000163,90.59714310000163,,005,P012,2025_Feb_08_1207,ConditionRich,2021.2.3,59.93364147228582,
49.0,49.75,28,0.75,Stimuli/P012/things_grasshopper_06s.jpg,0,0,0.0,0,91,91,91,,,,,,,,,,,,,49.01069329999882,0.010693299998820294,None,90.86407760000111,90.86407760000111,90.86407760000111,90.86407760000111,90.86407760000111,90.86407760000111,90.86407760000111,90.86407760000111,90.86407760000111,90.86407760000111,,005,P012,2025_Feb_08_1207,ConditionRich,2021.2.3,59.93364147228582,
49.75,50.0,41,0.0,Stimuli/Blank.png,0,0,0.0,0,92,92,92,,,,,,,,,,,,,49.77910340000017,0.029103400000167312,None,91.63140150000072,91.63140150000072,91.63140150000072,91.63140150000072,91.63140150000072,91.63140150000072,91.63140150000072,91.63140150000072,91.63140150000072,91.63140150000072,,005,P012,2025_Feb_08_1207,ConditionRich,2021.2.3,59.93364147228582,
50.0,50.75,28,0.75,Stimuli/P012/things_grasshopper_06s.jpg,0,0,0.0,0,93,93,93,,,,,,,,,,,,,50.027864199999385,0.027864199999385164,None,91.86494290000155,91.86494290000155,91.86494290000155,91.86494290000155,91.86494290000155,91.86494290000155,91.86494290000155,91.86494290000155,91.86494290000155,91.86494290000155,,005,P012,2025_Feb_08_1207,ConditionRich,2021.2.3,59.93364147228582,
50.75,51.0,41,0.0,Stimuli/Blank.png,0,0,0.0,0,94,94,94,,,,,,,,,,,,,50.7621726999987,0.01217269999870041,None,92.59893790000024,92.59893790000024,92.59893790000024,92.59893790000024,92.59893790000024,92.59893790000024,92.59893790000024,92.59893790000024,92.59893790000024,92.59893790000024,,005,P012,2025_Feb_08_1207,ConditionRich,2021.2.3,59.93364147228582,
51.0,51.75,28,0.75,Stimuli/P012/things_grasshopper_06s.jpg,0,0,0.0,0,95,95,95,,,,,,,,,,,,,51.012257299998964,0.0122572999989643,None,92.86582680000174,92.86582680000174,92.86582680000174,92.86582680000174,92.86582680000174,92.86582680000174,92.86582680000174,92.86582680000174,92.86582680000174,92.86582680000174,,005,P012,2025_Feb_08_1207,ConditionRich,2021.2.3,59.93364147228582,
51.75,52.0,41,0.0,Stimuli/Blank.png,0,0,0.0,0,96,96,96,,,,,,,,,,,,,51.77954189999946,0.02954189999945811,None,93.6165030000011,93.6165030000011,93.6165030000011,93.6165030000011,93.6165030000011,93.6165030000011,93.6165030000011,93.6165030000011,93.6165030000011,93.6165030000011,,005,P012,2025_Feb_08_1207,ConditionRich,2021.2.3,59.93364147228582,
52.0,52.75,30,0.75,Stimuli/P012/things_hamburger_06s.jpg,0,0,0.0,0,97,97,97,,,,,,,,,,,,,52.01274589999957,0.01274589999957243,None,93.85002590000113,93.85002590000113,93.85002590000113,93.85002590000113,93.85002590000113,93.85002590000113,93.85002590000113,93.85002590000113,93.85002590000113,93.85002590000113,,005,P012,2025_Feb_08_1207,ConditionRich,2021.2.3,59.93364147228582,
52.75,53.0,41,0.0,Stimuli/Blank.png,0,0,0.0,0,98,98,98,,,,,,,,,,,,,52.76358319999963,0.013583199999629869,None,94.60069010000007,94.60069010000007,94.60069010000007,94.60069010000007,94.60069010000007,94.60069010000007,94.60069010000007,94.60069010000007,94.60069010000007,94.60069010000007,,005,P012,2025_Feb_08_1207,ConditionRich,2021.2.3,59.93364147228582,
53.0,53.75,30,0.75,Stimuli/P012/things_hamburger_06s.jpg,0,0,0.0,0,99,99,99,,,,,,,,,,,,,53.01322269999946,0.01322269999946002,None,94.85091710000052,94.85091710000052,94.85091710000052,94.85091710000052,94.85091710000052,94.85091710000052,94.85091710000052,94.85091710000052,94.85091710000052,94.85091710000052,,005,P012,2025_Feb_08_1207,ConditionRich,2021.2.3,59.93364147228582,
53.75,54.0,41,0.0,Stimuli/Blank.png,0,0,0.0,0,100,100,100,,,,,,,,,,,,,53.76452869999957,0.014528699999573291,None,95.60158090000004,95.60158090000004,95.60158090000004,95.60158090000004,95.60158090000004,95.60158090000004,95.60158090000004,95.60158090000004,95.60158090000004,95.60158090000004,,005,P012,2025_Feb_08_1207,ConditionRich,2021.2.3,59.93364147228582,
54.0,54.75,30,0.75,Stimuli/P012/things_hamburger_06s.jpg,0,0,0.0,0,101,101,101,,,,,,,,,,,,,54.01418339999873,0.014183399998728419,None,95.85179620000054,95.85179620000054,95.85179620000054,95.85179620000054,95.85179620000054,95.85179620000054,95.85179620000054,95.85179620000054,95.85179620000054,95.85179620000054,,005,P012,2025_Feb_08_1207,ConditionRich,2021.2.3,59.93364147228582,
54.75,55.0,41,0.0,Stimuli/Blank.png,0,0,0.0,0,102,102,102,,,,,,,,,,,,,54.7650907999996,0.015090799999597948,None,96.60246740000002,96.60246740000002,96.60246740000002,96.60246740000002,96.60246740000002,96.60246740000002,96.60246740000002,96.60246740000002,96.60246740000002,96.60246740000002,,005,P012,2025_Feb_08_1207,ConditionRich,2021.2.3,59.93364147228582,
55.0,55.75,30,0.75,Stimuli/P012/things_hamburger_06s.jpg,0,0,0.0,0,103,103,103,,,,,,,,,,,,,55.01584889999867,0.015848899998673005,None,96.86938380000174,96.86938380000174,96.86938380000174,96.86938380000174,96.86938380000174,96.86938380000174,96.86938380000174,96.86938380000174,96.86938380000174,96.86938380000174,,005,P012,2025_Feb_08_1207,ConditionRich,2021.2.3,59.93364147228582,
55.75,56.0,41,0.0,Stimuli/Blank.png,0,0,0.0,0,104,104,104,,,,,,,,,,,,,55.76580779999858,0.015807799998583505,None,97.60334330000114,97.60334330000114,97.60334330000114,97.60334330000114,97.60334330000114,97.60334330000114,97.60334330000114,97.60334330000114,97.60334330000114,97.60334330000114,,005,P012,2025_Feb_08_1207,ConditionRich,2021.2.3,59.93364147228582,
56.0,56.75,23,0.75,Stimuli/P012/things_clove_06s.jpg,1,0,0.75,0,105,105,105,,,,,,,,,,,,,56.00014959999862,0.00014959999862185214,2,97.85360160000164,97.85360160000164,97.85360160000164,97.85360160000164,97.85360160000164,97.85360160000164,97.85360160000164,98.57089910000104,97.85360160000164,97.85360160000164,0.46162440000080096,005,P012,2025_Feb_08_1207,ConditionRich,2021.2.3,59.93364147228582,
56.75,57.0,41,0.0,Stimuli/Blank.png,0,0,0.0,0,106,106,106,,,,,,,,,,,,,56.769266600000265,0.01926660000026459,None,98.62172950000058,98.62172950000058,98.62172950000058,98.62172950000058,98.62172950000058,98.62172950000058,98.62172950000058,98.62172950000058,98.62172950000058,98.62172950000058,,005,P012,2025_Feb_08_1207,ConditionRich,2021.2.3,59.93364147228582,
57.0,57.75,23,0.75,Stimuli/P012/things_clove_06s.jpg,0,0,0.0,0,107,107,107,,,,,,,,,,,,,57.0188933999998,0.01889339999979711,None,98.87114070000098,98.87114070000098,98.87114070000098,98.87114070000098,98.87114070000098,98.87114070000098,98.87114070000098,98.87114070000098,98.87114070000098,98.87114070000098,,005,P012,2025_Feb_08_1207,ConditionRich,2021.2.3,59.93364147228582,
57.75,58.0,41,0.0,Stimuli/Blank.png,0,0,0.0,0,108,108,108,,,,,,,,,,,,,57.76828690000002,0.018286900000020978,None,99.60511870000119,99.60511870000119,99.60511870000119,99.60511870000119,99.60511870000119,99.60511870000119,99.60511870000119,99.60511870000119,99.60511870000119,99.60511870000119,,005,P012,2025_Feb_08_1207,ConditionRich,2021.2.3,59.93364147228582,
58.0,58.75,23,0.75,Stimuli/P012/things_clove_06s.jpg,0,0,0.0,0,109,109,109,,,,,,,,,,,,,58.00153239999963,0.0015323999996326165,None,99.83865550000155,99.83865550000155,99.83865550000155,99.83865550000155,99.83865550000155,99.83865550000155,99.83865550000155,99.83865550000155,99.83865550000155,99.83865550000155,,005,P012,2025_Feb_08_1207,ConditionRich,2021.2.3,59.93364147228582,
58.75,59.0,41,0.0,Stimuli/Blank.png,0,0,0.0,0,110,110,110,,,,,,,,,,,,,58.754144099999394,0.004144099999393802,None,100.60600780000095,100.60600780000095,100.60600780000095,100.60600780000095,100.60600780000095,100.60600780000095,100.60600780000095,100.60600780000095,100.60600780000095,100.60600780000095,,005,P012,2025_Feb_08_1207,ConditionRich,2021.2.3,59.93364147228582,
59.0,59.75,23,0.75,Stimuli/P012/things_clove_06s.jpg,0,0,0.0,0,111,111,111,,,,,,,,,,,,,59.01946560000033,0.019465600000330596,None,100.856221,100.856221,100.856221,100.856221,100.856221,100.856221,100.856221,100.856221,100.856221,100.856221,,005,P012,2025_Feb_08_1207,ConditionRich,2021.2.3,59.93364147228582,
59.75,60.0,41,0.0,Stimuli/Blank.png,0,0,0.0,0,112,112,112,,,,,,,,,,,,,59.75327189999916,0.003271899999162997,None,101.59021500000017,101.59021500000017,101.59021500000017,101.59021500000017,101.59021500000017,101.59021500000017,101.59021500000017,101.59021500000017,101.59021500000017,101.59021500000017,,005,P012,2025_Feb_08_1207,ConditionRich,2021.2.3,59.93364147228582,
60.0,60.75,27,0.75,Stimuli/P012/things_girl_06s.jpg,1,0,0.75,0,113,113,113,,,,,,,,,,,,,60.0035343999989,0.0035343999988981523,2,101.85710980000113,101.85710980000113,101.85710980000113,101.85710980000113,101.85710980000113,101.85710980000113,101.85710980000113,102.57450100000096,101.85710980000113,101.85710980000113,0.36529390000032436,005,P012,2025_Feb_08_1207,ConditionRich,2021.2.3,59.93364147228582,
60.75,61.0,41,0.0,Stimuli/Blank.png,0,0,0.0,0,114,114,114,,,,,,,,,,,,,60.7702019999997,0.020201999999699183,None,102.60782830000062,102.60782830000062,102.60782830000062,102.60782830000062,102.60782830000062,102.60782830000062,102.60782830000062,102.60782830000062,102.60782830000062,102.60782830000062,,005,P012,2025_Feb_08_1207,ConditionRich,2021.2.3,59.93364147228582,
61.0,61.75,27,0.75,Stimuli/P012/things_girl_06s.jpg,0,0,0.0,0,115,115,115,,,,,,,,,,,,,61.00489809999999,0.004898099999991246,None,102.85800960000051,102.85800960000051,102.85800960000051,102.85800960000051,102.85800960000051,102.85800960000051,102.85800960000051,102.85800960000051,102.85800960000051,102.85800960000051,,005,P012,2025_Feb_08_1207,ConditionRich,2021.2.3,59.93364147228582,
61.75,62.0,41,0.0,Stimuli/Blank.png,0,0,0.0,0,116,116,116,,,,,,,,,,,,,61.773818499999834,0.023818499999833875,None,103.62536100000034,103.62536100000034,103.62536100000034,103.62536100000034,103.62536100000034,103.62536100000034,103.62536100000034,103.62536100000034,103.62536100000034,103.62536100000034,,005,P012,2025_Feb_08_1207,ConditionRich,2021.2.3,59.93364147228582,
62.0,62.75,27,0.75,Stimuli/P012/things_girl_06s.jpg,0,0,0.0,0,117,117,117,,,,,,,,,,,,,62.0212808999986,0.021280899998600944,None,103.87557420000121,103.87557420000121,103.87557420000121,103.87557420000121,103.87557420000121,103.87557420000121,103.87557420000121,103.87557420000121,103.87557420000121,103.87557420000121,,005,P012,2025_Feb_08_1207,ConditionRich,2021.2.3,59.93364147228582,
62.75,63.0,41,0.0,Stimuli/Blank.png,0,0,0.0,0,118,118,118,,,,,,,,,,,,,62.77413589999924,0.024135899999237154,None,104.62624200000027,104.62624200000027,104.62624200000027,104.62624200000027,104.62624200000027,104.62624200000027,104.62624200000027,104.62624200000027,104.62624200000027,104.62624200000027,,005,P012,2025_Feb_08_1207,ConditionRich,2021.2.3,59.93364147228582,
63.0,63.75,27,0.75,Stimuli/P012/things_girl_06s.jpg,0,0,0.0,0,119,119,119,,,,,,,,,,,,,63.02487990000009,0.02487990000008722,None,104.87644980000005,104.87644980000005,104.87644980000005,104.87644980000005,104.87644980000005,104.87644980000005,104.87644980000005,104.87644980000005,104.87644980000005,104.87644980000005,,005,P012,2025_Feb_08_1207,ConditionRich,2021.2.3,59.93364147228582,
63.75,64.0,41,0.0,Stimuli/Blank.png,0,0,0.0,0,120,120,120,,,,,,,,,,,,,63.77428129999862,0.024281299998619943,None,105.61043790000076,105.61043790000076,105.61043790000076,105.61043790000076,105.61043790000076,105.61043790000076,105.61043790000076,105.61043790000076,105.61043790000076,105.61043790000076,,005,P012,2025_Feb_08_1207,ConditionRich,2021.2.3,59.93364147228582,
64.0,64.75,39,0.75,Stimuli/P012/things_thermometer_06s.jpg,0,0,0.0,0,121,121,121,,,,,,,,,,,,,64.0063124999997,0.00631249999969441,None,105.86066060000121,105.86066060000121,105.86066060000121,105.86066060000121,105.86066060000121,105.86066060000121,105.86066060000121,105.86066060000121,105.86066060000121,105.86066060000121,,005,P012,2025_Feb_08_1207,ConditionRich,2021.2.3,59.93364147228582,
64.75,65.0,41,0.0,Stimuli/Blank.png,0,0,0.0,0,122,122,122,,,,,,,,,,,,,64.7745077999989,0.024507799998900737,None,106.61132130000078,106.61132130000078,106.61132130000078,106.61132130000078,106.61132130000078,106.61132130000078,106.61132130000078,106.61132130000078,106.61132130000078,106.61132130000078,,005,P012,2025_Feb_08_1207,ConditionRich,2021.2.3,59.93364147228582,
65.0,65.75,39,0.75,Stimuli/P012/things_thermometer_06s.jpg,0,0,0.0,0,123,123,123,,,,,,,,,,,,,65.01021349999974,0.010213499999736086,None,106.86208000000079,106.86208000000079,106.86208000000079,106.86208000000079,106.86208000000079,106.86208000000079,106.86208000000079,106.86208000000079,106.86208000000079,106.86208000000079,,005,P012,2025_Feb_08_1207,ConditionRich,2021.2.3,59.93364147228582,
65.75,66.0,41,0.0,Stimuli/Blank.png,0,0,0.0,0,124,124,124,,,,,,,,,,,,,65.77466689999892,0.02466689999891969,None,107.61220360000152,107.61220360000152,107.61220360000152,107.61220360000152,107.61220360000152,107.61220360000152,107.61220360000152,107.61220360000152,107.61220360000152,107.61220360000152,,005,P012,2025_Feb_08_1207,ConditionRich,2021.2.3,59.93364147228582,
66.0,66.75,39,0.75,Stimuli/P012/things_thermometer_06s.jpg,0,0,0.0,0,125,125,125,,,,,,,,,,,,,66.00844049999978,0.008440499999778694,None,107.84569790000023,107.84569790000023,107.84569790000023,107.84569790000023,107.84569790000023,107.84569790000023,107.84569790000023,107.84569790000023,107.84569790000023,107.84569790000023,,005,P012,2025_Feb_08_1207,ConditionRich,2021.2.3,59.93364147228582,
66.75,67.0,41,0.0,Stimuli/Blank.png,0,0,0.0,0,126,126,126,,,,,,,,,,,,,66.75950980000016,0.009509800000159885,None,108.59639900000002,108.59639900000002,108.59639900000002,108.59639900000002,108.59639900000002,108.59639900000002,108.59639900000002,108.59639900000002,108.59639900000002,108.59639900000002,,005,P012,2025_Feb_08_1207,ConditionRich,2021.2.3,59.93364147228582,
67.0,67.75,39,0.75,Stimuli/P012/things_thermometer_06s.jpg,0,0,0.0,0,127,127,127,,,,,,,,,,,,,67.0098354999991,0.009835499999098829,None,108.86327650000021,108.86327650000021,108.86327650000021,108.86327650000021,108.86327650000021,108.86327650000021,108.86327650000021,108.86327650000021,108.86327650000021,108.86327650000021,,005,P012,2025_Feb_08_1207,ConditionRich,2021.2.3,59.93364147228582,
67.75,68.0,41,0.0,Stimuli/Blank.png,0,0,0.0,0,128,128,128,,,,,,,,,,,,,67.7770905999987,0.02709059999870078,None,109.61397710000165,109.61397710000165,109.61397710000165,109.61397710000165,109.61397710000165,109.61397710000165,109.61397710000165,109.61397710000165,109.61397710000165,109.61397710000165,,005,P012,2025_Feb_08_1207,ConditionRich,2021.2.3,59.93364147228582,
68.0,68.75,11,0.75,Stimuli/P012/sun_baylllqlgfvxilor.jpg,0,0,0.0,0,129,129,129,,,,,,,,,,,,,68.01098959999945,0.010989599999447819,None,109.84747030000108,109.84747030000108,109.84747030000108,109.84747030000108,109.84747030000108,109.84747030000108,109.84747030000108,109.84747030000108,109.84747030000108,109.84747030000108,,005,P012,2025_Feb_08_1207,ConditionRich,2021.2.3,59.93364147228582,
68.75,69.0,41,0.0,Stimuli/Blank.png,0,0,0.0,0,130,130,130,,,,,,,,,,,,,68.76057899999978,0.010578999999779626,None,110.59816760000103,110.59816760000103,110.59816760000103,110.59816760000103,110.59816760000103,110.59816760000103,110.59816760000103,110.59816760000103,110.59816760000103,110.59816760000103,,005,P012,2025_Feb_08_1207,ConditionRich,2021.2.3,59.93364147228582,
69.0,69.75,11,0.75,Stimuli/P012/sun_baylllqlgfvxilor.jpg,0,0,0.0,0,131,131,131,,,,,,,,,,,,,69.0116984999986,0.01169849999860162,None,110.86507510000047,110.86507510000047,110.86507510000047,110.86507510000047,110.86507510000047,110.86507510000047,110.86507510000047,110.86507510000047,110.86507510000047,110.86507510000047,,005,P012,2025_Feb_08_1207,ConditionRich,2021.2.3,59.93364147228582,
69.75,70.0,41,0.0,Stimuli/Blank.png,0,0,0.0,0,132,132,132,,,,,,,,,,,,,69.77824969999892,0.02824969999892346,None,111.61570590000156,111.61570590000156,111.61570590000156,111.61570590000156,111.61570590000156,111.61570590000156,111.61570590000156,111.61570590000156,111.61570590000156,111.61570590000156,,005,P012,2025_Feb_08_1207,ConditionRich,2021.2.3,59.93364147228582,
70.0,70.75,11,0.75,Stimuli/P012/sun_baylllqlgfvxilor.jpg,0,0,0.0,0,133,133,133,,,,,,,,,,,,,70.0118681999993,0.011868199999298668,None,111.84927100000095,111.84927100000095,111.84927100000095,111.84927100000095,111.84927100000095,111.84927100000095,111.84927100000095,111.84927100000095,111.84927100000095,111.84927100000095,,005,P012,2025_Feb_08_1207,ConditionRich,2021.2.3,59.93364147228582,
70.75,71.0,41,0.0,Stimuli/Blank.png,0,0,0.0,0,134,134,134,,,,,,,,,,,,,70.7633206999999,0.013320699999894714,None,112.59994680000091,112.59994680000091,112.59994680000091,112.59994680000091,112.59994680000091,112.59994680000091,112.59994680000091,112.59994680000091,112.59994680000091,112.59994680000091,,005,P012,2025_Feb_08_1207,ConditionRich,2021.2.3,59.93364147228582,
71.0,71.75,11,0.75,Stimuli/P012/sun_baylllqlgfvxilor.jpg,0,0,0.0,0,135,135,135,,,,,,,,,,,,,71.01338479999868,0.01338479999867559,None,112.86684200000127,112.86684200000127,112.86684200000127,112.86684200000127,112.86684200000127,112.86684200000127,112.86684200000127,112.86684200000127,112.86684200000127,112.86684200000127,,005,P012,2025_Feb_08_1207,ConditionRich,2021.2.3,59.93364147228582,
71.75,72.0,41,0.0,Stimuli/Blank.png,0,0,0.0,0,136,136,136,,,,,,,,,,,,,71.7804860999986,0.030486099998597638,None,113.61750120000033,113.61750120000033,113.61750120000033,113.61750120000033,113.61750120000033,113.61750120000033,113.61750120000033,113.61750120000033,113.61750120000033,113.61750120000033,,005,P012,2025_Feb_08_1207,ConditionRich,2021.2.3,59.93364147228582,
72.0,72.75,36,0.75,Stimuli/P012/things_shower_cap_06s.jpg,0,0,0.0,0,137,137,137,,,,,,,,,,,,,72.01391369999874,0.013913699998738593,None,113.85105440000007,113.85105440000007,113.85105440000007,113.85105440000007,113.85105440000007,113.85105440000007,113.85105440000007,113.85105440000007,113.85105440000007,113.85105440000007,,005,P012,2025_Feb_08_1207,ConditionRich,2021.2.3,59.93364147228582,
72.75,73.0,41,0.0,Stimuli/Blank.png,0,0,0.0,0,138,138,138,,,,,,,,,,,,,72.76489260000017,0.014892600000166567,None,114.60171850000006,114.60171850000006,114.60171850000006,114.60171850000006,114.60171850000006,114.60171850000006,114.60171850000006,114.60171850000006,114.60171850000006,114.60171850000006,,005,P012,2025_Feb_08_1207,ConditionRich,2021.2.3,59.93364147228582,
73.0,73.75,36,0.75,Stimuli/P012/things_shower_cap_06s.jpg,0,0,0.0,0,139,139,139,,,,,,,,,,,,,73.01440149999871,0.014401499998712097,None,114.85192850000021,114.85192850000021,114.85192850000021,114.85192850000021,114.85192850000021,114.85192850000021,114.85192850000021,114.85192850000021,114.85192850000021,114.85192850000021,,005,P012,2025_Feb_08_1207,ConditionRich,2021.2.3,59.93364147228582,
73.75,74.0,41,0.0,Stimuli/Blank.png,0,0,0.0,0,140,140,140,,,,,,,,,,,,,73.76510959999905,0.01510959999905026,None,115.60259850000148,115.60259850000148,115.60259850000148,115.60259850000148,115.60259850000148,115.60259850000148,115.60259850000148,115.60259850000148,115.60259850000148,115.60259850000148,,005,P012,2025_Feb_08_1207,ConditionRich,2021.2.3,59.93364147228582,
74.0,74.75,36,0.75,Stimuli/P012/things_shower_cap_06s.jpg,0,0,0.0,0,141,141,141,,,,,,,,,,,,,74.01585949999935,0.0158594999993511,None,115.86951350000163,115.86951350000163,115.86951350000163,115.86951350000163,115.86951350000163,115.86951350000163,115.86951350000163,115.86951350000163,115.86951350000163,115.86951350000163,,005,P012,2025_Feb_08_1207,ConditionRich,2021.2.3,59.93364147228582,
74.75,75.0,41,0.0,Stimuli/Blank.png,0,0,0.0,0,142,142,142,,,,,,,,,,,,,74.76581400000032,0.01581400000031863,None,116.60348030000023,116.60348030000023,116.60348030000023,116.60348030000023,116.60348030000023,116.60348030000023,116.60348030000023,116.60348030000023,116.60348030000023,116.60348030000023,,005,P012,2025_Feb_08_1207,ConditionRich,2021.2.3,59.93364147228582,
75.0,75.75,36,0.75,Stimuli/P012/things_shower_cap_06s.jpg,0,0,0.0,0,143,143,143,,,,,,,,,,,,,75.00000109999928,1.0999992809956893e-06,None,116.83702920000178,116.83702920000178,116.83702920000178,116.83702920000178,116.83702920000178,116.83702920000178,116.83702920000178,116.83702920000178,116.83702920000178,116.83702920000178,,005,P012,2025_Feb_08_1207,ConditionRich,2021.2.3,59.93364147228582,
75.75,76.0,41,0.0,Stimuli/Blank.png,0,0,0.0,0,144,144,144,,,,,,,,,,,,,75.7503641000003,0.00036410000029718503,None,117.58768480000072,117.58768480000072,117.58768480000072,117.58768480000072,117.58768480000072,117.58768480000072,117.58768480000072,117.58768480000072,117.58768480000072,117.58768480000072,,005,P012,2025_Feb_08_1207,ConditionRich,2021.2.3,59.93364147228582,
76.0,76.75,40,0.75,Stimuli/P012/things_woman_06s.jpg,0,0,0.0,0,145,145,145,,,,,,,,,,,,,76.00059239999973,0.0005923999997321516,None,117.8546133000018,117.8546133000018,117.8546133000018,117.8546133000018,117.8546133000018,117.8546133000018,117.8546133000018,117.8546133000018,117.8546133000018,117.8546133000018,,005,P012,2025_Feb_08_1207,ConditionRich,2021.2.3,59.93364147228582,
76.75,77.0,41,0.0,Stimuli/Blank.png,0,0,0.0,0,146,146,146,,,,,,,,,,,,,76.76771559999906,0.01771559999906458,None,118.60529680000036,118.60529680000036,118.60529680000036,118.60529680000036,118.60529680000036,118.60529680000036,118.60529680000036,118.60529680000036,118.60529680000036,118.60529680000036,,005,P012,2025_Feb_08_1207,ConditionRich,2021.2.3,59.93364147228582,
77.0,77.75,40,0.75,Stimuli/P012/things_woman_06s.jpg,0,0,0.0,0,147,147,147,,,,,,,,,,,,,77.00423489999957,0.004234899999573827,None,118.8554791000006,118.8554791000006,118.8554791000006,118.8554791000006,118.8554791000006,118.8554791000006,118.8554791000006,118.8554791000006,118.8554791000006,118.8554791000006,,005,P012,2025_Feb_08_1207,ConditionRich,2021.2.3,59.93364147228582,
77.75,78.0,41,0.0,Stimuli/Blank.png,0,0,0.0,0,148,148,148,,,,,,,,,,,,,77.76896399999896,0.01896399999895948,None,119.60613870000088,119.60613870000088,119.60613870000088,119.60613870000088,119.60613870000088,119.60613870000088,119.60613870000088,119.60613870000088,119.60613870000088,119.60613870000088,,005,P012,2025_Feb_08_1207,ConditionRich,2021.2.3,59.93364147228582,
78.0,78.75,40,0.75,Stimuli/P012/things_woman_06s.jpg,0,0,0.0,0,149,149,149,,,,,,,,,,,,,78.00518170000032,0.005181700000321143,None,119.85634600000049,119.85634600000049,119.85634600000049,119.85634600000049,119.85634600000049,119.85634600000049,119.85634600000049,119.85634600000049,119.85634600000049,119.85634600000049,,005,P012,2025_Feb_08_1207,ConditionRich,2021.2.3,59.93364147228582,
78.75,79.0,41,0.0,Stimuli/Blank.png,0,0,0.0,0,150,150,150,,,,,,,,,,,,,78.77094249999936,0.020942499999364372,None,120.60906010000144,120.60906010000144,120.60906010000144,120.60906010000144,120.60906010000144,120.60906010000144,120.60906010000144,120.60906010000144,120.60906010000144,120.60906010000144,,005,P012,2025_Feb_08_1207,ConditionRich,2021.2.3,59.93364147228582,
79.0,79.75,40,0.75,Stimuli/P012/things_woman_06s.jpg,0,0,0.0,0,151,151,151,,,,,,,,,,,,,79.00357950000034,0.0035795000003417954,None,120.84056620000047,120.84056620000047,120.84056620000047,120.84056620000047,120.84056620000047,120.84056620000047,120.84056620000047,120.84056620000047,120.84056620000047,120.84056620000047,,005,P012,2025_Feb_08_1207,ConditionRich,2021.2.3,59.93364147228582,
79.75,80.0,41,0.0,Stimuli/Blank.png,0,0,0.0,0,152,152,152,,,,,,,,,,,,,79.75426789999983,0.00426789999983157,None,121.59123120000004,121.59123120000004,121.59123120000004,121.59123120000004,121.59123120000004,121.59123120000004,121.59123120000004,121.59123120000004,121.59123120000004,121.59123120000004,,005,P012,2025_Feb_08_1207,ConditionRich,2021.2.3,59.93364147228582,
80.0,80.75,17,0.75,Stimuli/P012/sun_btvwhlxbhcqnqzok.jpg,0,0,0.0,0,153,153,153,,,,,,,,,,,,,80.00548270000036,0.005482700000356999,None,121.858138900001,121.858138900001,121.858138900001,121.858138900001,121.858138900001,121.858138900001,121.858138900001,121.858138900001,121.858138900001,121.858138900001,,005,P012,2025_Feb_08_1207,ConditionRich,2021.2.3,59.93364147228582,
80.75,81.0,41,0.0,Stimuli/Blank.png,0,0,0.0,0,154,154,154,,,,,,,,,,,,,80.77166829999987,0.021668299999873852,None,122.60887260000163,122.60887260000163,122.60887260000163,122.60887260000163,122.60887260000163,122.60887260000163,122.60887260000163,122.60887260000163,122.60887260000163,122.60887260000163,,005,P012,2025_Feb_08_1207,ConditionRich,2021.2.3,59.93364147228582,
81.0,81.75,17,0.75,Stimuli/P012/sun_btvwhlxbhcqnqzok.jpg,0,0,0.0,0,155,155,155,,,,,,,,,,,,,81.00527779999902,0.0052777999990212265,None,122.8590365,122.8590365,122.8590365,122.8590365,122.8590365,122.8590365,122.8590365,122.8590365,122.8590365,122.8590365,,005,P012,2025_Feb_08_1207,ConditionRich,2021.2.3,59.93364147228582,
81.75,82.0,41,0.0,Stimuli/Blank.png,0,0,0.0,0,156,156,156,,,,,,,,,,,,,81.77238070000021,0.022380700000212528,None,123.6096817000016,123.6096817000016,123.6096817000016,123.6096817000016,123.6096817000016,123.6096817000016,123.6096817000016,123.6096817000016,123.6096817000016,123.6096817000016,,005,P012,2025_Feb_08_1207,ConditionRich,2021.2.3,59.93364147228582,
82.0,82.75,17,0.75,Stimuli/P012/sun_btvwhlxbhcqnqzok.jpg,0,0,0.0,0,157,157,157,,,,,,,,,,,,,82.00625709999986,0.006257099999857019,None,123.84317740000006,123.84317740000006,123.84317740000006,123.84317740000006,123.84317740000006,123.84317740000006,123.84317740000006,123.84317740000006,123.84317740000006,123.84317740000006,,005,P012,2025_Feb_08_1207,ConditionRich,2021.2.3,59.93364147228582,
82.75,83.0,41,0.0,Stimuli/Blank.png,0,0,0.0,0,158,158,158,,,,,,,,,,,,,82.75632799999948,0.006327999999484746,None,124.59387880000031,124.59387880000031,124.59387880000031,124.59387880000031,124.59387880000031,124.59387880000031,124.59387880000031,124.59387880000031,124.59387880000031,124.59387880000031,,005,P012,2025_Feb_08_1207,ConditionRich,2021.2.3,59.93364147228582,
83.0,83.75,17,0.75,Stimuli/P012/sun_btvwhlxbhcqnqzok.jpg,0,0,0.0,0,159,159,159,,,,,,,,,,,,,83.00947689999884,0.009476899998844601,None,124.86079360000076,124.86079360000076,124.86079360000076,124.86079360000076,124.86079360000076,124.86079360000076,124.86079360000076,124.86079360000076,124.86079360000076,124.86079360000076,,005,P012,2025_Feb_08_1207,ConditionRich,2021.2.3,59.93364147228582,
83.75,84.0,41,0.0,Stimuli/Blank.png,0,0,0.0,0,160,160,160,,,,,,,,,,,,,83.77482269999928,0.024822699999276665,None,125.61145110000143,125.61145110000143,125.61145110000143,125.61145110000143,125.61145110000143,125.61145110000143,125.61145110000143,125.61145110000143,125.61145110000143,125.61145110000143,,005,P012,2025_Feb_08_1207,ConditionRich,2021.2.3,59.93364147228582,
84.0,100.0,0,0.0,Stimuli/Blank.png,1,12,12.75,0,161,161,161,,,,,,,,,,,,,84.01041459999942,0.010414599999421625,2,125.86164550000103,125.86164550000103,125.86164550000103,125.86164550000103,125.86164550000103,125.86164550000103,137.8555879000014,138.58963870000116,125.86164550000103,125.86164550000103,12.397966000000451,005,P012,2025_Feb_08_1207,ConditionRich,2021.2.3,59.93364147228582,
100.0,100.75,9,0.75,Stimuli/P012/sun_aupohozmrmtfgcsw.jpg,0,0,0.0,0,162,162,162,,,,,,,,,,,,,100.02265329999864,0.02265329999863752,None,141.85915560000103,141.85915560000103,141.85915560000103,141.85915560000103,141.85915560000103,141.85915560000103,141.85915560000103,141.85915560000103,141.85915560000103,141.85915560000103,,005,P012,2025_Feb_08_1207,ConditionRich,2021.2.3,59.93364147228582,
100.75,101.0,41,0.0,Stimuli/Blank.png,0,0,0.0,0,163,163,163,,,,,,,,,,,,,100.75618409999879,0.006184099998790771,None,142.59314760000052,142.59314760000052,142.59314760000052,142.59314760000052,142.59314760000052,142.59314760000052,142.59314760000052,142.59314760000052,142.59314760000052,142.59314760000052,,005,P012,2025_Feb_08_1207,ConditionRich,2021.2.3,59.93364147228582,
101.0,101.75,9,0.75,Stimuli/P012/sun_aupohozmrmtfgcsw.jpg,0,0,0.0,0,164,164,164,,,,,,,,,,,,,101.0063857999994,0.006385799999407027,None,142.8433522000014,142.8433522000014,142.8433522000014,142.8433522000014,142.8433522000014,142.8433522000014,142.8433522000014,142.8433522000014,142.8433522000014,142.8433522000014,,005,P012,2025_Feb_08_1207,ConditionRich,2021.2.3,59.93364147228582,
101.75,102.0,41,0.0,Stimuli/Blank.png,0,0,0.0,0,165,165,165,,,,,,,,,,,,,101.75640819999899,0.0064081999989866745,None,143.59402910000063,143.59402910000063,143.59402910000063,143.59402910000063,143.59402910000063,143.59402910000063,143.59402910000063,143.59402910000063,143.59402910000063,143.59402910000063,,005,P012,2025_Feb_08_1207,ConditionRich,2021.2.3,59.93364147228582,
102.0,102.75,9,0.75,Stimuli/P012/sun_aupohozmrmtfgcsw.jpg,0,0,0.0,0,166,166,166,,,,,,,,,,,,,102.00936829999955,0.0093682999995508,None,143.86093940000137,143.86093940000137,143.86093940000137,143.86093940000137,143.86093940000137,143.86093940000137,143.86093940000137,143.86093940000137,143.86093940000137,143.86093940000137,,005,P012,2025_Feb_08_1207,ConditionRich,2021.2.3,59.93364147228582,
102.75,103.0,41,0.0,Stimuli/Blank.png,0,0,0.0,0,167,167,167,,,,,,,,,,,,,102.77548029999889,0.025480299998889677,None,144.62824300000102,144.62824300000102,144.62824300000102,144.62824300000102,144.62824300000102,144.62824300000102,144.62824300000102,144.62824300000102,144.62824300000102,144.62824300000102,,005,P012,2025_Feb_08_1207,ConditionRich,2021.2.3,59.93364147228582,
103.0,103.75,9,0.75,Stimuli/P012/sun_aupohozmrmtfgcsw.jpg,0,0,0.0,0,168,168,168,,,,,,,,,,,,,103.0242244000001,0.024224400000093738,None,144.86180180000156,144.86180180000156,144.86180180000156,144.86180180000156,144.86180180000156,144.86180180000156,144.86180180000156,144.86180180000156,144.86180180000156,144.86180180000156,,005,P012,2025_Feb_08_1207,ConditionRich,2021.2.3,59.93364147228582,
103.75,104.0,41,0.0,Stimuli/Blank.png,0,0,0.0,0,169,169,169,,,,,,,,,,,,,103.75871659999939,0.008716599999388563,None,145.595805500001,145.595805500001,145.595805500001,145.595805500001,145.595805500001,145.595805500001,145.595805500001,145.595805500001,145.595805500001,145.595805500001,,005,P012,2025_Feb_08_1207,ConditionRich,2021.2.3,59.93364147228582,
104.0,104.75,21,0.75,Stimuli/P012/things_baby_06s.jpg,0,0,0.0,0,170,170,170,,,,,,,,,,,,,104.00948509999944,0.009485099999437807,None,145.8626918000009,145.8626918000009,145.8626918000009,145.8626918000009,145.8626918000009,145.8626918000009,145.8626918000009,145.8626918000009,145.8626918000009,145.8626918000009,,005,P012,2025_Feb_08_1207,ConditionRich,2021.2.3,59.93364147228582,
104.75,105.0,41,0.0,Stimuli/Blank.png,0,0,0.0,0,171,171,171,,,,,,,,,,,,,104.77574879999884,0.025748799998837058,None,146.61335770000005,146.61335770000005,146.61335770000005,146.61335770000005,146.61335770000005,146.61335770000005,146.61335770000005,146.61335770000005,146.61335770000005,146.61335770000005,,005,P012,2025_Feb_08_1207,ConditionRich,2021.2.3,59.93364147228582,
105.0,105.75,21,0.75,Stimuli/P012/things_baby_06s.jpg,0,0,0.0,0,172,172,172,,,,,,,,,,,,,105.0092726999992,0.009272699999200995,None,146.84689470000012,146.84689470000012,146.84689470000012,146.84689470000012,146.84689470000012,146.84689470000012,146.84689470000012,146.84689470000012,146.84689470000012,146.84689470000012,,005,P012,2025_Feb_08_1207,ConditionRich,2021.2.3,59.93364147228582,
105.75,106.0,41,0.0,Stimuli/Blank.png,0,0,0.0,0,173,173,173,,,,,,,,,,,,,105.76132479999978,0.011324799999783863,None,147.59755730000143,147.59755730000143,147.59755730000143,147.59755730000143,147.59755730000143,147.59755730000143,147.59755730000143,147.59755730000143,147.59755730000143,147.59755730000143,,005,P012,2025_Feb_08_1207,ConditionRich,2021.2.3,59.93364147228582,
106.0,106.75,21,0.75,Stimuli/P012/things_baby_06s.jpg,0,0,0.0,0,174,174,174,,,,,,,,,,,,,106.0103438999995,0.010343899999497808,None,147.8477520000015,147.8477520000015,147.8477520000015,147.8477520000015,147.8477520000015,147.8477520000015,147.8477520000015,147.8477520000015,147.8477520000015,147.8477520000015,,005,P012,2025_Feb_08_1207,ConditionRich,2021.2.3,59.93364147228582,
106.75,107.0,41,0.0,Stimuli/Blank.png,0,0,0.0,0,175,175,175,,,,,,,,,,,,,106.7613941999989,0.011394199998903787,None,148.59844450000128,148.59844450000128,148.59844450000128,148.59844450000128,148.59844450000128,148.59844450000128,148.59844450000128,148.59844450000128,148.59844450000128,148.59844450000128,,005,P012,2025_Feb_08_1207,ConditionRich,2021.2.3,59.93364147228582,
107.0,107.75,21,0.75,Stimuli/P012/things_baby_06s.jpg,1,0,0.75,0,176,176,176,,,,,,,,,,,,,107.01121989999956,0.011219899999559857,2,148.84867230000054,148.84867230000054,148.84867230000054,148.84867230000054,148.84867230000054,148.84867230000054,148.84867230000054,149.58272680000118,148.84867230000054,148.84867230000054,0.5007595999995829,005,P012,2025_Feb_08_1207,ConditionRich,2021.2.3,59.93364147228582,
107.75,108.0,41,0.0,Stimuli/Blank.png,0,0,0.0,0,177,177,177,,,,,,,,,,,,,107.7641851999997,0.014185199999701581,None,149.61601770000016,149.61601770000016,149.61601770000016,149.61601770000016,149.61601770000016,149.61601770000016,149.61601770000016,149.61601770000016,149.61601770000016,149.61601770000016,,005,P012,2025_Feb_08_1207,ConditionRich,2021.2.3,59.93364147228582,
108.0,108.75,4,0.75,Stimuli/P012/sun_akpdzjejmtbfopdt.jpg,0,0,0.0,0,178,178,178,,,,,,,,,,,,,108.02917129999878,0.029171299998779432,None,149.86621200000081,149.86621200000081,149.86621200000081,149.86621200000081,149.86621200000081,149.86621200000081,149.86621200000081,149.86621200000081,149.86621200000081,149.86621200000081,,005,P012,2025_Feb_08_1207,ConditionRich,2021.2.3,59.93364147228582,
108.75,109.0,41,0.0,Stimuli/Blank.png,0,0,0.0,0,179,179,179,,,,,,,,,,,,,108.76331759999994,0.013317599999936647,None,150.6002367000001,150.6002367000001,150.6002367000001,150.6002367000001,150.6002367000001,150.6002367000001,150.6002367000001,150.6002367000001,150.6002367000001,150.6002367000001,,005,P012,2025_Feb_08_1207,ConditionRich,2021.2.3,59.93364147228582,
109.0,109.75,4,0.75,Stimuli/P012/sun_akpdzjejmtbfopdt.jpg,0,0,0.0,0,180,180,180,,,,,,,,,,,,,109.01359869999942,0.013598699999420205,None,150.86712380000063,150.86712380000063,150.86712380000063,150.86712380000063,150.86712380000063,150.86712380000063,150.86712380000063,150.86712380000063,150.86712380000063,150.86712380000063,,005,P012,2025_Feb_08_1207,ConditionRich,2021.2.3,59.93364147228582,
109.75,110.0,41,0.0,Stimuli/Blank.png,0,0,0.0,0,181,181,181,,,,,,,,,,,,,109.7808802999989,0.03088029999889841,None,151.61778480000066,151.61778480000066,151.61778480000066,151.61778480000066,151.61778480000066,151.61778480000066,151.61778480000066,151.61778480000066,151.61778480000066,151.61778480000066,,005,P012,2025_Feb_08_1207,ConditionRich,2021.2.3,59.93364147228582,
110.0,110.75,4,0.75,Stimuli/P012/sun_akpdzjejmtbfopdt.jpg,0,0,0.0,0,182,182,182,,,,,,,,,,,,,110.01428589999887,0.014285899998867535,None,151.85132220000014,151.85132220000014,151.85132220000014,151.85132220000014,151.85132220000014,151.85132220000014,151.85132220000014,151.85132220000014,151.85132220000014,151.85132220000014,,005,P012,2025_Feb_08_1207,ConditionRich,2021.2.3,59.93364147228582,
110.75,111.0,41,0.0,Stimuli/Blank.png,0,0,0.0,0,183,183,183,,,,,,,,,,,,,110.76461869999912,0.01461869999911869,None,152.60202350000145,152.60202350000145,152.60202350000145,152.60202350000145,152.60202350000145,152.60202350000145,152.60202350000145,152.60202350000145,152.60202350000145,152.60202350000145,,005,P012,2025_Feb_08_1207,ConditionRich,2021.2.3,59.93364147228582,
111.0,111.75,4,0.75,Stimuli/P012/sun_akpdzjejmtbfopdt.jpg,0,0,0.0,0,184,184,184,,,,,,,,,,,,,111.01524199999949,0.015241999999489053,None,152.85222430000067,152.85222430000067,152.85222430000067,152.85222430000067,152.85222430000067,152.85222430000067,152.85222430000067,152.85222430000067,152.85222430000067,152.85222430000067,,005,P012,2025_Feb_08_1207,ConditionRich,2021.2.3,59.93364147228582,
111.75,112.0,41,0.0,Stimuli/Blank.png,0,0,0.0,0,185,185,185,,,,,,,,,,,,,111.7492413,-0.0007587000000057742,None,153.5861997000011,153.5861997000011,153.5861997000011,153.5861997000011,153.5861997000011,153.5861997000011,153.5861997000011,153.5861997000011,153.5861997000011,153.5861997000011,,005,P012,2025_Feb_08_1207,ConditionRich,2021.2.3,59.93364147228582,
112.0,112.75,3,0.75,Stimuli/P012/sun_afdaynbvsppiyvxm.jpg,0,0,0.0,0,186,186,186,,,,,,,,,,,,,112.00036629999886,0.0003662999988591764,None,153.85310260000006,153.85310260000006,153.85310260000006,153.85310260000006,153.85310260000006,153.85310260000006,153.85310260000006,153.85310260000006,153.85310260000006,153.85310260000006,,005,P012,2025_Feb_08_1207,ConditionRich,2021.2.3,59.93364147228582,
112.75,113.0,41,0.0,Stimuli/Blank.png,0,0,0.0,0,187,187,187,,,,,,,,,,,,,112.76892409999891,0.018924099998912425,None,154.6204701000006,154.6204701000006,154.6204701000006,154.6204701000006,154.6204701000006,154.6204701000006,154.6204701000006,154.6204701000006,154.6204701000006,154.6204701000006,,005,P012,2025_Feb_08_1207,ConditionRich,2021.2.3,59.93364147228582,
113.0,113.75,3,0.75,Stimuli/P012/sun_afdaynbvsppiyvxm.jpg,0,0,0.0,0,188,188,188,,,,,,,,,,,,,113.01942090000011,0.01942090000011376,None,154.8706682000011,154.8706682000011,154.8706682000011,154.8706682000011,154.8706682000011,154.8706682000011,154.8706682000011,154.8706682000011,154.8706682000011,154.8706682000011,,005,P012,2025_Feb_08_1207,ConditionRich,2021.2.3,59.93364147228582,
113.75,114.0,41,0.0,Stimuli/Blank.png,0,0,0.0,0,189,189,189,,,,,,,,,,,,,113.77010510000036,0.020105100000364473,None,155.6213338000016,155.6213338000016,155.6213338000016,155.6213338000016,155.6213338000016,155.6213338000016,155.6213338000016,155.6213338000016,155.6213338000016,155.6213338000016,,005,P012,2025_Feb_08_1207,ConditionRich,2021.2.3,59.93364147228582,
114.0,114.75,3,0.75,Stimuli/P012/sun_afdaynbvsppiyvxm.jpg,0,0,0.0,0,190,190,190,,,,,,,,,,,,,114.01781109999865,0.017811099998652935,None,155.85486720000154,155.85486720000154,155.85486720000154,155.85486720000154,155.85486720000154,155.85486720000154,155.85486720000154,155.85486720000154,155.85486720000154,155.85486720000154,,005,P012,2025_Feb_08_1207,ConditionRich,2021.2.3,59.93364147228582,
114.75,115.0,41,0.0,Stimuli/Blank.png,0,0,0.0,0,191,191,191,,,,,,,,,,,,,114.75162819999969,0.0016281999996863306,None,156.5888474000003,156.5888474000003,156.5888474000003,156.5888474000003,156.5888474000003,156.5888474000003,156.5888474000003,156.5888474000003,156.5888474000003,156.5888474000003,,005,P012,2025_Feb_08_1207,ConditionRich,2021.2.3,59.93364147228582,
115.0,115.75,3,0.75,Stimuli/P012/sun_afdaynbvsppiyvxm.jpg,1,0,0.75,0,192,192,192,,,,,,,,,,,,,115.00393049999911,0.003930499999114545,2,156.8558776000009,156.8558776000009,156.8558776000009,156.8558776000009,156.8558776000009,156.8558776000009,156.8558776000009,157.58975720000126,156.8558776000009,156.8558776000009,0.40249150000090594,005,P012,2025_Feb_08_1207,ConditionRich,2021.2.3,59.93364147228582,
115.75,116.0,41,0.0,Stimuli/Blank.png,0,0,0.0,0,193,193,193,,,,,,,,,,,,,115.7699096999986,0.01990969999860681,None,157.60639690000062,157.60639690000062,157.60639690000062,157.60639690000062,157.60639690000062,157.60639690000062,157.60639690000062,157.60639690000062,157.60639690000062,157.60639690000062,,005,P012,2025_Feb_08_1207,ConditionRich,2021.2.3,59.93364147228582,
116.0,116.75,16,0.75,Stimuli/P012/sun_bpuwvyadswjfoaby.jpg,0,0,0.0,0,194,194,194,,,,,,,,,,,,,116.00321280000026,0.003212800000255811,None,157.85663900000145,157.85663900000145,157.85663900000145,157.85663900000145,157.85663900000145,157.85663900000145,157.85663900000145,157.85663900000145,157.85663900000145,157.85663900000145,,005,P012,2025_Feb_08_1207,ConditionRich,2021.2.3,59.93364147228582,
116.75,117.0,41,0.0,Stimuli/Blank.png,0,0,0.0,0,195,195,195,,,,,,,,,,,,,116.76997429999938,0.019974299999375944,None,158.6073047000009,158.6073047000009,158.6073047000009,158.6073047000009,158.6073047000009,158.6073047000009,158.6073047000009,158.6073047000009,158.6073047000009,158.6073047000009,,005,P012,2025_Feb_08_1207,ConditionRich,2021.2.3,59.93364147228582,
117.0,117.75,16,0.75,Stimuli/P012/sun_bpuwvyadswjfoaby.jpg,0,0,0.0,0,196,196,196,,,,,,,,,,,,,117.00393819999954,0.003938199999538483,None,158.85756370000126,158.85756370000126,158.85756370000126,158.85756370000126,158.85756370000126,158.85756370000126,158.85756370000126,158.85756370000126,158.85756370000126,158.85756370000126,,005,P012,2025_Feb_08_1207,ConditionRich,2021.2.3,59.93364147228582,
117.75,118.0,41,0.0,Stimuli/Blank.png,0,0,0.0,0,197,197,197,,,,,,,,,,,,,117.77053069999965,0.020530699999653734,None,159.60818070000096,159.60818070000096,159.60818070000096,159.60818070000096,159.60818070000096,159.60818070000096,159.60818070000096,159.60818070000096,159.60818070000096,159.60818070000096,,005,P012,2025_Feb_08_1207,ConditionRich,2021.2.3,59.93364147228582,
118.0,118.75,16,0.75,Stimuli/P012/sun_bpuwvyadswjfoaby.jpg,0,0,0.0,0,198,198,198,,,,,,,,,,,,,118.00485789999948,0.004857899999478832,None,159.85839970000052,159.85839970000052,159.85839970000052,159.85839970000052,159.85839970000052,159.85839970000052,159.85839970000052,159.85839970000052,159.85839970000052,159.85839970000052,,005,P012,2025_Feb_08_1207,ConditionRich,2021.2.3,59.93364147228582,
118.75,119.0,41,0.0,Stimuli/Blank.png,0,0,0.0,0,199,199,199,,,,,,,,,,,,,118.7715649999991,0.02156499999910011,None,160.60906850000174,160.60906850000174,160.60906850000174,160.60906850000174,160.60906850000174,160.60906850000174,160.60906850000174,160.60906850000174,160.60906850000174,160.60906850000174,,005,P012,2025_Feb_08_1207,ConditionRich,2021.2.3,59.93364147228582,
119.0,119.75,16,0.75,Stimuli/P012/sun_bpuwvyadswjfoaby.jpg,0,0,0.0,0,200,200,200,,,,,,,,,,,,,119.005144499999,0.0051444999990053475,None,160.84258000000045,160.84258000000045,160.84258000000045,160.84258000000045,160.84258000000045,160.84258000000045,160.84258000000045,160.84258000000045,160.84258000000045,160.84258000000045,,005,P012,2025_Feb_08_1207,ConditionRich,2021.2.3,59.93364147228582,
119.75,120.0,41,0.0,Stimuli/Blank.png,0,0,0.0,0,201,201,201,,,,,,,,,,,,,119.75576059999912,0.005760599999121041,None,161.5932816000004,161.5932816000004,161.5932816000004,161.5932816000004,161.5932816000004,161.5932816000004,161.5932816000004,161.5932816000004,161.5932816000004,161.5932816000004,,005,P012,2025_Feb_08_1207,ConditionRich,2021.2.3,59.93364147228582,
120.0,120.75,33,0.75,Stimuli/P012/things_hot-air_balloon_06s.jpg,0,0,0.0,0,202,202,202,,,,,,,,,,,,,120.00942339999892,0.009423399998922832,None,161.86018240000158,161.86018240000158,161.86018240000158,161.86018240000158,161.86018240000158,161.86018240000158,161.86018240000158,161.86018240000158,161.86018240000158,161.86018240000158,,005,P012,2025_Feb_08_1207,ConditionRich,2021.2.3,59.93364147228582,
120.75,121.0,41,0.0,Stimuli/Blank.png,0,0,0.0,0,203,203,203,,,,,,,,,,,,,120.77388689999862,0.023886899998615263,None,162.61085080000157,162.61085080000157,162.61085080000157,162.61085080000157,162.61085080000157,162.61085080000157,162.61085080000157,162.61085080000157,162.61085080000157,162.61085080000157,,005,P012,2025_Feb_08_1207,ConditionRich,2021.2.3,59.93364147228582,
121.0,121.75,33,0.75,Stimuli/P012/things_hot-air_balloon_06s.jpg,0,0,0.0,0,204,204,204,,,,,,,,,,,,,121.00903399999879,0.009033999998791842,None,162.86107250000168,162.86107250000168,162.86107250000168,162.86107250000168,162.86107250000168,162.86107250000168,162.86107250000168,162.86107250000168,162.86107250000168,162.86107250000168,,005,P012,2025_Feb_08_1207,ConditionRich,2021.2.3,59.93364147228582,
121.75,122.0,41,0.0,Stimuli/Blank.png,0,0,0.0,0,205,205,205,,,,,,,,,,,,,121.77424139999857,0.024241399998572888,None,163.61172850000003,163.61172850000003,163.61172850000003,163.61172850000003,163.61172850000003,163.61172850000003,163.61172850000003,163.61172850000003,163.61172850000003,163.61172850000003,,005,P012,2025_Feb_08_1207,ConditionRich,2021.2.3,59.93364147228582,
122.0,122.75,33,0.75,Stimuli/P012/things_hot-air_balloon_06s.jpg,0,0,0.0,0,206,206,206,,,,,,,,,,,,,122.01005689999874,0.010056899998744484,None,163.86196630000086,163.86196630000086,163.86196630000086,163.86196630000086,163.86196630000086,163.86196630000086,163.86196630000086,163.86196630000086,163.86196630000086,163.86196630000086,,005,P012,2025_Feb_08_1207,ConditionRich,2021.2.3,59.93364147228582,
122.75,123.0,41,0.0,Stimuli/Blank.png,0,0,0.0,0,207,207,207,,,,,,,,,,,,,122.77499929999976,0.024999299999763025,None,164.61260920000132,164.61260920000132,164.61260920000132,164.61260920000132,164.61260920000132,164.61260920000132,164.61260920000132,164.61260920000132,164.61260920000132,164.61260920000132,,005,P012,2025_Feb_08_1207,ConditionRich,2021.2.3,59.93364147228582,
123.0,123.75,33,0.75,Stimuli/P012/things_hot-air_balloon_06s.jpg,0,0,0.0,0,208,208,208,,,,,,,,,,,,,123.00861919999988,0.008619199999884586,None,164.84616910000113,164.84616910000113,164.84616910000113,164.84616910000113,164.84616910000113,164.84616910000113,164.84616910000113,164.84616910000113,164.84616910000113,164.84616910000113,,005,P012,2025_Feb_08_1207,ConditionRich,2021.2.3,59.93364147228582,
123.75,124.0,41,0.0,Stimuli/Blank.png,0,0,0.0,0,209,209,209,,,,,,,,,,,,,123.75930189999963,0.009301899999627494,None,165.5968171000004,165.5968171000004,165.5968171000004,165.5968171000004,165.5968171000004,165.5968171000004,165.5968171000004,165.5968171000004,165.5968171000004,165.5968171000004,,005,P012,2025_Feb_08_1207,ConditionRich,2021.2.3,59.93364147228582,
124.0,124.75,6,0.75,Stimuli/P012/sun_aqysdudvyxnkcxgq.jpg,0,0,0.0,0,210,210,210,,,,,,,,,,,,,124.00983859999906,0.009838599999056896,None,165.84702840000136,165.84702840000136,165.84702840000136,165.84702840000136,165.84702840000136,165.84702840000136,165.84702840000136,165.84702840000136,165.84702840000136,165.84702840000136,,005,P012,2025_Feb_08_1207,ConditionRich,2021.2.3,59.93364147228582,
124.75,125.0,41,0.0,Stimuli/Blank.png,0,0,0.0,0,211,211,211,,,,,,,,,,,,,124.76015449999977,0.01015449999977136,None,166.59770190000017,166.59770190000017,166.59770190000017,166.59770190000017,166.59770190000017,166.59770190000017,166.59770190000017,166.59770190000017,166.59770190000017,166.59770190000017,,005,P012,2025_Feb_08_1207,ConditionRich,2021.2.3,59.93364147228582,
125.0,125.75,6,0.75,Stimuli/P012/sun_aqysdudvyxnkcxgq.jpg,0,0,0.0,0,212,212,212,,,,,,,,,,,,,125.0140367999993,0.014036799999303184,None,166.8646176000002,166.8646176000002,166.8646176000002,166.8646176000002,166.8646176000002,166.8646176000002,166.8646176000002,166.8646176000002,166.8646176000002,166.8646176000002,,005,P012,2025_Feb_08_1207,ConditionRich,2021.2.3,59.93364147228582,
125.75,126.0,41,0.0,Stimuli/Blank.png,0,0,0.0,0,213,213,213,,,,,,,,,,,,,125.77864839999893,0.028648399998928653,None,167.61528540000108,167.61528540000108,167.61528540000108,167.61528540000108,167.61528540000108,167.61528540000108,167.61528540000108,167.61528540000108,167.61528540000108,167.61528540000108,,005,P012,2025_Feb_08_1207,ConditionRich,2021.2.3,59.93364147228582,
126.0,126.75,6,0.75,Stimuli/P012/sun_aqysdudvyxnkcxgq.jpg,0,0,0.0,0,214,214,214,,,,,,,,,,,,,126.01115749999917,0.011157499999171705,None,167.86549900000136,167.86549900000136,167.86549900000136,167.86549900000136,167.86549900000136,167.86549900000136,167.86549900000136,167.86549900000136,167.86549900000136,167.86549900000136,,005,P012,2025_Feb_08_1207,ConditionRich,2021.2.3,59.93364147228582,
126.75,127.0,41,0.0,Stimuli/Blank.png,0,0,0.0,0,215,215,215,,,,,,,,,,,,,126.77884369999992,0.028843699999924866,None,168.61615970000094,168.61615970000094,168.61615970000094,168.61615970000094,168.61615970000094,168.61615970000094,168.61615970000094,168.61615970000094,168.61615970000094,168.61615970000094,,005,P012,2025_Feb_08_1207,ConditionRich,2021.2.3,59.93364147228582,
127.0,127.75,6,0.75,Stimuli/P012/sun_aqysdudvyxnkcxgq.jpg,0,0,0.0,0,216,216,216,,,,,,,,,,,,,127.01510839999901,0.015108399999007815,None,168.86638340000172,168.86638340000172,168.86638340000172,168.86638340000172,168.86638340000172,168.86638340000172,168.86638340000172,168.86638340000172,168.86638340000172,168.86638340000172,,005,P012,2025_Feb_08_1207,ConditionRich,2021.2.3,59.93364147228582,
127.75,128.0,41,0.0,Stimuli/Blank.png,0,0,0.0,0,217,217,217,,,,,,,,,,,,,127.76367310000023,0.013673100000232807,None,169.60036520000176,169.60036520000176,169.60036520000176,169.60036520000176,169.60036520000176,169.60036520000176,169.60036520000176,169.60036520000176,169.60036520000176,169.60036520000176,,005,P012,2025_Feb_08_1207,ConditionRich,2021.2.3,59.93364147228582,
128.0,128.75,22,0.75,Stimuli/P012/things_boy_06s.jpg,0,0,0.0,0,218,218,218,,,,,,,,,,,,,128.0138318999998,0.013831899999786401,None,169.8505782000011,169.8505782000011,169.8505782000011,169.8505782000011,169.8505782000011,169.8505782000011,169.8505782000011,169.8505782000011,169.8505782000011,169.8505782000011,,005,P012,2025_Feb_08_1207,ConditionRich,2021.2.3,59.93364147228582,
128.75,129.0,41,0.0,Stimuli/Blank.png,0,0,0.0,0,219,219,219,,,,,,,,,,,,,128.76479309999922,0.014793099999224069,None,170.60124970000106,170.60124970000106,170.60124970000106,170.60124970000106,170.60124970000106,170.60124970000106,170.60124970000106,170.60124970000106,170.60124970000106,170.60124970000106,,005,P012,2025_Feb_08_1207,ConditionRich,2021.2.3,59.93364147228582,
129.0,129.75,22,0.75,Stimuli/P012/things_boy_06s.jpg,0,0,0.0,0,220,220,220,,,,,,,,,,,,,129.0144898999988,0.014489899998807232,None,170.8681686000018,170.8681686000018,170.8681686000018,170.8681686000018,170.8681686000018,170.8681686000018,170.8681686000018,170.8681686000018,170.8681686000018,170.8681686000018,,005,P012,2025_Feb_08_1207,ConditionRich,2021.2.3,59.93364147228582,
129.75,130.0,41,0.0,Stimuli/Blank.png,0,0,0.0,0,221,221,221,,,,,,,,,,,,,129.7811170999994,0.03111709999939194,None,171.61890110000058,171.61890110000058,171.61890110000058,171.61890110000058,171.61890110000058,171.61890110000058,171.61890110000058,171.61890110000058,171.61890110000058,171.61890110000058,,005,P012,2025_Feb_08_1207,ConditionRich,2021.2.3,59.93364147228582,
130.0,130.75,22,0.75,Stimuli/P012/things_boy_06s.jpg,0,0,0.0,0,222,222,222,,,,,,,,,,,,,130.01474049999888,0.014740499998879386,None,171.8523468000003,171.8523468000003,171.8523468000003,171.8523468000003,171.8523468000003,171.8523468000003,171.8523468000003,171.8523468000003,171.8523468000003,171.8523468000003,,005,P012,2025_Feb_08_1207,ConditionRich,2021.2.3,59.93364147228582,
130.75,131.0,41,0.0,Stimuli/Blank.png,0,0,0.0,0,223,223,223,,,,,,,,,,,,,130.76547740000024,0.01547740000023623,None,172.60298870000042,172.60298870000042,172.60298870000042,172.60298870000042,172.60298870000042,172.60298870000042,172.60298870000042,172.60298870000042,172.60298870000042,172.60298870000042,,005,P012,2025_Feb_08_1207,ConditionRich,2021.2.3,59.93364147228582,
131.0,131.75,22,0.75,Stimuli/P012/things_boy_06s.jpg,0,0,0.0,0,224,224,224,,,,,,,,,,,,,130.99974379999912,-0.0002562000008765608,None,172.85323920000155,172.85323920000155,172.85323920000155,172.85323920000155,172.85323920000155,172.85323920000155,172.85323920000155,172.85323920000155,172.85323920000155,172.85323920000155,,005,P012,2025_Feb_08_1207,ConditionRich,2021.2.3,59.93364147228582,
131.75,132.0,41,0.0,Stimuli/Blank.png,0,0,0.0,0,225,225,225,,,,,,,,,,,,,131.7682050000003,0.018205000000307336,None,173.60391210000125,173.60391210000125,173.60391210000125,173.60391210000125,173.60391210000125,173.60391210000125,173.60391210000125,173.60391210000125,173.60391210000125,173.60391210000125,,005,P012,2025_Feb_08_1207,ConditionRich,2021.2.3,59.93364147228582,
132.0,132.75,38,0.75,Stimuli/P012/things_squeegee_06s.jpg,0,0,0.0,0,226,226,226,,,,,,,,,,,,,131.99980700000015,-0.00019299999985378236,None,173.83744820000175,173.83744820000175,173.83744820000175,173.83744820000175,173.83744820000175,173.83744820000175,173.83744820000175,173.83744820000175,173.83744820000175,173.83744820000175,,005,P012,2025_Feb_08_1207,ConditionRich,2021.2.3,59.93364147228582,
132.75,133.0,41,0.0,Stimuli/Blank.png,0,0,0.0,0,227,227,227,,,,,,,,,,,,,132.7511734999989,0.0011734999989130301,None,174.58812990000115,174.58812990000115,174.58812990000115,174.58812990000115,174.58812990000115,174.58812990000115,174.58812990000115,174.58812990000115,174.58812990000115,174.58812990000115,,005,P012,2025_Feb_08_1207,ConditionRich,2021.2.3,59.93364147228582,
133.0,133.75,38,0.75,Stimuli/P012/things_squeegee_06s.jpg,0,0,0.0,0,228,228,228,,,,,,,,,,,,,133.00166419999914,0.001664199999140692,None,174.85502260000067,174.85502260000067,174.85502260000067,174.85502260000067,174.85502260000067,174.85502260000067,174.85502260000067,174.85502260000067,174.85502260000067,174.85502260000067,,005,P012,2025_Feb_08_1207,ConditionRich,2021.2.3,59.93364147228582,
133.75,134.0,41,0.0,Stimuli/Blank.png,0,0,0.0,0,229,229,229,,,,,,,,,,,,,133.76828289999867,0.018282899998666835,None,175.60564560000057,175.60564560000057,175.60564560000057,175.60564560000057,175.60564560000057,175.60564560000057,175.60564560000057,175.60564560000057,175.60564560000057,175.60564560000057,,005,P012,2025_Feb_08_1207,ConditionRich,2021.2.3,59.93364147228582,
134.0,134.75,38,0.75,Stimuli/P012/things_squeegee_06s.jpg,0,0,0.0,0,230,230,230,,,,,,,,,,,,,134.00235769999927,0.0023576999992656056,None,175.85589880000043,175.85589880000043,175.85589880000043,175.85589880000043,175.85589880000043,175.85589880000043,175.85589880000043,175.85589880000043,175.85589880000043,175.85589880000043,,005,P012,2025_Feb_08_1207,ConditionRich,2021.2.3,59.93364147228582,
134.75,135.0,41,0.0,Stimuli/Blank.png,0,0,0.0,0,231,231,231,,,,,,,,,,,,,134.76972679999926,0.019726799999261857,None,176.60655860000043,176.60655860000043,176.60655860000043,176.60655860000043,176.60655860000043,176.60655860000043,176.60655860000043,176.60655860000043,176.60655860000043,176.60655860000043,,005,P012,2025_Feb_08_1207,ConditionRich,2021.2.3,59.93364147228582,
135.0,135.75,38,0.75,Stimuli/P012/things_squeegee_06s.jpg,0,0,0.0,0,232,232,232,,,,,,,,,,,,,135.00378999999884,0.003789999998843996,None,176.8567759000016,176.8567759000016,176.8567759000016,176.8567759000016,176.8567759000016,176.8567759000016,176.8567759000016,176.8567759000016,176.8567759000016,176.8567759000016,,005,P012,2025_Feb_08_1207,ConditionRich,2021.2.3,59.93364147228582,
135.75,136.0,41,0.0,Stimuli/Blank.png,0,0,0.0,0,233,233,233,,,,,,,,,,,,,135.77047479999965,0.020474799999647075,None,177.60743390000061,177.60743390000061,177.60743390000061,177.60743390000061,177.60743390000061,177.60743390000061,177.60743390000061,177.60743390000061,177.60743390000061,177.60743390000061,,005,P012,2025_Feb_08_1207,ConditionRich,2021.2.3,59.93364147228582,
136.0,136.75,18,0.75,Stimuli/P012/sun_bxlbxustiovyqyrg.jpg,0,0,0.0,0,234,234,234,,,,,,,,,,,,,136.00483659999918,0.00483659999918018,None,177.84098780000022,177.84098780000022,177.84098780000022,177.84098780000022,177.84098780000022,177.84098780000022,177.84098780000022,177.84098780000022,177.84098780000022,177.84098780000022,,005,P012,2025_Feb_08_1207,ConditionRich,2021.2.3,59.93364147228582,
136.75,137.0,41,0.0,Stimuli/Blank.png,0,0,0.0,0,235,235,235,,,,,,,,,,,,,136.7554272999987,0.005427299998700619,None,178.6083430000017,178.6083430000017,178.6083430000017,178.6083430000017,178.6083430000017,178.6083430000017,178.6083430000017,178.6083430000017,178.6083430000017,178.6083430000017,,005,P012,2025_Feb_08_1207,ConditionRich,2021.2.3,59.93364147228582,
137.0,137.75,18,0.75,Stimuli/P012/sun_bxlbxustiovyqyrg.jpg,0,0,0.0,0,236,236,236,,,,,,,,,,,,,137.02407239999957,0.024072399999568006,None,178.8752303000001,178.8752303000001,178.8752303000001,178.8752303000001,178.8752303000001,178.8752303000001,178.8752303000001,178.8752303000001,178.8752303000001,178.8752303000001,,005,P012,2025_Feb_08_1207,ConditionRich,2021.2.3,59.93364147228582,
137.75,138.0,41,0.0,Stimuli/Blank.png,0,0,0.0,0,237,237,237,,,,,,,,,,,,,137.77168270000038,0.021682700000383193,None,179.6092120000012,179.6092120000012,179.6092120000012,179.6092120000012,179.6092120000012,179.6092120000012,179.6092120000012,179.6092120000012,179.6092120000012,179.6092120000012,,005,P012,2025_Feb_08_1207,ConditionRich,2021.2.3,59.93364147228582,
138.0,138.75,18,0.75,Stimuli/P012/sun_bxlbxustiovyqyrg.jpg,0,0,0.0,0,238,238,238,,,,,,,,,,,,,138.00527189999957,0.005271899999570451,None,179.85942700000123,179.85942700000123,179.85942700000123,179.85942700000123,179.85942700000123,179.85942700000123,179.85942700000123,179.85942700000123,179.85942700000123,179.85942700000123,,005,P012,2025_Feb_08_1207,ConditionRich,2021.2.3,59.93364147228582,
138.75,139.0,41,0.0,Stimuli/Blank.png,0,0,0.0,0,239,239,239,,,,,,,,,,,,,138.77561199999946,0.025611999999455293,None,180.62678470000174,180.62678470000174,180.62678470000174,180.62678470000174,180.62678470000174,180.62678470000174,180.62678470000174,180.62678470000174,180.62678470000174,180.62678470000174,,005,P012,2025_Feb_08_1207,ConditionRich,2021.2.3,59.93364147228582,
139.0,139.75,18,0.75,Stimuli/P012/sun_bxlbxustiovyqyrg.jpg,0,0,0.0,0,240,240,240,,,,,,,,,,,,,139.02346009999928,0.023460099999283557,None,180.86032810000142,180.86032810000142,180.86032810000142,180.86032810000142,180.86032810000142,180.86032810000142,180.86032810000142,180.86032810000142,180.86032810000142,180.86032810000142,,005,P012,2025_Feb_08_1207,ConditionRich,2021.2.3,59.93364147228582,
139.75,140.0,41,0.0,Stimuli/Blank.png,0,0,0.0,0,241,241,241,,,,,,,,,,,,,139.75668009999936,0.0066800999993574806,None,181.5943739000013,181.5943739000013,181.5943739000013,181.5943739000013,181.5943739000013,181.5943739000013,181.5943739000013,181.5943739000013,181.5943739000013,181.5943739000013,,005,P012,2025_Feb_08_1207,ConditionRich,2021.2.3,59.93364147228582,
140.0,140.75,1,0.75,Stimuli/P012/sun_aeakbqnvptdnxtno.jpg,0,0,0.0,0,242,242,242,,,,,,,,,,,,,140.00919579999936,0.009195799999361043,None,181.86121430000094,181.86121430000094,181.86121430000094,181.86121430000094,181.86121430000094,181.86121430000094,181.86121430000094,181.86121430000094,181.86121430000094,181.86121430000094,,005,P012,2025_Feb_08_1207,ConditionRich,2021.2.3,59.93364147228582,
140.75,141.0,41,0.0,Stimuli/Blank.png,0,0,0.0,0,243,243,243,,,,,,,,,,,,,140.7750337999987,0.025033799998709583,None,182.6118656000017,182.6118656000017,182.6118656000017,182.6118656000017,182.6118656000017,182.6118656000017,182.6118656000017,182.6118656000017,182.6118656000017,182.6118656000017,,005,P012,2025_Feb_08_1207,ConditionRich,2021.2.3,59.93364147228582,
141.0,141.75,1,0.75,Stimuli/P012/sun_aeakbqnvptdnxtno.jpg,0,0,0.0,0,244,244,244,,,,,,,,,,,,,141.0077053999994,0.007705399999395013,None,182.84540470000138,182.84540470000138,182.84540470000138,182.84540470000138,182.84540470000138,182.84540470000138,182.84540470000138,182.84540470000138,182.84540470000138,182.84540470000138,,005,P012,2025_Feb_08_1207,ConditionRich,2021.2.3,59.93364147228582,
141.75,142.0,41,0.0,Stimuli/Blank.png,0,0,0.0,0,245,245,245,,,,,,,,,,,,,141.75887689999945,0.008876899999449961,None,183.5960724000015,183.5960724000015,183.5960724000015,183.5960724000015,183.5960724000015,183.5960724000015,183.5960724000015,183.5960724000015,183.5960724000015,183.5960724000015,,005,P012,2025_Feb_08_1207,ConditionRich,2021.2.3,59.93364147228582,
142.0,142.75,1,0.75,Stimuli/P012/sun_aeakbqnvptdnxtno.jpg,0,0,0.0,0,246,246,246,,,,,,,,,,,,,142.00948189999872,0.00948189999871829,None,183.8629701000009,183.8629701000009,183.8629701000009,183.8629701000009,183.8629701000009,183.8629701000009,183.8629701000009,183.8629701000009,183.8629701000009,183.8629701000009,,005,P012,2025_Feb_08_1207,ConditionRich,2021.2.3,59.93364147228582,
142.75,143.0,41,0.0,Stimuli/Blank.png,0,0,0.0,0,247,247,247,,,,,,,,,,,,,142.77665829999933,0.02665829999932612,None,184.61371240000153,184.61371240000153,184.61371240000153,184.61371240000153,184.61371240000153,184.61371240000153,184.61371240000153,184.61371240000153,184.61371240000153,184.61371240000153,,005,P012,2025_Feb_08_1207,ConditionRich,2021.2.3,59.93364147228582,
143.0,143.75,1,0.75,Stimuli/P012/sun_aeakbqnvptdnxtno.jpg,0,0,0.0,0,248,248,248,,,,,,,,,,,,,143.01030100000025,0.010301000000254135,None,184.84717640000054,184.84717640000054,184.84717640000054,184.84717640000054,184.84717640000054,184.84717640000054,184.84717640000054,184.84717640000054,184.84717640000054,184.84717640000054,,005,P012,2025_Feb_08_1207,ConditionRich,2021.2.3,59.93364147228582,
143.75,144.0,41,0.0,Stimuli/Blank.png,0,0,0.0,0,249,249,249,,,,,,,,,,,,,143.76082510000015,0.010825100000147359,None,185.5978354000017,185.5978354000017,185.5978354000017,185.5978354000017,185.5978354000017,185.5978354000017,185.5978354000017,185.5978354000017,185.5978354000017,185.5978354000017,,005,P012,2025_Feb_08_1207,ConditionRich,2021.2.3,59.93364147228582,
144.0,144.75,37,0.75,Stimuli/P012/things_spam_06s.jpg,0,0,0.0,0,250,250,250,,,,,,,,,,,,,144.01063929999873,0.010639299998729257,None,185.84803160000047,185.84803160000047,185.84803160000047,185.84803160000047,185.84803160000047,185.84803160000047,185.84803160000047,185.84803160000047,185.84803160000047,185.84803160000047,,005,P012,2025_Feb_08_1207,ConditionRich,2021.2.3,59.93364147228582,
144.75,145.0,41,0.0,Stimuli/Blank.png,0,0,0.0,0,251,251,251,,,,,,,,,,,,,144.76408059999994,0.014080599999942933,None,186.61542070000178,186.61542070000178,186.61542070000178,186.61542070000178,186.61542070000178,186.61542070000178,186.61542070000178,186.61542070000178,186.61542070000178,186.61542070000178,,005,P012,2025_Feb_08_1207,ConditionRich,2021.2.3,59.93364147228582,
145.0,145.75,37,0.75,Stimuli/P012/things_spam_06s.jpg,0,0,0.0,0,252,252,252,,,,,,,,,,,,,145.02862509999977,0.02862509999977192,None,186.86563250000108,186.86563250000108,186.86563250000108,186.86563250000108,186.86563250000108,186.86563250000108,186.86563250000108,186.86563250000108,186.86563250000108,186.86563250000108,,005,P012,2025_Feb_08_1207,ConditionRich,2021.2.3,59.93364147228582,
145.75,146.0,41,0.0,Stimuli/Blank.png,0,0,0.0,0,253,253,253,,,,,,,,,,,,,145.7644325000001,0.014432500000111759,None,187.6163026000013,187.6163026000013,187.6163026000013,187.6163026000013,187.6163026000013,187.6163026000013,187.6163026000013,187.6163026000013,187.6163026000013,187.6163026000013,,005,P012,2025_Feb_08_1207,ConditionRich,2021.2.3,59.93364147228582,
146.0,146.75,37,0.75,Stimuli/P012/things_spam_06s.jpg,0,0,0.0,0,254,254,254,,,,,,,,,,,,,146.02879529999882,0.028795299998819246,None,187.86652010000034,187.86652010000034,187.86652010000034,187.86652010000034,187.86652010000034,187.86652010000034,187.86652010000034,187.86652010000034,187.86652010000034,187.86652010000034,,005,P012,2025_Feb_08_1207,ConditionRich,2021.2.3,59.93364147228582,
146.75,147.0,41,0.0,Stimuli/Blank.png,0,0,0.0,0,255,255,255,,,,,,,,,,,,,146.76358640000035,0.013586400000349386,None,188.60050420000152,188.60050420000152,188.60050420000152,188.60050420000152,188.60050420000152,188.60050420000152,188.60050420000152,188.60050420000152,188.60050420000152,188.60050420000152,,005,P012,2025_Feb_08_1207,ConditionRich,2021.2.3,59.93364147228582,
147.0,147.75,37,0.75,Stimuli/P012/things_spam_06s.jpg,0,0,0.0,0,256,256,256,,,,,,,,,,,,,147.01463429999967,0.014634299999670475,None,188.86741790000087,188.86741790000087,188.86741790000087,188.86741790000087,188.86741790000087,188.86741790000087,188.86741790000087,188.86741790000087,188.86741790000087,188.86741790000087,,005,P012,2025_Feb_08_1207,ConditionRich,2021.2.3,59.93364147228582,
147.75,148.0,41,0.0,Stimuli/Blank.png,0,0,0.0,0,257,257,257,,,,,,,,,,,,,147.78074489999926,0.030744899999262998,None,189.61806490000163,189.61806490000163,189.61806490000163,189.61806490000163,189.61806490000163,189.61806490000163,189.61806490000163,189.61806490000163,189.61806490000163,189.61806490000163,,005,P012,2025_Feb_08_1207,ConditionRich,2021.2.3,59.93364147228582,
148.0,148.75,19,0.75,Stimuli/P012/sun_byvwakrdyukjigpc.jpg,0,0,0.0,0,258,258,258,,,,,,,,,,,,,148.01399479999964,0.013994799999636598,None,189.85158280000178,189.85158280000178,189.85158280000178,189.85158280000178,189.85158280000178,189.85158280000178,189.85158280000178,189.85158280000178,189.85158280000178,189.85158280000178,,005,P012,2025_Feb_08_1207,ConditionRich,2021.2.3,59.93364147228582,
148.75,149.0,41,0.0,Stimuli/Blank.png,0,0,0.0,0,259,259,259,,,,,,,,,,,,,148.76464979999946,0.01464979999946081,None,190.60229960000106,190.60229960000106,190.60229960000106,190.60229960000106,190.60229960000106,190.60229960000106,190.60229960000106,190.60229960000106,190.60229960000106,190.60229960000106,,005,P012,2025_Feb_08_1207,ConditionRich,2021.2.3,59.93364147228582,
149.0,149.75,19,0.75,Stimuli/P012/sun_byvwakrdyukjigpc.jpg,0,0,0.0,0,260,260,260,,,,,,,,,,,,,149.01534849999916,0.015348499999163323,None,190.86919210000087,190.86919210000087,190.86919210000087,190.86919210000087,190.86919210000087,190.86919210000087,190.86919210000087,190.86919210000087,190.86919210000087,190.86919210000087,,005,P012,2025_Feb_08_1207,ConditionRich,2021.2.3,59.93364147228582,
149.75,150.0,41,0.0,Stimuli/Blank.png,0,0,0.0,0,261,261,261,,,,,,,,,,,,,149.76632140000038,0.01632140000037907,None,191.60322890000134,191.60322890000134,191.60322890000134,191.60322890000134,191.60322890000134,191.60322890000134,191.60322890000134,191.60322890000134,191.60322890000134,191.60322890000134,,005,P012,2025_Feb_08_1207,ConditionRich,2021.2.3,59.93364147228582,
