eventStartTime,eventEndTime,eventCond,imSize,imFile,responseEvent,fixRespStart,fixRespEnd,Events.thisRepN,Events.thisTrialN,Events.thisN,Events.thisIndex,Instructions.started,Instructions.stopped,participantReadyResponse.keys,participantReadyResponse.rt,participantReadyResponse.started,participantReadyResponse.stopped,startWaitforTrigger,triggerResponse.keys,triggerResponse.rt,triggerResponse.started,triggerResponse.stopped,globalTimer,actualStartTime,startTimingDiff,participantResponse.keys,participantResponse.started,participantResponse.stopped,image.started,image.stopped,fixationOutside.started,fixationOutside.stopped,fixationResponse.started,fixationResponse.stopped,fixationInside.started,fixationInside.stopped,participantResponse.rt,session,participant,date,expName,psychopyVersion,frameRate,
,,,,,,,,,,,,10.906357199999547,None,2,15.622807300000204,10.906357199999547,None,,,,,,,,,,,,,,,,,,,,,003,P012,2025_Feb_08_1145,ConditionRich,2021.2.3,59.95631582785146,
,,,,,,,,,,,,,,,,,,26.540860299999622,5,13.118048799999087,26.554127499999595,None,,,,,,,,,,,,,,,,003,P012,2025_Feb_08_1145,ConditionRich,2021.2.3,59.95631582785146,
0.0,4.0,0,0.0,Stimuli/Blank.png,0,0.0,0.0,0,0,0,0,,,,,,,,,,,,39.68599449999965,0.0385221000015008,0.0385221000015008,None,39.74918249999973,None,39.74918249999973,None,39.74918249999973,None,39.74918249999973,39.74918249999973,39.74918249999973,None,,003,P012,2025_Feb_08_1145,ConditionRich,2021.2.3,59.95631582785146,
4.0,4.75,10,0.75,Stimuli/P012/sun_awufkrkrdrdbvvis.jpg,0,0.0,0.0,0,1,1,1,,,,,,,,,,,,,4.02415640000072,0.02415640000072017,None,43.736601900000096,43.736601900000096,43.736601900000096,43.736601900000096,43.736601900000096,43.736601900000096,43.736601900000096,43.736601900000096,43.736601900000096,43.736601900000096,,003,P012,2025_Feb_08_1145,ConditionRich,2021.2.3,59.95631582785146,
4.75,8.0,41,0.0,Stimuli/Blank.png,0,0.0,0.0,0,2,2,2,,,,,,,,,,,,,4.771882900000492,0.021882900000491645,None,44.487211199999365,44.487211199999365,44.487211199999365,44.487211199999365,44.487211199999365,44.487211199999365,44.487211199999365,44.487211199999365,44.487211199999365,44.487211199999365,,003,P012,2025_Feb_08_1145,ConditionRich,2021.2.3,59.95631582785146,
8.0,8.75,9,0.75,Stimuli/P012/sun_aupohozmrmtfgcsw.jpg,0,0.0,0.0,0,3,3,3,,,,,,,,,,,,,8.02255950000108,0.02255950000107987,None,47.72309399999904,47.72309399999904,47.72309399999904,47.72309399999904,47.72309399999904,47.72309399999904,47.72309399999904,47.72309399999904,47.72309399999904,47.72309399999904,,003,P012,2025_Feb_08_1145,ConditionRich,2021.2.3,59.95631582785146,
8.75,12.0,41,0.0,Stimuli/Blank.png,0,0.0,0.0,0,4,4,4,,,,,,,,,,,,,8.757140300000174,0.007140300000173738,None,48.45708179999929,48.45708179999929,48.45708179999929,48.45708179999929,48.45708179999929,48.45708179999929,48.45708179999929,48.45708179999929,48.45708179999929,48.45708179999929,,003,P012,2025_Feb_08_1145,ConditionRich,2021.2.3,59.95631582785146,
12.0,12.75,35,0.75,Stimuli/P012/things_raccoon_06n.jpg,0,0.0,0.0,0,5,5,5,,,,,,,,,,,,,12.010194600001341,0.010194600001341314,None,51.70993920000001,51.70993920000001,51.70993920000001,51.70993920000001,51.70993920000001,51.70993920000001,51.70993920000001,51.70993920000001,51.70993920000001,51.70993920000001,,003,P012,2025_Feb_08_1145,ConditionRich,2021.2.3,59.95631582785146,
12.75,16.0,41,0.0,Stimuli/Blank.png,0,0.0,0.0,0,6,6,6,,,,,,,,,,,,,12.760595500001727,0.010595500001727487,None,52.46061419999933,52.46061419999933,52.46061419999933,52.46061419999933,52.46061419999933,52.46061419999933,52.46061419999933,52.46061419999933,52.46061419999933,52.46061419999933,,003,P012,2025_Feb_08_1145,ConditionRich,2021.2.3,59.95631582785146,
16.0,16.75,5,0.75,Stimuli/P012/sun_anfwllcezhlypoti.jpg,0,0.0,0.0,0,7,7,7,,,,,,,,,,,,,16.01304590000109,0.01304590000108874,None,55.71350489999895,55.71350489999895,55.71350489999895,55.71350489999895,55.71350489999895,55.71350489999895,55.71350489999895,55.71350489999895,55.71350489999895,55.71350489999895,,003,P012,2025_Feb_08_1145,ConditionRich,2021.2.3,59.95631582785146,
16.75,20.0,41,0.0,Stimuli/Blank.png,1,0.25,1.0,0,8,8,8,,,,,,,,,,,,,16.76355660000081,0.013556600000811159,2,56.46417279999878,56.46417279999878,56.46417279999878,56.46417279999878,56.46417279999878,56.46417279999878,56.69778029999907,57.44834429999901,56.46417279999878,56.46417279999878,0.6649961999992229,003,P012,2025_Feb_08_1145,ConditionRich,2021.2.3,59.95631582785146,
20.0,20.75,29,0.75,Stimuli/P012/things_gutter_06s.jpg,0,0.0,0.0,0,9,9,9,,,,,,,,,,,,,20.001037600000927,0.0010376000009273412,None,59.71704580000005,59.71704580000005,59.71704580000005,59.71704580000005,59.71704580000005,59.71704580000005,59.71704580000005,59.71704580000005,59.71704580000005,59.71704580000005,,003,P012,2025_Feb_08_1145,ConditionRich,2021.2.3,59.95631582785146,
20.75,24.0,41,0.0,Stimuli/Blank.png,1,1.25,2.0,0,10,10,10,,,,,,,,,,,,,20.767407900000762,0.01740790000076231,2,60.467718899999454,60.467718899999454,60.467718899999454,60.467718899999454,60.467718899999454,60.467718899999454,61.702146300000095,62.452793499998734,60.467718899999454,60.467718899999454,1.675478999999541,003,P012,2025_Feb_08_1145,ConditionRich,2021.2.3,59.95631582785146,
24.0,24.75,1,0.75,Stimuli/P012/sun_aeakbqnvptdnxtno.jpg,0,0.0,0.0,0,11,11,11,,,,,,,,,,,,,24.004006000001027,0.004006000001027132,None,63.70391129999916,63.70391129999916,63.70391129999916,63.70391129999916,63.70391129999916,63.70391129999916,63.70391129999916,63.70391129999916,63.70391129999916,63.70391129999916,,003,P012,2025_Feb_08_1145,ConditionRich,2021.2.3,59.95631582785146,
24.75,28.0,41,0.0,Stimuli/Blank.png,0,0.0,0.0,0,12,12,12,,,,,,,,,,,,,24.75402280000162,0.004022800001621363,None,64.45457460000034,64.45457460000034,64.45457460000034,64.45457460000034,64.45457460000034,64.45457460000034,64.45457460000034,64.45457460000034,64.45457460000034,64.45457460000034,,003,P012,2025_Feb_08_1145,ConditionRich,2021.2.3,59.95631582785146,
28.0,28.75,15,0.75,Stimuli/P012/sun_bmngnyuahubpqroh.jpg,1,0.0,0.75,0,13,13,13,,,,,,,,,,,,,28.00835360000019,0.008353600000191364,2,67.72413869999946,67.72413869999946,67.72413869999946,67.72413869999946,67.72413869999946,67.72413869999946,67.72413869999946,68.44204089999948,67.72413869999946,67.72413869999946,0.40711559999908786,003,P012,2025_Feb_08_1145,ConditionRich,2021.2.3,59.95631582785146,
28.75,32.0,41,0.0,Stimuli/Blank.png,0,0.0,0.0,0,14,14,14,,,,,,,,,,,,,28.7769999000011,0.026999900001101196,None,68.49144030000025,68.49144030000025,68.49144030000025,68.49144030000025,68.49144030000025,68.49144030000025,68.49144030000025,68.49144030000025,68.49144030000025,68.49144030000025,,003,P012,2025_Feb_08_1145,ConditionRich,2021.2.3,59.95631582785146,
32.0,32.75,22,0.75,Stimuli/P012/things_boy_06s.jpg,0,0.0,0.0,0,15,15,15,,,,,,,,,,,,,32.02764810000008,0.027648100000078557,None,71.72767419999946,71.72767419999946,71.72767419999946,71.72767419999946,71.72767419999946,71.72767419999946,71.72767419999946,71.72767419999946,71.72767419999946,71.72767419999946,,003,P012,2025_Feb_08_1145,ConditionRich,2021.2.3,59.95631582785146,
32.75,36.0,41,0.0,Stimuli/Blank.png,0,0.0,0.0,0,16,16,16,,,,,,,,,,,,,32.76282260000153,0.012822600001527462,None,72.4616649999989,72.4616649999989,72.4616649999989,72.4616649999989,72.4616649999989,72.4616649999989,72.4616649999989,72.4616649999989,72.4616649999989,72.4616649999989,,003,P012,2025_Feb_08_1145,ConditionRich,2021.2.3,59.95631582785146,
36.0,36.75,3,0.75,Stimuli/P012/sun_afdaynbvsppiyvxm.jpg,0,0.0,0.0,0,17,17,17,,,,,,,,,,,,,35.99760260000039,-0.0023973999996087514,None,75.69780729999911,75.69780729999911,75.69780729999911,75.69780729999911,75.69780729999911,75.69780729999911,75.69780729999911,75.69780729999911,75.69780729999911,75.69780729999911,,003,P012,2025_Feb_08_1145,ConditionRich,2021.2.3,59.95631582785146,
36.75,40.0,41,0.0,Stimuli/Blank.png,0,0.0,0.0,0,18,18,18,,,,,,,,,,,,,36.7676330000013,0.01763300000129675,None,76.48189049999928,76.48189049999928,76.48189049999928,76.48189049999928,76.48189049999928,76.48189049999928,76.48189049999928,76.48189049999928,76.48189049999928,76.48189049999928,,003,P012,2025_Feb_08_1145,ConditionRich,2021.2.3,59.95631582785146,
40.0,40.75,26,0.75,Stimuli/P012/things_gazelle_06s.jpg,0,0.0,0.0,0,19,19,19,,,,,,,,,,,,,40.018423400000756,0.018423400000756374,None,79.71812019999925,79.71812019999925,79.71812019999925,79.71812019999925,79.71812019999925,79.71812019999925,79.71812019999925,79.71812019999925,79.71812019999925,79.71812019999925,,003,P012,2025_Feb_08_1145,ConditionRich,2021.2.3,59.95631582785146,
40.75,44.0,41,0.0,Stimuli/Blank.png,0,0.0,0.0,0,20,20,20,,,,,,,,,,,,,40.75281670000004,0.0028167000000394182,None,80.4520698999986,80.4520698999986,80.4520698999986,80.4520698999986,80.4520698999986,80.4520698999986,80.4520698999986,80.4520698999986,80.4520698999986,80.4520698999986,,003,P012,2025_Feb_08_1145,ConditionRich,2021.2.3,59.95631582785146,
44.0,44.75,16,0.75,Stimuli/P012/sun_bpuwvyadswjfoaby.jpg,0,0.0,0.0,0,21,21,21,,,,,,,,,,,,,44.00555350000104,0.005553500001042266,None,83.72162380000009,83.72162380000009,83.72162380000009,83.72162380000009,83.72162380000009,83.72162380000009,83.72162380000009,83.72162380000009,83.72162380000009,83.72162380000009,,003,P012,2025_Feb_08_1145,ConditionRich,2021.2.3,59.95631582785146,
44.75,48.0,41,0.0,Stimuli/Blank.png,0,0.0,0.0,0,22,22,22,,,,,,,,,,,,,44.772699099999954,0.022699099999954342,None,84.47228949999953,84.47228949999953,84.47228949999953,84.47228949999953,84.47228949999953,84.47228949999953,84.47228949999953,84.47228949999953,84.47228949999953,84.47228949999953,,003,P012,2025_Feb_08_1145,ConditionRich,2021.2.3,59.95631582785146,
48.0,48.75,2,0.75,Stimuli/P012/sun_aewhvqonribwlxiq.jpg,0,0.0,0.0,0,23,23,23,,,,,,,,,,,,,48.00877670000045,0.008776700000453275,None,87.70848459999979,87.70848459999979,87.70848459999979,87.70848459999979,87.70848459999979,87.70848459999979,87.70848459999979,87.70848459999979,87.70848459999979,87.70848459999979,,003,P012,2025_Feb_08_1145,ConditionRich,2021.2.3,59.95631582785146,
48.75,52.0,41,0.0,Stimuli/Blank.png,1,1.25,2.0,0,24,24,24,,,,,,,,,,,,,48.759591300000466,0.009591300000465708,2,88.45915319999949,88.45915319999949,88.45915319999949,88.45915319999949,88.45915319999949,88.45915319999949,89.69354629999907,90.44428069999958,88.45915319999949,88.45915319999949,1.658073600001444,003,P012,2025_Feb_08_1145,ConditionRich,2021.2.3,59.95631582785146,
52.0,52.75,27,0.75,Stimuli/P012/things_girl_06s.jpg,0,0.0,0.0,0,25,25,25,,,,,,,,,,,,,52.012560800001665,0.012560800001665484,None,91.71204249999937,91.71204249999937,91.71204249999937,91.71204249999937,91.71204249999937,91.71204249999937,91.71204249999937,91.71204249999937,91.71204249999937,91.71204249999937,,003,P012,2025_Feb_08_1145,ConditionRich,2021.2.3,59.95631582785146,
52.75,56.0,41,0.0,Stimuli/Blank.png,0,0.0,0.0,0,26,26,26,,,,,,,,,,,,,52.76216910000039,0.012169100000392064,None,92.46269209999991,92.46269209999991,92.46269209999991,92.46269209999991,92.46269209999991,92.46269209999991,92.46269209999991,92.46269209999991,92.46269209999991,92.46269209999991,,003,P012,2025_Feb_08_1145,ConditionRich,2021.2.3,59.95631582785146,
56.0,56.75,28,0.75,Stimuli/P012/things_grasshopper_06s.jpg,0,0.0,0.0,0,27,27,27,,,,,,,,,,,,,56.01504810000006,0.015048100000058184,None,95.73226889999933,95.73226889999933,95.73226889999933,95.73226889999933,95.73226889999933,95.73226889999933,95.73226889999933,95.73226889999933,95.73226889999933,95.73226889999933,,003,P012,2025_Feb_08_1145,ConditionRich,2021.2.3,59.95631582785146,
56.75,60.0,41,0.0,Stimuli/Blank.png,1,2.25,3.0,0,28,28,28,,,,,,,,,,,,,56.766624600000796,0.01662460000079591,2,96.4662384000003,96.4662384000003,96.4662384000003,96.4662384000003,96.4662384000003,96.4662384000003,98.70153089999985,99.45220189999964,96.4662384000003,96.4662384000003,2.603023800000301,003,P012,2025_Feb_08_1145,ConditionRich,2021.2.3,59.95631582785146,
60.0,60.75,12,0.75,Stimuli/P012/sun_bcesifdfuidnkdhl.jpg,0,0.0,0.0,0,29,29,29,,,,,,,,,,,,,60.002752400001555,0.0027524000015546335,None,99.70243259999916,99.70243259999916,99.70243259999916,99.70243259999916,99.70243259999916,99.70243259999916,99.70243259999916,99.70243259999916,99.70243259999916,99.70243259999916,,003,P012,2025_Feb_08_1145,ConditionRich,2021.2.3,59.95631582785146,
60.75,64.0,41,0.0,Stimuli/Blank.png,0,0.0,0.0,0,30,30,30,,,,,,,,,,,,,60.753199900000254,0.0031999000002542743,None,100.45422849999886,100.45422849999886,100.45422849999886,100.45422849999886,100.45422849999886,100.45422849999886,100.45422849999886,100.45422849999886,100.45422849999886,100.45422849999886,,003,P012,2025_Feb_08_1145,ConditionRich,2021.2.3,59.95631582785146,
64.0,64.75,17,0.75,Stimuli/P012/sun_btvwhlxbhcqnqzok.jpg,0,0.0,0.0,0,31,31,31,,,,,,,,,,,,,64.00684610000098,0.006846100000984734,None,103.72266259999924,103.72266259999924,103.72266259999924,103.72266259999924,103.72266259999924,103.72266259999924,103.72266259999924,103.72266259999924,103.72266259999924,103.72266259999924,,003,P012,2025_Feb_08_1145,ConditionRich,2021.2.3,59.95631582785146,
64.75,68.0,41,0.0,Stimuli/Blank.png,0,0.0,0.0,0,32,32,32,,,,,,,,,,,,,64.77356760000112,0.023567600001115352,None,104.47333350000008,104.47333350000008,104.47333350000008,104.47333350000008,104.47333350000008,104.47333350000008,104.47333350000008,104.47333350000008,104.47333350000008,104.47333350000008,,003,P012,2025_Feb_08_1145,ConditionRich,2021.2.3,59.95631582785146,
68.0,68.75,34,0.75,Stimuli/P012/things_polar_bear_06s.jpg,0,0.0,0.0,0,33,33,33,,,,,,,,,,,,,68.00995300000068,0.009953000000678003,None,107.70952070000021,107.70952070000021,107.70952070000021,107.70952070000021,107.70952070000021,107.70952070000021,107.70952070000021,107.70952070000021,107.70952070000021,107.70952070000021,,003,P012,2025_Feb_08_1145,ConditionRich,2021.2.3,59.95631582785146,
68.75,72.0,41,0.0,Stimuli/Blank.png,0,0.0,0.0,0,34,34,34,,,,,,,,,,,,,68.76050690000011,0.010506900000109454,None,108.46019580000029,108.46019580000029,108.46019580000029,108.46019580000029,108.46019580000029,108.46019580000029,108.46019580000029,108.46019580000029,108.46019580000029,108.46019580000029,,003,P012,2025_Feb_08_1145,ConditionRich,2021.2.3,59.95631582785146,
72.0,72.75,6,0.75,Stimuli/P012/sun_aqysdudvyxnkcxgq.jpg,0,0.0,0.0,0,35,35,35,,,,,,,,,,,,,72.01246040000115,0.0124604000011459,None,111.71306089999962,111.71306089999962,111.71306089999962,111.71306089999962,111.71306089999962,111.71306089999962,111.71306089999962,111.71306089999962,111.71306089999962,111.71306089999962,,003,P012,2025_Feb_08_1145,ConditionRich,2021.2.3,59.95631582785146,
72.75,76.0,41,0.0,Stimuli/Blank.png,0,0.0,0.0,0,36,36,36,,,,,,,,,,,,,72.7636749000012,0.01367490000120597,None,112.46371369999906,112.46371369999906,112.46371369999906,112.46371369999906,112.46371369999906,112.46371369999906,112.46371369999906,112.46371369999906,112.46371369999906,112.46371369999906,,003,P012,2025_Feb_08_1145,ConditionRich,2021.2.3,59.95631582785146,
76.0,76.75,21,0.75,Stimuli/P012/things_baby_06s.jpg,0,0.0,0.0,0,37,37,37,,,,,,,,,,,,,75.99986270000045,-0.00013729999955103267,None,115.69991929999924,115.69991929999924,115.69991929999924,115.69991929999924,115.69991929999924,115.69991929999924,115.69991929999924,115.69991929999924,115.69991929999924,115.69991929999924,,003,P012,2025_Feb_08_1145,ConditionRich,2021.2.3,59.95631582785146,
76.75,80.0,41,0.0,Stimuli/Blank.png,0,0.0,0.0,0,38,38,38,,,,,,,,,,,,,76.75277980000101,0.0027798000010079704,None,116.46834839999974,116.46834839999974,116.46834839999974,116.46834839999974,116.46834839999974,116.46834839999974,116.46834839999974,116.46834839999974,116.46834839999974,116.46834839999974,,003,P012,2025_Feb_08_1145,ConditionRich,2021.2.3,59.95631582785146,
80.0,80.75,38,0.75,Stimuli/P012/things_squeegee_06s.jpg,0,0.0,0.0,0,39,39,39,,,,,,,,,,,,,80.0199332000011,0.019933200001105433,None,119.73679319999974,119.73679319999974,119.73679319999974,119.73679319999974,119.73679319999974,119.73679319999974,119.73679319999974,119.73679319999974,119.73679319999974,119.73679319999974,,003,P012,2025_Feb_08_1145,ConditionRich,2021.2.3,59.95631582785146,
80.75,84.0,41,0.0,Stimuli/Blank.png,0,0.0,0.0,0,40,40,40,,,,,,,,,,,,,80.77122320000126,0.0212232000012591,None,120.4708273999986,120.4708273999986,120.4708273999986,120.4708273999986,120.4708273999986,120.4708273999986,120.4708273999986,120.4708273999986,120.4708273999986,120.4708273999986,,003,P012,2025_Feb_08_1145,ConditionRich,2021.2.3,59.95631582785146,
84.0,100.0,0,0.0,Stimuli/Blank.png,1,13.0,13.75,0,41,41,41,,,,,,,,,,,,,84.00724680000167,0.0072468000016669976,2,123.70700889999898,123.70700889999898,123.70700889999898,123.70700889999898,123.70700889999898,123.70700889999898,136.68518620000032,137.435877599999,123.70700889999898,123.70700889999898,13.437241100000392,003,P012,2025_Feb_08_1145,ConditionRich,2021.2.3,59.95631582785146,
100.0,100.75,14,0.75,Stimuli/P012/sun_blybvkoucskrdgiv.jpg,0,0.0,0.0,0,42,42,42,,,,,,,,,,,,,100.00419290000173,0.00419290000172623,None,139.70449449999978,139.70449449999978,139.70449449999978,139.70449449999978,139.70449449999978,139.70449449999978,139.70449449999978,139.70449449999978,139.70449449999978,139.70449449999978,,003,P012,2025_Feb_08_1145,ConditionRich,2021.2.3,59.95631582785146,
100.75,104.0,41,0.0,Stimuli/Blank.png,0,0.0,0.0,0,43,43,43,,,,,,,,,,,,,100.75474270000086,0.004742700000861078,None,140.45515390000037,140.45515390000037,140.45515390000037,140.45515390000037,140.45515390000037,140.45515390000037,140.45515390000037,140.45515390000037,140.45515390000037,140.45515390000037,,003,P012,2025_Feb_08_1145,ConditionRich,2021.2.3,59.95631582785146,
104.0,104.75,24,0.75,Stimuli/P012/things_doily_06s.jpg,0,0.0,0.0,0,44,44,44,,,,,,,,,,,,,104.0078951000014,0.007895100001405808,None,143.70803989999877,143.70803989999877,143.70803989999877,143.70803989999877,143.70803989999877,143.70803989999877,143.70803989999877,143.70803989999877,143.70803989999877,143.70803989999877,,003,P012,2025_Feb_08_1145,ConditionRich,2021.2.3,59.95631582785146,
104.75,108.0,41,0.0,Stimuli/Blank.png,0,0.0,0.0,0,45,45,45,,,,,,,,,,,,,104.75879410000016,0.008794100000159233,None,144.45870169999944,144.45870169999944,144.45870169999944,144.45870169999944,144.45870169999944,144.45870169999944,144.45870169999944,144.45870169999944,144.45870169999944,144.45870169999944,,003,P012,2025_Feb_08_1145,ConditionRich,2021.2.3,59.95631582785146,
108.0,108.75,31,0.75,Stimuli/P012/things_hippopotamus_06s.jpg,0,0.0,0.0,0,46,46,46,,,,,,,,,,,,,108.01337180000155,0.013371800001550582,None,147.72826910000003,147.72826910000003,147.72826910000003,147.72826910000003,147.72826910000003,147.72826910000003,147.72826910000003,147.72826910000003,147.72826910000003,147.72826910000003,,003,P012,2025_Feb_08_1145,ConditionRich,2021.2.3,59.95631582785146,
108.75,112.0,41,0.0,Stimuli/Blank.png,1,0.25,1.0,0,47,47,47,,,,,,,,,,,,,108.77907550000054,0.029075500000544707,2,148.4791226999987,148.4791226999987,148.4791226999987,148.4791226999987,148.4791226999987,148.4791226999987,148.7124660999998,149.46311830000013,148.4791226999987,148.4791226999987,0.6662163999990298,003,P012,2025_Feb_08_1145,ConditionRich,2021.2.3,59.95631582785146,
112.0,112.75,20,0.75,Stimuli/P012/sun_ciifteeudwpxupnw.jpg,0,0.0,0.0,0,48,48,48,,,,,,,,,,,,,112.01511759999994,0.015117599999939557,None,151.71513589999995,151.71513589999995,151.71513589999995,151.71513589999995,151.71513589999995,151.71513589999995,151.71513589999995,151.71513589999995,151.71513589999995,151.71513589999995,,003,P012,2025_Feb_08_1145,ConditionRich,2021.2.3,59.95631582785146,
112.75,116.0,41,0.0,Stimuli/Blank.png,0,0.0,0.0,0,49,49,49,,,,,,,,,,,,,112.74951910000163,-0.0004808999983652029,None,152.44910199999867,152.44910199999867,152.44910199999867,152.44910199999867,152.44910199999867,152.44910199999867,152.44910199999867,152.44910199999867,152.44910199999867,152.44910199999867,,003,P012,2025_Feb_08_1145,ConditionRich,2021.2.3,59.95631582785146,
116.0,116.75,25,0.75,Stimuli/P012/things_face_06s.jpg,0,0.0,0.0,0,50,50,50,,,,,,,,,,,,,116.00216230000115,0.0021623000011459226,None,155.70198150000033,155.70198150000033,155.70198150000033,155.70198150000033,155.70198150000033,155.70198150000033,155.70198150000033,155.70198150000033,155.70198150000033,155.70198150000033,,003,P012,2025_Feb_08_1145,ConditionRich,2021.2.3,59.95631582785146,
116.75,120.0,41,0.0,Stimuli/Blank.png,0,0.0,0.0,0,51,51,51,,,,,,,,,,,,,116.75308080000104,0.0030808000010438263,None,156.45265219999965,156.45265219999965,156.45265219999965,156.45265219999965,156.45265219999965,156.45265219999965,156.45265219999965,156.45265219999965,156.45265219999965,156.45265219999965,,003,P012,2025_Feb_08_1145,ConditionRich,2021.2.3,59.95631582785146,
120.0,120.75,13,0.75,Stimuli/P012/sun_bjedvzikugwleyer.jpg,0,0.0,0.0,0,52,52,52,,,,,,,,,,,,,120.00544340000124,0.005443400001240661,None,159.70549719999872,159.70549719999872,159.70549719999872,159.70549719999872,159.70549719999872,159.70549719999872,159.70549719999872,159.70549719999872,159.70549719999872,159.70549719999872,,003,P012,2025_Feb_08_1145,ConditionRich,2021.2.3,59.95631582785146,
120.75,124.0,41,0.0,Stimuli/Blank.png,0,0.0,0.0,0,53,53,53,,,,,,,,,,,,,120.75837980000142,0.008379800001421245,None,160.47287479999977,160.47287479999977,160.47287479999977,160.47287479999977,160.47287479999977,160.47287479999977,160.47287479999977,160.47287479999977,160.47287479999977,160.47287479999977,,003,P012,2025_Feb_08_1145,ConditionRich,2021.2.3,59.95631582785146,
124.0,124.75,7,0.75,Stimuli/P012/sun_arugqgwhwdjxezyt.jpg,0,0.0,0.0,0,54,54,54,,,,,,,,,,,,,124.02790390000155,0.0279039000015473,None,163.74243019999994,163.74243019999994,163.74243019999994,163.74243019999994,163.74243019999994,163.74243019999994,163.74243019999994,163.74243019999994,163.74243019999994,163.74243019999994,,003,P012,2025_Feb_08_1145,ConditionRich,2021.2.3,59.95631582785146,
124.75,128.0,41,0.0,Stimuli/Blank.png,1,0.25,1.0,0,55,55,55,,,,,,,,,,,,,124.77803060000042,0.028030600000420236,2,164.4930991000001,164.4930991000001,164.4930991000001,164.4930991000001,164.4930991000001,164.4930991000001,164.72666129999925,165.4772641999989,164.4930991000001,164.4930991000001,0.689123500000278,003,P012,2025_Feb_08_1145,ConditionRich,2021.2.3,59.95631582785146,
128.0,128.75,11,0.75,Stimuli/P012/sun_baylllqlgfvxilor.jpg,0,0.0,0.0,0,56,56,56,,,,,,,,,,,,,128.02888080000048,0.028880800000479212,None,167.7292652999986,167.7292652999986,167.7292652999986,167.7292652999986,167.7292652999986,167.7292652999986,167.7292652999986,167.7292652999986,167.7292652999986,167.7292652999986,,003,P012,2025_Feb_08_1145,ConditionRich,2021.2.3,59.95631582785146,
128.75,132.0,41,0.0,Stimuli/Blank.png,0,0.0,0.0,0,57,57,57,,,,,,,,,,,,,128.76333730000079,0.013337300000785035,None,168.46327559999918,168.46327559999918,168.46327559999918,168.46327559999918,168.46327559999918,168.46327559999918,168.46327559999918,168.46327559999918,168.46327559999918,168.46327559999918,,003,P012,2025_Feb_08_1145,ConditionRich,2021.2.3,59.95631582785146,
132.0,132.75,23,0.75,Stimuli/P012/things_clove_06s.jpg,0,0.0,0.0,0,58,58,58,,,,,,,,,,,,,131.99881220000134,-0.0011877999986609211,None,171.6994348999997,171.6994348999997,171.6994348999997,171.6994348999997,171.6994348999997,171.6994348999997,171.6994348999997,171.6994348999997,171.6994348999997,171.6994348999997,,003,P012,2025_Feb_08_1145,ConditionRich,2021.2.3,59.95631582785146,
132.75,136.0,41,0.0,Stimuli/Blank.png,0,0.0,0.0,0,59,59,59,,,,,,,,,,,,,132.7496667000014,-0.0003332999986014329,None,172.45014249999986,172.45014249999986,172.45014249999986,172.45014249999986,172.45014249999986,172.45014249999986,172.45014249999986,172.45014249999986,172.45014249999986,172.45014249999986,,003,P012,2025_Feb_08_1145,ConditionRich,2021.2.3,59.95631582785146,
136.0,136.75,36,0.75,Stimuli/P012/things_shower_cap_06s.jpg,0,0.0,0.0,0,60,60,60,,,,,,,,,,,,,136.00308500000028,0.0030850000002828892,None,175.70301259999906,175.70301259999906,175.70301259999906,175.70301259999906,175.70301259999906,175.70301259999906,175.70301259999906,175.70301259999906,175.70301259999906,175.70301259999906,,003,P012,2025_Feb_08_1145,ConditionRich,2021.2.3,59.95631582785146,
136.75,140.0,41,0.0,Stimuli/Blank.png,0,0.0,0.0,0,61,61,61,,,,,,,,,,,,,136.75449140000092,0.004491400000915746,None,176.45367559999977,176.45367559999977,176.45367559999977,176.45367559999977,176.45367559999977,176.45367559999977,176.45367559999977,176.45367559999977,176.45367559999977,176.45367559999977,,003,P012,2025_Feb_08_1145,ConditionRich,2021.2.3,59.95631582785146,
140.0,140.75,37,0.75,Stimuli/P012/things_spam_06s.jpg,0,0.0,0.0,0,62,62,62,,,,,,,,,,,,,140.00663280000117,0.0066328000011708355,None,179.7065580999988,179.7065580999988,179.7065580999988,179.7065580999988,179.7065580999988,179.7065580999988,179.7065580999988,179.7065580999988,179.7065580999988,179.7065580999988,,003,P012,2025_Feb_08_1145,ConditionRich,2021.2.3,59.95631582785146,
140.75,144.0,41,0.0,Stimuli/Blank.png,0,0.0,0.0,0,63,63,63,,,,,,,,,,,,,140.75870310000028,0.008703100000275299,None,180.47396049999952,180.47396049999952,180.47396049999952,180.47396049999952,180.47396049999952,180.47396049999952,180.47396049999952,180.47396049999952,180.47396049999952,180.47396049999952,,003,P012,2025_Feb_08_1145,ConditionRich,2021.2.3,59.95631582785146,
144.0,144.75,30,0.75,Stimuli/P012/things_hamburger_06s.jpg,1,0.0,0.75,0,64,64,64,,,,,,,,,,,,,144.02894000000015,0.028940000000147847,2,183.7434599999997,183.7434599999997,183.7434599999997,183.7434599999997,183.7434599999997,183.7434599999997,183.7434599999997,None,183.7434599999997,183.7434599999997,0.4718808000015997,003,P012,2025_Feb_08_1145,ConditionRich,2021.2.3,59.95631582785146,
144.75,148.0,41,0.0,Stimuli/Blank.png,0,0.0,0.0,0,65,65,65,,,,,,,,,,,,,144.77765010000076,0.02765010000075563,None,184.47743919999994,184.47743919999994,184.47743919999994,184.47743919999994,184.47743919999994,184.47743919999994,184.47743919999994,184.47743919999994,184.47743919999994,184.47743919999994,,003,P012,2025_Feb_08_1145,ConditionRich,2021.2.3,59.95631582785146,
148.0,148.75,39,0.75,Stimuli/P012/things_thermometer_06s.jpg,0,0.0,0.0,0,66,66,66,,,,,,,,,,,,,148.01415730000008,0.014157300000078976,None,187.71363179999935,187.71363179999935,187.71363179999935,187.71363179999935,187.71363179999935,187.71363179999935,187.71363179999935,187.71363179999935,187.71363179999935,187.71363179999935,,003,P012,2025_Feb_08_1145,ConditionRich,2021.2.3,59.95631582785146,
148.75,152.0,41,0.0,Stimuli/Blank.png,0,0.0,0.0,0,67,67,67,,,,,,,,,,,,,148.7636910000001,0.013691000000108033,None,188.4643027000002,188.4643027000002,188.4643027000002,188.4643027000002,188.4643027000002,188.4643027000002,188.4643027000002,188.4643027000002,188.4643027000002,188.4643027000002,,003,P012,2025_Feb_08_1145,ConditionRich,2021.2.3,59.95631582785146,
152.0,152.75,33,0.75,Stimuli/P012/things_hot-air_balloon_06s.jpg,0,0.0,0.0,0,68,68,68,,,,,,,,,,,,,151.99984930000028,-0.00015069999972183723,None,191.7005054000001,191.7005054000001,191.7005054000001,191.7005054000001,191.7005054000001,191.7005054000001,191.7005054000001,191.7005054000001,191.7005054000001,191.7005054000001,,003,P012,2025_Feb_08_1145,ConditionRich,2021.2.3,59.95631582785146,
152.75,156.0,41,0.0,Stimuli/Blank.png,0,0.0,0.0,0,69,69,69,,,,,,,,,,,,,152.75280790000033,0.0028079000003344845,None,192.46786789999896,192.46786789999896,192.46786789999896,192.46786789999896,192.46786789999896,192.46786789999896,192.46786789999896,192.46786789999896,192.46786789999896,192.46786789999896,,003,P012,2025_Feb_08_1145,ConditionRich,2021.2.3,59.95631582785146,
156.0,156.75,40,0.75,Stimuli/P012/things_woman_06s.jpg,0,0.0,0.0,0,70,70,70,,,,,,,,,,,,,156.02119240000138,0.02119240000138234,None,195.72073789999922,195.72073789999922,195.72073789999922,195.72073789999922,195.72073789999922,195.72073789999922,195.72073789999922,195.72073789999922,195.72073789999922,195.72073789999922,,003,P012,2025_Feb_08_1145,ConditionRich,2021.2.3,59.95631582785146,
156.75,160.0,41,0.0,Stimuli/Blank.png,1,2.25,3.0,0,71,71,71,,,,,,,,,,,,,156.75531290000072,0.005312900000717491,2,196.454712499999,196.454712499999,196.454712499999,196.454712499999,196.454712499999,196.454712499999,198.6900577999986,199.4407143999997,196.454712499999,196.454712499999,2.6768185999990237,003,P012,2025_Feb_08_1145,ConditionRich,2021.2.3,59.95631582785146,
160.0,160.75,32,0.75,Stimuli/P012/things_hood_06s.jpg,0,0.0,0.0,0,72,72,72,,,,,,,,,,,,,160.0069734000008,0.006973400000788388,None,199.70758719999867,199.70758719999867,199.70758719999867,199.70758719999867,199.70758719999867,199.70758719999867,199.70758719999867,199.70758719999867,199.70758719999867,199.70758719999867,,003,P012,2025_Feb_08_1145,ConditionRich,2021.2.3,59.95631582785146,
160.75,164.0,41,0.0,Stimuli/Blank.png,0,0.0,0.0,0,73,73,73,,,,,,,,,,,,,160.75870960000066,0.008709600000656792,None,200.45825409999998,200.45825409999998,200.45825409999998,200.45825409999998,200.45825409999998,200.45825409999998,200.45825409999998,200.45825409999998,200.45825409999998,200.45825409999998,,003,P012,2025_Feb_08_1145,ConditionRich,2021.2.3,59.95631582785146,
164.0,164.75,4,0.75,Stimuli/P012/sun_akpdzjejmtbfopdt.jpg,0,0.0,0.0,0,74,74,74,,,,,,,,,,,,,164.01052670000172,0.010526700001719291,None,203.72781289999875,203.72781289999875,203.72781289999875,203.72781289999875,203.72781289999875,203.72781289999875,203.72781289999875,203.72781289999875,203.72781289999875,203.72781289999875,,003,P012,2025_Feb_08_1145,ConditionRich,2021.2.3,59.95631582785146,
164.75,168.0,41,0.0,Stimuli/Blank.png,0,0.0,0.0,0,75,75,75,,,,,,,,,,,,,164.78002080000078,0.03002080000078422,None,204.49516089999997,204.49516089999997,204.49516089999997,204.49516089999997,204.49516089999997,204.49516089999997,204.49516089999997,204.49516089999997,204.49516089999997,204.49516089999997,,003,P012,2025_Feb_08_1145,ConditionRich,2021.2.3,59.95631582785146,
168.0,168.75,19,0.75,Stimuli/P012/sun_byvwakrdyukjigpc.jpg,0,0.0,0.0,0,76,76,76,,,,,,,,,,,,,168.01475650000066,0.01475650000065798,None,207.71466729999884,207.71466729999884,207.71466729999884,207.71466729999884,207.71466729999884,207.71466729999884,207.71466729999884,207.71466729999884,207.71466729999884,207.71466729999884,,003,P012,2025_Feb_08_1145,ConditionRich,2021.2.3,59.95631582785146,
168.75,172.0,41,0.0,Stimuli/Blank.png,0,0.0,0.0,0,77,77,77,,,,,,,,,,,,,168.7653371000015,0.01533710000148858,None,208.46541210000032,208.46541210000032,208.46541210000032,208.46541210000032,208.46541210000032,208.46541210000032,208.46541210000032,208.46541210000032,208.46541210000032,208.46541210000032,,003,P012,2025_Feb_08_1145,ConditionRich,2021.2.3,59.95631582785146,
172.0,172.75,8,0.75,Stimuli/P012/sun_asppejhsplpizvag.jpg,0,0.0,0.0,0,78,78,78,,,,,,,,,,,,,172.00305030000163,0.003050300001632422,None,211.71821089999867,211.71821089999867,211.71821089999867,211.71821089999867,211.71821089999867,211.71821089999867,211.71821089999867,211.71821089999867,211.71821089999867,211.71821089999867,,003,P012,2025_Feb_08_1145,ConditionRich,2021.2.3,59.95631582785146,
172.75,176.0,41,0.0,Stimuli/Blank.png,0,0.0,0.0,0,79,79,79,,,,,,,,,,,,,172.76827370000137,0.018273700001373072,None,212.4688690999992,212.4688690999992,212.4688690999992,212.4688690999992,212.4688690999992,212.4688690999992,212.4688690999992,212.4688690999992,212.4688690999992,212.4688690999992,,003,P012,2025_Feb_08_1145,ConditionRich,2021.2.3,59.95631582785146,
176.0,176.75,18,0.75,Stimuli/P012/sun_bxlbxustiovyqyrg.jpg,0,0.0,0.0,0,80,80,80,,,,,,,,,,,,,176.00479970000015,0.004799700000148732,None,215.7050717000002,215.7050717000002,215.7050717000002,215.7050717000002,215.7050717000002,215.7050717000002,215.7050717000002,215.7050717000002,215.7050717000002,215.7050717000002,,003,P012,2025_Feb_08_1145,ConditionRich,2021.2.3,59.95631582785146,
176.75,180.0,41,0.0,Stimuli/Blank.png,0,0.0,0.0,0,81,81,81,,,,,,,,,,,,,176.75526300000092,0.005263000000923057,None,216.4557425999992,216.4557425999992,216.4557425999992,216.4557425999992,216.4557425999992,216.4557425999992,216.4557425999992,216.4557425999992,216.4557425999992,216.4557425999992,,003,P012,2025_Feb_08_1145,ConditionRich,2021.2.3,59.95631582785146,
180.0,196.0,0,0.0,Stimuli/Blank.png,1,3.0,3.75,0,82,82,82,,,,,,,,,,,,,180.0080080000007,0.008008000000700122,2,219.7086077999993,219.7086077999993,219.7086077999993,219.7086077999993,219.7086077999993,219.7086077999993,222.69463899999937,223.44525520000025,219.7086077999993,219.7086077999993,3.359726099999534,003,P012,2025_Feb_08_1145,ConditionRich,2021.2.3,59.95631582785146,
196.0,196.75,25,0.75,Stimuli/P012/things_face_06s.jpg,1,0.0,0.75,0,83,83,83,,,,,,,,,,,,,196.00846590000037,0.00846590000037395,2,235.7227772999995,235.7227772999995,235.7227772999995,235.7227772999995,235.7227772999995,235.7227772999995,235.7227772999995,236.45680340000035,235.7227772999995,235.7227772999995,0.4335670000000391,003,P012,2025_Feb_08_1145,ConditionRich,2021.2.3,59.95631582785146,
196.75,200.0,41,0.0,Stimuli/Blank.png,0,0.0,0.0,0,84,84,84,,,,,,,,,,,,,196.7736257000015,0.02362570000150299,None,236.4734501999992,236.4734501999992,236.4734501999992,236.4734501999992,236.4734501999992,236.4734501999992,236.4734501999992,236.4734501999992,236.4734501999992,236.4734501999992,,003,P012,2025_Feb_08_1145,ConditionRich,2021.2.3,59.95631582785146,
200.0,200.75,14,0.75,Stimuli/P012/sun_blybvkoucskrdgiv.jpg,0,0.0,0.0,0,85,85,85,,,,,,,,,,,,,200.00959990000047,0.009599900000466732,None,239.70962809999946,239.70962809999946,239.70962809999946,239.70962809999946,239.70962809999946,239.70962809999946,239.70962809999946,239.70962809999946,239.70962809999946,239.70962809999946,,003,P012,2025_Feb_08_1145,ConditionRich,2021.2.3,59.95631582785146,
200.75,204.0,41,0.0,Stimuli/Blank.png,1,0.25,1.0,0,86,86,86,,,,,,,,,,,,,200.75998810000056,0.009988100000555278,2,240.46029799999997,240.46029799999997,240.46029799999997,240.46029799999997,240.46029799999997,240.46029799999997,240.69390209999983,241.44449410000016,240.46029799999997,240.46029799999997,0.6530977000002167,003,P012,2025_Feb_08_1145,ConditionRich,2021.2.3,59.95631582785146,
204.0,204.75,12,0.75,Stimuli/P012/sun_bcesifdfuidnkdhl.jpg,0,0.0,0.0,0,87,87,87,,,,,,,,,,,,,204.01337450000028,0.013374500000281841,None,243.71318450000035,243.71318450000035,243.71318450000035,243.71318450000035,243.71318450000035,243.71318450000035,243.71318450000035,243.71318450000035,243.71318450000035,243.71318450000035,,003,P012,2025_Feb_08_1145,ConditionRich,2021.2.3,59.95631582785146,
204.75,208.0,41,0.0,Stimuli/Blank.png,0,0.0,0.0,0,88,88,88,,,,,,,,,,,,,204.76403500000015,0.014035000000149012,None,244.46384119999857,244.46384119999857,244.46384119999857,244.46384119999857,244.46384119999857,244.46384119999857,244.46384119999857,244.46384119999857,244.46384119999857,244.46384119999857,,003,P012,2025_Feb_08_1145,ConditionRich,2021.2.3,59.95631582785146,
208.0,208.75,21,0.75,Stimuli/P012/things_baby_06s.jpg,0,0.0,0.0,0,89,89,89,,,,,,,,,,,,,208.00168910000139,0.0016891000013856683,None,247.71673529999862,247.71673529999862,247.71673529999862,247.71673529999862,247.71673529999862,247.71673529999862,247.71673529999862,247.71673529999862,247.71673529999862,247.71673529999862,,003,P012,2025_Feb_08_1145,ConditionRich,2021.2.3,59.95631582785146,
208.75,212.0,41,0.0,Stimuli/Blank.png,0,0.0,0.0,0,90,90,90,,,,,,,,,,,,,208.76758000000154,0.01758000000154425,None,248.4673862999989,248.4673862999989,248.4673862999989,248.4673862999989,248.4673862999989,248.4673862999989,248.4673862999989,248.4673862999989,248.4673862999989,248.4673862999989,,003,P012,2025_Feb_08_1145,ConditionRich,2021.2.3,59.95631582785146,
212.0,212.75,26,0.75,Stimuli/P012/things_gazelle_06s.jpg,0,0.0,0.0,0,91,91,91,,,,,,,,,,,,,212.00373450000006,0.003734500000064145,None,251.70358809999925,251.70358809999925,251.70358809999925,251.70358809999925,251.70358809999925,251.70358809999925,251.70358809999925,251.70358809999925,251.70358809999925,251.70358809999925,,003,P012,2025_Feb_08_1145,ConditionRich,2021.2.3,59.95631582785146,
212.75,216.0,41,0.0,Stimuli/Blank.png,1,2.25,3.0,0,92,92,92,,,,,,,,,,,,,212.7536009000014,0.0036009000014018966,2,252.4542352999997,252.4542352999997,252.4542352999997,252.4542352999997,252.4542352999997,252.4542352999997,254.6896072999989,255.4402556999994,252.4542352999997,252.4542352999997,2.6091217000011966,003,P012,2025_Feb_08_1145,ConditionRich,2021.2.3,59.95631582785146,
216.0,216.75,5,0.75,Stimuli/P012/sun_anfwllcezhlypoti.jpg,0,0.0,0.0,0,93,93,93,,,,,,,,,,,,,216.00749820000055,0.007498200000554789,None,255.7071376999993,255.7071376999993,255.7071376999993,255.7071376999993,255.7071376999993,255.7071376999993,255.7071376999993,255.7071376999993,255.7071376999993,255.7071376999993,,003,P012,2025_Feb_08_1145,ConditionRich,2021.2.3,59.95631582785146,
216.75,220.0,41,0.0,Stimuli/Blank.png,0,0.0,0.0,0,94,94,94,,,,,,,,,,,,,216.7579321000012,0.007932100001198705,None,256.45777909999924,256.45777909999924,256.45777909999924,256.45777909999924,256.45777909999924,256.45777909999924,256.45777909999924,256.45777909999924,256.45777909999924,256.45777909999924,,003,P012,2025_Feb_08_1145,ConditionRich,2021.2.3,59.95631582785146,
220.0,220.75,11,0.75,Stimuli/P012/sun_baylllqlgfvxilor.jpg,0,0.0,0.0,0,95,95,95,,,,,,,,,,,,,220.0128536000011,0.012853600001108134,None,259.7273434999988,259.7273434999988,259.7273434999988,259.7273434999988,259.7273434999988,259.7273434999988,259.7273434999988,259.7273434999988,259.7273434999988,259.7273434999988,,003,P012,2025_Feb_08_1145,ConditionRich,2021.2.3,59.95631582785146,
220.75,224.0,41,0.0,Stimuli/Blank.png,1,1.25,2.0,0,96,96,96,,,,,,,,,,,,,220.7785160000003,0.02851600000030885,2,260.47800669999924,260.47800669999924,260.47800669999924,260.47800669999924,260.47800669999924,260.47800669999924,261.71242379999967,262.4630968999991,260.47800669999924,260.47800669999924,1.6303238999989844,003,P012,2025_Feb_08_1145,ConditionRich,2021.2.3,59.95631582785146,
224.0,224.75,16,0.75,Stimuli/P012/sun_bpuwvyadswjfoaby.jpg,0,0.0,0.0,0,97,97,97,,,,,,,,,,,,,224.0142446000009,0.014244600000893115,None,263.7141983999991,263.7141983999991,263.7141983999991,263.7141983999991,263.7141983999991,263.7141983999991,263.7141983999991,263.7141983999991,263.7141983999991,263.7141983999991,,003,P012,2025_Feb_08_1145,ConditionRich,2021.2.3,59.95631582785146,
224.75,228.0,41,0.0,Stimuli/Blank.png,0,0.0,0.0,0,98,98,98,,,,,,,,,,,,,224.76427310000145,0.014273100001446437,None,264.4648656999998,264.4648656999998,264.4648656999998,264.4648656999998,264.4648656999998,264.4648656999998,264.4648656999998,264.4648656999998,264.4648656999998,264.4648656999998,,003,P012,2025_Feb_08_1145,ConditionRich,2021.2.3,59.95631582785146,
228.0,228.75,33,0.75,Stimuli/P012/things_hot-air_balloon_06s.jpg,0,0.0,0.0,0,99,99,99,,,,,,,,,,,,,228.00132350000058,0.0013235000005806796,None,267.70107540000026,267.70107540000026,267.70107540000026,267.70107540000026,267.70107540000026,267.70107540000026,267.70107540000026,267.70107540000026,267.70107540000026,267.70107540000026,,003,P012,2025_Feb_08_1145,ConditionRich,2021.2.3,59.95631582785146,
228.75,232.0,41,0.0,Stimuli/Blank.png,0,0.0,0.0,0,100,100,100,,,,,,,,,,,,,228.75328560000162,0.0032856000016181497,None,268.46840989999873,268.46840989999873,268.46840989999873,268.46840989999873,268.46840989999873,268.46840989999873,268.46840989999873,268.46840989999873,268.46840989999873,268.46840989999873,,003,P012,2025_Feb_08_1145,ConditionRich,2021.2.3,59.95631582785146,
232.0,232.75,9,0.75,Stimuli/P012/sun_aupohozmrmtfgcsw.jpg,0,0.0,0.0,0,101,101,101,,,,,,,,,,,,,232.02145080000082,0.02145080000082089,None,271.72130560000005,271.72130560000005,271.72130560000005,271.72130560000005,271.72130560000005,271.72130560000005,271.72130560000005,271.72130560000005,271.72130560000005,271.72130560000005,,003,P012,2025_Feb_08_1145,ConditionRich,2021.2.3,59.95631582785146,
232.75,236.0,41,0.0,Stimuli/Blank.png,0,0.0,0.0,0,102,102,102,,,,,,,,,,,,,232.7558809000002,0.0058809000001929235,None,272.4552860999993,272.4552860999993,272.4552860999993,272.4552860999993,272.4552860999993,272.4552860999993,272.4552860999993,272.4552860999993,272.4552860999993,272.4552860999993,,003,P012,2025_Feb_08_1145,ConditionRich,2021.2.3,59.95631582785146,
236.0,236.75,40,0.75,Stimuli/P012/things_woman_06s.jpg,0,0.0,0.0,0,103,103,103,,,,,,,,,,,,,236.0087403000016,0.008740300001591095,None,275.72580430000016,275.72580430000016,275.72580430000016,275.72580430000016,275.72580430000016,275.72580430000016,275.72580430000016,275.72580430000016,275.72580430000016,275.72580430000016,,003,P012,2025_Feb_08_1145,ConditionRich,2021.2.3,59.95631582785146,
236.75,240.0,41,0.0,Stimuli/Blank.png,0,0.0,0.0,0,104,104,104,,,,,,,,,,,,,236.77551530000164,0.02551530000164348,None,276.47550500000034,276.47550500000034,276.47550500000034,276.47550500000034,276.47550500000034,276.47550500000034,276.47550500000034,276.47550500000034,276.47550500000034,276.47550500000034,,003,P012,2025_Feb_08_1145,ConditionRich,2021.2.3,59.95631582785146,
240.0,240.75,3,0.75,Stimuli/P012/sun_afdaynbvsppiyvxm.jpg,0,0.0,0.0,0,105,105,105,,,,,,,,,,,,,240.01176680000026,0.011766800000259536,None,279.7116814000001,279.7116814000001,279.7116814000001,279.7116814000001,279.7116814000001,279.7116814000001,279.7116814000001,279.7116814000001,279.7116814000001,279.7116814000001,,003,P012,2025_Feb_08_1145,ConditionRich,2021.2.3,59.95631582785146,
240.75,244.0,41,0.0,Stimuli/Blank.png,0,0.0,0.0,0,106,106,106,,,,,,,,,,,,,240.7625022000011,0.012502200001108577,None,280.4623555999988,280.4623555999988,280.4623555999988,280.4623555999988,280.4623555999988,280.4623555999988,280.4623555999988,280.4623555999988,280.4623555999988,280.4623555999988,,003,P012,2025_Feb_08_1145,ConditionRich,2021.2.3,59.95631582785146,
244.0,244.75,23,0.75,Stimuli/P012/things_clove_06s.jpg,0,0.0,0.0,0,107,107,107,,,,,,,,,,,,,244.01497550000022,0.014975500000218744,None,283.71522600000026,283.71522600000026,283.71522600000026,283.71522600000026,283.71522600000026,283.71522600000026,283.71522600000026,283.71522600000026,283.71522600000026,283.71522600000026,,003,P012,2025_Feb_08_1145,ConditionRich,2021.2.3,59.95631582785146,
244.75,248.0,41,0.0,Stimuli/Blank.png,0,0.0,0.0,0,108,108,108,,,,,,,,,,,,,244.76543420000053,0.015434200000527198,None,284.4658953999988,284.4658953999988,284.4658953999988,284.4658953999988,284.4658953999988,284.4658953999988,284.4658953999988,284.4658953999988,284.4658953999988,284.4658953999988,,003,P012,2025_Feb_08_1145,ConditionRich,2021.2.3,59.95631582785146,
248.0,248.75,1,0.75,Stimuli/P012/sun_aeakbqnvptdnxtno.jpg,0,0.0,0.0,0,109,109,109,,,,,,,,,,,,,248.00236360000054,0.0023636000005353708,None,287.7020937999987,287.7020937999987,287.7020937999987,287.7020937999987,287.7020937999987,287.7020937999987,287.7020937999987,287.7020937999987,287.7020937999987,287.7020937999987,,003,P012,2025_Feb_08_1145,ConditionRich,2021.2.3,59.95631582785146,
248.75,252.0,41,0.0,Stimuli/Blank.png,0,0.0,0.0,0,110,110,110,,,,,,,,,,,,,248.75315580000097,0.0031558000009681564,None,288.4527524999994,288.4527524999994,288.4527524999994,288.4527524999994,288.4527524999994,288.4527524999994,288.4527524999994,288.4527524999994,288.4527524999994,288.4527524999994,,003,P012,2025_Feb_08_1145,ConditionRich,2021.2.3,59.95631582785146,
252.0,252.75,39,0.75,Stimuli/P012/things_thermometer_06s.jpg,0,0.0,0.0,0,111,111,111,,,,,,,,,,,,,252.00511650000044,0.005116500000440283,None,291.70563239999865,291.70563239999865,291.70563239999865,291.70563239999865,291.70563239999865,291.70563239999865,291.70563239999865,291.70563239999865,291.70563239999865,291.70563239999865,,003,P012,2025_Feb_08_1145,ConditionRich,2021.2.3,59.95631582785146,
252.75,256.0,41,0.0,Stimuli/Blank.png,0,0.0,0.0,0,112,112,112,,,,,,,,,,,,,252.75815980000152,0.008159800001521944,None,292.4729959999986,292.4729959999986,292.4729959999986,292.4729959999986,292.4729959999986,292.4729959999986,292.4729959999986,292.4729959999986,292.4729959999986,292.4729959999986,,003,P012,2025_Feb_08_1145,ConditionRich,2021.2.3,59.95631582785146,
256.0,256.75,31,0.75,Stimuli/P012/things_hippopotamus_06s.jpg,0,0.0,0.0,0,113,113,113,,,,,,,,,,,,,256.0279683000008,0.027968300000793533,None,295.74253809999936,295.74253809999936,295.74253809999936,295.74253809999936,295.74253809999936,295.74253809999936,295.74253809999936,295.74253809999936,295.74253809999936,295.74253809999936,,003,P012,2025_Feb_08_1145,ConditionRich,2021.2.3,59.95631582785146,
256.75,260.0,41,0.0,Stimuli/Blank.png,0,0.0,0.0,0,114,114,114,,,,,,,,,,,,,256.7786246000014,0.02862460000142164,None,296.49320459999944,296.49320459999944,296.49320459999944,296.49320459999944,296.49320459999944,296.49320459999944,296.49320459999944,296.49320459999944,296.49320459999944,296.49320459999944,,003,P012,2025_Feb_08_1145,ConditionRich,2021.2.3,59.95631582785146,
260.0,260.75,2,0.75,Stimuli/P012/sun_aewhvqonribwlxiq.jpg,0,0.0,0.0,0,115,115,115,,,,,,,,,,,,,260.0295023000017,0.029502300001695403,None,299.72939119999864,299.72939119999864,299.72939119999864,299.72939119999864,299.72939119999864,299.72939119999864,299.72939119999864,299.72939119999864,299.72939119999864,299.72939119999864,,003,P012,2025_Feb_08_1145,ConditionRich,2021.2.3,59.95631582785146,
260.75,264.0,41,0.0,Stimuli/Blank.png,0,0.0,0.0,0,116,116,116,,,,,,,,,,,,,260.7636054000013,0.013605400001324597,None,300.463378299999,300.463378299999,300.463378299999,300.463378299999,300.463378299999,300.463378299999,300.463378299999,300.463378299999,300.463378299999,300.463378299999,,003,P012,2025_Feb_08_1145,ConditionRich,2021.2.3,59.95631582785146,
264.0,264.75,13,0.75,Stimuli/P012/sun_bjedvzikugwleyer.jpg,0,0.0,0.0,0,117,117,117,,,,,,,,,,,,,263.9991370000007,-0.0008629999992990633,None,303.6995815999999,303.6995815999999,303.6995815999999,303.6995815999999,303.6995815999999,303.6995815999999,303.6995815999999,303.6995815999999,303.6995815999999,303.6995815999999,,003,P012,2025_Feb_08_1145,ConditionRich,2021.2.3,59.95631582785146,
264.75,268.0,41,0.0,Stimuli/Blank.png,1,1.25,2.0,0,118,118,118,,,,,,,,,,,,,264.7502342000007,0.0002342000007047318,2,304.450246299999,304.450246299999,304.450246299999,304.450246299999,304.450246299999,304.450246299999,305.68470009999874,306.4353680000004,304.450246299999,304.450246299999,1.6991355999998632,003,P012,2025_Feb_08_1145,ConditionRich,2021.2.3,59.95631582785146,
268.0,268.75,7,0.75,Stimuli/P012/sun_arugqgwhwdjxezyt.jpg,0,0.0,0.0,0,119,119,119,,,,,,,,,,,,,268.00254870000026,0.002548700000261306,None,307.7031152999989,307.7031152999989,307.7031152999989,307.7031152999989,307.7031152999989,307.7031152999989,307.7031152999989,307.7031152999989,307.7031152999989,307.7031152999989,,003,P012,2025_Feb_08_1145,ConditionRich,2021.2.3,59.95631582785146,
268.75,272.0,41,0.0,Stimuli/Blank.png,0,0.0,0.0,0,120,120,120,,,,,,,,,,,,,268.75392160000047,0.003921600000467151,None,308.45378100000016,308.45378100000016,308.45378100000016,308.45378100000016,308.45378100000016,308.45378100000016,308.45378100000016,308.45378100000016,308.45378100000016,308.45378100000016,,003,P012,2025_Feb_08_1145,ConditionRich,2021.2.3,59.95631582785146,
272.0,272.75,34,0.75,Stimuli/P012/things_polar_bear_06s.jpg,0,0.0,0.0,0,121,121,121,,,,,,,,,,,,,272.0083229000011,0.00832290000107605,None,311.72344039999916,311.72344039999916,311.72344039999916,311.72344039999916,311.72344039999916,311.72344039999916,311.72344039999916,311.72344039999916,311.72344039999916,311.72344039999916,,003,P012,2025_Feb_08_1145,ConditionRich,2021.2.3,59.95631582785146,
272.75,276.0,41,0.0,Stimuli/Blank.png,0,0.0,0.0,0,122,122,122,,,,,,,,,,,,,272.77351010000166,0.02351010000165843,None,312.4740002999988,312.4740002999988,312.4740002999988,312.4740002999988,312.4740002999988,312.4740002999988,312.4740002999988,312.4740002999988,312.4740002999988,312.4740002999988,,003,P012,2025_Feb_08_1145,ConditionRich,2021.2.3,59.95631582785146,
276.0,292.0,0,0.0,Stimuli/Blank.png,1,1.0,1.75,0,123,123,123,,,,,,,,,,,,,276.0097753000009,0.009775300000910647,2,315.7101967999988,315.7101967999988,315.7101967999988,315.7101967999988,315.7101967999988,315.7101967999988,316.69450270000016,317.4450617000002,315.7101967999988,315.7101967999988,1.3724344999991445,003,P012,2025_Feb_08_1145,ConditionRich,2021.2.3,59.95631582785146,
292.0,292.75,37,0.75,Stimuli/P012/things_spam_06s.jpg,0,0.0,0.0,0,124,124,124,,,,,,,,,,,,,292.0079521000007,0.007952100000693463,None,331.7076868000004,331.7076868000004,331.7076868000004,331.7076868000004,331.7076868000004,331.7076868000004,331.7076868000004,331.7076868000004,331.7076868000004,331.7076868000004,,003,P012,2025_Feb_08_1145,ConditionRich,2021.2.3,59.95631582785146,
292.75,296.0,41,0.0,Stimuli/Blank.png,1,0.25,1.0,0,125,125,125,,,,,,,,,,,,,292.7587912000017,0.008791200001724064,2,332.45835090000037,332.45835090000037,332.45835090000037,332.45835090000037,332.45835090000037,332.45835090000037,332.6918848999994,333.4425519999986,332.45835090000037,332.45835090000037,0.7129820000009204,003,P012,2025_Feb_08_1145,ConditionRich,2021.2.3,59.95631582785146,
296.0,296.75,24,0.75,Stimuli/P012/things_doily_06s.jpg,0,0.0,0.0,0,126,126,126,,,,,,,,,,,,,296.01331310000023,0.013313100000232225,None,335.72790879999957,335.72790879999957,335.72790879999957,335.72790879999957,335.72790879999957,335.72790879999957,335.72790879999957,335.72790879999957,335.72790879999957,335.72790879999957,,003,P012,2025_Feb_08_1145,ConditionRich,2021.2.3,59.95631582785146,
296.75,300.0,41,0.0,Stimuli/Blank.png,0,0.0,0.0,0,127,127,127,,,,,,,,,,,,,296.77874820000034,0.02874820000033651,None,336.4785895999994,336.4785895999994,336.4785895999994,336.4785895999994,336.4785895999994,336.4785895999994,336.4785895999994,336.4785895999994,336.4785895999994,336.4785895999994,,003,P012,2025_Feb_08_1145,ConditionRich,2021.2.3,59.95631582785146,
300.0,300.75,27,0.75,Stimuli/P012/things_girl_06s.jpg,0,0.0,0.0,0,128,128,128,,,,,,,,,,,,,300.01500490000035,0.015004900000349153,None,339.71476110000003,339.71476110000003,339.71476110000003,339.71476110000003,339.71476110000003,339.71476110000003,339.71476110000003,339.71476110000003,339.71476110000003,339.71476110000003,,003,P012,2025_Feb_08_1145,ConditionRich,2021.2.3,59.95631582785146,
300.75,304.0,41,0.0,Stimuli/Blank.png,0,0.0,0.0,0,129,129,129,,,,,,,,,,,,,300.7648405,0.014840499999991152,None,340.46543779999956,340.46543779999956,340.46543779999956,340.46543779999956,340.46543779999956,340.46543779999956,340.46543779999956,340.46543779999956,340.46543779999956,340.46543779999956,,003,P012,2025_Feb_08_1145,ConditionRich,2021.2.3,59.95631582785146,
304.0,304.75,17,0.75,Stimuli/P012/sun_btvwhlxbhcqnqzok.jpg,0,0.0,0.0,0,130,130,130,,,,,,,,,,,,,304.0032798000011,0.003279800001109834,None,343.71831679999923,343.71831679999923,343.71831679999923,343.71831679999923,343.71831679999923,343.71831679999923,343.71831679999923,343.71831679999923,343.71831679999923,343.71831679999923,,003,P012,2025_Feb_08_1145,ConditionRich,2021.2.3,59.95631582785146,
304.75,308.0,41,0.0,Stimuli/Blank.png,0,0.0,0.0,0,131,131,131,,,,,,,,,,,,,304.76834510000117,0.018345100001170067,None,344.4689449999987,344.4689449999987,344.4689449999987,344.4689449999987,344.4689449999987,344.4689449999987,344.4689449999987,344.4689449999987,344.4689449999987,344.4689449999987,,003,P012,2025_Feb_08_1145,ConditionRich,2021.2.3,59.95631582785146,
308.0,308.75,4,0.75,Stimuli/P012/sun_akpdzjejmtbfopdt.jpg,0,0.0,0.0,0,132,132,132,,,,,,,,,,,,,308.00468900000124,0.004689000001235399,None,347.7051836999999,347.7051836999999,347.7051836999999,347.7051836999999,347.7051836999999,347.7051836999999,347.7051836999999,347.7051836999999,347.7051836999999,347.7051836999999,,003,P012,2025_Feb_08_1145,ConditionRich,2021.2.3,59.95631582785146,
308.75,312.0,41,0.0,Stimuli/Blank.png,0,0.0,0.0,0,133,133,133,,,,,,,,,,,,,308.7554730000011,0.005473000001074979,None,348.45582250000007,348.45582250000007,348.45582250000007,348.45582250000007,348.45582250000007,348.45582250000007,348.45582250000007,348.45582250000007,348.45582250000007,348.45582250000007,,003,P012,2025_Feb_08_1145,ConditionRich,2021.2.3,59.95631582785146,
312.0,312.75,28,0.75,Stimuli/P012/things_grasshopper_06s.jpg,0,0.0,0.0,0,134,134,134,,,,,,,,,,,,,312.0093521000017,0.009352100001706276,None,351.70870300000024,351.70870300000024,351.70870300000024,351.70870300000024,351.70870300000024,351.70870300000024,351.70870300000024,351.70870300000024,351.70870300000024,351.70870300000024,,003,P012,2025_Feb_08_1145,ConditionRich,2021.2.3,59.95631582785146,
312.75,316.0,41,0.0,Stimuli/Blank.png,0,0.0,0.0,0,135,135,135,,,,,,,,,,,,,312.7595717000004,0.009571700000378769,None,352.4593798999995,352.4593798999995,352.4593798999995,352.4593798999995,352.4593798999995,352.4593798999995,352.4593798999995,352.4593798999995,352.4593798999995,352.4593798999995,,003,P012,2025_Feb_08_1145,ConditionRich,2021.2.3,59.95631582785146,
316.0,316.75,18,0.75,Stimuli/P012/sun_bxlbxustiovyqyrg.jpg,0,0.0,0.0,0,136,136,136,,,,,,,,,,,,,316.01168190000135,0.011681900001349277,None,355.7122486999997,355.7122486999997,355.7122486999997,355.7122486999997,355.7122486999997,355.7122486999997,355.7122486999997,355.7122486999997,355.7122486999997,355.7122486999997,,003,P012,2025_Feb_08_1145,ConditionRich,2021.2.3,59.95631582785146,
316.75,320.0,41,0.0,Stimuli/Blank.png,0,0.0,0.0,0,137,137,137,,,,,,,,,,,,,316.76351090000026,0.013510900000255788,None,356.4629215999994,356.4629215999994,356.4629215999994,356.4629215999994,356.4629215999994,356.4629215999994,356.4629215999994,356.4629215999994,356.4629215999994,356.4629215999994,,003,P012,2025_Feb_08_1145,ConditionRich,2021.2.3,59.95631582785146,
320.0,320.75,35,0.75,Stimuli/P012/things_raccoon_06n.jpg,0,0.0,0.0,0,138,138,138,,,,,,,,,,,,,319.99939040000027,-0.0006095999997342005,None,359.6991084000001,359.6991084000001,359.6991084000001,359.6991084000001,359.6991084000001,359.6991084000001,359.6991084000001,359.6991084000001,359.6991084000001,359.6991084000001,,003,P012,2025_Feb_08_1145,ConditionRich,2021.2.3,59.95631582785146,
320.75,324.0,41,0.0,Stimuli/Blank.png,0,0.0,0.0,0,139,139,139,,,,,,,,,,,,,320.7494271000014,-0.0005728999985876726,None,360.4497849999989,360.4497849999989,360.4497849999989,360.4497849999989,360.4497849999989,360.4497849999989,360.4497849999989,360.4497849999989,360.4497849999989,360.4497849999989,,003,P012,2025_Feb_08_1145,ConditionRich,2021.2.3,59.95631582785146,
324.0,324.75,6,0.75,Stimuli/P012/sun_aqysdudvyxnkcxgq.jpg,0,0.0,0.0,0,140,140,140,,,,,,,,,,,,,324.00289710000106,0.0028971000010642456,None,363.70266730000003,363.70266730000003,363.70266730000003,363.70266730000003,363.70266730000003,363.70266730000003,363.70266730000003,363.70266730000003,363.70266730000003,363.70266730000003,,003,P012,2025_Feb_08_1145,ConditionRich,2021.2.3,59.95631582785146,
324.75,328.0,41,0.0,Stimuli/Blank.png,1,2.25,3.0,0,141,141,141,,,,,,,,,,,,,324.7525803000008,0.002580300000772695,2,364.45330809999905,364.45330809999905,364.45330809999905,364.45330809999905,364.45330809999905,364.45330809999905,366.6886137999991,367.4393522999999,364.45330809999905,364.45330809999905,2.6131163999998535,003,P012,2025_Feb_08_1145,ConditionRich,2021.2.3,59.95631582785146,
328.0,328.75,10,0.75,Stimuli/P012/sun_awufkrkrdrdbvvis.jpg,0,0.0,0.0,0,142,142,142,,,,,,,,,,,,,328.0065409000017,0.006540900001709815,None,367.70619499999884,367.70619499999884,367.70619499999884,367.70619499999884,367.70619499999884,367.70619499999884,367.70619499999884,367.70619499999884,367.70619499999884,367.70619499999884,,003,P012,2025_Feb_08_1145,ConditionRich,2021.2.3,59.95631582785146,
328.75,332.0,41,0.0,Stimuli/Blank.png,0,0.0,0.0,0,143,143,143,,,,,,,,,,,,,328.7589994000009,0.008999400000902824,None,368.47353509999994,368.47353509999994,368.47353509999994,368.47353509999994,368.47353509999994,368.47353509999994,368.47353509999994,368.47353509999994,368.47353509999994,368.47353509999994,,003,P012,2025_Feb_08_1145,ConditionRich,2021.2.3,59.95631582785146,
332.0,332.75,22,0.75,Stimuli/P012/things_boy_06s.jpg,0,0.0,0.0,0,144,144,144,,,,,,,,,,,,,332.0286130000004,0.02861300000040501,None,371.74309639999956,371.74309639999956,371.74309639999956,371.74309639999956,371.74309639999956,371.74309639999956,371.74309639999956,371.74309639999956,371.74309639999956,371.74309639999956,,003,P012,2025_Feb_08_1145,ConditionRich,2021.2.3,59.95631582785146,
332.75,336.0,41,0.0,Stimuli/Blank.png,0,0.0,0.0,0,145,145,145,,,,,,,,,,,,,332.77947770000173,0.029477700001734775,None,372.4937635999995,372.4937635999995,372.4937635999995,372.4937635999995,372.4937635999995,372.4937635999995,372.4937635999995,372.4937635999995,372.4937635999995,372.4937635999995,,003,P012,2025_Feb_08_1145,ConditionRich,2021.2.3,59.95631582785146,
336.0,336.75,19,0.75,Stimuli/P012/sun_byvwakrdyukjigpc.jpg,0,0.0,0.0,0,146,146,146,,,,,,,,,,,,,336.0135225000013,0.01352250000127242,None,375.7132860999991,375.7132860999991,375.7132860999991,375.7132860999991,375.7132860999991,375.7132860999991,375.7132860999991,375.7132860999991,375.7132860999991,375.7132860999991,,003,P012,2025_Feb_08_1145,ConditionRich,2021.2.3,59.95631582785146,
336.75,340.0,41,0.0,Stimuli/Blank.png,0,0.0,0.0,0,147,147,147,,,,,,,,,,,,,336.7645629000017,0.01456290000169247,None,376.4639883999989,376.4639883999989,376.4639883999989,376.4639883999989,376.4639883999989,376.4639883999989,376.4639883999989,376.4639883999989,376.4639883999989,376.4639883999989,,003,P012,2025_Feb_08_1145,ConditionRich,2021.2.3,59.95631582785146,
340.0,340.75,32,0.75,Stimuli/P012/things_hood_06s.jpg,0,0.0,0.0,0,148,148,148,,,,,,,,,,,,,340.00019600000087,0.00019600000086938962,None,379.71681979999994,379.71681979999994,379.71681979999994,379.71681979999994,379.71681979999994,379.71681979999994,379.71681979999994,379.71681979999994,379.71681979999994,379.71681979999994,,003,P012,2025_Feb_08_1145,ConditionRich,2021.2.3,59.95631582785146,
340.75,344.0,41,0.0,Stimuli/Blank.png,0,0.0,0.0,0,149,149,149,,,,,,,,,,,,,340.7675119000014,0.01751190000140923,None,380.46748189999926,380.46748189999926,380.46748189999926,380.46748189999926,380.46748189999926,380.46748189999926,380.46748189999926,380.46748189999926,380.46748189999926,380.46748189999926,,003,P012,2025_Feb_08_1145,ConditionRich,2021.2.3,59.95631582785146,
344.0,344.75,36,0.75,Stimuli/P012/things_shower_cap_06s.jpg,0,0.0,0.0,0,150,150,150,,,,,,,,,,,,,344.0033846000006,0.003384600000572391,None,383.7036859,383.7036859,383.7036859,383.7036859,383.7036859,383.7036859,383.7036859,383.7036859,383.7036859,383.7036859,,003,P012,2025_Feb_08_1145,ConditionRich,2021.2.3,59.95631582785146,
344.75,348.0,41,0.0,Stimuli/Blank.png,1,0.25,1.0,0,151,151,151,,,,,,,,,,,,,344.75433580000026,0.0043358000002626795,2,384.45434079999904,384.45434079999904,384.45434079999904,384.45434079999904,384.45434079999904,384.45434079999904,384.68787469999916,385.4385354999995,384.45434079999904,384.45434079999904,1.1252368000004935,003,P012,2025_Feb_08_1145,ConditionRich,2021.2.3,59.95631582785146,
348.0,348.75,38,0.75,Stimuli/P012/things_squeegee_06s.jpg,0,0.0,0.0,0,152,152,152,,,,,,,,,,,,,348.00987800000075,0.009878000000753673,None,387.7238959999995,387.7238959999995,387.7238959999995,387.7238959999995,387.7238959999995,387.7238959999995,387.7238959999995,387.7238959999995,387.7238959999995,387.7238959999995,,003,P012,2025_Feb_08_1145,ConditionRich,2021.2.3,59.95631582785146,
348.75,352.0,41,0.0,Stimuli/Blank.png,1,2.25,3.0,0,153,153,153,,,,,,,,,,,,,348.7748760000013,0.024876000001313514,2,388.4745516999992,388.4745516999992,388.4745516999992,388.4745516999992,388.4745516999992,388.4745516999992,390.7100467,391.4605811000001,388.4745516999992,388.4745516999992,2.6319875000008324,003,P012,2025_Feb_08_1145,ConditionRich,2021.2.3,59.95631582785146,
352.0,352.75,15,0.75,Stimuli/P012/sun_bmngnyuahubpqroh.jpg,0,0.0,0.0,0,154,154,154,,,,,,,,,,,,,352.01110490000065,0.011104900000646012,None,391.7274265999986,391.7274265999986,391.7274265999986,391.7274265999986,391.7274265999986,391.7274265999986,391.7274265999986,391.7274265999986,391.7274265999986,391.7274265999986,,003,P012,2025_Feb_08_1145,ConditionRich,2021.2.3,59.95631582785146,
352.75,356.0,41,0.0,Stimuli/Blank.png,0,0.0,0.0,0,155,155,155,,,,,,,,,,,,,352.77834800000164,0.028348000001642504,None,392.478102699999,392.478102699999,392.478102699999,392.478102699999,392.478102699999,392.478102699999,392.478102699999,392.478102699999,392.478102699999,392.478102699999,,003,P012,2025_Feb_08_1145,ConditionRich,2021.2.3,59.95631582785146,
356.0,356.75,8,0.75,Stimuli/P012/sun_asppejhsplpizvag.jpg,0,0.0,0.0,0,156,156,156,,,,,,,,,,,,,356.0144607000002,0.014460700000199722,None,395.7143003000001,395.7143003000001,395.7143003000001,395.7143003000001,395.7143003000001,395.7143003000001,395.7143003000001,395.7143003000001,395.7143003000001,395.7143003000001,,003,P012,2025_Feb_08_1145,ConditionRich,2021.2.3,59.95631582785146,
356.75,360.0,41,0.0,Stimuli/Blank.png,0,0.0,0.0,0,157,157,157,,,,,,,,,,,,,356.7650383,0.015038300000014715,None,396.464958999999,396.464958999999,396.464958999999,396.464958999999,396.464958999999,396.464958999999,396.464958999999,396.464958999999,396.464958999999,396.464958999999,,003,P012,2025_Feb_08_1145,ConditionRich,2021.2.3,59.95631582785146,
360.0,360.75,30,0.75,Stimuli/P012/things_hamburger_06s.jpg,0,0.0,0.0,0,158,158,158,,,,,,,,,,,,,360.0036751000007,0.0036751000006916,None,399.7178385999996,399.7178385999996,399.7178385999996,399.7178385999996,399.7178385999996,399.7178385999996,399.7178385999996,399.7178385999996,399.7178385999996,399.7178385999996,,003,P012,2025_Feb_08_1145,ConditionRich,2021.2.3,59.95631582785146,
360.75,364.0,41,0.0,Stimuli/Blank.png,0,0.0,0.0,0,159,159,159,,,,,,,,,,,,,360.76900360000036,0.019003600000360166,None,400.4685135,400.4685135,400.4685135,400.4685135,400.4685135,400.4685135,400.4685135,400.4685135,400.4685135,400.4685135,,003,P012,2025_Feb_08_1145,ConditionRich,2021.2.3,59.95631582785146,
364.0,364.75,29,0.75,Stimuli/P012/things_gutter_06s.jpg,0,0.0,0.0,0,160,160,160,,,,,,,,,,,,,364.0048603000014,0.004860300001382711,None,403.7046959999989,403.7046959999989,403.7046959999989,403.7046959999989,403.7046959999989,403.7046959999989,403.7046959999989,403.7046959999989,403.7046959999989,403.7046959999989,,003,P012,2025_Feb_08_1145,ConditionRich,2021.2.3,59.95631582785146,
364.75,368.0,41,0.0,Stimuli/Blank.png,0,0.0,0.0,0,161,161,161,,,,,,,,,,,,,364.75615460000154,0.006154600001536892,None,404.45537539999896,404.45537539999896,404.45537539999896,404.45537539999896,404.45537539999896,404.45537539999896,404.45537539999896,404.45537539999896,404.45537539999896,404.45537539999896,,003,P012,2025_Feb_08_1145,ConditionRich,2021.2.3,59.95631582785146,
368.0,368.75,20,0.75,Stimuli/P012/sun_ciifteeudwpxupnw.jpg,0,0.0,0.0,0,162,162,162,,,,,,,,,,,,,368.00871160000133,0.008711600001333863,None,407.7082473999999,407.7082473999999,407.7082473999999,407.7082473999999,407.7082473999999,407.7082473999999,407.7082473999999,407.7082473999999,407.7082473999999,407.7082473999999,,003,P012,2025_Feb_08_1145,ConditionRich,2021.2.3,59.95631582785146,
368.75,372.0,41,0.0,Stimuli/Blank.png,0,0.0,0.0,0,163,163,163,,,,,,,,,,,,,368.75836040000104,0.008360400001038215,None,408.45890150000014,408.45890150000014,408.45890150000014,408.45890150000014,408.45890150000014,408.45890150000014,408.45890150000014,408.45890150000014,408.45890150000014,408.45890150000014,,003,P012,2025_Feb_08_1145,ConditionRich,2021.2.3,59.95631582785146,
372.0,388.0,0,0.0,Stimuli/Blank.png,1,12.0,12.75,0,164,164,164,,,,,,,,,,,,,372.01422840000123,0.014228400001229602,2,411.7284604999986,411.7284604999986,411.7284604999986,411.7284604999986,411.7284604999986,411.7284604999986,423.7057208999995,424.45642319999934,411.7284604999986,411.7284604999986,12.399297300000399,003,P012,2025_Feb_08_1145,ConditionRich,2021.2.3,59.95631582785146,
