eventStartTime,eventEndTime,eventCond,imSize,imFile,responseEvent,fixRespStart,fixRespEnd,Events.thisRepN,Events.thisTrialN,Events.thisN,Events.thisIndex,Instructions.started,Instructions.stopped,participantReadyResponse.keys,participantReadyResponse.rt,participantReadyResponse.started,participantReadyResponse.stopped,startWaitforTrigger,triggerResponse.keys,triggerResponse.rt,triggerResponse.started,triggerResponse.stopped,globalTimer,actualStartTime,startTimingDiff,participantResponse.keys,participantResponse.started,participantResponse.stopped,image.started,image.stopped,fixationOutside.started,fixationOutside.stopped,fixationResponse.started,fixationResponse.stopped,fixationInside.started,fixationInside.stopped,participantResponse.rt,session,participant,date,expName,psychopyVersion,frameRate,
,,,,,,,,,,,,14.809167800000068,None,2,13.412894199998846,14.809167800000068,None,,,,,,,,,,,,,,,,,,,,,009,P012,2025_Feb_08_1243,ConditionRich,2021.2.3,59.92854120729872,
,,,,,,,,,,,,,,,,,,28.234577299999728,5,15.23254739999902,28.24780439999995,None,,,,,,,,,,,,,,,,009,P012,2025_Feb_08_1243,ConditionRich,2021.2.3,59.92854120729872,
0.0,4.0,0,0.0,Stimuli/Blank.png,0,0.0,0.0,0,0,0,0,,,,,,,,,,,,43.49800430000141,0.03977409999970405,0.03977409999970405,None,43.561359500001345,None,43.561359500001345,None,43.561359500001345,None,43.561359500001345,43.561359500001345,43.561359500001345,None,,009,P012,2025_Feb_08_1243,ConditionRich,2021.2.3,59.92854120729872,
4.0,4.75,4,0.75,Stimuli/P012/sun_akpdzjejmtbfopdt.jpg,0,0.0,0.0,0,1,1,1,,,,,,,,,,,,,4.019620400000349,0.019620400000349036,None,47.53182580000066,47.53182580000066,47.53182580000066,47.53182580000066,47.53182580000066,47.53182580000066,47.53182580000066,47.53182580000066,47.53182580000066,47.53182580000066,,009,P012,2025_Feb_08_1243,ConditionRich,2021.2.3,59.92854120729872,
4.75,8.0,41,0.0,Stimuli/Blank.png,0,0.0,0.0,0,2,2,2,,,,,,,,,,,,,4.755589100001089,0.005589100001088809,None,48.28248420000091,48.28248420000091,48.28248420000091,48.28248420000091,48.28248420000091,48.28248420000091,48.28248420000091,48.28248420000091,48.28248420000091,48.28248420000091,,009,P012,2025_Feb_08_1243,ConditionRich,2021.2.3,59.92854120729872,
8.0,8.75,31,0.75,Stimuli/P012/things_hippopotamus_06s.jpg,0,0.0,0.0,0,3,3,3,,,,,,,,,,,,,8.024694499999896,0.024694499999895925,None,51.55176279999978,51.55176279999978,51.55176279999978,51.55176279999978,51.55176279999978,51.55176279999978,51.55176279999978,51.55176279999978,51.55176279999978,51.55176279999978,,009,P012,2025_Feb_08_1243,ConditionRich,2021.2.3,59.92854120729872,
8.75,12.0,41,0.0,Stimuli/Blank.png,0,0.0,0.0,0,4,4,4,,,,,,,,,,,,,8.775160600000163,0.025160600000162958,None,52.302431900001466,52.302431900001466,52.302431900001466,52.302431900001466,52.302431900001466,52.302431900001466,52.302431900001466,52.302431900001466,52.302431900001466,52.302431900001466,,009,P012,2025_Feb_08_1243,ConditionRich,2021.2.3,59.92854120729872,
12.0,12.75,18,0.75,Stimuli/P012/sun_bxlbxustiovyqyrg.jpg,0,0.0,0.0,0,5,5,5,,,,,,,,,,,,,12.025992800001404,0.025992800001404248,None,55.53861640000105,55.53861640000105,55.53861640000105,55.53861640000105,55.53861640000105,55.53861640000105,55.53861640000105,55.53861640000105,55.53861640000105,55.53861640000105,,009,P012,2025_Feb_08_1243,ConditionRich,2021.2.3,59.92854120729872,
12.75,16.0,41,0.0,Stimuli/Blank.png,0,0.0,0.0,0,6,6,6,,,,,,,,,,,,,12.760127300000022,0.010127300000021933,None,56.2726042000013,56.2726042000013,56.2726042000013,56.2726042000013,56.2726042000013,56.2726042000013,56.2726042000013,56.2726042000013,56.2726042000013,56.2726042000013,,009,P012,2025_Feb_08_1243,ConditionRich,2021.2.3,59.92854120729872,
16.0,16.75,19,0.75,Stimuli/P012/sun_byvwakrdyukjigpc.jpg,0,0.0,0.0,0,7,7,7,,,,,,,,,,,,,16.016082000000097,0.01608200000009674,None,59.542167300000074,59.542167300000074,59.542167300000074,59.542167300000074,59.542167300000074,59.542167300000074,59.542167300000074,59.542167300000074,59.542167300000074,59.542167300000074,,009,P012,2025_Feb_08_1243,ConditionRich,2021.2.3,59.92854120729872,
16.75,20.0,41,0.0,Stimuli/Blank.png,0,0.0,0.0,0,8,8,8,,,,,,,,,,,,,16.764947600000596,0.01494760000059614,None,60.27615429999969,60.27615429999969,60.27615429999969,60.27615429999969,60.27615429999969,60.27615429999969,60.27615429999969,60.27615429999969,60.27615429999969,60.27615429999969,,009,P012,2025_Feb_08_1243,ConditionRich,2021.2.3,59.92854120729872,
20.0,20.75,12,0.75,Stimuli/P012/sun_bcesifdfuidnkdhl.jpg,0,0.0,0.0,0,9,9,9,,,,,,,,,,,,,19.999874700000873,-0.0001252999991265824,None,63.51233660000071,63.51233660000071,63.51233660000071,63.51233660000071,63.51233660000071,63.51233660000071,63.51233660000071,63.51233660000071,63.51233660000071,63.51233660000071,,009,P012,2025_Feb_08_1243,ConditionRich,2021.2.3,59.92854120729872,
20.75,24.0,41,0.0,Stimuli/Blank.png,0,0.0,0.0,0,10,10,10,,,,,,,,,,,,,20.75063940000109,0.0006394000010914169,None,64.2630590000008,64.2630590000008,64.2630590000008,64.2630590000008,64.2630590000008,64.2630590000008,64.2630590000008,64.2630590000008,64.2630590000008,64.2630590000008,,009,P012,2025_Feb_08_1243,ConditionRich,2021.2.3,59.92854120729872,
24.0,24.75,37,0.75,Stimuli/P012/things_spam_06s.jpg,0,0.0,0.0,0,11,11,11,,,,,,,,,,,,,24.005669899999702,0.005669899999702466,None,67.53257160000067,67.53257160000067,67.53257160000067,67.53257160000067,67.53257160000067,67.53257160000067,67.53257160000067,67.53257160000067,67.53257160000067,67.53257160000067,,009,P012,2025_Feb_08_1243,ConditionRich,2021.2.3,59.92854120729872,
24.75,28.0,41,0.0,Stimuli/Blank.png,0,0.0,0.0,0,12,12,12,,,,,,,,,,,,,24.770856099999946,0.02085609999994631,None,68.2832312999999,68.2832312999999,68.2832312999999,68.2832312999999,68.2832312999999,68.2832312999999,68.2832312999999,68.2832312999999,68.2832312999999,68.2832312999999,,009,P012,2025_Feb_08_1243,ConditionRich,2021.2.3,59.92854120729872,
28.0,28.75,38,0.75,Stimuli/P012/things_squeegee_06s.jpg,0,0.0,0.0,0,13,13,13,,,,,,,,,,,,,28.007139200000893,0.0071392000008927425,None,71.5194276000002,71.5194276000002,71.5194276000002,71.5194276000002,71.5194276000002,71.5194276000002,71.5194276000002,71.5194276000002,71.5194276000002,71.5194276000002,,009,P012,2025_Feb_08_1243,ConditionRich,2021.2.3,59.92854120729872,
28.75,32.0,41,0.0,Stimuli/Blank.png,0,0.0,0.0,0,14,14,14,,,,,,,,,,,,,28.76029980000021,0.01029980000021169,None,72.2867838000002,72.2867838000002,72.2867838000002,72.2867838000002,72.2867838000002,72.2867838000002,72.2867838000002,72.2867838000002,72.2867838000002,72.2867838000002,,009,P012,2025_Feb_08_1243,ConditionRich,2021.2.3,59.92854120729872,
32.0,32.75,32,0.75,Stimuli/P012/things_hood_06s.jpg,0,0.0,0.0,0,15,15,15,,,,,,,,,,,,,32.02977850000025,0.029778500000247732,None,75.55633269999998,75.55633269999998,75.55633269999998,75.55633269999998,75.55633269999998,75.55633269999998,75.55633269999998,75.55633269999998,75.55633269999998,75.55633269999998,,009,P012,2025_Feb_08_1243,ConditionRich,2021.2.3,59.92854120729872,
32.75,36.0,41,0.0,Stimuli/Blank.png,0,0.0,0.0,0,16,16,16,,,,,,,,,,,,,32.77983620000123,0.029836200001227553,None,76.30700310000066,76.30700310000066,76.30700310000066,76.30700310000066,76.30700310000066,76.30700310000066,76.30700310000066,76.30700310000066,76.30700310000066,76.30700310000066,,009,P012,2025_Feb_08_1243,ConditionRich,2021.2.3,59.92854120729872,
36.0,36.75,8,0.75,Stimuli/P012/sun_asppejhsplpizvag.jpg,0,0.0,0.0,0,17,17,17,,,,,,,,,,,,,36.01393830000052,0.013938300000518211,None,79.52647230000002,79.52647230000002,79.52647230000002,79.52647230000002,79.52647230000002,79.52647230000002,79.52647230000002,79.52647230000002,79.52647230000002,79.52647230000002,,009,P012,2025_Feb_08_1243,ConditionRich,2021.2.3,59.92854120729872,
36.75,40.0,41,0.0,Stimuli/Blank.png,0,0.0,0.0,0,18,18,18,,,,,,,,,,,,,36.76566830000047,0.01566830000047048,None,80.27718000000095,80.27718000000095,80.27718000000095,80.27718000000095,80.27718000000095,80.27718000000095,80.27718000000095,80.27718000000095,80.27718000000095,80.27718000000095,,009,P012,2025_Feb_08_1243,ConditionRich,2021.2.3,59.92854120729872,
40.0,40.75,17,0.75,Stimuli/P012/sun_btvwhlxbhcqnqzok.jpg,0,0.0,0.0,0,19,19,19,,,,,,,,,,,,,40.00073370000064,0.0007337000006373273,None,83.51337690000037,83.51337690000037,83.51337690000037,83.51337690000037,83.51337690000037,83.51337690000037,83.51337690000037,83.51337690000037,83.51337690000037,83.51337690000037,,009,P012,2025_Feb_08_1243,ConditionRich,2021.2.3,59.92854120729872,
40.75,44.0,41,0.0,Stimuli/Blank.png,0,0.0,0.0,0,20,20,20,,,,,,,,,,,,,40.751844500000516,0.0018445000005158363,None,84.26402990000133,84.26402990000133,84.26402990000133,84.26402990000133,84.26402990000133,84.26402990000133,84.26402990000133,84.26402990000133,84.26402990000133,84.26402990000133,,009,P012,2025_Feb_08_1243,ConditionRich,2021.2.3,59.92854120729872,
44.0,44.75,24,0.75,Stimuli/P012/things_doily_06s.jpg,0,0.0,0.0,0,21,21,21,,,,,,,,,,,,,44.00501720000102,0.005017200001020683,None,87.51690140000028,87.51690140000028,87.51690140000028,87.51690140000028,87.51690140000028,87.51690140000028,87.51690140000028,87.51690140000028,87.51690140000028,87.51690140000028,,009,P012,2025_Feb_08_1243,ConditionRich,2021.2.3,59.92854120729872,
44.75,48.0,41,0.0,Stimuli/Blank.png,0,0.0,0.0,0,22,22,22,,,,,,,,,,,,,44.75562110000101,0.005621100001008017,None,88.26756530000057,88.26756530000057,88.26756530000057,88.26756530000057,88.26756530000057,88.26756530000057,88.26756530000057,88.26756530000057,88.26756530000057,88.26756530000057,,009,P012,2025_Feb_08_1243,ConditionRich,2021.2.3,59.92854120729872,
48.0,48.75,13,0.75,Stimuli/P012/sun_bjedvzikugwleyer.jpg,0,0.0,0.0,0,23,23,23,,,,,,,,,,,,,48.00999700000102,0.00999700000102166,None,91.53713470000002,91.53713470000002,91.53713470000002,91.53713470000002,91.53713470000002,91.53713470000002,91.53713470000002,91.53713470000002,91.53713470000002,91.53713470000002,,009,P012,2025_Feb_08_1243,ConditionRich,2021.2.3,59.92854120729872,
48.75,52.0,41,0.0,Stimuli/Blank.png,0,0.0,0.0,0,24,24,24,,,,,,,,,,,,,48.77526659999967,0.02526659999966796,None,92.28778890000103,92.28778890000103,92.28778890000103,92.28778890000103,92.28778890000103,92.28778890000103,92.28778890000103,92.28778890000103,92.28778890000103,92.28778890000103,,009,P012,2025_Feb_08_1243,ConditionRich,2021.2.3,59.92854120729872,
52.0,52.75,40,0.75,Stimuli/P012/things_woman_06s.jpg,0,0.0,0.0,0,25,25,25,,,,,,,,,,,,,52.01238190000004,0.012381900000036694,None,95.54068290000032,95.54068290000032,95.54068290000032,95.54068290000032,95.54068290000032,95.54068290000032,95.54068290000032,95.54068290000032,95.54068290000032,95.54068290000032,,009,P012,2025_Feb_08_1243,ConditionRich,2021.2.3,59.92854120729872,
52.75,56.0,41,0.0,Stimuli/Blank.png,1,0.25,1.0,0,26,26,26,,,,,,,,,,,,,52.7794329999997,0.02943299999969895,2,96.29133910000019,96.29133910000019,96.29133910000019,96.29133910000019,96.29133910000019,96.29133910000019,96.52487850000034,97.27555680000114,96.29133910000019,96.29133910000019,0.642839099999037,009,P012,2025_Feb_08_1243,ConditionRich,2021.2.3,59.92854120729872,
56.0,56.75,7,0.75,Stimuli/P012/sun_arugqgwhwdjxezyt.jpg,0,0.0,0.0,0,27,27,27,,,,,,,,,,,,,56.01502419999997,0.015024199999970733,None,99.52752839999994,99.52752839999994,99.52752839999994,99.52752839999994,99.52752839999994,99.52752839999994,99.52752839999994,99.52752839999994,99.52752839999994,99.52752839999994,,009,P012,2025_Feb_08_1243,ConditionRich,2021.2.3,59.92854120729872,
56.75,60.0,41,0.0,Stimuli/Blank.png,0,0.0,0.0,0,28,28,28,,,,,,,,,,,,,56.74957859999995,-0.0004214000000501983,None,100.26150860000052,100.26150860000052,100.26150860000052,100.26150860000052,100.26150860000052,100.26150860000052,100.26150860000052,100.26150860000052,100.26150860000052,100.26150860000052,,009,P012,2025_Feb_08_1243,ConditionRich,2021.2.3,59.92854120729872,
60.0,60.75,35,0.75,Stimuli/P012/things_raccoon_06n.jpg,0,0.0,0.0,0,29,29,29,,,,,,,,,,,,,60.00478260000091,0.004782600000908133,None,103.53108240000074,103.53108240000074,103.53108240000074,103.53108240000074,103.53108240000074,103.53108240000074,103.53108240000074,103.53108240000074,103.53108240000074,103.53108240000074,,009,P012,2025_Feb_08_1243,ConditionRich,2021.2.3,59.92854120729872,
60.75,64.0,41,0.0,Stimuli/Blank.png,0,0.0,0.0,0,30,30,30,,,,,,,,,,,,,60.769134199999826,0.019134199999825796,None,104.28173640000023,104.28173640000023,104.28173640000023,104.28173640000023,104.28173640000023,104.28173640000023,104.28173640000023,104.28173640000023,104.28173640000023,104.28173640000023,,009,P012,2025_Feb_08_1243,ConditionRich,2021.2.3,59.92854120729872,
64.0,64.75,1,0.75,Stimuli/P012/sun_aeakbqnvptdnxtno.jpg,0,0.0,0.0,0,31,31,31,,,,,,,,,,,,,64.00541990000056,0.005419900000561029,None,107.51793210000142,107.51793210000142,107.51793210000142,107.51793210000142,107.51793210000142,107.51793210000142,107.51793210000142,107.51793210000142,107.51793210000142,107.51793210000142,,009,P012,2025_Feb_08_1243,ConditionRich,2021.2.3,59.92854120729872,
64.75,68.0,41,0.0,Stimuli/Blank.png,1,0.25,1.0,0,32,32,32,,,,,,,,,,,,,64.75678920000064,0.006789200000639539,2,108.26859100000001,108.26859100000001,108.26859100000001,108.26859100000001,108.26859100000001,108.26859100000001,108.50212710000051,109.25283910000144,108.26859100000001,108.26859100000001,0.6565281000002869,009,P012,2025_Feb_08_1243,ConditionRich,2021.2.3,59.92854120729872,
68.0,68.75,20,0.75,Stimuli/P012/sun_ciifteeudwpxupnw.jpg,0,0.0,0.0,0,33,33,33,,,,,,,,,,,,,68.00941640000019,0.00941640000019106,None,111.52147280000099,111.52147280000099,111.52147280000099,111.52147280000099,111.52147280000099,111.52147280000099,111.52147280000099,111.52147280000099,111.52147280000099,111.52147280000099,,009,P012,2025_Feb_08_1243,ConditionRich,2021.2.3,59.92854120729872,
68.75,72.0,41,0.0,Stimuli/Blank.png,1,0.25,1.0,0,34,34,34,,,,,,,,,,,,,68.76078080000116,0.010780800001157331,2,112.27214190000086,112.27214190000086,112.27214190000086,112.27214190000086,112.27214190000086,112.27214190000086,112.50570510000034,113.25633300000118,112.27214190000086,112.27214190000086,0.596974300000511,009,P012,2025_Feb_08_1243,ConditionRich,2021.2.3,59.92854120729872,
72.0,72.75,30,0.75,Stimuli/P012/things_hamburger_06s.jpg,0,0.0,0.0,0,35,35,35,,,,,,,,,,,,,72.0150207000006,0.015020700000604847,None,115.54170540000086,115.54170540000086,115.54170540000086,115.54170540000086,115.54170540000086,115.54170540000086,115.54170540000086,115.54170540000086,115.54170540000086,115.54170540000086,,009,P012,2025_Feb_08_1243,ConditionRich,2021.2.3,59.92854120729872,
72.75,76.0,41,0.0,Stimuli/Blank.png,0,0.0,0.0,0,36,36,36,,,,,,,,,,,,,72.78055359999962,0.03055359999962093,None,116.29233190000014,116.29233190000014,116.29233190000014,116.29233190000014,116.29233190000014,116.29233190000014,116.29233190000014,116.29233190000014,116.29233190000014,116.29233190000014,,009,P012,2025_Feb_08_1243,ConditionRich,2021.2.3,59.92854120729872,
76.0,76.75,29,0.75,Stimuli/P012/things_gutter_06s.jpg,1,0.0,0.75,0,37,37,37,,,,,,,,,,,,,76.00043600000026,0.0004360000002634479,2,119.5285543000009,119.5285543000009,119.5285543000009,119.5285543000009,119.5285543000009,119.5285543000009,119.5285543000009,120.24585149999984,119.5285543000009,119.5285543000009,0.41472280000016326,009,P012,2025_Feb_08_1243,ConditionRich,2021.2.3,59.92854120729872,
76.75,80.0,41,0.0,Stimuli/Blank.png,0,0.0,0.0,0,38,38,38,,,,,,,,,,,,,76.76721840000027,0.017218400000274414,None,120.27934240000104,120.27934240000104,120.27934240000104,120.27934240000104,120.27934240000104,120.27934240000104,120.27934240000104,120.27934240000104,120.27934240000104,120.27934240000104,,009,P012,2025_Feb_08_1243,ConditionRich,2021.2.3,59.92854120729872,
80.0,80.75,11,0.75,Stimuli/P012/sun_baylllqlgfvxilor.jpg,0,0.0,0.0,0,39,39,39,,,,,,,,,,,,,80.00604740000017,0.006047400000170455,None,123.53215220000129,123.53215220000129,123.53215220000129,123.53215220000129,123.53215220000129,123.53215220000129,123.53215220000129,123.53215220000129,123.53215220000129,123.53215220000129,,009,P012,2025_Feb_08_1243,ConditionRich,2021.2.3,59.92854120729872,
80.75,84.0,41,0.0,Stimuli/Blank.png,0,0.0,0.0,0,40,40,40,,,,,,,,,,,,,80.77028160000009,0.020281600000089384,None,124.28275420000136,124.28275420000136,124.28275420000136,124.28275420000136,124.28275420000136,124.28275420000136,124.28275420000136,124.28275420000136,124.28275420000136,124.28275420000136,,009,P012,2025_Feb_08_1243,ConditionRich,2021.2.3,59.92854120729872,
84.0,100.0,0,0.0,Stimuli/Blank.png,1,11.0,11.75,0,41,41,41,,,,,,,,,,,,,84.00703520000025,0.007035200000245823,2,127.51895070000137,127.51895070000137,127.51895070000137,127.51895070000137,127.51895070000137,127.51895070000137,138.49535319999995,139.2459873000007,127.51895070000137,127.51895070000137,11.328261000000566,009,P012,2025_Feb_08_1243,ConditionRich,2021.2.3,59.92854120729872,
100.0,100.75,6,0.75,Stimuli/P012/sun_aqysdudvyxnkcxgq.jpg,0,0.0,0.0,0,42,42,42,,,,,,,,,,,,,100.0043495000009,0.004349500000898843,None,143.51646820000133,143.51646820000133,143.51646820000133,143.51646820000133,143.51646820000133,143.51646820000133,143.51646820000133,143.51646820000133,143.51646820000133,143.51646820000133,,009,P012,2025_Feb_08_1243,ConditionRich,2021.2.3,59.92854120729872,
100.75,104.0,41,0.0,Stimuli/Blank.png,0,0.0,0.0,0,43,43,43,,,,,,,,,,,,,100.75546060000124,0.00546060000124271,None,144.26710360000106,144.26710360000106,144.26710360000106,144.26710360000106,144.26710360000106,144.26710360000106,144.26710360000106,144.26710360000106,144.26710360000106,144.26710360000106,,009,P012,2025_Feb_08_1243,ConditionRich,2021.2.3,59.92854120729872,
104.0,104.75,34,0.75,Stimuli/P012/things_polar_bear_06s.jpg,0,0.0,0.0,0,44,44,44,,,,,,,,,,,,,104.00814859999991,0.008148599999913131,None,147.5366541000003,147.5366541000003,147.5366541000003,147.5366541000003,147.5366541000003,147.5366541000003,147.5366541000003,147.5366541000003,147.5366541000003,147.5366541000003,,009,P012,2025_Feb_08_1243,ConditionRich,2021.2.3,59.92854120729872,
104.75,108.0,41,0.0,Stimuli/Blank.png,0,0.0,0.0,0,45,45,45,,,,,,,,,,,,,104.77474660000007,0.02474660000007134,None,148.28729170000042,148.28729170000042,148.28729170000042,148.28729170000042,148.28729170000042,148.28729170000042,148.28729170000042,148.28729170000042,148.28729170000042,148.28729170000042,,009,P012,2025_Feb_08_1243,ConditionRich,2021.2.3,59.92854120729872,
108.0,108.75,3,0.75,Stimuli/P012/sun_afdaynbvsppiyvxm.jpg,0,0.0,0.0,0,46,46,46,,,,,,,,,,,,,108.01094170000033,0.010941700000330457,None,151.52351670000098,151.52351670000098,151.52351670000098,151.52351670000098,151.52351670000098,151.52351670000098,151.52351670000098,151.52351670000098,151.52351670000098,151.52351670000098,,009,P012,2025_Feb_08_1243,ConditionRich,2021.2.3,59.92854120729872,
108.75,112.0,41,0.0,Stimuli/Blank.png,0,0.0,0.0,0,47,47,47,,,,,,,,,,,,,108.76222870000129,0.012228700001287507,None,152.2741463000002,152.2741463000002,152.2741463000002,152.2741463000002,152.2741463000002,152.2741463000002,152.2741463000002,152.2741463000002,152.2741463000002,152.2741463000002,,009,P012,2025_Feb_08_1243,ConditionRich,2021.2.3,59.92854120729872,
112.0,112.75,28,0.75,Stimuli/P012/things_grasshopper_06s.jpg,0,0.0,0.0,0,48,48,48,,,,,,,,,,,,,112.0149008999997,0.014900899999702233,None,155.5270687000011,155.5270687000011,155.5270687000011,155.5270687000011,155.5270687000011,155.5270687000011,155.5270687000011,155.5270687000011,155.5270687000011,155.5270687000011,,009,P012,2025_Feb_08_1243,ConditionRich,2021.2.3,59.92854120729872,
112.75,116.0,41,0.0,Stimuli/Blank.png,0,0.0,0.0,0,49,49,49,,,,,,,,,,,,,112.76595140000063,0.01595140000063111,None,156.27773350000098,156.27773350000098,156.27773350000098,156.27773350000098,156.27773350000098,156.27773350000098,156.27773350000098,156.27773350000098,156.27773350000098,156.27773350000098,,009,P012,2025_Feb_08_1243,ConditionRich,2021.2.3,59.92854120729872,
116.0,116.75,36,0.75,Stimuli/P012/things_shower_cap_06s.jpg,0,0.0,0.0,0,50,50,50,,,,,,,,,,,,,116.00204450000092,0.0020445000009203795,None,159.53060770000047,159.53060770000047,159.53060770000047,159.53060770000047,159.53060770000047,159.53060770000047,159.53060770000047,159.53060770000047,159.53060770000047,159.53060770000047,,009,P012,2025_Feb_08_1243,ConditionRich,2021.2.3,59.92854120729872,
116.75,120.0,41,0.0,Stimuli/Blank.png,0,0.0,0.0,0,51,51,51,,,,,,,,,,,,,116.7692504000006,0.019250400000601076,None,160.28126880000127,160.28126880000127,160.28126880000127,160.28126880000127,160.28126880000127,160.28126880000127,160.28126880000127,160.28126880000127,160.28126880000127,160.28126880000127,,009,P012,2025_Feb_08_1243,ConditionRich,2021.2.3,59.92854120729872,
120.0,120.75,33,0.75,Stimuli/P012/things_hot-air_balloon_06s.jpg,0,0.0,0.0,0,52,52,52,,,,,,,,,,,,,120.00486290000117,0.004862900001171511,None,163.51746730000013,163.51746730000013,163.51746730000013,163.51746730000013,163.51746730000013,163.51746730000013,163.51746730000013,163.51746730000013,163.51746730000013,163.51746730000013,,009,P012,2025_Feb_08_1243,ConditionRich,2021.2.3,59.92854120729872,
120.75,124.0,41,0.0,Stimuli/Blank.png,0,0.0,0.0,0,53,53,53,,,,,,,,,,,,,120.75663280000117,0.0066328000011708355,None,164.2681217999998,164.2681217999998,164.2681217999998,164.2681217999998,164.2681217999998,164.2681217999998,164.2681217999998,164.2681217999998,164.2681217999998,164.2681217999998,,009,P012,2025_Feb_08_1243,ConditionRich,2021.2.3,59.92854120729872,
124.0,124.75,5,0.75,Stimuli/P012/sun_anfwllcezhlypoti.jpg,0,0.0,0.0,0,54,54,54,,,,,,,,,,,,,124.00855130000127,0.008551300001272466,None,167.52099700000144,167.52099700000144,167.52099700000144,167.52099700000144,167.52099700000144,167.52099700000144,167.52099700000144,167.52099700000144,167.52099700000144,167.52099700000144,,009,P012,2025_Feb_08_1243,ConditionRich,2021.2.3,59.92854120729872,
124.75,128.0,41,0.0,Stimuli/Blank.png,1,1.25,2.0,0,55,55,55,,,,,,,,,,,,,124.76009380000141,0.01009380000141391,2,168.27166279999983,168.27166279999983,168.27166279999983,168.27166279999983,168.27166279999983,168.27166279999983,169.5073510000002,170.25674570000047,168.27166279999983,168.27166279999983,1.639820200000031,009,P012,2025_Feb_08_1243,ConditionRich,2021.2.3,59.92854120729872,
128.0,128.75,27,0.75,Stimuli/P012/things_girl_06s.jpg,0,0.0,0.0,0,56,56,56,,,,,,,,,,,,,128.01195390000066,0.011953900000662543,None,171.52454519999992,171.52454519999992,171.52454519999992,171.52454519999992,171.52454519999992,171.52454519999992,171.52454519999992,171.52454519999992,171.52454519999992,171.52454519999992,,009,P012,2025_Feb_08_1243,ConditionRich,2021.2.3,59.92854120729872,
128.75,132.0,41,0.0,Stimuli/Blank.png,0,0.0,0.0,0,57,57,57,,,,,,,,,,,,,128.76353610000115,0.013536100001147133,None,172.27528260000145,172.27528260000145,172.27528260000145,172.27528260000145,172.27528260000145,172.27528260000145,172.27528260000145,172.27528260000145,172.27528260000145,172.27528260000145,,009,P012,2025_Feb_08_1243,ConditionRich,2021.2.3,59.92854120729872,
132.0,132.75,23,0.75,Stimuli/P012/things_clove_06s.jpg,0,0.0,0.0,0,58,58,58,,,,,,,,,,,,,131.9995555000005,-0.000444499999503023,None,175.5113775000009,175.5113775000009,175.5113775000009,175.5113775000009,175.5113775000009,175.5113775000009,175.5113775000009,175.5113775000009,175.5113775000009,175.5113775000009,,009,P012,2025_Feb_08_1243,ConditionRich,2021.2.3,59.92854120729872,
132.75,136.0,41,0.0,Stimuli/Blank.png,0,0.0,0.0,0,59,59,59,,,,,,,,,,,,,132.75009200000022,9.200000022246968e-05,None,176.26207280000017,176.26207280000017,176.26207280000017,176.26207280000017,176.26207280000017,176.26207280000017,176.26207280000017,176.26207280000017,176.26207280000017,176.26207280000017,,009,P012,2025_Feb_08_1243,ConditionRich,2021.2.3,59.92854120729872,
136.0,136.75,10,0.75,Stimuli/P012/sun_awufkrkrdrdbvvis.jpg,0,0.0,0.0,0,60,60,60,,,,,,,,,,,,,136.0023497000002,0.0023497000001952983,None,179.5316617999997,179.5316617999997,179.5316617999997,179.5316617999997,179.5316617999997,179.5316617999997,179.5316617999997,179.5316617999997,179.5316617999997,179.5316617999997,,009,P012,2025_Feb_08_1243,ConditionRich,2021.2.3,59.92854120729872,
136.75,140.0,41,0.0,Stimuli/Blank.png,0,0.0,0.0,0,61,61,61,,,,,,,,,,,,,136.7704689000002,0.0204689000001963,None,180.28228590000072,180.28228590000072,180.28228590000072,180.28228590000072,180.28228590000072,180.28228590000072,180.28228590000072,180.28228590000072,180.28228590000072,180.28228590000072,,009,P012,2025_Feb_08_1243,ConditionRich,2021.2.3,59.92854120729872,
140.0,140.75,22,0.75,Stimuli/P012/things_boy_06s.jpg,0,0.0,0.0,0,62,62,62,,,,,,,,,,,,,140.00693169999977,0.0069316999997681705,None,183.53519330000017,183.53519330000017,183.53519330000017,183.53519330000017,183.53519330000017,183.53519330000017,183.53519330000017,183.53519330000017,183.53519330000017,183.53519330000017,,009,P012,2025_Feb_08_1243,ConditionRich,2021.2.3,59.92854120729872,
140.75,144.0,41,0.0,Stimuli/Blank.png,0,0.0,0.0,0,63,63,63,,,,,,,,,,,,,140.7758759999997,0.02587599999969825,None,184.3025155000014,184.3025155000014,184.3025155000014,184.3025155000014,184.3025155000014,184.3025155000014,184.3025155000014,184.3025155000014,184.3025155000014,184.3025155000014,,009,P012,2025_Feb_08_1243,ConditionRich,2021.2.3,59.92854120729872,
144.0,144.75,15,0.75,Stimuli/P012/sun_bmngnyuahubpqroh.jpg,0,0.0,0.0,0,64,64,64,,,,,,,,,,,,,144.02605750000112,0.02605750000111584,None,187.53870650000135,187.53870650000135,187.53870650000135,187.53870650000135,187.53870650000135,187.53870650000135,187.53870650000135,187.53870650000135,187.53870650000135,187.53870650000135,,009,P012,2025_Feb_08_1243,ConditionRich,2021.2.3,59.92854120729872,
144.75,148.0,41,0.0,Stimuli/Blank.png,0,0.0,0.0,0,65,65,65,,,,,,,,,,,,,144.76171160000013,0.011711600000126055,None,188.27269720000004,188.27269720000004,188.27269720000004,188.27269720000004,188.27269720000004,188.27269720000004,188.27269720000004,188.27269720000004,188.27269720000004,188.27269720000004,,009,P012,2025_Feb_08_1243,ConditionRich,2021.2.3,59.92854120729872,
148.0,148.75,16,0.75,Stimuli/P012/sun_bpuwvyadswjfoaby.jpg,0,0.0,0.0,0,66,66,66,,,,,,,,,,,,,148.0155622000002,0.01556220000020403,None,191.54226110000127,191.54226110000127,191.54226110000127,191.54226110000127,191.54226110000127,191.54226110000127,191.54226110000127,191.54226110000127,191.54226110000127,191.54226110000127,,009,P012,2025_Feb_08_1243,ConditionRich,2021.2.3,59.92854120729872,
148.75,152.0,41,0.0,Stimuli/Blank.png,0,0.0,0.0,0,67,67,67,,,,,,,,,,,,,148.76434440000048,0.014344400000481983,None,192.27623360000143,192.27623360000143,192.27623360000143,192.27623360000143,192.27623360000143,192.27623360000143,192.27623360000143,192.27623360000143,192.27623360000143,192.27623360000143,,009,P012,2025_Feb_08_1243,ConditionRich,2021.2.3,59.92854120729872,
152.0,152.75,14,0.75,Stimuli/P012/sun_blybvkoucskrdgiv.jpg,0,0.0,0.0,0,68,68,68,,,,,,,,,,,,,151.99997040000017,-2.9599999834317714e-05,None,195.5124276000006,195.5124276000006,195.5124276000006,195.5124276000006,195.5124276000006,195.5124276000006,195.5124276000006,195.5124276000006,195.5124276000006,195.5124276000006,,009,P012,2025_Feb_08_1243,ConditionRich,2021.2.3,59.92854120729872,
152.75,156.0,41,0.0,Stimuli/Blank.png,1,2.25,3.0,0,69,69,69,,,,,,,,,,,,,152.75039860000106,0.0003986000010627322,2,196.2630932000011,196.2630932000011,196.2630932000011,196.2630932000011,196.2630932000011,196.2630932000011,198.49839690000044,199.2491174000006,196.2630932000011,196.2630932000011,2.67711479999889,009,P012,2025_Feb_08_1243,ConditionRich,2021.2.3,59.92854120729872,
156.0,156.75,21,0.75,Stimuli/P012/things_baby_06s.jpg,0,0.0,0.0,0,70,70,70,,,,,,,,,,,,,156.00639720000072,0.006397200000719749,None,199.53266750000148,199.53266750000148,199.53266750000148,199.53266750000148,199.53266750000148,199.53266750000148,199.53266750000148,199.53266750000148,199.53266750000148,199.53266750000148,,009,P012,2025_Feb_08_1243,ConditionRich,2021.2.3,59.92854120729872,
156.75,160.0,41,0.0,Stimuli/Blank.png,1,1.25,2.0,0,71,71,71,,,,,,,,,,,,,156.77136849999988,0.02136849999988044,2,200.2833025,200.2833025,200.2833025,200.2833025,200.2833025,200.2833025,201.51772800000072,202.2684390000013,200.2833025,200.2833025,1.7979498999993666,009,P012,2025_Feb_08_1243,ConditionRich,2021.2.3,59.92854120729872,
160.0,160.75,2,0.75,Stimuli/P012/sun_aewhvqonribwlxiq.jpg,0,0.0,0.0,0,72,72,72,,,,,,,,,,,,,160.007035300001,0.007035300001007272,None,203.51947870000004,203.51947870000004,203.51947870000004,203.51947870000004,203.51947870000004,203.51947870000004,203.51947870000004,203.51947870000004,203.51947870000004,203.51947870000004,,009,P012,2025_Feb_08_1243,ConditionRich,2021.2.3,59.92854120729872,
160.75,164.0,41,0.0,Stimuli/Blank.png,0,0.0,0.0,0,73,73,73,,,,,,,,,,,,,160.76046080000015,0.010460800000146264,None,204.28685560000122,204.28685560000122,204.28685560000122,204.28685560000122,204.28685560000122,204.28685560000122,204.28685560000122,204.28685560000122,204.28685560000122,204.28685560000122,,009,P012,2025_Feb_08_1243,ConditionRich,2021.2.3,59.92854120729872,
164.0,164.75,39,0.75,Stimuli/P012/things_thermometer_06s.jpg,1,0.0,0.75,0,74,74,74,,,,,,,,,,,,,164.03001229999973,0.030012299999725656,2,207.55640959999982,207.55640959999982,207.55640959999982,207.55640959999982,207.55640959999982,207.55640959999982,207.55640959999982,None,207.55640959999982,207.55640959999982,0.4749830999990081,009,P012,2025_Feb_08_1243,ConditionRich,2021.2.3,59.92854120729872,
164.75,168.0,41,0.0,Stimuli/Blank.png,0,0.0,0.0,0,75,75,75,,,,,,,,,,,,,164.78059940000094,0.03059940000093775,None,208.30708070000037,208.30708070000037,208.30708070000037,208.30708070000037,208.30708070000037,208.30708070000037,208.30708070000037,208.30708070000037,208.30708070000037,208.30708070000037,,009,P012,2025_Feb_08_1243,ConditionRich,2021.2.3,59.92854120729872,
168.0,168.75,26,0.75,Stimuli/P012/things_gazelle_06s.jpg,0,0.0,0.0,0,76,76,76,,,,,,,,,,,,,168.01466190000065,0.01466190000064671,None,211.52658429999974,211.52658429999974,211.52658429999974,211.52658429999974,211.52658429999974,211.52658429999974,211.52658429999974,211.52658429999974,211.52658429999974,211.52658429999974,,009,P012,2025_Feb_08_1243,ConditionRich,2021.2.3,59.92854120729872,
168.75,172.0,41,0.0,Stimuli/Blank.png,1,1.25,2.0,0,77,77,77,,,,,,,,,,,,,168.76533220000056,0.01533220000055735,2,212.27726000000075,212.27726000000075,212.27726000000075,212.27726000000075,212.27726000000075,212.27726000000075,213.51279100000102,214.26233930000126,212.27726000000075,212.27726000000075,1.6279858000016247,009,P012,2025_Feb_08_1243,ConditionRich,2021.2.3,59.92854120729872,
172.0,172.75,9,0.75,Stimuli/P012/sun_aupohozmrmtfgcsw.jpg,0,0.0,0.0,0,78,78,78,,,,,,,,,,,,,172.0019228000001,0.0019228000001021428,None,215.51344609999978,215.51344609999978,215.51344609999978,215.51344609999978,215.51344609999978,215.51344609999978,215.51344609999978,215.51344609999978,215.51344609999978,215.51344609999978,,009,P012,2025_Feb_08_1243,ConditionRich,2021.2.3,59.92854120729872,
172.75,176.0,41,0.0,Stimuli/Blank.png,0,0.0,0.0,0,79,79,79,,,,,,,,,,,,,172.75215910000043,0.002159100000426406,None,216.26422980000098,216.26422980000098,216.26422980000098,216.26422980000098,216.26422980000098,216.26422980000098,216.26422980000098,216.26422980000098,216.26422980000098,216.26422980000098,,009,P012,2025_Feb_08_1243,ConditionRich,2021.2.3,59.92854120729872,
176.0,176.75,25,0.75,Stimuli/P012/things_face_06s.jpg,0,0.0,0.0,0,80,80,80,,,,,,,,,,,,,176.0042854000003,0.004285400000298978,None,219.5169861000013,219.5169861000013,219.5169861000013,219.5169861000013,219.5169861000013,219.5169861000013,219.5169861000013,219.5169861000013,219.5169861000013,219.5169861000013,,009,P012,2025_Feb_08_1243,ConditionRich,2021.2.3,59.92854120729872,
176.75,180.0,41,0.0,Stimuli/Blank.png,0,0.0,0.0,0,81,81,81,,,,,,,,,,,,,176.75572530000136,0.005725300001358846,None,220.26765180000075,220.26765180000075,220.26765180000075,220.26765180000075,220.26765180000075,220.26765180000075,220.26765180000075,220.26765180000075,220.26765180000075,220.26765180000075,,009,P012,2025_Feb_08_1243,ConditionRich,2021.2.3,59.92854120729872,
180.0,196.0,0,0.0,Stimuli/Blank.png,1,11.0,11.75,0,82,82,82,,,,,,,,,,,,,180.01038900000094,0.01038900000094145,2,223.5372462000014,223.5372462000014,223.5372462000014,223.5372462000014,223.5372462000014,223.5372462000014,234.51364190000095,235.26423740000064,223.5372462000014,223.5372462000014,11.338097100000596,009,P012,2025_Feb_08_1243,ConditionRich,2021.2.3,59.92854120729872,
196.0,196.75,36,0.75,Stimuli/P012/things_shower_cap_06s.jpg,1,0.0,0.75,0,83,83,83,,,,,,,,,,,,,196.02204100000017,0.022041000000172062,2,239.5346558000001,239.5346558000001,239.5346558000001,239.5346558000001,239.5346558000001,239.5346558000001,239.5346558000001,None,239.5346558000001,239.5346558000001,0.6317187999993621,009,P012,2025_Feb_08_1243,ConditionRich,2021.2.3,59.92854120729872,
196.75,200.0,41,0.0,Stimuli/Blank.png,0,0.0,0.0,0,84,84,84,,,,,,,,,,,,,196.7561220000007,0.006122000000686967,None,240.2686709999998,240.2686709999998,240.2686709999998,240.2686709999998,240.2686709999998,240.2686709999998,240.2686709999998,240.2686709999998,240.2686709999998,240.2686709999998,,009,P012,2025_Feb_08_1243,ConditionRich,2021.2.3,59.92854120729872,
200.0,200.75,3,0.75,Stimuli/P012/sun_afdaynbvsppiyvxm.jpg,0,0.0,0.0,0,85,85,85,,,,,,,,,,,,,200.00968509999984,0.00968509999984235,None,243.5382339000007,243.5382339000007,243.5382339000007,243.5382339000007,243.5382339000007,243.5382339000007,243.5382339000007,243.5382339000007,243.5382339000007,243.5382339000007,,009,P012,2025_Feb_08_1243,ConditionRich,2021.2.3,59.92854120729872,
200.75,204.0,41,0.0,Stimuli/Blank.png,0,0.0,0.0,0,86,86,86,,,,,,,,,,,,,200.77690390000134,0.026903900001343573,None,244.28889309999977,244.28889309999977,244.28889309999977,244.28889309999977,244.28889309999977,244.28889309999977,244.28889309999977,244.28889309999977,244.28889309999977,244.28889309999977,,009,P012,2025_Feb_08_1243,ConditionRich,2021.2.3,59.92854120729872,
204.0,204.75,27,0.75,Stimuli/P012/things_girl_06s.jpg,0,0.0,0.0,0,87,87,87,,,,,,,,,,,,,204.01326810000137,0.013268100001369021,None,247.5417737000007,247.5417737000007,247.5417737000007,247.5417737000007,247.5417737000007,247.5417737000007,247.5417737000007,247.5417737000007,247.5417737000007,247.5417737000007,,009,P012,2025_Feb_08_1243,ConditionRich,2021.2.3,59.92854120729872,
204.75,208.0,41,0.0,Stimuli/Blank.png,1,2.25,3.0,0,88,88,88,,,,,,,,,,,,,204.78052610000123,0.03052610000122513,2,248.2924288000013,248.2924288000013,248.2924288000013,248.2924288000013,248.2924288000013,248.2924288000013,250.52773239999988,251.27847199999997,248.2924288000013,248.2924288000013,2.674156099999891,009,P012,2025_Feb_08_1243,ConditionRich,2021.2.3,59.92854120729872,
208.0,208.75,20,0.75,Stimuli/P012/sun_ciifteeudwpxupnw.jpg,0,0.0,0.0,0,89,89,89,,,,,,,,,,,,,208.00054120000095,0.0005412000009528128,None,251.52863140000045,251.52863140000045,251.52863140000045,251.52863140000045,251.52863140000045,251.52863140000045,251.52863140000045,251.52863140000045,251.52863140000045,251.52863140000045,,009,P012,2025_Feb_08_1243,ConditionRich,2021.2.3,59.92854120729872,
208.75,212.0,41,0.0,Stimuli/Blank.png,0,0.0,0.0,0,90,90,90,,,,,,,,,,,,,208.76678340000035,0.016783400000349502,None,252.27928919999977,252.27928919999977,252.27928919999977,252.27928919999977,252.27928919999977,252.27928919999977,252.27928919999977,252.27928919999977,252.27928919999977,252.27928919999977,,009,P012,2025_Feb_08_1243,ConditionRich,2021.2.3,59.92854120729872,
212.0,212.75,13,0.75,Stimuli/P012/sun_bjedvzikugwleyer.jpg,0,0.0,0.0,0,91,91,91,,,,,,,,,,,,,212.00354660000085,0.003546600000845501,None,255.51546250000138,255.51546250000138,255.51546250000138,255.51546250000138,255.51546250000138,255.51546250000138,255.51546250000138,255.51546250000138,255.51546250000138,255.51546250000138,,009,P012,2025_Feb_08_1243,ConditionRich,2021.2.3,59.92854120729872,
212.75,216.0,41,0.0,Stimuli/Blank.png,0,0.0,0.0,0,92,92,92,,,,,,,,,,,,,212.75357260000055,0.003572600000552484,None,256.2662283999998,256.2662283999998,256.2662283999998,256.2662283999998,256.2662283999998,256.2662283999998,256.2662283999998,256.2662283999998,256.2662283999998,256.2662283999998,,009,P012,2025_Feb_08_1243,ConditionRich,2021.2.3,59.92854120729872,
216.0,216.75,29,0.75,Stimuli/P012/things_gutter_06s.jpg,0,0.0,0.0,0,93,93,93,,,,,,,,,,,,,216.00755589999972,0.007555899999715621,None,259.5357214000014,259.5357214000014,259.5357214000014,259.5357214000014,259.5357214000014,259.5357214000014,259.5357214000014,259.5357214000014,259.5357214000014,259.5357214000014,,009,P012,2025_Feb_08_1243,ConditionRich,2021.2.3,59.92854120729872,
216.75,220.0,41,0.0,Stimuli/Blank.png,0,0.0,0.0,0,94,94,94,,,,,,,,,,,,,216.77445140000054,0.0244514000005438,None,260.2863886000014,260.2863886000014,260.2863886000014,260.2863886000014,260.2863886000014,260.2863886000014,260.2863886000014,260.2863886000014,260.2863886000014,260.2863886000014,,009,P012,2025_Feb_08_1243,ConditionRich,2021.2.3,59.92854120729872,
220.0,220.75,33,0.75,Stimuli/P012/things_hot-air_balloon_06s.jpg,0,0.0,0.0,0,95,95,95,,,,,,,,,,,,,220.01096270000016,0.01096270000016375,None,263.52256670000133,263.52256670000133,263.52256670000133,263.52256670000133,263.52256670000133,263.52256670000133,263.52256670000133,263.52256670000133,263.52256670000133,263.52256670000133,,009,P012,2025_Feb_08_1243,ConditionRich,2021.2.3,59.92854120729872,
220.75,224.0,41,0.0,Stimuli/Blank.png,0,0.0,0.0,0,96,96,96,,,,,,,,,,,,,220.76153850000082,0.01153850000082457,None,264.27323050000086,264.27323050000086,264.27323050000086,264.27323050000086,264.27323050000086,264.27323050000086,264.27323050000086,264.27323050000086,264.27323050000086,264.27323050000086,,009,P012,2025_Feb_08_1243,ConditionRich,2021.2.3,59.92854120729872,
224.0,224.75,12,0.75,Stimuli/P012/sun_bcesifdfuidnkdhl.jpg,0,0.0,0.0,0,97,97,97,,,,,,,,,,,,,224.01517840000088,0.015178400000877446,None,267.5428253000009,267.5428253000009,267.5428253000009,267.5428253000009,267.5428253000009,267.5428253000009,267.5428253000009,267.5428253000009,267.5428253000009,267.5428253000009,,009,P012,2025_Feb_08_1243,ConditionRich,2021.2.3,59.92854120729872,
224.75,228.0,41,0.0,Stimuli/Blank.png,0,0.0,0.0,0,98,98,98,,,,,,,,,,,,,224.76474790000066,0.014747900000656955,None,268.2767846000006,268.2767846000006,268.2767846000006,268.2767846000006,268.2767846000006,268.2767846000006,268.2767846000006,268.2767846000006,268.2767846000006,268.2767846000006,,009,P012,2025_Feb_08_1243,ConditionRich,2021.2.3,59.92854120729872,
228.0,228.75,24,0.75,Stimuli/P012/things_doily_06s.jpg,0,0.0,0.0,0,99,99,99,,,,,,,,,,,,,228.00080909999997,0.0008090999999694759,None,271.5129674,271.5129674,271.5129674,271.5129674,271.5129674,271.5129674,271.5129674,271.5129674,271.5129674,271.5129674,,009,P012,2025_Feb_08_1243,ConditionRich,2021.2.3,59.92854120729872,
228.75,232.0,41,0.0,Stimuli/Blank.png,0,0.0,0.0,0,100,100,100,,,,,,,,,,,,,228.7515609000002,0.0015609000001859386,None,272.26363029999993,272.26363029999993,272.26363029999993,272.26363029999993,272.26363029999993,272.26363029999993,272.26363029999993,272.26363029999993,272.26363029999993,272.26363029999993,,009,P012,2025_Feb_08_1243,ConditionRich,2021.2.3,59.92854120729872,
232.0,232.75,34,0.75,Stimuli/P012/things_polar_bear_06s.jpg,0,0.0,0.0,0,101,101,101,,,,,,,,,,,,,232.0039409000001,0.003940900000088732,None,275.5165108000001,275.5165108000001,275.5165108000001,275.5165108000001,275.5165108000001,275.5165108000001,275.5165108000001,275.5165108000001,275.5165108000001,275.5165108000001,,009,P012,2025_Feb_08_1243,ConditionRich,2021.2.3,59.92854120729872,
232.75,236.0,41,0.0,Stimuli/Blank.png,0,0.0,0.0,0,102,102,102,,,,,,,,,,,,,232.75601710000046,0.0060171000004629605,None,276.2671835000001,276.2671835000001,276.2671835000001,276.2671835000001,276.2671835000001,276.2671835000001,276.2671835000001,276.2671835000001,276.2671835000001,276.2671835000001,,009,P012,2025_Feb_08_1243,ConditionRich,2021.2.3,59.92854120729872,
236.0,236.75,30,0.75,Stimuli/P012/things_hamburger_06s.jpg,0,0.0,0.0,0,103,103,103,,,,,,,,,,,,,236.01049890000104,0.010498900001039146,None,279.5367385999998,279.5367385999998,279.5367385999998,279.5367385999998,279.5367385999998,279.5367385999998,279.5367385999998,279.5367385999998,279.5367385999998,279.5367385999998,,009,P012,2025_Feb_08_1243,ConditionRich,2021.2.3,59.92854120729872,
236.75,240.0,41,0.0,Stimuli/Blank.png,0,0.0,0.0,0,104,104,104,,,,,,,,,,,,,236.7757161999998,0.025716199999806122,None,280.2885746000011,280.2885746000011,280.2885746000011,280.2885746000011,280.2885746000011,280.2885746000011,280.2885746000011,280.2885746000011,280.2885746000011,280.2885746000011,,009,P012,2025_Feb_08_1243,ConditionRich,2021.2.3,59.92854120729872,
240.0,240.75,9,0.75,Stimuli/P012/sun_aupohozmrmtfgcsw.jpg,0,0.0,0.0,0,105,105,105,,,,,,,,,,,,,240.01112280000052,0.011122800000521238,None,283.52356860000145,283.52356860000145,283.52356860000145,283.52356860000145,283.52356860000145,283.52356860000145,283.52356860000145,283.52356860000145,283.52356860000145,283.52356860000145,,009,P012,2025_Feb_08_1243,ConditionRich,2021.2.3,59.92854120729872,
240.75,244.0,41,0.0,Stimuli/Blank.png,1,1.25,2.0,0,106,106,106,,,,,,,,,,,,,240.76240040000084,0.012400400000842637,2,284.2743294000011,284.2743294000011,284.2743294000011,284.2743294000011,284.2743294000011,284.2743294000011,285.50867610000023,286.2593428,284.2743294000011,284.2743294000011,1.8159630999998626,009,P012,2025_Feb_08_1243,ConditionRich,2021.2.3,59.92854120729872,
244.0,244.75,10,0.75,Stimuli/P012/sun_awufkrkrdrdbvvis.jpg,0,0.0,0.0,0,107,107,107,,,,,,,,,,,,,243.9998142000004,-0.0001857999995991122,None,287.51044900000124,287.51044900000124,287.51044900000124,287.51044900000124,287.51044900000124,287.51044900000124,287.51044900000124,287.51044900000124,287.51044900000124,287.51044900000124,,009,P012,2025_Feb_08_1243,ConditionRich,2021.2.3,59.92854120729872,
244.75,248.0,41,0.0,Stimuli/Blank.png,0,0.0,0.0,0,108,108,108,,,,,,,,,,,,,244.7494856000012,-0.0005143999987922143,None,288.2611265000014,288.2611265000014,288.2611265000014,288.2611265000014,288.2611265000014,288.2611265000014,288.2611265000014,288.2611265000014,288.2611265000014,288.2611265000014,,009,P012,2025_Feb_08_1243,ConditionRich,2021.2.3,59.92854120729872,
248.0,248.75,18,0.75,Stimuli/P012/sun_bxlbxustiovyqyrg.jpg,0,0.0,0.0,0,109,109,109,,,,,,,,,,,,,248.00148910000098,0.001489100000981125,None,291.53074670000024,291.53074670000024,291.53074670000024,291.53074670000024,291.53074670000024,291.53074670000024,291.53074670000024,291.53074670000024,291.53074670000024,291.53074670000024,,009,P012,2025_Feb_08_1243,ConditionRich,2021.2.3,59.92854120729872,
248.75,252.0,41,0.0,Stimuli/Blank.png,0,0.0,0.0,0,110,110,110,,,,,,,,,,,,,248.7697444000005,0.019744400000490714,None,292.28134520000094,292.28134520000094,292.28134520000094,292.28134520000094,292.28134520000094,292.28134520000094,292.28134520000094,292.28134520000094,292.28134520000094,292.28134520000094,,009,P012,2025_Feb_08_1243,ConditionRich,2021.2.3,59.92854120729872,
252.0,252.75,19,0.75,Stimuli/P012/sun_byvwakrdyukjigpc.jpg,0,0.0,0.0,0,111,111,111,,,,,,,,,,,,,252.00547870000082,0.005478700000821846,None,295.517530000001,295.517530000001,295.517530000001,295.517530000001,295.517530000001,295.517530000001,295.517530000001,295.517530000001,295.517530000001,295.517530000001,,009,P012,2025_Feb_08_1243,ConditionRich,2021.2.3,59.92854120729872,
252.75,256.0,41,0.0,Stimuli/Blank.png,0,0.0,0.0,0,112,112,112,,,,,,,,,,,,,252.75568159999966,0.005681599999661557,None,296.2681988000004,296.2681988000004,296.2681988000004,296.2681988000004,296.2681988000004,296.2681988000004,296.2681988000004,296.2681988000004,296.2681988000004,296.2681988000004,,009,P012,2025_Feb_08_1243,ConditionRich,2021.2.3,59.92854120729872,
256.0,256.75,11,0.75,Stimuli/P012/sun_baylllqlgfvxilor.jpg,0,0.0,0.0,0,113,113,113,,,,,,,,,,,,,256.00982750000003,0.009827500000028522,None,299.5377567000014,299.5377567000014,299.5377567000014,299.5377567000014,299.5377567000014,299.5377567000014,299.5377567000014,299.5377567000014,299.5377567000014,299.5377567000014,,009,P012,2025_Feb_08_1243,ConditionRich,2021.2.3,59.92854120729872,
256.75,260.0,41,0.0,Stimuli/Blank.png,0,0.0,0.0,0,114,114,114,,,,,,,,,,,,,256.7769180000014,0.026918000001387554,None,300.2884193000009,300.2884193000009,300.2884193000009,300.2884193000009,300.2884193000009,300.2884193000009,300.2884193000009,300.2884193000009,300.2884193000009,300.2884193000009,,009,P012,2025_Feb_08_1243,ConditionRich,2021.2.3,59.92854120729872,
260.0,260.75,6,0.75,Stimuli/P012/sun_aqysdudvyxnkcxgq.jpg,0,0.0,0.0,0,115,115,115,,,,,,,,,,,,,260.0121684000005,0.012168400000518886,None,303.5246181000002,303.5246181000002,303.5246181000002,303.5246181000002,303.5246181000002,303.5246181000002,303.5246181000002,303.5246181000002,303.5246181000002,303.5246181000002,,009,P012,2025_Feb_08_1243,ConditionRich,2021.2.3,59.92854120729872,
260.75,264.0,41,0.0,Stimuli/Blank.png,0,0.0,0.0,0,116,116,116,,,,,,,,,,,,,260.76429240000107,0.014292400001068017,None,304.27530430000115,304.27530430000115,304.27530430000115,304.27530430000115,304.27530430000115,304.27530430000115,304.27530430000115,304.27530430000115,304.27530430000115,304.27530430000115,,009,P012,2025_Feb_08_1243,ConditionRich,2021.2.3,59.92854120729872,
264.0,264.75,2,0.75,Stimuli/P012/sun_aewhvqonribwlxiq.jpg,0,0.0,0.0,0,117,117,117,,,,,,,,,,,,,263.9989022000009,-0.001097799999115523,None,307.5114773000005,307.5114773000005,307.5114773000005,307.5114773000005,307.5114773000005,307.5114773000005,307.5114773000005,307.5114773000005,307.5114773000005,307.5114773000005,,009,P012,2025_Feb_08_1243,ConditionRich,2021.2.3,59.92854120729872,
264.75,268.0,41,0.0,Stimuli/Blank.png,1,0.25,1.0,0,118,118,118,,,,,,,,,,,,,264.75088420000066,0.0008842000006552553,2,308.2621396000013,308.2621396000013,308.2621396000013,308.2621396000013,308.2621396000013,308.2621396000013,308.49568530000033,309.24627950000104,308.2621396000013,308.2621396000013,0.6424671999993734,009,P012,2025_Feb_08_1243,ConditionRich,2021.2.3,59.92854120729872,
268.0,268.75,28,0.75,Stimuli/P012/things_grasshopper_06s.jpg,1,0.0,0.75,0,119,119,119,,,,,,,,,,,,,268.0029727000001,0.0029727000001003034,2,311.5150162000009,311.5150162000009,311.5150162000009,311.5150162000009,311.5150162000009,311.5150162000009,311.5150162000009,312.24904400000014,311.5150162000009,311.5150162000009,0.5375945000014326,009,P012,2025_Feb_08_1243,ConditionRich,2021.2.3,59.92854120729872,
268.75,272.0,41,0.0,Stimuli/Blank.png,0,0.0,0.0,0,120,120,120,,,,,,,,,,,,,268.7560814999997,0.0060814999997091945,None,312.28236540000034,312.28236540000034,312.28236540000034,312.28236540000034,312.28236540000034,312.28236540000034,312.28236540000034,312.28236540000034,312.28236540000034,312.28236540000034,,009,P012,2025_Feb_08_1243,ConditionRich,2021.2.3,59.92854120729872,
272.0,272.75,26,0.75,Stimuli/P012/things_gazelle_06s.jpg,0,0.0,0.0,0,121,121,121,,,,,,,,,,,,,272.0254240000013,0.02542400000129419,None,315.55192309999984,315.55192309999984,315.55192309999984,315.55192309999984,315.55192309999984,315.55192309999984,315.55192309999984,315.55192309999984,315.55192309999984,315.55192309999984,,009,P012,2025_Feb_08_1243,ConditionRich,2021.2.3,59.92854120729872,
272.75,276.0,41,0.0,Stimuli/Blank.png,0,0.0,0.0,0,122,122,122,,,,,,,,,,,,,272.77524580000136,0.025245800001357566,None,316.28591120000056,316.28591120000056,316.28591120000056,316.28591120000056,316.28591120000056,316.28591120000056,316.28591120000056,316.28591120000056,316.28591120000056,316.28591120000056,,009,P012,2025_Feb_08_1243,ConditionRich,2021.2.3,59.92854120729872,
276.0,292.0,0,0.0,Stimuli/Blank.png,1,7.0,7.75,0,123,123,123,,,,,,,,,,,,,276.0096193999998,0.009619399999792222,2,319.52209480000056,319.52209480000056,319.52209480000056,319.52209480000056,319.52209480000056,319.52209480000056,326.5116015000003,327.26228660000015,319.52209480000056,319.52209480000056,7.393514499999583,009,P012,2025_Feb_08_1243,ConditionRich,2021.2.3,59.92854120729872,
292.0,292.75,25,0.75,Stimuli/P012/things_face_06s.jpg,0,0.0,0.0,0,124,124,124,,,,,,,,,,,,,292.00695629999973,0.006956299999728799,None,335.5195732000011,335.5195732000011,335.5195732000011,335.5195732000011,335.5195732000011,335.5195732000011,335.5195732000011,335.5195732000011,335.5195732000011,335.5195732000011,,009,P012,2025_Feb_08_1243,ConditionRich,2021.2.3,59.92854120729872,
292.75,296.0,41,0.0,Stimuli/Blank.png,1,1.25,2.0,0,125,125,125,,,,,,,,,,,,,292.75837070000125,0.008370700001250952,2,336.2702592000005,336.2702592000005,336.2702592000005,336.2702592000005,336.2702592000005,336.2702592000005,337.50465729999996,338.2553389000004,336.2702592000005,336.2702592000005,1.6651843999989069,009,P012,2025_Feb_08_1243,ConditionRich,2021.2.3,59.92854120729872,
296.0,296.75,5,0.75,Stimuli/P012/sun_anfwllcezhlypoti.jpg,0,0.0,0.0,0,126,126,126,,,,,,,,,,,,,296.0127207000005,0.012720700000500074,None,339.53980709999996,339.53980709999996,339.53980709999996,339.53980709999996,339.53980709999996,339.53980709999996,339.53980709999996,339.53980709999996,339.53980709999996,339.53980709999996,,009,P012,2025_Feb_08_1243,ConditionRich,2021.2.3,59.92854120729872,
296.75,300.0,41,0.0,Stimuli/Blank.png,0,0.0,0.0,0,127,127,127,,,,,,,,,,,,,296.77999100000125,0.029991000001245993,None,340.30716230000144,340.30716230000144,340.30716230000144,340.30716230000144,340.30716230000144,340.30716230000144,340.30716230000144,340.30716230000144,340.30716230000144,340.30716230000144,,009,P012,2025_Feb_08_1243,ConditionRich,2021.2.3,59.92854120729872,
300.0,300.75,15,0.75,Stimuli/P012/sun_bmngnyuahubpqroh.jpg,0,0.0,0.0,0,128,128,128,,,,,,,,,,,,,300.0140363999999,0.014036399999895366,None,343.5266576000013,343.5266576000013,343.5266576000013,343.5266576000013,343.5266576000013,343.5266576000013,343.5266576000013,343.5266576000013,343.5266576000013,343.5266576000013,,009,P012,2025_Feb_08_1243,ConditionRich,2021.2.3,59.92854120729872,
300.75,304.0,41,0.0,Stimuli/Blank.png,0,0.0,0.0,0,129,129,129,,,,,,,,,,,,,300.7652185000006,0.01521850000062841,None,344.2773194000001,344.2773194000001,344.2773194000001,344.2773194000001,344.2773194000001,344.2773194000001,344.2773194000001,344.2773194000001,344.2773194000001,344.2773194000001,,009,P012,2025_Feb_08_1243,ConditionRich,2021.2.3,59.92854120729872,
304.0,304.75,40,0.75,Stimuli/P012/things_woman_06s.jpg,1,0.0,0.75,0,130,130,130,,,,,,,,,,,,,304.0014712000011,0.001471200001105899,2,347.53022109999984,347.53022109999984,347.53022109999984,347.53022109999984,347.53022109999984,347.53022109999984,347.53022109999984,348.2474930999997,347.53022109999984,347.53022109999984,0.40715040000031877,009,P012,2025_Feb_08_1243,ConditionRich,2021.2.3,59.92854120729872,
304.75,308.0,41,0.0,Stimuli/Blank.png,0,0.0,0.0,0,131,131,131,,,,,,,,,,,,,304.7704088999999,0.020408899999893038,None,348.2975526000009,348.2975526000009,348.2975526000009,348.2975526000009,348.2975526000009,348.2975526000009,348.2975526000009,348.2975526000009,348.2975526000009,348.2975526000009,,009,P012,2025_Feb_08_1243,ConditionRich,2021.2.3,59.92854120729872,
308.0,308.75,7,0.75,Stimuli/P012/sun_arugqgwhwdjxezyt.jpg,0,0.0,0.0,0,132,132,132,,,,,,,,,,,,,308.02135799999996,0.021357999999963795,None,351.5504311000004,351.5504311000004,351.5504311000004,351.5504311000004,351.5504311000004,351.5504311000004,351.5504311000004,351.5504311000004,351.5504311000004,351.5504311000004,,009,P012,2025_Feb_08_1243,ConditionRich,2021.2.3,59.92854120729872,
308.75,312.0,41,0.0,Stimuli/Blank.png,0,0.0,0.0,0,133,133,133,,,,,,,,,,,,,308.77182379999977,0.02182379999976547,None,352.28443789999983,352.28443789999983,352.28443789999983,352.28443789999983,352.28443789999983,352.28443789999983,352.28443789999983,352.28443789999983,352.28443789999983,352.28443789999983,,009,P012,2025_Feb_08_1243,ConditionRich,2021.2.3,59.92854120729872,
312.0,312.75,1,0.75,Stimuli/P012/sun_aeakbqnvptdnxtno.jpg,0,0.0,0.0,0,134,134,134,,,,,,,,,,,,,312.0102205000003,0.010220500000286847,None,355.5378283000009,355.5378283000009,355.5378283000009,355.5378283000009,355.5378283000009,355.5378283000009,355.5378283000009,355.5378283000009,355.5378283000009,355.5378283000009,,009,P012,2025_Feb_08_1243,ConditionRich,2021.2.3,59.92854120729872,
312.75,316.0,41,0.0,Stimuli/Blank.png,0,0.0,0.0,0,135,135,135,,,,,,,,,,,,,312.7758235000001,0.02582350000011502,None,356.2879514000015,356.2879514000015,356.2879514000015,356.2879514000015,356.2879514000015,356.2879514000015,356.2879514000015,356.2879514000015,356.2879514000015,356.2879514000015,,009,P012,2025_Feb_08_1243,ConditionRich,2021.2.3,59.92854120729872,
316.0,316.75,14,0.75,Stimuli/P012/sun_blybvkoucskrdgiv.jpg,0,0.0,0.0,0,136,136,136,,,,,,,,,,,,,316.01238940000076,0.012389400000756723,None,359.54082610000114,359.54082610000114,359.54082610000114,359.54082610000114,359.54082610000114,359.54082610000114,359.54082610000114,359.54082610000114,359.54082610000114,359.54082610000114,,009,P012,2025_Feb_08_1243,ConditionRich,2021.2.3,59.92854120729872,
316.75,320.0,41,0.0,Stimuli/Blank.png,0,0.0,0.0,0,137,137,137,,,,,,,,,,,,,316.7797728000005,0.029772800000500865,None,360.29145570000037,360.29145570000037,360.29145570000037,360.29145570000037,360.29145570000037,360.29145570000037,360.29145570000037,360.29145570000037,360.29145570000037,360.29145570000037,,009,P012,2025_Feb_08_1243,ConditionRich,2021.2.3,59.92854120729872,
320.0,320.75,39,0.75,Stimuli/P012/things_thermometer_06s.jpg,0,0.0,0.0,0,138,138,138,,,,,,,,,,,,,320.0005019,0.0005019000000174856,None,363.52768070000093,363.52768070000093,363.52768070000093,363.52768070000093,363.52768070000093,363.52768070000093,363.52768070000093,363.52768070000093,363.52768070000093,363.52768070000093,,009,P012,2025_Feb_08_1243,ConditionRich,2021.2.3,59.92854120729872,
320.75,324.0,41,0.0,Stimuli/Blank.png,1,2.25,3.0,0,139,139,139,,,,,,,,,,,,,320.7658889000013,0.0158889000013005,2,364.27833720000126,364.27833720000126,364.27833720000126,364.27833720000126,364.27833720000126,364.27833720000126,366.51371780000045,367.2643129999997,364.27833720000126,364.27833720000126,2.631189900001118,009,P012,2025_Feb_08_1243,ConditionRich,2021.2.3,59.92854120729872,
324.0,324.75,17,0.75,Stimuli/P012/sun_btvwhlxbhcqnqzok.jpg,0,0.0,0.0,0,140,140,140,,,,,,,,,,,,,324.00193450000006,0.0019345000000612345,None,367.5312479000004,367.5312479000004,367.5312479000004,367.5312479000004,367.5312479000004,367.5312479000004,367.5312479000004,367.5312479000004,367.5312479000004,367.5312479000004,,009,P012,2025_Feb_08_1243,ConditionRich,2021.2.3,59.92854120729872,
324.75,328.0,41,0.0,Stimuli/Blank.png,1,2.25,3.0,0,141,141,141,,,,,,,,,,,,,324.7696785999997,0.019678599999679136,2,368.281878400001,368.281878400001,368.281878400001,368.281878400001,368.281878400001,368.281878400001,370.51716260000103,371.26785460000065,368.281878400001,368.281878400001,2.625578699999096,009,P012,2025_Feb_08_1243,ConditionRich,2021.2.3,59.92854120729872,
328.0,328.75,22,0.75,Stimuli/P012/things_boy_06s.jpg,0,0.0,0.0,0,142,142,142,,,,,,,,,,,,,328.0057606999999,0.00576069999988249,None,371.51807460000055,371.51807460000055,371.51807460000055,371.51807460000055,371.51807460000055,371.51807460000055,371.51807460000055,371.51807460000055,371.51807460000055,371.51807460000055,,009,P012,2025_Feb_08_1243,ConditionRich,2021.2.3,59.92854120729872,
328.75,332.0,41,0.0,Stimuli/Blank.png,0,0.0,0.0,0,143,143,143,,,,,,,,,,,,,328.75627180000083,0.006271800000831718,None,372.26873820000037,372.26873820000037,372.26873820000037,372.26873820000037,372.26873820000037,372.26873820000037,372.26873820000037,372.26873820000037,372.26873820000037,372.26873820000037,,009,P012,2025_Feb_08_1243,ConditionRich,2021.2.3,59.92854120729872,
332.0,332.75,4,0.75,Stimuli/P012/sun_akpdzjejmtbfopdt.jpg,0,0.0,0.0,0,144,144,144,,,,,,,,,,,,,332.0098087000006,0.00980870000057621,None,375.52162450000105,375.52162450000105,375.52162450000105,375.52162450000105,375.52162450000105,375.52162450000105,375.52162450000105,375.52162450000105,375.52162450000105,375.52162450000105,,009,P012,2025_Feb_08_1243,ConditionRich,2021.2.3,59.92854120729872,
332.75,336.0,41,0.0,Stimuli/Blank.png,0,0.0,0.0,0,145,145,145,,,,,,,,,,,,,332.7607661000002,0.010766100000182632,None,376.27229120000084,376.27229120000084,376.27229120000084,376.27229120000084,376.27229120000084,376.27229120000084,376.27229120000084,376.27229120000084,376.27229120000084,376.27229120000084,,009,P012,2025_Feb_08_1243,ConditionRich,2021.2.3,59.92854120729872,
336.0,336.75,8,0.75,Stimuli/P012/sun_asppejhsplpizvag.jpg,0,0.0,0.0,0,146,146,146,,,,,,,,,,,,,336.01331890000074,0.013318900000740541,None,379.5418374000001,379.5418374000001,379.5418374000001,379.5418374000001,379.5418374000001,379.5418374000001,379.5418374000001,379.5418374000001,379.5418374000001,379.5418374000001,,009,P012,2025_Feb_08_1243,ConditionRich,2021.2.3,59.92854120729872,
336.75,340.0,41,0.0,Stimuli/Blank.png,0,0.0,0.0,0,147,147,147,,,,,,,,,,,,,336.7797373000012,0.029737300001215772,None,380.29250820000016,380.29250820000016,380.29250820000016,380.29250820000016,380.29250820000016,380.29250820000016,380.29250820000016,380.29250820000016,380.29250820000016,380.29250820000016,,009,P012,2025_Feb_08_1243,ConditionRich,2021.2.3,59.92854120729872,
340.0,340.75,38,0.75,Stimuli/P012/things_squeegee_06s.jpg,0,0.0,0.0,0,148,148,148,,,,,,,,,,,,,340.00097670000105,0.0009767000010469928,None,383.52870000000075,383.52870000000075,383.52870000000075,383.52870000000075,383.52870000000075,383.52870000000075,383.52870000000075,383.52870000000075,383.52870000000075,383.52870000000075,,009,P012,2025_Feb_08_1243,ConditionRich,2021.2.3,59.92854120729872,
340.75,344.0,41,0.0,Stimuli/Blank.png,0,0.0,0.0,0,149,149,149,,,,,,,,,,,,,340.76752099999976,0.017520999999760534,None,384.27937080000083,384.27937080000083,384.27937080000083,384.27937080000083,384.27937080000083,384.27937080000083,384.27937080000083,384.27937080000083,384.27937080000083,384.27937080000083,,009,P012,2025_Feb_08_1243,ConditionRich,2021.2.3,59.92854120729872,
344.0,344.75,31,0.75,Stimuli/P012/things_hippopotamus_06s.jpg,0,0.0,0.0,0,150,150,150,,,,,,,,,,,,,344.00493520000055,0.004935200000545592,None,387.5322433000001,387.5322433000001,387.5322433000001,387.5322433000001,387.5322433000001,387.5322433000001,387.5322433000001,387.5322433000001,387.5322433000001,387.5322433000001,,009,P012,2025_Feb_08_1243,ConditionRich,2021.2.3,59.92854120729872,
344.75,348.0,41,0.0,Stimuli/Blank.png,0,0.0,0.0,0,151,151,151,,,,,,,,,,,,,344.770586300001,0.020586300001014024,None,388.28291080000054,388.28291080000054,388.28291080000054,388.28291080000054,388.28291080000054,388.28291080000054,388.28291080000054,388.28291080000054,388.28291080000054,388.28291080000054,,009,P012,2025_Feb_08_1243,ConditionRich,2021.2.3,59.92854120729872,
348.0,348.75,16,0.75,Stimuli/P012/sun_bpuwvyadswjfoaby.jpg,0,0.0,0.0,0,152,152,152,,,,,,,,,,,,,348.0073011000004,0.0073011000004044035,None,391.51909830000113,391.51909830000113,391.51909830000113,391.51909830000113,391.51909830000113,391.51909830000113,391.51909830000113,391.51909830000113,391.51909830000113,391.51909830000113,,009,P012,2025_Feb_08_1243,ConditionRich,2021.2.3,59.92854120729872,
348.75,352.0,41,0.0,Stimuli/Blank.png,0,0.0,0.0,0,153,153,153,,,,,,,,,,,,,348.76000999999997,0.010009999999965657,None,392.28645400000096,392.28645400000096,392.28645400000096,392.28645400000096,392.28645400000096,392.28645400000096,392.28645400000096,392.28645400000096,392.28645400000096,392.28645400000096,,009,P012,2025_Feb_08_1243,ConditionRich,2021.2.3,59.92854120729872,
352.0,352.75,35,0.75,Stimuli/P012/things_raccoon_06n.jpg,0,0.0,0.0,0,154,154,154,,,,,,,,,,,,,352.0268367999997,0.0268367999997281,None,395.5393488000009,395.5393488000009,395.5393488000009,395.5393488000009,395.5393488000009,395.5393488000009,395.5393488000009,395.5393488000009,395.5393488000009,395.5393488000009,,009,P012,2025_Feb_08_1243,ConditionRich,2021.2.3,59.92854120729872,
352.75,356.0,41,0.0,Stimuli/Blank.png,1,2.25,3.0,0,155,155,155,,,,,,,,,,,,,352.7608048000002,0.010804800000187242,2,396.27331440000125,396.27331440000125,396.27331440000125,396.27331440000125,396.27331440000125,396.27331440000125,398.50861989999976,399.25927279999996,396.27331440000125,396.27331440000125,2.5753721999990375,009,P012,2025_Feb_08_1243,ConditionRich,2021.2.3,59.92854120729872,
356.0,356.75,21,0.75,Stimuli/P012/things_baby_06s.jpg,0,0.0,0.0,0,156,156,156,,,,,,,,,,,,,356.0145100999998,0.014510099999824888,None,399.5428616999998,399.5428616999998,399.5428616999998,399.5428616999998,399.5428616999998,399.5428616999998,399.5428616999998,399.5428616999998,399.5428616999998,399.5428616999998,,009,P012,2025_Feb_08_1243,ConditionRich,2021.2.3,59.92854120729872,
356.75,360.0,41,0.0,Stimuli/Blank.png,0,0.0,0.0,0,157,157,157,,,,,,,,,,,,,356.7810406999997,0.031040699999721255,None,400.2946530999998,400.2946530999998,400.2946530999998,400.2946530999998,400.2946530999998,400.2946530999998,400.2946530999998,400.2946530999998,400.2946530999998,400.2946530999998,,009,P012,2025_Feb_08_1243,ConditionRich,2021.2.3,59.92854120729872,
360.0,360.75,32,0.75,Stimuli/P012/things_hood_06s.jpg,0,0.0,0.0,0,158,158,158,,,,,,,,,,,,,360.000418900001,0.0004189000010228483,None,403.51303610000105,403.51303610000105,403.51303610000105,403.51303610000105,403.51303610000105,403.51303610000105,403.51303610000105,403.51303610000105,403.51303610000105,403.51303610000105,,009,P012,2025_Feb_08_1243,ConditionRich,2021.2.3,59.92854120729872,
360.75,364.0,41,0.0,Stimuli/Blank.png,0,0.0,0.0,0,159,159,159,,,,,,,,,,,,,360.75143540000136,0.0014354000013554469,None,404.26370190000125,404.26370190000125,404.26370190000125,404.26370190000125,404.26370190000125,404.26370190000125,404.26370190000125,404.26370190000125,404.26370190000125,404.26370190000125,,009,P012,2025_Feb_08_1243,ConditionRich,2021.2.3,59.92854120729872,
364.0,364.75,23,0.75,Stimuli/P012/things_clove_06s.jpg,0,0.0,0.0,0,160,160,160,,,,,,,,,,,,,364.0041514000004,0.004151400000409922,None,407.5165797999998,407.5165797999998,407.5165797999998,407.5165797999998,407.5165797999998,407.5165797999998,407.5165797999998,407.5165797999998,407.5165797999998,407.5165797999998,,009,P012,2025_Feb_08_1243,ConditionRich,2021.2.3,59.92854120729872,
364.75,368.0,41,0.0,Stimuli/Blank.png,0,0.0,0.0,0,161,161,161,,,,,,,,,,,,,364.75476979999985,0.004769799999849056,None,408.2672411000003,408.2672411000003,408.2672411000003,408.2672411000003,408.2672411000003,408.2672411000003,408.2672411000003,408.2672411000003,408.2672411000003,408.2672411000003,,009,P012,2025_Feb_08_1243,ConditionRich,2021.2.3,59.92854120729872,
368.0,368.75,37,0.75,Stimuli/P012/things_spam_06s.jpg,0,0.0,0.0,0,162,162,162,,,,,,,,,,,,,368.00775820000126,0.007758200001262594,None,411.53680580000037,411.53680580000037,411.53680580000037,411.53680580000037,411.53680580000037,411.53680580000037,411.53680580000037,411.53680580000037,411.53680580000037,411.53680580000037,,009,P012,2025_Feb_08_1243,ConditionRich,2021.2.3,59.92854120729872,
368.75,372.0,41,0.0,Stimuli/Blank.png,0,0.0,0.0,0,163,163,163,,,,,,,,,,,,,368.7755828999998,0.025582899999790243,None,412.28747010000006,412.28747010000006,412.28747010000006,412.28747010000006,412.28747010000006,412.28747010000006,412.28747010000006,412.28747010000006,412.28747010000006,412.28747010000006,,009,P012,2025_Feb_08_1243,ConditionRich,2021.2.3,59.92854120729872,
372.0,388.0,0,0.0,Stimuli/Blank.png,1,7.0,7.75,0,164,164,164,,,,,,,,,,,,,372.01121310000053,0.011213100000531995,2,415.52366660000007,415.52366660000007,415.52366660000007,415.52366660000007,415.52366660000007,415.52366660000007,422.51317220000055,423.26389650000056,415.52366660000007,415.52366660000007,7.450990699999238,009,P012,2025_Feb_08_1243,ConditionRich,2021.2.3,59.92854120729872,
