eventStartTime,eventEndTime,eventCond,imSize,imFile,responseEvent,fixRespStart,fixRespEnd,Events.thisRepN,Events.thisTrialN,Events.thisN,Events.thisIndex,Instructions.started,Instructions.stopped,participantReadyResponse.keys,participantReadyResponse.rt,participantReadyResponse.started,participantReadyResponse.stopped,startWaitforTrigger,triggerResponse.keys,triggerResponse.rt,triggerResponse.started,triggerResponse.stopped,globalTimer,actualStartTime,startTimingDiff,participantResponse.keys,participantResponse.started,participantResponse.stopped,image.started,image.stopped,fixationOutside.started,fixationOutside.stopped,fixationResponse.started,fixationResponse.stopped,fixationInside.started,fixationInside.stopped,participantResponse.rt,session,participant,date,expName,psychopyVersion,frameRate,
,,,,,,,,,,,,11.244893499999307,None,2,8.963940200001161,11.244893499999307,None,,,,,,,,,,,,,,,,,,,,,006,P012,2025_Feb_08_1215,ConditionRich,2021.2.3,59.90976391347127,
,,,,,,,,,,,,,,,,,,20.217061499999545,5,14.211104800000612,20.229569199998878,None,,,,,,,,,,,,,,,,006,P012,2025_Feb_08_1215,ConditionRich,2021.2.3,59.90976391347127,
0.0,4.0,0,0.0,Stimuli/Blank.png,0,0.0,0.0,0,0,0,0,,,,,,,,,,,,34.44555589999982,0.03189360000033048,0.03189360000033048,None,34.49299749999955,None,34.49299749999955,None,34.49299749999955,None,34.49299749999955,34.49299749999955,34.49299749999955,None,,006,P012,2025_Feb_08_1215,ConditionRich,2021.2.3,59.90976391347127,
4.0,4.75,28,0.75,Stimuli/P012/things_grasshopper_06s.jpg,0,0.0,0.0,0,1,1,1,,,,,,,,,,,,,4.002785299999232,0.0027852999992319383,None,38.46257709999918,38.46257709999918,38.46257709999918,38.46257709999918,38.46257709999918,38.46257709999918,38.46257709999918,38.46257709999918,38.46257709999918,38.46257709999918,,006,P012,2025_Feb_08_1215,ConditionRich,2021.2.3,59.90976391347127,
4.75,8.0,41,0.0,Stimuli/Blank.png,1,2.25,3.0,0,2,2,2,,,,,,,,,,,,,4.753489599999739,0.003489599999738857,2,39.21325149999939,39.21325149999939,39.21325149999939,39.21325149999939,39.21325149999939,39.21325149999939,41.44832469999892,42.19898319999993,39.21325149999939,39.21325149999939,2.6455812999993213,006,P012,2025_Feb_08_1215,ConditionRich,2021.2.3,59.90976391347127,
8.0,8.75,37,0.75,Stimuli/P012/things_spam_06s.jpg,1,0.0,0.75,0,3,3,3,,,,,,,,,,,,,8.007456100000127,0.007456100000126753,None,42.48255439999957,42.48255439999957,42.48255439999957,42.48255439999957,42.48255439999957,42.48255439999957,42.48255439999957,43.19983539999885,42.48255439999957,42.48255439999957,,006,P012,2025_Feb_08_1215,ConditionRich,2021.2.3,59.90976391347127,
8.75,12.0,41,0.0,Stimuli/Blank.png,0,0.0,0.0,0,4,4,4,,,,,,,,,,,,,8.77353629999925,0.023536299999250332,None,43.233209399999396,43.233209399999396,43.233209399999396,43.233209399999396,43.233209399999396,43.233209399999396,43.233209399999396,43.233209399999396,43.233209399999396,43.233209399999396,,006,P012,2025_Feb_08_1215,ConditionRich,2021.2.3,59.90976391347127,
12.0,12.75,3,0.75,Stimuli/P012/sun_afdaynbvsppiyvxm.jpg,0,0.0,0.0,0,5,5,5,,,,,,,,,,,,,12.012092299999495,0.012092299999494571,None,46.4860991000005,46.4860991000005,46.4860991000005,46.4860991000005,46.4860991000005,46.4860991000005,46.4860991000005,46.4860991000005,46.4860991000005,46.4860991000005,,006,P012,2025_Feb_08_1215,ConditionRich,2021.2.3,59.90976391347127,
12.75,16.0,41,0.0,Stimuli/Blank.png,0,0.0,0.0,0,6,6,6,,,,,,,,,,,,,12.777715099999114,0.02771509999911359,None,47.23675179999918,47.23675179999918,47.23675179999918,47.23675179999918,47.23675179999918,47.23675179999918,47.23675179999918,47.23675179999918,47.23675179999918,47.23675179999918,,006,P012,2025_Feb_08_1215,ConditionRich,2021.2.3,59.90976391347127,
16.0,16.75,5,0.75,Stimuli/P012/sun_anfwllcezhlypoti.jpg,0,0.0,0.0,0,7,7,7,,,,,,,,,,,,,16.012983700000404,0.012983700000404497,None,50.47305729999971,50.47305729999971,50.47305729999971,50.47305729999971,50.47305729999971,50.47305729999971,50.47305729999971,50.47305729999971,50.47305729999971,50.47305729999971,,006,P012,2025_Feb_08_1215,ConditionRich,2021.2.3,59.90976391347127,
16.75,20.0,41,0.0,Stimuli/Blank.png,0,0.0,0.0,0,8,8,8,,,,,,,,,,,,,16.764025599999513,0.01402559999951336,None,51.22360900000058,51.22360900000058,51.22360900000058,51.22360900000058,51.22360900000058,51.22360900000058,51.22360900000058,51.22360900000058,51.22360900000058,51.22360900000058,,006,P012,2025_Feb_08_1215,ConditionRich,2021.2.3,59.90976391347127,
20.0,20.75,23,0.75,Stimuli/P012/things_clove_06s.jpg,0,0.0,0.0,0,9,9,9,,,,,,,,,,,,,20.00202619999982,0.0020261999998183455,None,54.47647419999885,54.47647419999885,54.47647419999885,54.47647419999885,54.47647419999885,54.47647419999885,54.47647419999885,54.47647419999885,54.47647419999885,54.47647419999885,,006,P012,2025_Feb_08_1215,ConditionRich,2021.2.3,59.90976391347127,
20.75,24.0,41,0.0,Stimuli/Blank.png,0,0.0,0.0,0,10,10,10,,,,,,,,,,,,,20.76704140000038,0.017041400000380236,None,55.22713859999931,55.22713859999931,55.22713859999931,55.22713859999931,55.22713859999931,55.22713859999931,55.22713859999931,55.22713859999931,55.22713859999931,55.22713859999931,,006,P012,2025_Feb_08_1215,ConditionRich,2021.2.3,59.90976391347127,
24.0,24.75,13,0.75,Stimuli/P012/sun_bjedvzikugwleyer.jpg,0,0.0,0.0,0,11,11,11,,,,,,,,,,,,,24.00315539999974,0.0031553999997413484,None,58.463302099999055,58.463302099999055,58.463302099999055,58.463302099999055,58.463302099999055,58.463302099999055,58.463302099999055,58.463302099999055,58.463302099999055,58.463302099999055,,006,P012,2025_Feb_08_1215,ConditionRich,2021.2.3,59.90976391347127,
24.75,28.0,41,0.0,Stimuli/Blank.png,0,0.0,0.0,0,12,12,12,,,,,,,,,,,,,24.754391399999804,0.00439139999980398,None,59.213999600000534,59.213999600000534,59.213999600000534,59.213999600000534,59.213999600000534,59.213999600000534,59.213999600000534,59.213999600000534,59.213999600000534,59.213999600000534,,006,P012,2025_Feb_08_1215,ConditionRich,2021.2.3,59.90976391347127,
28.0,28.75,38,0.75,Stimuli/P012/things_squeegee_06s.jpg,0,0.0,0.0,0,13,13,13,,,,,,,,,,,,,28.007547699999122,0.007547699999122415,None,62.48355179999999,62.48355179999999,62.48355179999999,62.48355179999999,62.48355179999999,62.48355179999999,62.48355179999999,62.48355179999999,62.48355179999999,62.48355179999999,,006,P012,2025_Feb_08_1215,ConditionRich,2021.2.3,59.90976391347127,
28.75,32.0,41,0.0,Stimuli/Blank.png,0,0.0,0.0,0,14,14,14,,,,,,,,,,,,,28.774931199999628,0.024931199999628006,None,63.23432469999898,63.23432469999898,63.23432469999898,63.23432469999898,63.23432469999898,63.23432469999898,63.23432469999898,63.23432469999898,63.23432469999898,63.23432469999898,,006,P012,2025_Feb_08_1215,ConditionRich,2021.2.3,59.90976391347127,
32.0,32.75,12,0.75,Stimuli/P012/sun_bcesifdfuidnkdhl.jpg,0,0.0,0.0,0,15,15,15,,,,,,,,,,,,,32.01126850000037,0.011268500000369386,None,66.48709889999918,66.48709889999918,66.48709889999918,66.48709889999918,66.48709889999918,66.48709889999918,66.48709889999918,66.48709889999918,66.48709889999918,66.48709889999918,,006,P012,2025_Feb_08_1215,ConditionRich,2021.2.3,59.90976391347127,
32.75,36.0,41,0.0,Stimuli/Blank.png,0,0.0,0.0,0,16,16,16,,,,,,,,,,,,,32.77845030000026,0.02845030000025872,None,67.23776559999897,67.23776559999897,67.23776559999897,67.23776559999897,67.23776559999897,67.23776559999897,67.23776559999897,67.23776559999897,67.23776559999897,67.23776559999897,,006,P012,2025_Feb_08_1215,ConditionRich,2021.2.3,59.90976391347127,
36.0,36.75,10,0.75,Stimuli/P012/sun_awufkrkrdrdbvvis.jpg,0,0.0,0.0,0,17,17,17,,,,,,,,,,,,,36.015374799999336,0.015374799999335664,None,70.4906362999991,70.4906362999991,70.4906362999991,70.4906362999991,70.4906362999991,70.4906362999991,70.4906362999991,70.4906362999991,70.4906362999991,70.4906362999991,,006,P012,2025_Feb_08_1215,ConditionRich,2021.2.3,59.90976391347127,
36.75,40.0,41,0.0,Stimuli/Blank.png,0,0.0,0.0,0,18,18,18,,,,,,,,,,,,,36.76699869999902,0.016998699999021483,None,71.24130990000049,71.24130990000049,71.24130990000049,71.24130990000049,71.24130990000049,71.24130990000049,71.24130990000049,71.24130990000049,71.24130990000049,71.24130990000049,,006,P012,2025_Feb_08_1215,ConditionRich,2021.2.3,59.90976391347127,
40.0,40.75,25,0.75,Stimuli/P012/things_face_06s.jpg,0,0.0,0.0,0,19,19,19,,,,,,,,,,,,,40.0181405000003,0.018140500000299653,None,74.49420420000024,74.49420420000024,74.49420420000024,74.49420420000024,74.49420420000024,74.49420420000024,74.49420420000024,74.49420420000024,74.49420420000024,74.49420420000024,,006,P012,2025_Feb_08_1215,ConditionRich,2021.2.3,59.90976391347127,
40.75,44.0,41,0.0,Stimuli/Blank.png,0,0.0,0.0,0,20,20,20,,,,,,,,,,,,,40.7682877999996,0.018287799999598064,None,75.2281998999988,75.2281998999988,75.2281998999988,75.2281998999988,75.2281998999988,75.2281998999988,75.2281998999988,75.2281998999988,75.2281998999988,75.2281998999988,,006,P012,2025_Feb_08_1215,ConditionRich,2021.2.3,59.90976391347127,
44.0,44.75,17,0.75,Stimuli/P012/sun_btvwhlxbhcqnqzok.jpg,0,0.0,0.0,0,21,21,21,,,,,,,,,,,,,44.00695519999863,0.006955199998628814,None,78.48104760000024,78.48104760000024,78.48104760000024,78.48104760000024,78.48104760000024,78.48104760000024,78.48104760000024,78.48104760000024,78.48104760000024,78.48104760000024,,006,P012,2025_Feb_08_1215,ConditionRich,2021.2.3,59.90976391347127,
44.75,48.0,41,0.0,Stimuli/Blank.png,0,0.0,0.0,0,22,22,22,,,,,,,,,,,,,44.772779699998864,0.02277969999886409,None,79.24839799999972,79.24839799999972,79.24839799999972,79.24839799999972,79.24839799999972,79.24839799999972,79.24839799999972,79.24839799999972,79.24839799999972,79.24839799999972,,006,P012,2025_Feb_08_1215,ConditionRich,2021.2.3,59.90976391347127,
48.0,48.75,33,0.75,Stimuli/P012/things_hot-air_balloon_06s.jpg,0,0.0,0.0,0,23,23,23,,,,,,,,,,,,,48.02467909999905,0.02467909999904805,None,82.50127280000015,82.50127280000015,82.50127280000015,82.50127280000015,82.50127280000015,82.50127280000015,82.50127280000015,82.50127280000015,82.50127280000015,82.50127280000015,,006,P012,2025_Feb_08_1215,ConditionRich,2021.2.3,59.90976391347127,
48.75,52.0,41,0.0,Stimuli/Blank.png,0,0.0,0.0,0,24,24,24,,,,,,,,,,,,,48.7771214000004,0.027121400000396534,None,83.25192889999926,83.25192889999926,83.25192889999926,83.25192889999926,83.25192889999926,83.25192889999926,83.25192889999926,83.25192889999926,83.25192889999926,83.25192889999926,,006,P012,2025_Feb_08_1215,ConditionRich,2021.2.3,59.90976391347127,
52.0,52.75,4,0.75,Stimuli/P012/sun_akpdzjejmtbfopdt.jpg,0,0.0,0.0,0,25,25,25,,,,,,,,,,,,,52.029012999999395,0.029012999999395106,None,86.50481159999981,86.50481159999981,86.50481159999981,86.50481159999981,86.50481159999981,86.50481159999981,86.50481159999981,86.50481159999981,86.50481159999981,86.50481159999981,,006,P012,2025_Feb_08_1215,ConditionRich,2021.2.3,59.90976391347127,
52.75,56.0,41,0.0,Stimuli/Blank.png,1,2.25,3.0,0,26,26,26,,,,,,,,,,,,,52.778756699999576,0.028756699999576085,2,87.23886420000053,87.23886420000053,87.23886420000053,87.23886420000053,87.23886420000053,87.23886420000053,89.47409309999966,90.22478819999924,87.23886420000053,87.23886420000053,2.6937966999994387,006,P012,2025_Feb_08_1215,ConditionRich,2021.2.3,59.90976391347127,
56.0,56.75,8,0.75,Stimuli/P012/sun_asppejhsplpizvag.jpg,0,0.0,0.0,0,27,27,27,,,,,,,,,,,,,56.01601389999996,0.016013899999961723,None,90.49166530000002,90.49166530000002,90.49166530000002,90.49166530000002,90.49166530000002,90.49166530000002,90.49166530000002,90.49166530000002,90.49166530000002,90.49166530000002,,006,P012,2025_Feb_08_1215,ConditionRich,2021.2.3,59.90976391347127,
56.75,60.0,41,0.0,Stimuli/Blank.png,0,0.0,0.0,0,28,28,28,,,,,,,,,,,,,56.7668053999987,0.01680539999870234,None,91.22565639999993,91.22565639999993,91.22565639999993,91.22565639999993,91.22565639999993,91.22565639999993,91.22565639999993,91.22565639999993,91.22565639999993,91.22565639999993,,006,P012,2025_Feb_08_1215,ConditionRich,2021.2.3,59.90976391347127,
60.0,60.75,34,0.75,Stimuli/P012/things_polar_bear_06s.jpg,0,0.0,0.0,0,29,29,29,,,,,,,,,,,,,60.00296349999917,0.0029634999991685618,None,94.47854319999897,94.47854319999897,94.47854319999897,94.47854319999897,94.47854319999897,94.47854319999897,94.47854319999897,94.47854319999897,94.47854319999897,94.47854319999897,,006,P012,2025_Feb_08_1215,ConditionRich,2021.2.3,59.90976391347127,
60.75,64.0,41,0.0,Stimuli/Blank.png,0,0.0,0.0,0,30,30,30,,,,,,,,,,,,,60.77169820000017,0.02169820000017353,None,95.24587729999985,95.24587729999985,95.24587729999985,95.24587729999985,95.24587729999985,95.24587729999985,95.24587729999985,95.24587729999985,95.24587729999985,95.24587729999985,,006,P012,2025_Feb_08_1215,ConditionRich,2021.2.3,59.90976391347127,
64.0,64.75,30,0.75,Stimuli/P012/things_hamburger_06s.jpg,0,0.0,0.0,0,31,31,31,,,,,,,,,,,,,64.02399390000028,0.02399390000027779,None,98.49875319999956,98.49875319999956,98.49875319999956,98.49875319999956,98.49875319999956,98.49875319999956,98.49875319999956,98.49875319999956,98.49875319999956,98.49875319999956,,006,P012,2025_Feb_08_1215,ConditionRich,2021.2.3,59.90976391347127,
64.75,68.0,41,0.0,Stimuli/Blank.png,0,0.0,0.0,0,32,32,32,,,,,,,,,,,,,64.773224999999,0.02322499999900174,None,99.23272439999892,99.23272439999892,99.23272439999892,99.23272439999892,99.23272439999892,99.23272439999892,99.23272439999892,99.23272439999892,99.23272439999892,99.23272439999892,,006,P012,2025_Feb_08_1215,ConditionRich,2021.2.3,59.90976391347127,
68.0,68.75,18,0.75,Stimuli/P012/sun_bxlbxustiovyqyrg.jpg,0,0.0,0.0,0,33,33,33,,,,,,,,,,,,,68.00949059999948,0.009490599999480764,None,102.46893219999947,102.46893219999947,102.46893219999947,102.46893219999947,102.46893219999947,102.46893219999947,102.46893219999947,102.46893219999947,102.46893219999947,102.46893219999947,,006,P012,2025_Feb_08_1215,ConditionRich,2021.2.3,59.90976391347127,
68.75,72.0,41,0.0,Stimuli/Blank.png,1,2.25,3.0,0,34,34,34,,,,,,,,,,,,,68.76301280000007,0.013012800000069547,2,103.23627940000006,103.23627940000006,103.23627940000006,103.23627940000006,103.23627940000006,103.23627940000006,105.47158049999962,106.22223920000033,103.23627940000006,103.23627940000006,2.647737400000551,006,P012,2025_Feb_08_1215,ConditionRich,2021.2.3,59.90976391347127,
72.0,72.75,15,0.75,Stimuli/P012/sun_bmngnyuahubpqroh.jpg,0,0.0,0.0,0,35,35,35,,,,,,,,,,,,,72.01254530000006,0.012545300000056159,None,106.47246230000019,106.47246230000019,106.47246230000019,106.47246230000019,106.47246230000019,106.47246230000019,106.47246230000019,106.47246230000019,106.47246230000019,106.47246230000019,,006,P012,2025_Feb_08_1215,ConditionRich,2021.2.3,59.90976391347127,
72.75,76.0,41,0.0,Stimuli/Blank.png,0,0.0,0.0,0,36,36,36,,,,,,,,,,,,,72.76313370000025,0.013133700000253157,None,107.22313170000052,107.22313170000052,107.22313170000052,107.22313170000052,107.22313170000052,107.22313170000052,107.22313170000052,107.22313170000052,107.22313170000052,107.22313170000052,,006,P012,2025_Feb_08_1215,ConditionRich,2021.2.3,59.90976391347127,
76.0,76.75,22,0.75,Stimuli/P012/things_boy_06s.jpg,0,0.0,0.0,0,37,37,37,,,,,,,,,,,,,76.0000330999992,3.3099999200203456e-05,None,110.47596990000056,110.47596990000056,110.47596990000056,110.47596990000056,110.47596990000056,110.47596990000056,110.47596990000056,110.47596990000056,110.47596990000056,110.47596990000056,,006,P012,2025_Feb_08_1215,ConditionRich,2021.2.3,59.90976391347127,
76.75,80.0,41,0.0,Stimuli/Blank.png,0,0.0,0.0,0,38,38,38,,,,,,,,,,,,,76.76660499999889,0.01660499999888998,None,111.22667770000044,111.22667770000044,111.22667770000044,111.22667770000044,111.22667770000044,111.22667770000044,111.22667770000044,111.22667770000044,111.22667770000044,111.22667770000044,,006,P012,2025_Feb_08_1215,ConditionRich,2021.2.3,59.90976391347127,
80.0,80.75,21,0.75,Stimuli/P012/things_baby_06s.jpg,0,0.0,0.0,0,39,39,39,,,,,,,,,,,,,80.00273089999973,0.002730899999733083,None,114.46283419999963,114.46283419999963,114.46283419999963,114.46283419999963,114.46283419999963,114.46283419999963,114.46283419999963,114.46283419999963,114.46283419999963,114.46283419999963,,006,P012,2025_Feb_08_1215,ConditionRich,2021.2.3,59.90976391347127,
80.75,84.0,41,0.0,Stimuli/Blank.png,0,0.0,0.0,0,40,40,40,,,,,,,,,,,,,80.75351690000025,0.003516900000249734,None,115.21354099999917,115.21354099999917,115.21354099999917,115.21354099999917,115.21354099999917,115.21354099999917,115.21354099999917,115.21354099999917,115.21354099999917,115.21354099999917,,006,P012,2025_Feb_08_1215,ConditionRich,2021.2.3,59.90976391347127,
84.0,100.0,0,0.0,Stimuli/Blank.png,1,8.0,8.75,0,41,41,41,,,,,,,,,,,,,84.00636440000017,0.006364400000165915,2,118.46640999999909,118.46640999999909,118.46640999999909,118.46640999999909,118.46640999999909,118.46640999999909,126.45677369999976,127.2074303999998,118.46640999999909,118.46640999999909,8.477362899999207,006,P012,2025_Feb_08_1215,ConditionRich,2021.2.3,59.90976391347127,
100.0,100.75,14,0.75,Stimuli/P012/sun_blybvkoucskrdgiv.jpg,0,0.0,0.0,0,42,42,42,,,,,,,,,,,,,100.00454089999948,0.004540899999483372,None,134.4638486999993,134.4638486999993,134.4638486999993,134.4638486999993,134.4638486999993,134.4638486999993,134.4638486999993,134.4638486999993,134.4638486999993,134.4638486999993,,006,P012,2025_Feb_08_1215,ConditionRich,2021.2.3,59.90976391347127,
100.75,104.0,41,0.0,Stimuli/Blank.png,0,0.0,0.0,0,43,43,43,,,,,,,,,,,,,100.75490530000025,0.004905300000245916,None,135.21455129999958,135.21455129999958,135.21455129999958,135.21455129999958,135.21455129999958,135.21455129999958,135.21455129999958,135.21455129999958,135.21455129999958,135.21455129999958,,006,P012,2025_Feb_08_1215,ConditionRich,2021.2.3,59.90976391347127,
104.0,104.75,9,0.75,Stimuli/P012/sun_aupohozmrmtfgcsw.jpg,1,0.0,0.75,0,44,44,44,,,,,,,,,,,,,104.00759199999993,0.007591999999931431,2,138.46738919999916,138.46738919999916,138.46738919999916,138.46738919999916,138.46738919999916,138.46738919999916,138.46738919999916,139.2013967999992,138.46738919999916,138.46738919999916,0.4183779000013601,006,P012,2025_Feb_08_1215,ConditionRich,2021.2.3,59.90976391347127,
104.75,108.0,41,0.0,Stimuli/Blank.png,0,0.0,0.0,0,45,45,45,,,,,,,,,,,,,104.75796669999909,0.007966699999087723,None,139.2180860999997,139.2180860999997,139.2180860999997,139.2180860999997,139.2180860999997,139.2180860999997,139.2180860999997,139.2180860999997,139.2180860999997,139.2180860999997,,006,P012,2025_Feb_08_1215,ConditionRich,2021.2.3,59.90976391347127,
108.0,108.75,6,0.75,Stimuli/P012/sun_aqysdudvyxnkcxgq.jpg,0,0.0,0.0,0,46,46,46,,,,,,,,,,,,,108.01202699999885,0.012026999998852261,None,142.4709617999997,142.4709617999997,142.4709617999997,142.4709617999997,142.4709617999997,142.4709617999997,142.4709617999997,142.4709617999997,142.4709617999997,142.4709617999997,,006,P012,2025_Feb_08_1215,ConditionRich,2021.2.3,59.90976391347127,
108.75,112.0,41,0.0,Stimuli/Blank.png,0,0.0,0.0,0,47,47,47,,,,,,,,,,,,,108.76214199999959,0.012141999999585096,None,143.22162860000026,143.22162860000026,143.22162860000026,143.22162860000026,143.22162860000026,143.22162860000026,143.22162860000026,143.22162860000026,143.22162860000026,143.22162860000026,,006,P012,2025_Feb_08_1215,ConditionRich,2021.2.3,59.90976391347127,
112.0,112.75,31,0.75,Stimuli/P012/things_hippopotamus_06s.jpg,0,0.0,0.0,0,48,48,48,,,,,,,,,,,,,112.01496119999865,0.014961199998651864,None,146.4911890000003,146.4911890000003,146.4911890000003,146.4911890000003,146.4911890000003,146.4911890000003,146.4911890000003,146.4911890000003,146.4911890000003,146.4911890000003,,006,P012,2025_Feb_08_1215,ConditionRich,2021.2.3,59.90976391347127,
112.75,116.0,41,0.0,Stimuli/Blank.png,0,0.0,0.0,0,49,49,49,,,,,,,,,,,,,112.78251939999973,0.032519399999728194,None,147.24186030000055,147.24186030000055,147.24186030000055,147.24186030000055,147.24186030000055,147.24186030000055,147.24186030000055,147.24186030000055,147.24186030000055,147.24186030000055,,006,P012,2025_Feb_08_1215,ConditionRich,2021.2.3,59.90976391347127,
116.0,116.75,39,0.75,Stimuli/P012/things_thermometer_06s.jpg,0,0.0,0.0,0,50,50,50,,,,,,,,,,,,,116.00121629999921,0.0012162999992142431,None,150.46135859999958,150.46135859999958,150.46135859999958,150.46135859999958,150.46135859999958,150.46135859999958,150.46135859999958,150.46135859999958,150.46135859999958,150.46135859999958,,006,P012,2025_Feb_08_1215,ConditionRich,2021.2.3,59.90976391347127,
116.75,120.0,41,0.0,Stimuli/Blank.png,0,0.0,0.0,0,51,51,51,,,,,,,,,,,,,116.75184400000035,0.0018440000003465684,None,151.21203849999984,151.21203849999984,151.21203849999984,151.21203849999984,151.21203849999984,151.21203849999984,151.21203849999984,151.21203849999984,151.21203849999984,151.21203849999984,,006,P012,2025_Feb_08_1215,ConditionRich,2021.2.3,59.90976391347127,
120.0,120.75,29,0.75,Stimuli/P012/things_gutter_06s.jpg,0,0.0,0.0,0,52,52,52,,,,,,,,,,,,,120.0074182999997,0.007418299999699229,None,154.48161380000056,154.48161380000056,154.48161380000056,154.48161380000056,154.48161380000056,154.48161380000056,154.48161380000056,154.48161380000056,154.48161380000056,154.48161380000056,,006,P012,2025_Feb_08_1215,ConditionRich,2021.2.3,59.90976391347127,
120.75,124.0,41,0.0,Stimuli/Blank.png,0,0.0,0.0,0,53,53,53,,,,,,,,,,,,,120.77251760000036,0.022517600000355742,None,155.23225759999877,155.23225759999877,155.23225759999877,155.23225759999877,155.23225759999877,155.23225759999877,155.23225759999877,155.23225759999877,155.23225759999877,155.23225759999877,,006,P012,2025_Feb_08_1215,ConditionRich,2021.2.3,59.90976391347127,
124.0,124.75,16,0.75,Stimuli/P012/sun_bpuwvyadswjfoaby.jpg,0,0.0,0.0,0,54,54,54,,,,,,,,,,,,,124.00853019999886,0.008530199998858734,None,158.46841080000013,158.46841080000013,158.46841080000013,158.46841080000013,158.46841080000013,158.46841080000013,158.46841080000013,158.46841080000013,158.46841080000013,158.46841080000013,,006,P012,2025_Feb_08_1215,ConditionRich,2021.2.3,59.90976391347127,
124.75,128.0,41,0.0,Stimuli/Blank.png,0,0.0,0.0,0,55,55,55,,,,,,,,,,,,,124.76200679999965,0.012006799999653595,None,159.23587620000035,159.23587620000035,159.23587620000035,159.23587620000035,159.23587620000035,159.23587620000035,159.23587620000035,159.23587620000035,159.23587620000035,159.23587620000035,,006,P012,2025_Feb_08_1215,ConditionRich,2021.2.3,59.90976391347127,
128.0,128.75,26,0.75,Stimuli/P012/things_gazelle_06s.jpg,0,0.0,0.0,0,56,56,56,,,,,,,,,,,,,128.02856539999993,0.028565399999934016,None,162.48867509999945,162.48867509999945,162.48867509999945,162.48867509999945,162.48867509999945,162.48867509999945,162.48867509999945,162.48867509999945,162.48867509999945,162.48867509999945,,006,P012,2025_Feb_08_1215,ConditionRich,2021.2.3,59.90976391347127,
128.75,132.0,41,0.0,Stimuli/Blank.png,0,0.0,0.0,0,57,57,57,,,,,,,,,,,,,128.7628851999998,0.012885199999800534,None,163.22267079999983,163.22267079999983,163.22267079999983,163.22267079999983,163.22267079999983,163.22267079999983,163.22267079999983,163.22267079999983,163.22267079999983,163.22267079999983,,006,P012,2025_Feb_08_1215,ConditionRich,2021.2.3,59.90976391347127,
132.0,132.75,27,0.75,Stimuli/P012/things_girl_06s.jpg,1,0.0,0.75,0,58,58,58,,,,,,,,,,,,,131.99988920000033,-0.00011079999967478216,2,166.4588229000001,166.4588229000001,166.4588229000001,166.4588229000001,166.4588229000001,166.4588229000001,166.4588229000001,167.1928740000003,166.4588229000001,166.4588229000001,0.42984160000014526,006,P012,2025_Feb_08_1215,ConditionRich,2021.2.3,59.90976391347127,
132.75,136.0,41,0.0,Stimuli/Blank.png,0,0.0,0.0,0,59,59,59,,,,,,,,,,,,,132.75184139999874,0.0018413999987387797,None,167.2273298,167.2273298,167.2273298,167.2273298,167.2273298,167.2273298,167.2273298,167.2273298,167.2273298,167.2273298,,006,P012,2025_Feb_08_1215,ConditionRich,2021.2.3,59.90976391347127,
136.0,136.75,2,0.75,Stimuli/P012/sun_aewhvqonribwlxiq.jpg,0,0.0,0.0,0,60,60,60,,,,,,,,,,,,,136.01908489999914,0.01908489999914309,None,170.4790763000001,170.4790763000001,170.4790763000001,170.4790763000001,170.4790763000001,170.4790763000001,170.4790763000001,170.4790763000001,170.4790763000001,170.4790763000001,,006,P012,2025_Feb_08_1215,ConditionRich,2021.2.3,59.90976391347127,
136.75,140.0,41,0.0,Stimuli/Blank.png,0,0.0,0.0,0,61,61,61,,,,,,,,,,,,,136.75285950000034,0.0028595000003406312,None,171.21305779999966,171.21305779999966,171.21305779999966,171.21305779999966,171.21305779999966,171.21305779999966,171.21305779999966,171.21305779999966,171.21305779999966,171.21305779999966,,006,P012,2025_Feb_08_1215,ConditionRich,2021.2.3,59.90976391347127,
140.0,140.75,24,0.75,Stimuli/P012/things_doily_06s.jpg,0,0.0,0.0,0,62,62,62,,,,,,,,,,,,,140.00721349999912,0.007213499999124906,None,174.48264240000026,174.48264240000026,174.48264240000026,174.48264240000026,174.48264240000026,174.48264240000026,174.48264240000026,174.48264240000026,174.48264240000026,174.48264240000026,,006,P012,2025_Feb_08_1215,ConditionRich,2021.2.3,59.90976391347127,
140.75,144.0,41,0.0,Stimuli/Blank.png,0,0.0,0.0,0,63,63,63,,,,,,,,,,,,,140.77411380000012,0.024113800000122865,None,175.23327810000046,175.23327810000046,175.23327810000046,175.23327810000046,175.23327810000046,175.23327810000046,175.23327810000046,175.23327810000046,175.23327810000046,175.23327810000046,,006,P012,2025_Feb_08_1215,ConditionRich,2021.2.3,59.90976391347127,
144.0,144.75,20,0.75,Stimuli/P012/sun_ciifteeudwpxupnw.jpg,0,0.0,0.0,0,64,64,64,,,,,,,,,,,,,144.01020299999982,0.01020299999981944,None,178.48615719999907,178.48615719999907,178.48615719999907,178.48615719999907,178.48615719999907,178.48615719999907,178.48615719999907,178.48615719999907,178.48615719999907,178.48615719999907,,006,P012,2025_Feb_08_1215,ConditionRich,2021.2.3,59.90976391347127,
144.75,148.0,41,0.0,Stimuli/Blank.png,0,0.0,0.0,0,65,65,65,,,,,,,,,,,,,144.7769862999994,0.026986299999407493,None,179.23681319999923,179.23681319999923,179.23681319999923,179.23681319999923,179.23681319999923,179.23681319999923,179.23681319999923,179.23681319999923,179.23681319999923,179.23681319999923,,006,P012,2025_Feb_08_1215,ConditionRich,2021.2.3,59.90976391347127,
148.0,148.75,11,0.75,Stimuli/P012/sun_baylllqlgfvxilor.jpg,0,0.0,0.0,0,66,66,66,,,,,,,,,,,,,148.01283200000034,0.012832000000344124,None,182.47301030000017,182.47301030000017,182.47301030000017,182.47301030000017,182.47301030000017,182.47301030000017,182.47301030000017,182.47301030000017,182.47301030000017,182.47301030000017,,006,P012,2025_Feb_08_1215,ConditionRich,2021.2.3,59.90976391347127,
148.75,152.0,41,0.0,Stimuli/Blank.png,0,0.0,0.0,0,67,67,67,,,,,,,,,,,,,148.76444479999918,0.014444799999182578,None,183.22368520000055,183.22368520000055,183.22368520000055,183.22368520000055,183.22368520000055,183.22368520000055,183.22368520000055,183.22368520000055,183.22368520000055,183.22368520000055,,006,P012,2025_Feb_08_1215,ConditionRich,2021.2.3,59.90976391347127,
152.0,152.75,7,0.75,Stimuli/P012/sun_arugqgwhwdjxezyt.jpg,0,0.0,0.0,0,68,68,68,,,,,,,,,,,,,152.00212399999873,0.0021239999987301417,None,186.47726089999924,186.47726089999924,186.47726089999924,186.47726089999924,186.47726089999924,186.47726089999924,186.47726089999924,186.47726089999924,186.47726089999924,186.47726089999924,,006,P012,2025_Feb_08_1215,ConditionRich,2021.2.3,59.90976391347127,
152.75,156.0,41,0.0,Stimuli/Blank.png,0,0.0,0.0,0,69,69,69,,,,,,,,,,,,,152.7680148999989,0.018014899998888723,None,187.2272166999992,187.2272166999992,187.2272166999992,187.2272166999992,187.2272166999992,187.2272166999992,187.2272166999992,187.2272166999992,187.2272166999992,187.2272166999992,,006,P012,2025_Feb_08_1215,ConditionRich,2021.2.3,59.90976391347127,
156.0,156.75,36,0.75,Stimuli/P012/things_shower_cap_06s.jpg,0,0.0,0.0,0,70,70,70,,,,,,,,,,,,,156.00338050000028,0.003380500000275788,None,190.46337440000025,190.46337440000025,190.46337440000025,190.46337440000025,190.46337440000025,190.46337440000025,190.46337440000025,190.46337440000025,190.46337440000025,190.46337440000025,,006,P012,2025_Feb_08_1215,ConditionRich,2021.2.3,59.90976391347127,
156.75,160.0,41,0.0,Stimuli/Blank.png,0,0.0,0.0,0,71,71,71,,,,,,,,,,,,,156.75697589999982,0.006975899999815738,None,191.2307624999994,191.2307624999994,191.2307624999994,191.2307624999994,191.2307624999994,191.2307624999994,191.2307624999994,191.2307624999994,191.2307624999994,191.2307624999994,,006,P012,2025_Feb_08_1215,ConditionRich,2021.2.3,59.90976391347127,
160.0,160.75,19,0.75,Stimuli/P012/sun_byvwakrdyukjigpc.jpg,0,0.0,0.0,0,72,72,72,,,,,,,,,,,,,160.02409249999982,0.024092499999824213,None,194.50032909999936,194.50032909999936,194.50032909999936,194.50032909999936,194.50032909999936,194.50032909999936,194.50032909999936,194.50032909999936,194.50032909999936,194.50032909999936,,006,P012,2025_Feb_08_1215,ConditionRich,2021.2.3,59.90976391347127,
160.75,164.0,41,0.0,Stimuli/Blank.png,0,0.0,0.0,0,73,73,73,,,,,,,,,,,,,160.7741150999991,0.02411509999910777,None,195.23435299999983,195.23435299999983,195.23435299999983,195.23435299999983,195.23435299999983,195.23435299999983,195.23435299999983,195.23435299999983,195.23435299999983,195.23435299999983,,006,P012,2025_Feb_08_1215,ConditionRich,2021.2.3,59.90976391347127,
164.0,164.75,32,0.75,Stimuli/P012/things_hood_06s.jpg,0,0.0,0.0,0,74,74,74,,,,,,,,,,,,,164.01358129999971,0.013581299999714247,None,198.48718319999898,198.48718319999898,198.48718319999898,198.48718319999898,198.48718319999898,198.48718319999898,198.48718319999898,198.48718319999898,198.48718319999898,198.48718319999898,,006,P012,2025_Feb_08_1215,ConditionRich,2021.2.3,59.90976391347127,
164.75,168.0,41,0.0,Stimuli/Blank.png,1,1.25,2.0,0,75,75,75,,,,,,,,,,,,,164.77795030000016,0.027950300000156858,2,199.23783899999944,199.23783899999944,199.23783899999944,199.23783899999944,199.23783899999944,199.23783899999944,200.47227849999945,201.22296470000038,199.23783899999944,199.23783899999944,1.6560750999997254,006,P012,2025_Feb_08_1215,ConditionRich,2021.2.3,59.90976391347127,
168.0,168.75,35,0.75,Stimuli/P012/things_raccoon_06n.jpg,0,0.0,0.0,0,76,76,76,,,,,,,,,,,,,168.01421479999954,0.014214799999535899,None,202.49075549999907,202.49075549999907,202.49075549999907,202.49075549999907,202.49075549999907,202.49075549999907,202.49075549999907,202.49075549999907,202.49075549999907,202.49075549999907,,006,P012,2025_Feb_08_1215,ConditionRich,2021.2.3,59.90976391347127,
168.75,172.0,41,0.0,Stimuli/Blank.png,1,0.25,1.0,0,77,77,77,,,,,,,,,,,,,168.7827010000001,0.03270100000008824,2,203.2413849000004,203.2413849000004,203.2413849000004,203.2413849000004,203.2413849000004,203.2413849000004,203.4749097999993,204.2255908999996,203.2413849000004,203.2413849000004,0.6135224000008748,006,P012,2025_Feb_08_1215,ConditionRich,2021.2.3,59.90976391347127,
172.0,172.75,1,0.75,Stimuli/P012/sun_aeakbqnvptdnxtno.jpg,0,0.0,0.0,0,78,78,78,,,,,,,,,,,,,172.0016453999997,0.0016453999996883795,None,206.47757289999936,206.47757289999936,206.47757289999936,206.47757289999936,206.47757289999936,206.47757289999936,206.47757289999936,206.47757289999936,206.47757289999936,206.47757289999936,,006,P012,2025_Feb_08_1215,ConditionRich,2021.2.3,59.90976391347127,
172.75,176.0,41,0.0,Stimuli/Blank.png,0,0.0,0.0,0,79,79,79,,,,,,,,,,,,,172.76834969999982,0.01834969999981695,None,207.22823459999927,207.22823459999927,207.22823459999927,207.22823459999927,207.22823459999927,207.22823459999927,207.22823459999927,207.22823459999927,207.22823459999927,207.22823459999927,,006,P012,2025_Feb_08_1215,ConditionRich,2021.2.3,59.90976391347127,
176.0,176.75,40,0.75,Stimuli/P012/things_woman_06s.jpg,0,0.0,0.0,0,80,80,80,,,,,,,,,,,,,176.00425859999996,0.004258599999957369,None,210.48112330000004,210.48112330000004,210.48112330000004,210.48112330000004,210.48112330000004,210.48112330000004,210.48112330000004,210.48112330000004,210.48112330000004,210.48112330000004,,006,P012,2025_Feb_08_1215,ConditionRich,2021.2.3,59.90976391347127,
176.75,180.0,41,0.0,Stimuli/Blank.png,0,0.0,0.0,0,81,81,81,,,,,,,,,,,,,176.77257949999876,0.022579499998755637,None,211.2317841999993,211.2317841999993,211.2317841999993,211.2317841999993,211.2317841999993,211.2317841999993,211.2317841999993,211.2317841999993,211.2317841999993,211.2317841999993,,006,P012,2025_Feb_08_1215,ConditionRich,2021.2.3,59.90976391347127,
180.0,196.0,0,0.0,Stimuli/Blank.png,1,8.0,8.75,0,82,82,82,,,,,,,,,,,,,180.00806980000016,0.008069800000157556,2,214.4679527999997,214.4679527999997,214.4679527999997,214.4679527999997,214.4679527999997,214.4679527999997,222.4584021999999,223.2090694999988,214.4679527999997,214.4679527999997,8.364150100000188,006,P012,2025_Feb_08_1215,ConditionRich,2021.2.3,59.90976391347127,
196.0,196.75,2,0.75,Stimuli/P012/sun_aewhvqonribwlxiq.jpg,0,0.0,0.0,0,83,83,83,,,,,,,,,,,,,196.00775359999898,0.007753599998977734,None,230.4821391000005,230.4821391000005,230.4821391000005,230.4821391000005,230.4821391000005,230.4821391000005,230.4821391000005,230.4821391000005,230.4821391000005,230.4821391000005,,006,P012,2025_Feb_08_1215,ConditionRich,2021.2.3,59.90976391347127,
196.75,200.0,41,0.0,Stimuli/Blank.png,0,0.0,0.0,0,84,84,84,,,,,,,,,,,,,196.77275929999996,0.022759299999961513,None,231.23278649999884,231.23278649999884,231.23278649999884,231.23278649999884,231.23278649999884,231.23278649999884,231.23278649999884,231.23278649999884,231.23278649999884,231.23278649999884,,006,P012,2025_Feb_08_1215,ConditionRich,2021.2.3,59.90976391347127,
200.0,200.75,8,0.75,Stimuli/P012/sun_asppejhsplpizvag.jpg,0,0.0,0.0,0,85,85,85,,,,,,,,,,,,,200.0088106000003,0.008810600000288105,None,234.46899139999914,234.46899139999914,234.46899139999914,234.46899139999914,234.46899139999914,234.46899139999914,234.46899139999914,234.46899139999914,234.46899139999914,234.46899139999914,,006,P012,2025_Feb_08_1215,ConditionRich,2021.2.3,59.90976391347127,
200.75,204.0,41,0.0,Stimuli/Blank.png,0,0.0,0.0,0,86,86,86,,,,,,,,,,,,,200.76183839999976,0.01183839999976044,None,235.23635839999952,235.23635839999952,235.23635839999952,235.23635839999952,235.23635839999952,235.23635839999952,235.23635839999952,235.23635839999952,235.23635839999952,235.23635839999952,,006,P012,2025_Feb_08_1215,ConditionRich,2021.2.3,59.90976391347127,
204.0,204.75,32,0.75,Stimuli/P012/things_hood_06s.jpg,0,0.0,0.0,0,87,87,87,,,,,,,,,,,,,204.02905399999872,0.029053999998723157,None,238.5059041000004,238.5059041000004,238.5059041000004,238.5059041000004,238.5059041000004,238.5059041000004,238.5059041000004,238.5059041000004,238.5059041000004,238.5059041000004,,006,P012,2025_Feb_08_1215,ConditionRich,2021.2.3,59.90976391347127,
204.75,208.0,41,0.0,Stimuli/Blank.png,0,0.0,0.0,0,88,88,88,,,,,,,,,,,,,204.77997929999947,0.029979299999467912,None,239.23988660000032,239.23988660000032,239.23988660000032,239.23988660000032,239.23988660000032,239.23988660000032,239.23988660000032,239.23988660000032,239.23988660000032,239.23988660000032,,006,P012,2025_Feb_08_1215,ConditionRich,2021.2.3,59.90976391347127,
208.0,208.75,19,0.75,Stimuli/P012/sun_byvwakrdyukjigpc.jpg,0,0.0,0.0,0,89,89,89,,,,,,,,,,,,,208.00190459999976,0.0019045999997615581,None,242.4760886999993,242.4760886999993,242.4760886999993,242.4760886999993,242.4760886999993,242.4760886999993,242.4760886999993,242.4760886999993,242.4760886999993,242.4760886999993,,006,P012,2025_Feb_08_1215,ConditionRich,2021.2.3,59.90976391347127,
208.75,212.0,41,0.0,Stimuli/Blank.png,1,1.25,2.0,0,90,90,90,,,,,,,,,,,,,208.76779499999975,0.01779499999975087,2,243.22674729999926,243.22674729999926,243.22674729999926,243.22674729999926,243.22674729999926,243.22674729999926,244.46123119999902,245.21182070000032,243.22674729999926,243.22674729999926,2.164209299999129,006,P012,2025_Feb_08_1215,ConditionRich,2021.2.3,59.90976391347127,
212.0,212.75,35,0.75,Stimuli/P012/things_raccoon_06n.jpg,0,0.0,0.0,0,91,91,91,,,,,,,,,,,,,212.00286819999928,0.0028681999992841156,None,246.46293689999948,246.46293689999948,246.46293689999948,246.46293689999948,246.46293689999948,246.46293689999948,246.46293689999948,246.46293689999948,246.46293689999948,246.46293689999948,,006,P012,2025_Feb_08_1215,ConditionRich,2021.2.3,59.90976391347127,
212.75,216.0,41,0.0,Stimuli/Blank.png,0,0.0,0.0,0,92,92,92,,,,,,,,,,,,,212.75398139999925,0.003981399999247515,None,247.2136061000001,247.2136061000001,247.2136061000001,247.2136061000001,247.2136061000001,247.2136061000001,247.2136061000001,247.2136061000001,247.2136061000001,247.2136061000001,,006,P012,2025_Feb_08_1215,ConditionRich,2021.2.3,59.90976391347127,
216.0,216.75,26,0.75,Stimuli/P012/things_gazelle_06s.jpg,0,0.0,0.0,0,93,93,93,,,,,,,,,,,,,216.0074410999987,0.0074410999986866955,None,250.48316290000002,250.48316290000002,250.48316290000002,250.48316290000002,250.48316290000002,250.48316290000002,250.48316290000002,250.48316290000002,250.48316290000002,250.48316290000002,,006,P012,2025_Feb_08_1215,ConditionRich,2021.2.3,59.90976391347127,
216.75,220.0,41,0.0,Stimuli/Blank.png,0,0.0,0.0,0,94,94,94,,,,,,,,,,,,,216.7743774999999,0.024377499999900465,None,251.23392389999935,251.23392389999935,251.23392389999935,251.23392389999935,251.23392389999935,251.23392389999935,251.23392389999935,251.23392389999935,251.23392389999935,251.23392389999935,,006,P012,2025_Feb_08_1215,ConditionRich,2021.2.3,59.90976391347127,
220.0,220.75,25,0.75,Stimuli/P012/things_face_06s.jpg,0,0.0,0.0,0,95,95,95,,,,,,,,,,,,,220.01301779999994,0.013017799999943236,None,254.48670540000057,254.48670540000057,254.48670540000057,254.48670540000057,254.48670540000057,254.48670540000057,254.48670540000057,254.48670540000057,254.48670540000057,254.48670540000057,,006,P012,2025_Feb_08_1215,ConditionRich,2021.2.3,59.90976391347127,
220.75,224.0,41,0.0,Stimuli/Blank.png,0,0.0,0.0,0,96,96,96,,,,,,,,,,,,,220.77730789999987,0.027307899999868823,None,255.23735809999926,255.23735809999926,255.23735809999926,255.23735809999926,255.23735809999926,255.23735809999926,255.23735809999926,255.23735809999926,255.23735809999926,255.23735809999926,,006,P012,2025_Feb_08_1215,ConditionRich,2021.2.3,59.90976391347127,
224.0,224.75,23,0.75,Stimuli/P012/things_clove_06s.jpg,0,0.0,0.0,0,97,97,97,,,,,,,,,,,,,224.01447929999995,0.014479299999948125,None,258.4902456,258.4902456,258.4902456,258.4902456,258.4902456,258.4902456,258.4902456,258.4902456,258.4902456,258.4902456,,006,P012,2025_Feb_08_1215,ConditionRich,2021.2.3,59.90976391347127,
224.75,228.0,41,0.0,Stimuli/Blank.png,0,0.0,0.0,0,98,98,98,,,,,,,,,,,,,224.78173459999925,0.03173459999925399,None,259.24091640000006,259.24091640000006,259.24091640000006,259.24091640000006,259.24091640000006,259.24091640000006,259.24091640000006,259.24091640000006,259.24091640000006,259.24091640000006,,006,P012,2025_Feb_08_1215,ConditionRich,2021.2.3,59.90976391347127,
228.0,228.75,37,0.75,Stimuli/P012/things_spam_06s.jpg,0,0.0,0.0,0,99,99,99,,,,,,,,,,,,,228.00328679999984,0.0032867999998416053,None,262.47772540000005,262.47772540000005,262.47772540000005,262.47772540000005,262.47772540000005,262.47772540000005,262.47772540000005,262.47772540000005,262.47772540000005,262.47772540000005,,006,P012,2025_Feb_08_1215,ConditionRich,2021.2.3,59.90976391347127,
228.75,232.0,41,0.0,Stimuli/Blank.png,0,0.0,0.0,0,100,100,100,,,,,,,,,,,,,228.76767289999952,0.017672899999524816,None,263.2277618999997,263.2277618999997,263.2277618999997,263.2277618999997,263.2277618999997,263.2277618999997,263.2277618999997,263.2277618999997,263.2277618999997,263.2277618999997,,006,P012,2025_Feb_08_1215,ConditionRich,2021.2.3,59.90976391347127,
232.0,232.75,13,0.75,Stimuli/P012/sun_bjedvzikugwleyer.jpg,0,0.0,0.0,0,101,101,101,,,,,,,,,,,,,232.00389969999924,0.0038996999992377823,None,266.4806465999991,266.4806465999991,266.4806465999991,266.4806465999991,266.4806465999991,266.4806465999991,266.4806465999991,266.4806465999991,266.4806465999991,266.4806465999991,,006,P012,2025_Feb_08_1215,ConditionRich,2021.2.3,59.90976391347127,
232.75,236.0,41,0.0,Stimuli/Blank.png,0,0.0,0.0,0,102,102,102,,,,,,,,,,,,,232.77181109999947,0.021811099999467842,None,267.2313224999998,267.2313224999998,267.2313224999998,267.2313224999998,267.2313224999998,267.2313224999998,267.2313224999998,267.2313224999998,267.2313224999998,267.2313224999998,,006,P012,2025_Feb_08_1215,ConditionRich,2021.2.3,59.90976391347127,
236.0,236.75,22,0.75,Stimuli/P012/things_boy_06s.jpg,0,0.0,0.0,0,103,103,103,,,,,,,,,,,,,236.00740249999944,0.007402499999443535,None,270.4674885000004,270.4674885000004,270.4674885000004,270.4674885000004,270.4674885000004,270.4674885000004,270.4674885000004,270.4674885000004,270.4674885000004,270.4674885000004,,006,P012,2025_Feb_08_1215,ConditionRich,2021.2.3,59.90976391347127,
236.75,240.0,41,0.0,Stimuli/Blank.png,0,0.0,0.0,0,104,104,104,,,,,,,,,,,,,236.75880639999923,0.008806399999230052,None,271.2181566999989,271.2181566999989,271.2181566999989,271.2181566999989,271.2181566999989,271.2181566999989,271.2181566999989,271.2181566999989,271.2181566999989,271.2181566999989,,006,P012,2025_Feb_08_1215,ConditionRich,2021.2.3,59.90976391347127,
240.0,240.75,40,0.75,Stimuli/P012/things_woman_06s.jpg,0,0.0,0.0,0,105,105,105,,,,,,,,,,,,,240.01190169999973,0.011901699999725679,None,274.48772370000006,274.48772370000006,274.48772370000006,274.48772370000006,274.48772370000006,274.48772370000006,274.48772370000006,274.48772370000006,274.48772370000006,274.48772370000006,,006,P012,2025_Feb_08_1215,ConditionRich,2021.2.3,59.90976391347127,
240.75,244.0,41,0.0,Stimuli/Blank.png,1,0.25,1.0,0,106,106,106,,,,,,,,,,,,,240.77918209999916,0.029182099999161437,2,275.2383798999999,275.2383798999999,275.2383798999999,275.2383798999999,275.2383798999999,275.2383798999999,275.47192929999983,276.22257759999957,275.2383798999999,275.2383798999999,0.6845296999999846,006,P012,2025_Feb_08_1215,ConditionRich,2021.2.3,59.90976391347127,
244.0,244.75,30,0.75,Stimuli/P012/things_hamburger_06s.jpg,0,0.0,0.0,0,107,107,107,,,,,,,,,,,,,244.0031283999997,0.00312839999969583,None,278.47459870000057,278.47459870000057,278.47459870000057,278.47459870000057,278.47459870000057,278.47459870000057,278.47459870000057,278.47459870000057,278.47459870000057,278.47459870000057,,006,P012,2025_Feb_08_1215,ConditionRich,2021.2.3,59.90976391347127,
244.75,248.0,41,0.0,Stimuli/Blank.png,1,2.25,3.0,0,108,108,108,,,,,,,,,,,,,244.76521649999995,0.015216499999951338,2,279.22524560000056,279.22524560000056,279.22524560000056,279.22524560000056,279.22524560000056,279.22524560000056,281.46059029999924,282.211212799999,279.22524560000056,279.22524560000056,2.6687012999991566,006,P012,2025_Feb_08_1215,ConditionRich,2021.2.3,59.90976391347127,
248.0,248.75,31,0.75,Stimuli/P012/things_hippopotamus_06s.jpg,0,0.0,0.0,0,109,109,109,,,,,,,,,,,,,248.00273679999918,0.0027367999991838587,None,282.4781179999991,282.4781179999991,282.4781179999991,282.4781179999991,282.4781179999991,282.4781179999991,282.4781179999991,282.4781179999991,282.4781179999991,282.4781179999991,,006,P012,2025_Feb_08_1215,ConditionRich,2021.2.3,59.90976391347127,
248.75,252.0,41,0.0,Stimuli/Blank.png,0,0.0,0.0,0,110,110,110,,,,,,,,,,,,,248.7696008999992,0.019600899999204557,None,283.22887850000006,283.22887850000006,283.22887850000006,283.22887850000006,283.22887850000006,283.22887850000006,283.22887850000006,283.22887850000006,283.22887850000006,283.22887850000006,,006,P012,2025_Feb_08_1215,ConditionRich,2021.2.3,59.90976391347127,
252.0,252.75,27,0.75,Stimuli/P012/things_girl_06s.jpg,0,0.0,0.0,0,111,111,111,,,,,,,,,,,,,252.00716040000043,0.007160400000429945,None,286.481667,286.481667,286.481667,286.481667,286.481667,286.481667,286.481667,286.481667,286.481667,286.481667,,006,P012,2025_Feb_08_1215,ConditionRich,2021.2.3,59.90976391347127,
252.75,256.0,41,0.0,Stimuli/Blank.png,0,0.0,0.0,0,112,112,112,,,,,,,,,,,,,252.77290039999934,0.02290039999934379,None,287.2330026999989,287.2330026999989,287.2330026999989,287.2330026999989,287.2330026999989,287.2330026999989,287.2330026999989,287.2330026999989,287.2330026999989,287.2330026999989,,006,P012,2025_Feb_08_1215,ConditionRich,2021.2.3,59.90976391347127,
256.0,256.75,15,0.75,Stimuli/P012/sun_bmngnyuahubpqroh.jpg,0,0.0,0.0,0,113,113,113,,,,,,,,,,,,,256.0085927,0.008592700000008335,None,290.48521679999976,290.48521679999976,290.48521679999976,290.48521679999976,290.48521679999976,290.48521679999976,290.48521679999976,290.48521679999976,290.48521679999976,290.48521679999976,,006,P012,2025_Feb_08_1215,ConditionRich,2021.2.3,59.90976391347127,
256.75,260.0,41,0.0,Stimuli/Blank.png,0,0.0,0.0,0,114,114,114,,,,,,,,,,,,,256.7764293,0.026429300000017975,None,291.2358691999998,291.2358691999998,291.2358691999998,291.2358691999998,291.2358691999998,291.2358691999998,291.2358691999998,291.2358691999998,291.2358691999998,291.2358691999998,,006,P012,2025_Feb_08_1215,ConditionRich,2021.2.3,59.90976391347127,
260.0,260.75,38,0.75,Stimuli/P012/things_squeegee_06s.jpg,0,0.0,0.0,0,115,115,115,,,,,,,,,,,,,260.0125473999997,0.01254739999967569,None,294.4887385000002,294.4887385000002,294.4887385000002,294.4887385000002,294.4887385000002,294.4887385000002,294.4887385000002,294.4887385000002,294.4887385000002,294.4887385000002,,006,P012,2025_Feb_08_1215,ConditionRich,2021.2.3,59.90976391347127,
260.75,264.0,41,0.0,Stimuli/Blank.png,0,0.0,0.0,0,116,116,116,,,,,,,,,,,,,260.7819839999993,0.031983999999283697,None,295.25609429999895,295.25609429999895,295.25609429999895,295.25609429999895,295.25609429999895,295.25609429999895,295.25609429999895,295.25609429999895,295.25609429999895,295.25609429999895,,006,P012,2025_Feb_08_1215,ConditionRich,2021.2.3,59.90976391347127,
264.0,264.75,16,0.75,Stimuli/P012/sun_bpuwvyadswjfoaby.jpg,1,0.0,0.75,0,117,117,117,,,,,,,,,,,,,264.01642899999933,0.016428999999334337,2,298.4923039000005,298.4923039000005,298.4923039000005,298.4923039000005,298.4923039000005,298.4923039000005,298.4923039000005,None,298.4923039000005,298.4923039000005,0.43560729999990144,006,P012,2025_Feb_08_1215,ConditionRich,2021.2.3,59.90976391347127,
264.75,268.0,41,0.0,Stimuli/Blank.png,0,0.0,0.0,0,118,118,118,,,,,,,,,,,,,264.7669487999992,0.01694879999922705,None,299.2262697999995,299.2262697999995,299.2262697999995,299.2262697999995,299.2262697999995,299.2262697999995,299.2262697999995,299.2262697999995,299.2262697999995,299.2262697999995,,006,P012,2025_Feb_08_1215,ConditionRich,2021.2.3,59.90976391347127,
268.0,268.75,34,0.75,Stimuli/P012/things_polar_bear_06s.jpg,0,0.0,0.0,0,119,119,119,,,,,,,,,,,,,268.0031646999996,0.00316469999961555,None,302.46245909999925,302.46245909999925,302.46245909999925,302.46245909999925,302.46245909999925,302.46245909999925,302.46245909999925,302.46245909999925,302.46245909999925,302.46245909999925,,006,P012,2025_Feb_08_1215,ConditionRich,2021.2.3,59.90976391347127,
268.75,272.0,41,0.0,Stimuli/Blank.png,0,0.0,0.0,0,120,120,120,,,,,,,,,,,,,268.75332460000027,0.003324600000269129,None,303.2131398999991,303.2131398999991,303.2131398999991,303.2131398999991,303.2131398999991,303.2131398999991,303.2131398999991,303.2131398999991,303.2131398999991,303.2131398999991,,006,P012,2025_Feb_08_1215,ConditionRich,2021.2.3,59.90976391347127,
272.0,272.75,3,0.75,Stimuli/P012/sun_afdaynbvsppiyvxm.jpg,0,0.0,0.0,0,121,121,121,,,,,,,,,,,,,272.0066298999991,0.006629899999097688,None,306.48327549999885,306.48327549999885,306.48327549999885,306.48327549999885,306.48327549999885,306.48327549999885,306.48327549999885,306.48327549999885,306.48327549999885,306.48327549999885,,006,P012,2025_Feb_08_1215,ConditionRich,2021.2.3,59.90976391347127,
272.75,276.0,41,0.0,Stimuli/Blank.png,0,0.0,0.0,0,122,122,122,,,,,,,,,,,,,272.77329589999863,0.023295899998629466,None,307.2333426999994,307.2333426999994,307.2333426999994,307.2333426999994,307.2333426999994,307.2333426999994,307.2333426999994,307.2333426999994,307.2333426999994,307.2333426999994,,006,P012,2025_Feb_08_1215,ConditionRich,2021.2.3,59.90976391347127,
276.0,292.0,0,0.0,Stimuli/Blank.png,1,5.0,5.75,0,123,123,123,,,,,,,,,,,,,276.00963539999975,0.009635399999751826,2,310.4695391999994,310.4695391999994,310.4695391999994,310.4695391999994,310.4695391999994,310.4695391999994,315.4572907999991,316.20794939999905,310.4695391999994,310.4695391999994,5.418356800000765,006,P012,2025_Feb_08_1215,ConditionRich,2021.2.3,59.90976391347127,
292.0,292.75,21,0.75,Stimuli/P012/things_baby_06s.jpg,0,0.0,0.0,0,124,124,124,,,,,,,,,,,,,292.008264099999,0.008264099998996244,None,326.483694999999,326.483694999999,326.483694999999,326.483694999999,326.483694999999,326.483694999999,326.483694999999,326.483694999999,326.483694999999,326.483694999999,,006,P012,2025_Feb_08_1215,ConditionRich,2021.2.3,59.90976391347127,
292.75,296.0,41,0.0,Stimuli/Blank.png,0,0.0,0.0,0,125,125,125,,,,,,,,,,,,,292.7772335999998,0.02723359999981767,None,327.2510547999991,327.2510547999991,327.2510547999991,327.2510547999991,327.2510547999991,327.2510547999991,327.2510547999991,327.2510547999991,327.2510547999991,327.2510547999991,,006,P012,2025_Feb_08_1215,ConditionRich,2021.2.3,59.90976391347127,
296.0,296.75,28,0.75,Stimuli/P012/things_grasshopper_06s.jpg,0,0.0,0.0,0,126,126,126,,,,,,,,,,,,,296.0278242000004,0.02782420000039565,None,330.50394869999946,330.50394869999946,330.50394869999946,330.50394869999946,330.50394869999946,330.50394869999946,330.50394869999946,330.50394869999946,330.50394869999946,330.50394869999946,,006,P012,2025_Feb_08_1215,ConditionRich,2021.2.3,59.90976391347127,
296.75,300.0,41,0.0,Stimuli/Blank.png,0,0.0,0.0,0,127,127,127,,,,,,,,,,,,,296.77876110000034,0.028761100000338047,None,331.23790670000017,331.23790670000017,331.23790670000017,331.23790670000017,331.23790670000017,331.23790670000017,331.23790670000017,331.23790670000017,331.23790670000017,331.23790670000017,,006,P012,2025_Feb_08_1215,ConditionRich,2021.2.3,59.90976391347127,
300.0,300.75,14,0.75,Stimuli/P012/sun_blybvkoucskrdgiv.jpg,0,0.0,0.0,0,128,128,128,,,,,,,,,,,,,300.0146421999998,0.014642199999798322,None,334.4907848999992,334.4907848999992,334.4907848999992,334.4907848999992,334.4907848999992,334.4907848999992,334.4907848999992,334.4907848999992,334.4907848999992,334.4907848999992,,006,P012,2025_Feb_08_1215,ConditionRich,2021.2.3,59.90976391347127,
300.75,304.0,41,0.0,Stimuli/Blank.png,0,0.0,0.0,0,129,129,129,,,,,,,,,,,,,300.7819648000004,0.031964800000423566,None,335.24145959999987,335.24145959999987,335.24145959999987,335.24145959999987,335.24145959999987,335.24145959999987,335.24145959999987,335.24145959999987,335.24145959999987,335.24145959999987,,006,P012,2025_Feb_08_1215,ConditionRich,2021.2.3,59.90976391347127,
304.0,304.75,36,0.75,Stimuli/P012/things_shower_cap_06s.jpg,0,0.0,0.0,0,130,130,130,,,,,,,,,,,,,304.00151279999955,0.0015127999995456776,None,338.4777032999991,338.4777032999991,338.4777032999991,338.4777032999991,338.4777032999991,338.4777032999991,338.4777032999991,338.4777032999991,338.4777032999991,338.4777032999991,,006,P012,2025_Feb_08_1215,ConditionRich,2021.2.3,59.90976391347127,
304.75,308.0,41,0.0,Stimuli/Blank.png,0,0.0,0.0,0,131,131,131,,,,,,,,,,,,,304.76828000000023,0.018280000000231666,None,339.2283131000004,339.2283131000004,339.2283131000004,339.2283131000004,339.2283131000004,339.2283131000004,339.2283131000004,339.2283131000004,339.2283131000004,339.2283131000004,,006,P012,2025_Feb_08_1215,ConditionRich,2021.2.3,59.90976391347127,
308.0,308.75,5,0.75,Stimuli/P012/sun_anfwllcezhlypoti.jpg,0,0.0,0.0,0,132,132,132,,,,,,,,,,,,,308.0072350999999,0.0072350999998889165,None,342.4811902000001,342.4811902000001,342.4811902000001,342.4811902000001,342.4811902000001,342.4811902000001,342.4811902000001,342.4811902000001,342.4811902000001,342.4811902000001,,006,P012,2025_Feb_08_1215,ConditionRich,2021.2.3,59.90976391347127,
308.75,312.0,41,0.0,Stimuli/Blank.png,1,0.25,1.0,0,133,133,133,,,,,,,,,,,,,308.7726136000001,0.022613600000113365,2,343.2318185000004,343.2318185000004,343.2318185000004,343.2318185000004,343.2318185000004,343.2318185000004,343.4653875999993,344.2160318999995,343.2318185000004,343.2318185000004,0.7571138000002975,006,P012,2025_Feb_08_1215,ConditionRich,2021.2.3,59.90976391347127,
312.0,312.75,11,0.75,Stimuli/P012/sun_baylllqlgfvxilor.jpg,0,0.0,0.0,0,134,134,134,,,,,,,,,,,,,312.00883239999894,0.008832399998937035,None,346.48474200000055,346.48474200000055,346.48474200000055,346.48474200000055,346.48474200000055,346.48474200000055,346.48474200000055,346.48474200000055,346.48474200000055,346.48474200000055,,006,P012,2025_Feb_08_1215,ConditionRich,2021.2.3,59.90976391347127,
312.75,316.0,41,0.0,Stimuli/Blank.png,0,0.0,0.0,0,135,135,135,,,,,,,,,,,,,312.77593589999924,0.025935899999240064,None,347.23648649999996,347.23648649999996,347.23648649999996,347.23648649999996,347.23648649999996,347.23648649999996,347.23648649999996,347.23648649999996,347.23648649999996,347.23648649999996,,006,P012,2025_Feb_08_1215,ConditionRich,2021.2.3,59.90976391347127,
316.0,316.75,17,0.75,Stimuli/P012/sun_btvwhlxbhcqnqzok.jpg,0,0.0,0.0,0,136,136,136,,,,,,,,,,,,,316.01273839999885,0.012738399998852401,None,350.4882994999989,350.4882994999989,350.4882994999989,350.4882994999989,350.4882994999989,350.4882994999989,350.4882994999989,350.4882994999989,350.4882994999989,350.4882994999989,,006,P012,2025_Feb_08_1215,ConditionRich,2021.2.3,59.90976391347127,
316.75,320.0,41,0.0,Stimuli/Blank.png,0,0.0,0.0,0,137,137,137,,,,,,,,,,,,,316.7794763999991,0.02947639999911189,None,351.23893320000025,351.23893320000025,351.23893320000025,351.23893320000025,351.23893320000025,351.23893320000025,351.23893320000025,351.23893320000025,351.23893320000025,351.23893320000025,,006,P012,2025_Feb_08_1215,ConditionRich,2021.2.3,59.90976391347127,
320.0,320.75,1,0.75,Stimuli/P012/sun_aeakbqnvptdnxtno.jpg,0,0.0,0.0,0,138,138,138,,,,,,,,,,,,,320.017305899999,0.017305899998973473,None,354.49180239999987,354.49180239999987,354.49180239999987,354.49180239999987,354.49180239999987,354.49180239999987,354.49180239999987,354.49180239999987,354.49180239999987,354.49180239999987,,006,P012,2025_Feb_08_1215,ConditionRich,2021.2.3,59.90976391347127,
320.75,324.0,41,0.0,Stimuli/Blank.png,0,0.0,0.0,0,139,139,139,,,,,,,,,,,,,320.7662952999999,0.01629529999991064,None,355.2257977999998,355.2257977999998,355.2257977999998,355.2257977999998,355.2257977999998,355.2257977999998,355.2257977999998,355.2257977999998,355.2257977999998,355.2257977999998,,006,P012,2025_Feb_08_1215,ConditionRich,2021.2.3,59.90976391347127,
324.0,324.75,29,0.75,Stimuli/P012/things_gutter_06s.jpg,0,0.0,0.0,0,140,140,140,,,,,,,,,,,,,324.0028728999987,0.0028728999986924464,None,358.47863979999966,358.47863979999966,358.47863979999966,358.47863979999966,358.47863979999966,358.47863979999966,358.47863979999966,358.47863979999966,358.47863979999966,358.47863979999966,,006,P012,2025_Feb_08_1215,ConditionRich,2021.2.3,59.90976391347127,
324.75,328.0,41,0.0,Stimuli/Blank.png,0,0.0,0.0,0,141,141,141,,,,,,,,,,,,,324.76916859999983,0.019168599999829894,None,359.2293367000002,359.2293367000002,359.2293367000002,359.2293367000002,359.2293367000002,359.2293367000002,359.2293367000002,359.2293367000002,359.2293367000002,359.2293367000002,,006,P012,2025_Feb_08_1215,ConditionRich,2021.2.3,59.90976391347127,
328.0,328.75,20,0.75,Stimuli/P012/sun_ciifteeudwpxupnw.jpg,0,0.0,0.0,0,142,142,142,,,,,,,,,,,,,328.0081900999994,0.00819009999941045,None,362.4822108999997,362.4822108999997,362.4822108999997,362.4822108999997,362.4822108999997,362.4822108999997,362.4822108999997,362.4822108999997,362.4822108999997,362.4822108999997,,006,P012,2025_Feb_08_1215,ConditionRich,2021.2.3,59.90976391347127,
328.75,332.0,41,0.0,Stimuli/Blank.png,0,0.0,0.0,0,143,143,143,,,,,,,,,,,,,328.77286119999917,0.022861199999169912,None,363.2328734999992,363.2328734999992,363.2328734999992,363.2328734999992,363.2328734999992,363.2328734999992,363.2328734999992,363.2328734999992,363.2328734999992,363.2328734999992,,006,P012,2025_Feb_08_1215,ConditionRich,2021.2.3,59.90976391347127,
332.0,332.75,33,0.75,Stimuli/P012/things_hot-air_balloon_06s.jpg,0,0.0,0.0,0,144,144,144,,,,,,,,,,,,,332.0088942000002,0.00889420000021346,None,366.46905870000046,366.46905870000046,366.46905870000046,366.46905870000046,366.46905870000046,366.46905870000046,366.46905870000046,366.46905870000046,366.46905870000046,366.46905870000046,,006,P012,2025_Feb_08_1215,ConditionRich,2021.2.3,59.90976391347127,
332.75,336.0,41,0.0,Stimuli/Blank.png,0,0.0,0.0,0,145,145,145,,,,,,,,,,,,,332.76230120000037,0.012301200000365498,None,367.2364206000002,367.2364206000002,367.2364206000002,367.2364206000002,367.2364206000002,367.2364206000002,367.2364206000002,367.2364206000002,367.2364206000002,367.2364206000002,,006,P012,2025_Feb_08_1215,ConditionRich,2021.2.3,59.90976391347127,
336.0,336.75,12,0.75,Stimuli/P012/sun_bcesifdfuidnkdhl.jpg,0,0.0,0.0,0,146,146,146,,,,,,,,,,,,,336.0291196999988,0.029119699998773285,None,370.50598790000004,370.50598790000004,370.50598790000004,370.50598790000004,370.50598790000004,370.50598790000004,370.50598790000004,370.50598790000004,370.50598790000004,370.50598790000004,,006,P012,2025_Feb_08_1215,ConditionRich,2021.2.3,59.90976391347127,
336.75,340.0,41,0.0,Stimuli/Blank.png,0,0.0,0.0,0,147,147,147,,,,,,,,,,,,,336.78234189999966,0.03234189999966475,None,371.2566485999996,371.2566485999996,371.2566485999996,371.2566485999996,371.2566485999996,371.2566485999996,371.2566485999996,371.2566485999996,371.2566485999996,371.2566485999996,,006,P012,2025_Feb_08_1215,ConditionRich,2021.2.3,59.90976391347127,
340.0,340.75,18,0.75,Stimuli/P012/sun_bxlbxustiovyqyrg.jpg,0,0.0,0.0,0,148,148,148,,,,,,,,,,,,,340.0170452000002,0.01704520000021148,None,374.47615829999995,374.47615829999995,374.47615829999995,374.47615829999995,374.47615829999995,374.47615829999995,374.47615829999995,374.47615829999995,374.47615829999995,374.47615829999995,,006,P012,2025_Feb_08_1215,ConditionRich,2021.2.3,59.90976391347127,
340.75,344.0,41,0.0,Stimuli/Blank.png,1,0.25,1.0,0,149,149,149,,,,,,,,,,,,,340.7504611000004,0.0004611000003933441,2,375.21013259999927,375.21013259999927,375.21013259999927,375.21013259999927,375.21013259999927,375.21013259999927,375.4436881999991,376.1943792000002,375.21013259999927,375.21013259999927,0.5730872999993153,006,P012,2025_Feb_08_1215,ConditionRich,2021.2.3,59.90976391347127,
344.0,344.75,6,0.75,Stimuli/P012/sun_aqysdudvyxnkcxgq.jpg,0,0.0,0.0,0,150,150,150,,,,,,,,,,,,,344.00311709999914,0.003117099999144557,None,378.4630087000005,378.4630087000005,378.4630087000005,378.4630087000005,378.4630087000005,378.4630087000005,378.4630087000005,378.4630087000005,378.4630087000005,378.4630087000005,,006,P012,2025_Feb_08_1215,ConditionRich,2021.2.3,59.90976391347127,
344.75,348.0,41,0.0,Stimuli/Blank.png,1,2.25,3.0,0,151,151,151,,,,,,,,,,,,,344.754381499999,0.004381499998999061,2,379.2137478000004,379.2137478000004,379.2137478000004,379.2137478000004,379.2137478000004,379.2137478000004,381.44902939999884,382.19966120000026,379.2137478000004,379.2137478000004,2.6693130000003293,006,P012,2025_Feb_08_1215,ConditionRich,2021.2.3,59.90976391347127,
348.0,348.75,24,0.75,Stimuli/P012/things_doily_06s.jpg,0,0.0,0.0,0,152,152,152,,,,,,,,,,,,,348.00769649999893,0.00769649999892863,None,382.48324539999885,382.48324539999885,382.48324539999885,382.48324539999885,382.48324539999885,382.48324539999885,382.48324539999885,382.48324539999885,382.48324539999885,382.48324539999885,,006,P012,2025_Feb_08_1215,ConditionRich,2021.2.3,59.90976391347127,
348.75,352.0,41,0.0,Stimuli/Blank.png,0,0.0,0.0,0,153,153,153,,,,,,,,,,,,,348.7743541,0.02435409999998228,None,383.2339654999996,383.2339654999996,383.2339654999996,383.2339654999996,383.2339654999996,383.2339654999996,383.2339654999996,383.2339654999996,383.2339654999996,383.2339654999996,,006,P012,2025_Feb_08_1215,ConditionRich,2021.2.3,59.90976391347127,
352.0,352.75,4,0.75,Stimuli/P012/sun_akpdzjejmtbfopdt.jpg,0,0.0,0.0,0,154,154,154,,,,,,,,,,,,,352.01207859999886,0.012078599998858408,None,386.48677119999957,386.48677119999957,386.48677119999957,386.48677119999957,386.48677119999957,386.48677119999957,386.48677119999957,386.48677119999957,386.48677119999957,386.48677119999957,,006,P012,2025_Feb_08_1215,ConditionRich,2021.2.3,59.90976391347127,
352.75,356.0,41,0.0,Stimuli/Blank.png,1,0.25,1.0,0,155,155,155,,,,,,,,,,,,,352.77827849999994,0.02827849999994214,2,387.254133299999,387.254133299999,387.254133299999,387.254133299999,387.254133299999,387.254133299999,387.4709789999997,388.2216346999994,387.254133299999,387.254133299999,0.6210840000003373,006,P012,2025_Feb_08_1215,ConditionRich,2021.2.3,59.90976391347127,
356.0,356.75,10,0.75,Stimuli/P012/sun_awufkrkrdrdbvvis.jpg,0,0.0,0.0,0,156,156,156,,,,,,,,,,,,,356.0307952000003,0.03079520000028424,None,390.4903169999998,390.4903169999998,390.4903169999998,390.4903169999998,390.4903169999998,390.4903169999998,390.4903169999998,390.4903169999998,390.4903169999998,390.4903169999998,,006,P012,2025_Feb_08_1215,ConditionRich,2021.2.3,59.90976391347127,
356.75,360.0,41,0.0,Stimuli/Blank.png,0,0.0,0.0,0,157,157,157,,,,,,,,,,,,,356.7642212999999,0.014221299999917392,None,391.2242881000002,391.2242881000002,391.2242881000002,391.2242881000002,391.2242881000002,391.2242881000002,391.2242881000002,391.2242881000002,391.2242881000002,391.2242881000002,,006,P012,2025_Feb_08_1215,ConditionRich,2021.2.3,59.90976391347127,
360.0,360.75,39,0.75,Stimuli/P012/things_thermometer_06s.jpg,1,0.0,0.75,0,158,158,158,,,,,,,,,,,,,360.00318329999936,0.0031832999993639532,2,394.4771707,394.4771707,394.4771707,394.4771707,394.4771707,394.4771707,394.4771707,395.21115199999986,394.4771707,394.4771707,0.42479810000077123,006,P012,2025_Feb_08_1215,ConditionRich,2021.2.3,59.90976391347127,
360.75,364.0,41,0.0,Stimuli/Blank.png,0,0.0,0.0,0,159,159,159,,,,,,,,,,,,,360.767850799999,0.01785079999899608,None,395.22915230000035,395.22915230000035,395.22915230000035,395.22915230000035,395.22915230000035,395.22915230000035,395.22915230000035,395.22915230000035,395.22915230000035,395.22915230000035,,006,P012,2025_Feb_08_1215,ConditionRich,2021.2.3,59.90976391347127,
364.0,364.75,9,0.75,Stimuli/P012/sun_aupohozmrmtfgcsw.jpg,0,0.0,0.0,0,160,160,160,,,,,,,,,,,,,364.00402659999963,0.004026599999633618,None,398.4807194999994,398.4807194999994,398.4807194999994,398.4807194999994,398.4807194999994,398.4807194999994,398.4807194999994,398.4807194999994,398.4807194999994,398.4807194999994,,006,P012,2025_Feb_08_1215,ConditionRich,2021.2.3,59.90976391347127,
364.75,368.0,41,0.0,Stimuli/Blank.png,0,0.0,0.0,0,161,161,161,,,,,,,,,,,,,364.77215049999904,0.02215049999904295,None,399.23137940000015,399.23137940000015,399.23137940000015,399.23137940000015,399.23137940000015,399.23137940000015,399.23137940000015,399.23137940000015,399.23137940000015,399.23137940000015,,006,P012,2025_Feb_08_1215,ConditionRich,2021.2.3,59.90976391347127,
368.0,368.75,7,0.75,Stimuli/P012/sun_arugqgwhwdjxezyt.jpg,0,0.0,0.0,0,162,162,162,,,,,,,,,,,,,368.0085634999996,0.008563499999581836,None,402.48424390000037,402.48424390000037,402.48424390000037,402.48424390000037,402.48424390000037,402.48424390000037,402.48424390000037,402.48424390000037,402.48424390000037,402.48424390000037,,006,P012,2025_Feb_08_1215,ConditionRich,2021.2.3,59.90976391347127,
368.75,372.0,41,0.0,Stimuli/Blank.png,0,0.0,0.0,0,163,163,163,,,,,,,,,,,,,368.7774974999993,0.02749749999929918,None,403.2516037000005,403.2516037000005,403.2516037000005,403.2516037000005,403.2516037000005,403.2516037000005,403.2516037000005,403.2516037000005,403.2516037000005,403.2516037000005,,006,P012,2025_Feb_08_1215,ConditionRich,2021.2.3,59.90976391347127,
372.0,388.0,0,0.0,Stimuli/Blank.png,1,7.0,7.75,0,164,164,164,,,,,,,,,,,,,372.02771759999996,0.02771759999995993,2,406.48778759999914,406.48778759999914,406.48778759999914,406.48778759999914,406.48778759999914,406.48778759999914,413.4772959999991,414.2280281000003,406.48778759999914,406.48778759999914,7.3602771000005305,006,P012,2025_Feb_08_1215,ConditionRich,2021.2.3,59.90976391347127,
