eventStartTime,eventEndTime,eventCond,imSize,imFile,responseEvent,fixRespStart,fixRespEnd,Events.thisRepN,Events.thisTrialN,Events.thisN,Events.thisIndex,Instructions.started,Instructions.stopped,participantReadyResponse.keys,participantReadyResponse.rt,participantReadyResponse.started,participantReadyResponse.stopped,startWaitforTrigger,triggerResponse.keys,triggerResponse.rt,triggerResponse.started,triggerResponse.stopped,globalTimer,actualStartTime,startTimingDiff,participantResponse.keys,participantResponse.started,participantResponse.stopped,image.started,image.stopped,fixationOutside.started,fixationOutside.stopped,fixationResponse.started,fixationResponse.stopped,fixationInside.started,fixationInside.stopped,participantResponse.rt,session,participant,date,expName,psychopyVersion,frameRate,
,,,,,,,,,,,,12.670017499998721,None,2,15.885488299998542,12.670017499998721,None,,,,,,,,,,,,,,,,,,,,,004,P012,2025_Feb_08_1200,ConditionRich,2021.2.3,59.94592877182549,
,,,,,,,,,,,,,,,,,,28.57355920000009,5,13.830570100000841,28.586937399999442,None,,,,,,,,,,,,,,,,004,P012,2025_Feb_08_1200,ConditionRich,2021.2.3,59.94592877182549,
0.0,4.0,0,0.0,Stimuli/Blank.png,0,0,0.0,0,0,0,0,,,,,,,,,,,,42.42024909999964,0.037974800001393305,0.037974800001393305,None,42.4824950000002,None,42.4824950000002,None,42.4824950000002,None,42.4824950000002,42.4824950000002,42.4824950000002,None,,004,P012,2025_Feb_08_1200,ConditionRich,2021.2.3,59.94592877182549,
4.0,7.75,33,0.75,Stimuli/P012/things_hot-air_balloon_06s.jpg,0,0,0.0,0,1,1,1,,,,,,,,,,,,,4.019600300000093,0.01960030000009283,None,46.46968369999922,46.46968369999922,46.46968369999922,46.46968369999922,46.46968369999922,46.46968369999922,46.46968369999922,46.46968369999922,46.46968369999922,46.46968369999922,,004,P012,2025_Feb_08_1200,ConditionRich,2021.2.3,59.94592877182549,
7.75,8.0,41,0.0,Stimuli/Blank.png,0,0,0.0,0,2,2,2,,,,,,,,,,,,,7.774060200001259,0.024060200001258636,None,50.22303350000038,50.22303350000038,50.22303350000038,50.22303350000038,50.22303350000038,50.22303350000038,50.22303350000038,50.22303350000038,50.22303350000038,50.22303350000038,,004,P012,2025_Feb_08_1200,ConditionRich,2021.2.3,59.94592877182549,
8.0,11.75,22,0.75,Stimuli/P012/things_boy_06s.jpg,1,3,3.75,0,3,3,3,,,,,,,,,,,,,8.02408110000033,0.02408110000033048,2,50.47293229999923,50.47293229999923,50.47293229999923,50.47293229999923,50.47293229999923,50.47293229999923,53.45893249999972,None,50.47293229999923,50.47293229999923,3.5248119000007136,004,P012,2025_Feb_08_1200,ConditionRich,2021.2.3,59.94592877182549,
11.75,12.0,41,0.0,Stimuli/Blank.png,0,0,0.0,0,4,4,4,,,,,,,,,,,,,11.774845200001437,0.02484520000143675,None,54.209531999998944,54.209531999998944,54.209531999998944,54.209531999998944,54.209531999998944,54.209531999998944,54.209531999998944,54.209531999998944,54.209531999998944,54.209531999998944,,004,P012,2025_Feb_08_1200,ConditionRich,2021.2.3,59.94592877182549,
12.0,15.75,2,0.75,Stimuli/P012/sun_aewhvqonribwlxiq.jpg,0,0,0.0,0,5,5,5,,,,,,,,,,,,,12.009074800000235,0.009074800000234973,None,54.443059399998674,54.443059399998674,54.443059399998674,54.443059399998674,54.443059399998674,54.443059399998674,54.443059399998674,54.443059399998674,54.443059399998674,54.443059399998674,,004,P012,2025_Feb_08_1200,ConditionRich,2021.2.3,59.94592877182549,
15.75,16.0,41,0.0,Stimuli/Blank.png,0,0,0.0,0,6,6,6,,,,,,,,,,,,,15.762349600001471,0.012349600001471117,None,58.19642819999899,58.19642819999899,58.19642819999899,58.19642819999899,58.19642819999899,58.19642819999899,58.19642819999899,58.19642819999899,58.19642819999899,58.19642819999899,,004,P012,2025_Feb_08_1200,ConditionRich,2021.2.3,59.94592877182549,
16.0,19.75,39,0.75,Stimuli/P012/things_thermometer_06s.jpg,0,0,0.0,0,7,7,7,,,,,,,,,,,,,16.011787000001277,0.011787000001277192,None,58.4466412999991,58.4466412999991,58.4466412999991,58.4466412999991,58.4466412999991,58.4466412999991,58.4466412999991,58.4466412999991,58.4466412999991,58.4466412999991,,004,P012,2025_Feb_08_1200,ConditionRich,2021.2.3,59.94592877182549,
19.75,20.0,41,0.0,Stimuli/Blank.png,0,0,0.0,0,8,8,8,,,,,,,,,,,,,19.765935500001433,0.015935500001432956,None,62.19996910000009,62.19996910000009,62.19996910000009,62.19996910000009,62.19996910000009,62.19996910000009,62.19996910000009,62.19996910000009,62.19996910000009,62.19996910000009,,004,P012,2025_Feb_08_1200,ConditionRich,2021.2.3,59.94592877182549,
20.0,23.75,3,0.75,Stimuli/P012/sun_afdaynbvsppiyvxm.jpg,0,0,0.0,0,9,9,9,,,,,,,,,,,,,19.99964750000072,-0.0003524999992805533,None,62.43353229999957,62.43353229999957,62.43353229999957,62.43353229999957,62.43353229999957,62.43353229999957,62.43353229999957,62.43353229999957,62.43353229999957,62.43353229999957,,004,P012,2025_Feb_08_1200,ConditionRich,2021.2.3,59.94592877182549,
23.75,24.0,41,0.0,Stimuli/Blank.png,0,0,0.0,0,10,10,10,,,,,,,,,,,,,23.752941599999758,0.002941599999758182,None,66.18683099999907,66.18683099999907,66.18683099999907,66.18683099999907,66.18683099999907,66.18683099999907,66.18683099999907,66.18683099999907,66.18683099999907,66.18683099999907,,004,P012,2025_Feb_08_1200,ConditionRich,2021.2.3,59.94592877182549,
24.0,27.75,20,0.75,Stimuli/P012/sun_ciifteeudwpxupnw.jpg,0,0,0.0,0,11,11,11,,,,,,,,,,,,,24.003334099999847,0.00333409999984724,None,66.43701019999935,66.43701019999935,66.43701019999935,66.43701019999935,66.43701019999935,66.43701019999935,66.43701019999935,66.43701019999935,66.43701019999935,66.43701019999935,,004,P012,2025_Feb_08_1200,ConditionRich,2021.2.3,59.94592877182549,
27.75,28.0,41,0.0,Stimuli/Blank.png,0,0,0.0,0,12,12,12,,,,,,,,,,,,,27.755444200000056,0.0054442000000562984,None,70.19035889999941,70.19035889999941,70.19035889999941,70.19035889999941,70.19035889999941,70.19035889999941,70.19035889999941,70.19035889999941,70.19035889999941,70.19035889999941,,004,P012,2025_Feb_08_1200,ConditionRich,2021.2.3,59.94592877182549,
28.0,31.75,40,0.75,Stimuli/P012/things_woman_06s.jpg,0,0,0.0,0,13,13,13,,,,,,,,,,,,,28.007889600001363,0.007889600001362851,None,70.4572317000002,70.4572317000002,70.4572317000002,70.4572317000002,70.4572317000002,70.4572317000002,70.4572317000002,70.4572317000002,70.4572317000002,70.4572317000002,,004,P012,2025_Feb_08_1200,ConditionRich,2021.2.3,59.94592877182549,
31.75,32.0,41,0.0,Stimuli/Blank.png,0,0,0.0,0,14,14,14,,,,,,,,,,,,,31.777267800000118,0.02726780000011786,None,74.2105947,74.2105947,74.2105947,74.2105947,74.2105947,74.2105947,74.2105947,74.2105947,74.2105947,74.2105947,,004,P012,2025_Feb_08_1200,ConditionRich,2021.2.3,59.94592877182549,
32.0,35.75,29,0.75,Stimuli/P012/things_gutter_06s.jpg,0,0,0.0,0,15,15,15,,,,,,,,,,,,,32.00943200000074,0.009432000000742846,None,74.44408579999981,74.44408579999981,74.44408579999981,74.44408579999981,74.44408579999981,74.44408579999981,74.44408579999981,74.44408579999981,74.44408579999981,74.44408579999981,,004,P012,2025_Feb_08_1200,ConditionRich,2021.2.3,59.94592877182549,
35.75,36.0,41,0.0,Stimuli/Blank.png,0,0,0.0,0,16,16,16,,,,,,,,,,,,,35.76260689999981,0.012606899999809684,None,78.1974498999989,78.1974498999989,78.1974498999989,78.1974498999989,78.1974498999989,78.1974498999989,78.1974498999989,78.1974498999989,78.1974498999989,78.1974498999989,,004,P012,2025_Feb_08_1200,ConditionRich,2021.2.3,59.94592877182549,
36.0,39.75,17,0.75,Stimuli/P012/sun_btvwhlxbhcqnqzok.jpg,1,2,2.75,0,17,17,17,,,,,,,,,,,,,36.01335530000142,0.01335530000142171,2,78.46436670000003,78.46436670000003,78.46436670000003,78.46436670000003,78.46436670000003,78.46436670000003,80.43272069999875,81.18345930000032,78.46436670000003,78.46436670000003,2.4001282999997784,004,P012,2025_Feb_08_1200,ConditionRich,2021.2.3,59.94592877182549,
39.75,40.0,41,0.0,Stimuli/Blank.png,0,0,0.0,0,18,18,18,,,,,,,,,,,,,39.76922220000051,0.019222200000513112,None,82.21766620000017,82.21766620000017,82.21766620000017,82.21766620000017,82.21766620000017,82.21766620000017,82.21766620000017,82.21766620000017,82.21766620000017,82.21766620000017,,004,P012,2025_Feb_08_1200,ConditionRich,2021.2.3,59.94592877182549,
40.0,43.75,34,0.75,Stimuli/P012/things_polar_bear_06s.jpg,0,0,0.0,0,19,19,19,,,,,,,,,,,,,40.01638110000022,0.016381100000216975,None,82.46789100000024,82.46789100000024,82.46789100000024,82.46789100000024,82.46789100000024,82.46789100000024,82.46789100000024,82.46789100000024,82.46789100000024,82.46789100000024,,004,P012,2025_Feb_08_1200,ConditionRich,2021.2.3,59.94592877182549,
43.75,44.0,41,0.0,Stimuli/Blank.png,0,0,0.0,0,20,20,20,,,,,,,,,,,,,43.76957940000102,0.019579400001020986,None,86.20452269999987,86.20452269999987,86.20452269999987,86.20452269999987,86.20452269999987,86.20452269999987,86.20452269999987,86.20452269999987,86.20452269999987,86.20452269999987,,004,P012,2025_Feb_08_1200,ConditionRich,2021.2.3,59.94592877182549,
44.0,47.75,4,0.75,Stimuli/P012/sun_akpdzjejmtbfopdt.jpg,1,1,1.75,0,21,21,21,,,,,,,,,,,,,44.0033553000012,0.0033553000012034317,2,86.43807109999943,86.43807109999943,86.43807109999943,86.43807109999943,86.43807109999943,86.43807109999943,87.42227660000026,88.17296759999954,86.43807109999943,86.43807109999943,1.4344204000008176,004,P012,2025_Feb_08_1200,ConditionRich,2021.2.3,59.94592877182549,
47.75,48.0,41,0.0,Stimuli/Blank.png,0,0,0.0,0,22,22,22,,,,,,,,,,,,,47.75832140000057,0.008321400000568246,None,90.19140030000017,90.19140030000017,90.19140030000017,90.19140030000017,90.19140030000017,90.19140030000017,90.19140030000017,90.19140030000017,90.19140030000017,90.19140030000017,,004,P012,2025_Feb_08_1200,ConditionRich,2021.2.3,59.94592877182549,
48.0,51.75,13,0.75,Stimuli/P012/sun_bjedvzikugwleyer.jpg,0,0,0.0,0,23,23,23,,,,,,,,,,,,,48.0083723000007,0.008372300000701216,None,90.45828459999939,90.45828459999939,90.45828459999939,90.45828459999939,90.45828459999939,90.45828459999939,90.45828459999939,90.45828459999939,90.45828459999939,90.45828459999939,,004,P012,2025_Feb_08_1200,ConditionRich,2021.2.3,59.94592877182549,
51.75,52.0,41,0.0,Stimuli/Blank.png,0,0,0.0,0,24,24,24,,,,,,,,,,,,,51.77836230000139,0.028362300001390395,None,94.21161989999928,94.21161989999928,94.21161989999928,94.21161989999928,94.21161989999928,94.21161989999928,94.21161989999928,94.21161989999928,94.21161989999928,94.21161989999928,,004,P012,2025_Feb_08_1200,ConditionRich,2021.2.3,59.94592877182549,
52.0,55.75,31,0.75,Stimuli/P012/things_hippopotamus_06s.jpg,0,0,0.0,0,25,25,25,,,,,,,,,,,,,52.011215900000025,0.011215900000024703,None,94.4618215999999,94.4618215999999,94.4618215999999,94.4618215999999,94.4618215999999,94.4618215999999,94.4618215999999,94.4618215999999,94.4618215999999,94.4618215999999,,004,P012,2025_Feb_08_1200,ConditionRich,2021.2.3,59.94592877182549,
55.75,56.0,41,0.0,Stimuli/Blank.png,0,0,0.0,0,26,26,26,,,,,,,,,,,,,55.78139809999993,0.03139809999993304,None,98.21520529999907,98.21520529999907,98.21520529999907,98.21520529999907,98.21520529999907,98.21520529999907,98.21520529999907,98.21520529999907,98.21520529999907,98.21520529999907,,004,P012,2025_Feb_08_1200,ConditionRich,2021.2.3,59.94592877182549,
56.0,59.75,35,0.75,Stimuli/P012/things_raccoon_06n.jpg,0,0,0.0,0,27,27,27,,,,,,,,,,,,,56.014323200000945,0.01432320000094478,None,98.44867549999981,98.44867549999981,98.44867549999981,98.44867549999981,98.44867549999981,98.44867549999981,98.44867549999981,98.44867549999981,98.44867549999981,98.44867549999981,,004,P012,2025_Feb_08_1200,ConditionRich,2021.2.3,59.94592877182549,
59.75,60.0,41,0.0,Stimuli/Blank.png,0,0,0.0,0,28,28,28,,,,,,,,,,,,,59.75125579999985,0.0012557999998534797,None,102.18645269999979,102.18645269999979,102.18645269999979,102.18645269999979,102.18645269999979,102.18645269999979,102.18645269999979,102.18645269999979,102.18645269999979,102.18645269999979,,004,P012,2025_Feb_08_1200,ConditionRich,2021.2.3,59.94592877182549,
60.0,63.75,9,0.75,Stimuli/P012/sun_aupohozmrmtfgcsw.jpg,0,0,0.0,0,29,29,29,,,,,,,,,,,,,60.003052500000194,0.0030525000001944136,None,102.45219579999866,102.45219579999866,102.45219579999866,102.45219579999866,102.45219579999866,102.45219579999866,102.45219579999866,102.45219579999866,102.45219579999866,102.45219579999866,,004,P012,2025_Feb_08_1200,ConditionRich,2021.2.3,59.94592877182549,
63.75,64.0,41,0.0,Stimuli/Blank.png,0,0,0.0,0,30,30,30,,,,,,,,,,,,,63.77148690000104,0.0214869000010367,None,106.20562069999869,106.20562069999869,106.20562069999869,106.20562069999869,106.20562069999869,106.20562069999869,106.20562069999869,106.20562069999869,106.20562069999869,106.20562069999869,,004,P012,2025_Feb_08_1200,ConditionRich,2021.2.3,59.94592877182549,
64.0,67.75,38,0.75,Stimuli/P012/things_squeegee_06s.jpg,0,0,0.0,0,31,31,31,,,,,,,,,,,,,64.00427140000102,0.0042714000010164455,None,106.43904669999938,106.43904669999938,106.43904669999938,106.43904669999938,106.43904669999938,106.43904669999938,106.43904669999938,106.43904669999938,106.43904669999938,106.43904669999938,,004,P012,2025_Feb_08_1200,ConditionRich,2021.2.3,59.94592877182549,
67.75,68.0,41,0.0,Stimuli/Blank.png,0,0,0.0,0,32,32,32,,,,,,,,,,,,,67.7584067000007,0.008406700000705314,None,110.19240989999889,110.19240989999889,110.19240989999889,110.19240989999889,110.19240989999889,110.19240989999889,110.19240989999889,110.19240989999889,110.19240989999889,110.19240989999889,,004,P012,2025_Feb_08_1200,ConditionRich,2021.2.3,59.94592877182549,
68.0,71.75,36,0.75,Stimuli/P012/things_shower_cap_06s.jpg,1,3,3.75,0,33,33,33,,,,,,,,,,,,,68.00855070000034,0.008550700000341749,2,110.45991399999912,110.45991399999912,110.45991399999912,110.45991399999912,110.45991399999912,110.45991399999912,113.4285949999994,114.17924999999923,110.45991399999912,110.45991399999912,3.3710109000003285,004,P012,2025_Feb_08_1200,ConditionRich,2021.2.3,59.94592877182549,
71.75,72.0,41,0.0,Stimuli/Blank.png,0,0,0.0,0,34,34,34,,,,,,,,,,,,,71.77885550000065,0.028855500000645407,None,114.21263819999876,114.21263819999876,114.21263819999876,114.21263819999876,114.21263819999876,114.21263819999876,114.21263819999876,114.21263819999876,114.21263819999876,114.21263819999876,,004,P012,2025_Feb_08_1200,ConditionRich,2021.2.3,59.94592877182549,
72.0,75.75,19,0.75,Stimuli/P012/sun_byvwakrdyukjigpc.jpg,0,0,0.0,0,35,35,35,,,,,,,,,,,,,72.01437080000142,0.014370800001415773,None,114.46285069999976,114.46285069999976,114.46285069999976,114.46285069999976,114.46285069999976,114.46285069999976,114.46285069999976,114.46285069999976,114.46285069999976,114.46285069999976,,004,P012,2025_Feb_08_1200,ConditionRich,2021.2.3,59.94592877182549,
75.75,76.0,41,0.0,Stimuli/Blank.png,0,0,0.0,0,36,36,36,,,,,,,,,,,,,75.7680547,0.018054699999993318,None,118.2161703999991,118.2161703999991,118.2161703999991,118.2161703999991,118.2161703999991,118.2161703999991,118.2161703999991,118.2161703999991,118.2161703999991,118.2161703999991,,004,P012,2025_Feb_08_1200,ConditionRich,2021.2.3,59.94592877182549,
76.0,79.75,18,0.75,Stimuli/P012/sun_bxlbxustiovyqyrg.jpg,0,0,0.0,0,37,37,37,,,,,,,,,,,,,76.01492430000144,0.014924300001439406,None,118.44971799999985,118.44971799999985,118.44971799999985,118.44971799999985,118.44971799999985,118.44971799999985,118.44971799999985,118.44971799999985,118.44971799999985,118.44971799999985,,004,P012,2025_Feb_08_1200,ConditionRich,2021.2.3,59.94592877182549,
79.75,80.0,41,0.0,Stimuli/Blank.png,0,0,0.0,0,38,38,38,,,,,,,,,,,,,79.7549465000011,0.004946500001096865,None,122.20305399999961,122.20305399999961,122.20305399999961,122.20305399999961,122.20305399999961,122.20305399999961,122.20305399999961,122.20305399999961,122.20305399999961,122.20305399999961,,004,P012,2025_Feb_08_1200,ConditionRich,2021.2.3,59.94592877182549,
80.0,83.75,28,0.75,Stimuli/P012/things_grasshopper_06s.jpg,1,2,2.75,0,39,39,39,,,,,,,,,,,,,80.0184191999997,0.01841919999969832,2,122.45324719999917,122.45324719999917,122.45324719999917,122.45324719999917,122.45324719999917,122.45324719999917,124.43830089999938,125.18903820000014,122.45324719999917,122.45324719999917,2.371272799999133,004,P012,2025_Feb_08_1200,ConditionRich,2021.2.3,59.94592877182549,
83.75,84.0,41,0.0,Stimuli/Blank.png,0,0,0.0,0,40,40,40,,,,,,,,,,,,,83.75516710000011,0.005167100000107894,None,126.18988389999868,126.18988389999868,126.18988389999868,126.18988389999868,126.18988389999868,126.18988389999868,126.18988389999868,126.18988389999868,126.18988389999868,126.18988389999868,,004,P012,2025_Feb_08_1200,ConditionRich,2021.2.3,59.94592877182549,
84.0,100.0,0,0.0,Stimuli/Blank.png,1,3,3.75,0,41,41,41,,,,,,,,,,,,,84.00524949999999,0.005249499999990803,2,126.44010469999921,126.44010469999921,126.44010469999921,126.44010469999921,126.44010469999921,126.44010469999921,129.42610629999945,130.17673990000003,126.44010469999921,126.44010469999921,3.393390000001091,004,P012,2025_Feb_08_1200,ConditionRich,2021.2.3,59.94592877182549,
100.0,103.75,16,0.75,Stimuli/P012/sun_bpuwvyadswjfoaby.jpg,0,0,0.0,0,42,42,42,,,,,,,,,,,,,100.00353309999991,0.0035330999999132473,None,142.4375954999996,142.4375954999996,142.4375954999996,142.4375954999996,142.4375954999996,142.4375954999996,142.4375954999996,142.4375954999996,142.4375954999996,142.4375954999996,,004,P012,2025_Feb_08_1200,ConditionRich,2021.2.3,59.94592877182549,
103.75,104.0,41,0.0,Stimuli/Blank.png,0,0,0.0,0,43,43,43,,,,,,,,,,,,,103.75625030000083,0.0062503000008291565,None,146.19090940000024,146.19090940000024,146.19090940000024,146.19090940000024,146.19090940000024,146.19090940000024,146.19090940000024,146.19090940000024,146.19090940000024,146.19090940000024,,004,P012,2025_Feb_08_1200,ConditionRich,2021.2.3,59.94592877182549,
104.0,107.75,30,0.75,Stimuli/P012/things_hamburger_06s.jpg,1,2,2.75,0,44,44,44,,,,,,,,,,,,,104.00838990000011,0.008389900000111084,2,146.45781159999933,146.45781159999933,146.45781159999933,146.45781159999933,146.45781159999933,146.45781159999933,148.44286049999937,149.19364229999883,146.45781159999933,146.45781159999933,2.3597807999994984,004,P012,2025_Feb_08_1200,ConditionRich,2021.2.3,59.94592877182549,
107.75,108.0,41,0.0,Stimuli/Blank.png,0,0,0.0,0,45,45,45,,,,,,,,,,,,,107.77910500000144,0.029105000001436565,None,150.2278210000004,150.2278210000004,150.2278210000004,150.2278210000004,150.2278210000004,150.2278210000004,150.2278210000004,150.2278210000004,150.2278210000004,150.2278210000004,,004,P012,2025_Feb_08_1200,ConditionRich,2021.2.3,59.94592877182549,
108.0,111.75,15,0.75,Stimuli/P012/sun_bmngnyuahubpqroh.jpg,0,0,0.0,0,46,46,46,,,,,,,,,,,,,108.02719640000032,0.027196400000320864,None,150.4613518999995,150.4613518999995,150.4613518999995,150.4613518999995,150.4613518999995,150.4613518999995,150.4613518999995,150.4613518999995,150.4613518999995,150.4613518999995,,004,P012,2025_Feb_08_1200,ConditionRich,2021.2.3,59.94592877182549,
111.75,112.0,41,0.0,Stimuli/Blank.png,0,0,0.0,0,47,47,47,,,,,,,,,,,,,111.76450360000126,0.014503600001262384,None,154.19798999999875,154.19798999999875,154.19798999999875,154.19798999999875,154.19798999999875,154.19798999999875,154.19798999999875,154.19798999999875,154.19798999999875,154.19798999999875,,004,P012,2025_Feb_08_1200,ConditionRich,2021.2.3,59.94592877182549,
112.0,115.75,27,0.75,Stimuli/P012/things_girl_06s.jpg,0,0,0.0,0,48,48,48,,,,,,,,,,,,,112.01372360000096,0.013723600000957958,None,154.44821319999937,154.44821319999937,154.44821319999937,154.44821319999937,154.44821319999937,154.44821319999937,154.44821319999937,154.44821319999937,154.44821319999937,154.44821319999937,,004,P012,2025_Feb_08_1200,ConditionRich,2021.2.3,59.94592877182549,
115.75,116.0,41,0.0,Stimuli/Blank.png,0,0,0.0,0,49,49,49,,,,,,,,,,,,,115.74995600000148,-4.3999998524668626e-05,None,158.1848399999999,158.1848399999999,158.1848399999999,158.1848399999999,158.1848399999999,158.1848399999999,158.1848399999999,158.1848399999999,158.1848399999999,158.1848399999999,,004,P012,2025_Feb_08_1200,ConditionRich,2021.2.3,59.94592877182549,
116.0,119.75,7,0.75,Stimuli/P012/sun_arugqgwhwdjxezyt.jpg,0,0,0.0,0,50,50,50,,,,,,,,,,,,,116.00036600000021,0.0003660000002128072,None,158.43508420000035,158.43508420000035,158.43508420000035,158.43508420000035,158.43508420000035,158.43508420000035,158.43508420000035,158.43508420000035,158.43508420000035,158.43508420000035,,004,P012,2025_Feb_08_1200,ConditionRich,2021.2.3,59.94592877182549,
119.75,120.0,41,0.0,Stimuli/Blank.png,0,0,0.0,0,51,51,51,,,,,,,,,,,,,119.75393570000051,0.003935700000511133,None,162.1883883999999,162.1883883999999,162.1883883999999,162.1883883999999,162.1883883999999,162.1883883999999,162.1883883999999,162.1883883999999,162.1883883999999,162.1883883999999,,004,P012,2025_Feb_08_1200,ConditionRich,2021.2.3,59.94592877182549,
120.0,123.75,10,0.75,Stimuli/P012/sun_awufkrkrdrdbvvis.jpg,1,1,1.75,0,52,52,52,,,,,,,,,,,,,120.00380320000113,0.0038032000011298805,2,162.43861429999924,162.43861429999924,162.43861429999924,162.43861429999924,162.43861429999924,162.43861429999924,163.42286219999914,164.1734765000001,162.43861429999924,162.43861429999924,1.3729118999999628,004,P012,2025_Feb_08_1200,ConditionRich,2021.2.3,59.94592877182549,
123.75,124.0,41,0.0,Stimuli/Blank.png,0,0,0.0,0,53,53,53,,,,,,,,,,,,,123.75803260000066,0.00803260000066075,None,166.1919512000004,166.1919512000004,166.1919512000004,166.1919512000004,166.1919512000004,166.1919512000004,166.1919512000004,166.1919512000004,166.1919512000004,166.1919512000004,,004,P012,2025_Feb_08_1200,ConditionRich,2021.2.3,59.94592877182549,
124.0,127.75,12,0.75,Stimuli/P012/sun_bcesifdfuidnkdhl.jpg,0,0,0.0,0,54,54,54,,,,,,,,,,,,,124.00839210000049,0.008392100000492064,None,166.4588305999987,166.4588305999987,166.4588305999987,166.4588305999987,166.4588305999987,166.4588305999987,166.4588305999987,166.4588305999987,166.4588305999987,166.4588305999987,,004,P012,2025_Feb_08_1200,ConditionRich,2021.2.3,59.94592877182549,
127.75,128.0,41,0.0,Stimuli/Blank.png,0,0,0.0,0,55,55,55,,,,,,,,,,,,,127.77720820000104,0.027208200001041405,None,170.2121446000001,170.2121446000001,170.2121446000001,170.2121446000001,170.2121446000001,170.2121446000001,170.2121446000001,170.2121446000001,170.2121446000001,170.2121446000001,,004,P012,2025_Feb_08_1200,ConditionRich,2021.2.3,59.94592877182549,
128.0,131.75,11,0.75,Stimuli/P012/sun_baylllqlgfvxilor.jpg,0,0,0.0,0,56,56,56,,,,,,,,,,,,,128.0123997999999,0.01239979999991192,None,170.46278549999988,170.46278549999988,170.46278549999988,170.46278549999988,170.46278549999988,170.46278549999988,170.46278549999988,170.46278549999988,170.46278549999988,170.46278549999988,,004,P012,2025_Feb_08_1200,ConditionRich,2021.2.3,59.94592877182549,
131.75,132.0,41,0.0,Stimuli/Blank.png,0,0,0.0,0,57,57,57,,,,,,,,,,,,,131.78312790000018,0.0331279000001814,None,174.2323980000001,174.2323980000001,174.2323980000001,174.2323980000001,174.2323980000001,174.2323980000001,174.2323980000001,174.2323980000001,174.2323980000001,174.2323980000001,,004,P012,2025_Feb_08_1200,ConditionRich,2021.2.3,59.94592877182549,
132.0,135.75,23,0.75,Stimuli/P012/things_clove_06s.jpg,0,0,0.0,0,58,58,58,,,,,,,,,,,,,132.01496899999984,0.014968999999837251,None,174.4492051999987,174.4492051999987,174.4492051999987,174.4492051999987,174.4492051999987,174.4492051999987,174.4492051999987,174.4492051999987,174.4492051999987,174.4492051999987,,004,P012,2025_Feb_08_1200,ConditionRich,2021.2.3,59.94592877182549,
135.75,136.0,41,0.0,Stimuli/Blank.png,0,0,0.0,0,59,59,59,,,,,,,,,,,,,135.75149890000102,0.0014989000010245945,None,178.1858515999993,178.1858515999993,178.1858515999993,178.1858515999993,178.1858515999993,178.1858515999993,178.1858515999993,178.1858515999993,178.1858515999993,178.1858515999993,,004,P012,2025_Feb_08_1200,ConditionRich,2021.2.3,59.94592877182549,
136.0,139.75,6,0.75,Stimuli/P012/sun_aqysdudvyxnkcxgq.jpg,0,0,0.0,0,60,60,60,,,,,,,,,,,,,136.00132740000117,0.0013274000011733733,None,178.43605599999864,178.43605599999864,178.43605599999864,178.43605599999864,178.43605599999864,178.43605599999864,178.43605599999864,178.43605599999864,178.43605599999864,178.43605599999864,,004,P012,2025_Feb_08_1200,ConditionRich,2021.2.3,59.94592877182549,
139.75,140.0,41,0.0,Stimuli/Blank.png,0,0,0.0,0,61,61,61,,,,,,,,,,,,,139.754536800001,0.0045368000010057585,None,182.18941129999985,182.18941129999985,182.18941129999985,182.18941129999985,182.18941129999985,182.18941129999985,182.18941129999985,182.18941129999985,182.18941129999985,182.18941129999985,,004,P012,2025_Feb_08_1200,ConditionRich,2021.2.3,59.94592877182549,
140.0,143.75,37,0.75,Stimuli/P012/things_spam_06s.jpg,0,0,0.0,0,62,62,62,,,,,,,,,,,,,140.00506940000014,0.0050694000001385575,None,182.43960589999915,182.43960589999915,182.43960589999915,182.43960589999915,182.43960589999915,182.43960589999915,182.43960589999915,182.43960589999915,182.43960589999915,182.43960589999915,,004,P012,2025_Feb_08_1200,ConditionRich,2021.2.3,59.94592877182549,
143.75,144.0,41,0.0,Stimuli/Blank.png,0,0,0.0,0,63,63,63,,,,,,,,,,,,,143.7588596000005,0.008859600000505452,None,186.1929557000003,186.1929557000003,186.1929557000003,186.1929557000003,186.1929557000003,186.1929557000003,186.1929557000003,186.1929557000003,186.1929557000003,186.1929557000003,,004,P012,2025_Feb_08_1200,ConditionRich,2021.2.3,59.94592877182549,
144.0,147.75,24,0.75,Stimuli/P012/things_doily_06s.jpg,1,1,1.75,0,64,64,64,,,,,,,,,,,,,144.0089809000001,0.00898090000009688,None,186.44314499999928,186.44314499999928,186.44314499999928,186.44314499999928,186.44314499999928,186.44314499999928,187.42738089999875,188.17805549999866,186.44314499999928,186.44314499999928,,004,P012,2025_Feb_08_1200,ConditionRich,2021.2.3,59.94592877182549,
147.75,148.0,41,0.0,Stimuli/Blank.png,0,0,0.0,0,65,65,65,,,,,,,,,,,,,147.7624203000014,0.012420300001394935,None,190.19649389999904,190.19649389999904,190.19649389999904,190.19649389999904,190.19649389999904,190.19649389999904,190.19649389999904,190.19649389999904,190.19649389999904,190.19649389999904,,004,P012,2025_Feb_08_1200,ConditionRich,2021.2.3,59.94592877182549,
148.0,151.75,32,0.75,Stimuli/P012/things_hood_06s.jpg,1,0,0.75,0,66,66,66,,,,,,,,,,,,,148.01181290000022,0.011812900000222726,2,190.44671469999957,190.44671469999957,190.44671469999957,190.44671469999957,190.44671469999957,190.44671469999957,190.44671469999957,191.18073879999974,190.44671469999957,190.44671469999957,0.4699073000010685,004,P012,2025_Feb_08_1200,ConditionRich,2021.2.3,59.94592877182549,
151.75,152.0,41,0.0,Stimuli/Blank.png,0,0,0.0,0,67,67,67,,,,,,,,,,,,,151.76796450000074,0.01796450000074401,None,194.21671629999946,194.21671629999946,194.21671629999946,194.21671629999946,194.21671629999946,194.21671629999946,194.21671629999946,194.21671629999946,194.21671629999946,194.21671629999946,,004,P012,2025_Feb_08_1200,ConditionRich,2021.2.3,59.94592877182549,
152.0,155.75,14,0.75,Stimuli/P012/sun_blybvkoucskrdgiv.jpg,0,0,0.0,0,68,68,68,,,,,,,,,,,,,152.01877460000105,0.018774600001052022,None,194.46694269999898,194.46694269999898,194.46694269999898,194.46694269999898,194.46694269999898,194.46694269999898,194.46694269999898,194.46694269999898,194.46694269999898,194.46694269999898,,004,P012,2025_Feb_08_1200,ConditionRich,2021.2.3,59.94592877182549,
155.75,156.0,41,0.0,Stimuli/Blank.png,0,0,0.0,0,69,69,69,,,,,,,,,,,,,155.7687765999999,0.018776599999910104,None,198.2036391999991,198.2036391999991,198.2036391999991,198.2036391999991,198.2036391999991,198.2036391999991,198.2036391999991,198.2036391999991,198.2036391999991,198.2036391999991,,004,P012,2025_Feb_08_1200,ConditionRich,2021.2.3,59.94592877182549,
156.0,159.75,1,0.75,Stimuli/P012/sun_aeakbqnvptdnxtno.jpg,0,0,0.0,0,70,70,70,,,,,,,,,,,,,156.0030824000005,0.00308240000049409,None,198.43711599999915,198.43711599999915,198.43711599999915,198.43711599999915,198.43711599999915,198.43711599999915,198.43711599999915,198.43711599999915,198.43711599999915,198.43711599999915,,004,P012,2025_Feb_08_1200,ConditionRich,2021.2.3,59.94592877182549,
159.75,160.0,41,0.0,Stimuli/Blank.png,0,0,0.0,0,71,71,71,,,,,,,,,,,,,159.75781460000144,0.00781460000143852,None,202.20712529999946,202.20712529999946,202.20712529999946,202.20712529999946,202.20712529999946,202.20712529999946,202.20712529999946,202.20712529999946,202.20712529999946,202.20712529999946,,004,P012,2025_Feb_08_1200,ConditionRich,2021.2.3,59.94592877182549,
160.0,163.75,8,0.75,Stimuli/P012/sun_asppejhsplpizvag.jpg,0,0,0.0,0,72,72,72,,,,,,,,,,,,,160.02324550000048,0.023245500000484753,None,202.47403419999864,202.47403419999864,202.47403419999864,202.47403419999864,202.47403419999864,202.47403419999864,202.47403419999864,202.47403419999864,202.47403419999864,202.47403419999864,,004,P012,2025_Feb_08_1200,ConditionRich,2021.2.3,59.94592877182549,
163.75,164.0,41,0.0,Stimuli/Blank.png,0,0,0.0,0,73,73,73,,,,,,,,,,,,,163.7774171000001,0.027417100000093342,None,206.21066969999993,206.21066969999993,206.21066969999993,206.21066969999993,206.21066969999993,206.21066969999993,206.21066969999993,206.21066969999993,206.21066969999993,206.21066969999993,,004,P012,2025_Feb_08_1200,ConditionRich,2021.2.3,59.94592877182549,
164.0,167.75,25,0.75,Stimuli/P012/things_face_06s.jpg,0,0,0.0,0,74,74,74,,,,,,,,,,,,,164.00952030000008,0.009520300000076531,None,206.4608790000002,206.4608790000002,206.4608790000002,206.4608790000002,206.4608790000002,206.4608790000002,206.4608790000002,206.4608790000002,206.4608790000002,206.4608790000002,,004,P012,2025_Feb_08_1200,ConditionRich,2021.2.3,59.94592877182549,
167.75,168.0,41,0.0,Stimuli/Blank.png,0,0,0.0,0,75,75,75,,,,,,,,,,,,,167.77948199999992,0.029481999999916297,None,210.2142000999993,210.2142000999993,210.2142000999993,210.2142000999993,210.2142000999993,210.2142000999993,210.2142000999993,210.2142000999993,210.2142000999993,210.2142000999993,,004,P012,2025_Feb_08_1200,ConditionRich,2021.2.3,59.94592877182549,
168.0,171.75,21,0.75,Stimuli/P012/things_baby_06s.jpg,0,0,0.0,0,76,76,76,,,,,,,,,,,,,168.01303980000012,0.013039800000115065,None,210.44773799999894,210.44773799999894,210.44773799999894,210.44773799999894,210.44773799999894,210.44773799999894,210.44773799999894,210.44773799999894,210.44773799999894,210.44773799999894,,004,P012,2025_Feb_08_1200,ConditionRich,2021.2.3,59.94592877182549,
171.75,172.0,41,0.0,Stimuli/Blank.png,0,0,0.0,0,77,77,77,,,,,,,,,,,,,171.75031020000097,0.0003102000009675976,None,214.1844490000003,214.1844490000003,214.1844490000003,214.1844490000003,214.1844490000003,214.1844490000003,214.1844490000003,214.1844490000003,214.1844490000003,214.1844490000003,,004,P012,2025_Feb_08_1200,ConditionRich,2021.2.3,59.94592877182549,
172.0,175.75,26,0.75,Stimuli/P012/things_gazelle_06s.jpg,0,0,0.0,0,78,78,78,,,,,,,,,,,,,172.00007670000014,7.670000013604295e-05,None,214.45128589999877,214.45128589999877,214.45128589999877,214.45128589999877,214.45128589999877,214.45128589999877,214.45128589999877,214.45128589999877,214.45128589999877,214.45128589999877,,004,P012,2025_Feb_08_1200,ConditionRich,2021.2.3,59.94592877182549,
175.75,176.0,41,0.0,Stimuli/Blank.png,0,0,0.0,0,79,79,79,,,,,,,,,,,,,175.7697874000005,0.019787400000495836,None,218.20459610000034,218.20459610000034,218.20459610000034,218.20459610000034,218.20459610000034,218.20459610000034,218.20459610000034,218.20459610000034,218.20459610000034,218.20459610000034,,004,P012,2025_Feb_08_1200,ConditionRich,2021.2.3,59.94592877182549,
176.0,179.75,5,0.75,Stimuli/P012/sun_anfwllcezhlypoti.jpg,0,0,0.0,0,80,80,80,,,,,,,,,,,,,176.00359470000149,0.003594700001485762,None,218.43813789999876,218.43813789999876,218.43813789999876,218.43813789999876,218.43813789999876,218.43813789999876,218.43813789999876,218.43813789999876,218.43813789999876,218.43813789999876,,004,P012,2025_Feb_08_1200,ConditionRich,2021.2.3,59.94592877182549,
179.75,180.0,41,0.0,Stimuli/Blank.png,0,0,0.0,0,81,81,81,,,,,,,,,,,,,179.7586368000011,0.008636800001113443,None,222.2081767999989,222.2081767999989,222.2081767999989,222.2081767999989,222.2081767999989,222.2081767999989,222.2081767999989,222.2081767999989,222.2081767999989,222.2081767999989,,004,P012,2025_Feb_08_1200,ConditionRich,2021.2.3,59.94592877182549,
180.0,196.0,0,0.0,Stimuli/Blank.png,1,4,4.75,0,82,82,82,,,,,,,,,,,,,180.02364810000108,0.02364810000108264,2,222.4583561999989,222.4583561999989,222.4583561999989,222.4583561999989,222.4583561999989,222.4583561999989,226.44525889999932,227.19587390000015,222.4583561999989,222.4583561999989,4.365656699999818,004,P012,2025_Feb_08_1200,ConditionRich,2021.2.3,59.94592877182549,
196.0,199.75,22,0.75,Stimuli/P012/things_boy_06s.jpg,0,0,0.0,0,83,83,83,,,,,,,,,,,,,196.00495279999996,0.0049527999999554595,None,238.45586129999901,238.45586129999901,238.45586129999901,238.45586129999901,238.45586129999901,238.45586129999901,238.45586129999901,238.45586129999901,238.45586129999901,238.45586129999901,,004,P012,2025_Feb_08_1200,ConditionRich,2021.2.3,59.94592877182549,
199.75,200.0,41,0.0,Stimuli/Blank.png,0,0,0.0,0,84,84,84,,,,,,,,,,,,,199.77517590000025,0.025175900000249385,None,242.20918679999886,242.20918679999886,242.20918679999886,242.20918679999886,242.20918679999886,242.20918679999886,242.20918679999886,242.20918679999886,242.20918679999886,242.20918679999886,,004,P012,2025_Feb_08_1200,ConditionRich,2021.2.3,59.94592877182549,
200.0,203.75,37,0.75,Stimuli/P012/things_spam_06s.jpg,0,0,0.0,0,85,85,85,,,,,,,,,,,,,200.00885759999983,0.00885759999982838,None,242.45938539999952,242.45938539999952,242.45938539999952,242.45938539999952,242.45938539999952,242.45938539999952,242.45938539999952,242.45938539999952,242.45938539999952,242.45938539999952,,004,P012,2025_Feb_08_1200,ConditionRich,2021.2.3,59.94592877182549,
203.75,204.0,41,0.0,Stimuli/Blank.png,0,0,0.0,0,86,86,86,,,,,,,,,,,,,203.77782350000052,0.027823500000522472,None,246.21270120000008,246.21270120000008,246.21270120000008,246.21270120000008,246.21270120000008,246.21270120000008,246.21270120000008,246.21270120000008,246.21270120000008,246.21270120000008,,004,P012,2025_Feb_08_1200,ConditionRich,2021.2.3,59.94592877182549,
204.0,207.75,35,0.75,Stimuli/P012/things_raccoon_06n.jpg,0,0,0.0,0,87,87,87,,,,,,,,,,,,,204.01458079999975,0.014580799999748706,None,246.46293460000015,246.46293460000015,246.46293460000015,246.46293460000015,246.46293460000015,246.46293460000015,246.46293460000015,246.46293460000015,246.46293460000015,246.46293460000015,,004,P012,2025_Feb_08_1200,ConditionRich,2021.2.3,59.94592877182549,
207.75,208.0,41,0.0,Stimuli/Blank.png,0,0,0.0,0,88,88,88,,,,,,,,,,,,,207.7654407000009,0.015440700000908691,None,250.19963319999988,250.19963319999988,250.19963319999988,250.19963319999988,250.19963319999988,250.19963319999988,250.19963319999988,250.19963319999988,250.19963319999988,250.19963319999988,,004,P012,2025_Feb_08_1200,ConditionRich,2021.2.3,59.94592877182549,
208.0,211.75,16,0.75,Stimuli/P012/sun_bpuwvyadswjfoaby.jpg,0,0,0.0,0,89,89,89,,,,,,,,,,,,,208.01561020000008,0.015610200000082841,None,250.46648199999981,250.46648199999981,250.46648199999981,250.46648199999981,250.46648199999981,250.46648199999981,250.46648199999981,250.46648199999981,250.46648199999981,250.46648199999981,,004,P012,2025_Feb_08_1200,ConditionRich,2021.2.3,59.94592877182549,
211.75,212.0,41,0.0,Stimuli/Blank.png,0,0,0.0,0,90,90,90,,,,,,,,,,,,,211.7698547,0.019854699999996228,None,254.21980350000013,254.21980350000013,254.21980350000013,254.21980350000013,254.21980350000013,254.21980350000013,254.21980350000013,254.21980350000013,254.21980350000013,254.21980350000013,,004,P012,2025_Feb_08_1200,ConditionRich,2021.2.3,59.94592877182549,
212.0,215.75,17,0.75,Stimuli/P012/sun_btvwhlxbhcqnqzok.jpg,1,1,1.75,0,91,91,91,,,,,,,,,,,,,212.01876830000037,0.018768300000374438,2,254.4533266999988,254.4533266999988,254.4533266999988,254.4533266999988,254.4533266999988,254.4533266999988,255.4375213000003,256.1881835999993,254.4533266999988,254.4533266999988,1.4062949999988632,004,P012,2025_Feb_08_1200,ConditionRich,2021.2.3,59.94592877182549,
215.75,216.0,41,0.0,Stimuli/Blank.png,0,0,0.0,0,92,92,92,,,,,,,,,,,,,215.7552570000007,0.005257000000710832,None,258.1899641,258.1899641,258.1899641,258.1899641,258.1899641,258.1899641,258.1899641,258.1899641,258.1899641,258.1899641,,004,P012,2025_Feb_08_1200,ConditionRich,2021.2.3,59.94592877182549,
216.0,219.75,31,0.75,Stimuli/P012/things_hippopotamus_06s.jpg,0,0,0.0,0,93,93,93,,,,,,,,,,,,,216.0083966000002,0.008396600000196486,None,258.45687819999876,258.45687819999876,258.45687819999876,258.45687819999876,258.45687819999876,258.45687819999876,258.45687819999876,258.45687819999876,258.45687819999876,258.45687819999876,,004,P012,2025_Feb_08_1200,ConditionRich,2021.2.3,59.94592877182549,
219.75,220.0,41,0.0,Stimuli/Blank.png,0,0,0.0,0,94,94,94,,,,,,,,,,,,,219.77791770000113,0.027917700001125922,None,262.22688769999877,262.22688769999877,262.22688769999877,262.22688769999877,262.22688769999877,262.22688769999877,262.22688769999877,262.22688769999877,262.22688769999877,262.22688769999877,,004,P012,2025_Feb_08_1200,ConditionRich,2021.2.3,59.94592877182549,
220.0,223.75,32,0.75,Stimuli/P012/things_hood_06s.jpg,0,0,0.0,0,95,95,95,,,,,,,,,,,,,220.0281431000003,0.02814310000030673,None,262.47709159999977,262.47709159999977,262.47709159999977,262.47709159999977,262.47709159999977,262.47709159999977,262.47709159999977,262.47709159999977,262.47709159999977,262.47709159999977,,004,P012,2025_Feb_08_1200,ConditionRich,2021.2.3,59.94592877182549,
223.75,224.0,41,0.0,Stimuli/Blank.png,0,0,0.0,0,96,96,96,,,,,,,,,,,,,223.77952449999975,0.029524499999752152,None,266.2137243999987,266.2137243999987,266.2137243999987,266.2137243999987,266.2137243999987,266.2137243999987,266.2137243999987,266.2137243999987,266.2137243999987,266.2137243999987,,004,P012,2025_Feb_08_1200,ConditionRich,2021.2.3,59.94592877182549,
224.0,227.75,7,0.75,Stimuli/P012/sun_arugqgwhwdjxezyt.jpg,0,0,0.0,0,97,97,97,,,,,,,,,,,,,224.01391740000145,0.013917400001446367,None,266.46394409999994,266.46394409999994,266.46394409999994,266.46394409999994,266.46394409999994,266.46394409999994,266.46394409999994,266.46394409999994,266.46394409999994,266.46394409999994,,004,P012,2025_Feb_08_1200,ConditionRich,2021.2.3,59.94592877182549,
227.75,228.0,41,0.0,Stimuli/Blank.png,0,0,0.0,0,98,98,98,,,,,,,,,,,,,227.7678833000009,0.017883300000903546,None,270.2172718999991,270.2172718999991,270.2172718999991,270.2172718999991,270.2172718999991,270.2172718999991,270.2172718999991,270.2172718999991,270.2172718999991,270.2172718999991,,004,P012,2025_Feb_08_1200,ConditionRich,2021.2.3,59.94592877182549,
228.0,231.75,24,0.75,Stimuli/P012/things_doily_06s.jpg,0,0,0.0,0,99,99,99,,,,,,,,,,,,,228.01819299999988,0.018192999999882886,None,270.4674998999999,270.4674998999999,270.4674998999999,270.4674998999999,270.4674998999999,270.4674998999999,270.4674998999999,270.4674998999999,270.4674998999999,270.4674998999999,,004,P012,2025_Feb_08_1200,ConditionRich,2021.2.3,59.94592877182549,
231.75,232.0,41,0.0,Stimuli/Blank.png,0,0,0.0,0,100,100,100,,,,,,,,,,,,,231.7692461000006,0.019246100000600563,None,274.2041215999998,274.2041215999998,274.2041215999998,274.2041215999998,274.2041215999998,274.2041215999998,274.2041215999998,274.2041215999998,274.2041215999998,274.2041215999998,,004,P012,2025_Feb_08_1200,ConditionRich,2021.2.3,59.94592877182549,
232.0,235.75,27,0.75,Stimuli/P012/things_girl_06s.jpg,1,3,3.75,0,101,101,101,,,,,,,,,,,,,232.00346720000016,0.0034672000001592096,2,274.4543756000003,274.4543756000003,274.4543756000003,274.4543756000003,274.4543756000003,274.4543756000003,277.42369340000005,278.17441959999996,274.4543756000003,274.4543756000003,3.495210799999768,004,P012,2025_Feb_08_1200,ConditionRich,2021.2.3,59.94592877182549,
235.75,236.0,41,0.0,Stimuli/Blank.png,0,0,0.0,0,102,102,102,,,,,,,,,,,,,235.77380799999992,0.02380799999991723,None,278.2076770999993,278.2076770999993,278.2076770999993,278.2076770999993,278.2076770999993,278.2076770999993,278.2076770999993,278.2076770999993,278.2076770999993,278.2076770999993,,004,P012,2025_Feb_08_1200,ConditionRich,2021.2.3,59.94592877182549,
236.0,239.75,38,0.75,Stimuli/P012/things_squeegee_06s.jpg,0,0,0.0,0,103,103,103,,,,,,,,,,,,,236.00807840000016,0.008078400000158581,None,278.4412135999992,278.4412135999992,278.4412135999992,278.4412135999992,278.4412135999992,278.4412135999992,278.4412135999992,278.4412135999992,278.4412135999992,278.4412135999992,,004,P012,2025_Feb_08_1200,ConditionRich,2021.2.3,59.94592877182549,
239.75,240.0,41,0.0,Stimuli/Blank.png,0,0,0.0,0,104,104,104,,,,,,,,,,,,,239.7596338000003,0.009633800000301562,None,282.194529299999,282.194529299999,282.194529299999,282.194529299999,282.194529299999,282.194529299999,282.194529299999,282.194529299999,282.194529299999,282.194529299999,,004,P012,2025_Feb_08_1200,ConditionRich,2021.2.3,59.94592877182549,
240.0,243.75,29,0.75,Stimuli/P012/things_gutter_06s.jpg,0,0,0.0,0,105,105,105,,,,,,,,,,,,,240.01119910000125,0.011199100001249462,None,282.4447431999997,282.4447431999997,282.4447431999997,282.4447431999997,282.4447431999997,282.4447431999997,282.4447431999997,282.4447431999997,282.4447431999997,282.4447431999997,,004,P012,2025_Feb_08_1200,ConditionRich,2021.2.3,59.94592877182549,
243.75,244.0,41,0.0,Stimuli/Blank.png,0,0,0.0,0,106,106,106,,,,,,,,,,,,,243.76484230000096,0.014842300000964315,None,286.2147879000004,286.2147879000004,286.2147879000004,286.2147879000004,286.2147879000004,286.2147879000004,286.2147879000004,286.2147879000004,286.2147879000004,286.2147879000004,,004,P012,2025_Feb_08_1200,ConditionRich,2021.2.3,59.94592877182549,
244.0,247.75,30,0.75,Stimuli/P012/things_hamburger_06s.jpg,0,0,0.0,0,107,107,107,,,,,,,,,,,,,244.03326430000016,0.033264300000155345,None,286.4816484999992,286.4816484999992,286.4816484999992,286.4816484999992,286.4816484999992,286.4816484999992,286.4816484999992,286.4816484999992,286.4816484999992,286.4816484999992,,004,P012,2025_Feb_08_1200,ConditionRich,2021.2.3,59.94592877182549,
247.75,248.0,41,0.0,Stimuli/Blank.png,0,0,0.0,0,108,108,108,,,,,,,,,,,,,247.76746170000115,0.01746170000114944,None,290.2016208999994,290.2016208999994,290.2016208999994,290.2016208999994,290.2016208999994,290.2016208999994,290.2016208999994,290.2016208999994,290.2016208999994,290.2016208999994,,004,P012,2025_Feb_08_1200,ConditionRich,2021.2.3,59.94592877182549,
248.0,251.75,12,0.75,Stimuli/P012/sun_bcesifdfuidnkdhl.jpg,0,0,0.0,0,109,109,109,,,,,,,,,,,,,248.00423130000127,0.004231300001265481,None,290.4518771999992,290.4518771999992,290.4518771999992,290.4518771999992,290.4518771999992,290.4518771999992,290.4518771999992,290.4518771999992,290.4518771999992,290.4518771999992,,004,P012,2025_Feb_08_1200,ConditionRich,2021.2.3,59.94592877182549,
251.75,252.0,41,0.0,Stimuli/Blank.png,0,0,0.0,0,110,110,110,,,,,,,,,,,,,251.77108210000006,0.021082100000057835,None,294.2051644000003,294.2051644000003,294.2051644000003,294.2051644000003,294.2051644000003,294.2051644000003,294.2051644000003,294.2051644000003,294.2051644000003,294.2051644000003,,004,P012,2025_Feb_08_1200,ConditionRich,2021.2.3,59.94592877182549,
252.0,255.75,25,0.75,Stimuli/P012/things_face_06s.jpg,0,0,0.0,0,111,111,111,,,,,,,,,,,,,252.00451369999973,0.004513699999733944,None,294.43868420000035,294.43868420000035,294.43868420000035,294.43868420000035,294.43868420000035,294.43868420000035,294.43868420000035,294.43868420000035,294.43868420000035,294.43868420000035,,004,P012,2025_Feb_08_1200,ConditionRich,2021.2.3,59.94592877182549,
255.75,256.0,41,0.0,Stimuli/Blank.png,0,0,0.0,0,112,112,112,,,,,,,,,,,,,255.75762050000048,0.007620500000484753,None,298.1920025999989,298.1920025999989,298.1920025999989,298.1920025999989,298.1920025999989,298.1920025999989,298.1920025999989,298.1920025999989,298.1920025999989,298.1920025999989,,004,P012,2025_Feb_08_1200,ConditionRich,2021.2.3,59.94592877182549,
256.0,259.75,15,0.75,Stimuli/P012/sun_bmngnyuahubpqroh.jpg,0,0,0.0,0,113,113,113,,,,,,,,,,,,,256.00901840000006,0.009018400000059046,None,298.45887519999997,298.45887519999997,298.45887519999997,298.45887519999997,298.45887519999997,298.45887519999997,298.45887519999997,298.45887519999997,298.45887519999997,298.45887519999997,,004,P012,2025_Feb_08_1200,ConditionRich,2021.2.3,59.94592877182549,
259.75,260.0,41,0.0,Stimuli/Blank.png,0,0,0.0,0,114,114,114,,,,,,,,,,,,,259.7775257000012,0.027525700001206133,None,302.2132920999993,302.2132920999993,302.2132920999993,302.2132920999993,302.2132920999993,302.2132920999993,302.2132920999993,302.2132920999993,302.2132920999993,302.2132920999993,,004,P012,2025_Feb_08_1200,ConditionRich,2021.2.3,59.94592877182549,
260.0,263.75,11,0.75,Stimuli/P012/sun_baylllqlgfvxilor.jpg,1,0,0.75,0,115,115,115,,,,,,,,,,,,,260.0131842999999,0.013184299999920768,2,302.46241609999925,302.46241609999925,302.46241609999925,302.46241609999925,302.46241609999925,302.46241609999925,302.46241609999925,303.19643129999895,302.46241609999925,302.46241609999925,0.49323460000050545,004,P012,2025_Feb_08_1200,ConditionRich,2021.2.3,59.94592877182549,
263.75,264.0,41,0.0,Stimuli/Blank.png,0,0,0.0,0,116,116,116,,,,,,,,,,,,,263.7646553000013,0.014655300001322757,None,306.19908439999926,306.19908439999926,306.19908439999926,306.19908439999926,306.19908439999926,306.19908439999926,306.19908439999926,306.19908439999926,306.19908439999926,306.19908439999926,,004,P012,2025_Feb_08_1200,ConditionRich,2021.2.3,59.94592877182549,
264.0,267.75,10,0.75,Stimuli/P012/sun_awufkrkrdrdbvvis.jpg,1,3,3.75,0,117,117,117,,,,,,,,,,,,,264.0155431000003,0.015543100000286358,2,306.4660031000003,306.4660031000003,306.4660031000003,306.4660031000003,306.4660031000003,306.4660031000003,309.43529429999944,310.18597339999906,306.4660031000003,306.4660031000003,3.366905400000178,004,P012,2025_Feb_08_1200,ConditionRich,2021.2.3,59.94592877182549,
267.75,268.0,41,0.0,Stimuli/Blank.png,0,0,0.0,0,118,118,118,,,,,,,,,,,,,267.76863969999977,0.01863969999976689,None,310.2026365999991,310.2026365999991,310.2026365999991,310.2026365999991,310.2026365999991,310.2026365999991,310.2026365999991,310.2026365999991,310.2026365999991,310.2026365999991,,004,P012,2025_Feb_08_1200,ConditionRich,2021.2.3,59.94592877182549,
268.0,271.75,18,0.75,Stimuli/P012/sun_bxlbxustiovyqyrg.jpg,0,0,0.0,0,119,119,119,,,,,,,,,,,,,268.0030353000002,0.0030353000001923647,None,310.45284679999895,310.45284679999895,310.45284679999895,310.45284679999895,310.45284679999895,310.45284679999895,310.45284679999895,310.45284679999895,310.45284679999895,310.45284679999895,,004,P012,2025_Feb_08_1200,ConditionRich,2021.2.3,59.94592877182549,
271.75,272.0,41,0.0,Stimuli/Blank.png,0,0,0.0,0,120,120,120,,,,,,,,,,,,,271.7721958000002,0.022195800000190502,None,314.2061651999993,314.2061651999993,314.2061651999993,314.2061651999993,314.2061651999993,314.2061651999993,314.2061651999993,314.2061651999993,314.2061651999993,314.2061651999993,,004,P012,2025_Feb_08_1200,ConditionRich,2021.2.3,59.94592877182549,
272.0,275.75,4,0.75,Stimuli/P012/sun_akpdzjejmtbfopdt.jpg,0,0,0.0,0,121,121,121,,,,,,,,,,,,,272.0059626000002,0.005962600000202656,None,314.4564147000001,314.4564147000001,314.4564147000001,314.4564147000001,314.4564147000001,314.4564147000001,314.4564147000001,314.4564147000001,314.4564147000001,314.4564147000001,,004,P012,2025_Feb_08_1200,ConditionRich,2021.2.3,59.94592877182549,
275.75,276.0,41,0.0,Stimuli/Blank.png,0,0,0.0,0,122,122,122,,,,,,,,,,,,,275.77554280000004,0.02554280000003928,None,318.209793,318.209793,318.209793,318.209793,318.209793,318.209793,318.209793,318.209793,318.209793,318.209793,,004,P012,2025_Feb_08_1200,ConditionRich,2021.2.3,59.94592877182549,
276.0,292.0,0,0.0,Stimuli/Blank.png,1,5,5.75,0,123,123,123,,,,,,,,,,,,,276.0092127000007,0.009212700000716723,2,318.4432591999994,318.4432591999994,318.4432591999994,318.4432591999994,318.4432591999994,318.4432591999994,323.4310225999998,324.18166070000007,318.4432591999994,318.4432591999994,5.4914530999994895,004,P012,2025_Feb_08_1200,ConditionRich,2021.2.3,59.94592877182549,
292.0,295.75,3,0.75,Stimuli/P012/sun_afdaynbvsppiyvxm.jpg,0,0,0.0,0,124,124,124,,,,,,,,,,,,,292.0082594000014,0.008259400001406902,None,334.45742450000034,334.45742450000034,334.45742450000034,334.45742450000034,334.45742450000034,334.45742450000034,334.45742450000034,334.45742450000034,334.45742450000034,334.45742450000034,,004,P012,2025_Feb_08_1200,ConditionRich,2021.2.3,59.94592877182549,
295.75,296.0,41,0.0,Stimuli/Blank.png,0,0,0.0,0,125,125,125,,,,,,,,,,,,,295.7780770999998,0.028077099999791244,None,338.2274164999999,338.2274164999999,338.2274164999999,338.2274164999999,338.2274164999999,338.2274164999999,338.2274164999999,338.2274164999999,338.2274164999999,338.2274164999999,,004,P012,2025_Feb_08_1200,ConditionRich,2021.2.3,59.94592877182549,
296.0,299.75,33,0.75,Stimuli/P012/things_hot-air_balloon_06s.jpg,0,0,0.0,0,126,126,126,,,,,,,,,,,,,296.0286749000006,0.028674900000623893,None,338.4776488999996,338.4776488999996,338.4776488999996,338.4776488999996,338.4776488999996,338.4776488999996,338.4776488999996,338.4776488999996,338.4776488999996,338.4776488999996,,004,P012,2025_Feb_08_1200,ConditionRich,2021.2.3,59.94592877182549,
299.75,300.0,41,0.0,Stimuli/Blank.png,0,0,0.0,0,127,127,127,,,,,,,,,,,,,299.77953230000094,0.02953230000093754,None,342.21427740000036,342.21427740000036,342.21427740000036,342.21427740000036,342.21427740000036,342.21427740000036,342.21427740000036,342.21427740000036,342.21427740000036,342.21427740000036,,004,P012,2025_Feb_08_1200,ConditionRich,2021.2.3,59.94592877182549,
300.0,303.75,13,0.75,Stimuli/P012/sun_bjedvzikugwleyer.jpg,1,2,2.75,0,128,128,128,,,,,,,,,,,,,300.01380600000084,0.013806000000840868,2,342.46451999999954,342.46451999999954,342.46451999999954,342.46451999999954,342.46451999999954,342.46451999999954,344.4329041000001,345.1835609999998,342.46451999999954,342.46451999999954,2.574742500000866,004,P012,2025_Feb_08_1200,ConditionRich,2021.2.3,59.94592877182549,
303.75,304.0,41,0.0,Stimuli/Blank.png,0,0,0.0,0,129,129,129,,,,,,,,,,,,,303.7686177000014,0.01861770000141405,None,346.21782340000027,346.21782340000027,346.21782340000027,346.21782340000027,346.21782340000027,346.21782340000027,346.21782340000027,346.21782340000027,346.21782340000027,346.21782340000027,,004,P012,2025_Feb_08_1200,ConditionRich,2021.2.3,59.94592877182549,
304.0,307.75,20,0.75,Stimuli/P012/sun_ciifteeudwpxupnw.jpg,0,0,0.0,0,130,130,130,,,,,,,,,,,,,304.0193579000006,0.01935790000061388,None,346.46803269999873,346.46803269999873,346.46803269999873,346.46803269999873,346.46803269999873,346.46803269999873,346.46803269999873,346.46803269999873,346.46803269999873,346.46803269999873,,004,P012,2025_Feb_08_1200,ConditionRich,2021.2.3,59.94592877182549,
307.75,308.0,41,0.0,Stimuli/Blank.png,0,0,0.0,0,131,131,131,,,,,,,,,,,,,307.76992810000047,0.019928100000470295,None,350.2047540000003,350.2047540000003,350.2047540000003,350.2047540000003,350.2047540000003,350.2047540000003,350.2047540000003,350.2047540000003,350.2047540000003,350.2047540000003,,004,P012,2025_Feb_08_1200,ConditionRich,2021.2.3,59.94592877182549,
308.0,311.75,36,0.75,Stimuli/P012/things_shower_cap_06s.jpg,0,0,0.0,0,132,132,132,,,,,,,,,,,,,308.0038644000015,0.0038644000014755875,None,350.43821599999865,350.43821599999865,350.43821599999865,350.43821599999865,350.43821599999865,350.43821599999865,350.43821599999865,350.43821599999865,350.43821599999865,350.43821599999865,,004,P012,2025_Feb_08_1200,ConditionRich,2021.2.3,59.94592877182549,
311.75,312.0,41,0.0,Stimuli/Blank.png,0,0,0.0,0,133,133,133,,,,,,,,,,,,,311.7568372000005,0.006837200000518351,None,354.19153410000035,354.19153410000035,354.19153410000035,354.19153410000035,354.19153410000035,354.19153410000035,354.19153410000035,354.19153410000035,354.19153410000035,354.19153410000035,,004,P012,2025_Feb_08_1200,ConditionRich,2021.2.3,59.94592877182549,
312.0,315.75,26,0.75,Stimuli/P012/things_gazelle_06s.jpg,0,0,0.0,0,134,134,134,,,,,,,,,,,,,312.00879859999986,0.008798599999863654,None,354.45843909999894,354.45843909999894,354.45843909999894,354.45843909999894,354.45843909999894,354.45843909999894,354.45843909999894,354.45843909999894,354.45843909999894,354.45843909999894,,004,P012,2025_Feb_08_1200,ConditionRich,2021.2.3,59.94592877182549,
315.75,316.0,41,0.0,Stimuli/Blank.png,0,0,0.0,0,135,135,135,,,,,,,,,,,,,315.77832520000084,0.02832520000083605,None,358.2117602999988,358.2117602999988,358.2117602999988,358.2117602999988,358.2117602999988,358.2117602999988,358.2117602999988,358.2117602999988,358.2117602999988,358.2117602999988,,004,P012,2025_Feb_08_1200,ConditionRich,2021.2.3,59.94592877182549,
316.0,319.75,5,0.75,Stimuli/P012/sun_anfwllcezhlypoti.jpg,0,0,0.0,0,136,136,136,,,,,,,,,,,,,316.01044940000065,0.010449400000652531,None,358.44530229999873,358.44530229999873,358.44530229999873,358.44530229999873,358.44530229999873,358.44530229999873,358.44530229999873,358.44530229999873,358.44530229999873,358.44530229999873,,004,P012,2025_Feb_08_1200,ConditionRich,2021.2.3,59.94592877182549,
319.75,320.0,41,0.0,Stimuli/Blank.png,0,0,0.0,0,137,137,137,,,,,,,,,,,,,319.76403670000036,0.014036700000360725,None,362.1985920999996,362.1985920999996,362.1985920999996,362.1985920999996,362.1985920999996,362.1985920999996,362.1985920999996,362.1985920999996,362.1985920999996,362.1985920999996,,004,P012,2025_Feb_08_1200,ConditionRich,2021.2.3,59.94592877182549,
320.0,323.75,8,0.75,Stimuli/P012/sun_asppejhsplpizvag.jpg,0,0,0.0,0,138,138,138,,,,,,,,,,,,,320.01453630000105,0.01453630000105477,None,362.4488311999994,362.4488311999994,362.4488311999994,362.4488311999994,362.4488311999994,362.4488311999994,362.4488311999994,362.4488311999994,362.4488311999994,362.4488311999994,,004,P012,2025_Feb_08_1200,ConditionRich,2021.2.3,59.94592877182549,
323.75,324.0,41,0.0,Stimuli/Blank.png,0,0,0.0,0,139,139,139,,,,,,,,,,,,,323.75075650000144,0.0007565000014437828,None,366.1855756999994,366.1855756999994,366.1855756999994,366.1855756999994,366.1855756999994,366.1855756999994,366.1855756999994,366.1855756999994,366.1855756999994,366.1855756999994,,004,P012,2025_Feb_08_1200,ConditionRich,2021.2.3,59.94592877182549,
324.0,327.75,34,0.75,Stimuli/P012/things_polar_bear_06s.jpg,1,0,0.75,0,140,140,140,,,,,,,,,,,,,324.00239820000024,0.002398200000243378,2,366.452380499999,366.452380499999,366.452380499999,366.452380499999,366.452380499999,366.452380499999,366.452380499999,367.1696746999987,366.452380499999,366.452380499999,0.41251290000036533,004,P012,2025_Feb_08_1200,ConditionRich,2021.2.3,59.94592877182549,
327.75,328.0,41,0.0,Stimuli/Blank.png,0,0,0.0,0,141,141,141,,,,,,,,,,,,,327.7731738000002,0.0231738000002224,None,370.22239439999976,370.22239439999976,370.22239439999976,370.22239439999976,370.22239439999976,370.22239439999976,370.22239439999976,370.22239439999976,370.22239439999976,370.22239439999976,,004,P012,2025_Feb_08_1200,ConditionRich,2021.2.3,59.94592877182549,
328.0,331.75,6,0.75,Stimuli/P012/sun_aqysdudvyxnkcxgq.jpg,0,0,0.0,0,142,142,142,,,,,,,,,,,,,328.0243294000011,0.024329400001079193,None,370.47261009999966,370.47261009999966,370.47261009999966,370.47261009999966,370.47261009999966,370.47261009999966,370.47261009999966,370.47261009999966,370.47261009999966,370.47261009999966,,004,P012,2025_Feb_08_1200,ConditionRich,2021.2.3,59.94592877182549,
331.75,332.0,41,0.0,Stimuli/Blank.png,0,0,0.0,0,143,143,143,,,,,,,,,,,,,331.7748244000013,0.024824400001307367,None,374.2092464999987,374.2092464999987,374.2092464999987,374.2092464999987,374.2092464999987,374.2092464999987,374.2092464999987,374.2092464999987,374.2092464999987,374.2092464999987,,004,P012,2025_Feb_08_1200,ConditionRich,2021.2.3,59.94592877182549,
332.0,335.75,28,0.75,Stimuli/P012/things_grasshopper_06s.jpg,0,0,0.0,0,144,144,144,,,,,,,,,,,,,332.00853370000004,0.00853370000004361,None,374.4427861000004,374.4427861000004,374.4427861000004,374.4427861000004,374.4427861000004,374.4427861000004,374.4427861000004,374.4427861000004,374.4427861000004,374.4427861000004,,004,P012,2025_Feb_08_1200,ConditionRich,2021.2.3,59.94592877182549,
335.75,336.0,41,0.0,Stimuli/Blank.png,0,0,0.0,0,145,145,145,,,,,,,,,,,,,335.76350000000093,0.013500000000931323,None,378.21278170000005,378.21278170000005,378.21278170000005,378.21278170000005,378.21278170000005,378.21278170000005,378.21278170000005,378.21278170000005,378.21278170000005,378.21278170000005,,004,P012,2025_Feb_08_1200,ConditionRich,2021.2.3,59.94592877182549,
336.0,339.75,40,0.75,Stimuli/P012/things_woman_06s.jpg,0,0,0.0,0,146,146,146,,,,,,,,,,,,,336.0296441999999,0.029644199999893317,None,378.47968579999906,378.47968579999906,378.47968579999906,378.47968579999906,378.47968579999906,378.47968579999906,378.47968579999906,378.47968579999906,378.47968579999906,378.47968579999906,,004,P012,2025_Feb_08_1200,ConditionRich,2021.2.3,59.94592877182549,
339.75,340.0,41,0.0,Stimuli/Blank.png,0,0,0.0,0,147,147,147,,,,,,,,,,,,,339.76631720000114,0.01631720000114001,None,382.1996533999991,382.1996533999991,382.1996533999991,382.1996533999991,382.1996533999991,382.1996533999991,382.1996533999991,382.1996533999991,382.1996533999991,382.1996533999991,,004,P012,2025_Feb_08_1200,ConditionRich,2021.2.3,59.94592877182549,
340.0,343.75,2,0.75,Stimuli/P012/sun_aewhvqonribwlxiq.jpg,0,0,0.0,0,148,148,148,,,,,,,,,,,,,339.99909040000057,-0.0009095999994315207,None,382.4331829999992,382.4331829999992,382.4331829999992,382.4331829999992,382.4331829999992,382.4331829999992,382.4331829999992,382.4331829999992,382.4331829999992,382.4331829999992,,004,P012,2025_Feb_08_1200,ConditionRich,2021.2.3,59.94592877182549,
343.75,344.0,41,0.0,Stimuli/Blank.png,0,0,0.0,0,149,149,149,,,,,,,,,,,,,343.7536732999997,0.003673299999718438,None,386.20318509999925,386.20318509999925,386.20318509999925,386.20318509999925,386.20318509999925,386.20318509999925,386.20318509999925,386.20318509999925,386.20318509999925,386.20318509999925,,004,P012,2025_Feb_08_1200,ConditionRich,2021.2.3,59.94592877182549,
344.0,347.75,21,0.75,Stimuli/P012/things_baby_06s.jpg,0,0,0.0,0,150,150,150,,,,,,,,,,,,,344.01848990000144,0.01848990000144113,None,386.45340039999974,386.45340039999974,386.45340039999974,386.45340039999974,386.45340039999974,386.45340039999974,386.45340039999974,386.45340039999974,386.45340039999974,386.45340039999974,,004,P012,2025_Feb_08_1200,ConditionRich,2021.2.3,59.94592877182549,
347.75,348.0,41,0.0,Stimuli/Blank.png,0,0,0.0,0,151,151,151,,,,,,,,,,,,,347.7552108,0.005210799999986193,None,390.1900506999991,390.1900506999991,390.1900506999991,390.1900506999991,390.1900506999991,390.1900506999991,390.1900506999991,390.1900506999991,390.1900506999991,390.1900506999991,,004,P012,2025_Feb_08_1200,ConditionRich,2021.2.3,59.94592877182549,
348.0,351.75,19,0.75,Stimuli/P012/sun_byvwakrdyukjigpc.jpg,1,3,3.75,0,152,152,152,,,,,,,,,,,,,348.0056381000013,0.005638100001306157,2,390.4408676000003,390.4408676000003,390.4408676000003,390.4408676000003,390.4408676000003,390.4408676000003,393.4262612000002,394.17689119999886,390.4408676000003,390.4408676000003,3.668981499999063,004,P012,2025_Feb_08_1200,ConditionRich,2021.2.3,59.94592877182549,
351.75,352.0,41,0.0,Stimuli/Blank.png,0,0,0.0,0,153,153,153,,,,,,,,,,,,,351.75974360000146,0.009743600001456798,None,394.1935870999987,394.1935870999987,394.1935870999987,394.1935870999987,394.1935870999987,394.1935870999987,394.1935870999987,394.1935870999987,394.1935870999987,394.1935870999987,,004,P012,2025_Feb_08_1200,ConditionRich,2021.2.3,59.94592877182549,
352.0,355.75,9,0.75,Stimuli/P012/sun_aupohozmrmtfgcsw.jpg,1,1,1.75,0,154,154,154,,,,,,,,,,,,,352.0089800000005,0.008980000000519794,2,394.44380399999864,394.44380399999864,394.44380399999864,394.44380399999864,394.44380399999864,394.44380399999864,395.42800050000005,396.1786586999988,394.44380399999864,394.44380399999864,1.410048800000368,004,P012,2025_Feb_08_1200,ConditionRich,2021.2.3,59.94592877182549,
355.75,356.0,41,0.0,Stimuli/Blank.png,0,0,0.0,0,155,155,155,,,,,,,,,,,,,355.7623287000006,0.012328700000580284,None,398.19709259999945,398.19709259999945,398.19709259999945,398.19709259999945,398.19709259999945,398.19709259999945,398.19709259999945,398.19709259999945,398.19709259999945,398.19709259999945,,004,P012,2025_Feb_08_1200,ConditionRich,2021.2.3,59.94592877182549,
356.0,359.75,1,0.75,Stimuli/P012/sun_aeakbqnvptdnxtno.jpg,0,0,0.0,0,156,156,156,,,,,,,,,,,,,356.01359610000145,0.013596100001450395,None,398.4640409000003,398.4640409000003,398.4640409000003,398.4640409000003,398.4640409000003,398.4640409000003,398.4640409000003,398.4640409000003,398.4640409000003,398.4640409000003,,004,P012,2025_Feb_08_1200,ConditionRich,2021.2.3,59.94592877182549,
359.75,360.0,41,0.0,Stimuli/Blank.png,0,0,0.0,0,157,157,157,,,,,,,,,,,,,359.76831219999985,0.018312199999854784,None,402.21734730000026,402.21734730000026,402.21734730000026,402.21734730000026,402.21734730000026,402.21734730000026,402.21734730000026,402.21734730000026,402.21734730000026,402.21734730000026,,004,P012,2025_Feb_08_1200,ConditionRich,2021.2.3,59.94592877182549,
360.0,363.75,14,0.75,Stimuli/P012/sun_blybvkoucskrdgiv.jpg,0,0,0.0,0,158,158,158,,,,,,,,,,,,,360.0181485000012,0.01814850000118895,None,402.4675862999993,402.4675862999993,402.4675862999993,402.4675862999993,402.4675862999993,402.4675862999993,402.4675862999993,402.4675862999993,402.4675862999993,402.4675862999993,,004,P012,2025_Feb_08_1200,ConditionRich,2021.2.3,59.94592877182549,
363.75,364.0,41,0.0,Stimuli/Blank.png,0,0,0.0,0,159,159,159,,,,,,,,,,,,,363.7701369000006,0.02013690000057977,None,406.2042900999986,406.2042900999986,406.2042900999986,406.2042900999986,406.2042900999986,406.2042900999986,406.2042900999986,406.2042900999986,406.2042900999986,406.2042900999986,,004,P012,2025_Feb_08_1200,ConditionRich,2021.2.3,59.94592877182549,
364.0,367.75,39,0.75,Stimuli/P012/things_thermometer_06s.jpg,0,0,0.0,0,160,160,160,,,,,,,,,,,,,364.0032578999999,0.0032578999998804647,None,406.4377977999993,406.4377977999993,406.4377977999993,406.4377977999993,406.4377977999993,406.4377977999993,406.4377977999993,406.4377977999993,406.4377977999993,406.4377977999993,,004,P012,2025_Feb_08_1200,ConditionRich,2021.2.3,59.94592877182549,
367.75,368.0,41,0.0,Stimuli/Blank.png,0,0,0.0,0,161,161,161,,,,,,,,,,,,,367.75736810000126,0.007368100001258426,None,410.19108199999937,410.19108199999937,410.19108199999937,410.19108199999937,410.19108199999937,410.19108199999937,410.19108199999937,410.19108199999937,410.19108199999937,410.19108199999937,,004,P012,2025_Feb_08_1200,ConditionRich,2021.2.3,59.94592877182549,
368.0,371.75,23,0.75,Stimuli/P012/things_clove_06s.jpg,0,0,0.0,0,162,162,162,,,,,,,,,,,,,368.00916510000025,0.00916510000024573,None,410.4579837000001,410.4579837000001,410.4579837000001,410.4579837000001,410.4579837000001,410.4579837000001,410.4579837000001,410.4579837000001,410.4579837000001,410.4579837000001,,004,P012,2025_Feb_08_1200,ConditionRich,2021.2.3,59.94592877182549,
371.75,372.0,41,0.0,Stimuli/Blank.png,0,0,0.0,0,163,163,163,,,,,,,,,,,,,371.77936969999973,0.02936969999973371,None,414.2279751999995,414.2279751999995,414.2279751999995,414.2279751999995,414.2279751999995,414.2279751999995,414.2279751999995,414.2279751999995,414.2279751999995,414.2279751999995,,004,P012,2025_Feb_08_1200,ConditionRich,2021.2.3,59.94592877182549,
372.0,388.0,0,0.0,Stimuli/Blank.png,1,2,2.75,0,164,164,164,,,,,,,,,,,,,372.0279827000013,0.027982700001302874,2,414.4615233000004,414.4615233000004,414.4615233000004,414.4615233000004,414.4615233000004,414.4615233000004,416.44658229999914,417.19726029999947,414.4615233000004,414.4615233000004,2.3873318000005384,004,P012,2025_Feb_08_1200,ConditionRich,2021.2.3,59.94592877182549,
