eventStartTime,eventEndTime,eventCond,imSize,imFile,responseEvent,fixRespStart,fixRespEnd,Events.thisRepN,Events.thisTrialN,Events.thisN,Events.thisIndex,Instructions.started,Instructions.stopped,participantReadyResponse.keys,participantReadyResponse.rt,participantReadyResponse.started,participantReadyResponse.stopped,startWaitforTrigger,triggerResponse.keys,triggerResponse.rt,triggerResponse.started,triggerResponse.stopped,globalTimer,actualStartTime,startTimingDiff,participantResponse.keys,participantResponse.started,participantResponse.stopped,image.started,image.stopped,fixationOutside.started,fixationOutside.stopped,fixationResponse.started,fixationResponse.stopped,fixationInside.started,fixationInside.stopped,participantResponse.rt,session,participant,date,expName,psychopyVersion,frameRate,
,,,,,,,,,,,,11.495175899999595,None,2,14.155900100000508,11.495175899999595,None,,,,,,,,,,,,,,,,,,,,,007,P012,2025_Feb_08_1228,ConditionRich,2021.2.3,59.99692815724245,
,,,,,,,,,,,,,,,,,,25.667921100000967,5,13.331001399999877,25.681191900001068,None,,,,,,,,,,,,,,,,007,P012,2025_Feb_08_1228,ConditionRich,2021.2.3,59.99692815724245,
0.0,4.0,0,0.0,Stimuli/Blank.png,0,0,0.0,0,0,0,0,,,,,,,,,,,,39.02964410000095,0.04612079999969865,0.04612079999969865,None,39.09302430000025,None,39.09302430000025,None,39.09302430000025,None,39.09302430000025,39.09302430000025,39.09302430000025,None,,007,P012,2025_Feb_08_1228,ConditionRich,2021.2.3,59.99692815724245,
4.0,7.75,14,0.75,Stimuli/P012/sun_blybvkoucskrdgiv.jpg,0,0,0.0,0,1,1,1,,,,,,,,,,,,,4.0029971999992995,0.0029971999992994824,None,43.063455700001214,43.063455700001214,43.063455700001214,43.063455700001214,43.063455700001214,43.063455700001214,43.063455700001214,43.063455700001214,43.063455700001214,43.063455700001214,,007,P012,2025_Feb_08_1228,ConditionRich,2021.2.3,59.99692815724245,
7.75,8.0,41,0.0,Stimuli/Blank.png,0,0,0.0,0,2,2,2,,,,,,,,,,,,,7.772363199999745,0.02236319999974512,None,46.81679330000043,46.81679330000043,46.81679330000043,46.81679330000043,46.81679330000043,46.81679330000043,46.81679330000043,46.81679330000043,46.81679330000043,46.81679330000043,,007,P012,2025_Feb_08_1228,ConditionRich,2021.2.3,59.99692815724245,
8.0,11.75,18,0.75,Stimuli/P012/sun_bxlbxustiovyqyrg.jpg,0,0,0.0,0,3,3,3,,,,,,,,,,,,,8.006406599999536,0.006406599999536411,None,47.05004220000046,47.05004220000046,47.05004220000046,47.05004220000046,47.05004220000046,47.05004220000046,47.05004220000046,47.05004220000046,47.05004220000046,47.05004220000046,,007,P012,2025_Feb_08_1228,ConditionRich,2021.2.3,59.99692815724245,
11.75,12.0,41,0.0,Stimuli/Blank.png,0,0,0.0,0,4,4,4,,,,,,,,,,,,,11.761172799999258,0.011172799999258132,None,50.82005930000014,50.82005930000014,50.82005930000014,50.82005930000014,50.82005930000014,50.82005930000014,50.82005930000014,50.82005930000014,50.82005930000014,50.82005930000014,,007,P012,2025_Feb_08_1228,ConditionRich,2021.2.3,59.99692815724245,
12.0,15.75,37,0.75,Stimuli/P012/things_spam_06s.jpg,0,0,0.0,0,5,5,5,,,,,,,,,,,,,12.027247800000623,0.0272478000006231,None,51.086970100001054,51.086970100001054,51.086970100001054,51.086970100001054,51.086970100001054,51.086970100001054,51.086970100001054,51.086970100001054,51.086970100001054,51.086970100001054,,007,P012,2025_Feb_08_1228,ConditionRich,2021.2.3,59.99692815724245,
15.75,16.0,41,0.0,Stimuli/Blank.png,0,0,0.0,0,6,6,6,,,,,,,,,,,,,15.781337200000053,0.03133720000005269,None,54.840285199999926,54.840285199999926,54.840285199999926,54.840285199999926,54.840285199999926,54.840285199999926,54.840285199999926,54.840285199999926,54.840285199999926,54.840285199999926,,007,P012,2025_Feb_08_1228,ConditionRich,2021.2.3,59.99692815724245,
16.0,19.75,1,0.75,Stimuli/P012/sun_aeakbqnvptdnxtno.jpg,0,0,0.0,0,7,7,7,,,,,,,,,,,,,16.03259479999906,0.03259479999906034,None,55.09051410000029,55.09051410000029,55.09051410000029,55.09051410000029,55.09051410000029,55.09051410000029,55.09051410000029,55.09051410000029,55.09051410000029,55.09051410000029,,007,P012,2025_Feb_08_1228,ConditionRich,2021.2.3,59.99692815724245,
19.75,20.0,41,0.0,Stimuli/Blank.png,0,0,0.0,0,8,8,8,,,,,,,,,,,,,19.767723099999785,0.01772309999978461,None,58.82715439999993,58.82715439999993,58.82715439999993,58.82715439999993,58.82715439999993,58.82715439999993,58.82715439999993,58.82715439999993,58.82715439999993,58.82715439999993,,007,P012,2025_Feb_08_1228,ConditionRich,2021.2.3,59.99692815724245,
20.0,23.75,36,0.75,Stimuli/P012/things_shower_cap_06s.jpg,0,0,0.0,0,9,9,9,,,,,,,,,,,,,20.016422700000476,0.016422700000475743,None,59.06068779999987,59.06068779999987,59.06068779999987,59.06068779999987,59.06068779999987,59.06068779999987,59.06068779999987,59.06068779999987,59.06068779999987,59.06068779999987,,007,P012,2025_Feb_08_1228,ConditionRich,2021.2.3,59.99692815724245,
23.75,24.0,41,0.0,Stimuli/Blank.png,0,0,0.0,0,10,10,10,,,,,,,,,,,,,23.753113000000667,0.0031130000006669434,None,62.79730290000043,62.79730290000043,62.79730290000043,62.79730290000043,62.79730290000043,62.79730290000043,62.79730290000043,62.79730290000043,62.79730290000043,62.79730290000043,,007,P012,2025_Feb_08_1228,ConditionRich,2021.2.3,59.99692815724245,
24.0,27.75,3,0.75,Stimuli/P012/sun_afdaynbvsppiyvxm.jpg,0,0,0.0,0,11,11,11,,,,,,,,,,,,,24.003434800000832,0.0034348000008321833,None,63.06423090000135,63.06423090000135,63.06423090000135,63.06423090000135,63.06423090000135,63.06423090000135,63.06423090000135,63.06423090000135,63.06423090000135,63.06423090000135,,007,P012,2025_Feb_08_1228,ConditionRich,2021.2.3,59.99692815724245,
27.75,28.0,41,0.0,Stimuli/Blank.png,0,0,0.0,0,12,12,12,,,,,,,,,,,,,27.773190899999463,0.023190899999463,None,66.81753380000009,66.81753380000009,66.81753380000009,66.81753380000009,66.81753380000009,66.81753380000009,66.81753380000009,66.81753380000009,66.81753380000009,66.81753380000009,,007,P012,2025_Feb_08_1228,ConditionRich,2021.2.3,59.99692815724245,
28.0,31.75,16,0.75,Stimuli/P012/sun_bpuwvyadswjfoaby.jpg,0,0,0.0,0,13,13,13,,,,,,,,,,,,,28.00686300000052,0.006863000000521424,None,67.05106850000084,67.05106850000084,67.05106850000084,67.05106850000084,67.05106850000084,67.05106850000084,67.05106850000084,67.05106850000084,67.05106850000084,67.05106850000084,,007,P012,2025_Feb_08_1228,ConditionRich,2021.2.3,59.99692815724245,
31.75,32.0,41,0.0,Stimuli/Blank.png,0,0,0.0,0,14,14,14,,,,,,,,,,,,,31.76085129999956,0.01085129999955825,None,70.80440199999975,70.80440199999975,70.80440199999975,70.80440199999975,70.80440199999975,70.80440199999975,70.80440199999975,70.80440199999975,70.80440199999975,70.80440199999975,,007,P012,2025_Feb_08_1228,ConditionRich,2021.2.3,59.99692815724245,
32.0,35.75,23,0.75,Stimuli/P012/things_clove_06s.jpg,0,0,0.0,0,15,15,15,,,,,,,,,,,,,32.01103899999907,0.011038999999072985,None,71.05462070000067,71.05462070000067,71.05462070000067,71.05462070000067,71.05462070000067,71.05462070000067,71.05462070000067,71.05462070000067,71.05462070000067,71.05462070000067,,007,P012,2025_Feb_08_1228,ConditionRich,2021.2.3,59.99692815724245,
35.75,36.0,41,0.0,Stimuli/Blank.png,0,0,0.0,0,16,16,16,,,,,,,,,,,,,35.763653500000146,0.013653500000145868,None,74.80799810000099,74.80799810000099,74.80799810000099,74.80799810000099,74.80799810000099,74.80799810000099,74.80799810000099,74.80799810000099,74.80799810000099,74.80799810000099,,007,P012,2025_Feb_08_1228,ConditionRich,2021.2.3,59.99692815724245,
36.0,39.75,35,0.75,Stimuli/P012/things_raccoon_06n.jpg,0,0,0.0,0,17,17,17,,,,,,,,,,,,,36.01671560000068,0.016715600000679842,None,75.0748593999997,75.0748593999997,75.0748593999997,75.0748593999997,75.0748593999997,75.0748593999997,75.0748593999997,75.0748593999997,75.0748593999997,75.0748593999997,,007,P012,2025_Feb_08_1228,ConditionRich,2021.2.3,59.99692815724245,
39.75,40.0,41,0.0,Stimuli/Blank.png,0,0,0.0,0,18,18,18,,,,,,,,,,,,,39.76831149999998,0.018311499999981606,None,78.81147070000043,78.81147070000043,78.81147070000043,78.81147070000043,78.81147070000043,78.81147070000043,78.81147070000043,78.81147070000043,78.81147070000043,78.81147070000043,,007,P012,2025_Feb_08_1228,ConditionRich,2021.2.3,59.99692815724245,
40.0,43.75,13,0.75,Stimuli/P012/sun_bjedvzikugwleyer.jpg,0,0,0.0,0,19,19,19,,,,,,,,,,,,,40.001019900000756,0.0010199000007560244,None,79.04501920000075,79.04501920000075,79.04501920000075,79.04501920000075,79.04501920000075,79.04501920000075,79.04501920000075,79.04501920000075,79.04501920000075,79.04501920000075,,007,P012,2025_Feb_08_1228,ConditionRich,2021.2.3,59.99692815724245,
43.75,44.0,41,0.0,Stimuli/Blank.png,0,0,0.0,0,20,20,20,,,,,,,,,,,,,43.75541460000022,0.005414600000221981,None,82.79834350000056,82.79834350000056,82.79834350000056,82.79834350000056,82.79834350000056,82.79834350000056,82.79834350000056,82.79834350000056,82.79834350000056,82.79834350000056,,007,P012,2025_Feb_08_1228,ConditionRich,2021.2.3,59.99692815724245,
44.0,47.75,40,0.75,Stimuli/P012/things_woman_06s.jpg,0,0,0.0,0,21,21,21,,,,,,,,,,,,,44.005794000000606,0.0057940000006055925,None,83.06523340000058,83.06523340000058,83.06523340000058,83.06523340000058,83.06523340000058,83.06523340000058,83.06523340000058,83.06523340000058,83.06523340000058,83.06523340000058,,007,P012,2025_Feb_08_1228,ConditionRich,2021.2.3,59.99692815724245,
47.75,48.0,41,0.0,Stimuli/Blank.png,0,0,0.0,0,22,22,22,,,,,,,,,,,,,47.77656869999919,0.02656869999918854,None,86.83523989999958,86.83523989999958,86.83523989999958,86.83523989999958,86.83523989999958,86.83523989999958,86.83523989999958,86.83523989999958,86.83523989999958,86.83523989999958,,007,P012,2025_Feb_08_1228,ConditionRich,2021.2.3,59.99692815724245,
48.0,51.75,29,0.75,Stimuli/P012/things_gutter_06s.jpg,1,0,0.75,0,23,23,23,,,,,,,,,,,,,48.02739889999975,0.027398899999752757,2,87.08546100000058,87.08546100000058,87.08546100000058,87.08546100000058,87.08546100000058,87.08546100000058,87.08546100000058,87.81943590000083,87.08546100000058,87.08546100000058,0.47365110000100685,007,P012,2025_Feb_08_1228,ConditionRich,2021.2.3,59.99692815724245,
51.75,52.0,41,0.0,Stimuli/Blank.png,0,0,0.0,0,24,24,24,,,,,,,,,,,,,51.77803630000017,0.028036300000167103,None,90.82210040000064,90.82210040000064,90.82210040000064,90.82210040000064,90.82210040000064,90.82210040000064,90.82210040000064,90.82210040000064,90.82210040000064,90.82210040000064,,007,P012,2025_Feb_08_1228,ConditionRich,2021.2.3,59.99692815724245,
52.0,55.75,4,0.75,Stimuli/P012/sun_akpdzjejmtbfopdt.jpg,1,1,1.75,0,25,25,25,,,,,,,,,,,,,52.012009500000204,0.012009500000203843,2,91.05563849999999,91.05563849999999,91.05563849999999,91.05563849999999,91.05563849999999,91.05563849999999,92.03980990000127,92.79049880000093,91.05563849999999,91.05563849999999,1.4004362000014225,007,P012,2025_Feb_08_1228,ConditionRich,2021.2.3,59.99692815724245,
55.75,56.0,41,0.0,Stimuli/Blank.png,0,0,0.0,0,26,26,26,,,,,,,,,,,,,55.7668565999993,0.01685659999930067,None,94.82563590000063,94.82563590000063,94.82563590000063,94.82563590000063,94.82563590000063,94.82563590000063,94.82563590000063,94.82563590000063,94.82563590000063,94.82563590000063,,007,P012,2025_Feb_08_1228,ConditionRich,2021.2.3,59.99692815724245,
56.0,59.75,6,0.75,Stimuli/P012/sun_aqysdudvyxnkcxgq.jpg,0,0,0.0,0,27,27,27,,,,,,,,,,,,,56.01571110000077,0.015711100000771694,None,95.07585710000058,95.07585710000058,95.07585710000058,95.07585710000058,95.07585710000058,95.07585710000058,95.07585710000058,95.07585710000058,95.07585710000058,95.07585710000058,,007,P012,2025_Feb_08_1228,ConditionRich,2021.2.3,59.99692815724245,
59.75,60.0,41,0.0,Stimuli/Blank.png,0,0,0.0,0,28,28,28,,,,,,,,,,,,,59.768176600000515,0.018176600000515464,None,98.81248950000008,98.81248950000008,98.81248950000008,98.81248950000008,98.81248950000008,98.81248950000008,98.81248950000008,98.81248950000008,98.81248950000008,98.81248950000008,,007,P012,2025_Feb_08_1228,ConditionRich,2021.2.3,59.99692815724245,
60.0,63.75,2,0.75,Stimuli/P012/sun_aewhvqonribwlxiq.jpg,1,3,3.75,0,29,29,29,,,,,,,,,,,,,60.002457599999616,0.0024575999996159226,2,99.04604950000066,99.04604950000066,99.04604950000066,99.04604950000066,99.04604950000066,99.04604950000066,102.03200240000115,102.78272620000098,99.04604950000066,99.04604950000066,3.4630496999998286,007,P012,2025_Feb_08_1228,ConditionRich,2021.2.3,59.99692815724245,
63.75,64.0,41,0.0,Stimuli/Blank.png,0,0,0.0,0,30,30,30,,,,,,,,,,,,,63.755877300000066,0.005877300000065588,None,102.79936260000068,102.79936260000068,102.79936260000068,102.79936260000068,102.79936260000068,102.79936260000068,102.79936260000068,102.79936260000068,102.79936260000068,102.79936260000068,,007,P012,2025_Feb_08_1228,ConditionRich,2021.2.3,59.99692815724245,
64.0,67.75,22,0.75,Stimuli/P012/things_boy_06s.jpg,0,0,0.0,0,31,31,31,,,,,,,,,,,,,64.0055725000002,0.005572500000198488,None,103.04957509999986,103.04957509999986,103.04957509999986,103.04957509999986,103.04957509999986,103.04957509999986,103.04957509999986,103.04957509999986,103.04957509999986,103.04957509999986,,007,P012,2025_Feb_08_1228,ConditionRich,2021.2.3,59.99692815724245,
67.75,68.0,41,0.0,Stimuli/Blank.png,0,0,0.0,0,32,32,32,,,,,,,,,,,,,67.75866590000078,0.008665900000778493,None,106.80290179999974,106.80290179999974,106.80290179999974,106.80290179999974,106.80290179999974,106.80290179999974,106.80290179999974,106.80290179999974,106.80290179999974,106.80290179999974,,007,P012,2025_Feb_08_1228,ConditionRich,2021.2.3,59.99692815724245,
68.0,71.75,7,0.75,Stimuli/P012/sun_arugqgwhwdjxezyt.jpg,0,0,0.0,0,33,33,33,,,,,,,,,,,,,68.00886910000008,0.008869100000083563,None,107.06982450000032,107.06982450000032,107.06982450000032,107.06982450000032,107.06982450000032,107.06982450000032,107.06982450000032,107.06982450000032,107.06982450000032,107.06982450000032,,007,P012,2025_Feb_08_1228,ConditionRich,2021.2.3,59.99692815724245,
71.75,72.0,41,0.0,Stimuli/Blank.png,0,0,0.0,0,34,34,34,,,,,,,,,,,,,71.78122629999962,0.031226299999616458,None,110.8231467000005,110.8231467000005,110.8231467000005,110.8231467000005,110.8231467000005,110.8231467000005,110.8231467000005,110.8231467000005,110.8231467000005,110.8231467000005,,007,P012,2025_Feb_08_1228,ConditionRich,2021.2.3,59.99692815724245,
72.0,75.75,15,0.75,Stimuli/P012/sun_bmngnyuahubpqroh.jpg,0,0,0.0,0,35,35,35,,,,,,,,,,,,,72.01279579999937,0.012795799999366864,None,111.0571318000002,111.0571318000002,111.0571318000002,111.0571318000002,111.0571318000002,111.0571318000002,111.0571318000002,111.0571318000002,111.0571318000002,111.0571318000002,,007,P012,2025_Feb_08_1228,ConditionRich,2021.2.3,59.99692815724245,
75.75,76.0,41,0.0,Stimuli/Blank.png,0,0,0.0,0,36,36,36,,,,,,,,,,,,,75.75146630000017,0.0014663000001746695,None,114.80998630000067,114.80998630000067,114.80998630000067,114.80998630000067,114.80998630000067,114.80998630000067,114.80998630000067,114.80998630000067,114.80998630000067,114.80998630000067,,007,P012,2025_Feb_08_1228,ConditionRich,2021.2.3,59.99692815724245,
76.0,79.75,30,0.75,Stimuli/P012/things_hamburger_06s.jpg,1,0,0.75,0,37,37,37,,,,,,,,,,,,,76.01747179999984,0.017471799999839277,2,115.07688990000133,115.07688990000133,115.07688990000133,115.07688990000133,115.07688990000133,115.07688990000133,115.07688990000133,115.79419580000103,115.07688990000133,115.07688990000133,0.5202360999992379,007,P012,2025_Feb_08_1228,ConditionRich,2021.2.3,59.99692815724245,
79.75,80.0,41,0.0,Stimuli/Blank.png,0,0,0.0,0,38,38,38,,,,,,,,,,,,,79.77162580000004,0.021625800000037998,None,118.83020980000038,118.83020980000038,118.83020980000038,118.83020980000038,118.83020980000038,118.83020980000038,118.83020980000038,118.83020980000038,118.83020980000038,118.83020980000038,,007,P012,2025_Feb_08_1228,ConditionRich,2021.2.3,59.99692815724245,
80.0,83.75,21,0.75,Stimuli/P012/things_baby_06s.jpg,0,0,0.0,0,39,39,39,,,,,,,,,,,,,80.02265540000008,0.022655400000076042,None,119.08164880000004,119.08164880000004,119.08164880000004,119.08164880000004,119.08164880000004,119.08164880000004,119.08164880000004,119.08164880000004,119.08164880000004,119.08164880000004,,007,P012,2025_Feb_08_1228,ConditionRich,2021.2.3,59.99692815724245,
83.75,84.0,41,0.0,Stimuli/Blank.png,0,0,0.0,0,40,40,40,,,,,,,,,,,,,83.77369360000012,0.02369360000011511,None,122.81707880000067,122.81707880000067,122.81707880000067,122.81707880000067,122.81707880000067,122.81707880000067,122.81707880000067,122.81707880000067,122.81707880000067,122.81707880000067,,007,P012,2025_Feb_08_1228,ConditionRich,2021.2.3,59.99692815724245,
84.0,100.0,0,0.0,Stimuli/Blank.png,1,13,13.75,0,41,41,41,,,,,,,,,,,,,84.00651350000044,0.006513500000437489,2,123.05064029999994,123.05064029999994,123.05064029999994,123.05064029999994,123.05064029999994,123.05064029999994,136.02874960000008,136.78054730000076,123.05064029999994,123.05064029999994,13.928428600000188,007,P012,2025_Feb_08_1228,ConditionRich,2021.2.3,59.99692815724245,
100.0,103.75,8,0.75,Stimuli/P012/sun_asppejhsplpizvag.jpg,1,3,3.75,0,42,42,42,,,,,,,,,,,,,100.00392450000072,0.003924500000721309,2,139.04805750000014,139.04805750000014,139.04805750000014,139.04805750000014,139.04805750000014,139.04805750000014,142.034055600001,142.7847273999996,139.04805750000014,139.04805750000014,3.341344600001321,007,P012,2025_Feb_08_1228,ConditionRich,2021.2.3,59.99692815724245,
103.75,104.0,41,0.0,Stimuli/Blank.png,0,0,0.0,0,43,43,43,,,,,,,,,,,,,103.75749799999903,0.00749799999903189,None,142.8014060000005,142.8014060000005,142.8014060000005,142.8014060000005,142.8014060000005,142.8014060000005,142.8014060000005,142.8014060000005,142.8014060000005,142.8014060000005,,007,P012,2025_Feb_08_1228,ConditionRich,2021.2.3,59.99692815724245,
104.0,107.75,11,0.75,Stimuli/P012/sun_baylllqlgfvxilor.jpg,0,0,0.0,0,44,44,44,,,,,,,,,,,,,104.0083451999999,0.008345199999894248,None,143.06831020000027,143.06831020000027,143.06831020000027,143.06831020000027,143.06831020000027,143.06831020000027,143.06831020000027,143.06831020000027,143.06831020000027,143.06831020000027,,007,P012,2025_Feb_08_1228,ConditionRich,2021.2.3,59.99692815724245,
107.75,108.0,41,0.0,Stimuli/Blank.png,0,0,0.0,0,45,45,45,,,,,,,,,,,,,107.77750500000002,0.02750500000001921,None,146.82172400000127,146.82172400000127,146.82172400000127,146.82172400000127,146.82172400000127,146.82172400000127,146.82172400000127,146.82172400000127,146.82172400000127,146.82172400000127,,007,P012,2025_Feb_08_1228,ConditionRich,2021.2.3,59.99692815724245,
108.0,111.75,26,0.75,Stimuli/P012/things_gazelle_06s.jpg,0,0,0.0,0,46,46,46,,,,,,,,,,,,,108.01147700000001,0.011477000000013504,None,147.05516800000078,147.05516800000078,147.05516800000078,147.05516800000078,147.05516800000078,147.05516800000078,147.05516800000078,147.05516800000078,147.05516800000078,147.05516800000078,,007,P012,2025_Feb_08_1228,ConditionRich,2021.2.3,59.99692815724245,
111.75,112.0,41,0.0,Stimuli/Blank.png,0,0,0.0,0,47,47,47,,,,,,,,,,,,,111.7671621999998,0.017162199999802397,None,150.82518210000126,150.82518210000126,150.82518210000126,150.82518210000126,150.82518210000126,150.82518210000126,150.82518210000126,150.82518210000126,150.82518210000126,150.82518210000126,,007,P012,2025_Feb_08_1228,ConditionRich,2021.2.3,59.99692815724245,
112.0,115.75,32,0.75,Stimuli/P012/things_hood_06s.jpg,0,0,0.0,0,48,48,48,,,,,,,,,,,,,112.01679479999984,0.016794799999843235,None,151.07539440000073,151.07539440000073,151.07539440000073,151.07539440000073,151.07539440000073,151.07539440000073,151.07539440000073,151.07539440000073,151.07539440000073,151.07539440000073,,007,P012,2025_Feb_08_1228,ConditionRich,2021.2.3,59.99692815724245,
115.75,116.0,41,0.0,Stimuli/Blank.png,0,0,0.0,0,49,49,49,,,,,,,,,,,,,115.7679191999996,0.017919199999596458,None,154.8120798,154.8120798,154.8120798,154.8120798,154.8120798,154.8120798,154.8120798,154.8120798,154.8120798,154.8120798,,007,P012,2025_Feb_08_1228,ConditionRich,2021.2.3,59.99692815724245,
116.0,119.75,10,0.75,Stimuli/P012/sun_awufkrkrdrdbvvis.jpg,1,1,1.75,0,50,50,50,,,,,,,,,,,,,116.0020241000002,0.002024100000198814,2,155.0455662000004,155.0455662000004,155.0455662000004,155.0455662000004,155.0455662000004,155.0455662000004,156.02974300000096,156.7804372999999,155.0455662000004,155.0455662000004,1.3696505999996589,007,P012,2025_Feb_08_1228,ConditionRich,2021.2.3,59.99692815724245,
119.75,120.0,41,0.0,Stimuli/Blank.png,0,0,0.0,0,51,51,51,,,,,,,,,,,,,119.75478280000061,0.004782800000612042,None,158.79889019999973,158.79889019999973,158.79889019999973,158.79889019999973,158.79889019999973,158.79889019999973,158.79889019999973,158.79889019999973,158.79889019999973,158.79889019999973,,007,P012,2025_Feb_08_1228,ConditionRich,2021.2.3,59.99692815724245,
120.0,123.75,5,0.75,Stimuli/P012/sun_anfwllcezhlypoti.jpg,0,0,0.0,0,52,52,52,,,,,,,,,,,,,120.0060341999997,0.00603419999970356,None,159.06579109999984,159.06579109999984,159.06579109999984,159.06579109999984,159.06579109999984,159.06579109999984,159.06579109999984,159.06579109999984,159.06579109999984,159.06579109999984,,007,P012,2025_Feb_08_1228,ConditionRich,2021.2.3,59.99692815724245,
123.75,124.0,41,0.0,Stimuli/Blank.png,0,0,0.0,0,53,53,53,,,,,,,,,,,,,123.77487130000009,0.024871300000086194,None,162.8191568000002,162.8191568000002,162.8191568000002,162.8191568000002,162.8191568000002,162.8191568000002,162.8191568000002,162.8191568000002,162.8191568000002,162.8191568000002,,007,P012,2025_Feb_08_1228,ConditionRich,2021.2.3,59.99692815724245,
124.0,127.75,27,0.75,Stimuli/P012/things_girl_06s.jpg,0,0,0.0,0,54,54,54,,,,,,,,,,,,,124.01186249999955,0.011862499999551801,None,163.0693398000003,163.0693398000003,163.0693398000003,163.0693398000003,163.0693398000003,163.0693398000003,163.0693398000003,163.0693398000003,163.0693398000003,163.0693398000003,,007,P012,2025_Feb_08_1228,ConditionRich,2021.2.3,59.99692815724245,
127.75,128.0,41,0.0,Stimuli/Blank.png,0,0,0.0,0,55,55,55,,,,,,,,,,,,,127.78112660000079,0.03112660000078904,None,166.83933510000134,166.83933510000134,166.83933510000134,166.83933510000134,166.83933510000134,166.83933510000134,166.83933510000134,166.83933510000134,166.83933510000134,166.83933510000134,,007,P012,2025_Feb_08_1228,ConditionRich,2021.2.3,59.99692815724245,
128.0,131.75,25,0.75,Stimuli/P012/things_face_06s.jpg,0,0,0.0,0,56,56,56,,,,,,,,,,,,,128.02872690000004,0.028726900000037858,None,167.08956410000064,167.08956410000064,167.08956410000064,167.08956410000064,167.08956410000064,167.08956410000064,167.08956410000064,167.08956410000064,167.08956410000064,167.08956410000064,,007,P012,2025_Feb_08_1228,ConditionRich,2021.2.3,59.99692815724245,
131.75,132.0,41,0.0,Stimuli/Blank.png,0,0,0.0,0,57,57,57,,,,,,,,,,,,,131.78268779999962,0.03268779999962135,None,170.82618360000015,170.82618360000015,170.82618360000015,170.82618360000015,170.82618360000015,170.82618360000015,170.82618360000015,170.82618360000015,170.82618360000015,170.82618360000015,,007,P012,2025_Feb_08_1228,ConditionRich,2021.2.3,59.99692815724245,
132.0,135.75,39,0.75,Stimuli/P012/things_thermometer_06s.jpg,0,0,0.0,0,58,58,58,,,,,,,,,,,,,132.00053090000074,0.0005309000007400755,None,171.0597271000006,171.0597271000006,171.0597271000006,171.0597271000006,171.0597271000006,171.0597271000006,171.0597271000006,171.0597271000006,171.0597271000006,171.0597271000006,,007,P012,2025_Feb_08_1228,ConditionRich,2021.2.3,59.99692815724245,
135.75,136.0,41,0.0,Stimuli/Blank.png,0,0,0.0,0,59,59,59,,,,,,,,,,,,,135.76953800000047,0.019538000000466127,None,174.81306720000066,174.81306720000066,174.81306720000066,174.81306720000066,174.81306720000066,174.81306720000066,174.81306720000066,174.81306720000066,174.81306720000066,174.81306720000066,,007,P012,2025_Feb_08_1228,ConditionRich,2021.2.3,59.99692815724245,
136.0,139.75,9,0.75,Stimuli/P012/sun_aupohozmrmtfgcsw.jpg,0,0,0.0,0,60,60,60,,,,,,,,,,,,,136.0025853999996,0.0025853999995888444,None,175.04658050000035,175.04658050000035,175.04658050000035,175.04658050000035,175.04658050000035,175.04658050000035,175.04658050000035,175.04658050000035,175.04658050000035,175.04658050000035,,007,P012,2025_Feb_08_1228,ConditionRich,2021.2.3,59.99692815724245,
139.75,140.0,41,0.0,Stimuli/Blank.png,0,0,0.0,0,61,61,61,,,,,,,,,,,,,139.7556411000005,0.0056411000005027745,None,178.7999071000013,178.7999071000013,178.7999071000013,178.7999071000013,178.7999071000013,178.7999071000013,178.7999071000013,178.7999071000013,178.7999071000013,178.7999071000013,,007,P012,2025_Feb_08_1228,ConditionRich,2021.2.3,59.99692815724245,
140.0,143.75,19,0.75,Stimuli/P012/sun_byvwakrdyukjigpc.jpg,0,0,0.0,0,62,62,62,,,,,,,,,,,,,140.0060343999994,0.006034399999407469,None,179.05012420000094,179.05012420000094,179.05012420000094,179.05012420000094,179.05012420000094,179.05012420000094,179.05012420000094,179.05012420000094,179.05012420000094,179.05012420000094,,007,P012,2025_Feb_08_1228,ConditionRich,2021.2.3,59.99692815724245,
143.75,144.0,41,0.0,Stimuli/Blank.png,0,0,0.0,0,63,63,63,,,,,,,,,,,,,143.76069300000017,0.010693000000173924,None,182.8034563000001,182.8034563000001,182.8034563000001,182.8034563000001,182.8034563000001,182.8034563000001,182.8034563000001,182.8034563000001,182.8034563000001,182.8034563000001,,007,P012,2025_Feb_08_1228,ConditionRich,2021.2.3,59.99692815724245,
144.0,147.75,24,0.75,Stimuli/P012/things_doily_06s.jpg,1,1,1.75,0,64,64,64,,,,,,,,,,,,,144.00938270000006,0.00938270000006014,2,183.07036990000051,183.07036990000051,183.07036990000051,183.07036990000051,183.07036990000051,183.07036990000051,184.03790900000058,184.78904630000034,183.07036990000051,183.07036990000051,1.2947886000001745,007,P012,2025_Feb_08_1228,ConditionRich,2021.2.3,59.99692815724245,
147.75,148.0,41,0.0,Stimuli/Blank.png,0,0,0.0,0,65,65,65,,,,,,,,,,,,,147.78164959999958,0.03164959999958228,None,186.84035500000027,186.84035500000027,186.84035500000027,186.84035500000027,186.84035500000027,186.84035500000027,186.84035500000027,186.84035500000027,186.84035500000027,186.84035500000027,,007,P012,2025_Feb_08_1228,ConditionRich,2021.2.3,59.99692815724245,
148.0,151.75,28,0.75,Stimuli/P012/things_grasshopper_06s.jpg,1,0,0.75,0,66,66,66,,,,,,,,,,,,,148.03046299999914,0.030462999999144813,2,187.09058019999975,187.09058019999975,187.09058019999975,187.09058019999975,187.09058019999975,187.09058019999975,187.09058019999975,187.8079034000002,187.09058019999975,187.09058019999975,0.4846233999996912,007,P012,2025_Feb_08_1228,ConditionRich,2021.2.3,59.99692815724245,
151.75,152.0,41,0.0,Stimuli/Blank.png,0,0,0.0,0,67,67,67,,,,,,,,,,,,,151.76629390000016,0.016293900000164285,None,190.81052310000086,190.81052310000086,190.81052310000086,190.81052310000086,190.81052310000086,190.81052310000086,190.81052310000086,190.81052310000086,190.81052310000086,190.81052310000086,,007,P012,2025_Feb_08_1228,ConditionRich,2021.2.3,59.99692815724245,
152.0,155.75,33,0.75,Stimuli/P012/things_hot-air_balloon_06s.jpg,1,1,1.75,0,68,68,68,,,,,,,,,,,,,152.00127330000032,0.0012733000003208872,2,191.0440718000009,191.0440718000009,191.0440718000009,191.0440718000009,191.0440718000009,191.0440718000009,192.02829700000075,192.77893290000065,191.0440718000009,191.0440718000009,1.3593786000001273,007,P012,2025_Feb_08_1228,ConditionRich,2021.2.3,59.99692815724245,
155.75,156.0,41,0.0,Stimuli/Blank.png,0,0,0.0,0,69,69,69,,,,,,,,,,,,,155.75466099999903,0.004660999999032356,None,194.79740800000036,194.79740800000036,194.79740800000036,194.79740800000036,194.79740800000036,194.79740800000036,194.79740800000036,194.79740800000036,194.79740800000036,194.79740800000036,,007,P012,2025_Feb_08_1228,ConditionRich,2021.2.3,59.99692815724245,
156.0,159.75,20,0.75,Stimuli/P012/sun_ciifteeudwpxupnw.jpg,0,0,0.0,0,70,70,70,,,,,,,,,,,,,156.0040642999993,0.004064299999299692,None,195.04760950000127,195.04760950000127,195.04760950000127,195.04760950000127,195.04760950000127,195.04760950000127,195.04760950000127,195.04760950000127,195.04760950000127,195.04760950000127,,007,P012,2025_Feb_08_1228,ConditionRich,2021.2.3,59.99692815724245,
159.75,160.0,41,0.0,Stimuli/Blank.png,0,0,0.0,0,71,71,71,,,,,,,,,,,,,159.75677019999966,0.006770199999664328,None,198.80092669999976,198.80092669999976,198.80092669999976,198.80092669999976,198.80092669999976,198.80092669999976,198.80092669999976,198.80092669999976,198.80092669999976,198.80092669999976,,007,P012,2025_Feb_08_1228,ConditionRich,2021.2.3,59.99692815724245,
160.0,163.75,17,0.75,Stimuli/P012/sun_btvwhlxbhcqnqzok.jpg,0,0,0.0,0,72,72,72,,,,,,,,,,,,,160.00690170000053,0.006901700000526034,None,199.0511490000008,199.0511490000008,199.0511490000008,199.0511490000008,199.0511490000008,199.0511490000008,199.0511490000008,199.0511490000008,199.0511490000008,199.0511490000008,,007,P012,2025_Feb_08_1228,ConditionRich,2021.2.3,59.99692815724245,
163.75,164.0,41,0.0,Stimuli/Blank.png,0,0,0.0,0,73,73,73,,,,,,,,,,,,,163.76114319999942,0.011143199999423814,None,202.80447880000065,202.80447880000065,202.80447880000065,202.80447880000065,202.80447880000065,202.80447880000065,202.80447880000065,202.80447880000065,202.80447880000065,202.80447880000065,,007,P012,2025_Feb_08_1228,ConditionRich,2021.2.3,59.99692815724245,
164.0,167.75,38,0.75,Stimuli/P012/things_squeegee_06s.jpg,0,0,0.0,0,74,74,74,,,,,,,,,,,,,164.01200249999965,0.012002499999653082,None,203.05469129999983,203.05469129999983,203.05469129999983,203.05469129999983,203.05469129999983,203.05469129999983,203.05469129999983,203.05469129999983,203.05469129999983,203.05469129999983,,007,P012,2025_Feb_08_1228,ConditionRich,2021.2.3,59.99692815724245,
167.75,168.0,41,0.0,Stimuli/Blank.png,0,0,0.0,0,75,75,75,,,,,,,,,,,,,167.76626249999936,0.016262499999356805,None,206.82469669999955,206.82469669999955,206.82469669999955,206.82469669999955,206.82469669999955,206.82469669999955,206.82469669999955,206.82469669999955,206.82469669999955,206.82469669999955,,007,P012,2025_Feb_08_1228,ConditionRich,2021.2.3,59.99692815724245,
168.0,171.75,34,0.75,Stimuli/P012/things_polar_bear_06s.jpg,0,0,0.0,0,76,76,76,,,,,,,,,,,,,168.0167908000003,0.01679080000030808,None,207.07491520000076,207.07491520000076,207.07491520000076,207.07491520000076,207.07491520000076,207.07491520000076,207.07491520000076,207.07491520000076,207.07491520000076,207.07491520000076,,007,P012,2025_Feb_08_1228,ConditionRich,2021.2.3,59.99692815724245,
171.75,172.0,41,0.0,Stimuli/Blank.png,0,0,0.0,0,77,77,77,,,,,,,,,,,,,171.7672846000005,0.01728460000049381,None,210.81154659999993,210.81154659999993,210.81154659999993,210.81154659999993,210.81154659999993,210.81154659999993,210.81154659999993,210.81154659999993,210.81154659999993,210.81154659999993,,007,P012,2025_Feb_08_1228,ConditionRich,2021.2.3,59.99692815724245,
172.0,175.75,12,0.75,Stimuli/P012/sun_bcesifdfuidnkdhl.jpg,0,0,0.0,0,78,78,78,,,,,,,,,,,,,172.0015973999998,0.0015973999998095678,None,211.0450965,211.0450965,211.0450965,211.0450965,211.0450965,211.0450965,211.0450965,211.0450965,211.0450965,211.0450965,,007,P012,2025_Feb_08_1228,ConditionRich,2021.2.3,59.99692815724245,
175.75,176.0,41,0.0,Stimuli/Blank.png,0,0,0.0,0,79,79,79,,,,,,,,,,,,,175.75426440000047,0.004264400000465685,None,214.79841900000065,214.79841900000065,214.79841900000065,214.79841900000065,214.79841900000065,214.79841900000065,214.79841900000065,214.79841900000065,214.79841900000065,214.79841900000065,,007,P012,2025_Feb_08_1228,ConditionRich,2021.2.3,59.99692815724245,
176.0,179.75,31,0.75,Stimuli/P012/things_hippopotamus_06s.jpg,0,0,0.0,0,80,80,80,,,,,,,,,,,,,176.0066807000003,0.006680700000288198,None,215.06532250000055,215.06532250000055,215.06532250000055,215.06532250000055,215.06532250000055,215.06532250000055,215.06532250000055,215.06532250000055,215.06532250000055,215.06532250000055,,007,P012,2025_Feb_08_1228,ConditionRich,2021.2.3,59.99692815724245,
179.75,180.0,41,0.0,Stimuli/Blank.png,0,0,0.0,0,81,81,81,,,,,,,,,,,,,179.77439649999906,0.024396499999056687,None,218.81868589999976,218.81868589999976,218.81868589999976,218.81868589999976,218.81868589999976,218.81868589999976,218.81868589999976,218.81868589999976,218.81868589999976,218.81868589999976,,007,P012,2025_Feb_08_1228,ConditionRich,2021.2.3,59.99692815724245,
180.0,196.0,0,0.0,Stimuli/Blank.png,1,5,5.75,0,82,82,82,,,,,,,,,,,,,180.0079294999996,0.007929499999590917,2,219.05217520000042,219.05217520000042,219.05217520000042,219.05217520000042,219.05217520000042,219.05217520000042,224.03991490000044,224.7905862000007,219.05217520000042,219.05217520000042,5.367162999998982,007,P012,2025_Feb_08_1228,ConditionRich,2021.2.3,59.99692815724245,
196.0,199.75,2,0.75,Stimuli/P012/sun_aewhvqonribwlxiq.jpg,0,0,0.0,0,83,83,83,,,,,,,,,,,,,196.00731339999948,0.007313399999475223,None,235.0663373999996,235.0663373999996,235.0663373999996,235.0663373999996,235.0663373999996,235.0663373999996,235.0663373999996,235.0663373999996,235.0663373999996,235.0663373999996,,007,P012,2025_Feb_08_1228,ConditionRich,2021.2.3,59.99692815724245,
199.75,200.0,41,0.0,Stimuli/Blank.png,0,0,0.0,0,84,84,84,,,,,,,,,,,,,199.77578410000024,0.02578410000023723,None,238.81965850000051,238.81965850000051,238.81965850000051,238.81965850000051,238.81965850000051,238.81965850000051,238.81965850000051,238.81965850000051,238.81965850000051,238.81965850000051,,007,P012,2025_Feb_08_1228,ConditionRich,2021.2.3,59.99692815724245,
200.0,203.75,11,0.75,Stimuli/P012/sun_baylllqlgfvxilor.jpg,0,0,0.0,0,85,85,85,,,,,,,,,,,,,200.0122537999996,0.012253799999598414,None,239.0698977000011,239.0698977000011,239.0698977000011,239.0698977000011,239.0698977000011,239.0698977000011,239.0698977000011,239.0698977000011,239.0698977000011,239.0698977000011,,007,P012,2025_Feb_08_1228,ConditionRich,2021.2.3,59.99692815724245,
203.75,204.0,41,0.0,Stimuli/Blank.png,0,0,0.0,0,86,86,86,,,,,,,,,,,,,203.78115550000075,0.03115550000075018,None,242.83988060000047,242.83988060000047,242.83988060000047,242.83988060000047,242.83988060000047,242.83988060000047,242.83988060000047,242.83988060000047,242.83988060000047,242.83988060000047,,007,P012,2025_Feb_08_1228,ConditionRich,2021.2.3,59.99692815724245,
204.0,207.75,19,0.75,Stimuli/P012/sun_byvwakrdyukjigpc.jpg,0,0,0.0,0,87,87,87,,,,,,,,,,,,,204.02986749999945,0.029867499999454594,None,243.07342489999974,243.07342489999974,243.07342489999974,243.07342489999974,243.07342489999974,243.07342489999974,243.07342489999974,243.07342489999974,243.07342489999974,243.07342489999974,,007,P012,2025_Feb_08_1228,ConditionRich,2021.2.3,59.99692815724245,
207.75,208.0,41,0.0,Stimuli/Blank.png,0,0,0.0,0,88,88,88,,,,,,,,,,,,,207.75138189999961,0.0013818999996146886,None,246.81006030000026,246.81006030000026,246.81006030000026,246.81006030000026,246.81006030000026,246.81006030000026,246.81006030000026,246.81006030000026,246.81006030000026,246.81006030000026,,007,P012,2025_Feb_08_1228,ConditionRich,2021.2.3,59.99692815724245,
208.0,211.75,32,0.75,Stimuli/P012/things_hood_06s.jpg,0,0,0.0,0,89,89,89,,,,,,,,,,,,,208.0167679999995,0.016767999999501626,None,247.06029710000075,247.06029710000075,247.06029710000075,247.06029710000075,247.06029710000075,247.06029710000075,247.06029710000075,247.06029710000075,247.06029710000075,247.06029710000075,,007,P012,2025_Feb_08_1228,ConditionRich,2021.2.3,59.99692815724245,
211.75,212.0,41,0.0,Stimuli/Blank.png,0,0,0.0,0,90,90,90,,,,,,,,,,,,,211.75258349999967,0.002583499999673222,None,250.79692869999963,250.79692869999963,250.79692869999963,250.79692869999963,250.79692869999963,250.79692869999963,250.79692869999963,250.79692869999963,250.79692869999963,250.79692869999963,,007,P012,2025_Feb_08_1228,ConditionRich,2021.2.3,59.99692815724245,
212.0,215.75,6,0.75,Stimuli/P012/sun_aqysdudvyxnkcxgq.jpg,0,0,0.0,0,91,91,91,,,,,,,,,,,,,212.00302399999964,0.0030239999996410916,None,251.047143400001,251.047143400001,251.047143400001,251.047143400001,251.047143400001,251.047143400001,251.047143400001,251.047143400001,251.047143400001,251.047143400001,,007,P012,2025_Feb_08_1228,ConditionRich,2021.2.3,59.99692815724245,
215.75,216.0,41,0.0,Stimuli/Blank.png,0,0,0.0,0,92,92,92,,,,,,,,,,,,,215.75690580000082,0.006905800000822637,None,254.80047279999962,254.80047279999962,254.80047279999962,254.80047279999962,254.80047279999962,254.80047279999962,254.80047279999962,254.80047279999962,254.80047279999962,254.80047279999962,,007,P012,2025_Feb_08_1228,ConditionRich,2021.2.3,59.99692815724245,
216.0,219.75,31,0.75,Stimuli/P012/things_hippopotamus_06s.jpg,0,0,0.0,0,93,93,93,,,,,,,,,,,,,216.0070954999992,0.007095499999195454,None,255.05068279999978,255.05068279999978,255.05068279999978,255.05068279999978,255.05068279999978,255.05068279999978,255.05068279999978,255.05068279999978,255.05068279999978,255.05068279999978,,007,P012,2025_Feb_08_1228,ConditionRich,2021.2.3,59.99692815724245,
219.75,220.0,41,0.0,Stimuli/Blank.png,0,0,0.0,0,94,94,94,,,,,,,,,,,,,219.7619407000002,0.011940700000195648,None,258.8217659000002,258.8217659000002,258.8217659000002,258.8217659000002,258.8217659000002,258.8217659000002,258.8217659000002,258.8217659000002,258.8217659000002,258.8217659000002,,007,P012,2025_Feb_08_1228,ConditionRich,2021.2.3,59.99692815724245,
220.0,223.75,8,0.75,Stimuli/P012/sun_asppejhsplpizvag.jpg,1,3,3.75,0,95,95,95,,,,,,,,,,,,,220.0266219999994,0.0266219999994064,2,259.0709003000011,259.0709003000011,259.0709003000011,259.0709003000011,259.0709003000011,259.0709003000011,262.05693600000086,None,259.0709003000011,259.0709003000011,3.344512499999837,007,P012,2025_Feb_08_1228,ConditionRich,2021.2.3,59.99692815724245,
223.75,224.0,41,0.0,Stimuli/Blank.png,0,0,0.0,0,96,96,96,,,,,,,,,,,,,223.76404829999956,0.014048299999558367,None,262.80763090000073,262.80763090000073,262.80763090000073,262.80763090000073,262.80763090000073,262.80763090000073,262.80763090000073,262.80763090000073,262.80763090000073,262.80763090000073,,007,P012,2025_Feb_08_1228,ConditionRich,2021.2.3,59.99692815724245,
224.0,227.75,30,0.75,Stimuli/P012/things_hamburger_06s.jpg,0,0,0.0,0,97,97,97,,,,,,,,,,,,,224.01563669999996,0.01563669999995909,None,263.0744465000007,263.0744465000007,263.0744465000007,263.0744465000007,263.0744465000007,263.0744465000007,263.0744465000007,263.0744465000007,263.0744465000007,263.0744465000007,,007,P012,2025_Feb_08_1228,ConditionRich,2021.2.3,59.99692815724245,
227.75,228.0,41,0.0,Stimuli/Blank.png,0,0,0.0,0,98,98,98,,,,,,,,,,,,,227.76694169999973,0.016941699999733828,None,266.8110563000009,266.8110563000009,266.8110563000009,266.8110563000009,266.8110563000009,266.8110563000009,266.8110563000009,266.8110563000009,266.8110563000009,266.8110563000009,,007,P012,2025_Feb_08_1228,ConditionRich,2021.2.3,59.99692815724245,
228.0,231.75,15,0.75,Stimuli/P012/sun_bmngnyuahubpqroh.jpg,1,3,3.75,0,99,99,99,,,,,,,,,,,,,228.0005172000001,0.0005172000001039123,2,267.0446245000003,267.0446245000003,267.0446245000003,267.0446245000003,267.0446245000003,267.0446245000003,270.04727450000064,270.7812640000011,267.0446245000003,267.0446245000003,3.3776013999995484,007,P012,2025_Feb_08_1228,ConditionRich,2021.2.3,59.99692815724245,
231.75,232.0,41,0.0,Stimuli/Blank.png,0,0,0.0,0,100,100,100,,,,,,,,,,,,,231.75694450000083,0.006944500000827247,None,270.81462850000025,270.81462850000025,270.81462850000025,270.81462850000025,270.81462850000025,270.81462850000025,270.81462850000025,270.81462850000025,270.81462850000025,270.81462850000025,,007,P012,2025_Feb_08_1228,ConditionRich,2021.2.3,59.99692815724245,
232.0,235.75,22,0.75,Stimuli/P012/things_boy_06s.jpg,0,0,0.0,0,101,101,101,,,,,,,,,,,,,232.02222319999964,0.02222319999964384,None,271.06485220000104,271.06485220000104,271.06485220000104,271.06485220000104,271.06485220000104,271.06485220000104,271.06485220000104,271.06485220000104,271.06485220000104,271.06485220000104,,007,P012,2025_Feb_08_1228,ConditionRich,2021.2.3,59.99692815724245,
235.75,236.0,41,0.0,Stimuli/Blank.png,0,0,0.0,0,102,102,102,,,,,,,,,,,,,235.7573441000004,0.007344100000409526,None,274.80148569999983,274.80148569999983,274.80148569999983,274.80148569999983,274.80148569999983,274.80148569999983,274.80148569999983,274.80148569999983,274.80148569999983,274.80148569999983,,007,P012,2025_Feb_08_1228,ConditionRich,2021.2.3,59.99692815724245,
236.0,239.75,14,0.75,Stimuli/P012/sun_blybvkoucskrdgiv.jpg,0,0,0.0,0,103,103,103,,,,,,,,,,,,,236.00802569999905,0.008025699999052449,None,275.0683992000013,275.0683992000013,275.0683992000013,275.0683992000013,275.0683992000013,275.0683992000013,275.0683992000013,275.0683992000013,275.0683992000013,275.0683992000013,,007,P012,2025_Feb_08_1228,ConditionRich,2021.2.3,59.99692815724245,
239.75,240.0,41,0.0,Stimuli/Blank.png,0,0,0.0,0,104,104,104,,,,,,,,,,,,,239.77743179999925,0.02743179999924905,None,278.82173650000004,278.82173650000004,278.82173650000004,278.82173650000004,278.82173650000004,278.82173650000004,278.82173650000004,278.82173650000004,278.82173650000004,278.82173650000004,,007,P012,2025_Feb_08_1228,ConditionRich,2021.2.3,59.99692815724245,
240.0,243.75,1,0.75,Stimuli/P012/sun_aeakbqnvptdnxtno.jpg,0,0,0.0,0,105,105,105,,,,,,,,,,,,,240.01216810000005,0.012168100000053528,None,279.0719503,279.0719503,279.0719503,279.0719503,279.0719503,279.0719503,279.0719503,279.0719503,279.0719503,279.0719503,,007,P012,2025_Feb_08_1228,ConditionRich,2021.2.3,59.99692815724245,
243.75,244.0,41,0.0,Stimuli/Blank.png,0,0,0.0,0,106,106,106,,,,,,,,,,,,,243.78218639999977,0.03218639999977313,None,282.8252494999997,282.8252494999997,282.8252494999997,282.8252494999997,282.8252494999997,282.8252494999997,282.8252494999997,282.8252494999997,282.8252494999997,282.8252494999997,,007,P012,2025_Feb_08_1228,ConditionRich,2021.2.3,59.99692815724245,
244.0,247.75,28,0.75,Stimuli/P012/things_grasshopper_06s.jpg,0,0,0.0,0,107,107,107,,,,,,,,,,,,,243.99824839999928,-0.0017516000007162802,None,283.0421399000006,283.0421399000006,283.0421399000006,283.0421399000006,283.0421399000006,283.0421399000006,283.0421399000006,283.0421399000006,283.0421399000006,283.0421399000006,,007,P012,2025_Feb_08_1228,ConditionRich,2021.2.3,59.99692815724245,
247.75,248.0,41,0.0,Stimuli/Blank.png,0,0,0.0,0,108,108,108,,,,,,,,,,,,,247.75222790000043,0.0022279000004346017,None,286.7954343000001,286.7954343000001,286.7954343000001,286.7954343000001,286.7954343000001,286.7954343000001,286.7954343000001,286.7954343000001,286.7954343000001,286.7954343000001,,007,P012,2025_Feb_08_1228,ConditionRich,2021.2.3,59.99692815724245,
248.0,251.75,26,0.75,Stimuli/P012/things_gazelle_06s.jpg,0,0,0.0,0,109,109,109,,,,,,,,,,,,,248.00282809999953,0.0028280999995331513,None,287.06234550000045,287.06234550000045,287.06234550000045,287.06234550000045,287.06234550000045,287.06234550000045,287.06234550000045,287.06234550000045,287.06234550000045,287.06234550000045,,007,P012,2025_Feb_08_1228,ConditionRich,2021.2.3,59.99692815724245,
251.75,252.0,41,0.0,Stimuli/Blank.png,0,0,0.0,0,110,110,110,,,,,,,,,,,,,251.77227350000067,0.02227350000066508,None,290.81564810000054,290.81564810000054,290.81564810000054,290.81564810000054,290.81564810000054,290.81564810000054,290.81564810000054,290.81564810000054,290.81564810000054,290.81564810000054,,007,P012,2025_Feb_08_1228,ConditionRich,2021.2.3,59.99692815724245,
252.0,255.75,38,0.75,Stimuli/P012/things_squeegee_06s.jpg,0,0,0.0,0,111,111,111,,,,,,,,,,,,,252.00588889999926,0.005888899999263231,None,291.04919690000133,291.04919690000133,291.04919690000133,291.04919690000133,291.04919690000133,291.04919690000133,291.04919690000133,291.04919690000133,291.04919690000133,291.04919690000133,,007,P012,2025_Feb_08_1228,ConditionRich,2021.2.3,59.99692815724245,
255.75,256.0,41,0.0,Stimuli/Blank.png,0,0,0.0,0,112,112,112,,,,,,,,,,,,,255.75821689999975,0.008216899999752059,None,294.8025209000007,294.8025209000007,294.8025209000007,294.8025209000007,294.8025209000007,294.8025209000007,294.8025209000007,294.8025209000007,294.8025209000007,294.8025209000007,,007,P012,2025_Feb_08_1228,ConditionRich,2021.2.3,59.99692815724245,
256.0,259.75,39,0.75,Stimuli/P012/things_thermometer_06s.jpg,0,0,0.0,0,113,113,113,,,,,,,,,,,,,256.0085352999995,0.008535299999493873,None,295.06946210000024,295.06946210000024,295.06946210000024,295.06946210000024,295.06946210000024,295.06946210000024,295.06946210000024,295.06946210000024,295.06946210000024,295.06946210000024,,007,P012,2025_Feb_08_1228,ConditionRich,2021.2.3,59.99692815724245,
259.75,260.0,41,0.0,Stimuli/Blank.png,0,0,0.0,0,114,114,114,,,,,,,,,,,,,259.7795188,0.029518800000005285,None,298.82274190000135,298.82274190000135,298.82274190000135,298.82274190000135,298.82274190000135,298.82274190000135,298.82274190000135,298.82274190000135,298.82274190000135,298.82274190000135,,007,P012,2025_Feb_08_1228,ConditionRich,2021.2.3,59.99692815724245,
260.0,263.75,5,0.75,Stimuli/P012/sun_anfwllcezhlypoti.jpg,1,2,2.75,0,115,115,115,,,,,,,,,,,,,260.01337989999956,0.01337989999956335,2,299.07296959999985,299.07296959999985,299.07296959999985,299.07296959999985,299.07296959999985,299.07296959999985,301.05806889999985,301.7920274999997,299.07296959999985,299.07296959999985,2.3873187999997754,007,P012,2025_Feb_08_1228,ConditionRich,2021.2.3,59.99692815724245,
263.75,264.0,41,0.0,Stimuli/Blank.png,0,0,0.0,0,116,116,116,,,,,,,,,,,,,263.7661293000001,0.016129300000102376,None,302.80962510000063,302.80962510000063,302.80962510000063,302.80962510000063,302.80962510000063,302.80962510000063,302.80962510000063,302.80962510000063,302.80962510000063,302.80962510000063,,007,P012,2025_Feb_08_1228,ConditionRich,2021.2.3,59.99692815724245,
264.0,267.75,3,0.75,Stimuli/P012/sun_afdaynbvsppiyvxm.jpg,0,0,0.0,0,117,117,117,,,,,,,,,,,,,263.999625299999,-0.000374700000975281,None,303.04312890000074,303.04312890000074,303.04312890000074,303.04312890000074,303.04312890000074,303.04312890000074,303.04312890000074,303.04312890000074,303.04312890000074,303.04312890000074,,007,P012,2025_Feb_08_1228,ConditionRich,2021.2.3,59.99692815724245,
267.75,268.0,41,0.0,Stimuli/Blank.png,0,0,0.0,0,118,118,118,,,,,,,,,,,,,267.7523980999995,0.0023980999994819285,None,306.7964576000013,306.7964576000013,306.7964576000013,306.7964576000013,306.7964576000013,306.7964576000013,306.7964576000013,306.7964576000013,306.7964576000013,306.7964576000013,,007,P012,2025_Feb_08_1228,ConditionRich,2021.2.3,59.99692815724245,
268.0,271.75,16,0.75,Stimuli/P012/sun_bpuwvyadswjfoaby.jpg,1,3,3.75,0,119,119,119,,,,,,,,,,,,,268.0030776000003,0.00307760000032431,2,307.0466670000005,307.0466670000005,307.0466670000005,307.0466670000005,307.0466670000005,307.0466670000005,310.0327047999999,310.783344200001,307.0466670000005,307.0466670000005,3.38473569999951,007,P012,2025_Feb_08_1228,ConditionRich,2021.2.3,59.99692815724245,
271.75,272.0,41,0.0,Stimuli/Blank.png,0,0,0.0,0,120,120,120,,,,,,,,,,,,,271.75649220000014,0.006492200000138837,None,310.7999964999999,310.7999964999999,310.7999964999999,310.7999964999999,310.7999964999999,310.7999964999999,310.7999964999999,310.7999964999999,310.7999964999999,310.7999964999999,,007,P012,2025_Feb_08_1228,ConditionRich,2021.2.3,59.99692815724245,
272.0,275.75,37,0.75,Stimuli/P012/things_spam_06s.jpg,1,0,0.75,0,121,121,121,,,,,,,,,,,,,272.0065264999994,0.006526499999381485,2,311.05020590000095,311.05020590000095,311.05020590000095,311.05020590000095,311.05020590000095,311.05020590000095,311.05020590000095,311.7853152000007,311.05020590000095,311.05020590000095,1.2201749999985623,007,P012,2025_Feb_08_1228,ConditionRich,2021.2.3,59.99692815724245,
275.75,276.0,41,0.0,Stimuli/Blank.png,0,0,0.0,0,122,122,122,,,,,,,,,,,,,275.7616383000004,0.011638300000413437,None,314.8202168000007,314.8202168000007,314.8202168000007,314.8202168000007,314.8202168000007,314.8202168000007,314.8202168000007,314.8202168000007,314.8202168000007,314.8202168000007,,007,P012,2025_Feb_08_1228,ConditionRich,2021.2.3,59.99692815724245,
276.0,292.0,0,0.0,Stimuli/Blank.png,1,13,13.75,0,123,123,123,,,,,,,,,,,,,276.0268414000002,0.02684140000019397,2,315.0704389000002,315.0704389000002,315.0704389000002,315.0704389000002,315.0704389000002,315.0704389000002,328.0652538000013,328.8160336000001,315.0704389000002,315.0704389000002,13.37491720000071,007,P012,2025_Feb_08_1228,ConditionRich,2021.2.3,59.99692815724245,
292.0,295.75,29,0.75,Stimuli/P012/things_gutter_06s.jpg,0,0,0.0,0,124,124,124,,,,,,,,,,,,,292.00748399999975,0.007483999999749358,None,331.0512300999999,331.0512300999999,331.0512300999999,331.0512300999999,331.0512300999999,331.0512300999999,331.0512300999999,331.0512300999999,331.0512300999999,331.0512300999999,,007,P012,2025_Feb_08_1228,ConditionRich,2021.2.3,59.99692815724245,
295.75,296.0,41,0.0,Stimuli/Blank.png,0,0,0.0,0,125,125,125,,,,,,,,,,,,,295.7603017000001,0.010301700000127312,None,334.804548600001,334.804548600001,334.804548600001,334.804548600001,334.804548600001,334.804548600001,334.804548600001,334.804548600001,334.804548600001,334.804548600001,,007,P012,2025_Feb_08_1228,ConditionRich,2021.2.3,59.99692815724245,
296.0,299.75,18,0.75,Stimuli/P012/sun_bxlbxustiovyqyrg.jpg,0,0,0.0,0,126,126,126,,,,,,,,,,,,,296.0120946999996,0.012094699999579461,None,335.0714846999999,335.0714846999999,335.0714846999999,335.0714846999999,335.0714846999999,335.0714846999999,335.0714846999999,335.0714846999999,335.0714846999999,335.0714846999999,,007,P012,2025_Feb_08_1228,ConditionRich,2021.2.3,59.99692815724245,
299.75,300.0,41,0.0,Stimuli/Blank.png,0,0,0.0,0,127,127,127,,,,,,,,,,,,,299.7819569000003,0.03195690000029572,None,338.8247760000013,338.8247760000013,338.8247760000013,338.8247760000013,338.8247760000013,338.8247760000013,338.8247760000013,338.8247760000013,338.8247760000013,338.8247760000013,,007,P012,2025_Feb_08_1228,ConditionRich,2021.2.3,59.99692815724245,
300.0,303.75,10,0.75,Stimuli/P012/sun_awufkrkrdrdbvvis.jpg,0,0,0.0,0,128,128,128,,,,,,,,,,,,,300.01733290000084,0.01733290000083798,None,339.07502920000115,339.07502920000115,339.07502920000115,339.07502920000115,339.07502920000115,339.07502920000115,339.07502920000115,339.07502920000115,339.07502920000115,339.07502920000115,,007,P012,2025_Feb_08_1228,ConditionRich,2021.2.3,59.99692815724245,
303.75,304.0,41,0.0,Stimuli/Blank.png,0,0,0.0,0,129,129,129,,,,,,,,,,,,,303.7675017999991,0.017501799999081413,None,342.8116331000001,342.8116331000001,342.8116331000001,342.8116331000001,342.8116331000001,342.8116331000001,342.8116331000001,342.8116331000001,342.8116331000001,342.8116331000001,,007,P012,2025_Feb_08_1228,ConditionRich,2021.2.3,59.99692815724245,
304.0,307.75,20,0.75,Stimuli/P012/sun_ciifteeudwpxupnw.jpg,0,0,0.0,0,130,130,130,,,,,,,,,,,,,304.0016192000003,0.0016192000002774876,None,343.0618792000005,343.0618792000005,343.0618792000005,343.0618792000005,343.0618792000005,343.0618792000005,343.0618792000005,343.0618792000005,343.0618792000005,343.0618792000005,,007,P012,2025_Feb_08_1228,ConditionRich,2021.2.3,59.99692815724245,
307.75,308.0,41,0.0,Stimuli/Blank.png,0,0,0.0,0,131,131,131,,,,,,,,,,,,,307.77260019999994,0.02260019999994256,None,346.83202809999966,346.83202809999966,346.83202809999966,346.83202809999966,346.83202809999966,346.83202809999966,346.83202809999966,346.83202809999966,346.83202809999966,346.83202809999966,,007,P012,2025_Feb_08_1228,ConditionRich,2021.2.3,59.99692815724245,
308.0,311.75,34,0.75,Stimuli/P012/things_polar_bear_06s.jpg,1,1,1.75,0,132,132,132,,,,,,,,,,,,,308.0218851999998,0.021885199999815086,2,347.0821020000003,347.0821020000003,347.0821020000003,347.0821020000003,347.0821020000003,347.0821020000003,348.04959249999956,348.80025360000036,347.0821020000003,347.0821020000003,1.3422090999993088,007,P012,2025_Feb_08_1228,ConditionRich,2021.2.3,59.99692815724245,
311.75,312.0,41,0.0,Stimuli/Blank.png,0,0,0.0,0,133,133,133,,,,,,,,,,,,,311.77768490000017,0.027684900000167545,None,350.8354010000003,350.8354010000003,350.8354010000003,350.8354010000003,350.8354010000003,350.8354010000003,350.8354010000003,350.8354010000003,350.8354010000003,350.8354010000003,,007,P012,2025_Feb_08_1228,ConditionRich,2021.2.3,59.99692815724245,
312.0,315.75,13,0.75,Stimuli/P012/sun_bjedvzikugwleyer.jpg,0,0,0.0,0,134,134,134,,,,,,,,,,,,,312.02758800000083,0.027588000000832835,None,351.0856405000013,351.0856405000013,351.0856405000013,351.0856405000013,351.0856405000013,351.0856405000013,351.0856405000013,351.0856405000013,351.0856405000013,351.0856405000013,,007,P012,2025_Feb_08_1228,ConditionRich,2021.2.3,59.99692815724245,
315.75,316.0,41,0.0,Stimuli/Blank.png,0,0,0.0,0,135,135,135,,,,,,,,,,,,,315.77811199999996,0.02811199999996461,None,354.8222545000008,354.8222545000008,354.8222545000008,354.8222545000008,354.8222545000008,354.8222545000008,354.8222545000008,354.8222545000008,354.8222545000008,354.8222545000008,,007,P012,2025_Feb_08_1228,ConditionRich,2021.2.3,59.99692815724245,
316.0,319.75,40,0.75,Stimuli/P012/things_woman_06s.jpg,1,1,1.75,0,136,136,136,,,,,,,,,,,,,316.0119666999999,0.01196669999990263,2,355.0557906000013,355.0557906000013,355.0557906000013,355.0557906000013,355.0557906000013,355.0557906000013,356.0400057000006,356.7906610000009,355.0557906000013,355.0557906000013,1.325624400000379,007,P012,2025_Feb_08_1228,ConditionRich,2021.2.3,59.99692815724245,
319.75,320.0,41,0.0,Stimuli/Blank.png,0,0,0.0,0,137,137,137,,,,,,,,,,,,,319.7657264999998,0.01572649999980058,None,358.80912830000125,358.80912830000125,358.80912830000125,358.80912830000125,358.80912830000125,358.80912830000125,358.80912830000125,358.80912830000125,358.80912830000125,358.80912830000125,,007,P012,2025_Feb_08_1228,ConditionRich,2021.2.3,59.99692815724245,
320.0,323.75,33,0.75,Stimuli/P012/things_hot-air_balloon_06s.jpg,0,0,0.0,0,138,138,138,,,,,,,,,,,,,319.99840720000066,-0.001592799999343697,None,359.0426509000008,359.0426509000008,359.0426509000008,359.0426509000008,359.0426509000008,359.0426509000008,359.0426509000008,359.0426509000008,359.0426509000008,359.0426509000008,,007,P012,2025_Feb_08_1228,ConditionRich,2021.2.3,59.99692815724245,
323.75,324.0,41,0.0,Stimuli/Blank.png,0,0,0.0,0,139,139,139,,,,,,,,,,,,,323.7524293999995,0.002429399999527959,None,362.7959883000003,362.7959883000003,362.7959883000003,362.7959883000003,362.7959883000003,362.7959883000003,362.7959883000003,362.7959883000003,362.7959883000003,362.7959883000003,,007,P012,2025_Feb_08_1228,ConditionRich,2021.2.3,59.99692815724245,
324.0,327.75,35,0.75,Stimuli/P012/things_raccoon_06n.jpg,0,0,0.0,0,140,140,140,,,,,,,,,,,,,324.0020141999994,0.0020141999993938953,None,363.0461907000008,363.0461907000008,363.0461907000008,363.0461907000008,363.0461907000008,363.0461907000008,363.0461907000008,363.0461907000008,363.0461907000008,363.0461907000008,,007,P012,2025_Feb_08_1228,ConditionRich,2021.2.3,59.99692815724245,
327.75,328.0,41,0.0,Stimuli/Blank.png,0,0,0.0,0,141,141,141,,,,,,,,,,,,,327.7560489999996,0.006048999999620719,None,366.7995174000007,366.7995174000007,366.7995174000007,366.7995174000007,366.7995174000007,366.7995174000007,366.7995174000007,366.7995174000007,366.7995174000007,366.7995174000007,,007,P012,2025_Feb_08_1228,ConditionRich,2021.2.3,59.99692815724245,
328.0,331.75,17,0.75,Stimuli/P012/sun_btvwhlxbhcqnqzok.jpg,0,0,0.0,0,142,142,142,,,,,,,,,,,,,328.0058750999997,0.005875099999684608,None,367.0497326000004,367.0497326000004,367.0497326000004,367.0497326000004,367.0497326000004,367.0497326000004,367.0497326000004,367.0497326000004,367.0497326000004,367.0497326000004,,007,P012,2025_Feb_08_1228,ConditionRich,2021.2.3,59.99692815724245,
331.75,332.0,41,0.0,Stimuli/Blank.png,0,0,0.0,0,143,143,143,,,,,,,,,,,,,331.7615239000006,0.01152390000061132,None,370.81974530000116,370.81974530000116,370.81974530000116,370.81974530000116,370.81974530000116,370.81974530000116,370.81974530000116,370.81974530000116,370.81974530000116,370.81974530000116,,007,P012,2025_Feb_08_1228,ConditionRich,2021.2.3,59.99692815724245,
332.0,335.75,23,0.75,Stimuli/P012/things_clove_06s.jpg,0,0,0.0,0,144,144,144,,,,,,,,,,,,,332.0264922000006,0.026492200000575394,None,371.0866352000012,371.0866352000012,371.0866352000012,371.0866352000012,371.0866352000012,371.0866352000012,371.0866352000012,371.0866352000012,371.0866352000012,371.0866352000012,,007,P012,2025_Feb_08_1228,ConditionRich,2021.2.3,59.99692815724245,
335.75,336.0,41,0.0,Stimuli/Blank.png,0,0,0.0,0,145,145,145,,,,,,,,,,,,,335.78177589999905,0.0317758999990474,None,374.8399625000002,374.8399625000002,374.8399625000002,374.8399625000002,374.8399625000002,374.8399625000002,374.8399625000002,374.8399625000002,374.8399625000002,374.8399625000002,,007,P012,2025_Feb_08_1228,ConditionRich,2021.2.3,59.99692815724245,
336.0,339.75,12,0.75,Stimuli/P012/sun_bcesifdfuidnkdhl.jpg,0,0,0.0,0,146,146,146,,,,,,,,,,,,,336.0312878000004,0.031287800000427524,None,375.0901900000008,375.0901900000008,375.0901900000008,375.0901900000008,375.0901900000008,375.0901900000008,375.0901900000008,375.0901900000008,375.0901900000008,375.0901900000008,,007,P012,2025_Feb_08_1228,ConditionRich,2021.2.3,59.99692815724245,
339.75,340.0,41,0.0,Stimuli/Blank.png,0,0,0.0,0,147,147,147,,,,,,,,,,,,,339.7666965999997,0.01669659999970463,None,378.8101447000008,378.8101447000008,378.8101447000008,378.8101447000008,378.8101447000008,378.8101447000008,378.8101447000008,378.8101447000008,378.8101447000008,378.8101447000008,,007,P012,2025_Feb_08_1228,ConditionRich,2021.2.3,59.99692815724245,
340.0,343.75,25,0.75,Stimuli/P012/things_face_06s.jpg,1,3,3.75,0,148,148,148,,,,,,,,,,,,,340.0017310000003,0.0017310000002908055,2,379.0603609000009,379.0603609000009,379.0603609000009,379.0603609000009,379.0603609000009,379.0603609000009,382.04637580000053,382.7970982000006,379.0603609000009,379.0603609000009,3.3412735000001703,007,P012,2025_Feb_08_1228,ConditionRich,2021.2.3,59.99692815724245,
343.75,344.0,41,0.0,Stimuli/Blank.png,0,0,0.0,0,149,149,149,,,,,,,,,,,,,343.7728982000008,0.0228982000007818,None,382.83242919999975,382.83242919999975,382.83242919999975,382.83242919999975,382.83242919999975,382.83242919999975,382.83242919999975,382.83242919999975,382.83242919999975,382.83242919999975,,007,P012,2025_Feb_08_1228,ConditionRich,2021.2.3,59.99692815724245,
344.0,347.75,36,0.75,Stimuli/P012/things_shower_cap_06s.jpg,0,0,0.0,0,150,150,150,,,,,,,,,,,,,344.0225097000002,0.022509700000227895,None,383.0808519000002,383.0808519000002,383.0808519000002,383.0808519000002,383.0808519000002,383.0808519000002,383.0808519000002,383.0808519000002,383.0808519000002,383.0808519000002,,007,P012,2025_Feb_08_1228,ConditionRich,2021.2.3,59.99692815724245,
347.75,348.0,41,0.0,Stimuli/Blank.png,0,0,0.0,0,151,151,151,,,,,,,,,,,,,347.77298410000003,0.022984100000030594,None,386.81721690000086,386.81721690000086,386.81721690000086,386.81721690000086,386.81721690000086,386.81721690000086,386.81721690000086,386.81721690000086,386.81721690000086,386.81721690000086,,007,P012,2025_Feb_08_1228,ConditionRich,2021.2.3,59.99692815724245,
348.0,351.75,27,0.75,Stimuli/P012/things_girl_06s.jpg,1,3,3.75,0,152,152,152,,,,,,,,,,,,,348.0065943999998,0.006594399999812595,None,387.05076370000097,387.05076370000097,387.05076370000097,387.05076370000097,387.05076370000097,387.05076370000097,390.03678899999977,390.7874367000004,387.05076370000097,387.05076370000097,,007,P012,2025_Feb_08_1228,ConditionRich,2021.2.3,59.99692815724245,
351.75,352.0,41,0.0,Stimuli/Blank.png,0,0,0.0,0,153,153,153,,,,,,,,,,,,,351.7606493000003,0.010649300000295625,2,390.8040937000005,390.8040937000005,390.8040937000005,390.8040937000005,390.8040937000005,390.8040937000005,390.8040937000005,390.8040937000005,390.8040937000005,390.8040937000005,0.07542260000082024,007,P012,2025_Feb_08_1228,ConditionRich,2021.2.3,59.99692815724245,
352.0,355.75,21,0.75,Stimuli/P012/things_baby_06s.jpg,0,0,0.0,0,154,154,154,,,,,,,,,,,,,352.01116700000057,0.011167000000568805,None,391.07101200000034,391.07101200000034,391.07101200000034,391.07101200000034,391.07101200000034,391.07101200000034,391.07101200000034,391.07101200000034,391.07101200000034,391.07101200000034,,007,P012,2025_Feb_08_1228,ConditionRich,2021.2.3,59.99692815724245,
355.75,356.0,41,0.0,Stimuli/Blank.png,0,0,0.0,0,155,155,155,,,,,,,,,,,,,355.78171099999963,0.031710999999631895,None,394.82431350000115,394.82431350000115,394.82431350000115,394.82431350000115,394.82431350000115,394.82431350000115,394.82431350000115,394.82431350000115,394.82431350000115,394.82431350000115,,007,P012,2025_Feb_08_1228,ConditionRich,2021.2.3,59.99692815724245,
356.0,359.75,24,0.75,Stimuli/P012/things_doily_06s.jpg,0,0,0.0,0,156,156,156,,,,,,,,,,,,,356.0135988999991,0.013598899999124114,None,395.05784719999974,395.05784719999974,395.05784719999974,395.05784719999974,395.05784719999974,395.05784719999974,395.05784719999974,395.05784719999974,395.05784719999974,395.05784719999974,,007,P012,2025_Feb_08_1228,ConditionRich,2021.2.3,59.99692815724245,
359.75,360.0,41,0.0,Stimuli/Blank.png,0,0,0.0,0,157,157,157,,,,,,,,,,,,,359.7525906999999,0.0025906999999278923,None,398.8111485999998,398.8111485999998,398.8111485999998,398.8111485999998,398.8111485999998,398.8111485999998,398.8111485999998,398.8111485999998,398.8111485999998,398.8111485999998,,007,P012,2025_Feb_08_1228,ConditionRich,2021.2.3,59.99692815724245,
360.0,363.75,9,0.75,Stimuli/P012/sun_aupohozmrmtfgcsw.jpg,0,0,0.0,0,158,158,158,,,,,,,,,,,,,360.01769570000033,0.01769570000033127,None,399.0613609000011,399.0613609000011,399.0613609000011,399.0613609000011,399.0613609000011,399.0613609000011,399.0613609000011,399.0613609000011,399.0613609000011,399.0613609000011,,007,P012,2025_Feb_08_1228,ConditionRich,2021.2.3,59.99692815724245,
363.75,364.0,41,0.0,Stimuli/Blank.png,0,0,0.0,0,159,159,159,,,,,,,,,,,,,363.7564803000005,0.006480300000475836,None,402.814671600001,402.814671600001,402.814671600001,402.814671600001,402.814671600001,402.814671600001,402.814671600001,402.814671600001,402.814671600001,402.814671600001,,007,P012,2025_Feb_08_1228,ConditionRich,2021.2.3,59.99692815724245,
364.0,367.75,7,0.75,Stimuli/P012/sun_arugqgwhwdjxezyt.jpg,1,2,2.75,0,160,160,160,,,,,,,,,,,,,364.02110229999926,0.021102299999256502,2,403.06493919999957,403.06493919999957,403.06493919999957,403.06493919999957,403.06493919999957,403.06493919999957,405.0500090000005,405.8007082000004,403.06493919999957,403.06493919999957,2.356421500000579,007,P012,2025_Feb_08_1228,ConditionRich,2021.2.3,59.99692815724245,
367.75,368.0,41,0.0,Stimuli/Blank.png,0,0,0.0,0,161,161,161,,,,,,,,,,,,,367.75750850000077,0.007508500000767526,None,406.80156890000035,406.80156890000035,406.80156890000035,406.80156890000035,406.80156890000035,406.80156890000035,406.80156890000035,406.80156890000035,406.80156890000035,406.80156890000035,,007,P012,2025_Feb_08_1228,ConditionRich,2021.2.3,59.99692815724245,
368.0,371.75,4,0.75,Stimuli/P012/sun_akpdzjejmtbfopdt.jpg,0,0,0.0,0,162,162,162,,,,,,,,,,,,,368.0076638999999,0.007663899999897694,None,407.0684646999998,407.0684646999998,407.0684646999998,407.0684646999998,407.0684646999998,407.0684646999998,407.0684646999998,407.0684646999998,407.0684646999998,407.0684646999998,,007,P012,2025_Feb_08_1228,ConditionRich,2021.2.3,59.99692815724245,
371.75,372.0,41,0.0,Stimuli/Blank.png,0,0,0.0,0,163,163,163,,,,,,,,,,,,,371.7786311,0.028631099999984144,None,410.82185480000044,410.82185480000044,410.82185480000044,410.82185480000044,410.82185480000044,410.82185480000044,410.82185480000044,410.82185480000044,410.82185480000044,410.82185480000044,,007,P012,2025_Feb_08_1228,ConditionRich,2021.2.3,59.99692815724245,
372.0,388.0,0,0.0,Stimuli/Blank.png,1,13,13.75,0,164,164,164,,,,,,,,,,,,,372.0118153000003,0.011815300000307616,2,411.0553409000004,411.0553409000004,411.0553409000004,411.0553409000004,411.0553409000004,411.0553409000004,424.0501473000004,424.8008092,411.0553409000004,411.0553409000004,13.459145599999829,007,P012,2025_Feb_08_1228,ConditionRich,2021.2.3,59.99692815724245,
