eventStartTime,eventEndTime,eventCond,imSize,imFile,responseEvent,fixRespStart,fixRespEnd,Events.thisRepN,Events.thisTrialN,Events.thisN,Events.thisIndex,Instructions.started,Instructions.stopped,participantReadyResponse.keys,participantReadyResponse.rt,participantReadyResponse.started,participantReadyResponse.stopped,startWaitforTrigger,triggerResponse.keys,triggerResponse.rt,triggerResponse.started,triggerResponse.stopped,globalTimer,actualStartTime,startTimingDiff,participantResponse.keys,participantResponse.started,participantResponse.stopped,image.started,image.stopped,fixationOutside.started,fixationOutside.stopped,fixationResponse.started,fixationResponse.stopped,fixationInside.started,fixationInside.stopped,participantResponse.rt,session,participant,date,expName,psychopyVersion,frameRate,
,,,,,,,,,,,,11.511503699999594,None,2,10.316396000000168,11.511503699999594,None,,,,,,,,,,,,,,,,,,,,,002,P012,2025_Feb_08_1138,ConditionRich,2021.2.3,59.964656831558585,
,,,,,,,,,,,,,,,,,,21.8369062999991,5,14.367536499999915,21.84955479999917,None,,,,,,,,,,,,,,,,002,P012,2025_Feb_08_1138,ConditionRich,2021.2.3,59.964656831558585,
0.0,4.0,0,0.0,Stimuli/Blank.png,0,0,0.0,0,0,0,0,,,,,,,,,,,,36.232673099999374,0.05594300000120711,0.05594300000120711,None,36.312244999999166,None,36.312244999999166,None,36.312244999999166,None,36.312244999999166,36.312244999999166,36.312244999999166,None,,002,P012,2025_Feb_08_1138,ConditionRich,2021.2.3,59.964656831558585,
4.0,4.75,12,0.75,Stimuli/P012/sun_bcesifdfuidnkdhl.jpg,0,0,0.0,0,1,1,1,,,,,,,,,,,,,4.022059500000978,0.022059500000978005,None,40.282889899999645,40.282889899999645,40.282889899999645,40.282889899999645,40.282889899999645,40.282889899999645,40.282889899999645,40.282889899999645,40.282889899999645,40.282889899999645,,002,P012,2025_Feb_08_1138,ConditionRich,2021.2.3,59.964656831558585,
4.75,5.0,41,0.0,Stimuli/Blank.png,0,0,0.0,0,2,2,2,,,,,,,,,,,,,4.769950600000811,0.01995060000081139,None,41.01685829999951,41.01685829999951,41.01685829999951,41.01685829999951,41.01685829999951,41.01685829999951,41.01685829999951,41.01685829999951,41.01685829999951,41.01685829999951,,002,P012,2025_Feb_08_1138,ConditionRich,2021.2.3,59.964656831558585,
5.0,5.75,12,0.75,Stimuli/P012/sun_bcesifdfuidnkdhl.jpg,0,0,0.0,0,3,3,3,,,,,,,,,,,,,5.005644100001518,0.005644100001518382,None,41.266800699999294,41.266800699999294,41.266800699999294,41.266800699999294,41.266800699999294,41.266800699999294,41.266800699999294,41.266800699999294,41.266800699999294,41.266800699999294,,002,P012,2025_Feb_08_1138,ConditionRich,2021.2.3,59.964656831558585,
5.75,6.0,41,0.0,Stimuli/Blank.png,0,0,0.0,0,4,4,4,,,,,,,,,,,,,5.770266400000764,0.020266400000764406,None,42.017463599999246,42.017463599999246,42.017463599999246,42.017463599999246,42.017463599999246,42.017463599999246,42.017463599999246,42.017463599999246,42.017463599999246,42.017463599999246,,002,P012,2025_Feb_08_1138,ConditionRich,2021.2.3,59.964656831558585,
6.0,6.75,12,0.75,Stimuli/P012/sun_bcesifdfuidnkdhl.jpg,0,0,0.0,0,5,5,5,,,,,,,,,,,,,6.004000900000392,0.004000900000391994,None,42.25101189999987,42.25101189999987,42.25101189999987,42.25101189999987,42.25101189999987,42.25101189999987,42.25101189999987,42.25101189999987,42.25101189999987,42.25101189999987,,002,P012,2025_Feb_08_1138,ConditionRich,2021.2.3,59.964656831558585,
6.75,7.0,41,0.0,Stimuli/Blank.png,0,0,0.0,0,6,6,6,,,,,,,,,,,,,6.755025900001783,0.005025900001783157,None,43.00169209999876,43.00169209999876,43.00169209999876,43.00169209999876,43.00169209999876,43.00169209999876,43.00169209999876,43.00169209999876,43.00169209999876,43.00169209999876,,002,P012,2025_Feb_08_1138,ConditionRich,2021.2.3,59.964656831558585,
7.0,7.75,12,0.75,Stimuli/P012/sun_bcesifdfuidnkdhl.jpg,0,0,0.0,0,7,7,7,,,,,,,,,,,,,7.005297900001096,0.005297900001096423,None,43.25189080000018,43.25189080000018,43.25189080000018,43.25189080000018,43.25189080000018,43.25189080000018,43.25189080000018,43.25189080000018,43.25189080000018,43.25189080000018,,002,P012,2025_Feb_08_1138,ConditionRich,2021.2.3,59.964656831558585,
7.75,8.0,41,0.0,Stimuli/Blank.png,0,0,0.0,0,8,8,8,,,,,,,,,,,,,7.756168200001412,0.006168200001411606,None,44.002633099999,44.002633099999,44.002633099999,44.002633099999,44.002633099999,44.002633099999,44.002633099999,44.002633099999,44.002633099999,44.002633099999,,002,P012,2025_Feb_08_1138,ConditionRich,2021.2.3,59.964656831558585,
8.0,8.75,37,0.75,Stimuli/P012/things_spam_06s.jpg,0,0,0.0,0,9,9,9,,,,,,,,,,,,,8.00658100000146,0.0065810000014607795,None,44.252856999999494,44.252856999999494,44.252856999999494,44.252856999999494,44.252856999999494,44.252856999999494,44.252856999999494,44.252856999999494,44.252856999999494,44.252856999999494,,002,P012,2025_Feb_08_1138,ConditionRich,2021.2.3,59.964656831558585,
8.75,9.0,41,0.0,Stimuli/Blank.png,0,0,0.0,0,10,10,10,,,,,,,,,,,,,8.756205400000908,0.006205400000908412,None,45.00351489999957,45.00351489999957,45.00351489999957,45.00351489999957,45.00351489999957,45.00351489999957,45.00351489999957,45.00351489999957,45.00351489999957,45.00351489999957,,002,P012,2025_Feb_08_1138,ConditionRich,2021.2.3,59.964656831558585,
9.0,9.75,37,0.75,Stimuli/P012/things_spam_06s.jpg,0,0,0.0,0,11,11,11,,,,,,,,,,,,,9.007235800001581,0.007235800001581083,None,45.270436799999516,45.270436799999516,45.270436799999516,45.270436799999516,45.270436799999516,45.270436799999516,45.270436799999516,45.270436799999516,45.270436799999516,45.270436799999516,,002,P012,2025_Feb_08_1138,ConditionRich,2021.2.3,59.964656831558585,
9.75,10.0,41,0.0,Stimuli/Blank.png,0,0,0.0,0,12,12,12,,,,,,,,,,,,,9.773992200000066,0.023992200000066077,None,46.02108799999951,46.02108799999951,46.02108799999951,46.02108799999951,46.02108799999951,46.02108799999951,46.02108799999951,46.02108799999951,46.02108799999951,46.02108799999951,,002,P012,2025_Feb_08_1138,ConditionRich,2021.2.3,59.964656831558585,
10.0,10.75,37,0.75,Stimuli/P012/things_spam_06s.jpg,0,0,0.0,0,13,13,13,,,,,,,,,,,,,10.007986200000232,0.007986200000232202,None,46.271351100000174,46.271351100000174,46.271351100000174,46.271351100000174,46.271351100000174,46.271351100000174,46.271351100000174,46.271351100000174,46.271351100000174,46.271351100000174,,002,P012,2025_Feb_08_1138,ConditionRich,2021.2.3,59.964656831558585,
10.75,11.0,41,0.0,Stimuli/Blank.png,0,0,0.0,0,14,14,14,,,,,,,,,,,,,10.775442200001635,0.025442200001634774,None,47.02198150000004,47.02198150000004,47.02198150000004,47.02198150000004,47.02198150000004,47.02198150000004,47.02198150000004,47.02198150000004,47.02198150000004,47.02198150000004,,002,P012,2025_Feb_08_1138,ConditionRich,2021.2.3,59.964656831558585,
11.0,11.75,37,0.75,Stimuli/P012/things_spam_06s.jpg,0,0,0.0,0,15,15,15,,,,,,,,,,,,,11.009110400000282,0.009110400000281516,None,47.27220649999981,47.27220649999981,47.27220649999981,47.27220649999981,47.27220649999981,47.27220649999981,47.27220649999981,47.27220649999981,47.27220649999981,47.27220649999981,,002,P012,2025_Feb_08_1138,ConditionRich,2021.2.3,59.964656831558585,
11.75,12.0,41,0.0,Stimuli/Blank.png,0,0,0.0,0,16,16,16,,,,,,,,,,,,,11.776149400000577,0.02614940000057686,None,48.02285859999938,48.02285859999938,48.02285859999938,48.02285859999938,48.02285859999938,48.02285859999938,48.02285859999938,48.02285859999938,48.02285859999938,48.02285859999938,,002,P012,2025_Feb_08_1138,ConditionRich,2021.2.3,59.964656831558585,
12.0,12.75,40,0.75,Stimuli/P012/things_woman_06s.jpg,0,0,0.0,0,17,17,17,,,,,,,,,,,,,12.009234600000127,0.009234600000127102,None,48.25639539999975,48.25639539999975,48.25639539999975,48.25639539999975,48.25639539999975,48.25639539999975,48.25639539999975,48.25639539999975,48.25639539999975,48.25639539999975,,002,P012,2025_Feb_08_1138,ConditionRich,2021.2.3,59.964656831558585,
12.75,13.0,41,0.0,Stimuli/Blank.png,0,0,0.0,0,18,18,18,,,,,,,,,,,,,12.760915900000327,0.010915900000327383,None,49.02377389999856,49.02377389999856,49.02377389999856,49.02377389999856,49.02377389999856,49.02377389999856,49.02377389999856,49.02377389999856,49.02377389999856,49.02377389999856,,002,P012,2025_Feb_08_1138,ConditionRich,2021.2.3,59.964656831558585,
13.0,13.75,40,0.75,Stimuli/P012/things_woman_06s.jpg,0,0,0.0,0,19,19,19,,,,,,,,,,,,,13.026945100000376,0.026945100000375533,None,49.27397089999977,49.27397089999977,49.27397089999977,49.27397089999977,49.27397089999977,49.27397089999977,49.27397089999977,49.27397089999977,49.27397089999977,49.27397089999977,,002,P012,2025_Feb_08_1138,ConditionRich,2021.2.3,59.964656831558585,
13.75,14.0,41,0.0,Stimuli/Blank.png,0,0,0.0,0,20,20,20,,,,,,,,,,,,,13.760839800001122,0.010839800001122057,None,50.007944099999804,50.007944099999804,50.007944099999804,50.007944099999804,50.007944099999804,50.007944099999804,50.007944099999804,50.007944099999804,50.007944099999804,50.007944099999804,,002,P012,2025_Feb_08_1138,ConditionRich,2021.2.3,59.964656831558585,
14.0,14.75,40,0.75,Stimuli/P012/things_woman_06s.jpg,0,0,0.0,0,21,21,21,,,,,,,,,,,,,14.011593500001254,0.011593500001254142,None,50.25817049999932,50.25817049999932,50.25817049999932,50.25817049999932,50.25817049999932,50.25817049999932,50.25817049999932,50.25817049999932,50.25817049999932,50.25817049999932,,002,P012,2025_Feb_08_1138,ConditionRich,2021.2.3,59.964656831558585,
14.75,15.0,41,0.0,Stimuli/Blank.png,0,0,0.0,0,22,22,22,,,,,,,,,,,,,14.762277200001336,0.012277200001335586,None,51.0089212999992,51.0089212999992,51.0089212999992,51.0089212999992,51.0089212999992,51.0089212999992,51.0089212999992,51.0089212999992,51.0089212999992,51.0089212999992,,002,P012,2025_Feb_08_1138,ConditionRich,2021.2.3,59.964656831558585,
15.0,15.75,40,0.75,Stimuli/P012/things_woman_06s.jpg,0,0,0.0,0,23,23,23,,,,,,,,,,,,,15.01255360000141,0.012553600001410814,None,51.275736499999766,51.275736499999766,51.275736499999766,51.275736499999766,51.275736499999766,51.275736499999766,51.275736499999766,51.275736499999766,51.275736499999766,51.275736499999766,,002,P012,2025_Feb_08_1138,ConditionRich,2021.2.3,59.964656831558585,
15.75,16.0,41,0.0,Stimuli/Blank.png,0,0,0.0,0,24,24,24,,,,,,,,,,,,,15.780542800001058,0.030542800001057913,None,52.02641059999951,52.02641059999951,52.02641059999951,52.02641059999951,52.02641059999951,52.02641059999951,52.02641059999951,52.02641059999951,52.02641059999951,52.02641059999951,,002,P012,2025_Feb_08_1138,ConditionRich,2021.2.3,59.964656831558585,
16.0,16.75,39,0.75,Stimuli/P012/things_thermometer_06s.jpg,0,0,0.0,0,25,25,25,,,,,,,,,,,,,16.015006800000265,0.015006800000264775,None,52.27663239999856,52.27663239999856,52.27663239999856,52.27663239999856,52.27663239999856,52.27663239999856,52.27663239999856,52.27663239999856,52.27663239999856,52.27663239999856,,002,P012,2025_Feb_08_1138,ConditionRich,2021.2.3,59.964656831558585,
16.75,17.0,41,0.0,Stimuli/Blank.png,0,0,0.0,0,26,26,26,,,,,,,,,,,,,16.764362700001584,0.014362700001584017,None,53.01061809999919,53.01061809999919,53.01061809999919,53.01061809999919,53.01061809999919,53.01061809999919,53.01061809999919,53.01061809999919,53.01061809999919,53.01061809999919,,002,P012,2025_Feb_08_1138,ConditionRich,2021.2.3,59.964656831558585,
17.0,17.75,39,0.75,Stimuli/P012/things_thermometer_06s.jpg,0,0,0.0,0,27,27,27,,,,,,,,,,,,,17.01345020000008,0.013450200000079349,None,53.26082209999913,53.26082209999913,53.26082209999913,53.26082209999913,53.26082209999913,53.26082209999913,53.26082209999913,53.26082209999913,53.26082209999913,53.26082209999913,,002,P012,2025_Feb_08_1138,ConditionRich,2021.2.3,59.964656831558585,
17.75,18.0,41,0.0,Stimuli/Blank.png,0,0,0.0,0,28,28,28,,,,,,,,,,,,,17.764168200001222,0.01416820000122243,None,54.01149289999921,54.01149289999921,54.01149289999921,54.01149289999921,54.01149289999921,54.01149289999921,54.01149289999921,54.01149289999921,54.01149289999921,54.01149289999921,,002,P012,2025_Feb_08_1138,ConditionRich,2021.2.3,59.964656831558585,
18.0,18.75,39,0.75,Stimuli/P012/things_thermometer_06s.jpg,0,0,0.0,0,29,29,29,,,,,,,,,,,,,18.014516500001264,0.014516500001263921,None,54.261713699999746,54.261713699999746,54.261713699999746,54.261713699999746,54.261713699999746,54.261713699999746,54.261713699999746,54.261713699999746,54.261713699999746,54.261713699999746,,002,P012,2025_Feb_08_1138,ConditionRich,2021.2.3,59.964656831558585,
18.75,19.0,41,0.0,Stimuli/Blank.png,0,0,0.0,0,30,30,30,,,,,,,,,,,,,18.765209300001516,0.015209300001515658,None,55.012371699998766,55.012371699998766,55.012371699998766,55.012371699998766,55.012371699998766,55.012371699998766,55.012371699998766,55.012371699998766,55.012371699998766,55.012371699998766,,002,P012,2025_Feb_08_1138,ConditionRich,2021.2.3,59.964656831558585,
19.0,19.75,39,0.75,Stimuli/P012/things_thermometer_06s.jpg,0,0,0.0,0,31,31,31,,,,,,,,,,,,,19.016276300000754,0.016276300000754418,None,55.26260550000006,55.26260550000006,55.26260550000006,55.26260550000006,55.26260550000006,55.26260550000006,55.26260550000006,55.26260550000006,55.26260550000006,55.26260550000006,,002,P012,2025_Feb_08_1138,ConditionRich,2021.2.3,59.964656831558585,
19.75,20.0,41,0.0,Stimuli/Blank.png,0,0,0.0,0,32,32,32,,,,,,,,,,,,,19.75056890000087,0.0005689000008715084,None,55.99658709999858,55.99658709999858,55.99658709999858,55.99658709999858,55.99658709999858,55.99658709999858,55.99658709999858,55.99658709999858,55.99658709999858,55.99658709999858,,002,P012,2025_Feb_08_1138,ConditionRich,2021.2.3,59.964656831558585,
20.0,20.75,19,0.75,Stimuli/P012/sun_byvwakrdyukjigpc.jpg,0,0,0.0,0,33,33,33,,,,,,,,,,,,,19.999594500000967,-0.00040549999903305434,None,56.24680829999852,56.24680829999852,56.24680829999852,56.24680829999852,56.24680829999852,56.24680829999852,56.24680829999852,56.24680829999852,56.24680829999852,56.24680829999852,,002,P012,2025_Feb_08_1138,ConditionRich,2021.2.3,59.964656831558585,
20.75,21.0,41,0.0,Stimuli/Blank.png,0,0,0.0,0,34,34,34,,,,,,,,,,,,,20.750318200000038,0.00031820000003790483,None,56.997443700000076,56.997443700000076,56.997443700000076,56.997443700000076,56.997443700000076,56.997443700000076,56.997443700000076,56.997443700000076,56.997443700000076,56.997443700000076,,002,P012,2025_Feb_08_1138,ConditionRich,2021.2.3,59.964656831558585,
21.0,21.75,19,0.75,Stimuli/P012/sun_byvwakrdyukjigpc.jpg,0,0,0.0,0,35,35,35,,,,,,,,,,,,,21.000787600001786,0.0007876000017859042,None,57.24770029999854,57.24770029999854,57.24770029999854,57.24770029999854,57.24770029999854,57.24770029999854,57.24770029999854,57.24770029999854,57.24770029999854,57.24770029999854,,002,P012,2025_Feb_08_1138,ConditionRich,2021.2.3,59.964656831558585,
21.75,22.0,41,0.0,Stimuli/Blank.png,0,0,0.0,0,36,36,36,,,,,,,,,,,,,21.75123860000167,0.0012386000016704202,None,57.998357399999804,57.998357399999804,57.998357399999804,57.998357399999804,57.998357399999804,57.998357399999804,57.998357399999804,57.998357399999804,57.998357399999804,57.998357399999804,,002,P012,2025_Feb_08_1138,ConditionRich,2021.2.3,59.964656831558585,
22.0,22.75,19,0.75,Stimuli/P012/sun_byvwakrdyukjigpc.jpg,0,0,0.0,0,37,37,37,,,,,,,,,,,,,22.00194830000146,0.001948300001458847,None,58.248574299999746,58.248574299999746,58.248574299999746,58.248574299999746,58.248574299999746,58.248574299999746,58.248574299999746,58.248574299999746,58.248574299999746,58.248574299999746,,002,P012,2025_Feb_08_1138,ConditionRich,2021.2.3,59.964656831558585,
22.75,23.0,41,0.0,Stimuli/Blank.png,0,0,0.0,0,38,38,38,,,,,,,,,,,,,22.751927800001795,0.0019278000017948216,None,58.99923449999915,58.99923449999915,58.99923449999915,58.99923449999915,58.99923449999915,58.99923449999915,58.99923449999915,58.99923449999915,58.99923449999915,58.99923449999915,,002,P012,2025_Feb_08_1138,ConditionRich,2021.2.3,59.964656831558585,
23.0,23.75,19,0.75,Stimuli/P012/sun_byvwakrdyukjigpc.jpg,0,0,0.0,0,39,39,39,,,,,,,,,,,,,23.00495570000021,0.004955700000209617,None,59.26617029999943,59.26617029999943,59.26617029999943,59.26617029999943,59.26617029999943,59.26617029999943,59.26617029999943,59.26617029999943,59.26617029999943,59.26617029999943,,002,P012,2025_Feb_08_1138,ConditionRich,2021.2.3,59.964656831558585,
23.75,24.0,41,0.0,Stimuli/Blank.png,0,0,0.0,0,40,40,40,,,,,,,,,,,,,23.769797500001005,0.019797500001004664,None,60.01683189999858,60.01683189999858,60.01683189999858,60.01683189999858,60.01683189999858,60.01683189999858,60.01683189999858,60.01683189999858,60.01683189999858,60.01683189999858,,002,P012,2025_Feb_08_1138,ConditionRich,2021.2.3,59.964656831558585,
24.0,24.75,27,0.75,Stimuli/P012/things_girl_06s.jpg,0,0,0.0,0,41,41,41,,,,,,,,,,,,,24.005091100001664,0.005091100001664017,None,60.26705089999996,60.26705089999996,60.26705089999996,60.26705089999996,60.26705089999996,60.26705089999996,60.26705089999996,60.26705089999996,60.26705089999996,60.26705089999996,,002,P012,2025_Feb_08_1138,ConditionRich,2021.2.3,59.964656831558585,
24.75,25.0,41,0.0,Stimuli/Blank.png,0,0,0.0,0,42,42,42,,,,,,,,,,,,,24.770405700000993,0.02040570000099251,None,61.01770579999902,61.01770579999902,61.01770579999902,61.01770579999902,61.01770579999902,61.01770579999902,61.01770579999902,61.01770579999902,61.01770579999902,61.01770579999902,,002,P012,2025_Feb_08_1138,ConditionRich,2021.2.3,59.964656831558585,
25.0,25.75,27,0.75,Stimuli/P012/things_girl_06s.jpg,0,0,0.0,0,43,43,43,,,,,,,,,,,,,25.003921900000933,0.00392190000093251,None,61.251233999999386,61.251233999999386,61.251233999999386,61.251233999999386,61.251233999999386,61.251233999999386,61.251233999999386,61.251233999999386,61.251233999999386,61.251233999999386,,002,P012,2025_Feb_08_1138,ConditionRich,2021.2.3,59.964656831558585,
25.75,26.0,41,0.0,Stimuli/Blank.png,0,0,0.0,0,44,44,44,,,,,,,,,,,,,25.756202500000654,0.006202500000654254,None,62.01860139999917,62.01860139999917,62.01860139999917,62.01860139999917,62.01860139999917,62.01860139999917,62.01860139999917,62.01860139999917,62.01860139999917,62.01860139999917,,002,P012,2025_Feb_08_1138,ConditionRich,2021.2.3,59.964656831558585,
26.0,26.75,27,0.75,Stimuli/P012/things_girl_06s.jpg,0,0,0.0,0,45,45,45,,,,,,,,,,,,,26.02160670000012,0.021606700000120327,None,62.268839799999114,62.268839799999114,62.268839799999114,62.268839799999114,62.268839799999114,62.268839799999114,62.268839799999114,62.268839799999114,62.268839799999114,62.268839799999114,,002,P012,2025_Feb_08_1138,ConditionRich,2021.2.3,59.964656831558585,
26.75,27.0,41,0.0,Stimuli/Blank.png,0,0,0.0,0,46,46,46,,,,,,,,,,,,,26.756341400001475,0.00634140000147454,None,63.002780099999654,63.002780099999654,63.002780099999654,63.002780099999654,63.002780099999654,63.002780099999654,63.002780099999654,63.002780099999654,63.002780099999654,63.002780099999654,,002,P012,2025_Feb_08_1138,ConditionRich,2021.2.3,59.964656831558585,
27.0,27.75,27,0.75,Stimuli/P012/things_girl_06s.jpg,0,0,0.0,0,47,47,47,,,,,,,,,,,,,27.005749800000558,0.005749800000558025,None,63.253001299999596,63.253001299999596,63.253001299999596,63.253001299999596,63.253001299999596,63.253001299999596,63.253001299999596,63.253001299999596,63.253001299999596,63.253001299999596,,002,P012,2025_Feb_08_1138,ConditionRich,2021.2.3,59.964656831558585,
27.75,28.0,41,0.0,Stimuli/Blank.png,0,0,0.0,0,48,48,48,,,,,,,,,,,,,27.75718080000115,0.0071808000011515105,None,64.00374620000002,64.00374620000002,64.00374620000002,64.00374620000002,64.00374620000002,64.00374620000002,64.00374620000002,64.00374620000002,64.00374620000002,64.00374620000002,,002,P012,2025_Feb_08_1138,ConditionRich,2021.2.3,59.964656831558585,
28.0,28.75,21,0.75,Stimuli/P012/things_baby_06s.jpg,0,0,0.0,0,49,49,49,,,,,,,,,,,,,28.00726410000061,0.007264100000611506,None,64.27059599999848,64.27059599999848,64.27059599999848,64.27059599999848,64.27059599999848,64.27059599999848,64.27059599999848,64.27059599999848,64.27059599999848,64.27059599999848,,002,P012,2025_Feb_08_1138,ConditionRich,2021.2.3,59.964656831558585,
28.75,29.0,41,0.0,Stimuli/Blank.png,0,0,0.0,0,50,50,50,,,,,,,,,,,,,28.774132000000463,0.02413200000046345,None,65.0212135999991,65.0212135999991,65.0212135999991,65.0212135999991,65.0212135999991,65.0212135999991,65.0212135999991,65.0212135999991,65.0212135999991,65.0212135999991,,002,P012,2025_Feb_08_1138,ConditionRich,2021.2.3,59.964656831558585,
29.0,29.75,21,0.75,Stimuli/P012/things_baby_06s.jpg,0,0,0.0,0,51,51,51,,,,,,,,,,,,,29.009821400000874,0.009821400000873837,None,65.27147449999939,65.27147449999939,65.27147449999939,65.27147449999939,65.27147449999939,65.27147449999939,65.27147449999939,65.27147449999939,65.27147449999939,65.27147449999939,,002,P012,2025_Feb_08_1138,ConditionRich,2021.2.3,59.964656831558585,
29.75,30.0,41,0.0,Stimuli/Blank.png,0,0,0.0,0,52,52,52,,,,,,,,,,,,,29.776373500000773,0.026373500000772765,None,66.03882859999976,66.03882859999976,66.03882859999976,66.03882859999976,66.03882859999976,66.03882859999976,66.03882859999976,66.03882859999976,66.03882859999976,66.03882859999976,,002,P012,2025_Feb_08_1138,ConditionRich,2021.2.3,59.964656831558585,
30.0,30.75,21,0.75,Stimuli/P012/things_baby_06s.jpg,0,0,0.0,0,53,53,53,,,,,,,,,,,,,30.025112799999988,0.025112799999988056,None,66.2723446,66.2723446,66.2723446,66.2723446,66.2723446,66.2723446,66.2723446,66.2723446,66.2723446,66.2723446,,002,P012,2025_Feb_08_1138,ConditionRich,2021.2.3,59.964656831558585,
30.75,31.0,41,0.0,Stimuli/Blank.png,0,0,0.0,0,54,54,54,,,,,,,,,,,,,30.76047060000019,0.010470600000189734,None,67.00777789999847,67.00777789999847,67.00777789999847,67.00777789999847,67.00777789999847,67.00777789999847,67.00777789999847,67.00777789999847,67.00777789999847,67.00777789999847,,002,P012,2025_Feb_08_1138,ConditionRich,2021.2.3,59.964656831558585,
31.0,31.75,21,0.75,Stimuli/P012/things_baby_06s.jpg,0,0,0.0,0,55,55,55,,,,,,,,,,,,,31.00936400000137,0.009364000001369277,None,67.25654469999972,67.25654469999972,67.25654469999972,67.25654469999972,67.25654469999972,67.25654469999972,67.25654469999972,67.25654469999972,67.25654469999972,67.25654469999972,,002,P012,2025_Feb_08_1138,ConditionRich,2021.2.3,59.964656831558585,
31.75,32.0,41,0.0,Stimuli/Blank.png,0,0,0.0,0,56,56,56,,,,,,,,,,,,,31.76035750000119,0.01035750000119151,None,68.00721379999959,68.00721379999959,68.00721379999959,68.00721379999959,68.00721379999959,68.00721379999959,68.00721379999959,68.00721379999959,68.00721379999959,68.00721379999959,,002,P012,2025_Feb_08_1138,ConditionRich,2021.2.3,59.964656831558585,
32.0,32.75,4,0.75,Stimuli/P012/sun_akpdzjejmtbfopdt.jpg,0,0,0.0,0,57,57,57,,,,,,,,,,,,,32.01073010000073,0.010730100000728271,None,68.25743559999864,68.25743559999864,68.25743559999864,68.25743559999864,68.25743559999864,68.25743559999864,68.25743559999864,68.25743559999864,68.25743559999864,68.25743559999864,,002,P012,2025_Feb_08_1138,ConditionRich,2021.2.3,59.964656831558585,
32.75,33.0,41,0.0,Stimuli/Blank.png,0,0,0.0,0,58,58,58,,,,,,,,,,,,,32.760853400001,0.010853400000996771,None,69.00809939999999,69.00809939999999,69.00809939999999,69.00809939999999,69.00809939999999,69.00809939999999,69.00809939999999,69.00809939999999,69.00809939999999,69.00809939999999,,002,P012,2025_Feb_08_1138,ConditionRich,2021.2.3,59.964656831558585,
33.0,33.75,4,0.75,Stimuli/P012/sun_akpdzjejmtbfopdt.jpg,0,0,0.0,0,59,59,59,,,,,,,,,,,,,33.01105110000026,0.011051100000258884,None,69.25831440000002,69.25831440000002,69.25831440000002,69.25831440000002,69.25831440000002,69.25831440000002,69.25831440000002,69.25831440000002,69.25831440000002,69.25831440000002,,002,P012,2025_Feb_08_1138,ConditionRich,2021.2.3,59.964656831558585,
33.75,34.0,41,0.0,Stimuli/Blank.png,0,0,0.0,0,60,60,60,,,,,,,,,,,,,33.76229490000151,0.012294900001506903,None,70.00896739999916,70.00896739999916,70.00896739999916,70.00896739999916,70.00896739999916,70.00896739999916,70.00896739999916,70.00896739999916,70.00896739999916,70.00896739999916,,002,P012,2025_Feb_08_1138,ConditionRich,2021.2.3,59.964656831558585,
34.0,34.75,4,0.75,Stimuli/P012/sun_akpdzjejmtbfopdt.jpg,0,0,0.0,0,61,61,61,,,,,,,,,,,,,34.01285430000098,0.012854300000981311,None,70.27585679999902,70.27585679999902,70.27585679999902,70.27585679999902,70.27585679999902,70.27585679999902,70.27585679999902,70.27585679999902,70.27585679999902,70.27585679999902,,002,P012,2025_Feb_08_1138,ConditionRich,2021.2.3,59.964656831558585,
34.75,35.0,41,0.0,Stimuli/Blank.png,0,0,0.0,0,62,62,62,,,,,,,,,,,,,34.780387200000405,0.030387200000404846,None,71.02656789999855,71.02656789999855,71.02656789999855,71.02656789999855,71.02656789999855,71.02656789999855,71.02656789999855,71.02656789999855,71.02656789999855,71.02656789999855,,002,P012,2025_Feb_08_1138,ConditionRich,2021.2.3,59.964656831558585,
35.0,35.75,4,0.75,Stimuli/P012/sun_akpdzjejmtbfopdt.jpg,0,0,0.0,0,63,63,63,,,,,,,,,,,,,35.014815600001384,0.014815600001384155,None,71.2767778999987,71.2767778999987,71.2767778999987,71.2767778999987,71.2767778999987,71.2767778999987,71.2767778999987,71.2767778999987,71.2767778999987,71.2767778999987,,002,P012,2025_Feb_08_1138,ConditionRich,2021.2.3,59.964656831558585,
35.75,36.0,41,0.0,Stimuli/Blank.png,0,0,0.0,0,64,64,64,,,,,,,,,,,,,35.78011780000088,0.03011780000088038,None,72.02743190000001,72.02743190000001,72.02743190000001,72.02743190000001,72.02743190000001,72.02743190000001,72.02743190000001,72.02743190000001,72.02743190000001,72.02743190000001,,002,P012,2025_Feb_08_1138,ConditionRich,2021.2.3,59.964656831558585,
36.0,36.75,36,0.75,Stimuli/P012/things_shower_cap_06s.jpg,1,0,0.75,0,65,65,65,,,,,,,,,,,,,36.01371150000159,0.013711500001591048,2,72.26096389999839,72.26096389999839,72.26096389999839,72.26096389999839,72.26096389999839,72.26096389999839,72.26096389999839,72.99499089999881,72.26096389999839,72.26096389999839,0.4827911000011227,002,P012,2025_Feb_08_1138,ConditionRich,2021.2.3,59.964656831558585,
36.75,37.0,41,0.0,Stimuli/Blank.png,0,0,0.0,0,66,66,66,,,,,,,,,,,,,36.765132300000914,0.015132300000914256,None,73.01165789999868,73.01165789999868,73.01165789999868,73.01165789999868,73.01165789999868,73.01165789999868,73.01165789999868,73.01165789999868,73.01165789999868,73.01165789999868,,002,P012,2025_Feb_08_1138,ConditionRich,2021.2.3,59.964656831558585,
37.0,37.75,36,0.75,Stimuli/P012/things_shower_cap_06s.jpg,0,0,0.0,0,67,67,67,,,,,,,,,,,,,37.01449500000126,0.01449500000126136,None,73.26186549999875,73.26186549999875,73.26186549999875,73.26186549999875,73.26186549999875,73.26186549999875,73.26186549999875,73.26186549999875,73.26186549999875,73.26186549999875,,002,P012,2025_Feb_08_1138,ConditionRich,2021.2.3,59.964656831558585,
37.75,38.0,41,0.0,Stimuli/Blank.png,0,0,0.0,0,68,68,68,,,,,,,,,,,,,37.76606170000014,0.016061700000136625,None,74.01253079999879,74.01253079999879,74.01253079999879,74.01253079999879,74.01253079999879,74.01253079999879,74.01253079999879,74.01253079999879,74.01253079999879,74.01253079999879,,002,P012,2025_Feb_08_1138,ConditionRich,2021.2.3,59.964656831558585,
38.0,38.75,36,0.75,Stimuli/P012/things_shower_cap_06s.jpg,0,0,0.0,0,69,69,69,,,,,,,,,,,,,37.999278300001606,-0.0007216999983938877,None,74.24606639999911,74.24606639999911,74.24606639999911,74.24606639999911,74.24606639999911,74.24606639999911,74.24606639999911,74.24606639999911,74.24606639999911,74.24606639999911,,002,P012,2025_Feb_08_1138,ConditionRich,2021.2.3,59.964656831558585,
38.75,39.0,41,0.0,Stimuli/Blank.png,0,0,0.0,0,70,70,70,,,,,,,,,,,,,38.75057200000083,0.0005720000008295756,None,74.99674179999965,74.99674179999965,74.99674179999965,74.99674179999965,74.99674179999965,74.99674179999965,74.99674179999965,74.99674179999965,74.99674179999965,74.99674179999965,,002,P012,2025_Feb_08_1138,ConditionRich,2021.2.3,59.964656831558585,
39.0,39.75,36,0.75,Stimuli/P012/things_shower_cap_06s.jpg,0,0,0.0,0,71,71,71,,,,,,,,,,,,,39.00045470000077,0.0004547000007733004,None,75.24696599999879,75.24696599999879,75.24696599999879,75.24696599999879,75.24696599999879,75.24696599999879,75.24696599999879,75.24696599999879,75.24696599999879,75.24696599999879,,002,P012,2025_Feb_08_1138,ConditionRich,2021.2.3,59.964656831558585,
39.75,40.0,41,0.0,Stimuli/Blank.png,0,0,0.0,0,72,72,72,,,,,,,,,,,,,39.75071080000089,0.0007108000008884119,None,75.99761899999976,75.99761899999976,75.99761899999976,75.99761899999976,75.99761899999976,75.99761899999976,75.99761899999976,75.99761899999976,75.99761899999976,75.99761899999976,,002,P012,2025_Feb_08_1138,ConditionRich,2021.2.3,59.964656831558585,
40.0,40.75,24,0.75,Stimuli/P012/things_doily_06s.jpg,1,0,0.75,0,73,73,73,,,,,,,,,,,,,40.000643300001684,0.0006433000016841106,2,76.24784089999957,76.24784089999957,76.24784089999957,76.24784089999957,76.24784089999957,76.24784089999957,76.24784089999957,76.9818211999991,76.24784089999957,76.24784089999957,0.48496110000087356,002,P012,2025_Feb_08_1138,ConditionRich,2021.2.3,59.964656831558585,
40.75,41.0,41,0.0,Stimuli/Blank.png,0,0,0.0,0,74,74,74,,,,,,,,,,,,,40.751416200000676,0.0014162000006763265,None,76.99850709999919,76.99850709999919,76.99850709999919,76.99850709999919,76.99850709999919,76.99850709999919,76.99850709999919,76.99850709999919,76.99850709999919,76.99850709999919,,002,P012,2025_Feb_08_1138,ConditionRich,2021.2.3,59.964656831558585,
41.0,41.75,24,0.75,Stimuli/P012/things_doily_06s.jpg,0,0,0.0,0,75,75,75,,,,,,,,,,,,,41.001436500000636,0.0014365000006364426,None,77.24870069999997,77.24870069999997,77.24870069999997,77.24870069999997,77.24870069999997,77.24870069999997,77.24870069999997,77.24870069999997,77.24870069999997,77.24870069999997,,002,P012,2025_Feb_08_1138,ConditionRich,2021.2.3,59.964656831558585,
41.75,42.0,41,0.0,Stimuli/Blank.png,0,0,0.0,0,76,76,76,,,,,,,,,,,,,41.75507370000014,0.00507370000013907,None,78.01607530000001,78.01607530000001,78.01607530000001,78.01607530000001,78.01607530000001,78.01607530000001,78.01607530000001,78.01607530000001,78.01607530000001,78.01607530000001,,002,P012,2025_Feb_08_1138,ConditionRich,2021.2.3,59.964656831558585,
42.0,42.75,24,0.75,Stimuli/P012/things_doily_06s.jpg,0,0,0.0,0,77,77,77,,,,,,,,,,,,,42.02030090000153,0.020300900001529953,None,78.28297620000012,78.28297620000012,78.28297620000012,78.28297620000012,78.28297620000012,78.28297620000012,78.28297620000012,78.28297620000012,78.28297620000012,78.28297620000012,,002,P012,2025_Feb_08_1138,ConditionRich,2021.2.3,59.964656831558585,
42.75,43.0,41,0.0,Stimuli/Blank.png,0,0,0.0,0,78,78,78,,,,,,,,,,,,,42.769932100000005,0.019932100000005448,None,79.01695929999914,79.01695929999914,79.01695929999914,79.01695929999914,79.01695929999914,79.01695929999914,79.01695929999914,79.01695929999914,79.01695929999914,79.01695929999914,,002,P012,2025_Feb_08_1138,ConditionRich,2021.2.3,59.964656831558585,
43.0,43.75,24,0.75,Stimuli/P012/things_doily_06s.jpg,0,0,0.0,0,79,79,79,,,,,,,,,,,,,43.00407520000044,0.0040752000004431466,None,79.25048819999938,79.25048819999938,79.25048819999938,79.25048819999938,79.25048819999938,79.25048819999938,79.25048819999938,79.25048819999938,79.25048819999938,79.25048819999938,,002,P012,2025_Feb_08_1138,ConditionRich,2021.2.3,59.964656831558585,
43.75,44.0,41,0.0,Stimuli/Blank.png,0,0,0.0,0,80,80,80,,,,,,,,,,,,,43.75522760000058,0.0052276000005804235,None,80.00120919999972,80.00120919999972,80.00120919999972,80.00120919999972,80.00120919999972,80.00120919999972,80.00120919999972,80.00120919999972,80.00120919999972,80.00120919999972,,002,P012,2025_Feb_08_1138,ConditionRich,2021.2.3,59.964656831558585,
44.0,44.75,17,0.75,Stimuli/P012/sun_btvwhlxbhcqnqzok.jpg,0,0,0.0,0,81,81,81,,,,,,,,,,,,,44.00589090000176,0.005890900001759292,None,80.25138669999978,80.25138669999978,80.25138669999978,80.25138669999978,80.25138669999978,80.25138669999978,80.25138669999978,80.25138669999978,80.25138669999978,80.25138669999978,,002,P012,2025_Feb_08_1138,ConditionRich,2021.2.3,59.964656831558585,
44.75,45.0,41,0.0,Stimuli/Blank.png,0,0,0.0,0,82,82,82,,,,,,,,,,,,,44.754890800000794,0.0048908000007941155,None,81.00205469999855,81.00205469999855,81.00205469999855,81.00205469999855,81.00205469999855,81.00205469999855,81.00205469999855,81.00205469999855,81.00205469999855,81.00205469999855,,002,P012,2025_Feb_08_1138,ConditionRich,2021.2.3,59.964656831558585,
45.0,45.75,17,0.75,Stimuli/P012/sun_btvwhlxbhcqnqzok.jpg,0,0,0.0,0,83,83,83,,,,,,,,,,,,,45.00533370000085,0.005333700000846875,None,81.25226779999866,81.25226779999866,81.25226779999866,81.25226779999866,81.25226779999866,81.25226779999866,81.25226779999866,81.25226779999866,81.25226779999866,81.25226779999866,,002,P012,2025_Feb_08_1138,ConditionRich,2021.2.3,59.964656831558585,
45.75,46.0,41,0.0,Stimuli/Blank.png,0,0,0.0,0,84,84,84,,,,,,,,,,,,,45.75566330000038,0.005663300000378513,None,82.00292939999963,82.00292939999963,82.00292939999963,82.00292939999963,82.00292939999963,82.00292939999963,82.00292939999963,82.00292939999963,82.00292939999963,82.00292939999963,,002,P012,2025_Feb_08_1138,ConditionRich,2021.2.3,59.964656831558585,
46.0,46.75,17,0.75,Stimuli/P012/sun_btvwhlxbhcqnqzok.jpg,0,0,0.0,0,85,85,85,,,,,,,,,,,,,46.00655970000116,0.006559700001162128,None,82.25315330000012,82.25315330000012,82.25315330000012,82.25315330000012,82.25315330000012,82.25315330000012,82.25315330000012,82.25315330000012,82.25315330000012,82.25315330000012,,002,P012,2025_Feb_08_1138,ConditionRich,2021.2.3,59.964656831558585,
46.75,47.0,41,0.0,Stimuli/Blank.png,0,0,0.0,0,86,86,86,,,,,,,,,,,,,46.75674400000025,0.006744000000253436,None,83.00487559999965,83.00487559999965,83.00487559999965,83.00487559999965,83.00487559999965,83.00487559999965,83.00487559999965,83.00487559999965,83.00487559999965,83.00487559999965,,002,P012,2025_Feb_08_1138,ConditionRich,2021.2.3,59.964656831558585,
47.0,47.75,17,0.75,Stimuli/P012/sun_btvwhlxbhcqnqzok.jpg,0,0,0.0,0,87,87,87,,,,,,,,,,,,,47.00972250000086,0.009722500000862055,None,83.27072509999925,83.27072509999925,83.27072509999925,83.27072509999925,83.27072509999925,83.27072509999925,83.27072509999925,83.27072509999925,83.27072509999925,83.27072509999925,,002,P012,2025_Feb_08_1138,ConditionRich,2021.2.3,59.964656831558585,
47.75,48.0,41,0.0,Stimuli/Blank.png,0,0,0.0,0,88,88,88,,,,,,,,,,,,,47.774076000001514,0.02407600000151433,None,84.02137929999844,84.02137929999844,84.02137929999844,84.02137929999844,84.02137929999844,84.02137929999844,84.02137929999844,84.02137929999844,84.02137929999844,84.02137929999844,,002,P012,2025_Feb_08_1138,ConditionRich,2021.2.3,59.964656831558585,
48.0,48.75,7,0.75,Stimuli/P012/sun_arugqgwhwdjxezyt.jpg,0,0,0.0,0,89,89,89,,,,,,,,,,,,,48.00838350000049,0.00838350000049104,None,84.25492649999978,84.25492649999978,84.25492649999978,84.25492649999978,84.25492649999978,84.25492649999978,84.25492649999978,84.25492649999978,84.25492649999978,84.25492649999978,,002,P012,2025_Feb_08_1138,ConditionRich,2021.2.3,59.964656831558585,
48.75,49.0,41,0.0,Stimuli/Blank.png,0,0,0.0,0,90,90,90,,,,,,,,,,,,,48.7603461000017,0.010346100001697778,None,85.02228719999948,85.02228719999948,85.02228719999948,85.02228719999948,85.02228719999948,85.02228719999948,85.02228719999948,85.02228719999948,85.02228719999948,85.02228719999948,,002,P012,2025_Feb_08_1138,ConditionRich,2021.2.3,59.964656831558585,
49.0,49.75,7,0.75,Stimuli/P012/sun_arugqgwhwdjxezyt.jpg,0,0,0.0,0,91,91,91,,,,,,,,,,,,,49.026003500001025,0.026003500001024804,None,85.27248679999866,85.27248679999866,85.27248679999866,85.27248679999866,85.27248679999866,85.27248679999866,85.27248679999866,85.27248679999866,85.27248679999866,85.27248679999866,,002,P012,2025_Feb_08_1138,ConditionRich,2021.2.3,59.964656831558585,
49.75,50.0,41,0.0,Stimuli/Blank.png,0,0,0.0,0,92,92,92,,,,,,,,,,,,,49.75933250000162,0.009332500001619337,None,86.00647479999861,86.00647479999861,86.00647479999861,86.00647479999861,86.00647479999861,86.00647479999861,86.00647479999861,86.00647479999861,86.00647479999861,86.00647479999861,,002,P012,2025_Feb_08_1138,ConditionRich,2021.2.3,59.964656831558585,
50.0,50.75,7,0.75,Stimuli/P012/sun_arugqgwhwdjxezyt.jpg,0,0,0.0,0,93,93,93,,,,,,,,,,,,,50.009952900001736,0.009952900001735543,None,86.2567024,86.2567024,86.2567024,86.2567024,86.2567024,86.2567024,86.2567024,86.2567024,86.2567024,86.2567024,,002,P012,2025_Feb_08_1138,ConditionRich,2021.2.3,59.964656831558585,
50.75,51.0,41,0.0,Stimuli/Blank.png,0,0,0.0,0,94,94,94,,,,,,,,,,,,,50.760167500000534,0.010167500000534346,None,87.0073584999991,87.0073584999991,87.0073584999991,87.0073584999991,87.0073584999991,87.0073584999991,87.0073584999991,87.0073584999991,87.0073584999991,87.0073584999991,,002,P012,2025_Feb_08_1138,ConditionRich,2021.2.3,59.964656831558585,
51.0,51.75,7,0.75,Stimuli/P012/sun_arugqgwhwdjxezyt.jpg,0,0,0.0,0,95,95,95,,,,,,,,,,,,,51.010912000001554,0.010912000001553679,None,87.25758270000006,87.25758270000006,87.25758270000006,87.25758270000006,87.25758270000006,87.25758270000006,87.25758270000006,87.25758270000006,87.25758270000006,87.25758270000006,,002,P012,2025_Feb_08_1138,ConditionRich,2021.2.3,59.964656831558585,
51.75,52.0,41,0.0,Stimuli/Blank.png,0,0,0.0,0,96,96,96,,,,,,,,,,,,,51.76111150000179,0.011111500001788954,None,88.00825429999895,88.00825429999895,88.00825429999895,88.00825429999895,88.00825429999895,88.00825429999895,88.00825429999895,88.00825429999895,88.00825429999895,88.00825429999895,,002,P012,2025_Feb_08_1138,ConditionRich,2021.2.3,59.964656831558585,
52.0,52.75,10,0.75,Stimuli/P012/sun_awufkrkrdrdbvvis.jpg,0,0,0.0,0,97,97,97,,,,,,,,,,,,,52.01188360000015,0.011883600000146544,None,88.25847019999856,88.25847019999856,88.25847019999856,88.25847019999856,88.25847019999856,88.25847019999856,88.25847019999856,88.25847019999856,88.25847019999856,88.25847019999856,,002,P012,2025_Feb_08_1138,ConditionRich,2021.2.3,59.964656831558585,
52.75,53.0,41,0.0,Stimuli/Blank.png,0,0,0.0,0,98,98,98,,,,,,,,,,,,,52.76183150000179,0.011831500001790118,None,89.0091339999999,89.0091339999999,89.0091339999999,89.0091339999999,89.0091339999999,89.0091339999999,89.0091339999999,89.0091339999999,89.0091339999999,89.0091339999999,,002,P012,2025_Feb_08_1138,ConditionRich,2021.2.3,59.964656831558585,
53.0,53.75,10,0.75,Stimuli/P012/sun_awufkrkrdrdbvvis.jpg,0,0,0.0,0,99,99,99,,,,,,,,,,,,,53.01203710000118,0.012037100001180079,None,89.25935219999883,89.25935219999883,89.25935219999883,89.25935219999883,89.25935219999883,89.25935219999883,89.25935219999883,89.25935219999883,89.25935219999883,89.25935219999883,,002,P012,2025_Feb_08_1138,ConditionRich,2021.2.3,59.964656831558585,
53.75,54.0,41,0.0,Stimuli/Blank.png,0,0,0.0,0,100,100,100,,,,,,,,,,,,,53.76575220000086,0.015752200000861194,None,90.02670949999992,90.02670949999992,90.02670949999992,90.02670949999992,90.02670949999992,90.02670949999992,90.02670949999992,90.02670949999992,90.02670949999992,90.02670949999992,,002,P012,2025_Feb_08_1138,ConditionRich,2021.2.3,59.964656831558585,
54.0,54.75,10,0.75,Stimuli/P012/sun_awufkrkrdrdbvvis.jpg,0,0,0.0,0,101,101,101,,,,,,,,,,,,,54.01512550000007,0.015125500000067404,None,90.27692289999868,90.27692289999868,90.27692289999868,90.27692289999868,90.27692289999868,90.27692289999868,90.27692289999868,90.27692289999868,90.27692289999868,90.27692289999868,,002,P012,2025_Feb_08_1138,ConditionRich,2021.2.3,59.964656831558585,
54.75,55.0,41,0.0,Stimuli/Blank.png,0,0,0.0,0,102,102,102,,,,,,,,,,,,,54.763665800001036,0.013665800001035677,None,91.0109040999996,91.0109040999996,91.0109040999996,91.0109040999996,91.0109040999996,91.0109040999996,91.0109040999996,91.0109040999996,91.0109040999996,91.0109040999996,,002,P012,2025_Feb_08_1138,ConditionRich,2021.2.3,59.964656831558585,
55.0,55.75,10,0.75,Stimuli/P012/sun_awufkrkrdrdbvvis.jpg,0,0,0.0,0,103,103,103,,,,,,,,,,,,,55.01416580000114,0.01416580000113754,None,91.26112379999904,91.26112379999904,91.26112379999904,91.26112379999904,91.26112379999904,91.26112379999904,91.26112379999904,91.26112379999904,91.26112379999904,91.26112379999904,,002,P012,2025_Feb_08_1138,ConditionRich,2021.2.3,59.964656831558585,
55.75,56.0,41,0.0,Stimuli/Blank.png,0,0,0.0,0,104,104,104,,,,,,,,,,,,,55.76563260000148,0.015632600001481478,None,92.01179609999963,92.01179609999963,92.01179609999963,92.01179609999963,92.01179609999963,92.01179609999963,92.01179609999963,92.01179609999963,92.01179609999963,92.01179609999963,,002,P012,2025_Feb_08_1138,ConditionRich,2021.2.3,59.964656831558585,
56.0,56.75,13,0.75,Stimuli/P012/sun_bjedvzikugwleyer.jpg,0,0,0.0,0,105,105,105,,,,,,,,,,,,,55.998620700000174,-0.0013792999998258892,None,92.24530090000007,92.24530090000007,92.24530090000007,92.24530090000007,92.24530090000007,92.24530090000007,92.24530090000007,92.24530090000007,92.24530090000007,92.24530090000007,,002,P012,2025_Feb_08_1138,ConditionRich,2021.2.3,59.964656831558585,
56.75,57.0,41,0.0,Stimuli/Blank.png,0,0,0.0,0,106,106,106,,,,,,,,,,,,,56.75011370000175,0.00011370000174792949,None,92.99600559999999,92.99600559999999,92.99600559999999,92.99600559999999,92.99600559999999,92.99600559999999,92.99600559999999,92.99600559999999,92.99600559999999,92.99600559999999,,002,P012,2025_Feb_08_1138,ConditionRich,2021.2.3,59.964656831558585,
57.0,57.75,13,0.75,Stimuli/P012/sun_bjedvzikugwleyer.jpg,0,0,0.0,0,107,107,107,,,,,,,,,,,,,56.99895290000131,-0.0010470999986864626,None,93.24621209999896,93.24621209999896,93.24621209999896,93.24621209999896,93.24621209999896,93.24621209999896,93.24621209999896,93.24621209999896,93.24621209999896,93.24621209999896,,002,P012,2025_Feb_08_1138,ConditionRich,2021.2.3,59.964656831558585,
57.75,58.0,41,0.0,Stimuli/Blank.png,0,0,0.0,0,108,108,108,,,,,,,,,,,,,57.7504581000012,0.0004581000011967262,None,93.9968915999998,93.9968915999998,93.9968915999998,93.9968915999998,93.9968915999998,93.9968915999998,93.9968915999998,93.9968915999998,93.9968915999998,93.9968915999998,,002,P012,2025_Feb_08_1138,ConditionRich,2021.2.3,59.964656831558585,
58.0,58.75,13,0.75,Stimuli/P012/sun_bjedvzikugwleyer.jpg,0,0,0.0,0,109,109,109,,,,,,,,,,,,,58.000448400000096,0.0004484000000957167,None,94.24710659999982,94.24710659999982,94.24710659999982,94.24710659999982,94.24710659999982,94.24710659999982,94.24710659999982,94.24710659999982,94.24710659999982,94.24710659999982,,002,P012,2025_Feb_08_1138,ConditionRich,2021.2.3,59.964656831558585,
58.75,59.0,41,0.0,Stimuli/Blank.png,0,0,0.0,0,110,110,110,,,,,,,,,,,,,58.75046630000179,0.00046630000178993214,None,94.9977676999988,94.9977676999988,94.9977676999988,94.9977676999988,94.9977676999988,94.9977676999988,94.9977676999988,94.9977676999988,94.9977676999988,94.9977676999988,,002,P012,2025_Feb_08_1138,ConditionRich,2021.2.3,59.964656831558585,
59.0,59.75,13,0.75,Stimuli/P012/sun_bjedvzikugwleyer.jpg,0,0,0.0,0,111,111,111,,,,,,,,,,,,,59.00148640000043,0.0014864000004308764,None,95.26470849999896,95.26470849999896,95.26470849999896,95.26470849999896,95.26470849999896,95.26470849999896,95.26470849999896,95.26470849999896,95.26470849999896,95.26470849999896,,002,P012,2025_Feb_08_1138,ConditionRich,2021.2.3,59.964656831558585,
59.75,60.0,41,0.0,Stimuli/Blank.png,0,0,0.0,0,112,112,112,,,,,,,,,,,,,59.76969730000019,0.01969730000018899,None,96.01532079999924,96.01532079999924,96.01532079999924,96.01532079999924,96.01532079999924,96.01532079999924,96.01532079999924,96.01532079999924,96.01532079999924,96.01532079999924,,002,P012,2025_Feb_08_1138,ConditionRich,2021.2.3,59.964656831558585,
60.0,60.75,2,0.75,Stimuli/P012/sun_aewhvqonribwlxiq.jpg,0,0,0.0,0,113,113,113,,,,,,,,,,,,,60.00160190000133,0.0016019000013329787,None,96.24887889999991,96.24887889999991,96.24887889999991,96.24887889999991,96.24887889999991,96.24887889999991,96.24887889999991,96.24887889999991,96.24887889999991,96.24887889999991,,002,P012,2025_Feb_08_1138,ConditionRich,2021.2.3,59.964656831558585,
60.75,61.0,41,0.0,Stimuli/Blank.png,0,0,0.0,0,114,114,114,,,,,,,,,,,,,60.75461380000161,0.00461380000160716,None,97.01625009999952,97.01625009999952,97.01625009999952,97.01625009999952,97.01625009999952,97.01625009999952,97.01625009999952,97.01625009999952,97.01625009999952,97.01625009999952,,002,P012,2025_Feb_08_1138,ConditionRich,2021.2.3,59.964656831558585,
61.0,61.75,2,0.75,Stimuli/P012/sun_aewhvqonribwlxiq.jpg,0,0,0.0,0,115,115,115,,,,,,,,,,,,,61.020012700000734,0.020012700000734185,None,97.2664423999995,97.2664423999995,97.2664423999995,97.2664423999995,97.2664423999995,97.2664423999995,97.2664423999995,97.2664423999995,97.2664423999995,97.2664423999995,,002,P012,2025_Feb_08_1138,ConditionRich,2021.2.3,59.964656831558585,
61.75,62.0,41,0.0,Stimuli/Blank.png,0,0,0.0,0,116,116,116,,,,,,,,,,,,,61.75451659999999,0.004516599999988102,None,98.00058419999914,98.00058419999914,98.00058419999914,98.00058419999914,98.00058419999914,98.00058419999914,98.00058419999914,98.00058419999914,98.00058419999914,98.00058419999914,,002,P012,2025_Feb_08_1138,ConditionRich,2021.2.3,59.964656831558585,
62.0,62.75,2,0.75,Stimuli/P012/sun_aewhvqonribwlxiq.jpg,0,0,0.0,0,117,117,117,,,,,,,,,,,,,62.004519700001765,0.004519700001765159,None,98.26736159999928,98.26736159999928,98.26736159999928,98.26736159999928,98.26736159999928,98.26736159999928,98.26736159999928,98.26736159999928,98.26736159999928,98.26736159999928,,002,P012,2025_Feb_08_1138,ConditionRich,2021.2.3,59.964656831558585,
62.75,63.0,41,0.0,Stimuli/Blank.png,0,0,0.0,0,118,118,118,,,,,,,,,,,,,62.77126020000105,0.021260200001052,None,99.01798749999944,99.01798749999944,99.01798749999944,99.01798749999944,99.01798749999944,99.01798749999944,99.01798749999944,99.01798749999944,99.01798749999944,99.01798749999944,,002,P012,2025_Feb_08_1138,ConditionRich,2021.2.3,59.964656831558585,
63.0,63.75,2,0.75,Stimuli/P012/sun_aewhvqonribwlxiq.jpg,0,0,0.0,0,119,119,119,,,,,,,,,,,,,63.00435740000103,0.00435740000102669,None,99.25150869999925,99.25150869999925,99.25150869999925,99.25150869999925,99.25150869999925,99.25150869999925,99.25150869999925,99.25150869999925,99.25150869999925,99.25150869999925,,002,P012,2025_Feb_08_1138,ConditionRich,2021.2.3,59.964656831558585,
63.75,64.0,41,0.0,Stimuli/Blank.png,0,0,0.0,0,120,120,120,,,,,,,,,,,,,63.75503360000039,0.005033600000388105,None,100.0021926999998,100.0021926999998,100.0021926999998,100.0021926999998,100.0021926999998,100.0021926999998,100.0021926999998,100.0021926999998,100.0021926999998,100.0021926999998,,002,P012,2025_Feb_08_1138,ConditionRich,2021.2.3,59.964656831558585,
64.0,64.75,20,0.75,Stimuli/P012/sun_ciifteeudwpxupnw.jpg,0,0,0.0,0,121,121,121,,,,,,,,,,,,,64.0050777000015,0.005077700001493213,None,100.25242569999864,100.25242569999864,100.25242569999864,100.25242569999864,100.25242569999864,100.25242569999864,100.25242569999864,100.25242569999864,100.25242569999864,100.25242569999864,,002,P012,2025_Feb_08_1138,ConditionRich,2021.2.3,59.964656831558585,
64.75,65.0,41,0.0,Stimuli/Blank.png,0,0,0.0,0,122,122,122,,,,,,,,,,,,,64.7565693000015,0.006569300001501688,None,101.00304700000015,101.00304700000015,101.00304700000015,101.00304700000015,101.00304700000015,101.00304700000015,101.00304700000015,101.00304700000015,101.00304700000015,101.00304700000015,,002,P012,2025_Feb_08_1138,ConditionRich,2021.2.3,59.964656831558585,
65.0,65.75,20,0.75,Stimuli/P012/sun_ciifteeudwpxupnw.jpg,0,0,0.0,0,123,123,123,,,,,,,,,,,,,65.00684170000022,0.006841700000222772,None,101.25330140000005,101.25330140000005,101.25330140000005,101.25330140000005,101.25330140000005,101.25330140000005,101.25330140000005,101.25330140000005,101.25330140000005,101.25330140000005,,002,P012,2025_Feb_08_1138,ConditionRich,2021.2.3,59.964656831558585,
65.75,66.0,41,0.0,Stimuli/Blank.png,0,0,0.0,0,124,124,124,,,,,,,,,,,,,65.75742050000008,0.00742050000008021,None,102.0039614999987,102.0039614999987,102.0039614999987,102.0039614999987,102.0039614999987,102.0039614999987,102.0039614999987,102.0039614999987,102.0039614999987,102.0039614999987,,002,P012,2025_Feb_08_1138,ConditionRich,2021.2.3,59.964656831558585,
66.0,66.75,20,0.75,Stimuli/P012/sun_ciifteeudwpxupnw.jpg,0,0,0.0,0,125,125,125,,,,,,,,,,,,,66.00694000000112,0.006940000001122826,None,102.25418699999864,102.25418699999864,102.25418699999864,102.25418699999864,102.25418699999864,102.25418699999864,102.25418699999864,102.25418699999864,102.25418699999864,102.25418699999864,,002,P012,2025_Feb_08_1138,ConditionRich,2021.2.3,59.964656831558585,
66.75,67.0,41,0.0,Stimuli/Blank.png,0,0,0.0,0,126,126,126,,,,,,,,,,,,,66.7598093000015,0.009809300001506926,None,103.02153339999859,103.02153339999859,103.02153339999859,103.02153339999859,103.02153339999859,103.02153339999859,103.02153339999859,103.02153339999859,103.02153339999859,103.02153339999859,,002,P012,2025_Feb_08_1138,ConditionRich,2021.2.3,59.964656831558585,
67.0,67.75,20,0.75,Stimuli/P012/sun_ciifteeudwpxupnw.jpg,0,0,0.0,0,127,127,127,,,,,,,,,,,,,67.02450710000085,0.02450710000084655,None,103.27176239999972,103.27176239999972,103.27176239999972,103.27176239999972,103.27176239999972,103.27176239999972,103.27176239999972,103.27176239999972,103.27176239999972,103.27176239999972,,002,P012,2025_Feb_08_1138,ConditionRich,2021.2.3,59.964656831558585,
67.75,68.0,41,0.0,Stimuli/Blank.png,0,0,0.0,0,128,128,128,,,,,,,,,,,,,67.75924970000051,0.00924970000050962,None,104.00574139999844,104.00574139999844,104.00574139999844,104.00574139999844,104.00574139999844,104.00574139999844,104.00574139999844,104.00574139999844,104.00574139999844,104.00574139999844,,002,P012,2025_Feb_08_1138,ConditionRich,2021.2.3,59.964656831558585,
68.0,68.75,26,0.75,Stimuli/P012/things_gazelle_06s.jpg,1,0,0.75,0,129,129,129,,,,,,,,,,,,,68.0095796000005,0.009579600000506616,2,104.27263729999868,104.27263729999868,104.27263729999868,104.27263729999868,104.27263729999868,104.27263729999868,104.27263729999868,104.98993569999948,104.27263729999868,104.27263729999868,0.44634079999923415,002,P012,2025_Feb_08_1138,ConditionRich,2021.2.3,59.964656831558585,
68.75,69.0,41,0.0,Stimuli/Blank.png,0,0,0.0,0,130,130,130,,,,,,,,,,,,,68.77614590000121,0.026145900001210975,None,105.02441989999897,105.02441989999897,105.02441989999897,105.02441989999897,105.02441989999897,105.02441989999897,105.02441989999897,105.02441989999897,105.02441989999897,105.02441989999897,,002,P012,2025_Feb_08_1138,ConditionRich,2021.2.3,59.964656831558585,
69.0,69.75,26,0.75,Stimuli/P012/things_gazelle_06s.jpg,0,0,0.0,0,131,131,131,,,,,,,,,,,,,69.01033530000132,0.010335300001315773,None,105.27354339999874,105.27354339999874,105.27354339999874,105.27354339999874,105.27354339999874,105.27354339999874,105.27354339999874,105.27354339999874,105.27354339999874,105.27354339999874,,002,P012,2025_Feb_08_1138,ConditionRich,2021.2.3,59.964656831558585,
69.75,70.0,41,0.0,Stimuli/Blank.png,0,0,0.0,0,132,132,132,,,,,,,,,,,,,69.77684790000058,0.026847900000575464,None,106.02418469999975,106.02418469999975,106.02418469999975,106.02418469999975,106.02418469999975,106.02418469999975,106.02418469999975,106.02418469999975,106.02418469999975,106.02418469999975,,002,P012,2025_Feb_08_1138,ConditionRich,2021.2.3,59.964656831558585,
70.0,70.75,26,0.75,Stimuli/P012/things_gazelle_06s.jpg,0,0,0.0,0,133,133,133,,,,,,,,,,,,,70.01049680000142,0.010496800001419615,None,106.2577309999997,106.2577309999997,106.2577309999997,106.2577309999997,106.2577309999997,106.2577309999997,106.2577309999997,106.2577309999997,106.2577309999997,106.2577309999997,,002,P012,2025_Feb_08_1138,ConditionRich,2021.2.3,59.964656831558585,
70.75,71.0,41,0.0,Stimuli/Blank.png,0,0,0.0,0,134,134,134,,,,,,,,,,,,,70.761265000001,0.0112650000010035,None,107.00839099999939,107.00839099999939,107.00839099999939,107.00839099999939,107.00839099999939,107.00839099999939,107.00839099999939,107.00839099999939,107.00839099999939,107.00839099999939,,002,P012,2025_Feb_08_1138,ConditionRich,2021.2.3,59.964656831558585,
71.0,71.75,26,0.75,Stimuli/P012/things_gazelle_06s.jpg,0,0,0.0,0,135,135,135,,,,,,,,,,,,,71.0119209000004,0.0119209000004048,None,107.25862999999845,107.25862999999845,107.25862999999845,107.25862999999845,107.25862999999845,107.25862999999845,107.25862999999845,107.25862999999845,107.25862999999845,107.25862999999845,,002,P012,2025_Feb_08_1138,ConditionRich,2021.2.3,59.964656831558585,
71.75,72.0,41,0.0,Stimuli/Blank.png,0,0,0.0,0,136,136,136,,,,,,,,,,,,,71.76195120000011,0.011951200000112294,None,108.00928359999853,108.00928359999853,108.00928359999853,108.00928359999853,108.00928359999853,108.00928359999853,108.00928359999853,108.00928359999853,108.00928359999853,108.00928359999853,,002,P012,2025_Feb_08_1138,ConditionRich,2021.2.3,59.964656831558585,
72.0,72.75,16,0.75,Stimuli/P012/sun_bpuwvyadswjfoaby.jpg,0,0,0.0,0,137,137,137,,,,,,,,,,,,,72.01309120000042,0.013091200000417302,None,108.25950289999855,108.25950289999855,108.25950289999855,108.25950289999855,108.25950289999855,108.25950289999855,108.25950289999855,108.25950289999855,108.25950289999855,108.25950289999855,,002,P012,2025_Feb_08_1138,ConditionRich,2021.2.3,59.964656831558585,
72.75,73.0,41,0.0,Stimuli/Blank.png,0,0,0.0,0,138,138,138,,,,,,,,,,,,,72.76523460000135,0.015234600001349463,None,109.02686409999842,109.02686409999842,109.02686409999842,109.02686409999842,109.02686409999842,109.02686409999842,109.02686409999842,109.02686409999842,109.02686409999842,109.02686409999842,,002,P012,2025_Feb_08_1138,ConditionRich,2021.2.3,59.964656831558585,
73.0,73.75,16,0.75,Stimuli/P012/sun_bpuwvyadswjfoaby.jpg,0,0,0.0,0,139,139,139,,,,,,,,,,,,,73.03045770000062,0.030457700000624754,None,109.29378050000014,109.29378050000014,109.29378050000014,109.29378050000014,109.29378050000014,109.29378050000014,109.29378050000014,109.29378050000014,109.29378050000014,109.29378050000014,,002,P012,2025_Feb_08_1138,ConditionRich,2021.2.3,59.964656831558585,
73.75,74.0,41,0.0,Stimuli/Blank.png,0,0,0.0,0,140,140,140,,,,,,,,,,,,,73.7812225000016,0.031222500001604203,None,110.02773809999962,110.02773809999962,110.02773809999962,110.02773809999962,110.02773809999962,110.02773809999962,110.02773809999962,110.02773809999962,110.02773809999962,110.02773809999962,,002,P012,2025_Feb_08_1138,ConditionRich,2021.2.3,59.964656831558585,
74.0,74.75,16,0.75,Stimuli/P012/sun_bpuwvyadswjfoaby.jpg,0,0,0.0,0,141,141,141,,,,,,,,,,,,,74.01417030000084,0.014170300000841962,None,110.26126959999965,110.26126959999965,110.26126959999965,110.26126959999965,110.26126959999965,110.26126959999965,110.26126959999965,110.26126959999965,110.26126959999965,110.26126959999965,,002,P012,2025_Feb_08_1138,ConditionRich,2021.2.3,59.964656831558585,
74.75,75.0,41,0.0,Stimuli/Blank.png,0,0,0.0,0,142,142,142,,,,,,,,,,,,,74.76587300000028,0.015873000000283355,None,111.01195459999872,111.01195459999872,111.01195459999872,111.01195459999872,111.01195459999872,111.01195459999872,111.01195459999872,111.01195459999872,111.01195459999872,111.01195459999872,,002,P012,2025_Feb_08_1138,ConditionRich,2021.2.3,59.964656831558585,
75.0,75.75,16,0.75,Stimuli/P012/sun_bpuwvyadswjfoaby.jpg,1,0,0.75,0,143,143,143,,,,,,,,,,,,,75.00027240000054,0.00027240000054007396,2,111.26216449999993,111.26216449999993,111.26216449999993,111.26216449999993,111.26216449999993,111.26216449999993,111.26216449999993,111.99613789999967,111.26216449999993,111.26216449999993,0.5069397000006575,002,P012,2025_Feb_08_1138,ConditionRich,2021.2.3,59.964656831558585,
75.75,76.0,41,0.0,Stimuli/Blank.png,0,0,0.0,0,144,144,144,,,,,,,,,,,,,75.76625150000109,0.01625150000108988,None,112.01282569999967,112.01282569999967,112.01282569999967,112.01282569999967,112.01282569999967,112.01282569999967,112.01282569999967,112.01282569999967,112.01282569999967,112.01282569999967,,002,P012,2025_Feb_08_1138,ConditionRich,2021.2.3,59.964656831558585,
76.0,76.75,34,0.75,Stimuli/P012/things_polar_bear_06s.jpg,0,0,0.0,0,145,145,145,,,,,,,,,,,,,75.99919240000054,-0.0008075999994616723,None,112.24634989999868,112.24634989999868,112.24634989999868,112.24634989999868,112.24634989999868,112.24634989999868,112.24634989999868,112.24634989999868,112.24634989999868,112.24634989999868,,002,P012,2025_Feb_08_1138,ConditionRich,2021.2.3,59.964656831558585,
76.75,77.0,41,0.0,Stimuli/Blank.png,0,0,0.0,0,146,146,146,,,,,,,,,,,,,76.75052170000163,0.0005217000016273232,None,112.99703389999922,112.99703389999922,112.99703389999922,112.99703389999922,112.99703389999922,112.99703389999922,112.99703389999922,112.99703389999922,112.99703389999922,112.99703389999922,,002,P012,2025_Feb_08_1138,ConditionRich,2021.2.3,59.964656831558585,
77.0,77.75,34,0.75,Stimuli/P012/things_polar_bear_06s.jpg,0,0,0.0,0,147,147,147,,,,,,,,,,,,,77.00063050000063,0.0006305000006250339,None,113.2472646999995,113.2472646999995,113.2472646999995,113.2472646999995,113.2472646999995,113.2472646999995,113.2472646999995,113.2472646999995,113.2472646999995,113.2472646999995,,002,P012,2025_Feb_08_1138,ConditionRich,2021.2.3,59.964656831558585,
77.75,78.0,41,0.0,Stimuli/Blank.png,0,0,0.0,0,148,148,148,,,,,,,,,,,,,77.7512155000004,0.001215500000398606,None,113.9979102999987,113.9979102999987,113.9979102999987,113.9979102999987,113.9979102999987,113.9979102999987,113.9979102999987,113.9979102999987,113.9979102999987,113.9979102999987,,002,P012,2025_Feb_08_1138,ConditionRich,2021.2.3,59.964656831558585,
78.0,78.75,34,0.75,Stimuli/P012/things_polar_bear_06s.jpg,0,0,0.0,0,149,149,149,,,,,,,,,,,,,78.00161750000007,0.0016175000000657747,None,114.24813449999965,114.24813449999965,114.24813449999965,114.24813449999965,114.24813449999965,114.24813449999965,114.24813449999965,114.24813449999965,114.24813449999965,114.24813449999965,,002,P012,2025_Feb_08_1138,ConditionRich,2021.2.3,59.964656831558585,
78.75,79.0,41,0.0,Stimuli/Blank.png,0,0,0.0,0,150,150,150,,,,,,,,,,,,,78.75169840000126,0.00169840000125987,None,114.99880609999855,114.99880609999855,114.99880609999855,114.99880609999855,114.99880609999855,114.99880609999855,114.99880609999855,114.99880609999855,114.99880609999855,114.99880609999855,,002,P012,2025_Feb_08_1138,ConditionRich,2021.2.3,59.964656831558585,
79.0,79.75,34,0.75,Stimuli/P012/things_polar_bear_06s.jpg,0,0,0.0,0,151,151,151,,,,,,,,,,,,,79.00174300000072,0.0017430000007152557,None,115.24901349999891,115.24901349999891,115.24901349999891,115.24901349999891,115.24901349999891,115.24901349999891,115.24901349999891,115.24901349999891,115.24901349999891,115.24901349999891,,002,P012,2025_Feb_08_1138,ConditionRich,2021.2.3,59.964656831558585,
79.75,80.0,41,0.0,Stimuli/Blank.png,0,0,0.0,0,152,152,152,,,,,,,,,,,,,79.75318030000017,0.0031803000001673354,None,116.00011399999858,116.00011399999858,116.00011399999858,116.00011399999858,116.00011399999858,116.00011399999858,116.00011399999858,116.00011399999858,116.00011399999858,116.00011399999858,,002,P012,2025_Feb_08_1138,ConditionRich,2021.2.3,59.964656831558585,
80.0,80.75,9,0.75,Stimuli/P012/sun_aupohozmrmtfgcsw.jpg,0,0,0.0,0,153,153,153,,,,,,,,,,,,,80.00471490000018,0.004714900000180933,None,116.26663049999843,116.26663049999843,116.26663049999843,116.26663049999843,116.26663049999843,116.26663049999843,116.26663049999843,116.26663049999843,116.26663049999843,116.26663049999843,,002,P012,2025_Feb_08_1138,ConditionRich,2021.2.3,59.964656831558585,
80.75,81.0,41,0.0,Stimuli/Blank.png,0,0,0.0,0,154,154,154,,,,,,,,,,,,,80.77047670000138,0.020476700001381687,None,117.01725159999842,117.01725159999842,117.01725159999842,117.01725159999842,117.01725159999842,117.01725159999842,117.01725159999842,117.01725159999842,117.01725159999842,117.01725159999842,,002,P012,2025_Feb_08_1138,ConditionRich,2021.2.3,59.964656831558585,
81.0,81.75,9,0.75,Stimuli/P012/sun_aupohozmrmtfgcsw.jpg,0,0,0.0,0,155,155,155,,,,,,,,,,,,,81.00348860000122,0.003488600001219311,None,117.2507960999992,117.2507960999992,117.2507960999992,117.2507960999992,117.2507960999992,117.2507960999992,117.2507960999992,117.2507960999992,117.2507960999992,117.2507960999992,,002,P012,2025_Feb_08_1138,ConditionRich,2021.2.3,59.964656831558585,
81.75,82.0,41,0.0,Stimuli/Blank.png,0,0,0.0,0,156,156,156,,,,,,,,,,,,,81.7540837000015,0.004083700001501711,None,118.00146049999967,118.00146049999967,118.00146049999967,118.00146049999967,118.00146049999967,118.00146049999967,118.00146049999967,118.00146049999967,118.00146049999967,118.00146049999967,,002,P012,2025_Feb_08_1138,ConditionRich,2021.2.3,59.964656831558585,
82.0,82.75,9,0.75,Stimuli/P012/sun_aupohozmrmtfgcsw.jpg,0,0,0.0,0,157,157,157,,,,,,,,,,,,,82.00497560000076,0.004975600000761915,None,118.2683849999994,118.2683849999994,118.2683849999994,118.2683849999994,118.2683849999994,118.2683849999994,118.2683849999994,118.2683849999994,118.2683849999994,118.2683849999994,,002,P012,2025_Feb_08_1138,ConditionRich,2021.2.3,59.964656831558585,
82.75,83.0,41,0.0,Stimuli/Blank.png,0,0,0.0,0,158,158,158,,,,,,,,,,,,,82.77170970000043,0.02170970000042871,None,119.01902399999926,119.01902399999926,119.01902399999926,119.01902399999926,119.01902399999926,119.01902399999926,119.01902399999926,119.01902399999926,119.01902399999926,119.01902399999926,,002,P012,2025_Feb_08_1138,ConditionRich,2021.2.3,59.964656831558585,
83.0,83.75,9,0.75,Stimuli/P012/sun_aupohozmrmtfgcsw.jpg,0,0,0.0,0,159,159,159,,,,,,,,,,,,,83.00595020000037,0.005950200000370387,None,119.25255329999891,119.25255329999891,119.25255329999891,119.25255329999891,119.25255329999891,119.25255329999891,119.25255329999891,119.25255329999891,119.25255329999891,119.25255329999891,,002,P012,2025_Feb_08_1138,ConditionRich,2021.2.3,59.964656831558585,
83.75,84.0,41,0.0,Stimuli/Blank.png,0,0,0.0,0,160,160,160,,,,,,,,,,,,,83.75618060000124,0.006180600001243874,None,120.00321959999928,120.00321959999928,120.00321959999928,120.00321959999928,120.00321959999928,120.00321959999928,120.00321959999928,120.00321959999928,120.00321959999928,120.00321959999928,,002,P012,2025_Feb_08_1138,ConditionRich,2021.2.3,59.964656831558585,
84.0,100.0,0,0.0,Stimuli/Blank.png,1,10,10.75,0,161,161,161,,,,,,,,,,,,,84.0064880000009,0.006488000000899774,2,120.2534555000002,120.2534555000002,120.2534555000002,120.2534555000002,120.2534555000002,120.2534555000002,130.22894279999855,130.97969939999894,120.2534555000002,120.2534555000002,10.385400299999674,002,P012,2025_Feb_08_1138,ConditionRich,2021.2.3,59.964656831558585,
100.0,100.75,30,0.75,Stimuli/P012/things_hamburger_06s.jpg,0,0,0.0,0,162,162,162,,,,,,,,,,,,,100.00358230000165,0.0035823000016534934,None,136.2509313999999,136.2509313999999,136.2509313999999,136.2509313999999,136.2509313999999,136.2509313999999,136.2509313999999,136.2509313999999,136.2509313999999,136.2509313999999,,002,P012,2025_Feb_08_1138,ConditionRich,2021.2.3,59.964656831558585,
100.75,101.0,41,0.0,Stimuli/Blank.png,0,0,0.0,0,163,163,163,,,,,,,,,,,,,100.75450390000151,0.004503900001509464,None,137.0016048999987,137.0016048999987,137.0016048999987,137.0016048999987,137.0016048999987,137.0016048999987,137.0016048999987,137.0016048999987,137.0016048999987,137.0016048999987,,002,P012,2025_Feb_08_1138,ConditionRich,2021.2.3,59.964656831558585,
101.0,101.75,30,0.75,Stimuli/P012/things_hamburger_06s.jpg,0,0,0.0,0,164,164,164,,,,,,,,,,,,,101.00555920000079,0.005559200000789133,None,137.26852039999903,137.26852039999903,137.26852039999903,137.26852039999903,137.26852039999903,137.26852039999903,137.26852039999903,137.26852039999903,137.26852039999903,137.26852039999903,,002,P012,2025_Feb_08_1138,ConditionRich,2021.2.3,59.964656831558585,
101.75,102.0,41,0.0,Stimuli/Blank.png,0,0,0.0,0,165,165,165,,,,,,,,,,,,,101.77185480000117,0.02185480000116513,None,138.0191653999991,138.0191653999991,138.0191653999991,138.0191653999991,138.0191653999991,138.0191653999991,138.0191653999991,138.0191653999991,138.0191653999991,138.0191653999991,,002,P012,2025_Feb_08_1138,ConditionRich,2021.2.3,59.964656831558585,
102.0,102.75,30,0.75,Stimuli/P012/things_hamburger_06s.jpg,0,0,0.0,0,166,166,166,,,,,,,,,,,,,102.00581690000035,0.005816900000354508,None,138.25270229999842,138.25270229999842,138.25270229999842,138.25270229999842,138.25270229999842,138.25270229999842,138.25270229999842,138.25270229999842,138.25270229999842,138.25270229999842,,002,P012,2025_Feb_08_1138,ConditionRich,2021.2.3,59.964656831558585,
102.75,103.0,41,0.0,Stimuli/Blank.png,0,0,0.0,0,167,167,167,,,,,,,,,,,,,102.75692230000095,0.006922300000951509,None,139.00336959999913,139.00336959999913,139.00336959999913,139.00336959999913,139.00336959999913,139.00336959999913,139.00336959999913,139.00336959999913,139.00336959999913,139.00336959999913,,002,P012,2025_Feb_08_1138,ConditionRich,2021.2.3,59.964656831558585,
103.0,103.75,30,0.75,Stimuli/P012/things_hamburger_06s.jpg,0,0,0.0,0,168,168,168,,,,,,,,,,,,,103.00698520000151,0.006985200001508929,None,139.25359260000005,139.25359260000005,139.25359260000005,139.25359260000005,139.25359260000005,139.25359260000005,139.25359260000005,139.25359260000005,139.25359260000005,139.25359260000005,,002,P012,2025_Feb_08_1138,ConditionRich,2021.2.3,59.964656831558585,
103.75,104.0,41,0.0,Stimuli/Blank.png,0,0,0.0,0,169,169,169,,,,,,,,,,,,,103.75967520000086,0.009675200000856421,None,140.02094899999975,140.02094899999975,140.02094899999975,140.02094899999975,140.02094899999975,140.02094899999975,140.02094899999975,140.02094899999975,140.02094899999975,140.02094899999975,,002,P012,2025_Feb_08_1138,ConditionRich,2021.2.3,59.964656831558585,
104.0,104.75,38,0.75,Stimuli/P012/things_squeegee_06s.jpg,0,0,0.0,0,170,170,170,,,,,,,,,,,,,104.02446200000122,0.024462000001221895,None,140.2711589999999,140.2711589999999,140.2711589999999,140.2711589999999,140.2711589999999,140.2711589999999,140.2711589999999,140.2711589999999,140.2711589999999,140.2711589999999,,002,P012,2025_Feb_08_1138,ConditionRich,2021.2.3,59.964656831558585,
104.75,105.0,41,0.0,Stimuli/Blank.png,0,0,0.0,0,171,171,171,,,,,,,,,,,,,104.7590454000001,0.009045400000104564,None,141.00514999999905,141.00514999999905,141.00514999999905,141.00514999999905,141.00514999999905,141.00514999999905,141.00514999999905,141.00514999999905,141.00514999999905,141.00514999999905,,002,P012,2025_Feb_08_1138,ConditionRich,2021.2.3,59.964656831558585,
105.0,105.75,38,0.75,Stimuli/P012/things_squeegee_06s.jpg,0,0,0.0,0,172,172,172,,,,,,,,,,,,,105.01015710000138,0.010157100001379149,None,141.2720492999997,141.2720492999997,141.2720492999997,141.2720492999997,141.2720492999997,141.2720492999997,141.2720492999997,141.2720492999997,141.2720492999997,141.2720492999997,,002,P012,2025_Feb_08_1138,ConditionRich,2021.2.3,59.964656831558585,
105.75,106.0,41,0.0,Stimuli/Blank.png,0,0,0.0,0,173,173,173,,,,,,,,,,,,,105.77557940000042,0.025579400000424357,None,142.0226520999986,142.0226520999986,142.0226520999986,142.0226520999986,142.0226520999986,142.0226520999986,142.0226520999986,142.0226520999986,142.0226520999986,142.0226520999986,,002,P012,2025_Feb_08_1138,ConditionRich,2021.2.3,59.964656831558585,
106.0,106.75,38,0.75,Stimuli/P012/things_squeegee_06s.jpg,0,0,0.0,0,174,174,174,,,,,,,,,,,,,106.00947370000176,0.009473700001763063,None,142.25625209999998,142.25625209999998,142.25625209999998,142.25625209999998,142.25625209999998,142.25625209999998,142.25625209999998,142.25625209999998,142.25625209999998,142.25625209999998,,002,P012,2025_Feb_08_1138,ConditionRich,2021.2.3,59.964656831558585,
106.75,107.0,41,0.0,Stimuli/Blank.png,0,0,0.0,0,175,175,175,,,,,,,,,,,,,106.76039870000022,0.01039870000022347,None,143.0069300999985,143.0069300999985,143.0069300999985,143.0069300999985,143.0069300999985,143.0069300999985,143.0069300999985,143.0069300999985,143.0069300999985,143.0069300999985,,002,P012,2025_Feb_08_1138,ConditionRich,2021.2.3,59.964656831558585,
107.0,107.75,38,0.75,Stimuli/P012/things_squeegee_06s.jpg,0,0,0.0,0,176,176,176,,,,,,,,,,,,,107.01058870000088,0.010588700000880635,None,143.27380429999903,143.27380429999903,143.27380429999903,143.27380429999903,143.27380429999903,143.27380429999903,143.27380429999903,143.27380429999903,143.27380429999903,143.27380429999903,,002,P012,2025_Feb_08_1138,ConditionRich,2021.2.3,59.964656831558585,
107.75,108.0,41,0.0,Stimuli/Blank.png,0,0,0.0,0,177,177,177,,,,,,,,,,,,,107.7773270000016,0.027327000001605484,None,144.02449609999894,144.02449609999894,144.02449609999894,144.02449609999894,144.02449609999894,144.02449609999894,144.02449609999894,144.02449609999894,144.02449609999894,144.02449609999894,,002,P012,2025_Feb_08_1138,ConditionRich,2021.2.3,59.964656831558585,
108.0,108.75,31,0.75,Stimuli/P012/things_hippopotamus_06s.jpg,0,0,0.0,0,178,178,178,,,,,,,,,,,,,108.0106964000006,0.01069640000059735,None,144.2580178999997,144.2580178999997,144.2580178999997,144.2580178999997,144.2580178999997,144.2580178999997,144.2580178999997,144.2580178999997,144.2580178999997,144.2580178999997,,002,P012,2025_Feb_08_1138,ConditionRich,2021.2.3,59.964656831558585,
108.75,109.0,41,0.0,Stimuli/Blank.png,0,0,0.0,0,179,179,179,,,,,,,,,,,,,108.76253020000149,0.01253020000149263,None,145.00876319999952,145.00876319999952,145.00876319999952,145.00876319999952,145.00876319999952,145.00876319999952,145.00876319999952,145.00876319999952,145.00876319999952,145.00876319999952,,002,P012,2025_Feb_08_1138,ConditionRich,2021.2.3,59.964656831558585,
109.0,109.75,31,0.75,Stimuli/P012/things_hippopotamus_06s.jpg,0,0,0.0,0,180,180,180,,,,,,,,,,,,,109.01283310000144,0.012833100001444109,None,145.2755806999994,145.2755806999994,145.2755806999994,145.2755806999994,145.2755806999994,145.2755806999994,145.2755806999994,145.2755806999994,145.2755806999994,145.2755806999994,,002,P012,2025_Feb_08_1138,ConditionRich,2021.2.3,59.964656831558585,
109.75,110.0,41,0.0,Stimuli/Blank.png,0,0,0.0,0,181,181,181,,,,,,,,,,,,,109.77893300000142,0.028933000001416076,None,146.0262559999992,146.0262559999992,146.0262559999992,146.0262559999992,146.0262559999992,146.0262559999992,146.0262559999992,146.0262559999992,146.0262559999992,146.0262559999992,,002,P012,2025_Feb_08_1138,ConditionRich,2021.2.3,59.964656831558585,
110.0,110.75,31,0.75,Stimuli/P012/things_hippopotamus_06s.jpg,0,0,0.0,0,182,182,182,,,,,,,,,,,,,110.01482620000024,0.014826200000243261,None,146.27647829999842,146.27647829999842,146.27647829999842,146.27647829999842,146.27647829999842,146.27647829999842,146.27647829999842,146.27647829999842,146.27647829999842,146.27647829999842,,002,P012,2025_Feb_08_1138,ConditionRich,2021.2.3,59.964656831558585,
110.75,111.0,41,0.0,Stimuli/Blank.png,0,0,0.0,0,183,183,183,,,,,,,,,,,,,110.78050040000016,0.030500400000164518,None,147.02714599999854,147.02714599999854,147.02714599999854,147.02714599999854,147.02714599999854,147.02714599999854,147.02714599999854,147.02714599999854,147.02714599999854,147.02714599999854,,002,P012,2025_Feb_08_1138,ConditionRich,2021.2.3,59.964656831558585,
111.0,111.75,31,0.75,Stimuli/P012/things_hippopotamus_06s.jpg,0,0,0.0,0,184,184,184,,,,,,,,,,,,,111.01412930000151,0.014129300001513911,None,147.27736109999933,147.27736109999933,147.27736109999933,147.27736109999933,147.27736109999933,147.27736109999933,147.27736109999933,147.27736109999933,147.27736109999933,147.27736109999933,,002,P012,2025_Feb_08_1138,ConditionRich,2021.2.3,59.964656831558585,
111.75,112.0,41,0.0,Stimuli/Blank.png,0,0,0.0,0,185,185,185,,,,,,,,,,,,,111.7813827000009,0.03138270000090415,None,148.0280365999988,148.0280365999988,148.0280365999988,148.0280365999988,148.0280365999988,148.0280365999988,148.0280365999988,148.0280365999988,148.0280365999988,148.0280365999988,,002,P012,2025_Feb_08_1138,ConditionRich,2021.2.3,59.964656831558585,
112.0,112.75,1,0.75,Stimuli/P012/sun_aeakbqnvptdnxtno.jpg,0,0,0.0,0,186,186,186,,,,,,,,,,,,,112.01491720000013,0.014917200000127195,None,148.26157499999863,148.26157499999863,148.26157499999863,148.26157499999863,148.26157499999863,148.26157499999863,148.26157499999863,148.26157499999863,148.26157499999863,148.26157499999863,,002,P012,2025_Feb_08_1138,ConditionRich,2021.2.3,59.964656831558585,
112.75,113.0,41,0.0,Stimuli/Blank.png,0,0,0.0,0,187,187,187,,,,,,,,,,,,,112.76576110000133,0.015761100001327577,None,149.0122395999988,149.0122395999988,149.0122395999988,149.0122395999988,149.0122395999988,149.0122395999988,149.0122395999988,149.0122395999988,149.0122395999988,149.0122395999988,,002,P012,2025_Feb_08_1138,ConditionRich,2021.2.3,59.964656831558585,
113.0,113.75,1,0.75,Stimuli/P012/sun_aeakbqnvptdnxtno.jpg,0,0,0.0,0,188,188,188,,,,,,,,,,,,,112.99920370000109,-0.0007962999989103992,None,149.26243989999966,149.26243989999966,149.26243989999966,149.26243989999966,149.26243989999966,149.26243989999966,149.26243989999966,149.26243989999966,149.26243989999966,149.26243989999966,,002,P012,2025_Feb_08_1138,ConditionRich,2021.2.3,59.964656831558585,
113.75,114.0,41,0.0,Stimuli/Blank.png,0,0,0.0,0,189,189,189,,,,,,,,,,,,,113.76658560000033,0.01658560000032594,None,150.01311389999864,150.01311389999864,150.01311389999864,150.01311389999864,150.01311389999864,150.01311389999864,150.01311389999864,150.01311389999864,150.01311389999864,150.01311389999864,,002,P012,2025_Feb_08_1138,ConditionRich,2021.2.3,59.964656831558585,
114.0,114.75,1,0.75,Stimuli/P012/sun_aeakbqnvptdnxtno.jpg,0,0,0.0,0,190,190,190,,,,,,,,,,,,,113.99942530000044,-0.0005746999995608348,None,150.2466558999986,150.2466558999986,150.2466558999986,150.2466558999986,150.2466558999986,150.2466558999986,150.2466558999986,150.2466558999986,150.2466558999986,150.2466558999986,,002,P012,2025_Feb_08_1138,ConditionRich,2021.2.3,59.964656831558585,
114.75,115.0,41,0.0,Stimuli/Blank.png,0,0,0.0,0,191,191,191,,,,,,,,,,,,,114.75077390000115,0.000773900001149741,None,150.99733839999863,150.99733839999863,150.99733839999863,150.99733839999863,150.99733839999863,150.99733839999863,150.99733839999863,150.99733839999863,150.99733839999863,150.99733839999863,,002,P012,2025_Feb_08_1138,ConditionRich,2021.2.3,59.964656831558585,
115.0,115.75,1,0.75,Stimuli/P012/sun_aeakbqnvptdnxtno.jpg,0,0,0.0,0,192,192,192,,,,,,,,,,,,,115.0010551000014,0.0010551000013947487,None,151.24753999999848,151.24753999999848,151.24753999999848,151.24753999999848,151.24753999999848,151.24753999999848,151.24753999999848,151.24753999999848,151.24753999999848,151.24753999999848,,002,P012,2025_Feb_08_1138,ConditionRich,2021.2.3,59.964656831558585,
115.75,116.0,41,0.0,Stimuli/Blank.png,0,0,0.0,0,193,193,193,,,,,,,,,,,,,115.75158600000032,0.0015860000003158348,None,151.99817660000008,151.99817660000008,151.99817660000008,151.99817660000008,151.99817660000008,151.99817660000008,151.99817660000008,151.99817660000008,151.99817660000008,151.99817660000008,,002,P012,2025_Feb_08_1138,ConditionRich,2021.2.3,59.964656831558585,
116.0,116.75,23,0.75,Stimuli/P012/things_clove_06s.jpg,0,0,0.0,0,194,194,194,,,,,,,,,,,,,116.0020155000002,0.0020155000001977896,None,152.24842329999956,152.24842329999956,152.24842329999956,152.24842329999956,152.24842329999956,152.24842329999956,152.24842329999956,152.24842329999956,152.24842329999956,152.24842329999956,,002,P012,2025_Feb_08_1138,ConditionRich,2021.2.3,59.964656831558585,
116.75,117.0,41,0.0,Stimuli/Blank.png,0,0,0.0,0,195,195,195,,,,,,,,,,,,,116.75311920000058,0.0031192000005830778,None,152.9990960999985,152.9990960999985,152.9990960999985,152.9990960999985,152.9990960999985,152.9990960999985,152.9990960999985,152.9990960999985,152.9990960999985,152.9990960999985,,002,P012,2025_Feb_08_1138,ConditionRich,2021.2.3,59.964656831558585,
117.0,117.75,23,0.75,Stimuli/P012/things_clove_06s.jpg,0,0,0.0,0,196,196,196,,,,,,,,,,,,,117.0019497000012,0.0019497000012052013,None,153.24930959999983,153.24930959999983,153.24930959999983,153.24930959999983,153.24930959999983,153.24930959999983,153.24930959999983,153.24930959999983,153.24930959999983,153.24930959999983,,002,P012,2025_Feb_08_1138,ConditionRich,2021.2.3,59.964656831558585,
117.75,118.0,41,0.0,Stimuli/Blank.png,0,0,0.0,0,197,197,197,,,,,,,,,,,,,117.75477330000103,0.004773300001033931,None,154.01666359999945,154.01666359999945,154.01666359999945,154.01666359999945,154.01666359999945,154.01666359999945,154.01666359999945,154.01666359999945,154.01666359999945,154.01666359999945,,002,P012,2025_Feb_08_1138,ConditionRich,2021.2.3,59.964656831558585,
118.0,118.75,23,0.75,Stimuli/P012/things_clove_06s.jpg,0,0,0.0,0,198,198,198,,,,,,,,,,,,,118.01960860000145,0.019608600001447485,None,154.26687669999956,154.26687669999956,154.26687669999956,154.26687669999956,154.26687669999956,154.26687669999956,154.26687669999956,154.26687669999956,154.26687669999956,154.26687669999956,,002,P012,2025_Feb_08_1138,ConditionRich,2021.2.3,59.964656831558585,
118.75,119.0,41,0.0,Stimuli/Blank.png,0,0,0.0,0,199,199,199,,,,,,,,,,,,,118.7545837000016,0.0045837000016035745,None,155.0008605999992,155.0008605999992,155.0008605999992,155.0008605999992,155.0008605999992,155.0008605999992,155.0008605999992,155.0008605999992,155.0008605999992,155.0008605999992,,002,P012,2025_Feb_08_1138,ConditionRich,2021.2.3,59.964656831558585,
119.0,119.75,23,0.75,Stimuli/P012/things_clove_06s.jpg,1,0,0.75,0,200,200,200,,,,,,,,,,,,,119.00447420000091,0.004474200000913697,2,155.26776169999903,155.26776169999903,155.26776169999903,155.26776169999903,155.26776169999903,155.26776169999903,155.26776169999903,155.98506189999898,155.26776169999903,155.26776169999903,0.42205960000137566,002,P012,2025_Feb_08_1138,ConditionRich,2021.2.3,59.964656831558585,
119.75,120.0,41,0.0,Stimuli/Blank.png,0,0,0.0,0,201,201,201,,,,,,,,,,,,,119.771147200001,0.021147200000996236,None,156.0184240999988,156.0184240999988,156.0184240999988,156.0184240999988,156.0184240999988,156.0184240999988,156.0184240999988,156.0184240999988,156.0184240999988,156.0184240999988,,002,P012,2025_Feb_08_1138,ConditionRich,2021.2.3,59.964656831558585,
120.0,120.75,14,0.75,Stimuli/P012/sun_blybvkoucskrdgiv.jpg,0,0,0.0,0,202,202,202,,,,,,,,,,,,,120.00544270000137,0.005442700001367484,None,156.25196329999926,156.25196329999926,156.25196329999926,156.25196329999926,156.25196329999926,156.25196329999926,156.25196329999926,156.25196329999926,156.25196329999926,156.25196329999926,,002,P012,2025_Feb_08_1138,ConditionRich,2021.2.3,59.964656831558585,
120.75,121.0,41,0.0,Stimuli/Blank.png,0,0,0.0,0,203,203,203,,,,,,,,,,,,,120.75628630000028,0.006286300000283518,None,157.00263389999964,157.00263389999964,157.00263389999964,157.00263389999964,157.00263389999964,157.00263389999964,157.00263389999964,157.00263389999964,157.00263389999964,157.00263389999964,,002,P012,2025_Feb_08_1138,ConditionRich,2021.2.3,59.964656831558585,
121.0,121.75,14,0.75,Stimuli/P012/sun_blybvkoucskrdgiv.jpg,0,0,0.0,0,204,204,204,,,,,,,,,,,,,121.0057306000017,0.005730600001697894,None,157.25284920000013,157.25284920000013,157.25284920000013,157.25284920000013,157.25284920000013,157.25284920000013,157.25284920000013,157.25284920000013,157.25284920000013,157.25284920000013,,002,P012,2025_Feb_08_1138,ConditionRich,2021.2.3,59.964656831558585,
121.75,122.0,41,0.0,Stimuli/Blank.png,0,0,0.0,0,205,205,205,,,,,,,,,,,,,121.75650750000023,0.006507500000225264,None,158.00352310000017,158.00352310000017,158.00352310000017,158.00352310000017,158.00352310000017,158.00352310000017,158.00352310000017,158.00352310000017,158.00352310000017,158.00352310000017,,002,P012,2025_Feb_08_1138,ConditionRich,2021.2.3,59.964656831558585,
122.0,122.75,14,0.75,Stimuli/P012/sun_blybvkoucskrdgiv.jpg,0,0,0.0,0,206,206,206,,,,,,,,,,,,,122.00718310000047,0.007183100000474951,None,158.2704290999991,158.2704290999991,158.2704290999991,158.2704290999991,158.2704290999991,158.2704290999991,158.2704290999991,158.2704290999991,158.2704290999991,158.2704290999991,,002,P012,2025_Feb_08_1138,ConditionRich,2021.2.3,59.964656831558585,
122.75,123.0,41,0.0,Stimuli/Blank.png,0,0,0.0,0,207,207,207,,,,,,,,,,,,,122.77453200000127,0.024532000001272536,None,159.02109829999972,159.02109829999972,159.02109829999972,159.02109829999972,159.02109829999972,159.02109829999972,159.02109829999972,159.02109829999972,159.02109829999972,159.02109829999972,,002,P012,2025_Feb_08_1138,ConditionRich,2021.2.3,59.964656831558585,
123.0,123.75,14,0.75,Stimuli/P012/sun_blybvkoucskrdgiv.jpg,0,0,0.0,0,208,208,208,,,,,,,,,,,,,123.00810170000113,0.008101700001134304,None,159.27129999999852,159.27129999999852,159.27129999999852,159.27129999999852,159.27129999999852,159.27129999999852,159.27129999999852,159.27129999999852,159.27129999999852,159.27129999999852,,002,P012,2025_Feb_08_1138,ConditionRich,2021.2.3,59.964656831558585,
123.75,124.0,41,0.0,Stimuli/Blank.png,0,0,0.0,0,209,209,209,,,,,,,,,,,,,123.77531940000154,0.02531940000153554,None,160.02196659999936,160.02196659999936,160.02196659999936,160.02196659999936,160.02196659999936,160.02196659999936,160.02196659999936,160.02196659999936,160.02196659999936,160.02196659999936,,002,P012,2025_Feb_08_1138,ConditionRich,2021.2.3,59.964656831558585,
124.0,124.75,8,0.75,Stimuli/P012/sun_asppejhsplpizvag.jpg,0,0,0.0,0,210,210,210,,,,,,,,,,,,,124.01043700000082,0.010437000000820262,None,160.2722002999999,160.2722002999999,160.2722002999999,160.2722002999999,160.2722002999999,160.2722002999999,160.2722002999999,160.2722002999999,160.2722002999999,160.2722002999999,,002,P012,2025_Feb_08_1138,ConditionRich,2021.2.3,59.964656831558585,
124.75,125.0,41,0.0,Stimuli/Blank.png,0,0,0.0,0,211,211,211,,,,,,,,,,,,,124.77665780000098,0.02665780000097584,None,161.02285819999997,161.02285819999997,161.02285819999997,161.02285819999997,161.02285819999997,161.02285819999997,161.02285819999997,161.02285819999997,161.02285819999997,161.02285819999997,,002,P012,2025_Feb_08_1138,ConditionRich,2021.2.3,59.964656831558585,
125.0,125.75,8,0.75,Stimuli/P012/sun_asppejhsplpizvag.jpg,0,0,0.0,0,212,212,212,,,,,,,,,,,,,125.00918810000076,0.009188100000756094,None,161.2563928999989,161.2563928999989,161.2563928999989,161.2563928999989,161.2563928999989,161.2563928999989,161.2563928999989,161.2563928999989,161.2563928999989,161.2563928999989,,002,P012,2025_Feb_08_1138,ConditionRich,2021.2.3,59.964656831558585,
125.75,126.0,41,0.0,Stimuli/Blank.png,0,0,0.0,0,213,213,213,,,,,,,,,,,,,125.76042020000023,0.010420200000226032,None,162.00706480000008,162.00706480000008,162.00706480000008,162.00706480000008,162.00706480000008,162.00706480000008,162.00706480000008,162.00706480000008,162.00706480000008,162.00706480000008,,002,P012,2025_Feb_08_1138,ConditionRich,2021.2.3,59.964656831558585,
126.0,126.75,8,0.75,Stimuli/P012/sun_asppejhsplpizvag.jpg,1,0,0.75,0,214,214,214,,,,,,,,,,,,,126.01044640000146,0.010446400001455913,2,162.25728979999985,162.25728979999985,162.25728979999985,162.25728979999985,162.25728979999985,162.25728979999985,162.25728979999985,162.99127269999917,162.25728979999985,162.25728979999985,0.42855510000117647,002,P012,2025_Feb_08_1138,ConditionRich,2021.2.3,59.964656831558585,
126.75,127.0,41,0.0,Stimuli/Blank.png,0,0,0.0,0,215,215,215,,,,,,,,,,,,,126.7617478000011,0.011747800001103315,None,163.00794049999968,163.00794049999968,163.00794049999968,163.00794049999968,163.00794049999968,163.00794049999968,163.00794049999968,163.00794049999968,163.00794049999968,163.00794049999968,,002,P012,2025_Feb_08_1138,ConditionRich,2021.2.3,59.964656831558585,
127.0,127.75,8,0.75,Stimuli/P012/sun_asppejhsplpizvag.jpg,0,0,0.0,0,216,216,216,,,,,,,,,,,,,127.01155980000112,0.011559800001123222,None,163.2581773999991,163.2581773999991,163.2581773999991,163.2581773999991,163.2581773999991,163.2581773999991,163.2581773999991,163.2581773999991,163.2581773999991,163.2581773999991,,002,P012,2025_Feb_08_1138,ConditionRich,2021.2.3,59.964656831558585,
127.75,128.0,41,0.0,Stimuli/Blank.png,0,0,0.0,0,217,217,217,,,,,,,,,,,,,127.76231630000075,0.012316300000748015,None,164.0089130999986,164.0089130999986,164.0089130999986,164.0089130999986,164.0089130999986,164.0089130999986,164.0089130999986,164.0089130999986,164.0089130999986,164.0089130999986,,002,P012,2025_Feb_08_1138,ConditionRich,2021.2.3,59.964656831558585,
128.0,128.75,6,0.75,Stimuli/P012/sun_aqysdudvyxnkcxgq.jpg,0,0,0.0,0,218,218,218,,,,,,,,,,,,,128.01249400000052,0.01249400000051537,None,164.2757475999988,164.2757475999988,164.2757475999988,164.2757475999988,164.2757475999988,164.2757475999988,164.2757475999988,164.2757475999988,164.2757475999988,164.2757475999988,,002,P012,2025_Feb_08_1138,ConditionRich,2021.2.3,59.964656831558585,
128.75,129.0,41,0.0,Stimuli/Blank.png,0,0,0.0,0,219,219,219,,,,,,,,,,,,,128.7797040000005,0.02970400000049267,None,165.02640079999946,165.02640079999946,165.02640079999946,165.02640079999946,165.02640079999946,165.02640079999946,165.02640079999946,165.02640079999946,165.02640079999946,165.02640079999946,,002,P012,2025_Feb_08_1138,ConditionRich,2021.2.3,59.964656831558585,
129.0,129.75,6,0.75,Stimuli/P012/sun_aqysdudvyxnkcxgq.jpg,0,0,0.0,0,220,220,220,,,,,,,,,,,,,129.01644470000065,0.016444700000647572,None,165.27662489999966,165.27662489999966,165.27662489999966,165.27662489999966,165.27662489999966,165.27662489999966,165.27662489999966,165.27662489999966,165.27662489999966,165.27662489999966,,002,P012,2025_Feb_08_1138,ConditionRich,2021.2.3,59.964656831558585,
129.75,130.0,41,0.0,Stimuli/Blank.png,0,0,0.0,0,221,221,221,,,,,,,,,,,,,129.76394980000077,0.013949800000773394,None,166.0106096999989,166.0106096999989,166.0106096999989,166.0106096999989,166.0106096999989,166.0106096999989,166.0106096999989,166.0106096999989,166.0106096999989,166.0106096999989,,002,P012,2025_Feb_08_1138,ConditionRich,2021.2.3,59.964656831558585,
130.0,130.75,6,0.75,Stimuli/P012/sun_aqysdudvyxnkcxgq.jpg,0,0,0.0,0,222,222,222,,,,,,,,,,,,,130.0135566000008,0.013556600000811159,None,166.260827099999,166.260827099999,166.260827099999,166.260827099999,166.260827099999,166.260827099999,166.260827099999,166.260827099999,166.260827099999,166.260827099999,,002,P012,2025_Feb_08_1138,ConditionRich,2021.2.3,59.964656831558585,
130.75,131.0,41,0.0,Stimuli/Blank.png,0,0,0.0,0,223,223,223,,,,,,,,,,,,,130.76565410000148,0.01565410000148404,None,167.01149839999925,167.01149839999925,167.01149839999925,167.01149839999925,167.01149839999925,167.01149839999925,167.01149839999925,167.01149839999925,167.01149839999925,167.01149839999925,,002,P012,2025_Feb_08_1138,ConditionRich,2021.2.3,59.964656831558585,
131.0,131.75,6,0.75,Stimuli/P012/sun_aqysdudvyxnkcxgq.jpg,0,0,0.0,0,224,224,224,,,,,,,,,,,,,131.00096850000045,0.0009685000004537869,None,167.26172649999899,167.26172649999899,167.26172649999899,167.26172649999899,167.26172649999899,167.26172649999899,167.26172649999899,167.26172649999899,167.26172649999899,167.26172649999899,,002,P012,2025_Feb_08_1138,ConditionRich,2021.2.3,59.964656831558585,
131.75,132.0,41,0.0,Stimuli/Blank.png,0,0,0.0,0,225,225,225,,,,,,,,,,,,,131.76533140000174,0.015331400001741713,None,168.0123513999988,168.0123513999988,168.0123513999988,168.0123513999988,168.0123513999988,168.0123513999988,168.0123513999988,168.0123513999988,168.0123513999988,168.0123513999988,,002,P012,2025_Feb_08_1138,ConditionRich,2021.2.3,59.964656831558585,
132.0,132.75,15,0.75,Stimuli/P012/sun_bmngnyuahubpqroh.jpg,0,0,0.0,0,226,226,226,,,,,,,,,,,,,132.01533570000174,0.015335700001742225,None,168.26258909999888,168.26258909999888,168.26258909999888,168.26258909999888,168.26258909999888,168.26258909999888,168.26258909999888,168.26258909999888,168.26258909999888,168.26258909999888,,002,P012,2025_Feb_08_1138,ConditionRich,2021.2.3,59.964656831558585,
132.75,133.0,41,0.0,Stimuli/Blank.png,0,0,0.0,0,227,227,227,,,,,,,,,,,,,132.74981150000167,-0.00018849999833037145,None,168.9965788999998,168.9965788999998,168.9965788999998,168.9965788999998,168.9965788999998,168.9965788999998,168.9965788999998,168.9965788999998,168.9965788999998,168.9965788999998,,002,P012,2025_Feb_08_1138,ConditionRich,2021.2.3,59.964656831558585,
133.0,133.75,15,0.75,Stimuli/P012/sun_bmngnyuahubpqroh.jpg,0,0,0.0,0,228,228,228,,,,,,,,,,,,,133.00009170000158,9.170000157610048e-05,None,169.24679979999928,169.24679979999928,169.24679979999928,169.24679979999928,169.24679979999928,169.24679979999928,169.24679979999928,169.24679979999928,169.24679979999928,169.24679979999928,,002,P012,2025_Feb_08_1138,ConditionRich,2021.2.3,59.964656831558585,
133.75,134.0,41,0.0,Stimuli/Blank.png,0,0,0.0,0,229,229,229,,,,,,,,,,,,,133.75040610000178,0.00040610000178276096,None,169.9974413,169.9974413,169.9974413,169.9974413,169.9974413,169.9974413,169.9974413,169.9974413,169.9974413,169.9974413,,002,P012,2025_Feb_08_1138,ConditionRich,2021.2.3,59.964656831558585,
134.0,134.75,15,0.75,Stimuli/P012/sun_bmngnyuahubpqroh.jpg,0,0,0.0,0,230,230,230,,,,,,,,,,,,,134.00085060000129,0.000850600001285784,None,170.24765809999917,170.24765809999917,170.24765809999917,170.24765809999917,170.24765809999917,170.24765809999917,170.24765809999917,170.24765809999917,170.24765809999917,170.24765809999917,,002,P012,2025_Feb_08_1138,ConditionRich,2021.2.3,59.964656831558585,
134.75,135.0,41,0.0,Stimuli/Blank.png,0,0,0.0,0,231,231,231,,,,,,,,,,,,,134.75105640000038,0.0010564000003796536,None,170.99834869999904,170.99834869999904,170.99834869999904,170.99834869999904,170.99834869999904,170.99834869999904,170.99834869999904,170.99834869999904,170.99834869999904,170.99834869999904,,002,P012,2025_Feb_08_1138,ConditionRich,2021.2.3,59.964656831558585,
135.0,135.75,15,0.75,Stimuli/P012/sun_bmngnyuahubpqroh.jpg,0,0,0.0,0,232,232,232,,,,,,,,,,,,,135.00138170000173,0.0013817000017297687,None,171.26526689999992,171.26526689999992,171.26526689999992,171.26526689999992,171.26526689999992,171.26526689999992,171.26526689999992,171.26526689999992,171.26526689999992,171.26526689999992,,002,P012,2025_Feb_08_1138,ConditionRich,2021.2.3,59.964656831558585,
135.75,136.0,41,0.0,Stimuli/Blank.png,0,0,0.0,0,233,233,233,,,,,,,,,,,,,135.76952090000123,0.019520900001225527,None,172.0159148999992,172.0159148999992,172.0159148999992,172.0159148999992,172.0159148999992,172.0159148999992,172.0159148999992,172.0159148999992,172.0159148999992,172.0159148999992,,002,P012,2025_Feb_08_1138,ConditionRich,2021.2.3,59.964656831558585,
136.0,136.75,11,0.75,Stimuli/P012/sun_baylllqlgfvxilor.jpg,0,0,0.0,0,234,234,234,,,,,,,,,,,,,136.00269730000036,0.0026973000003636116,None,172.24946029999955,172.24946029999955,172.24946029999955,172.24946029999955,172.24946029999955,172.24946029999955,172.24946029999955,172.24946029999955,172.24946029999955,172.24946029999955,,002,P012,2025_Feb_08_1138,ConditionRich,2021.2.3,59.964656831558585,
136.75,137.0,41,0.0,Stimuli/Blank.png,0,0,0.0,0,235,235,235,,,,,,,,,,,,,136.75503840000056,0.0050384000005578855,None,173.0168193999998,173.0168193999998,173.0168193999998,173.0168193999998,173.0168193999998,173.0168193999998,173.0168193999998,173.0168193999998,173.0168193999998,173.0168193999998,,002,P012,2025_Feb_08_1138,ConditionRich,2021.2.3,59.964656831558585,
137.0,137.75,11,0.75,Stimuli/P012/sun_baylllqlgfvxilor.jpg,0,0,0.0,0,236,236,236,,,,,,,,,,,,,137.02123470000151,0.021234700001514284,None,173.28371109999898,173.28371109999898,173.28371109999898,173.28371109999898,173.28371109999898,173.28371109999898,173.28371109999898,173.28371109999898,173.28371109999898,173.28371109999898,,002,P012,2025_Feb_08_1138,ConditionRich,2021.2.3,59.964656831558585,
137.75,138.0,41,0.0,Stimuli/Blank.png,0,0,0.0,0,237,237,237,,,,,,,,,,,,,137.77051080000092,0.020510800000920426,None,174.0176849999989,174.0176849999989,174.0176849999989,174.0176849999989,174.0176849999989,174.0176849999989,174.0176849999989,174.0176849999989,174.0176849999989,174.0176849999989,,002,P012,2025_Feb_08_1138,ConditionRich,2021.2.3,59.964656831558585,
138.0,138.75,11,0.75,Stimuli/P012/sun_baylllqlgfvxilor.jpg,0,0,0.0,0,238,238,238,,,,,,,,,,,,,138.0041968000005,0.004196800000499934,None,174.25123299999905,174.25123299999905,174.25123299999905,174.25123299999905,174.25123299999905,174.25123299999905,174.25123299999905,174.25123299999905,174.25123299999905,174.25123299999905,,002,P012,2025_Feb_08_1138,ConditionRich,2021.2.3,59.964656831558585,
138.75,139.0,41,0.0,Stimuli/Blank.png,0,0,0.0,0,239,239,239,,,,,,,,,,,,,138.75523300000168,0.005233000001680921,None,175.00189209999917,175.00189209999917,175.00189209999917,175.00189209999917,175.00189209999917,175.00189209999917,175.00189209999917,175.00189209999917,175.00189209999917,175.00189209999917,,002,P012,2025_Feb_08_1138,ConditionRich,2021.2.3,59.964656831558585,
139.0,139.75,11,0.75,Stimuli/P012/sun_baylllqlgfvxilor.jpg,0,0,0.0,0,240,240,240,,,,,,,,,,,,,139.00486830000045,0.004868300000453019,None,175.25211369999852,175.25211369999852,175.25211369999852,175.25211369999852,175.25211369999852,175.25211369999852,175.25211369999852,175.25211369999852,175.25211369999852,175.25211369999852,,002,P012,2025_Feb_08_1138,ConditionRich,2021.2.3,59.964656831558585,
139.75,140.0,41,0.0,Stimuli/Blank.png,0,0,0.0,0,241,241,241,,,,,,,,,,,,,139.75541890000022,0.005418900000222493,None,176.00274969999919,176.00274969999919,176.00274969999919,176.00274969999919,176.00274969999919,176.00274969999919,176.00274969999919,176.00274969999919,176.00274969999919,176.00274969999919,,002,P012,2025_Feb_08_1138,ConditionRich,2021.2.3,59.964656831558585,
140.0,140.75,5,0.75,Stimuli/P012/sun_anfwllcezhlypoti.jpg,0,0,0.0,0,242,242,242,,,,,,,,,,,,,140.00661780000155,0.006617800001549767,None,176.2529975999987,176.2529975999987,176.2529975999987,176.2529975999987,176.2529975999987,176.2529975999987,176.2529975999987,176.2529975999987,176.2529975999987,176.2529975999987,,002,P012,2025_Feb_08_1138,ConditionRich,2021.2.3,59.964656831558585,
140.75,141.0,41,0.0,Stimuli/Blank.png,0,0,0.0,0,243,243,243,,,,,,,,,,,,,140.75709240000106,0.007092400001056376,None,177.0037457999988,177.0037457999988,177.0037457999988,177.0037457999988,177.0037457999988,177.0037457999988,177.0037457999988,177.0037457999988,177.0037457999988,177.0037457999988,,002,P012,2025_Feb_08_1138,ConditionRich,2021.2.3,59.964656831558585,
141.0,141.75,5,0.75,Stimuli/P012/sun_anfwllcezhlypoti.jpg,0,0,0.0,0,244,244,244,,,,,,,,,,,,,141.0072897000009,0.0072897000009106705,None,177.27056730000004,177.27056730000004,177.27056730000004,177.27056730000004,177.27056730000004,177.27056730000004,177.27056730000004,177.27056730000004,177.27056730000004,177.27056730000004,,002,P012,2025_Feb_08_1138,ConditionRich,2021.2.3,59.964656831558585,
141.75,142.0,41,0.0,Stimuli/Blank.png,0,0,0.0,0,245,245,245,,,,,,,,,,,,,141.774370000001,0.024370000000999426,None,178.0212264999991,178.0212264999991,178.0212264999991,178.0212264999991,178.0212264999991,178.0212264999991,178.0212264999991,178.0212264999991,178.0212264999991,178.0212264999991,,002,P012,2025_Feb_08_1138,ConditionRich,2021.2.3,59.964656831558585,
142.0,142.75,5,0.75,Stimuli/P012/sun_anfwllcezhlypoti.jpg,1,0,0.75,0,246,246,246,,,,,,,,,,,,,142.0098605000003,0.009860500000286265,2,178.27146319999883,178.27146319999883,178.27146319999883,178.27146319999883,178.27146319999883,178.27146319999883,178.27146319999883,179.0054489999984,178.27146319999883,178.27146319999883,0.4216536999992968,002,P012,2025_Feb_08_1138,ConditionRich,2021.2.3,59.964656831558585,
142.75,143.0,41,0.0,Stimuli/Blank.png,0,0,0.0,0,247,247,247,,,,,,,,,,,,,142.77562110000144,0.025621100001444574,None,179.02213409999968,179.02213409999968,179.02213409999968,179.02213409999968,179.02213409999968,179.02213409999968,179.02213409999968,179.02213409999968,179.02213409999968,179.02213409999968,,002,P012,2025_Feb_08_1138,ConditionRich,2021.2.3,59.964656831558585,
143.0,143.75,5,0.75,Stimuli/P012/sun_anfwllcezhlypoti.jpg,0,0,0.0,0,248,248,248,,,,,,,,,,,,,143.0103635000014,0.010363500001403736,None,179.2723006999986,179.2723006999986,179.2723006999986,179.2723006999986,179.2723006999986,179.2723006999986,179.2723006999986,179.2723006999986,179.2723006999986,179.2723006999986,,002,P012,2025_Feb_08_1138,ConditionRich,2021.2.3,59.964656831558585,
143.75,144.0,41,0.0,Stimuli/Blank.png,0,0,0.0,0,249,249,249,,,,,,,,,,,,,143.77639360000103,0.026393600001028972,None,180.02299689999927,180.02299689999927,180.02299689999927,180.02299689999927,180.02299689999927,180.02299689999927,180.02299689999927,180.02299689999927,180.02299689999927,180.02299689999927,,002,P012,2025_Feb_08_1138,ConditionRich,2021.2.3,59.964656831558585,
144.0,144.75,32,0.75,Stimuli/P012/things_hood_06s.jpg,0,0,0.0,0,250,250,250,,,,,,,,,,,,,144.01004510000166,0.010045100001661922,None,180.25654549999854,180.25654549999854,180.25654549999854,180.25654549999854,180.25654549999854,180.25654549999854,180.25654549999854,180.25654549999854,180.25654549999854,180.25654549999854,,002,P012,2025_Feb_08_1138,ConditionRich,2021.2.3,59.964656831558585,
144.75,145.0,41,0.0,Stimuli/Blank.png,0,0,0.0,0,251,251,251,,,,,,,,,,,,,144.76076300000022,0.010763000000224565,None,181.00835299999926,181.00835299999926,181.00835299999926,181.00835299999926,181.00835299999926,181.00835299999926,181.00835299999926,181.00835299999926,181.00835299999926,181.00835299999926,,002,P012,2025_Feb_08_1138,ConditionRich,2021.2.3,59.964656831558585,
145.0,145.75,32,0.75,Stimuli/P012/things_hood_06s.jpg,0,0,0.0,0,252,252,252,,,,,,,,,,,,,145.01082380000116,0.010823800001162454,None,181.25742170000012,181.25742170000012,181.25742170000012,181.25742170000012,181.25742170000012,181.25742170000012,181.25742170000012,181.25742170000012,181.25742170000012,181.25742170000012,,002,P012,2025_Feb_08_1138,ConditionRich,2021.2.3,59.964656831558585,
145.75,146.0,41,0.0,Stimuli/Blank.png,0,0,0.0,0,253,253,253,,,,,,,,,,,,,145.76078710000002,0.010787100000015926,None,182.0080951,182.0080951,182.0080951,182.0080951,182.0080951,182.0080951,182.0080951,182.0080951,182.0080951,182.0080951,,002,P012,2025_Feb_08_1138,ConditionRich,2021.2.3,59.964656831558585,
146.0,146.75,32,0.75,Stimuli/P012/things_hood_06s.jpg,0,0,0.0,0,254,254,254,,,,,,,,,,,,,146.01107140000022,0.011071400000219,None,182.25831339999968,182.25831339999968,182.25831339999968,182.25831339999968,182.25831339999968,182.25831339999968,182.25831339999968,182.25831339999968,182.25831339999968,182.25831339999968,,002,P012,2025_Feb_08_1138,ConditionRich,2021.2.3,59.964656831558585,
146.75,147.0,41,0.0,Stimuli/Blank.png,0,0,0.0,0,255,255,255,,,,,,,,,,,,,146.76228170000104,0.012281700001040008,None,183.0090423999991,183.0090423999991,183.0090423999991,183.0090423999991,183.0090423999991,183.0090423999991,183.0090423999991,183.0090423999991,183.0090423999991,183.0090423999991,,002,P012,2025_Feb_08_1138,ConditionRich,2021.2.3,59.964656831558585,
147.0,147.75,32,0.75,Stimuli/P012/things_hood_06s.jpg,0,0,0.0,0,256,256,256,,,,,,,,,,,,,147.0132549000009,0.013254900000902126,None,183.27587759999915,183.27587759999915,183.27587759999915,183.27587759999915,183.27587759999915,183.27587759999915,183.27587759999915,183.27587759999915,183.27587759999915,183.27587759999915,,002,P012,2025_Feb_08_1138,ConditionRich,2021.2.3,59.964656831558585,
147.75,148.0,41,0.0,Stimuli/Blank.png,0,0,0.0,0,257,257,257,,,,,,,,,,,,,147.77971320000142,0.02971320000142441,None,184.02653909999935,184.02653909999935,184.02653909999935,184.02653909999935,184.02653909999935,184.02653909999935,184.02653909999935,184.02653909999935,184.02653909999935,184.02653909999935,,002,P012,2025_Feb_08_1138,ConditionRich,2021.2.3,59.964656831558585,
148.0,148.75,33,0.75,Stimuli/P012/things_hot-air_balloon_06s.jpg,1,0,0.75,0,258,258,258,,,,,,,,,,,,,148.01327030000175,0.013270300001750002,2,184.2767702000001,184.2767702000001,184.2767702000001,184.2767702000001,184.2767702000001,184.2767702000001,184.2767702000001,184.99406699999963,184.2767702000001,184.2767702000001,0.42135740000048827,002,P012,2025_Feb_08_1138,ConditionRich,2021.2.3,59.964656831558585,
148.75,149.0,41,0.0,Stimuli/Blank.png,0,0,0.0,0,259,259,259,,,,,,,,,,,,,148.78014030000122,0.030140300001221476,None,185.02742829999988,185.02742829999988,185.02742829999988,185.02742829999988,185.02742829999988,185.02742829999988,185.02742829999988,185.02742829999988,185.02742829999988,185.02742829999988,,002,P012,2025_Feb_08_1138,ConditionRich,2021.2.3,59.964656831558585,
149.0,149.75,33,0.75,Stimuli/P012/things_hot-air_balloon_06s.jpg,0,0,0.0,0,260,260,260,,,,,,,,,,,,,149.01533720000043,0.01533720000043104,None,185.27765739999995,185.27765739999995,185.27765739999995,185.27765739999995,185.27765739999995,185.27765739999995,185.27765739999995,185.27765739999995,185.27765739999995,185.27765739999995,,002,P012,2025_Feb_08_1138,ConditionRich,2021.2.3,59.964656831558585,
149.75,150.0,41,0.0,Stimuli/Blank.png,0,0,0.0,0,261,261,261,,,,,,,,,,,,,149.76538800000162,0.015388000001621549,None,186.0116323000002,186.0116323000002,186.0116323000002,186.0116323000002,186.0116323000002,186.0116323000002,186.0116323000002,186.0116323000002,186.0116323000002,186.0116323000002,,002,P012,2025_Feb_08_1138,ConditionRich,2021.2.3,59.964656831558585,
