eventStartTime,eventEndTime,eventCond,imSize,imFile,responseEvent,fixRespStart,fixRespEnd,Events.thisRepN,Events.thisTrialN,Events.thisN,Events.thisIndex,Instructions.started,Instructions.stopped,participantReadyResponse.keys,participantReadyResponse.rt,participantReadyResponse.started,participantReadyResponse.stopped,startWaitforTrigger,triggerResponse.keys,triggerResponse.rt,triggerResponse.started,triggerResponse.stopped,globalTimer,actualStartTime,startTimingDiff,participantResponse.keys,participantResponse.started,participantResponse.stopped,image.started,image.stopped,fixationOutside.started,fixationOutside.stopped,fixationResponse.started,fixationResponse.stopped,fixationInside.started,fixationInside.stopped,participantResponse.rt,session,participant,date,expName,psychopyVersion,frameRate,
,,,,,,,,,,,,12.771813600000314,None,1,4.410685999999259,12.771813600000314,None,,,,,,,,,,,,,,,,,,,,,008,P013,2025_Feb_08_1548,ConditionRich,2021.2.3,59.941293496726466,
,,,,,,,,,,,,,,,,,,17.19786329999988,5,17.11561200000142,17.21102930000052,None,,,,,,,,,,,,,,,,008,P013,2025_Feb_08_1548,ConditionRich,2021.2.3,59.941293496726466,
0.0,4.0,0,0.0,Stimuli/Blank.png,0,0,0.0,0,0,0,0,,,,,,,,,,,,34.33088019999923,0.05362940000122762,0.05362940000122762,None,34.40979580000203,None,34.40979580000203,None,34.40979580000203,None,34.40979580000203,34.40979580000203,34.40979580000203,None,,008,P013,2025_Feb_08_1548,ConditionRich,2021.2.3,59.941293496726466,
4.0,4.75,10,0.75,Stimuli/P013/sun_bdhxnzyleoiflyak.jpg,0,0,0.0,0,1,1,1,,,,,,,,,,,,,4.019588700000895,0.019588700000895187,None,38.38027449999936,38.38027449999936,38.38027449999936,38.38027449999936,38.38027449999936,38.38027449999936,38.38027449999936,38.38027449999936,38.38027449999936,38.38027449999936,,008,P013,2025_Feb_08_1548,ConditionRich,2021.2.3,59.941293496726466,
4.75,5.0,41,0.0,Stimuli/Blank.png,0,0,0.0,0,2,2,2,,,,,,,,,,,,,4.7685367000012775,0.018536700001277495,None,39.11420139999973,39.11420139999973,39.11420139999973,39.11420139999973,39.11420139999973,39.11420139999973,39.11420139999973,39.11420139999973,39.11420139999973,39.11420139999973,,008,P013,2025_Feb_08_1548,ConditionRich,2021.2.3,59.941293496726466,
5.0,5.75,10,0.75,Stimuli/P013/sun_bdhxnzyleoiflyak.jpg,1,0,0.75,0,3,3,3,,,,,,,,,,,,,5.004342299998825,0.004342299998825183,1,39.364155800001754,39.364155800001754,39.364155800001754,39.364155800001754,39.364155800001754,39.364155800001754,39.364155800001754,40.09811289999925,39.364155800001754,39.364155800001754,0.4695744000018749,008,P013,2025_Feb_08_1548,ConditionRich,2021.2.3,59.941293496726466,
5.75,6.0,41,0.0,Stimuli/Blank.png,0,0,0.0,0,4,4,4,,,,,,,,,,,,,5.770061100000021,0.020061100000020815,None,40.114812200001325,40.114812200001325,40.114812200001325,40.114812200001325,40.114812200001325,40.114812200001325,40.114812200001325,40.114812200001325,40.114812200001325,40.114812200001325,,008,P013,2025_Feb_08_1548,ConditionRich,2021.2.3,59.941293496726466,
6.0,6.75,10,0.75,Stimuli/P013/sun_bdhxnzyleoiflyak.jpg,0,0,0.0,0,5,5,5,,,,,,,,,,,,,6.002839699998731,0.0028396999987307936,None,40.34830720000173,40.34830720000173,40.34830720000173,40.34830720000173,40.34830720000173,40.34830720000173,40.34830720000173,40.34830720000173,40.34830720000173,40.34830720000173,,008,P013,2025_Feb_08_1548,ConditionRich,2021.2.3,59.941293496726466,
6.75,7.0,41,0.0,Stimuli/Blank.png,0,0,0.0,0,6,6,6,,,,,,,,,,,,,6.754224399999657,0.00422439999965718,None,41.09902019999936,41.09902019999936,41.09902019999936,41.09902019999936,41.09902019999936,41.09902019999936,41.09902019999936,41.09902019999936,41.09902019999936,41.09902019999936,,008,P013,2025_Feb_08_1548,ConditionRich,2021.2.3,59.941293496726466,
7.0,7.75,10,0.75,Stimuli/P013/sun_bdhxnzyleoiflyak.jpg,0,0,0.0,0,7,7,7,,,,,,,,,,,,,7.004132900001423,0.004132900001422968,None,41.34924049999972,41.34924049999972,41.34924049999972,41.34924049999972,41.34924049999972,41.34924049999972,41.34924049999972,41.34924049999972,41.34924049999972,41.34924049999972,,008,P013,2025_Feb_08_1548,ConditionRich,2021.2.3,59.941293496726466,
7.75,8.0,41,0.0,Stimuli/Blank.png,0,0,0.0,0,8,8,8,,,,,,,,,,,,,7.754525799999101,0.004525799999100855,None,42.099900600002,42.099900600002,42.099900600002,42.099900600002,42.099900600002,42.099900600002,42.099900600002,42.099900600002,42.099900600002,42.099900600002,,008,P013,2025_Feb_08_1548,ConditionRich,2021.2.3,59.941293496726466,
8.0,8.75,27,0.75,Stimuli/P013/things_face_07s.jpg,0,0,0.0,0,9,9,9,,,,,,,,,,,,,8.005301099998178,0.0053010999981779605,None,42.350078100000246,42.350078100000246,42.350078100000246,42.350078100000246,42.350078100000246,42.350078100000246,42.350078100000246,42.350078100000246,42.350078100000246,42.350078100000246,,008,P013,2025_Feb_08_1548,ConditionRich,2021.2.3,59.941293496726466,
8.75,9.0,41,0.0,Stimuli/Blank.png,0,0,0.0,0,10,10,10,,,,,,,,,,,,,8.755399400000897,0.005399400000897003,None,43.100780299999315,43.100780299999315,43.100780299999315,43.100780299999315,43.100780299999315,43.100780299999315,43.100780299999315,43.100780299999315,43.100780299999315,43.100780299999315,,008,P013,2025_Feb_08_1548,ConditionRich,2021.2.3,59.941293496726466,
9.0,9.75,27,0.75,Stimuli/P013/things_face_07s.jpg,0,0,0.0,0,11,11,11,,,,,,,,,,,,,9.006208399998286,0.0062083999982860405,None,43.35100070000044,43.35100070000044,43.35100070000044,43.35100070000044,43.35100070000044,43.35100070000044,43.35100070000044,43.35100070000044,43.35100070000044,43.35100070000044,,008,P013,2025_Feb_08_1548,ConditionRich,2021.2.3,59.941293496726466,
9.75,10.0,41,0.0,Stimuli/Blank.png,0,0,0.0,0,12,12,12,,,,,,,,,,,,,9.756689599998936,0.006689599998935591,None,44.10173710000163,44.10173710000163,44.10173710000163,44.10173710000163,44.10173710000163,44.10173710000163,44.10173710000163,44.10173710000163,44.10173710000163,44.10173710000163,,008,P013,2025_Feb_08_1548,ConditionRich,2021.2.3,59.941293496726466,
10.0,10.75,27,0.75,Stimuli/P013/things_face_07s.jpg,0,0,0.0,0,13,13,13,,,,,,,,,,,,,10.006932500000403,0.006932500000402797,None,44.369093400000565,44.369093400000565,44.369093400000565,44.369093400000565,44.369093400000565,44.369093400000565,44.369093400000565,44.369093400000565,44.369093400000565,44.369093400000565,,008,P013,2025_Feb_08_1548,ConditionRich,2021.2.3,59.941293496726466,
10.75,11.0,41,0.0,Stimuli/Blank.png,0,0,0.0,0,14,14,14,,,,,,,,,,,,,10.775051100001292,0.02505110000129207,None,45.119264299999486,45.119264299999486,45.119264299999486,45.119264299999486,45.119264299999486,45.119264299999486,45.119264299999486,45.119264299999486,45.119264299999486,45.119264299999486,,008,P013,2025_Feb_08_1548,ConditionRich,2021.2.3,59.941293496726466,
11.0,11.75,27,0.75,Stimuli/P013/things_face_07s.jpg,0,0,0.0,0,15,15,15,,,,,,,,,,,,,11.00979820000066,0.009798200000659563,None,45.36947549999968,45.36947549999968,45.36947549999968,45.36947549999968,45.36947549999968,45.36947549999968,45.36947549999968,45.36947549999968,45.36947549999968,45.36947549999968,,008,P013,2025_Feb_08_1548,ConditionRich,2021.2.3,59.941293496726466,
11.75,12.0,41,0.0,Stimuli/Blank.png,0,0,0.0,0,16,16,16,,,,,,,,,,,,,11.774631199998112,0.024631199998111697,None,46.120115599998826,46.120115599998826,46.120115599998826,46.120115599998826,46.120115599998826,46.120115599998826,46.120115599998826,46.120115599998826,46.120115599998826,46.120115599998826,,008,P013,2025_Feb_08_1548,ConditionRich,2021.2.3,59.941293496726466,
12.0,12.75,39,0.75,Stimuli/P013/things_violin_07n.jpg,0,0,0.0,0,17,17,17,,,,,,,,,,,,,12.00817620000089,0.008176200000889366,None,46.353662800000166,46.353662800000166,46.353662800000166,46.353662800000166,46.353662800000166,46.353662800000166,46.353662800000166,46.353662800000166,46.353662800000166,46.353662800000166,,008,P013,2025_Feb_08_1548,ConditionRich,2021.2.3,59.941293496726466,
12.75,13.0,41,0.0,Stimuli/Blank.png,0,0,0.0,0,18,18,18,,,,,,,,,,,,,12.759690300001239,0.009690300001238938,None,47.10433660000126,47.10433660000126,47.10433660000126,47.10433660000126,47.10433660000126,47.10433660000126,47.10433660000126,47.10433660000126,47.10433660000126,47.10433660000126,,008,P013,2025_Feb_08_1548,ConditionRich,2021.2.3,59.941293496726466,
13.0,13.75,39,0.75,Stimuli/P013/things_violin_07n.jpg,0,0,0.0,0,19,19,19,,,,,,,,,,,,,13.010542100000748,0.010542100000748178,None,47.371231199998874,47.371231199998874,47.371231199998874,47.371231199998874,47.371231199998874,47.371231199998874,47.371231199998874,47.371231199998874,47.371231199998874,47.371231199998874,,008,P013,2025_Feb_08_1548,ConditionRich,2021.2.3,59.941293496726466,
13.75,14.0,41,0.0,Stimuli/Blank.png,0,0,0.0,0,20,20,20,,,,,,,,,,,,,13.776819599999726,0.02681959999972605,None,48.121884399999544,48.121884399999544,48.121884399999544,48.121884399999544,48.121884399999544,48.121884399999544,48.121884399999544,48.121884399999544,48.121884399999544,48.121884399999544,,008,P013,2025_Feb_08_1548,ConditionRich,2021.2.3,59.941293496726466,
14.0,14.75,39,0.75,Stimuli/P013/things_violin_07n.jpg,0,0,0.0,0,21,21,21,,,,,,,,,,,,,14.00996909999958,0.009969099999580067,None,48.35543229999894,48.35543229999894,48.35543229999894,48.35543229999894,48.35543229999894,48.35543229999894,48.35543229999894,48.35543229999894,48.35543229999894,48.35543229999894,,008,P013,2025_Feb_08_1548,ConditionRich,2021.2.3,59.941293496726466,
14.75,15.0,41,0.0,Stimuli/Blank.png,0,0,0.0,0,22,22,22,,,,,,,,,,,,,14.760725399999501,0.01072539999950095,None,49.10611720000088,49.10611720000088,49.10611720000088,49.10611720000088,49.10611720000088,49.10611720000088,49.10611720000088,49.10611720000088,49.10611720000088,49.10611720000088,,008,P013,2025_Feb_08_1548,ConditionRich,2021.2.3,59.941293496726466,
15.0,15.75,39,0.75,Stimuli/P013/things_violin_07n.jpg,0,0,0.0,0,23,23,23,,,,,,,,,,,,,15.0107777000012,0.010777700001199264,None,49.373013000000356,49.373013000000356,49.373013000000356,49.373013000000356,49.373013000000356,49.373013000000356,49.373013000000356,49.373013000000356,49.373013000000356,49.373013000000356,,008,P013,2025_Feb_08_1548,ConditionRich,2021.2.3,59.941293496726466,
15.75,16.0,41,0.0,Stimuli/Blank.png,0,0,0.0,0,24,24,24,,,,,,,,,,,,,15.778856900000392,0.02885690000039176,None,50.1236702999995,50.1236702999995,50.1236702999995,50.1236702999995,50.1236702999995,50.1236702999995,50.1236702999995,50.1236702999995,50.1236702999995,50.1236702999995,,008,P013,2025_Feb_08_1548,ConditionRich,2021.2.3,59.941293496726466,
16.0,16.75,11,0.75,Stimuli/P013/sun_bfyxzbjsvqsobbky.jpg,0,0,0.0,0,25,25,25,,,,,,,,,,,,,16.01163280000037,0.01163280000037048,None,50.373888900001475,50.373888900001475,50.373888900001475,50.373888900001475,50.373888900001475,50.373888900001475,50.373888900001475,50.373888900001475,50.373888900001475,50.373888900001475,,008,P013,2025_Feb_08_1548,ConditionRich,2021.2.3,59.941293496726466,
16.75,17.0,41,0.0,Stimuli/Blank.png,0,0,0.0,0,26,26,26,,,,,,,,,,,,,16.780662400000438,0.03066240000043763,None,51.12456699999893,51.12456699999893,51.12456699999893,51.12456699999893,51.12456699999893,51.12456699999893,51.12456699999893,51.12456699999893,51.12456699999893,51.12456699999893,,008,P013,2025_Feb_08_1548,ConditionRich,2021.2.3,59.941293496726466,
17.0,17.75,11,0.75,Stimuli/P013/sun_bfyxzbjsvqsobbky.jpg,0,0,0.0,0,27,27,27,,,,,,,,,,,,,17.014491499998257,0.014491499998257495,None,51.374776600001496,51.374776600001496,51.374776600001496,51.374776600001496,51.374776600001496,51.374776600001496,51.374776600001496,51.374776600001496,51.374776600001496,51.374776600001496,,008,P013,2025_Feb_08_1548,ConditionRich,2021.2.3,59.941293496726466,
17.75,18.0,41,0.0,Stimuli/Blank.png,0,0,0.0,0,28,28,28,,,,,,,,,,,,,17.78000769999926,0.030007699999259785,None,52.12543260000166,52.12543260000166,52.12543260000166,52.12543260000166,52.12543260000166,52.12543260000166,52.12543260000166,52.12543260000166,52.12543260000166,52.12543260000166,,008,P013,2025_Feb_08_1548,ConditionRich,2021.2.3,59.941293496726466,
18.0,18.75,11,0.75,Stimuli/P013/sun_bfyxzbjsvqsobbky.jpg,0,0,0.0,0,29,29,29,,,,,,,,,,,,,18.01344809999864,0.013448099998640828,None,52.35897549999936,52.35897549999936,52.35897549999936,52.35897549999936,52.35897549999936,52.35897549999936,52.35897549999936,52.35897549999936,52.35897549999936,52.35897549999936,,008,P013,2025_Feb_08_1548,ConditionRich,2021.2.3,59.941293496726466,
18.75,19.0,41,0.0,Stimuli/Blank.png,0,0,0.0,0,30,30,30,,,,,,,,,,,,,18.764950199998566,0.01495019999856595,None,53.109648099998594,53.109648099998594,53.109648099998594,53.109648099998594,53.109648099998594,53.109648099998594,53.109648099998594,53.109648099998594,53.109648099998594,53.109648099998594,,008,P013,2025_Feb_08_1548,ConditionRich,2021.2.3,59.941293496726466,
19.0,19.75,11,0.75,Stimuli/P013/sun_bfyxzbjsvqsobbky.jpg,0,0,0.0,0,31,31,31,,,,,,,,,,,,,19.015234200000123,0.015234200000122655,None,53.37656860000061,53.37656860000061,53.37656860000061,53.37656860000061,53.37656860000061,53.37656860000061,53.37656860000061,53.37656860000061,53.37656860000061,53.37656860000061,,008,P013,2025_Feb_08_1548,ConditionRich,2021.2.3,59.941293496726466,
19.75,20.0,41,0.0,Stimuli/Blank.png,0,0,0.0,0,32,32,32,,,,,,,,,,,,,19.76597589999801,0.0159758999980113,None,54.110556700001325,54.110556700001325,54.110556700001325,54.110556700001325,54.110556700001325,54.110556700001325,54.110556700001325,54.110556700001325,54.110556700001325,54.110556700001325,,008,P013,2025_Feb_08_1548,ConditionRich,2021.2.3,59.941293496726466,
20.0,20.75,20,0.75,Stimuli/P013/sun_cidodcxikcyrdglc.jpg,1,0,0.75,0,33,33,33,,,,,,,,,,,,,19.99859809999907,-0.0014019000009284355,1,54.344063799999276,54.344063799999276,54.344063799999276,54.344063799999276,54.344063799999276,54.344063799999276,54.344063799999276,55.078074000000925,54.344063799999276,54.344063799999276,0.3883817000023555,008,P013,2025_Feb_08_1548,ConditionRich,2021.2.3,59.941293496726466,
20.75,21.0,41,0.0,Stimuli/Blank.png,0,0,0.0,0,34,34,34,,,,,,,,,,,,,20.750093700000434,9.370000043418258e-05,None,55.094734999998764,55.094734999998764,55.094734999998764,55.094734999998764,55.094734999998764,55.094734999998764,55.094734999998764,55.094734999998764,55.094734999998764,55.094734999998764,,008,P013,2025_Feb_08_1548,ConditionRich,2021.2.3,59.941293496726466,
21.0,21.75,20,0.75,Stimuli/P013/sun_cidodcxikcyrdglc.jpg,0,0,0.0,0,35,35,35,,,,,,,,,,,,,20.999489199999516,-0.0005108000004838686,None,55.34495539999989,55.34495539999989,55.34495539999989,55.34495539999989,55.34495539999989,55.34495539999989,55.34495539999989,55.34495539999989,55.34495539999989,55.34495539999989,,008,P013,2025_Feb_08_1548,ConditionRich,2021.2.3,59.941293496726466,
21.75,22.0,41,0.0,Stimuli/Blank.png,0,0,0.0,0,36,36,36,,,,,,,,,,,,,21.7503332999986,0.0003332999986014329,None,56.09558720000132,56.09558720000132,56.09558720000132,56.09558720000132,56.09558720000132,56.09558720000132,56.09558720000132,56.09558720000132,56.09558720000132,56.09558720000132,,008,P013,2025_Feb_08_1548,ConditionRich,2021.2.3,59.941293496726466,
22.0,22.75,20,0.75,Stimuli/P013/sun_cidodcxikcyrdglc.jpg,0,0,0.0,0,37,37,37,,,,,,,,,,,,,22.001617999998416,0.0016179999984160531,None,56.36248419999902,56.36248419999902,56.36248419999902,56.36248419999902,56.36248419999902,56.36248419999902,56.36248419999902,56.36248419999902,56.36248419999902,56.36248419999902,,008,P013,2025_Feb_08_1548,ConditionRich,2021.2.3,59.941293496726466,
22.75,23.0,41,0.0,Stimuli/Blank.png,0,0,0.0,0,38,38,38,,,,,,,,,,,,,22.7690322999988,0.019032299998798408,None,57.1131948000002,57.1131948000002,57.1131948000002,57.1131948000002,57.1131948000002,57.1131948000002,57.1131948000002,57.1131948000002,57.1131948000002,57.1131948000002,,008,P013,2025_Feb_08_1548,ConditionRich,2021.2.3,59.941293496726466,
23.0,23.75,20,0.75,Stimuli/P013/sun_cidodcxikcyrdglc.jpg,0,0,0.0,0,39,39,39,,,,,,,,,,,,,23.001254899998457,0.0012548999984574039,None,57.346715499999846,57.346715499999846,57.346715499999846,57.346715499999846,57.346715499999846,57.346715499999846,57.346715499999846,57.346715499999846,57.346715499999846,57.346715499999846,,008,P013,2025_Feb_08_1548,ConditionRich,2021.2.3,59.941293496726466,
23.75,24.0,41,0.0,Stimuli/Blank.png,0,0,0.0,0,40,40,40,,,,,,,,,,,,,23.754214600001433,0.0042146000014327,None,58.1140704999998,58.1140704999998,58.1140704999998,58.1140704999998,58.1140704999998,58.1140704999998,58.1140704999998,58.1140704999998,58.1140704999998,58.1140704999998,,008,P013,2025_Feb_08_1548,ConditionRich,2021.2.3,59.941293496726466,
24.0,24.75,2,0.75,Stimuli/P013/sun_adotnsaifoooswkf.jpg,0,0,0.0,0,41,41,41,,,,,,,,,,,,,24.019294400000945,0.019294400000944734,None,58.364286100000754,58.364286100000754,58.364286100000754,58.364286100000754,58.364286100000754,58.364286100000754,58.364286100000754,58.364286100000754,58.364286100000754,58.364286100000754,,008,P013,2025_Feb_08_1548,ConditionRich,2021.2.3,59.941293496726466,
24.75,25.0,41,0.0,Stimuli/Blank.png,0,0,0.0,0,42,42,42,,,,,,,,,,,,,24.753616099998908,0.0036160999989078846,None,59.098274500000116,59.098274500000116,59.098274500000116,59.098274500000116,59.098274500000116,59.098274500000116,59.098274500000116,59.098274500000116,59.098274500000116,59.098274500000116,,008,P013,2025_Feb_08_1548,ConditionRich,2021.2.3,59.941293496726466,
25.0,25.75,2,0.75,Stimuli/P013/sun_adotnsaifoooswkf.jpg,0,0,0.0,0,43,43,43,,,,,,,,,,,,,25.003844200000458,0.0038442000004579313,None,59.365173300000606,59.365173300000606,59.365173300000606,59.365173300000606,59.365173300000606,59.365173300000606,59.365173300000606,59.365173300000606,59.365173300000606,59.365173300000606,,008,P013,2025_Feb_08_1548,ConditionRich,2021.2.3,59.941293496726466,
25.75,26.0,41,0.0,Stimuli/Blank.png,0,0,0.0,0,44,44,44,,,,,,,,,,,,,25.770924799999193,0.020924799999193056,None,60.115840800001024,60.115840800001024,60.115840800001024,60.115840800001024,60.115840800001024,60.115840800001024,60.115840800001024,60.115840800001024,60.115840800001024,60.115840800001024,,008,P013,2025_Feb_08_1548,ConditionRich,2021.2.3,59.941293496726466,
26.0,26.75,2,0.75,Stimuli/P013/sun_adotnsaifoooswkf.jpg,0,0,0.0,0,45,45,45,,,,,,,,,,,,,26.005817400000524,0.005817400000523776,None,60.3666344000012,60.3666344000012,60.3666344000012,60.3666344000012,60.3666344000012,60.3666344000012,60.3666344000012,60.3666344000012,60.3666344000012,60.3666344000012,,008,P013,2025_Feb_08_1548,ConditionRich,2021.2.3,59.941293496726466,
26.75,27.0,41,0.0,Stimuli/Blank.png,0,0,0.0,0,46,46,46,,,,,,,,,,,,,26.771259599998302,0.021259599998302292,None,61.116732800001046,61.116732800001046,61.116732800001046,61.116732800001046,61.116732800001046,61.116732800001046,61.116732800001046,61.116732800001046,61.116732800001046,61.116732800001046,,008,P013,2025_Feb_08_1548,ConditionRich,2021.2.3,59.941293496726466,
27.0,27.75,2,0.75,Stimuli/P013/sun_adotnsaifoooswkf.jpg,0,0,0.0,0,47,47,47,,,,,,,,,,,,,27.005451099998027,0.005451099998026621,None,61.35025780000069,61.35025780000069,61.35025780000069,61.35025780000069,61.35025780000069,61.35025780000069,61.35025780000069,61.35025780000069,61.35025780000069,61.35025780000069,,008,P013,2025_Feb_08_1548,ConditionRich,2021.2.3,59.941293496726466,
27.75,28.0,41,0.0,Stimuli/Blank.png,0,0,0.0,0,48,48,48,,,,,,,,,,,,,27.756026399998518,0.006026399998518173,None,62.100924000002124,62.100924000002124,62.100924000002124,62.100924000002124,62.100924000002124,62.100924000002124,62.100924000002124,62.100924000002124,62.100924000002124,62.100924000002124,,008,P013,2025_Feb_08_1548,ConditionRich,2021.2.3,59.941293496726466,
28.0,28.75,7,0.75,Stimuli/P013/sun_aojplsluiikxrfxc.jpg,0,0,0.0,0,49,49,49,,,,,,,,,,,,,28.00644689999899,0.0064468999989912845,None,62.36785090000194,62.36785090000194,62.36785090000194,62.36785090000194,62.36785090000194,62.36785090000194,62.36785090000194,62.36785090000194,62.36785090000194,62.36785090000194,,008,P013,2025_Feb_08_1548,ConditionRich,2021.2.3,59.941293496726466,
28.75,29.0,41,0.0,Stimuli/Blank.png,0,0,0.0,0,50,50,50,,,,,,,,,,,,,28.774002099999052,0.024002099999052007,None,63.11850440000126,63.11850440000126,63.11850440000126,63.11850440000126,63.11850440000126,63.11850440000126,63.11850440000126,63.11850440000126,63.11850440000126,63.11850440000126,,008,P013,2025_Feb_08_1548,ConditionRich,2021.2.3,59.941293496726466,
29.0,29.75,7,0.75,Stimuli/P013/sun_aojplsluiikxrfxc.jpg,0,0,0.0,0,51,51,51,,,,,,,,,,,,,29.009092799999053,0.009092799999052659,None,63.368721099999675,63.368721099999675,63.368721099999675,63.368721099999675,63.368721099999675,63.368721099999675,63.368721099999675,63.368721099999675,63.368721099999675,63.368721099999675,,008,P013,2025_Feb_08_1548,ConditionRich,2021.2.3,59.941293496726466,
29.75,30.0,41,0.0,Stimuli/Blank.png,0,0,0.0,0,52,52,52,,,,,,,,,,,,,29.77459850000014,0.0245985000001383,None,64.11939079999865,64.11939079999865,64.11939079999865,64.11939079999865,64.11939079999865,64.11939079999865,64.11939079999865,64.11939079999865,64.11939079999865,64.11939079999865,,008,P013,2025_Feb_08_1548,ConditionRich,2021.2.3,59.941293496726466,
30.0,30.75,7,0.75,Stimuli/P013/sun_aojplsluiikxrfxc.jpg,0,0,0.0,0,53,53,53,,,,,,,,,,,,,30.008515999998053,0.008515999998053303,None,64.36956780000037,64.36956780000037,64.36956780000037,64.36956780000037,64.36956780000037,64.36956780000037,64.36956780000037,64.36956780000037,64.36956780000037,64.36956780000037,,008,P013,2025_Feb_08_1548,ConditionRich,2021.2.3,59.941293496726466,
30.75,31.0,41,0.0,Stimuli/Blank.png,0,0,0.0,0,54,54,54,,,,,,,,,,,,,30.775813399999606,0.02581339999960619,None,65.1202615000002,65.1202615000002,65.1202615000002,65.1202615000002,65.1202615000002,65.1202615000002,65.1202615000002,65.1202615000002,65.1202615000002,65.1202615000002,,008,P013,2025_Feb_08_1548,ConditionRich,2021.2.3,59.941293496726466,
31.0,31.75,7,0.75,Stimuli/P013/sun_aojplsluiikxrfxc.jpg,0,0,0.0,0,55,55,55,,,,,,,,,,,,,31.009033499998623,0.009033499998622574,None,65.37048610000056,65.37048610000056,65.37048610000056,65.37048610000056,65.37048610000056,65.37048610000056,65.37048610000056,65.37048610000056,65.37048610000056,65.37048610000056,,008,P013,2025_Feb_08_1548,ConditionRich,2021.2.3,59.941293496726466,
31.75,32.0,41,0.0,Stimuli/Blank.png,0,0,0.0,0,56,56,56,,,,,,,,,,,,,31.775770100000955,0.0257701000009547,None,66.12112840000191,66.12112840000191,66.12112840000191,66.12112840000191,66.12112840000191,66.12112840000191,66.12112840000191,66.12112840000191,66.12112840000191,66.12112840000191,,008,P013,2025_Feb_08_1548,ConditionRich,2021.2.3,59.941293496726466,
32.0,32.75,33,0.75,Stimuli/P013/things_piglet_07s.jpg,0,0,0.0,0,57,57,57,,,,,,,,,,,,,32.01015479999842,0.01015479999841773,None,66.37137939999957,66.37137939999957,66.37137939999957,66.37137939999957,66.37137939999957,66.37137939999957,66.37137939999957,66.37137939999957,66.37137939999957,66.37137939999957,,008,P013,2025_Feb_08_1548,ConditionRich,2021.2.3,59.941293496726466,
32.75,33.0,41,0.0,Stimuli/Blank.png,0,0,0.0,0,58,58,58,,,,,,,,,,,,,32.77935649999927,0.029356499999266816,None,67.1387347000018,67.1387347000018,67.1387347000018,67.1387347000018,67.1387347000018,67.1387347000018,67.1387347000018,67.1387347000018,67.1387347000018,67.1387347000018,,008,P013,2025_Feb_08_1548,ConditionRich,2021.2.3,59.941293496726466,
33.0,33.75,33,0.75,Stimuli/P013/things_piglet_07s.jpg,0,0,0.0,0,59,59,59,,,,,,,,,,,,,33.027730699999665,0.027730699999665376,None,67.38893100000132,67.38893100000132,67.38893100000132,67.38893100000132,67.38893100000132,67.38893100000132,67.38893100000132,67.38893100000132,67.38893100000132,67.38893100000132,,008,P013,2025_Feb_08_1548,ConditionRich,2021.2.3,59.941293496726466,
33.75,34.0,41,0.0,Stimuli/Blank.png,0,0,0.0,0,60,60,60,,,,,,,,,,,,,33.778216099999554,0.02821609999955399,None,68.12293030000001,68.12293030000001,68.12293030000001,68.12293030000001,68.12293030000001,68.12293030000001,68.12293030000001,68.12293030000001,68.12293030000001,68.12293030000001,,008,P013,2025_Feb_08_1548,ConditionRich,2021.2.3,59.941293496726466,
34.0,34.75,33,0.75,Stimuli/P013/things_piglet_07s.jpg,0,0,0.0,0,61,61,61,,,,,,,,,,,,,34.01107799999954,0.011077999999542953,None,68.37315630000012,68.37315630000012,68.37315630000012,68.37315630000012,68.37315630000012,68.37315630000012,68.37315630000012,68.37315630000012,68.37315630000012,68.37315630000012,,008,P013,2025_Feb_08_1548,ConditionRich,2021.2.3,59.941293496726466,
34.75,35.0,41,0.0,Stimuli/Blank.png,0,0,0.0,0,62,62,62,,,,,,,,,,,,,34.77995689999807,0.029956899998069275,None,69.12382580000121,69.12382580000121,69.12382580000121,69.12382580000121,69.12382580000121,69.12382580000121,69.12382580000121,69.12382580000121,69.12382580000121,69.12382580000121,,008,P013,2025_Feb_08_1548,ConditionRich,2021.2.3,59.941293496726466,
35.0,35.75,33,0.75,Stimuli/P013/things_piglet_07s.jpg,0,0,0.0,0,63,63,63,,,,,,,,,,,,,35.01420919999873,0.014209199998731492,None,69.37402709999878,69.37402709999878,69.37402709999878,69.37402709999878,69.37402709999878,69.37402709999878,69.37402709999878,69.37402709999878,69.37402709999878,69.37402709999878,,008,P013,2025_Feb_08_1548,ConditionRich,2021.2.3,59.941293496726466,
35.75,36.0,41,0.0,Stimuli/Blank.png,0,0,0.0,0,64,64,64,,,,,,,,,,,,,35.77983160000076,0.029831600000761682,None,70.12469549999878,70.12469549999878,70.12469549999878,70.12469549999878,70.12469549999878,70.12469549999878,70.12469549999878,70.12469549999878,70.12469549999878,70.12469549999878,,008,P013,2025_Feb_08_1548,ConditionRich,2021.2.3,59.941293496726466,
36.0,36.75,4,0.75,Stimuli/P013/sun_afgoiykvchxqotyz.jpg,0,0,0.0,0,65,65,65,,,,,,,,,,,,,36.0132334000009,0.013233400000899564,None,70.35823480000181,70.35823480000181,70.35823480000181,70.35823480000181,70.35823480000181,70.35823480000181,70.35823480000181,70.35823480000181,70.35823480000181,70.35823480000181,,008,P013,2025_Feb_08_1548,ConditionRich,2021.2.3,59.941293496726466,
36.75,37.0,41,0.0,Stimuli/Blank.png,0,0,0.0,0,66,66,66,,,,,,,,,,,,,36.763577499998064,0.013577499998064013,None,71.10889250000037,71.10889250000037,71.10889250000037,71.10889250000037,71.10889250000037,71.10889250000037,71.10889250000037,71.10889250000037,71.10889250000037,71.10889250000037,,008,P013,2025_Feb_08_1548,ConditionRich,2021.2.3,59.941293496726466,
37.0,37.75,4,0.75,Stimuli/P013/sun_afgoiykvchxqotyz.jpg,0,0,0.0,0,67,67,67,,,,,,,,,,,,,37.01486389999991,0.014863899999909336,None,71.37582950000069,71.37582950000069,71.37582950000069,71.37582950000069,71.37582950000069,71.37582950000069,71.37582950000069,71.37582950000069,71.37582950000069,71.37582950000069,,008,P013,2025_Feb_08_1548,ConditionRich,2021.2.3,59.941293496726466,
37.75,38.0,41,0.0,Stimuli/Blank.png,0,0,0.0,0,68,68,68,,,,,,,,,,,,,37.781094900001335,0.03109490000133519,None,72.12646339999992,72.12646339999992,72.12646339999992,72.12646339999992,72.12646339999992,72.12646339999992,72.12646339999992,72.12646339999992,72.12646339999992,72.12646339999992,,008,P013,2025_Feb_08_1548,ConditionRich,2021.2.3,59.941293496726466,
38.0,38.75,4,0.75,Stimuli/P013/sun_afgoiykvchxqotyz.jpg,0,0,0.0,0,69,69,69,,,,,,,,,,,,,38.01466509999955,0.014665099999547238,None,72.3600019000005,72.3600019000005,72.3600019000005,72.3600019000005,72.3600019000005,72.3600019000005,72.3600019000005,72.3600019000005,72.3600019000005,72.3600019000005,,008,P013,2025_Feb_08_1548,ConditionRich,2021.2.3,59.941293496726466,
38.75,39.0,41,0.0,Stimuli/Blank.png,0,0,0.0,0,70,70,70,,,,,,,,,,,,,38.765270600000804,0.015270600000803825,None,73.11066769999888,73.11066769999888,73.11066769999888,73.11066769999888,73.11066769999888,73.11066769999888,73.11066769999888,73.11066769999888,73.11066769999888,73.11066769999888,,008,P013,2025_Feb_08_1548,ConditionRich,2021.2.3,59.941293496726466,
39.0,39.75,4,0.75,Stimuli/P013/sun_afgoiykvchxqotyz.jpg,0,0,0.0,0,71,71,71,,,,,,,,,,,,,39.01539530000082,0.015395300000818679,None,73.3608877000006,73.3608877000006,73.3608877000006,73.3608877000006,73.3608877000006,73.3608877000006,73.3608877000006,73.3608877000006,73.3608877000006,73.3608877000006,,008,P013,2025_Feb_08_1548,ConditionRich,2021.2.3,59.941293496726466,
39.75,40.0,41,0.0,Stimuli/Blank.png,0,0,0.0,0,72,72,72,,,,,,,,,,,,,39.74951979999969,-0.0004802000003110152,None,74.09487330000047,74.09487330000047,74.09487330000047,74.09487330000047,74.09487330000047,74.09487330000047,74.09487330000047,74.09487330000047,74.09487330000047,74.09487330000047,,008,P013,2025_Feb_08_1548,ConditionRich,2021.2.3,59.941293496726466,
40.0,40.75,40,0.75,Stimuli/P013/things_woman_07s.jpg,0,0,0.0,0,73,73,73,,,,,,,,,,,,,39.99969649999912,-0.0003035000008821953,None,74.34508610000194,74.34508610000194,74.34508610000194,74.34508610000194,74.34508610000194,74.34508610000194,74.34508610000194,74.34508610000194,74.34508610000194,74.34508610000194,,008,P013,2025_Feb_08_1548,ConditionRich,2021.2.3,59.941293496726466,
40.75,41.0,41,0.0,Stimuli/Blank.png,0,0,0.0,0,74,74,74,,,,,,,,,,,,,40.750316400000884,0.000316400000883732,None,75.09572969999863,75.09572969999863,75.09572969999863,75.09572969999863,75.09572969999863,75.09572969999863,75.09572969999863,75.09572969999863,75.09572969999863,75.09572969999863,,008,P013,2025_Feb_08_1548,ConditionRich,2021.2.3,59.941293496726466,
41.0,41.75,40,0.75,Stimuli/P013/things_woman_07s.jpg,0,0,0.0,0,75,75,75,,,,,,,,,,,,,41.0017571999997,0.0017571999997016974,None,75.36266339999929,75.36266339999929,75.36266339999929,75.36266339999929,75.36266339999929,75.36266339999929,75.36266339999929,75.36266339999929,75.36266339999929,75.36266339999929,,008,P013,2025_Feb_08_1548,ConditionRich,2021.2.3,59.941293496726466,
41.75,42.0,41,0.0,Stimuli/Blank.png,0,0,0.0,0,76,76,76,,,,,,,,,,,,,41.768525299998146,0.018525299998145783,None,76.11333880000166,76.11333880000166,76.11333880000166,76.11333880000166,76.11333880000166,76.11333880000166,76.11333880000166,76.11333880000166,76.11333880000166,76.11333880000166,,008,P013,2025_Feb_08_1548,ConditionRich,2021.2.3,59.941293496726466,
42.0,42.75,40,0.75,Stimuli/P013/things_woman_07s.jpg,0,0,0.0,0,77,77,77,,,,,,,,,,,,,42.00146239999958,0.0014623999995819759,None,76.34684470000138,76.34684470000138,76.34684470000138,76.34684470000138,76.34684470000138,76.34684470000138,76.34684470000138,76.34684470000138,76.34684470000138,76.34684470000138,,008,P013,2025_Feb_08_1548,ConditionRich,2021.2.3,59.941293496726466,
42.75,43.0,41,0.0,Stimuli/Blank.png,0,0,0.0,0,78,78,78,,,,,,,,,,,,,42.75201699999889,0.002016999998886604,None,77.09756650000054,77.09756650000054,77.09756650000054,77.09756650000054,77.09756650000054,77.09756650000054,77.09756650000054,77.09756650000054,77.09756650000054,77.09756650000054,,008,P013,2025_Feb_08_1548,ConditionRich,2021.2.3,59.941293496726466,
43.0,43.75,40,0.75,Stimuli/P013/things_woman_07s.jpg,0,0,0.0,0,79,79,79,,,,,,,,,,,,,43.004567699998006,0.004567699998005992,None,77.36443340000187,77.36443340000187,77.36443340000187,77.36443340000187,77.36443340000187,77.36443340000187,77.36443340000187,77.36443340000187,77.36443340000187,77.36443340000187,,008,P013,2025_Feb_08_1548,ConditionRich,2021.2.3,59.941293496726466,
43.75,44.0,41,0.0,Stimuli/Blank.png,0,0,0.0,0,80,80,80,,,,,,,,,,,,,43.77019459999792,0.020194599997921614,None,78.11510070000077,78.11510070000077,78.11510070000077,78.11510070000077,78.11510070000077,78.11510070000077,78.11510070000077,78.11510070000077,78.11510070000077,78.11510070000077,,008,P013,2025_Feb_08_1548,ConditionRich,2021.2.3,59.941293496726466,
44.0,44.75,16,0.75,Stimuli/P013/sun_bsgtkqjrnrvttrax.jpg,0,0,0.0,0,81,81,81,,,,,,,,,,,,,44.00387359999877,0.0038735999987693503,None,78.36528539999927,78.36528539999927,78.36528539999927,78.36528539999927,78.36528539999927,78.36528539999927,78.36528539999927,78.36528539999927,78.36528539999927,78.36528539999927,,008,P013,2025_Feb_08_1548,ConditionRich,2021.2.3,59.941293496726466,
44.75,45.0,41,0.0,Stimuli/Blank.png,0,0,0.0,0,82,82,82,,,,,,,,,,,,,44.771027499999036,0.02102749999903608,None,79.11598249999952,79.11598249999952,79.11598249999952,79.11598249999952,79.11598249999952,79.11598249999952,79.11598249999952,79.11598249999952,79.11598249999952,79.11598249999952,,008,P013,2025_Feb_08_1548,ConditionRich,2021.2.3,59.941293496726466,
45.0,45.75,16,0.75,Stimuli/P013/sun_bsgtkqjrnrvttrax.jpg,0,0,0.0,0,83,83,83,,,,,,,,,,,,,45.00524210000003,0.005242100000032224,None,79.36619989999963,79.36619989999963,79.36619989999963,79.36619989999963,79.36619989999963,79.36619989999963,79.36619989999963,79.36619989999963,79.36619989999963,79.36619989999963,,008,P013,2025_Feb_08_1548,ConditionRich,2021.2.3,59.941293496726466,
45.75,46.0,41,0.0,Stimuli/Blank.png,0,0,0.0,0,84,84,84,,,,,,,,,,,,,45.774430099998426,0.024430099998426158,None,80.13355869999941,80.13355869999941,80.13355869999941,80.13355869999941,80.13355869999941,80.13355869999941,80.13355869999941,80.13355869999941,80.13355869999941,80.13355869999941,,008,P013,2025_Feb_08_1548,ConditionRich,2021.2.3,59.941293496726466,
46.0,46.75,16,0.75,Stimuli/P013/sun_bsgtkqjrnrvttrax.jpg,0,0,0.0,0,85,85,85,,,,,,,,,,,,,46.023066599998856,0.023066599998855963,None,80.38376680000147,80.38376680000147,80.38376680000147,80.38376680000147,80.38376680000147,80.38376680000147,80.38376680000147,80.38376680000147,80.38376680000147,80.38376680000147,,008,P013,2025_Feb_08_1548,ConditionRich,2021.2.3,59.941293496726466,
46.75,47.0,41,0.0,Stimuli/Blank.png,0,0,0.0,0,86,86,86,,,,,,,,,,,,,46.77457620000132,0.024576200001320103,None,81.13443650000045,81.13443650000045,81.13443650000045,81.13443650000045,81.13443650000045,81.13443650000045,81.13443650000045,81.13443650000045,81.13443650000045,81.13443650000045,,008,P013,2025_Feb_08_1548,ConditionRich,2021.2.3,59.941293496726466,
47.0,47.75,16,0.75,Stimuli/P013/sun_bsgtkqjrnrvttrax.jpg,0,0,0.0,0,87,87,87,,,,,,,,,,,,,47.025514199998725,0.025514199998724507,None,81.3851524999991,81.3851524999991,81.3851524999991,81.3851524999991,81.3851524999991,81.3851524999991,81.3851524999991,81.3851524999991,81.3851524999991,81.3851524999991,,008,P013,2025_Feb_08_1548,ConditionRich,2021.2.3,59.941293496726466,
47.75,48.0,41,0.0,Stimuli/Blank.png,0,0,0.0,0,88,88,88,,,,,,,,,,,,,47.774001300000236,0.02400130000023637,None,82.11863839999933,82.11863839999933,82.11863839999933,82.11863839999933,82.11863839999933,82.11863839999933,82.11863839999933,82.11863839999933,82.11863839999933,82.11863839999933,,008,P013,2025_Feb_08_1548,ConditionRich,2021.2.3,59.941293496726466,
48.0,48.75,13,0.75,Stimuli/P013/sun_bpccpwpohfirajtf.jpg,0,0,0.0,0,89,89,89,,,,,,,,,,,,,48.00678440000047,0.006784400000469759,None,82.36888360000012,82.36888360000012,82.36888360000012,82.36888360000012,82.36888360000012,82.36888360000012,82.36888360000012,82.36888360000012,82.36888360000012,82.36888360000012,,008,P013,2025_Feb_08_1548,ConditionRich,2021.2.3,59.941293496726466,
48.75,49.0,41,0.0,Stimuli/Blank.png,0,0,0.0,0,90,90,90,,,,,,,,,,,,,48.77492369999891,0.024923699998907978,None,83.11952419999943,83.11952419999943,83.11952419999943,83.11952419999943,83.11952419999943,83.11952419999943,83.11952419999943,83.11952419999943,83.11952419999943,83.11952419999943,,008,P013,2025_Feb_08_1548,ConditionRich,2021.2.3,59.941293496726466,
49.0,49.75,13,0.75,Stimuli/P013/sun_bpccpwpohfirajtf.jpg,0,0,0.0,0,91,91,91,,,,,,,,,,,,,49.00853389999975,0.008533899999747518,None,83.36973890000081,83.36973890000081,83.36973890000081,83.36973890000081,83.36973890000081,83.36973890000081,83.36973890000081,83.36973890000081,83.36973890000081,83.36973890000081,,008,P013,2025_Feb_08_1548,ConditionRich,2021.2.3,59.941293496726466,
49.75,50.0,41,0.0,Stimuli/Blank.png,0,0,0.0,0,92,92,92,,,,,,,,,,,,,49.77580250000028,0.025802500000281725,None,84.12040790000174,84.12040790000174,84.12040790000174,84.12040790000174,84.12040790000174,84.12040790000174,84.12040790000174,84.12040790000174,84.12040790000174,84.12040790000174,,008,P013,2025_Feb_08_1548,ConditionRich,2021.2.3,59.941293496726466,
50.0,50.75,13,0.75,Stimuli/P013/sun_bpccpwpohfirajtf.jpg,0,0,0.0,0,93,93,93,,,,,,,,,,,,,50.00923889999831,0.009238899998308625,None,84.35395129999961,84.35395129999961,84.35395129999961,84.35395129999961,84.35395129999961,84.35395129999961,84.35395129999961,84.35395129999961,84.35395129999961,84.35395129999961,,008,P013,2025_Feb_08_1548,ConditionRich,2021.2.3,59.941293496726466,
50.75,51.0,41,0.0,Stimuli/Blank.png,0,0,0.0,0,94,94,94,,,,,,,,,,,,,50.75979029999871,0.009790299998712726,None,85.10462170000028,85.10462170000028,85.10462170000028,85.10462170000028,85.10462170000028,85.10462170000028,85.10462170000028,85.10462170000028,85.10462170000028,85.10462170000028,,008,P013,2025_Feb_08_1548,ConditionRich,2021.2.3,59.941293496726466,
51.0,51.75,13,0.75,Stimuli/P013/sun_bpccpwpohfirajtf.jpg,1,0,0.75,0,95,95,95,,,,,,,,,,,,,51.00990710000042,0.009907100000418723,1,85.35483050000039,85.35483050000039,85.35483050000039,85.35483050000039,85.35483050000039,85.35483050000039,85.35483050000039,86.0888182000017,85.35483050000039,85.35483050000039,0.4696149000010337,008,P013,2025_Feb_08_1548,ConditionRich,2021.2.3,59.941293496726466,
51.75,52.0,41,0.0,Stimuli/Blank.png,0,0,0.0,0,96,96,96,,,,,,,,,,,,,51.76013779999994,0.01013779999993858,None,86.10549489999903,86.10549489999903,86.10549489999903,86.10549489999903,86.10549489999903,86.10549489999903,86.10549489999903,86.10549489999903,86.10549489999903,86.10549489999903,,008,P013,2025_Feb_08_1548,ConditionRich,2021.2.3,59.941293496726466,
52.0,52.75,32,0.75,Stimuli/P013/things_mistletoe_07s.jpg,0,0,0.0,0,97,97,97,,,,,,,,,,,,,52.01096160000088,0.010961600000882754,None,86.35649779999949,86.35649779999949,86.35649779999949,86.35649779999949,86.35649779999949,86.35649779999949,86.35649779999949,86.35649779999949,86.35649779999949,86.35649779999949,,008,P013,2025_Feb_08_1548,ConditionRich,2021.2.3,59.941293496726466,
52.75,53.0,41,0.0,Stimuli/Blank.png,0,0,0.0,0,98,98,98,,,,,,,,,,,,,52.76160090000121,0.011600900001212722,None,87.10638240000117,87.10638240000117,87.10638240000117,87.10638240000117,87.10638240000117,87.10638240000117,87.10638240000117,87.10638240000117,87.10638240000117,87.10638240000117,,008,P013,2025_Feb_08_1548,ConditionRich,2021.2.3,59.941293496726466,
53.0,53.75,32,0.75,Stimuli/P013/things_mistletoe_07s.jpg,0,0,0.0,0,99,99,99,,,,,,,,,,,,,53.01185350000014,0.011853500000142958,None,87.37329160000081,87.37329160000081,87.37329160000081,87.37329160000081,87.37329160000081,87.37329160000081,87.37329160000081,87.37329160000081,87.37329160000081,87.37329160000081,,008,P013,2025_Feb_08_1548,ConditionRich,2021.2.3,59.941293496726466,
53.75,54.0,41,0.0,Stimuli/Blank.png,0,0,0.0,0,100,100,100,,,,,,,,,,,,,53.779422600000544,0.029422600000543753,None,88.12395340000148,88.12395340000148,88.12395340000148,88.12395340000148,88.12395340000148,88.12395340000148,88.12395340000148,88.12395340000148,88.12395340000148,88.12395340000148,,008,P013,2025_Feb_08_1548,ConditionRich,2021.2.3,59.941293496726466,
54.0,54.75,32,0.75,Stimuli/P013/things_mistletoe_07s.jpg,0,0,0.0,0,101,101,101,,,,,,,,,,,,,54.0126307999999,0.012630799999897135,None,88.37416830000075,88.37416830000075,88.37416830000075,88.37416830000075,88.37416830000075,88.37416830000075,88.37416830000075,88.37416830000075,88.37416830000075,88.37416830000075,,008,P013,2025_Feb_08_1548,ConditionRich,2021.2.3,59.941293496726466,
54.75,55.0,41,0.0,Stimuli/Blank.png,0,0,0.0,0,102,102,102,,,,,,,,,,,,,54.7794189999986,0.029418999998597428,None,89.1248411000015,89.1248411000015,89.1248411000015,89.1248411000015,89.1248411000015,89.1248411000015,89.1248411000015,89.1248411000015,89.1248411000015,89.1248411000015,,008,P013,2025_Feb_08_1548,ConditionRich,2021.2.3,59.941293496726466,
55.0,55.75,32,0.75,Stimuli/P013/things_mistletoe_07s.jpg,0,0,0.0,0,103,103,103,,,,,,,,,,,,,55.01289550000001,0.012895500000013271,None,89.35837600000013,89.35837600000013,89.35837600000013,89.35837600000013,89.35837600000013,89.35837600000013,89.35837600000013,89.35837600000013,89.35837600000013,89.35837600000013,,008,P013,2025_Feb_08_1548,ConditionRich,2021.2.3,59.941293496726466,
55.75,56.0,41,0.0,Stimuli/Blank.png,0,0,0.0,0,104,104,104,,,,,,,,,,,,,55.76362180000069,0.01362180000069202,None,90.10904189999928,90.10904189999928,90.10904189999928,90.10904189999928,90.10904189999928,90.10904189999928,90.10904189999928,90.10904189999928,90.10904189999928,90.10904189999928,,008,P013,2025_Feb_08_1548,ConditionRich,2021.2.3,59.941293496726466,
56.0,56.75,18,0.75,Stimuli/P013/sun_btohwudpiusfvpvl.jpg,0,0,0.0,0,105,105,105,,,,,,,,,,,,,56.01463850000073,0.014638500000728527,None,90.37596689999918,90.37596689999918,90.37596689999918,90.37596689999918,90.37596689999918,90.37596689999918,90.37596689999918,90.37596689999918,90.37596689999918,90.37596689999918,,008,P013,2025_Feb_08_1548,ConditionRich,2021.2.3,59.941293496726466,
56.75,57.0,41,0.0,Stimuli/Blank.png,0,0,0.0,0,106,106,106,,,,,,,,,,,,,56.78233990000081,0.032339900000806665,None,91.12661200000002,91.12661200000002,91.12661200000002,91.12661200000002,91.12661200000002,91.12661200000002,91.12661200000002,91.12661200000002,91.12661200000002,91.12661200000002,,008,P013,2025_Feb_08_1548,ConditionRich,2021.2.3,59.941293496726466,
57.0,57.75,18,0.75,Stimuli/P013/sun_btohwudpiusfvpvl.jpg,0,0,0.0,0,107,107,107,,,,,,,,,,,,,56.998709399998916,-0.0012906000010843854,None,91.36056630000166,91.36056630000166,91.36056630000166,91.36056630000166,91.36056630000166,91.36056630000166,91.36056630000166,91.36056630000166,91.36056630000166,91.36056630000166,,008,P013,2025_Feb_08_1548,ConditionRich,2021.2.3,59.941293496726466,
57.75,58.0,41,0.0,Stimuli/Blank.png,0,0,0.0,0,108,108,108,,,,,,,,,,,,,57.78564689999985,0.03564689999984694,None,92.14419099999941,92.14419099999941,92.14419099999941,92.14419099999941,92.14419099999941,92.14419099999941,92.14419099999941,92.14419099999941,92.14419099999941,92.14419099999941,,008,P013,2025_Feb_08_1548,ConditionRich,2021.2.3,59.941293496726466,
58.0,58.75,18,0.75,Stimuli/P013/sun_btohwudpiusfvpvl.jpg,0,0,0.0,0,109,109,109,,,,,,,,,,,,,58.01570340000035,0.015703400000347756,None,92.36103849999927,92.36103849999927,92.36103849999927,92.36103849999927,92.36103849999927,92.36103849999927,92.36103849999927,92.36103849999927,92.36103849999927,92.36103849999927,,008,P013,2025_Feb_08_1548,ConditionRich,2021.2.3,59.941293496726466,
58.75,59.0,41,0.0,Stimuli/Blank.png,0,0,0.0,0,110,110,110,,,,,,,,,,,,,58.749751399998786,-0.0002486000012140721,None,93.09501200000159,93.09501200000159,93.09501200000159,93.09501200000159,93.09501200000159,93.09501200000159,93.09501200000159,93.09501200000159,93.09501200000159,93.09501200000159,,008,P013,2025_Feb_08_1548,ConditionRich,2021.2.3,59.941293496726466,
59.0,59.75,18,0.75,Stimuli/P013/sun_btohwudpiusfvpvl.jpg,0,0,0.0,0,111,111,111,,,,,,,,,,,,,59.00038040000072,0.0003804000007221475,None,93.34523569999874,93.34523569999874,93.34523569999874,93.34523569999874,93.34523569999874,93.34523569999874,93.34523569999874,93.34523569999874,93.34523569999874,93.34523569999874,,008,P013,2025_Feb_08_1548,ConditionRich,2021.2.3,59.941293496726466,
59.75,60.0,41,0.0,Stimuli/Blank.png,0,0,0.0,0,112,112,112,,,,,,,,,,,,,59.75101419999919,0.0010141999991901685,None,94.0969600999997,94.0969600999997,94.0969600999997,94.0969600999997,94.0969600999997,94.0969600999997,94.0969600999997,94.0969600999997,94.0969600999997,94.0969600999997,,008,P013,2025_Feb_08_1548,ConditionRich,2021.2.3,59.941293496726466,
60.0,60.75,38,0.75,Stimuli/P013/things_spark_plug_07s.jpg,0,0,0.0,0,113,113,113,,,,,,,,,,,,,60.000618800000666,0.0006188000006659422,None,94.34608819999994,94.34608819999994,94.34608819999994,94.34608819999994,94.34608819999994,94.34608819999994,94.34608819999994,94.34608819999994,94.34608819999994,94.34608819999994,,008,P013,2025_Feb_08_1548,ConditionRich,2021.2.3,59.941293496726466,
60.75,61.0,41,0.0,Stimuli/Blank.png,0,0,0.0,0,114,114,114,,,,,,,,,,,,,60.751976799998374,0.00197679999837419,None,95.09678880000138,95.09678880000138,95.09678880000138,95.09678880000138,95.09678880000138,95.09678880000138,95.09678880000138,95.09678880000138,95.09678880000138,95.09678880000138,,008,P013,2025_Feb_08_1548,ConditionRich,2021.2.3,59.941293496726466,
61.0,61.75,38,0.75,Stimuli/P013/things_spark_plug_07s.jpg,0,0,0.0,0,115,115,115,,,,,,,,,,,,,61.002481100000296,0.0024811000002955552,None,95.36368690000018,95.36368690000018,95.36368690000018,95.36368690000018,95.36368690000018,95.36368690000018,95.36368690000018,95.36368690000018,95.36368690000018,95.36368690000018,,008,P013,2025_Feb_08_1548,ConditionRich,2021.2.3,59.941293496726466,
61.75,62.0,41,0.0,Stimuli/Blank.png,0,0,0.0,0,116,116,116,,,,,,,,,,,,,61.76969559999998,0.019695599999977276,None,96.11436080000203,96.11436080000203,96.11436080000203,96.11436080000203,96.11436080000203,96.11436080000203,96.11436080000203,96.11436080000203,96.11436080000203,96.11436080000203,,008,P013,2025_Feb_08_1548,ConditionRich,2021.2.3,59.941293496726466,
62.0,62.75,38,0.75,Stimuli/P013/things_spark_plug_07s.jpg,0,0,0.0,0,117,117,117,,,,,,,,,,,,,62.0054773999982,0.005477399998198962,None,96.3645757000013,96.3645757000013,96.3645757000013,96.3645757000013,96.3645757000013,96.3645757000013,96.3645757000013,96.3645757000013,96.3645757000013,96.3645757000013,,008,P013,2025_Feb_08_1548,ConditionRich,2021.2.3,59.941293496726466,
62.75,63.0,41,0.0,Stimuli/Blank.png,0,0,0.0,0,118,118,118,,,,,,,,,,,,,62.77042280000023,0.02042280000023311,None,97.11524300000019,97.11524300000019,97.11524300000019,97.11524300000019,97.11524300000019,97.11524300000019,97.11524300000019,97.11524300000019,97.11524300000019,97.11524300000019,,008,P013,2025_Feb_08_1548,ConditionRich,2021.2.3,59.941293496726466,
63.0,63.75,38,0.75,Stimuli/P013/things_spark_plug_07s.jpg,0,0,0.0,0,119,119,119,,,,,,,,,,,,,63.00431369999933,0.004313699999329401,None,97.36547430000064,97.36547430000064,97.36547430000064,97.36547430000064,97.36547430000064,97.36547430000064,97.36547430000064,97.36547430000064,97.36547430000064,97.36547430000064,,008,P013,2025_Feb_08_1548,ConditionRich,2021.2.3,59.941293496726466,
63.75,64.0,41,0.0,Stimuli/Blank.png,0,0,0.0,0,120,120,120,,,,,,,,,,,,,63.770640200000344,0.02064020000034361,None,98.11612660000173,98.11612660000173,98.11612660000173,98.11612660000173,98.11612660000173,98.11612660000173,98.11612660000173,98.11612660000173,98.11612660000173,98.11612660000173,,008,P013,2025_Feb_08_1548,ConditionRich,2021.2.3,59.941293496726466,
64.0,64.75,6,0.75,Stimuli/P013/sun_aoejkkmwkfegacni.jpg,0,0,0.0,0,121,121,121,,,,,,,,,,,,,64.00445860000036,0.004458600000361912,None,98.34962549999909,98.34962549999909,98.34962549999909,98.34962549999909,98.34962549999909,98.34962549999909,98.34962549999909,98.34962549999909,98.34962549999909,98.34962549999909,,008,P013,2025_Feb_08_1548,ConditionRich,2021.2.3,59.941293496726466,
64.75,65.0,41,0.0,Stimuli/Blank.png,0,0,0.0,0,122,122,122,,,,,,,,,,,,,64.7557713999995,0.005771399999503046,None,99.10032059999867,99.10032059999867,99.10032059999867,99.10032059999867,99.10032059999867,99.10032059999867,99.10032059999867,99.10032059999867,99.10032059999867,99.10032059999867,,008,P013,2025_Feb_08_1548,ConditionRich,2021.2.3,59.941293496726466,
65.0,65.75,6,0.75,Stimuli/P013/sun_aoejkkmwkfegacni.jpg,0,0,0.0,0,123,123,123,,,,,,,,,,,,,65.00571299999865,0.005712999998650048,None,99.35054089999903,99.35054089999903,99.35054089999903,99.35054089999903,99.35054089999903,99.35054089999903,99.35054089999903,99.35054089999903,99.35054089999903,99.35054089999903,,008,P013,2025_Feb_08_1548,ConditionRich,2021.2.3,59.941293496726466,
65.75,66.0,41,0.0,Stimuli/Blank.png,0,0,0.0,0,124,124,124,,,,,,,,,,,,,65.75662889999876,0.006628899998759152,None,100.10122730000148,100.10122730000148,100.10122730000148,100.10122730000148,100.10122730000148,100.10122730000148,100.10122730000148,100.10122730000148,100.10122730000148,100.10122730000148,,008,P013,2025_Feb_08_1548,ConditionRich,2021.2.3,59.941293496726466,
66.0,66.75,6,0.75,Stimuli/P013/sun_aoejkkmwkfegacni.jpg,0,0,0.0,0,125,125,125,,,,,,,,,,,,,66.00671739999962,0.006717399999615736,None,100.36812120000104,100.36812120000104,100.36812120000104,100.36812120000104,100.36812120000104,100.36812120000104,100.36812120000104,100.36812120000104,100.36812120000104,100.36812120000104,,008,P013,2025_Feb_08_1548,ConditionRich,2021.2.3,59.941293496726466,
66.75,67.0,41,0.0,Stimuli/Blank.png,0,0,0.0,0,126,126,126,,,,,,,,,,,,,66.77403939999931,0.024039399999310263,None,101.11878449999858,101.11878449999858,101.11878449999858,101.11878449999858,101.11878449999858,101.11878449999858,101.11878449999858,101.11878449999858,101.11878449999858,101.11878449999858,,008,P013,2025_Feb_08_1548,ConditionRich,2021.2.3,59.941293496726466,
67.0,67.75,6,0.75,Stimuli/P013/sun_aoejkkmwkfegacni.jpg,0,0,0.0,0,127,127,127,,,,,,,,,,,,,67.00685059999887,0.006850599998870166,None,101.36902159999954,101.36902159999954,101.36902159999954,101.36902159999954,101.36902159999954,101.36902159999954,101.36902159999954,101.36902159999954,101.36902159999954,101.36902159999954,,008,P013,2025_Feb_08_1548,ConditionRich,2021.2.3,59.941293496726466,
67.75,68.0,41,0.0,Stimuli/Blank.png,0,0,0.0,0,128,128,128,,,,,,,,,,,,,67.77452930000072,0.024529300000722287,None,102.11966290000055,102.11966290000055,102.11966290000055,102.11966290000055,102.11966290000055,102.11966290000055,102.11966290000055,102.11966290000055,102.11966290000055,102.11966290000055,,008,P013,2025_Feb_08_1548,ConditionRich,2021.2.3,59.941293496726466,
68.0,68.75,26,0.75,Stimuli/P013/things_cougar_07s.jpg,0,0,0.0,0,129,129,129,,,,,,,,,,,,,68.01055149999956,0.01055149999956484,None,102.37045610000132,102.37045610000132,102.37045610000132,102.37045610000132,102.37045610000132,102.37045610000132,102.37045610000132,102.37045610000132,102.37045610000132,102.37045610000132,,008,P013,2025_Feb_08_1548,ConditionRich,2021.2.3,59.941293496726466,
68.75,69.0,41,0.0,Stimuli/Blank.png,0,0,0.0,0,130,130,130,,,,,,,,,,,,,68.77586589999919,0.025865899999189423,None,103.12054730000091,103.12054730000091,103.12054730000091,103.12054730000091,103.12054730000091,103.12054730000091,103.12054730000091,103.12054730000091,103.12054730000091,103.12054730000091,,008,P013,2025_Feb_08_1548,ConditionRich,2021.2.3,59.941293496726466,
69.0,69.75,26,0.75,Stimuli/P013/things_cougar_07s.jpg,0,0,0.0,0,131,131,131,,,,,,,,,,,,,69.00881749999826,0.008817499998258427,None,103.35415199999989,103.35415199999989,103.35415199999989,103.35415199999989,103.35415199999989,103.35415199999989,103.35415199999989,103.35415199999989,103.35415199999989,103.35415199999989,,008,P013,2025_Feb_08_1548,ConditionRich,2021.2.3,59.941293496726466,
69.75,70.0,41,0.0,Stimuli/Blank.png,0,0,0.0,0,132,132,132,,,,,,,,,,,,,69.76007359999858,0.010073599998577265,None,104.10476330000165,104.10476330000165,104.10476330000165,104.10476330000165,104.10476330000165,104.10476330000165,104.10476330000165,104.10476330000165,104.10476330000165,104.10476330000165,,008,P013,2025_Feb_08_1548,ConditionRich,2021.2.3,59.941293496726466,
70.0,70.75,26,0.75,Stimuli/P013/things_cougar_07s.jpg,0,0,0.0,0,133,133,133,,,,,,,,,,,,,70.00949179999952,0.00949179999952321,None,104.35498509999888,104.35498509999888,104.35498509999888,104.35498509999888,104.35498509999888,104.35498509999888,104.35498509999888,104.35498509999888,104.35498509999888,104.35498509999888,,008,P013,2025_Feb_08_1548,ConditionRich,2021.2.3,59.941293496726466,
70.75,71.0,41,0.0,Stimuli/Blank.png,0,0,0.0,0,134,134,134,,,,,,,,,,,,,70.7601164000007,0.010116400000697467,None,105.10564380000142,105.10564380000142,105.10564380000142,105.10564380000142,105.10564380000142,105.10564380000142,105.10564380000142,105.10564380000142,105.10564380000142,105.10564380000142,,008,P013,2025_Feb_08_1548,ConditionRich,2021.2.3,59.941293496726466,
71.0,71.75,26,0.75,Stimuli/P013/things_cougar_07s.jpg,0,0,0.0,0,135,135,135,,,,,,,,,,,,,71.01090829999885,0.010908299998845905,None,105.3558653,105.3558653,105.3558653,105.3558653,105.3558653,105.3558653,105.3558653,105.3558653,105.3558653,105.3558653,,008,P013,2025_Feb_08_1548,ConditionRich,2021.2.3,59.941293496726466,
71.75,72.0,41,0.0,Stimuli/Blank.png,0,0,0.0,0,136,136,136,,,,,,,,,,,,,71.76133610000034,0.011336100000335136,None,106.10652910000135,106.10652910000135,106.10652910000135,106.10652910000135,106.10652910000135,106.10652910000135,106.10652910000135,106.10652910000135,106.10652910000135,106.10652910000135,,008,P013,2025_Feb_08_1548,ConditionRich,2021.2.3,59.941293496726466,
72.0,72.75,28,0.75,Stimuli/P013/things_girl_07s.jpg,0,0,0.0,0,137,137,137,,,,,,,,,,,,,72.01122250000117,0.011222500001167646,None,106.35674370000197,106.35674370000197,106.35674370000197,106.35674370000197,106.35674370000197,106.35674370000197,106.35674370000197,106.35674370000197,106.35674370000197,106.35674370000197,,008,P013,2025_Feb_08_1548,ConditionRich,2021.2.3,59.941293496726466,
72.75,73.0,41,0.0,Stimuli/Blank.png,0,0,0.0,0,138,138,138,,,,,,,,,,,,,72.76193090000015,0.011930900000152178,None,107.10747139999876,107.10747139999876,107.10747139999876,107.10747139999876,107.10747139999876,107.10747139999876,107.10747139999876,107.10747139999876,107.10747139999876,107.10747139999876,,008,P013,2025_Feb_08_1548,ConditionRich,2021.2.3,59.941293496726466,
73.0,73.75,28,0.75,Stimuli/P013/things_girl_07s.jpg,0,0,0.0,0,139,139,139,,,,,,,,,,,,,73.01430339999933,0.014303399999334943,None,107.3743359,107.3743359,107.3743359,107.3743359,107.3743359,107.3743359,107.3743359,107.3743359,107.3743359,107.3743359,,008,P013,2025_Feb_08_1548,ConditionRich,2021.2.3,59.941293496726466,
73.75,74.0,41,0.0,Stimuli/Blank.png,0,0,0.0,0,140,140,140,,,,,,,,,,,,,73.78011830000105,0.030118300001049647,None,108.14165969999885,108.14165969999885,108.14165969999885,108.14165969999885,108.14165969999885,108.14165969999885,108.14165969999885,108.14165969999885,108.14165969999885,108.14165969999885,,008,P013,2025_Feb_08_1548,ConditionRich,2021.2.3,59.941293496726466,
74.0,74.75,28,0.75,Stimuli/P013/things_girl_07s.jpg,0,0,0.0,0,141,141,141,,,,,,,,,,,,,74.03032979999989,0.030329799999890383,None,108.37520349999977,108.37520349999977,108.37520349999977,108.37520349999977,108.37520349999977,108.37520349999977,108.37520349999977,108.37520349999977,108.37520349999977,108.37520349999977,,008,P013,2025_Feb_08_1548,ConditionRich,2021.2.3,59.941293496726466,
74.75,75.0,41,0.0,Stimuli/Blank.png,0,0,0.0,0,142,142,142,,,,,,,,,,,,,74.76357319999806,0.013573199998063501,None,109.10918479999964,109.10918479999964,109.10918479999964,109.10918479999964,109.10918479999964,109.10918479999964,109.10918479999964,109.10918479999964,109.10918479999964,109.10918479999964,,008,P013,2025_Feb_08_1548,ConditionRich,2021.2.3,59.941293496726466,
75.0,75.75,28,0.75,Stimuli/P013/things_girl_07s.jpg,0,0,0.0,0,143,143,143,,,,,,,,,,,,,75.01470590000099,0.014705900000990368,None,109.37610499999937,109.37610499999937,109.37610499999937,109.37610499999937,109.37610499999937,109.37610499999937,109.37610499999937,109.37610499999937,109.37610499999937,109.37610499999937,,008,P013,2025_Feb_08_1548,ConditionRich,2021.2.3,59.941293496726466,
75.75,76.0,41,0.0,Stimuli/Blank.png,0,0,0.0,0,144,144,144,,,,,,,,,,,,,75.78131980000035,0.03131980000034673,None,110.12672450000173,110.12672450000173,110.12672450000173,110.12672450000173,110.12672450000173,110.12672450000173,110.12672450000173,110.12672450000173,110.12672450000173,110.12672450000173,,008,P013,2025_Feb_08_1548,ConditionRich,2021.2.3,59.941293496726466,
76.0,76.75,35,0.75,Stimuli/P013/things_road_sign_07s.jpg,1,0,0.75,0,145,145,145,,,,,,,,,,,,,76.01503740000044,0.015037400000437628,1,110.36029599999893,110.36029599999893,110.36029599999893,110.36029599999893,110.36029599999893,110.36029599999893,110.36029599999893,None,110.36029599999893,110.36029599999893,0.6042557999971905,008,P013,2025_Feb_08_1548,ConditionRich,2021.2.3,59.941293496726466,
76.75,77.0,41,0.0,Stimuli/Blank.png,0,0,0.0,0,146,146,146,,,,,,,,,,,,,76.75070159999814,0.0007015999981376808,None,111.09436170000117,111.09436170000117,111.09436170000117,111.09436170000117,111.09436170000117,111.09436170000117,111.09436170000117,111.09436170000117,111.09436170000117,111.09436170000117,,008,P013,2025_Feb_08_1548,ConditionRich,2021.2.3,59.941293496726466,
77.0,77.75,35,0.75,Stimuli/P013/things_road_sign_07s.jpg,0,0,0.0,0,147,147,147,,,,,,,,,,,,,77.00026050000088,0.00026050000087707303,None,111.36118709999937,111.36118709999937,111.36118709999937,111.36118709999937,111.36118709999937,111.36118709999937,111.36118709999937,111.36118709999937,111.36118709999937,111.36118709999937,,008,P013,2025_Feb_08_1548,ConditionRich,2021.2.3,59.941293496726466,
77.75,78.0,41,0.0,Stimuli/Blank.png,0,0,0.0,0,148,148,148,,,,,,,,,,,,,77.76629909999974,0.016299099999741884,None,112.1118286000019,112.1118286000019,112.1118286000019,112.1118286000019,112.1118286000019,112.1118286000019,112.1118286000019,112.1118286000019,112.1118286000019,112.1118286000019,,008,P013,2025_Feb_08_1548,ConditionRich,2021.2.3,59.941293496726466,
78.0,78.75,35,0.75,Stimuli/P013/things_road_sign_07s.jpg,0,0,0.0,0,149,149,149,,,,,,,,,,,,,78.00115079999887,0.001150799998868024,None,112.34560860000056,112.34560860000056,112.34560860000056,112.34560860000056,112.34560860000056,112.34560860000056,112.34560860000056,112.34560860000056,112.34560860000056,112.34560860000056,,008,P013,2025_Feb_08_1548,ConditionRich,2021.2.3,59.941293496726466,
78.75,79.0,41,0.0,Stimuli/Blank.png,0,0,0.0,0,150,150,150,,,,,,,,,,,,,78.75064460000067,0.0006446000006690156,None,113.09604010000112,113.09604010000112,113.09604010000112,113.09604010000112,113.09604010000112,113.09604010000112,113.09604010000112,113.09604010000112,113.09604010000112,113.09604010000112,,008,P013,2025_Feb_08_1548,ConditionRich,2021.2.3,59.941293496726466,
79.0,79.75,35,0.75,Stimuli/P013/things_road_sign_07s.jpg,0,0,0.0,0,151,151,151,,,,,,,,,,,,,79.000967699998,0.000967699998000171,None,113.36299639999925,113.36299639999925,113.36299639999925,113.36299639999925,113.36299639999925,113.36299639999925,113.36299639999925,113.36299639999925,113.36299639999925,113.36299639999925,,008,P013,2025_Feb_08_1548,ConditionRich,2021.2.3,59.941293496726466,
79.75,80.0,41,0.0,Stimuli/Blank.png,0,0,0.0,0,152,152,152,,,,,,,,,,,,,79.76903709999897,0.019037099998968188,None,114.11359970000194,114.11359970000194,114.11359970000194,114.11359970000194,114.11359970000194,114.11359970000194,114.11359970000194,114.11359970000194,114.11359970000194,114.11359970000194,,008,P013,2025_Feb_08_1548,ConditionRich,2021.2.3,59.941293496726466,
80.0,80.75,34,0.75,Stimuli/P013/things_radio_07s.jpg,0,0,0.0,0,153,153,153,,,,,,,,,,,,,80.00466959999903,0.00466959999903338,None,114.36383479999859,114.36383479999859,114.36383479999859,114.36383479999859,114.36383479999859,114.36383479999859,114.36383479999859,114.36383479999859,114.36383479999859,114.36383479999859,,008,P013,2025_Feb_08_1548,ConditionRich,2021.2.3,59.941293496726466,
80.75,81.0,41,0.0,Stimuli/Blank.png,0,0,0.0,0,154,154,154,,,,,,,,,,,,,80.76991700000144,0.01991700000144192,None,115.11448699999892,115.11448699999892,115.11448699999892,115.11448699999892,115.11448699999892,115.11448699999892,115.11448699999892,115.11448699999892,115.11448699999892,115.11448699999892,,008,P013,2025_Feb_08_1548,ConditionRich,2021.2.3,59.941293496726466,
81.0,81.75,34,0.75,Stimuli/P013/things_radio_07s.jpg,0,0,0.0,0,155,155,155,,,,,,,,,,,,,81.00525460000063,0.005254600000625942,None,115.36471170000004,115.36471170000004,115.36471170000004,115.36471170000004,115.36471170000004,115.36471170000004,115.36471170000004,115.36471170000004,115.36471170000004,115.36471170000004,,008,P013,2025_Feb_08_1548,ConditionRich,2021.2.3,59.941293496726466,
81.75,82.0,41,0.0,Stimuli/Blank.png,0,0,0.0,0,156,156,156,,,,,,,,,,,,,81.7699117000011,0.019911700001102872,None,116.11539059999996,116.11539059999996,116.11539059999996,116.11539059999996,116.11539059999996,116.11539059999996,116.11539059999996,116.11539059999996,116.11539059999996,116.11539059999996,,008,P013,2025_Feb_08_1548,ConditionRich,2021.2.3,59.941293496726466,
82.0,82.75,34,0.75,Stimuli/P013/things_radio_07s.jpg,0,0,0.0,0,157,157,157,,,,,,,,,,,,,82.0049743999989,0.004974399998900481,None,116.36560699999973,116.36560699999973,116.36560699999973,116.36560699999973,116.36560699999973,116.36560699999973,116.36560699999973,116.36560699999973,116.36560699999973,116.36560699999973,,008,P013,2025_Feb_08_1548,ConditionRich,2021.2.3,59.941293496726466,
82.75,83.0,41,0.0,Stimuli/Blank.png,0,0,0.0,0,158,158,158,,,,,,,,,,,,,82.77089479999995,0.02089479999995092,None,117.11626230000184,117.11626230000184,117.11626230000184,117.11626230000184,117.11626230000184,117.11626230000184,117.11626230000184,117.11626230000184,117.11626230000184,117.11626230000184,,008,P013,2025_Feb_08_1548,ConditionRich,2021.2.3,59.941293496726466,
83.0,83.75,34,0.75,Stimuli/P013/things_radio_07s.jpg,0,0,0.0,0,159,159,159,,,,,,,,,,,,,83.00501499999882,0.005014999998820713,None,117.34979250000106,117.34979250000106,117.34979250000106,117.34979250000106,117.34979250000106,117.34979250000106,117.34979250000106,117.34979250000106,117.34979250000106,117.34979250000106,,008,P013,2025_Feb_08_1548,ConditionRich,2021.2.3,59.941293496726466,
83.75,84.0,41,0.0,Stimuli/Blank.png,0,0,0.0,0,160,160,160,,,,,,,,,,,,,83.75528760000088,0.005287600000883685,None,118.10046320000038,118.10046320000038,118.10046320000038,118.10046320000038,118.10046320000038,118.10046320000038,118.10046320000038,118.10046320000038,118.10046320000038,118.10046320000038,,008,P013,2025_Feb_08_1548,ConditionRich,2021.2.3,59.941293496726466,
84.0,100.0,0,0.0,Stimuli/Blank.png,1,3,3.75,0,161,161,161,,,,,,,,,,,,,84.00612329999785,0.006123299997852882,1,118.35069060000023,118.35069060000023,118.35069060000023,118.35069060000023,118.35069060000023,118.35069060000023,121.33670379999967,122.08733420000135,118.35069060000023,118.35069060000023,3.466079099998751,008,P013,2025_Feb_08_1548,ConditionRich,2021.2.3,59.941293496726466,
100.0,100.75,25,0.75,Stimuli/P013/things_cashew_07s.jpg,0,0,0.0,0,162,162,162,,,,,,,,,,,,,100.00571860000127,0.005718600001273444,None,134.36484270000074,134.36484270000074,134.36484270000074,134.36484270000074,134.36484270000074,134.36484270000074,134.36484270000074,134.36484270000074,134.36484270000074,134.36484270000074,,008,P013,2025_Feb_08_1548,ConditionRich,2021.2.3,59.941293496726466,
100.75,101.0,41,0.0,Stimuli/Blank.png,0,0,0.0,0,163,163,163,,,,,,,,,,,,,100.77018250000037,0.020182500000373693,None,135.11551150000014,135.11551150000014,135.11551150000014,135.11551150000014,135.11551150000014,135.11551150000014,135.11551150000014,135.11551150000014,135.11551150000014,135.11551150000014,,008,P013,2025_Feb_08_1548,ConditionRich,2021.2.3,59.941293496726466,
101.0,101.75,25,0.75,Stimuli/P013/things_cashew_07s.jpg,0,0,0.0,0,164,164,164,,,,,,,,,,,,,101.00479439999981,0.004794399999809684,None,135.36575269999958,135.36575269999958,135.36575269999958,135.36575269999958,135.36575269999958,135.36575269999958,135.36575269999958,135.36575269999958,135.36575269999958,135.36575269999958,,008,P013,2025_Feb_08_1548,ConditionRich,2021.2.3,59.941293496726466,
101.75,102.0,41,0.0,Stimuli/Blank.png,0,0,0.0,0,165,165,165,,,,,,,,,,,,,101.77116029999888,0.021160299998882692,None,136.11640230000194,136.11640230000194,136.11640230000194,136.11640230000194,136.11640230000194,136.11640230000194,136.11640230000194,136.11640230000194,136.11640230000194,136.11640230000194,,008,P013,2025_Feb_08_1548,ConditionRich,2021.2.3,59.941293496726466,
102.0,102.75,25,0.75,Stimuli/P013/things_cashew_07s.jpg,0,0,0.0,0,166,166,166,,,,,,,,,,,,,102.00526909999826,0.005269099998258753,None,136.34990200000175,136.34990200000175,136.34990200000175,136.34990200000175,136.34990200000175,136.34990200000175,136.34990200000175,136.34990200000175,136.34990200000175,136.34990200000175,,008,P013,2025_Feb_08_1548,ConditionRich,2021.2.3,59.941293496726466,
102.75,103.0,41,0.0,Stimuli/Blank.png,0,0,0.0,0,167,167,167,,,,,,,,,,,,,102.7553470999992,0.00534709999919869,None,137.10062409999955,137.10062409999955,137.10062409999955,137.10062409999955,137.10062409999955,137.10062409999955,137.10062409999955,137.10062409999955,137.10062409999955,137.10062409999955,,008,P013,2025_Feb_08_1548,ConditionRich,2021.2.3,59.941293496726466,
103.0,103.75,25,0.75,Stimuli/P013/things_cashew_07s.jpg,0,0,0.0,0,168,168,168,,,,,,,,,,,,,103.00557739999931,0.005577399999310728,None,137.36753350000072,137.36753350000072,137.36753350000072,137.36753350000072,137.36753350000072,137.36753350000072,137.36753350000072,137.36753350000072,137.36753350000072,137.36753350000072,,008,P013,2025_Feb_08_1548,ConditionRich,2021.2.3,59.941293496726466,
103.75,104.0,41,0.0,Stimuli/Blank.png,0,0,0.0,0,169,169,169,,,,,,,,,,,,,103.77286629999799,0.02286629999798606,None,138.11823060000097,138.11823060000097,138.11823060000097,138.11823060000097,138.11823060000097,138.11823060000097,138.11823060000097,138.11823060000097,138.11823060000097,138.11823060000097,,008,P013,2025_Feb_08_1548,ConditionRich,2021.2.3,59.941293496726466,
104.0,104.75,31,0.75,Stimuli/P013/things_mask_07s.jpg,0,0,0.0,0,170,170,170,,,,,,,,,,,,,104.00719649999883,0.007196499998826766,None,138.36838440000065,138.36838440000065,138.36838440000065,138.36838440000065,138.36838440000065,138.36838440000065,138.36838440000065,138.36838440000065,138.36838440000065,138.36838440000065,,008,P013,2025_Feb_08_1548,ConditionRich,2021.2.3,59.941293496726466,
104.75,105.0,41,0.0,Stimuli/Blank.png,0,0,0.0,0,171,171,171,,,,,,,,,,,,,104.77417140000034,0.024171400000341237,None,139.11906570000065,139.11906570000065,139.11906570000065,139.11906570000065,139.11906570000065,139.11906570000065,139.11906570000065,139.11906570000065,139.11906570000065,139.11906570000065,,008,P013,2025_Feb_08_1548,ConditionRich,2021.2.3,59.941293496726466,
105.0,105.75,31,0.75,Stimuli/P013/things_mask_07s.jpg,0,0,0.0,0,172,172,172,,,,,,,,,,,,,105.0079982999996,0.007998299999599112,None,139.3526047000014,139.3526047000014,139.3526047000014,139.3526047000014,139.3526047000014,139.3526047000014,139.3526047000014,139.3526047000014,139.3526047000014,139.3526047000014,,008,P013,2025_Feb_08_1548,ConditionRich,2021.2.3,59.941293496726466,
105.75,106.0,41,0.0,Stimuli/Blank.png,0,0,0.0,0,173,173,173,,,,,,,,,,,,,105.75987220000025,0.009872200000245357,None,140.1199493000022,140.1199493000022,140.1199493000022,140.1199493000022,140.1199493000022,140.1199493000022,140.1199493000022,140.1199493000022,140.1199493000022,140.1199493000022,,008,P013,2025_Feb_08_1548,ConditionRich,2021.2.3,59.941293496726466,
106.0,106.75,31,0.75,Stimuli/P013/things_mask_07s.jpg,0,0,0.0,0,174,174,174,,,,,,,,,,,,,106.02475159999813,0.02475159999812604,None,140.370154799999,140.370154799999,140.370154799999,140.370154799999,140.370154799999,140.370154799999,140.370154799999,140.370154799999,140.370154799999,140.370154799999,,008,P013,2025_Feb_08_1548,ConditionRich,2021.2.3,59.941293496726466,
106.75,107.0,41,0.0,Stimuli/Blank.png,0,0,0.0,0,175,175,175,,,,,,,,,,,,,106.75929429999815,0.009294299998146016,None,141.10414479999963,141.10414479999963,141.10414479999963,141.10414479999963,141.10414479999963,141.10414479999963,141.10414479999963,141.10414479999963,141.10414479999963,141.10414479999963,,008,P013,2025_Feb_08_1548,ConditionRich,2021.2.3,59.941293496726466,
107.0,107.75,31,0.75,Stimuli/P013/things_mask_07s.jpg,0,0,0.0,0,176,176,176,,,,,,,,,,,,,107.00960739999937,0.009607399999367772,None,141.3710682000019,141.3710682000019,141.3710682000019,141.3710682000019,141.3710682000019,141.3710682000019,141.3710682000019,141.3710682000019,141.3710682000019,141.3710682000019,,008,P013,2025_Feb_08_1548,ConditionRich,2021.2.3,59.941293496726466,
107.75,108.0,41,0.0,Stimuli/Blank.png,0,0,0.0,0,177,177,177,,,,,,,,,,,,,107.77635549999832,0.0263554999983171,None,142.1216916000012,142.1216916000012,142.1216916000012,142.1216916000012,142.1216916000012,142.1216916000012,142.1216916000012,142.1216916000012,142.1216916000012,142.1216916000012,,008,P013,2025_Feb_08_1548,ConditionRich,2021.2.3,59.941293496726466,
108.0,108.75,1,0.75,Stimuli/P013/sun_adkmgqclfrkhfxbd.jpg,0,0,0.0,0,178,178,178,,,,,,,,,,,,,108.01081319999867,0.010813199998665368,None,142.35525290000078,142.35525290000078,142.35525290000078,142.35525290000078,142.35525290000078,142.35525290000078,142.35525290000078,142.35525290000078,142.35525290000078,142.35525290000078,,008,P013,2025_Feb_08_1548,ConditionRich,2021.2.3,59.941293496726466,
108.75,109.0,41,0.0,Stimuli/Blank.png,0,0,0.0,0,179,179,179,,,,,,,,,,,,,108.76119530000142,0.011195300001418218,None,143.10592030000043,143.10592030000043,143.10592030000043,143.10592030000043,143.10592030000043,143.10592030000043,143.10592030000043,143.10592030000043,143.10592030000043,143.10592030000043,,008,P013,2025_Feb_08_1548,ConditionRich,2021.2.3,59.941293496726466,
109.0,109.75,1,0.75,Stimuli/P013/sun_adkmgqclfrkhfxbd.jpg,0,0,0.0,0,180,180,180,,,,,,,,,,,,,109.01089769999817,0.010897699998167809,None,143.35611459999927,143.35611459999927,143.35611459999927,143.35611459999927,143.35611459999927,143.35611459999927,143.35611459999927,143.35611459999927,143.35611459999927,143.35611459999927,,008,P013,2025_Feb_08_1548,ConditionRich,2021.2.3,59.941293496726466,
109.75,110.0,41,0.0,Stimuli/Blank.png,0,0,0.0,0,181,181,181,,,,,,,,,,,,,109.76187059999938,0.011870599999383558,None,144.10688200000004,144.10688200000004,144.10688200000004,144.10688200000004,144.10688200000004,144.10688200000004,144.10688200000004,144.10688200000004,144.10688200000004,144.10688200000004,,008,P013,2025_Feb_08_1548,ConditionRich,2021.2.3,59.941293496726466,
110.0,110.75,1,0.75,Stimuli/P013/sun_adkmgqclfrkhfxbd.jpg,0,0,0.0,0,182,182,182,,,,,,,,,,,,,110.01204430000143,0.012044300001434749,None,144.3737313999991,144.3737313999991,144.3737313999991,144.3737313999991,144.3737313999991,144.3737313999991,144.3737313999991,144.3737313999991,144.3737313999991,144.3737313999991,,008,P013,2025_Feb_08_1548,ConditionRich,2021.2.3,59.941293496726466,
110.75,111.0,41,0.0,Stimuli/Blank.png,0,0,0.0,0,183,183,183,,,,,,,,,,,,,110.77974660000109,0.029746600001089973,None,145.12437150000187,145.12437150000187,145.12437150000187,145.12437150000187,145.12437150000187,145.12437150000187,145.12437150000187,145.12437150000187,145.12437150000187,145.12437150000187,,008,P013,2025_Feb_08_1548,ConditionRich,2021.2.3,59.941293496726466,
111.0,111.75,1,0.75,Stimuli/P013/sun_adkmgqclfrkhfxbd.jpg,0,0,0.0,0,184,184,184,,,,,,,,,,,,,111.01540269999896,0.01540269999895827,None,145.37458530000004,145.37458530000004,145.37458530000004,145.37458530000004,145.37458530000004,145.37458530000004,145.37458530000004,145.37458530000004,145.37458530000004,145.37458530000004,,008,P013,2025_Feb_08_1548,ConditionRich,2021.2.3,59.941293496726466,
111.75,112.0,41,0.0,Stimuli/Blank.png,0,0,0.0,0,185,185,185,,,,,,,,,,,,,111.76444959999935,0.014449599999352358,None,146.10858970000118,146.10858970000118,146.10858970000118,146.10858970000118,146.10858970000118,146.10858970000118,146.10858970000118,146.10858970000118,146.10858970000118,146.10858970000118,,008,P013,2025_Feb_08_1548,ConditionRich,2021.2.3,59.941293496726466,
112.0,112.75,29,0.75,Stimuli/P013/things_iguana_07s.jpg,0,0,0.0,0,186,186,186,,,,,,,,,,,,,112.01384390000021,0.013843900000210851,None,146.3754513999993,146.3754513999993,146.3754513999993,146.3754513999993,146.3754513999993,146.3754513999993,146.3754513999993,146.3754513999993,146.3754513999993,146.3754513999993,,008,P013,2025_Feb_08_1548,ConditionRich,2021.2.3,59.941293496726466,
112.75,113.0,41,0.0,Stimuli/Blank.png,0,0,0.0,0,187,187,187,,,,,,,,,,,,,112.78121760000067,0.031217600000672974,None,147.1273003999995,147.1273003999995,147.1273003999995,147.1273003999995,147.1273003999995,147.1273003999995,147.1273003999995,147.1273003999995,147.1273003999995,147.1273003999995,,008,P013,2025_Feb_08_1548,ConditionRich,2021.2.3,59.941293496726466,
113.0,113.75,29,0.75,Stimuli/P013/things_iguana_07s.jpg,0,0,0.0,0,188,188,188,,,,,,,,,,,,,113.01584709999952,0.015847099999518832,None,147.37643020000178,147.37643020000178,147.37643020000178,147.37643020000178,147.37643020000178,147.37643020000178,147.37643020000178,147.37643020000178,147.37643020000178,147.37643020000178,,008,P013,2025_Feb_08_1548,ConditionRich,2021.2.3,59.941293496726466,
113.75,114.0,41,0.0,Stimuli/Blank.png,0,0,0.0,0,189,189,189,,,,,,,,,,,,,113.76491170000008,0.014911700000084238,None,148.1103503000013,148.1103503000013,148.1103503000013,148.1103503000013,148.1103503000013,148.1103503000013,148.1103503000013,148.1103503000013,148.1103503000013,148.1103503000013,,008,P013,2025_Feb_08_1548,ConditionRich,2021.2.3,59.941293496726466,
114.0,114.75,29,0.75,Stimuli/P013/things_iguana_07s.jpg,0,0,0.0,0,190,190,190,,,,,,,,,,,,,114.01584970000113,0.01584970000112662,None,148.36056610000014,148.36056610000014,148.36056610000014,148.36056610000014,148.36056610000014,148.36056610000014,148.36056610000014,148.36056610000014,148.36056610000014,148.36056610000014,,008,P013,2025_Feb_08_1548,ConditionRich,2021.2.3,59.941293496726466,
114.75,115.0,41,0.0,Stimuli/Blank.png,0,0,0.0,0,191,191,191,,,,,,,,,,,,,114.75000499999805,4.999998054699972e-06,None,149.09456190000128,149.09456190000128,149.09456190000128,149.09456190000128,149.09456190000128,149.09456190000128,149.09456190000128,149.09456190000128,149.09456190000128,149.09456190000128,,008,P013,2025_Feb_08_1548,ConditionRich,2021.2.3,59.941293496726466,
115.0,115.75,29,0.75,Stimuli/P013/things_iguana_07s.jpg,0,0,0.0,0,192,192,192,,,,,,,,,,,,,115.00005059999967,5.059999966761097e-05,None,149.36196589999963,149.36196589999963,149.36196589999963,149.36196589999963,149.36196589999963,149.36196589999963,149.36196589999963,149.36196589999963,149.36196589999963,149.36196589999963,,008,P013,2025_Feb_08_1548,ConditionRich,2021.2.3,59.941293496726466,
115.75,116.0,41,0.0,Stimuli/Blank.png,0,0,0.0,0,193,193,193,,,,,,,,,,,,,115.76997769999798,0.01997769999798038,None,150.12880990000122,150.12880990000122,150.12880990000122,150.12880990000122,150.12880990000122,150.12880990000122,150.12880990000122,150.12880990000122,150.12880990000122,150.12880990000122,,008,P013,2025_Feb_08_1548,ConditionRich,2021.2.3,59.941293496726466,
116.0,116.75,17,0.75,Stimuli/P013/sun_bsguftphqnrkbedw.jpg,1,0,0.75,0,194,194,194,,,,,,,,,,,,,116.01775099999941,0.017750999999407213,1,150.37898620000124,150.37898620000124,150.37898620000124,150.37898620000124,150.37898620000124,150.37898620000124,150.37898620000124,151.0963503999992,150.37898620000124,150.37898620000124,0.35952350000297884,008,P013,2025_Feb_08_1548,ConditionRich,2021.2.3,59.941293496726466,
116.75,117.0,41,0.0,Stimuli/Blank.png,0,0,0.0,0,195,195,195,,,,,,,,,,,,,116.76973879999787,0.019738799997867318,None,151.12969560000056,151.12969560000056,151.12969560000056,151.12969560000056,151.12969560000056,151.12969560000056,151.12969560000056,151.12969560000056,151.12969560000056,151.12969560000056,,008,P013,2025_Feb_08_1548,ConditionRich,2021.2.3,59.941293496726466,
117.0,117.75,17,0.75,Stimuli/P013/sun_bsguftphqnrkbedw.jpg,0,0,0.0,0,196,196,196,,,,,,,,,,,,,117.02024429999801,0.02024429999801214,None,151.37992189999932,151.37992189999932,151.37992189999932,151.37992189999932,151.37992189999932,151.37992189999932,151.37992189999932,151.37992189999932,151.37992189999932,151.37992189999932,,008,P013,2025_Feb_08_1548,ConditionRich,2021.2.3,59.941293496726466,
117.75,118.0,41,0.0,Stimuli/Blank.png,0,0,0.0,0,197,197,197,,,,,,,,,,,,,117.76903149999998,0.01903149999998277,None,152.11387420000028,152.11387420000028,152.11387420000028,152.11387420000028,152.11387420000028,152.11387420000028,152.11387420000028,152.11387420000028,152.11387420000028,152.11387420000028,,008,P013,2025_Feb_08_1548,ConditionRich,2021.2.3,59.941293496726466,
118.0,118.75,17,0.75,Stimuli/P013/sun_bsguftphqnrkbedw.jpg,0,0,0.0,0,198,198,198,,,,,,,,,,,,,118.00205079999796,0.0020507999979599845,None,152.3641095000021,152.3641095000021,152.3641095000021,152.3641095000021,152.3641095000021,152.3641095000021,152.3641095000021,152.3641095000021,152.3641095000021,152.3641095000021,,008,P013,2025_Feb_08_1548,ConditionRich,2021.2.3,59.941293496726466,
118.75,119.0,41,0.0,Stimuli/Blank.png,0,0,0.0,0,199,199,199,,,,,,,,,,,,,118.77001069999824,0.020010699998238124,None,153.11476680000123,153.11476680000123,153.11476680000123,153.11476680000123,153.11476680000123,153.11476680000123,153.11476680000123,153.11476680000123,153.11476680000123,153.11476680000123,,008,P013,2025_Feb_08_1548,ConditionRich,2021.2.3,59.941293496726466,
119.0,119.75,17,0.75,Stimuli/P013/sun_bsguftphqnrkbedw.jpg,0,0,0.0,0,200,200,200,,,,,,,,,,,,,119.00391949999903,0.0039194999990286306,None,153.3649914000016,153.3649914000016,153.3649914000016,153.3649914000016,153.3649914000016,153.3649914000016,153.3649914000016,153.3649914000016,153.3649914000016,153.3649914000016,,008,P013,2025_Feb_08_1548,ConditionRich,2021.2.3,59.941293496726466,
119.75,120.0,41,0.0,Stimuli/Blank.png,0,0,0.0,0,201,201,201,,,,,,,,,,,,,119.77010399999926,0.020103999999264488,None,154.11565469999914,154.11565469999914,154.11565469999914,154.11565469999914,154.11565469999914,154.11565469999914,154.11565469999914,154.11565469999914,154.11565469999914,154.11565469999914,,008,P013,2025_Feb_08_1548,ConditionRich,2021.2.3,59.941293496726466,
120.0,120.75,24,0.75,Stimuli/P013/things_bungee_07s.jpg,0,0,0.0,0,202,202,202,,,,,,,,,,,,,120.00410059999922,0.004100599999219412,None,154.34915600000022,154.34915600000022,154.34915600000022,154.34915600000022,154.34915600000022,154.34915600000022,154.34915600000022,154.34915600000022,154.34915600000022,154.34915600000022,,008,P013,2025_Feb_08_1548,ConditionRich,2021.2.3,59.941293496726466,
120.75,121.0,41,0.0,Stimuli/Blank.png,0,0,0.0,0,203,203,203,,,,,,,,,,,,,120.75568479999856,0.0056847999985620845,None,155.09986600000047,155.09986600000047,155.09986600000047,155.09986600000047,155.09986600000047,155.09986600000047,155.09986600000047,155.09986600000047,155.09986600000047,155.09986600000047,,008,P013,2025_Feb_08_1548,ConditionRich,2021.2.3,59.941293496726466,
121.0,121.75,24,0.75,Stimuli/P013/things_bungee_07s.jpg,0,0,0.0,0,204,204,204,,,,,,,,,,,,,121.00549609999871,0.005496099998708814,None,155.35011529999974,155.35011529999974,155.35011529999974,155.35011529999974,155.35011529999974,155.35011529999974,155.35011529999974,155.35011529999974,155.35011529999974,155.35011529999974,,008,P013,2025_Feb_08_1548,ConditionRich,2021.2.3,59.941293496726466,
121.75,122.0,41,0.0,Stimuli/Blank.png,0,0,0.0,0,205,205,205,,,,,,,,,,,,,121.75550490000023,0.0055049000002327375,None,156.10073639999973,156.10073639999973,156.10073639999973,156.10073639999973,156.10073639999973,156.10073639999973,156.10073639999973,156.10073639999973,156.10073639999973,156.10073639999973,,008,P013,2025_Feb_08_1548,ConditionRich,2021.2.3,59.941293496726466,
122.0,122.75,24,0.75,Stimuli/P013/things_bungee_07s.jpg,0,0,0.0,0,206,206,206,,,,,,,,,,,,,122.00557430000117,0.00557430000117165,None,156.3509726000011,156.3509726000011,156.3509726000011,156.3509726000011,156.3509726000011,156.3509726000011,156.3509726000011,156.3509726000011,156.3509726000011,156.3509726000011,,008,P013,2025_Feb_08_1548,ConditionRich,2021.2.3,59.941293496726466,
122.75,123.0,41,0.0,Stimuli/Blank.png,0,0,0.0,0,207,207,207,,,,,,,,,,,,,122.75689140000031,0.006891400000313297,None,157.1016238000011,157.1016238000011,157.1016238000011,157.1016238000011,157.1016238000011,157.1016238000011,157.1016238000011,157.1016238000011,157.1016238000011,157.1016238000011,,008,P013,2025_Feb_08_1548,ConditionRich,2021.2.3,59.941293496726466,
123.0,123.75,24,0.75,Stimuli/P013/things_bungee_07s.jpg,0,0,0.0,0,208,208,208,,,,,,,,,,,,,123.00713189999806,0.007131899998057634,None,157.35186170000088,157.35186170000088,157.35186170000088,157.35186170000088,157.35186170000088,157.35186170000088,157.35186170000088,157.35186170000088,157.35186170000088,157.35186170000088,,008,P013,2025_Feb_08_1548,ConditionRich,2021.2.3,59.941293496726466,
123.75,124.0,41,0.0,Stimuli/Blank.png,0,0,0.0,0,209,209,209,,,,,,,,,,,,,123.75955179999801,0.009551799998007482,None,158.11920190000092,158.11920190000092,158.11920190000092,158.11920190000092,158.11920190000092,158.11920190000092,158.11920190000092,158.11920190000092,158.11920190000092,158.11920190000092,,008,P013,2025_Feb_08_1548,ConditionRich,2021.2.3,59.941293496726466,
124.0,124.75,12,0.75,Stimuli/P013/sun_bjyrrxiwsnbmkbqs.jpg,0,0,0.0,0,210,210,210,,,,,,,,,,,,,124.0239376999998,0.023937699999805773,None,158.36942360000103,158.36942360000103,158.36942360000103,158.36942360000103,158.36942360000103,158.36942360000103,158.36942360000103,158.36942360000103,158.36942360000103,158.36942360000103,,008,P013,2025_Feb_08_1548,ConditionRich,2021.2.3,59.941293496726466,
124.75,125.0,41,0.0,Stimuli/Blank.png,0,0,0.0,0,211,211,211,,,,,,,,,,,,,124.75815969999894,0.008159699998941505,None,159.10340500000166,159.10340500000166,159.10340500000166,159.10340500000166,159.10340500000166,159.10340500000166,159.10340500000166,159.10340500000166,159.10340500000166,159.10340500000166,,008,P013,2025_Feb_08_1548,ConditionRich,2021.2.3,59.941293496726466,
125.0,125.75,12,0.75,Stimuli/P013/sun_bjyrrxiwsnbmkbqs.jpg,0,0,0.0,0,212,212,212,,,,,,,,,,,,,125.00887429999784,0.008874299997842172,None,159.3703303000002,159.3703303000002,159.3703303000002,159.3703303000002,159.3703303000002,159.3703303000002,159.3703303000002,159.3703303000002,159.3703303000002,159.3703303000002,,008,P013,2025_Feb_08_1548,ConditionRich,2021.2.3,59.941293496726466,
125.75,126.0,41,0.0,Stimuli/Blank.png,0,0,0.0,0,213,213,213,,,,,,,,,,,,,125.77561200000127,0.025612000001274282,None,160.12096960000054,160.12096960000054,160.12096960000054,160.12096960000054,160.12096960000054,160.12096960000054,160.12096960000054,160.12096960000054,160.12096960000054,160.12096960000054,,008,P013,2025_Feb_08_1548,ConditionRich,2021.2.3,59.941293496726466,
126.0,126.75,12,0.75,Stimuli/P013/sun_bjyrrxiwsnbmkbqs.jpg,0,0,0.0,0,214,214,214,,,,,,,,,,,,,126.00901030000023,0.00901030000022729,None,160.3545051000001,160.3545051000001,160.3545051000001,160.3545051000001,160.3545051000001,160.3545051000001,160.3545051000001,160.3545051000001,160.3545051000001,160.3545051000001,,008,P013,2025_Feb_08_1548,ConditionRich,2021.2.3,59.941293496726466,
126.75,127.0,41,0.0,Stimuli/Blank.png,0,0,0.0,0,215,215,215,,,,,,,,,,,,,126.76049689999854,0.010496899998543086,None,161.1051694000016,161.1051694000016,161.1051694000016,161.1051694000016,161.1051694000016,161.1051694000016,161.1051694000016,161.1051694000016,161.1051694000016,161.1051694000016,,008,P013,2025_Feb_08_1548,ConditionRich,2021.2.3,59.941293496726466,
127.0,127.75,12,0.75,Stimuli/P013/sun_bjyrrxiwsnbmkbqs.jpg,0,0,0.0,0,216,216,216,,,,,,,,,,,,,127.0100437000001,0.010043700000096578,None,161.3553976000003,161.3553976000003,161.3553976000003,161.3553976000003,161.3553976000003,161.3553976000003,161.3553976000003,161.3553976000003,161.3553976000003,161.3553976000003,,008,P013,2025_Feb_08_1548,ConditionRich,2021.2.3,59.941293496726466,
127.75,128.0,41,0.0,Stimuli/Blank.png,0,0,0.0,0,217,217,217,,,,,,,,,,,,,127.76059420000092,0.010594200000923593,None,162.10607059999893,162.10607059999893,162.10607059999893,162.10607059999893,162.10607059999893,162.10607059999893,162.10607059999893,162.10607059999893,162.10607059999893,162.10607059999893,,008,P013,2025_Feb_08_1548,ConditionRich,2021.2.3,59.941293496726466,
128.0,128.75,19,0.75,Stimuli/P013/sun_buphlelowxjnoygy.jpg,0,0,0.0,0,218,218,218,,,,,,,,,,,,,128.01148979999925,0.011489799999253592,None,162.35628150000048,162.35628150000048,162.35628150000048,162.35628150000048,162.35628150000048,162.35628150000048,162.35628150000048,162.35628150000048,162.35628150000048,162.35628150000048,,008,P013,2025_Feb_08_1548,ConditionRich,2021.2.3,59.941293496726466,
128.75,129.0,41,0.0,Stimuli/Blank.png,0,0,0.0,0,219,219,219,,,,,,,,,,,,,128.7614579000001,0.011457900000095833,None,163.1069462000014,163.1069462000014,163.1069462000014,163.1069462000014,163.1069462000014,163.1069462000014,163.1069462000014,163.1069462000014,163.1069462000014,163.1069462000014,,008,P013,2025_Feb_08_1548,ConditionRich,2021.2.3,59.941293496726466,
129.0,129.75,19,0.75,Stimuli/P013/sun_buphlelowxjnoygy.jpg,0,0,0.0,0,220,220,220,,,,,,,,,,,,,129.01472139999896,0.014721399998961715,None,163.37386089999927,163.37386089999927,163.37386089999927,163.37386089999927,163.37386089999927,163.37386089999927,163.37386089999927,163.37386089999927,163.37386089999927,163.37386089999927,,008,P013,2025_Feb_08_1548,ConditionRich,2021.2.3,59.941293496726466,
129.75,130.0,41,0.0,Stimuli/Blank.png,0,0,0.0,0,221,221,221,,,,,,,,,,,,,129.77986560000136,0.02986560000135796,None,164.12447999999858,164.12447999999858,164.12447999999858,164.12447999999858,164.12447999999858,164.12447999999858,164.12447999999858,164.12447999999858,164.12447999999858,164.12447999999858,,008,P013,2025_Feb_08_1548,ConditionRich,2021.2.3,59.941293496726466,
130.0,130.75,19,0.75,Stimuli/P013/sun_buphlelowxjnoygy.jpg,0,0,0.0,0,222,222,222,,,,,,,,,,,,,130.0146335999998,0.014633599999797298,None,164.37474940000175,164.37474940000175,164.37474940000175,164.37474940000175,164.37474940000175,164.37474940000175,164.37474940000175,164.37474940000175,164.37474940000175,164.37474940000175,,008,P013,2025_Feb_08_1548,ConditionRich,2021.2.3,59.941293496726466,
130.75,131.0,41,0.0,Stimuli/Blank.png,0,0,0.0,0,223,223,223,,,,,,,,,,,,,130.78054799999882,0.030547999998816522,None,165.1253910000014,165.1253910000014,165.1253910000014,165.1253910000014,165.1253910000014,165.1253910000014,165.1253910000014,165.1253910000014,165.1253910000014,165.1253910000014,,008,P013,2025_Feb_08_1548,ConditionRich,2021.2.3,59.941293496726466,
131.0,131.75,19,0.75,Stimuli/P013/sun_buphlelowxjnoygy.jpg,0,0,0.0,0,224,224,224,,,,,,,,,,,,,131.01361420000103,0.01361420000102953,None,165.3602276999991,165.3602276999991,165.3602276999991,165.3602276999991,165.3602276999991,165.3602276999991,165.3602276999991,165.3602276999991,165.3602276999991,165.3602276999991,,008,P013,2025_Feb_08_1548,ConditionRich,2021.2.3,59.941293496726466,
131.75,132.0,41,0.0,Stimuli/Blank.png,0,0,0.0,0,225,225,225,,,,,,,,,,,,,131.76518990000113,0.015189900001132628,None,166.1096018999997,166.1096018999997,166.1096018999997,166.1096018999997,166.1096018999997,166.1096018999997,166.1096018999997,166.1096018999997,166.1096018999997,166.1096018999997,,008,P013,2025_Feb_08_1548,ConditionRich,2021.2.3,59.941293496726466,
132.0,132.75,8,0.75,Stimuli/P013/sun_auqrilekgmdmrncq.jpg,0,0,0.0,0,226,226,226,,,,,,,,,,,,,132.0151439000001,0.015143900000111898,None,166.35981729999912,166.35981729999912,166.35981729999912,166.35981729999912,166.35981729999912,166.35981729999912,166.35981729999912,166.35981729999912,166.35981729999912,166.35981729999912,,008,P013,2025_Feb_08_1548,ConditionRich,2021.2.3,59.941293496726466,
132.75,133.0,41,0.0,Stimuli/Blank.png,0,0,0.0,0,227,227,227,,,,,,,,,,,,,132.74912340000083,-0.0008765999991737772,None,167.0938038000022,167.0938038000022,167.0938038000022,167.0938038000022,167.0938038000022,167.0938038000022,167.0938038000022,167.0938038000022,167.0938038000022,167.0938038000022,,008,P013,2025_Feb_08_1548,ConditionRich,2021.2.3,59.941293496726466,
133.0,133.75,8,0.75,Stimuli/P013/sun_auqrilekgmdmrncq.jpg,0,0,0.0,0,228,228,228,,,,,,,,,,,,,132.99972519999938,-0.000274800000624964,None,167.3607202000021,167.3607202000021,167.3607202000021,167.3607202000021,167.3607202000021,167.3607202000021,167.3607202000021,167.3607202000021,167.3607202000021,167.3607202000021,,008,P013,2025_Feb_08_1548,ConditionRich,2021.2.3,59.941293496726466,
133.75,134.0,41,0.0,Stimuli/Blank.png,0,0,0.0,0,229,229,229,,,,,,,,,,,,,133.76655949999986,0.016559499999857508,None,168.1125361000013,168.1125361000013,168.1125361000013,168.1125361000013,168.1125361000013,168.1125361000013,168.1125361000013,168.1125361000013,168.1125361000013,168.1125361000013,,008,P013,2025_Feb_08_1548,ConditionRich,2021.2.3,59.941293496726466,
134.0,134.75,8,0.75,Stimuli/P013/sun_auqrilekgmdmrncq.jpg,0,0,0.0,0,230,230,230,,,,,,,,,,,,,134.01678769999853,0.016787699998531025,None,168.3615888000022,168.3615888000022,168.3615888000022,168.3615888000022,168.3615888000022,168.3615888000022,168.3615888000022,168.3615888000022,168.3615888000022,168.3615888000022,,008,P013,2025_Feb_08_1548,ConditionRich,2021.2.3,59.941293496726466,
134.75,135.0,41,0.0,Stimuli/Blank.png,0,0,0.0,0,231,231,231,,,,,,,,,,,,,134.75005569999848,5.569999848376028e-05,None,169.09557010000208,169.09557010000208,169.09557010000208,169.09557010000208,169.09557010000208,169.09557010000208,169.09557010000208,169.09557010000208,169.09557010000208,169.09557010000208,,008,P013,2025_Feb_08_1548,ConditionRich,2021.2.3,59.941293496726466,
135.0,135.75,8,0.75,Stimuli/P013/sun_auqrilekgmdmrncq.jpg,0,0,0.0,0,232,232,232,,,,,,,,,,,,,135.00042630000098,0.00042630000098142773,None,169.345762500001,169.345762500001,169.345762500001,169.345762500001,169.345762500001,169.345762500001,169.345762500001,169.345762500001,169.345762500001,169.345762500001,,008,P013,2025_Feb_08_1548,ConditionRich,2021.2.3,59.941293496726466,
135.75,136.0,41,0.0,Stimuli/Blank.png,0,0,0.0,0,233,233,233,,,,,,,,,,,,,135.75161619999926,0.0016161999992618803,None,170.09646179999982,170.09646179999982,170.09646179999982,170.09646179999982,170.09646179999982,170.09646179999982,170.09646179999982,170.09646179999982,170.09646179999982,170.09646179999982,,008,P013,2025_Feb_08_1548,ConditionRich,2021.2.3,59.941293496726466,
136.0,136.75,14,0.75,Stimuli/P013/sun_bqhfterhwnqrbnzg.jpg,0,0,0.0,0,234,234,234,,,,,,,,,,,,,136.0043884000006,0.004388400000607362,None,170.36335709999912,170.36335709999912,170.36335709999912,170.36335709999912,170.36335709999912,170.36335709999912,170.36335709999912,170.36335709999912,170.36335709999912,170.36335709999912,,008,P013,2025_Feb_08_1548,ConditionRich,2021.2.3,59.941293496726466,
136.75,137.0,41,0.0,Stimuli/Blank.png,0,0,0.0,0,235,235,235,,,,,,,,,,,,,136.769187599999,0.019187599998986116,None,171.11403920000157,171.11403920000157,171.11403920000157,171.11403920000157,171.11403920000157,171.11403920000157,171.11403920000157,171.11403920000157,171.11403920000157,171.11403920000157,,008,P013,2025_Feb_08_1548,ConditionRich,2021.2.3,59.941293496726466,
137.0,137.75,14,0.75,Stimuli/P013/sun_bqhfterhwnqrbnzg.jpg,0,0,0.0,0,236,236,236,,,,,,,,,,,,,137.0042598,0.004259799999999814,None,171.36424859999897,171.36424859999897,171.36424859999897,171.36424859999897,171.36424859999897,171.36424859999897,171.36424859999897,171.36424859999897,171.36424859999897,171.36424859999897,,008,P013,2025_Feb_08_1548,ConditionRich,2021.2.3,59.941293496726466,
137.75,138.0,41,0.0,Stimuli/Blank.png,0,0,0.0,0,237,237,237,,,,,,,,,,,,,137.77085449999868,0.020854499998677056,None,172.11492740000176,172.11492740000176,172.11492740000176,172.11492740000176,172.11492740000176,172.11492740000176,172.11492740000176,172.11492740000176,172.11492740000176,172.11492740000176,,008,P013,2025_Feb_08_1548,ConditionRich,2021.2.3,59.941293496726466,
138.0,138.75,14,0.75,Stimuli/P013/sun_bqhfterhwnqrbnzg.jpg,0,0,0.0,0,238,238,238,,,,,,,,,,,,,138.00425130000076,0.004251300000760239,None,172.3651295999989,172.3651295999989,172.3651295999989,172.3651295999989,172.3651295999989,172.3651295999989,172.3651295999989,172.3651295999989,172.3651295999989,172.3651295999989,,008,P013,2025_Feb_08_1548,ConditionRich,2021.2.3,59.941293496726466,
138.75,139.0,41,0.0,Stimuli/Blank.png,0,0,0.0,0,239,239,239,,,,,,,,,,,,,138.77043499999854,0.02043499999854248,None,173.11676879999868,173.11676879999868,173.11676879999868,173.11676879999868,173.11676879999868,173.11676879999868,173.11676879999868,173.11676879999868,173.11676879999868,173.11676879999868,,008,P013,2025_Feb_08_1548,ConditionRich,2021.2.3,59.941293496726466,
139.0,139.75,14,0.75,Stimuli/P013/sun_bqhfterhwnqrbnzg.jpg,0,0,0.0,0,240,240,240,,,,,,,,,,,,,139.00493260000076,0.004932600000756793,None,173.3660568000014,173.3660568000014,173.3660568000014,173.3660568000014,173.3660568000014,173.3660568000014,173.3660568000014,173.3660568000014,173.3660568000014,173.3660568000014,,008,P013,2025_Feb_08_1548,ConditionRich,2021.2.3,59.941293496726466,
139.75,140.0,41,0.0,Stimuli/Blank.png,0,0,0.0,0,241,241,241,,,,,,,,,,,,,139.77197429999796,0.021974299997964408,None,174.11669210000036,174.11669210000036,174.11669210000036,174.11669210000036,174.11669210000036,174.11669210000036,174.11669210000036,174.11669210000036,174.11669210000036,174.11669210000036,,008,P013,2025_Feb_08_1548,ConditionRich,2021.2.3,59.941293496726466,
140.0,140.75,22,0.75,Stimuli/P013/things_banner_07s.jpg,0,0,0.0,0,242,242,242,,,,,,,,,,,,,140.00531330000013,0.0053133000001253095,None,174.3501913,174.3501913,174.3501913,174.3501913,174.3501913,174.3501913,174.3501913,174.3501913,174.3501913,174.3501913,,008,P013,2025_Feb_08_1548,ConditionRich,2021.2.3,59.941293496726466,
140.75,141.0,41,0.0,Stimuli/Blank.png,0,0,0.0,0,243,243,243,,,,,,,,,,,,,140.75620450000133,0.006204500001331326,None,175.1008569000005,175.1008569000005,175.1008569000005,175.1008569000005,175.1008569000005,175.1008569000005,175.1008569000005,175.1008569000005,175.1008569000005,175.1008569000005,,008,P013,2025_Feb_08_1548,ConditionRich,2021.2.3,59.941293496726466,
141.0,141.75,22,0.75,Stimuli/P013/things_banner_07s.jpg,0,0,0.0,0,244,244,244,,,,,,,,,,,,,141.00685560000056,0.006855600000562845,None,175.36778350000168,175.36778350000168,175.36778350000168,175.36778350000168,175.36778350000168,175.36778350000168,175.36778350000168,175.36778350000168,175.36778350000168,175.36778350000168,,008,P013,2025_Feb_08_1548,ConditionRich,2021.2.3,59.941293496726466,
141.75,142.0,41,0.0,Stimuli/Blank.png,0,0,0.0,0,245,245,245,,,,,,,,,,,,,141.7745060999987,0.024506099998689024,None,176.118457200002,176.118457200002,176.118457200002,176.118457200002,176.118457200002,176.118457200002,176.118457200002,176.118457200002,176.118457200002,176.118457200002,,008,P013,2025_Feb_08_1548,ConditionRich,2021.2.3,59.941293496726466,
142.0,142.75,22,0.75,Stimuli/P013/things_banner_07s.jpg,0,0,0.0,0,246,246,246,,,,,,,,,,,,,142.00778069999797,0.007780699997965712,None,176.36867279999933,176.36867279999933,176.36867279999933,176.36867279999933,176.36867279999933,176.36867279999933,176.36867279999933,176.36867279999933,176.36867279999933,176.36867279999933,,008,P013,2025_Feb_08_1548,ConditionRich,2021.2.3,59.941293496726466,
142.75,143.0,41,0.0,Stimuli/Blank.png,0,0,0.0,0,247,247,247,,,,,,,,,,,,,142.77468539999973,0.024685399999725632,None,177.11936069999865,177.11936069999865,177.11936069999865,177.11936069999865,177.11936069999865,177.11936069999865,177.11936069999865,177.11936069999865,177.11936069999865,177.11936069999865,,008,P013,2025_Feb_08_1548,ConditionRich,2021.2.3,59.941293496726466,
143.0,143.75,22,0.75,Stimuli/P013/things_banner_07s.jpg,0,0,0.0,0,248,248,248,,,,,,,,,,,,,143.0096212999997,0.009621299999707844,None,177.36955730000045,177.36955730000045,177.36955730000045,177.36955730000045,177.36955730000045,177.36955730000045,177.36955730000045,177.36955730000045,177.36955730000045,177.36955730000045,,008,P013,2025_Feb_08_1548,ConditionRich,2021.2.3,59.941293496726466,
143.75,144.0,41,0.0,Stimuli/Blank.png,0,0,0.0,0,249,249,249,,,,,,,,,,,,,143.77578309999808,0.025783099998079706,None,178.12022079999952,178.12022079999952,178.12022079999952,178.12022079999952,178.12022079999952,178.12022079999952,178.12022079999952,178.12022079999952,178.12022079999952,178.12022079999952,,008,P013,2025_Feb_08_1548,ConditionRich,2021.2.3,59.941293496726466,
144.0,144.75,9,0.75,Stimuli/P013/sun_bdgwqzttihopmpbf.jpg,0,0,0.0,0,250,250,250,,,,,,,,,,,,,144.00871280000138,0.008712800001376309,None,178.35376309999992,178.35376309999992,178.35376309999992,178.35376309999992,178.35376309999992,178.35376309999992,178.35376309999992,178.35376309999992,178.35376309999992,178.35376309999992,,008,P013,2025_Feb_08_1548,ConditionRich,2021.2.3,59.941293496726466,
144.75,145.0,41,0.0,Stimuli/Blank.png,0,0,0.0,0,251,251,251,,,,,,,,,,,,,144.75916660000075,0.009166600000753533,None,179.1044232000022,179.1044232000022,179.1044232000022,179.1044232000022,179.1044232000022,179.1044232000022,179.1044232000022,179.1044232000022,179.1044232000022,179.1044232000022,,008,P013,2025_Feb_08_1548,ConditionRich,2021.2.3,59.941293496726466,
145.0,145.75,9,0.75,Stimuli/P013/sun_bdgwqzttihopmpbf.jpg,0,0,0.0,0,252,252,252,,,,,,,,,,,,,145.0098414999993,0.009841499999311054,None,179.37135599999965,179.37135599999965,179.37135599999965,179.37135599999965,179.37135599999965,179.37135599999965,179.37135599999965,179.37135599999965,179.37135599999965,179.37135599999965,,008,P013,2025_Feb_08_1548,ConditionRich,2021.2.3,59.941293496726466,
145.75,146.0,41,0.0,Stimuli/Blank.png,0,0,0.0,0,253,253,253,,,,,,,,,,,,,145.7771231000006,0.027123100000608247,None,180.12207649999982,180.12207649999982,180.12207649999982,180.12207649999982,180.12207649999982,180.12207649999982,180.12207649999982,180.12207649999982,180.12207649999982,180.12207649999982,,008,P013,2025_Feb_08_1548,ConditionRich,2021.2.3,59.941293496726466,
146.0,146.75,9,0.75,Stimuli/P013/sun_bdgwqzttihopmpbf.jpg,0,0,0.0,0,254,254,254,,,,,,,,,,,,,146.01003769999807,0.010037699998065364,None,180.3555325999987,180.3555325999987,180.3555325999987,180.3555325999987,180.3555325999987,180.3555325999987,180.3555325999987,180.3555325999987,180.3555325999987,180.3555325999987,,008,P013,2025_Feb_08_1548,ConditionRich,2021.2.3,59.941293496726466,
146.75,147.0,41,0.0,Stimuli/Blank.png,0,0,0.0,0,255,255,255,,,,,,,,,,,,,146.7607844999984,0.010784499998408137,None,181.10619850000148,181.10619850000148,181.10619850000148,181.10619850000148,181.10619850000148,181.10619850000148,181.10619850000148,181.10619850000148,181.10619850000148,181.10619850000148,,008,P013,2025_Feb_08_1548,ConditionRich,2021.2.3,59.941293496726466,
147.0,147.75,9,0.75,Stimuli/P013/sun_bdgwqzttihopmpbf.jpg,1,0,0.75,0,256,256,256,,,,,,,,,,,,,147.01088320000053,0.010883200000534998,None,181.37362380000195,181.37362380000195,181.37362380000195,181.37362380000195,181.37362380000195,181.37362380000195,181.37362380000195,182.09039029999985,181.37362380000195,181.37362380000195,,008,P013,2025_Feb_08_1548,ConditionRich,2021.2.3,59.941293496726466,
147.75,148.0,41,0.0,Stimuli/Blank.png,0,0,0.0,0,257,257,257,,,,,,,,,,,,,147.7783641999995,0.028364199999487028,None,182.12381330000062,182.12381330000062,182.12381330000062,182.12381330000062,182.12381330000062,182.12381330000062,182.12381330000062,182.12381330000062,182.12381330000062,182.12381330000062,,008,P013,2025_Feb_08_1548,ConditionRich,2021.2.3,59.941293496726466,
148.0,148.75,21,0.75,Stimuli/P013/things_baby_07s.jpg,0,0,0.0,0,258,258,258,,,,,,,,,,,,,148.01238770000055,0.01238770000054501,None,182.37399730000107,182.37399730000107,182.37399730000107,182.37399730000107,182.37399730000107,182.37399730000107,182.37399730000107,182.37399730000107,182.37399730000107,182.37399730000107,,008,P013,2025_Feb_08_1548,ConditionRich,2021.2.3,59.941293496726466,
148.75,149.0,41,0.0,Stimuli/Blank.png,0,0,0.0,0,259,259,259,,,,,,,,,,,,,148.77972959999897,0.029729599998972844,None,183.12459339999987,183.12459339999987,183.12459339999987,183.12459339999987,183.12459339999987,183.12459339999987,183.12459339999987,183.12459339999987,183.12459339999987,183.12459339999987,,008,P013,2025_Feb_08_1548,ConditionRich,2021.2.3,59.941293496726466,
149.0,149.75,21,0.75,Stimuli/P013/things_baby_07s.jpg,0,0,0.0,0,260,260,260,,,,,,,,,,,,,149.0156891000006,0.015689100000599865,None,183.3748751000021,183.3748751000021,183.3748751000021,183.3748751000021,183.3748751000021,183.3748751000021,183.3748751000021,183.3748751000021,183.3748751000021,183.3748751000021,,008,P013,2025_Feb_08_1548,ConditionRich,2021.2.3,59.941293496726466,
149.75,150.0,41,0.0,Stimuli/Blank.png,0,0,0.0,0,261,261,261,,,,,,,,,,,,,149.76352190000034,0.013521900000341702,None,184.10884950000036,184.10884950000036,184.10884950000036,184.10884950000036,184.10884950000036,184.10884950000036,184.10884950000036,184.10884950000036,184.10884950000036,184.10884950000036,,008,P013,2025_Feb_08_1548,ConditionRich,2021.2.3,59.941293496726466,
