eventStartTime,eventEndTime,eventCond,imSize,imFile,responseEvent,fixRespStart,fixRespEnd,Events.thisRepN,Events.thisTrialN,Events.thisN,Events.thisIndex,Instructions.started,Instructions.stopped,participantReadyResponse.keys,participantReadyResponse.rt,participantReadyResponse.started,participantReadyResponse.stopped,startWaitforTrigger,triggerResponse.keys,triggerResponse.rt,triggerResponse.started,triggerResponse.stopped,globalTimer,actualStartTime,startTimingDiff,participantResponse.keys,participantResponse.started,participantResponse.stopped,image.started,image.stopped,fixationOutside.started,fixationOutside.stopped,fixationResponse.started,fixationResponse.stopped,fixationInside.started,fixationInside.stopped,participantResponse.rt,session,participant,date,expName,psychopyVersion,frameRate,
,,,,,,,,,,,,11.518552900000941,None,1,13.087248199997703,11.518552900000941,None,,,,,,,,,,,,,,,,,,,,,003,P013,2025_Feb_08_1457,ConditionRich,2021.2.3,59.978575652419195,
,,,,,,,,,,,,,,,,,,24.619991499999742,5,14.169888499996887,24.633977099998447,None,,,,,,,,,,,,,,,,003,P013,2025_Feb_08_1457,ConditionRich,2021.2.3,59.978575652419195,
0.0,4.0,0,0.0,Stimuli/Blank.png,0,0,0.0,0,0,0,0,,,,,,,,,,,,38.81566480000038,0.03522239999801968,0.03522239999801968,None,38.86335649999819,None,38.86335649999819,None,38.86335649999819,None,38.86335649999819,38.86335649999819,38.86335649999819,None,,003,P013,2025_Feb_08_1457,ConditionRich,2021.2.3,59.978575652419195,
4.0,7.75,38,0.75,Stimuli/P013/things_spark_plug_07s.jpg,0,0,0.0,0,1,1,1,,,,,,,,,,,,,4.005902699998842,0.005902699998841854,None,42.85068769999998,42.85068769999998,42.85068769999998,42.85068769999998,42.85068769999998,42.85068769999998,42.85068769999998,42.85068769999998,42.85068769999998,42.85068769999998,,003,P013,2025_Feb_08_1457,ConditionRich,2021.2.3,59.978575652419195,
7.75,8.0,41,0.0,Stimuli/Blank.png,0,0,0.0,0,2,2,2,,,,,,,,,,,,,7.774365099998249,0.024365099998249207,None,46.60394059999817,46.60394059999817,46.60394059999817,46.60394059999817,46.60394059999817,46.60394059999817,46.60394059999817,46.60394059999817,46.60394059999817,46.60394059999817,,003,P013,2025_Feb_08_1457,ConditionRich,2021.2.3,59.978575652419195,
8.0,11.75,33,0.75,Stimuli/P013/things_piglet_07s.jpg,0,0,0.0,0,3,3,3,,,,,,,,,,,,,8.007153099999414,0.007153099999413826,None,46.85391080000045,46.85391080000045,46.85391080000045,46.85391080000045,46.85391080000045,46.85391080000045,46.85391080000045,46.85391080000045,46.85391080000045,46.85391080000045,,003,P013,2025_Feb_08_1457,ConditionRich,2021.2.3,59.978575652419195,
11.75,12.0,41,0.0,Stimuli/Blank.png,0,0,0.0,0,4,4,4,,,,,,,,,,,,,11.776918399998976,0.026918399998976383,None,50.607213799998135,50.607213799998135,50.607213799998135,50.607213799998135,50.607213799998135,50.607213799998135,50.607213799998135,50.607213799998135,50.607213799998135,50.607213799998135,,003,P013,2025_Feb_08_1457,ConditionRich,2021.2.3,59.978575652419195,
12.0,15.75,1,0.75,Stimuli/P013/sun_adkmgqclfrkhfxbd.jpg,0,0,0.0,0,5,5,5,,,,,,,,,,,,,12.010971499999869,0.010971499999868684,None,50.84075210000083,50.84075210000083,50.84075210000083,50.84075210000083,50.84075210000083,50.84075210000083,50.84075210000083,50.84075210000083,50.84075210000083,50.84075210000083,,003,P013,2025_Feb_08_1457,ConditionRich,2021.2.3,59.978575652419195,
15.75,16.0,41,0.0,Stimuli/Blank.png,0,0,0.0,0,6,6,6,,,,,,,,,,,,,15.765783199996804,0.015783199996803887,None,54.61084950000077,54.61084950000077,54.61084950000077,54.61084950000077,54.61084950000077,54.61084950000077,54.61084950000077,54.61084950000077,54.61084950000077,54.61084950000077,,003,P013,2025_Feb_08_1457,ConditionRich,2021.2.3,59.978575652419195,
16.0,19.75,32,0.75,Stimuli/P013/things_mistletoe_07s.jpg,0,0,0.0,0,7,7,7,,,,,,,,,,,,,16.013970099997096,0.01397009999709553,None,54.84430869999778,54.84430869999778,54.84430869999778,54.84430869999778,54.84430869999778,54.84430869999778,54.84430869999778,54.84430869999778,54.84430869999778,54.84430869999778,,003,P013,2025_Feb_08_1457,ConditionRich,2021.2.3,59.978575652419195,
19.75,20.0,41,0.0,Stimuli/Blank.png,0,0,0.0,0,8,8,8,,,,,,,,,,,,,19.750689499996952,0.0006894999969517812,None,58.58093709999957,58.58093709999957,58.58093709999957,58.58093709999957,58.58093709999957,58.58093709999957,58.58093709999957,58.58093709999957,58.58093709999957,58.58093709999957,,003,P013,2025_Feb_08_1457,ConditionRich,2021.2.3,59.978575652419195,
20.0,23.75,12,0.75,Stimuli/P013/sun_bjyrrxiwsnbmkbqs.jpg,0,0,0.0,0,9,9,9,,,,,,,,,,,,,20.000839899999846,0.0008398999998462386,None,58.83116049999808,58.83116049999808,58.83116049999808,58.83116049999808,58.83116049999808,58.83116049999808,58.83116049999808,58.83116049999808,58.83116049999808,58.83116049999808,,003,P013,2025_Feb_08_1457,ConditionRich,2021.2.3,59.978575652419195,
23.75,24.0,41,0.0,Stimuli/Blank.png,0,0,0.0,0,10,10,10,,,,,,,,,,,,,23.755405599997175,0.005405599997175159,None,62.58447619999788,62.58447619999788,62.58447619999788,62.58447619999788,62.58447619999788,62.58447619999788,62.58447619999788,62.58447619999788,62.58447619999788,62.58447619999788,,003,P013,2025_Feb_08_1457,ConditionRich,2021.2.3,59.978575652419195,
24.0,27.75,21,0.75,Stimuli/P013/things_baby_07s.jpg,0,0,0.0,0,11,11,11,,,,,,,,,,,,,24.0056835999967,0.00568359999670065,None,62.83470089999901,62.83470089999901,62.83470089999901,62.83470089999901,62.83470089999901,62.83470089999901,62.83470089999901,62.83470089999901,62.83470089999901,62.83470089999901,,003,P013,2025_Feb_08_1457,ConditionRich,2021.2.3,59.978575652419195,
27.75,28.0,41,0.0,Stimuli/Blank.png,0,0,0.0,0,12,12,12,,,,,,,,,,,,,27.7598259999977,0.009825999997701729,None,66.604677299998,66.604677299998,66.604677299998,66.604677299998,66.604677299998,66.604677299998,66.604677299998,66.604677299998,66.604677299998,66.604677299998,,003,P013,2025_Feb_08_1457,ConditionRich,2021.2.3,59.978575652419195,
28.0,31.75,23,0.75,Stimuli/P013/things_bug_07s.jpg,0,0,0.0,0,13,13,13,,,,,,,,,,,,,28.025416399999813,0.02541639999981271,None,66.85492599999998,66.85492599999998,66.85492599999998,66.85492599999998,66.85492599999998,66.85492599999998,66.85492599999998,66.85492599999998,66.85492599999998,66.85492599999998,,003,P013,2025_Feb_08_1457,ConditionRich,2021.2.3,59.978575652419195,
31.75,32.0,41,0.0,Stimuli/Blank.png,0,0,0.0,0,14,14,14,,,,,,,,,,,,,31.761220099997445,0.011220099997444777,None,70.59158100000059,70.59158100000059,70.59158100000059,70.59158100000059,70.59158100000059,70.59158100000059,70.59158100000059,70.59158100000059,70.59158100000059,70.59158100000059,,003,P013,2025_Feb_08_1457,ConditionRich,2021.2.3,59.978575652419195,
32.0,35.75,22,0.75,Stimuli/P013/things_banner_07s.jpg,1,0,0.75,0,15,15,15,,,,,,,,,,,,,32.01152549999824,0.011525499998242594,None,70.84183909999774,70.84183909999774,70.84183909999774,70.84183909999774,70.84183909999774,70.84183909999774,70.84183909999774,71.57579729999998,70.84183909999774,70.84183909999774,,003,P013,2025_Feb_08_1457,ConditionRich,2021.2.3,59.978575652419195,
35.75,36.0,41,0.0,Stimuli/Blank.png,0,0,0.0,0,16,16,16,,,,,,,,,,,,,35.76545579999947,0.01545579999947222,None,74.59510840000075,74.59510840000075,74.59510840000075,74.59510840000075,74.59510840000075,74.59510840000075,74.59510840000075,74.59510840000075,74.59510840000075,74.59510840000075,,003,P013,2025_Feb_08_1457,ConditionRich,2021.2.3,59.978575652419195,
36.0,39.75,6,0.75,Stimuli/P013/sun_aoejkkmwkfegacni.jpg,1,3,3.75,0,17,17,17,,,,,,,,,,,,,35.999400899996544,-0.0005991000034555327,1,74.84532879999824,74.84532879999824,74.84532879999824,74.84532879999824,74.84532879999824,74.84532879999824,77.8146104999978,78.56583479999972,74.84532879999824,74.84532879999824,3.433532999999443,003,P013,2025_Feb_08_1457,ConditionRich,2021.2.3,59.978575652419195,
39.75,40.0,41,0.0,Stimuli/Blank.png,0,0,0.0,0,18,18,18,,,,,,,,,,,,,39.76837049999813,0.018370499998127343,None,78.59866440000042,78.59866440000042,78.59866440000042,78.59866440000042,78.59866440000042,78.59866440000042,78.59866440000042,78.59866440000042,78.59866440000042,78.59866440000042,,003,P013,2025_Feb_08_1457,ConditionRich,2021.2.3,59.978575652419195,
40.0,43.75,14,0.75,Stimuli/P013/sun_bqhfterhwnqrbnzg.jpg,0,0,0.0,0,19,19,19,,,,,,,,,,,,,40.002432399996906,0.0024323999969055876,None,78.83218140000099,78.83218140000099,78.83218140000099,78.83218140000099,78.83218140000099,78.83218140000099,78.83218140000099,78.83218140000099,78.83218140000099,78.83218140000099,,003,P013,2025_Feb_08_1457,ConditionRich,2021.2.3,59.978575652419195,
43.75,44.0,41,0.0,Stimuli/Blank.png,0,0,0.0,0,20,20,20,,,,,,,,,,,,,43.75516900000002,0.005169000000023516,None,82.58549760000096,82.58549760000096,82.58549760000096,82.58549760000096,82.58549760000096,82.58549760000096,82.58549760000096,82.58549760000096,82.58549760000096,82.58549760000096,,003,P013,2025_Feb_08_1457,ConditionRich,2021.2.3,59.978575652419195,
44.0,47.75,17,0.75,Stimuli/P013/sun_bsguftphqnrkbedw.jpg,1,1,1.75,0,21,21,21,,,,,,,,,,,,,44.00627069999973,0.0062706999997317325,1,82.83572840000124,82.83572840000124,82.83572840000124,82.83572840000124,82.83572840000124,82.83572840000124,83.81997409999894,84.57058459999826,82.83572840000124,82.83572840000124,1.4543309999971825,003,P013,2025_Feb_08_1457,ConditionRich,2021.2.3,59.978575652419195,
47.75,48.0,41,0.0,Stimuli/Blank.png,0,0,0.0,0,22,22,22,,,,,,,,,,,,,47.759506699996564,0.009506699996563839,None,86.58904890000122,86.58904890000122,86.58904890000122,86.58904890000122,86.58904890000122,86.58904890000122,86.58904890000122,86.58904890000122,86.58904890000122,86.58904890000122,,003,P013,2025_Feb_08_1457,ConditionRich,2021.2.3,59.978575652419195,
48.0,51.75,18,0.75,Stimuli/P013/sun_btohwudpiusfvpvl.jpg,0,0,0.0,0,23,23,23,,,,,,,,,,,,,48.00993659999949,0.009936599999491591,None,86.83926820000124,86.83926820000124,86.83926820000124,86.83926820000124,86.83926820000124,86.83926820000124,86.83926820000124,86.83926820000124,86.83926820000124,86.83926820000124,,003,P013,2025_Feb_08_1457,ConditionRich,2021.2.3,59.978575652419195,
51.75,52.0,41,0.0,Stimuli/Blank.png,0,0,0.0,0,24,24,24,,,,,,,,,,,,,51.7647788999966,0.014778899996599648,None,90.60927819999779,90.60927819999779,90.60927819999779,90.60927819999779,90.60927819999779,90.60927819999779,90.60927819999779,90.60927819999779,90.60927819999779,90.60927819999779,,003,P013,2025_Feb_08_1457,ConditionRich,2021.2.3,59.978575652419195,
52.0,55.75,11,0.75,Stimuli/P013/sun_bfyxzbjsvqsobbky.jpg,0,0,0.0,0,25,25,25,,,,,,,,,,,,,52.02944029999708,0.02944029999707709,None,90.85949360000086,90.85949360000086,90.85949360000086,90.85949360000086,90.85949360000086,90.85949360000086,90.85949360000086,90.85949360000086,90.85949360000086,90.85949360000086,,003,P013,2025_Feb_08_1457,ConditionRich,2021.2.3,59.978575652419195,
55.75,56.0,41,0.0,Stimuli/Blank.png,0,0,0.0,0,26,26,26,,,,,,,,,,,,,55.750272599998425,0.00027259999842499383,None,94.57944449999923,94.57944449999923,94.57944449999923,94.57944449999923,94.57944449999923,94.57944449999923,94.57944449999923,94.57944449999923,94.57944449999923,94.57944449999923,,003,P013,2025_Feb_08_1457,ConditionRich,2021.2.3,59.978575652419195,
56.0,59.75,26,0.75,Stimuli/P013/things_cougar_07s.jpg,0,0,0.0,0,27,27,27,,,,,,,,,,,,,55.999528699998336,-0.0004713000016636215,None,94.82964970000103,94.82964970000103,94.82964970000103,94.82964970000103,94.82964970000103,94.82964970000103,94.82964970000103,94.82964970000103,94.82964970000103,94.82964970000103,,003,P013,2025_Feb_08_1457,ConditionRich,2021.2.3,59.978575652419195,
59.75,60.0,41,0.0,Stimuli/Blank.png,0,0,0.0,0,28,28,28,,,,,,,,,,,,,59.75404039999921,0.004040399999212241,None,98.58301120000033,98.58301120000033,98.58301120000033,98.58301120000033,98.58301120000033,98.58301120000033,98.58301120000033,98.58301120000033,98.58301120000033,98.58301120000033,,003,P013,2025_Feb_08_1457,ConditionRich,2021.2.3,59.978575652419195,
60.0,63.75,19,0.75,Stimuli/P013/sun_buphlelowxjnoygy.jpg,0,0,0.0,0,29,29,29,,,,,,,,,,,,,60.00497469999755,0.00497469999754685,None,98.84989969999879,98.84989969999879,98.84989969999879,98.84989969999879,98.84989969999879,98.84989969999879,98.84989969999879,98.84989969999879,98.84989969999879,98.84989969999879,,003,P013,2025_Feb_08_1457,ConditionRich,2021.2.3,59.978575652419195,
63.75,64.0,41,0.0,Stimuli/Blank.png,0,0,0.0,0,30,30,30,,,,,,,,,,,,,63.7761920999983,0.026192099998297635,None,102.61990189999779,102.61990189999779,102.61990189999779,102.61990189999779,102.61990189999779,102.61990189999779,102.61990189999779,102.61990189999779,102.61990189999779,102.61990189999779,,003,P013,2025_Feb_08_1457,ConditionRich,2021.2.3,59.978575652419195,
64.0,67.75,25,0.75,Stimuli/P013/things_cashew_07s.jpg,0,0,0.0,0,31,31,31,,,,,,,,,,,,,64.02585569999792,0.025855699997919146,None,102.87012329999925,102.87012329999925,102.87012329999925,102.87012329999925,102.87012329999925,102.87012329999925,102.87012329999925,102.87012329999925,102.87012329999925,102.87012329999925,,003,P013,2025_Feb_08_1457,ConditionRich,2021.2.3,59.978575652419195,
67.75,68.0,41,0.0,Stimuli/Blank.png,0,0,0.0,0,32,32,32,,,,,,,,,,,,,67.77726859999893,0.027268599998933496,None,106.60675659999833,106.60675659999833,106.60675659999833,106.60675659999833,106.60675659999833,106.60675659999833,106.60675659999833,106.60675659999833,106.60675659999833,106.60675659999833,,003,P013,2025_Feb_08_1457,ConditionRich,2021.2.3,59.978575652419195,
68.0,71.75,29,0.75,Stimuli/P013/things_iguana_07s.jpg,1,3,3.75,0,33,33,33,,,,,,,,,,,,,68.01088679999884,0.010886799998843344,1,106.84030469999925,106.84030469999925,106.84030469999925,106.84030469999925,106.84030469999925,106.84030469999925,109.8263251999997,110.57694160000028,106.84030469999925,106.84030469999925,3.5616125000015018,003,P013,2025_Feb_08_1457,ConditionRich,2021.2.3,59.978575652419195,
71.75,72.0,41,0.0,Stimuli/Blank.png,0,0,0.0,0,34,34,34,,,,,,,,,,,,,71.7664053999979,0.016405399997893255,None,110.61030000000028,110.61030000000028,110.61030000000028,110.61030000000028,110.61030000000028,110.61030000000028,110.61030000000028,110.61030000000028,110.61030000000028,110.61030000000028,,003,P013,2025_Feb_08_1457,ConditionRich,2021.2.3,59.978575652419195,
72.0,75.75,7,0.75,Stimuli/P013/sun_aojplsluiikxrfxc.jpg,0,0,0.0,0,35,35,35,,,,,,,,,,,,,72.0140907999994,0.014090799999394221,None,110.84380940000119,110.84380940000119,110.84380940000119,110.84380940000119,110.84380940000119,110.84380940000119,110.84380940000119,110.84380940000119,110.84380940000119,110.84380940000119,,003,P013,2025_Feb_08_1457,ConditionRich,2021.2.3,59.978575652419195,
75.75,76.0,41,0.0,Stimuli/Blank.png,0,0,0.0,0,36,36,36,,,,,,,,,,,,,75.75015649999841,0.0001564999984111637,None,114.5804836999996,114.5804836999996,114.5804836999996,114.5804836999996,114.5804836999996,114.5804836999996,114.5804836999996,114.5804836999996,114.5804836999996,114.5804836999996,,003,P013,2025_Feb_08_1457,ConditionRich,2021.2.3,59.978575652419195,
76.0,79.75,24,0.75,Stimuli/P013/things_bungee_07s.jpg,0,0,0.0,0,37,37,37,,,,,,,,,,,,,76.00123259999964,0.0012325999996392056,None,114.83065709999937,114.83065709999937,114.83065709999937,114.83065709999937,114.83065709999937,114.83065709999937,114.83065709999937,114.83065709999937,114.83065709999937,114.83065709999937,,003,P013,2025_Feb_08_1457,ConditionRich,2021.2.3,59.978575652419195,
79.75,80.0,41,0.0,Stimuli/Blank.png,0,0,0.0,0,38,38,38,,,,,,,,,,,,,79.75466069999675,0.004660699996748008,None,118.58403120000003,118.58403120000003,118.58403120000003,118.58403120000003,118.58403120000003,118.58403120000003,118.58403120000003,118.58403120000003,118.58403120000003,118.58403120000003,,003,P013,2025_Feb_08_1457,ConditionRich,2021.2.3,59.978575652419195,
80.0,83.75,16,0.75,Stimuli/P013/sun_bsgtkqjrnrvttrax.jpg,1,3,3.75,0,39,39,39,,,,,,,,,,,,,80.0038902999986,0.0038902999986021314,None,118.83423709999988,118.83423709999988,118.83423709999988,118.83423709999988,118.83423709999988,118.83423709999988,121.82021280000117,122.57091639999999,118.83423709999988,118.83423709999988,,003,P013,2025_Feb_08_1457,ConditionRich,2021.2.3,59.978575652419195,
83.75,84.0,41,0.0,Stimuli/Blank.png,0,0,0.0,0,40,40,40,,,,,,,,,,,,,83.75821089999954,0.008210899999539834,None,122.58757780000087,122.58757780000087,122.58757780000087,122.58757780000087,122.58757780000087,122.58757780000087,122.58757780000087,122.58757780000087,122.58757780000087,122.58757780000087,,003,P013,2025_Feb_08_1457,ConditionRich,2021.2.3,59.978575652419195,
84.0,100.0,0,0.0,Stimuli/Blank.png,1,4,4.75,0,41,41,41,,,,,,,,,,,,,84.00784569999814,0.007845699998142663,1,122.83785960000023,122.83785960000023,122.83785960000023,122.83785960000023,122.83785960000023,122.83785960000023,126.82463680000001,127.57530029999907,122.83785960000023,122.83785960000023,4.951145899998664,003,P013,2025_Feb_08_1457,ConditionRich,2021.2.3,59.978575652419195,
100.0,103.75,28,0.75,Stimuli/P013/things_girl_07s.jpg,0,0,0.0,0,42,42,42,,,,,,,,,,,,,100.00499039999704,0.004990399997041095,None,138.83527499999764,138.83527499999764,138.83527499999764,138.83527499999764,138.83527499999764,138.83527499999764,138.83527499999764,138.83527499999764,138.83527499999764,138.83527499999764,,003,P013,2025_Feb_08_1457,ConditionRich,2021.2.3,59.978575652419195,
103.75,104.0,41,0.0,Stimuli/Blank.png,0,0,0.0,0,43,43,43,,,,,,,,,,,,,103.7584321999966,0.00843219999660505,None,142.58864259999973,142.58864259999973,142.58864259999973,142.58864259999973,142.58864259999973,142.58864259999973,142.58864259999973,142.58864259999973,142.58864259999973,142.58864259999973,,003,P013,2025_Feb_08_1457,ConditionRich,2021.2.3,59.978575652419195,
104.0,107.75,15,0.75,Stimuli/P013/sun_brezwczwwllviogu.jpg,0,0,0.0,0,44,44,44,,,,,,,,,,,,,104.00868579999951,0.0086857999995118,None,142.83881330000077,142.83881330000077,142.83881330000077,142.83881330000077,142.83881330000077,142.83881330000077,142.83881330000077,142.83881330000077,142.83881330000077,142.83881330000077,,003,P013,2025_Feb_08_1457,ConditionRich,2021.2.3,59.978575652419195,
107.75,108.0,41,0.0,Stimuli/Blank.png,0,0,0.0,0,45,45,45,,,,,,,,,,,,,107.7631509999992,0.013150999999197666,None,146.59216259999812,146.59216259999812,146.59216259999812,146.59216259999812,146.59216259999812,146.59216259999812,146.59216259999812,146.59216259999812,146.59216259999812,146.59216259999812,,003,P013,2025_Feb_08_1457,ConditionRich,2021.2.3,59.978575652419195,
108.0,111.75,35,0.75,Stimuli/P013/things_road_sign_07s.jpg,0,0,0.0,0,46,46,46,,,,,,,,,,,,,108.01201809999839,0.012018099998385878,None,146.84235279999848,146.84235279999848,146.84235279999848,146.84235279999848,146.84235279999848,146.84235279999848,146.84235279999848,146.84235279999848,146.84235279999848,146.84235279999848,,003,P013,2025_Feb_08_1457,ConditionRich,2021.2.3,59.978575652419195,
111.75,112.0,41,0.0,Stimuli/Blank.png,0,0,0.0,0,47,47,47,,,,,,,,,,,,,111.76563269999679,0.01563269999678596,None,150.5956789999982,150.5956789999982,150.5956789999982,150.5956789999982,150.5956789999982,150.5956789999982,150.5956789999982,150.5956789999982,150.5956789999982,150.5956789999982,,003,P013,2025_Feb_08_1457,ConditionRich,2021.2.3,59.978575652419195,
112.0,115.75,40,0.75,Stimuli/P013/things_woman_07s.jpg,0,0,0.0,0,48,48,48,,,,,,,,,,,,,112.00025729999834,0.0002572999983385671,None,150.8291762000008,150.8291762000008,150.8291762000008,150.8291762000008,150.8291762000008,150.8291762000008,150.8291762000008,150.8291762000008,150.8291762000008,150.8291762000008,,003,P013,2025_Feb_08_1457,ConditionRich,2021.2.3,59.978575652419195,
115.75,116.0,41,0.0,Stimuli/Blank.png,0,0,0.0,0,49,49,49,,,,,,,,,,,,,115.7557315999984,0.005731599998398451,None,154.59924390000015,154.59924390000015,154.59924390000015,154.59924390000015,154.59924390000015,154.59924390000015,154.59924390000015,154.59924390000015,154.59924390000015,154.59924390000015,,003,P013,2025_Feb_08_1457,ConditionRich,2021.2.3,59.978575652419195,
116.0,119.75,36,0.75,Stimuli/P013/things_seafood_07s.jpg,0,0,0.0,0,50,50,50,,,,,,,,,,,,,116.01929969999765,0.019299699997645803,None,154.84943740000017,154.84943740000017,154.84943740000017,154.84943740000017,154.84943740000017,154.84943740000017,154.84943740000017,154.84943740000017,154.84943740000017,154.84943740000017,,003,P013,2025_Feb_08_1457,ConditionRich,2021.2.3,59.978575652419195,
119.75,120.0,41,0.0,Stimuli/Blank.png,0,0,0.0,0,51,51,51,,,,,,,,,,,,,119.75588049999715,0.005880499997147126,None,158.5860829000012,158.5860829000012,158.5860829000012,158.5860829000012,158.5860829000012,158.5860829000012,158.5860829000012,158.5860829000012,158.5860829000012,158.5860829000012,,003,P013,2025_Feb_08_1457,ConditionRich,2021.2.3,59.978575652419195,
120.0,123.75,31,0.75,Stimuli/P013/things_mask_07s.jpg,0,0,0.0,0,52,52,52,,,,,,,,,,,,,120.006658899998,0.006658899998001289,None,158.83637720000115,158.83637720000115,158.83637720000115,158.83637720000115,158.83637720000115,158.83637720000115,158.83637720000115,158.83637720000115,158.83637720000115,158.83637720000115,,003,P013,2025_Feb_08_1457,ConditionRich,2021.2.3,59.978575652419195,
123.75,124.0,41,0.0,Stimuli/Blank.png,0,0,0.0,0,53,53,53,,,,,,,,,,,,,123.76026539999657,0.010265399996569613,None,162.58962279999832,162.58962279999832,162.58962279999832,162.58962279999832,162.58962279999832,162.58962279999832,162.58962279999832,162.58962279999832,162.58962279999832,162.58962279999832,,003,P013,2025_Feb_08_1457,ConditionRich,2021.2.3,59.978575652419195,
124.0,127.75,2,0.75,Stimuli/P013/sun_adotnsaifoooswkf.jpg,0,0,0.0,0,54,54,54,,,,,,,,,,,,,124.00945129999673,0.009451299996726448,None,162.83984169999894,162.83984169999894,162.83984169999894,162.83984169999894,162.83984169999894,162.83984169999894,162.83984169999894,162.83984169999894,162.83984169999894,162.83984169999894,,003,P013,2025_Feb_08_1457,ConditionRich,2021.2.3,59.978575652419195,
127.75,128.0,41,0.0,Stimuli/Blank.png,0,0,0.0,0,55,55,55,,,,,,,,,,,,,127.76480949999677,0.014809499996772502,None,166.60984929999904,166.60984929999904,166.60984929999904,166.60984929999904,166.60984929999904,166.60984929999904,166.60984929999904,166.60984929999904,166.60984929999904,166.60984929999904,,003,P013,2025_Feb_08_1457,ConditionRich,2021.2.3,59.978575652419195,
128.0,131.75,4,0.75,Stimuli/P013/sun_afgoiykvchxqotyz.jpg,1,3,3.75,0,56,56,56,,,,,,,,,,,,,128.03090829999928,0.030908299999282463,1,166.86005690000093,170.57999229999768,166.86005690000093,170.57999229999768,166.86005690000093,170.57999229999768,169.84608450000087,None,166.86005690000093,170.57999229999768,3.3238701000009314,003,P013,2025_Feb_08_1457,ConditionRich,2021.2.3,59.978575652419195,
131.75,132.0,41,0.0,Stimuli/Blank.png,0,0,0.0,0,57,57,57,,,,,,,,,,,,,131.7666681999981,0.01666819999809377,None,170.59670890000052,None,170.59670890000052,None,170.59670890000052,None,170.59670890000052,170.59670890000052,170.59670890000052,None,,003,P013,2025_Feb_08_1457,ConditionRich,2021.2.3,59.978575652419195,
132.0,135.75,9,0.75,Stimuli/P013/sun_bdgwqzttihopmpbf.jpg,0,0,0.0,0,58,58,58,,,,,,,,,,,,,132.00017079999816,0.00017079999815905467,None,170.83025350000025,170.83025350000025,170.83025350000025,170.83025350000025,170.83025350000025,170.83025350000025,170.83025350000025,170.83025350000025,170.83025350000025,170.83025350000025,,003,P013,2025_Feb_08_1457,ConditionRich,2021.2.3,59.978575652419195,
135.75,136.0,41,0.0,Stimuli/Blank.png,0,0,0.0,0,59,59,59,,,,,,,,,,,,,135.7534104999977,0.0034104999976989347,None,174.58356819999972,174.58356819999972,174.58356819999972,174.58356819999972,174.58356819999972,174.58356819999972,174.58356819999972,174.58356819999972,174.58356819999972,174.58356819999972,,003,P013,2025_Feb_08_1457,ConditionRich,2021.2.3,59.978575652419195,
136.0,139.75,5,0.75,Stimuli/P013/sun_aidrxvbfhxtsusrf.jpg,0,0,0.0,0,60,60,60,,,,,,,,,,,,,136.0055642999978,0.005564299997786293,None,174.85047479999776,174.85047479999776,174.85047479999776,174.85047479999776,174.85047479999776,174.85047479999776,174.85047479999776,174.85047479999776,174.85047479999776,174.85047479999776,,003,P013,2025_Feb_08_1457,ConditionRich,2021.2.3,59.978575652419195,
139.75,140.0,41,0.0,Stimuli/Blank.png,0,0,0.0,0,61,61,61,,,,,,,,,,,,,139.77371989999665,0.023719899996649474,None,178.60379660000035,178.60379660000035,178.60379660000035,178.60379660000035,178.60379660000035,178.60379660000035,178.60379660000035,178.60379660000035,178.60379660000035,178.60379660000035,,003,P013,2025_Feb_08_1457,ConditionRich,2021.2.3,59.978575652419195,
140.0,143.75,10,0.75,Stimuli/P013/sun_bdhxnzyleoiflyak.jpg,1,1,1.75,0,62,62,62,,,,,,,,,,,,,140.00698639999973,0.0069863999997323845,1,178.8373294999983,178.8373294999983,178.8373294999983,178.8373294999983,178.8373294999983,178.8373294999983,179.83825939999952,180.57224309999947,178.8373294999983,178.8373294999983,1.563625000002503,003,P013,2025_Feb_08_1457,ConditionRich,2021.2.3,59.978575652419195,
143.75,144.0,41,0.0,Stimuli/Blank.png,0,0,0.0,0,63,63,63,,,,,,,,,,,,,143.76060159999906,0.010601599999063183,None,182.59074350000083,182.59074350000083,182.59074350000083,182.59074350000083,182.59074350000083,182.59074350000083,182.59074350000083,182.59074350000083,182.59074350000083,182.59074350000083,,003,P013,2025_Feb_08_1457,ConditionRich,2021.2.3,59.978575652419195,
144.0,147.75,20,0.75,Stimuli/P013/sun_cidodcxikcyrdglc.jpg,0,0,0.0,0,64,64,64,,,,,,,,,,,,,144.01485619999949,0.014856199999485398,None,182.85757390000072,182.85757390000072,182.85757390000072,182.85757390000072,182.85757390000072,182.85757390000072,182.85757390000072,182.85757390000072,182.85757390000072,182.85757390000072,,003,P013,2025_Feb_08_1457,ConditionRich,2021.2.3,59.978575652419195,
147.75,148.0,41,0.0,Stimuli/Blank.png,0,0,0.0,0,65,65,65,,,,,,,,,,,,,147.7655156999972,0.015515699997195043,None,186.59419849999904,186.59419849999904,186.59419849999904,186.59419849999904,186.59419849999904,186.59419849999904,186.59419849999904,186.59419849999904,186.59419849999904,186.59419849999904,,003,P013,2025_Feb_08_1457,ConditionRich,2021.2.3,59.978575652419195,
148.0,151.75,30,0.75,Stimuli/P013/things_man_07s.jpg,0,0,0.0,0,66,66,66,,,,,,,,,,,,,148.00005939999755,5.9399997553555295e-05,None,186.8444129999989,186.8444129999989,186.8444129999989,186.8444129999989,186.8444129999989,186.8444129999989,186.8444129999989,186.8444129999989,186.8444129999989,186.8444129999989,,003,P013,2025_Feb_08_1457,ConditionRich,2021.2.3,59.978575652419195,
151.75,152.0,41,0.0,Stimuli/Blank.png,0,0,0.0,0,67,67,67,,,,,,,,,,,,,151.7702963999982,0.020296399998187553,None,190.61442869999883,190.61442869999883,190.61442869999883,190.61442869999883,190.61442869999883,190.61442869999883,190.61442869999883,190.61442869999883,190.61442869999883,190.61442869999883,,003,P013,2025_Feb_08_1457,ConditionRich,2021.2.3,59.978575652419195,
152.0,155.75,37,0.75,Stimuli/P013/things_slug_07s.jpg,0,0,0.0,0,68,68,68,,,,,,,,,,,,,152.0198567999978,0.01985679999779677,None,190.8646461999997,190.8646461999997,190.8646461999997,190.8646461999997,190.8646461999997,190.8646461999997,190.8646461999997,190.8646461999997,190.8646461999997,190.8646461999997,,003,P013,2025_Feb_08_1457,ConditionRich,2021.2.3,59.978575652419195,
155.75,156.0,41,0.0,Stimuli/Blank.png,0,0,0.0,0,69,69,69,,,,,,,,,,,,,155.77107179999803,0.02107179999802611,None,194.60127490000013,194.60127490000013,194.60127490000013,194.60127490000013,194.60127490000013,194.60127490000013,194.60127490000013,194.60127490000013,194.60127490000013,194.60127490000013,,003,P013,2025_Feb_08_1457,ConditionRich,2021.2.3,59.978575652419195,
156.0,159.75,39,0.75,Stimuli/P013/things_violin_07n.jpg,0,0,0.0,0,70,70,70,,,,,,,,,,,,,156.00528029999987,0.005280299999867566,None,194.8348220000007,194.8348220000007,194.8348220000007,194.8348220000007,194.8348220000007,194.8348220000007,194.8348220000007,194.8348220000007,194.8348220000007,194.8348220000007,,003,P013,2025_Feb_08_1457,ConditionRich,2021.2.3,59.978575652419195,
159.75,160.0,41,0.0,Stimuli/Blank.png,0,0,0.0,0,71,71,71,,,,,,,,,,,,,159.7599330999983,0.009933099998306716,None,198.60481919999802,198.60481919999802,198.60481919999802,198.60481919999802,198.60481919999802,198.60481919999802,198.60481919999802,198.60481919999802,198.60481919999802,198.60481919999802,,003,P013,2025_Feb_08_1457,ConditionRich,2021.2.3,59.978575652419195,
160.0,163.75,27,0.75,Stimuli/P013/things_face_07s.jpg,0,0,0.0,0,72,72,72,,,,,,,,,,,,,160.02641169999697,0.02641169999697013,None,198.85504260000016,198.85504260000016,198.85504260000016,198.85504260000016,198.85504260000016,198.85504260000016,198.85504260000016,198.85504260000016,198.85504260000016,198.85504260000016,,003,P013,2025_Feb_08_1457,ConditionRich,2021.2.3,59.978575652419195,
163.75,164.0,41,0.0,Stimuli/Blank.png,0,0,0.0,0,73,73,73,,,,,,,,,,,,,163.7622655999985,0.012265599998499965,None,202.59170409999933,202.59170409999933,202.59170409999933,202.59170409999933,202.59170409999933,202.59170409999933,202.59170409999933,202.59170409999933,202.59170409999933,202.59170409999933,,003,P013,2025_Feb_08_1457,ConditionRich,2021.2.3,59.978575652419195,
164.0,167.75,3,0.75,Stimuli/P013/sun_aengzsmykwchlrdn.jpg,1,2,2.75,0,74,74,74,,,,,,,,,,,,,164.0120010999999,0.012001099999906728,1,202.8418958000002,202.8418958000002,202.8418958000002,202.8418958000002,202.8418958000002,202.8418958000002,204.82694459999766,205.577651399999,202.8418958000002,202.8418958000002,2.3713534000016807,003,P013,2025_Feb_08_1457,ConditionRich,2021.2.3,59.978575652419195,
167.75,168.0,41,0.0,Stimuli/Blank.png,0,0,0.0,0,75,75,75,,,,,,,,,,,,,167.7657143999968,0.01571439999679569,None,206.59558879999895,206.59558879999895,206.59558879999895,206.59558879999895,206.59558879999895,206.59558879999895,206.59558879999895,206.59558879999895,206.59558879999895,206.59558879999895,,003,P013,2025_Feb_08_1457,ConditionRich,2021.2.3,59.978575652419195,
168.0,171.75,34,0.75,Stimuli/P013/things_radio_07s.jpg,0,0,0.0,0,76,76,76,,,,,,,,,,,,,168.0158550999986,0.01585509999858914,None,206.8454423000003,206.8454423000003,206.8454423000003,206.8454423000003,206.8454423000003,206.8454423000003,206.8454423000003,206.8454423000003,206.8454423000003,206.8454423000003,,003,P013,2025_Feb_08_1457,ConditionRich,2021.2.3,59.978575652419195,
171.75,172.0,41,0.0,Stimuli/Blank.png,0,0,0.0,0,77,77,77,,,,,,,,,,,,,171.75178269999742,0.0017826999974204227,None,210.58209179999903,210.58209179999903,210.58209179999903,210.58209179999903,210.58209179999903,210.58209179999903,210.58209179999903,210.58209179999903,210.58209179999903,210.58209179999903,,003,P013,2025_Feb_08_1457,ConditionRich,2021.2.3,59.978575652419195,
172.0,175.75,13,0.75,Stimuli/P013/sun_bpccpwpohfirajtf.jpg,0,0,0.0,0,78,78,78,,,,,,,,,,,,,172.00315569999657,0.0031556999965687282,None,210.83229719999872,210.83229719999872,210.83229719999872,210.83229719999872,210.83229719999872,210.83229719999872,210.83229719999872,210.83229719999872,210.83229719999872,210.83229719999872,,003,P013,2025_Feb_08_1457,ConditionRich,2021.2.3,59.978575652419195,
175.75,176.0,41,0.0,Stimuli/Blank.png,0,0,0.0,0,79,79,79,,,,,,,,,,,,,175.7561229999992,0.006122999999206513,None,214.58566409999912,214.58566409999912,214.58566409999912,214.58566409999912,214.58566409999912,214.58566409999912,214.58566409999912,214.58566409999912,214.58566409999912,214.58566409999912,,003,P013,2025_Feb_08_1457,ConditionRich,2021.2.3,59.978575652419195,
176.0,179.75,8,0.75,Stimuli/P013/sun_auqrilekgmdmrncq.jpg,1,0,0.75,0,80,80,80,,,,,,,,,,,,,176.00627899999745,0.006278999997448409,1,214.85255999999936,214.85255999999936,214.85255999999936,214.85255999999936,214.85255999999936,214.85255999999936,214.85255999999936,215.56982829999833,214.85255999999936,214.85255999999936,0.4544524000011734,003,P013,2025_Feb_08_1457,ConditionRich,2021.2.3,59.978575652419195,
179.75,180.0,41,0.0,Stimuli/Blank.png,0,0,0.0,0,81,81,81,,,,,,,,,,,,,179.77669249999963,0.026692499999626307,None,218.60584029999882,218.60584029999882,218.60584029999882,218.60584029999882,218.60584029999882,218.60584029999882,218.60584029999882,218.60584029999882,218.60584029999882,218.60584029999882,,003,P013,2025_Feb_08_1457,ConditionRich,2021.2.3,59.978575652419195,
180.0,196.0,0,0.0,Stimuli/Blank.png,1,5,5.75,0,82,82,82,,,,,,,,,,,,,180.00925789999746,0.009257899997464847,None,218.83949429999848,218.83949429999848,218.83949429999848,218.83949429999848,218.83949429999848,218.83949429999848,223.82712170000013,224.5777976999998,218.83949429999848,218.83949429999848,,003,P013,2025_Feb_08_1457,ConditionRich,2021.2.3,59.978575652419195,
196.0,199.75,25,0.75,Stimuli/P013/things_cashew_07s.jpg,0,0,0.0,0,83,83,83,,,,,,,,,,,,,196.00670069999978,0.006700699999782955,None,234.8368659000007,234.8368659000007,234.8368659000007,234.8368659000007,234.8368659000007,234.8368659000007,234.8368659000007,234.8368659000007,234.8368659000007,234.8368659000007,,003,P013,2025_Feb_08_1457,ConditionRich,2021.2.3,59.978575652419195,
199.75,200.0,41,0.0,Stimuli/Blank.png,0,0,0.0,0,84,84,84,,,,,,,,,,,,,199.76134309999907,0.011343099999066908,None,238.60686999999962,238.60686999999962,238.60686999999962,238.60686999999962,238.60686999999962,238.60686999999962,238.60686999999962,238.60686999999962,238.60686999999962,238.60686999999962,,003,P013,2025_Feb_08_1457,ConditionRich,2021.2.3,59.978575652419195,
200.0,203.75,40,0.75,Stimuli/P013/things_woman_07s.jpg,0,0,0.0,0,85,85,85,,,,,,,,,,,,,200.03027569999904,0.030275699999037897,None,238.87377500000002,238.87377500000002,238.87377500000002,238.87377500000002,238.87377500000002,238.87377500000002,238.87377500000002,238.87377500000002,238.87377500000002,238.87377500000002,,003,P013,2025_Feb_08_1457,ConditionRich,2021.2.3,59.978575652419195,
203.75,204.0,41,0.0,Stimuli/Blank.png,0,0,0.0,0,86,86,86,,,,,,,,,,,,,203.7642782999974,0.014278299997386057,None,242.5937113,242.5937113,242.5937113,242.5937113,242.5937113,242.5937113,242.5937113,242.5937113,242.5937113,242.5937113,,003,P013,2025_Feb_08_1457,ConditionRich,2021.2.3,59.978575652419195,
204.0,207.75,15,0.75,Stimuli/P013/sun_brezwczwwllviogu.jpg,1,1,1.75,0,87,87,87,,,,,,,,,,,,,204.01443599999766,0.014435999997658655,1,242.86060039999938,242.86060039999938,242.86060039999938,242.86060039999938,242.86060039999938,242.86060039999938,243.82816059999823,244.57881859999907,242.86060039999938,242.86060039999938,1.4223989999991318,003,P013,2025_Feb_08_1457,ConditionRich,2021.2.3,59.978575652419195,
207.75,208.0,41,0.0,Stimuli/Blank.png,0,0,0.0,0,88,88,88,,,,,,,,,,,,,207.76692699999694,0.01692699999694014,None,246.59727279999788,246.59727279999788,246.59727279999788,246.59727279999788,246.59727279999788,246.59727279999788,246.59727279999788,246.59727279999788,246.59727279999788,246.59727279999788,,003,P013,2025_Feb_08_1457,ConditionRich,2021.2.3,59.978575652419195,
208.0,211.75,13,0.75,Stimuli/P013/sun_bpccpwpohfirajtf.jpg,1,2,2.75,0,89,89,89,,,,,,,,,,,,,208.00137029999678,0.0013702999967790674,1,246.8308087000005,246.8308087000005,246.8308087000005,246.8308087000005,246.8308087000005,246.8308087000005,248.81594269999914,249.56657419999829,246.8308087000005,246.8308087000005,2.4341740000018035,003,P013,2025_Feb_08_1457,ConditionRich,2021.2.3,59.978575652419195,
211.75,212.0,41,0.0,Stimuli/Blank.png,0,0,0.0,0,90,90,90,,,,,,,,,,,,,211.75630779999847,0.00630779999846709,None,250.6008753999995,250.6008753999995,250.6008753999995,250.6008753999995,250.6008753999995,250.6008753999995,250.6008753999995,250.6008753999995,250.6008753999995,250.6008753999995,,003,P013,2025_Feb_08_1457,ConditionRich,2021.2.3,59.978575652419195,
212.0,215.75,28,0.75,Stimuli/P013/things_girl_07s.jpg,0,0,0.0,0,91,91,91,,,,,,,,,,,,,212.020965599997,0.020965599996998208,None,250.85103239999808,250.85103239999808,250.85103239999808,250.85103239999808,250.85103239999808,250.85103239999808,250.85103239999808,250.85103239999808,250.85103239999808,250.85103239999808,,003,P013,2025_Feb_08_1457,ConditionRich,2021.2.3,59.978575652419195,
215.75,216.0,41,0.0,Stimuli/Blank.png,0,0,0.0,0,92,92,92,,,,,,,,,,,,,215.7585442999989,0.008544299998902716,None,254.58764040000096,254.58764040000096,254.58764040000096,254.58764040000096,254.58764040000096,254.58764040000096,254.58764040000096,254.58764040000096,254.58764040000096,254.58764040000096,,003,P013,2025_Feb_08_1457,ConditionRich,2021.2.3,59.978575652419195,
216.0,219.75,38,0.75,Stimuli/P013/things_spark_plug_07s.jpg,0,0,0.0,0,93,93,93,,,,,,,,,,,,,216.01012029999765,0.010120299997652182,None,254.85459629999968,254.85459629999968,254.85459629999968,254.85459629999968,254.85459629999968,254.85459629999968,254.85459629999968,254.85459629999968,254.85459629999968,254.85459629999968,,003,P013,2025_Feb_08_1457,ConditionRich,2021.2.3,59.978575652419195,
219.75,220.0,41,0.0,Stimuli/Blank.png,0,0,0.0,0,94,94,94,,,,,,,,,,,,,219.77977069999906,0.029770699999062344,None,258.6245788999986,258.6245788999986,258.6245788999986,258.6245788999986,258.6245788999986,258.6245788999986,258.6245788999986,258.6245788999986,258.6245788999986,258.6245788999986,,003,P013,2025_Feb_08_1457,ConditionRich,2021.2.3,59.978575652419195,
220.0,223.75,12,0.75,Stimuli/P013/sun_bjyrrxiwsnbmkbqs.jpg,1,3,3.75,0,95,95,95,,,,,,,,,,,,,220.03025229999912,0.030252299999119714,1,258.8748047000008,258.8748047000008,258.8748047000008,258.8748047000008,258.8748047000008,258.8748047000008,261.86077139999907,None,258.8748047000008,258.8748047000008,3.6063192000001436,003,P013,2025_Feb_08_1457,ConditionRich,2021.2.3,59.978575652419195,
223.75,224.0,41,0.0,Stimuli/Blank.png,0,0,0.0,0,96,96,96,,,,,,,,,,,,,223.78207759999714,0.03207759999713744,None,262.61145749999923,262.61145749999923,262.61145749999923,262.61145749999923,262.61145749999923,262.61145749999923,262.61145749999923,262.61145749999923,262.61145749999923,262.61145749999923,,003,P013,2025_Feb_08_1457,ConditionRich,2021.2.3,59.978575652419195,
224.0,227.75,37,0.75,Stimuli/P013/things_slug_07s.jpg,0,0,0.0,0,97,97,97,,,,,,,,,,,,,224.0155021999999,0.015502199999900768,None,262.86166740000044,262.86166740000044,262.86166740000044,262.86166740000044,262.86166740000044,262.86166740000044,262.86166740000044,262.86166740000044,262.86166740000044,262.86166740000044,,003,P013,2025_Feb_08_1457,ConditionRich,2021.2.3,59.978575652419195,
227.75,228.0,41,0.0,Stimuli/Blank.png,0,0,0.0,0,98,98,98,,,,,,,,,,,,,227.77008609999757,0.020086099997570273,None,266.61498279999796,266.61498279999796,266.61498279999796,266.61498279999796,266.61498279999796,266.61498279999796,266.61498279999796,266.61498279999796,266.61498279999796,266.61498279999796,,003,P013,2025_Feb_08_1457,ConditionRich,2021.2.3,59.978575652419195,
228.0,231.75,33,0.75,Stimuli/P013/things_piglet_07s.jpg,0,0,0.0,0,99,99,99,,,,,,,,,,,,,228.02044829999795,0.020448299997951835,None,266.8652019000001,266.8652019000001,266.8652019000001,266.8652019000001,266.8652019000001,266.8652019000001,266.8652019000001,266.8652019000001,266.8652019000001,266.8652019000001,,003,P013,2025_Feb_08_1457,ConditionRich,2021.2.3,59.978575652419195,
231.75,232.0,41,0.0,Stimuli/Blank.png,0,0,0.0,0,100,100,100,,,,,,,,,,,,,231.77166659999784,0.02166659999784315,None,270.60183889999826,270.60183889999826,270.60183889999826,270.60183889999826,270.60183889999826,270.60183889999826,270.60183889999826,270.60183889999826,270.60183889999826,270.60183889999826,,003,P013,2025_Feb_08_1457,ConditionRich,2021.2.3,59.978575652419195,
232.0,235.75,24,0.75,Stimuli/P013/things_bungee_07s.jpg,0,0,0.0,0,101,101,101,,,,,,,,,,,,,232.00594609999825,0.005946099998254795,None,270.8520804,270.8520804,270.8520804,270.8520804,270.8520804,270.8520804,270.8520804,270.8520804,270.8520804,270.8520804,,003,P013,2025_Feb_08_1457,ConditionRich,2021.2.3,59.978575652419195,
235.75,236.0,41,0.0,Stimuli/Blank.png,0,0,0.0,0,102,102,102,,,,,,,,,,,,,235.77647609999985,0.02647609999985434,None,274.60540050000054,274.60540050000054,274.60540050000054,274.60540050000054,274.60540050000054,274.60540050000054,274.60540050000054,274.60540050000054,274.60540050000054,274.60540050000054,,003,P013,2025_Feb_08_1457,ConditionRich,2021.2.3,59.978575652419195,
236.0,239.75,20,0.75,Stimuli/P013/sun_cidodcxikcyrdglc.jpg,0,0,0.0,0,103,103,103,,,,,,,,,,,,,236.01162869999825,0.011628699998254888,None,274.855603,274.855603,274.855603,274.855603,274.855603,274.855603,274.855603,274.855603,274.855603,274.855603,,003,P013,2025_Feb_08_1457,ConditionRich,2021.2.3,59.978575652419195,
239.75,240.0,41,0.0,Stimuli/Blank.png,0,0,0.0,0,104,104,104,,,,,,,,,,,,,239.78004149999833,0.030041499998333165,None,278.60894859999826,278.60894859999826,278.60894859999826,278.60894859999826,278.60894859999826,278.60894859999826,278.60894859999826,278.60894859999826,278.60894859999826,278.60894859999826,,003,P013,2025_Feb_08_1457,ConditionRich,2021.2.3,59.978575652419195,
240.0,243.75,3,0.75,Stimuli/P013/sun_aengzsmykwchlrdn.jpg,0,0,0.0,0,105,105,105,,,,,,,,,,,,,240.01219700000001,0.012197000000014668,None,278.8591548000004,278.8591548000004,278.8591548000004,278.8591548000004,278.8591548000004,278.8591548000004,278.8591548000004,278.8591548000004,278.8591548000004,278.8591548000004,,003,P013,2025_Feb_08_1457,ConditionRich,2021.2.3,59.978575652419195,
243.75,244.0,41,0.0,Stimuli/Blank.png,0,0,0.0,0,106,106,106,,,,,,,,,,,,,243.7830114999997,0.03301149999970221,None,282.6124764999986,282.6124764999986,282.6124764999986,282.6124764999986,282.6124764999986,282.6124764999986,282.6124764999986,282.6124764999986,282.6124764999986,282.6124764999986,,003,P013,2025_Feb_08_1457,ConditionRich,2021.2.3,59.978575652419195,
244.0,247.75,1,0.75,Stimuli/P013/sun_adkmgqclfrkhfxbd.jpg,0,0,0.0,0,107,107,107,,,,,,,,,,,,,243.99981219999972,-0.0001878000002761837,None,282.8293322999998,282.8293322999998,282.8293322999998,282.8293322999998,282.8293322999998,282.8293322999998,282.8293322999998,282.8293322999998,282.8293322999998,282.8293322999998,,003,P013,2025_Feb_08_1457,ConditionRich,2021.2.3,59.978575652419195,
247.75,248.0,41,0.0,Stimuli/Blank.png,0,0,0.0,0,108,108,108,,,,,,,,,,,,,247.75231429999985,0.0023142999998526648,None,286.5827184000009,286.5827184000009,286.5827184000009,286.5827184000009,286.5827184000009,286.5827184000009,286.5827184000009,286.5827184000009,286.5827184000009,286.5827184000009,,003,P013,2025_Feb_08_1457,ConditionRich,2021.2.3,59.978575652419195,
248.0,251.75,11,0.75,Stimuli/P013/sun_bfyxzbjsvqsobbky.jpg,0,0,0.0,0,109,109,109,,,,,,,,,,,,,248.0052384999981,0.005238499998085899,None,286.84956669999883,286.84956669999883,286.84956669999883,286.84956669999883,286.84956669999883,286.84956669999883,286.84956669999883,286.84956669999883,286.84956669999883,286.84956669999883,,003,P013,2025_Feb_08_1457,ConditionRich,2021.2.3,59.978575652419195,
251.75,252.0,41,0.0,Stimuli/Blank.png,0,0,0.0,0,110,110,110,,,,,,,,,,,,,251.77355790000001,0.023557900000014342,None,290.60288500000024,290.60288500000024,290.60288500000024,290.60288500000024,290.60288500000024,290.60288500000024,290.60288500000024,290.60288500000024,290.60288500000024,290.60288500000024,,003,P013,2025_Feb_08_1457,ConditionRich,2021.2.3,59.978575652419195,
252.0,255.75,8,0.75,Stimuli/P013/sun_auqrilekgmdmrncq.jpg,0,0,0.0,0,111,111,111,,,,,,,,,,,,,252.00701189999745,0.00701189999745111,None,290.83640820000073,290.83640820000073,290.83640820000073,290.83640820000073,290.83640820000073,290.83640820000073,290.83640820000073,290.83640820000073,290.83640820000073,290.83640820000073,,003,P013,2025_Feb_08_1457,ConditionRich,2021.2.3,59.978575652419195,
255.75,256.0,41,0.0,Stimuli/Blank.png,0,0,0.0,0,112,112,112,,,,,,,,,,,,,255.76028089999818,0.010280899998178938,None,294.5897316999981,294.5897316999981,294.5897316999981,294.5897316999981,294.5897316999981,294.5897316999981,294.5897316999981,294.5897316999981,294.5897316999981,294.5897316999981,,003,P013,2025_Feb_08_1457,ConditionRich,2021.2.3,59.978575652419195,
256.0,259.75,6,0.75,Stimuli/P013/sun_aoejkkmwkfegacni.jpg,1,3,3.75,0,113,113,113,,,,,,,,,,,,,256.010488099997,0.010488099997019162,None,294.83994789999997,294.83994789999997,294.83994789999997,294.83994789999997,294.83994789999997,294.83994789999997,297.82591859999957,298.5766550999979,294.83994789999997,294.83994789999997,,003,P013,2025_Feb_08_1457,ConditionRich,2021.2.3,59.978575652419195,
259.75,260.0,41,0.0,Stimuli/Blank.png,0,0,0.0,0,114,114,114,,,,,,,,,,,,,259.7667008999997,0.016700899999705143,None,298.61033699999825,298.61033699999825,298.61033699999825,298.61033699999825,298.61033699999825,298.61033699999825,298.61033699999825,298.61033699999825,298.61033699999825,298.61033699999825,,003,P013,2025_Feb_08_1457,ConditionRich,2021.2.3,59.978575652419195,
260.0,263.75,16,0.75,Stimuli/P013/sun_bsgtkqjrnrvttrax.jpg,0,0,0.0,0,115,115,115,,,,,,,,,,,,,260.01537129999997,0.015371299999969779,1,298.8601760999991,298.8601760999991,298.8601760999991,298.8601760999991,298.8601760999991,298.8601760999991,298.8601760999991,298.8601760999991,298.8601760999991,298.8601760999991,3.3359948999968765,003,P013,2025_Feb_08_1457,ConditionRich,2021.2.3,59.978575652419195,
263.75,264.0,41,0.0,Stimuli/Blank.png,0,0,0.0,0,116,116,116,,,,,,,,,,,,,263.7672942999998,0.01729429999977583,None,302.5968064000008,302.5968064000008,302.5968064000008,302.5968064000008,302.5968064000008,302.5968064000008,302.5968064000008,302.5968064000008,302.5968064000008,302.5968064000008,,003,P013,2025_Feb_08_1457,ConditionRich,2021.2.3,59.978575652419195,
264.0,267.75,2,0.75,Stimuli/P013/sun_adotnsaifoooswkf.jpg,0,0,0.0,0,117,117,117,,,,,,,,,,,,,264.00070779999805,0.0007077999980538152,None,302.83035069999823,302.83035069999823,302.83035069999823,302.83035069999823,302.83035069999823,302.83035069999823,302.83035069999823,302.83035069999823,302.83035069999823,302.83035069999823,,003,P013,2025_Feb_08_1457,ConditionRich,2021.2.3,59.978575652419195,
267.75,268.0,41,0.0,Stimuli/Blank.png,0,0,0.0,0,118,118,118,,,,,,,,,,,,,267.75356009999814,0.0035600999981397763,None,306.5837165000012,306.5837165000012,306.5837165000012,306.5837165000012,306.5837165000012,306.5837165000012,306.5837165000012,306.5837165000012,306.5837165000012,306.5837165000012,,003,P013,2025_Feb_08_1457,ConditionRich,2021.2.3,59.978575652419195,
268.0,271.75,35,0.75,Stimuli/P013/things_road_sign_07s.jpg,0,0,0.0,0,119,119,119,,,,,,,,,,,,,268.00435509999807,0.0043550999980652705,None,306.8339659999983,306.8339659999983,306.8339659999983,306.8339659999983,306.8339659999983,306.8339659999983,306.8339659999983,306.8339659999983,306.8339659999983,306.8339659999983,,003,P013,2025_Feb_08_1457,ConditionRich,2021.2.3,59.978575652419195,
271.75,272.0,41,0.0,Stimuli/Blank.png,0,0,0.0,0,120,120,120,,,,,,,,,,,,,271.75788009999815,0.007880099998146761,None,310.58719550000023,310.58719550000023,310.58719550000023,310.58719550000023,310.58719550000023,310.58719550000023,310.58719550000023,310.58719550000023,310.58719550000023,310.58719550000023,,003,P013,2025_Feb_08_1457,ConditionRich,2021.2.3,59.978575652419195,
272.0,275.75,39,0.75,Stimuli/P013/things_violin_07n.jpg,0,0,0.0,0,121,121,121,,,,,,,,,,,,,272.00722459999815,0.0072245999981532805,None,310.8374483999978,310.8374483999978,310.8374483999978,310.8374483999978,310.8374483999978,310.8374483999978,310.8374483999978,310.8374483999978,310.8374483999978,310.8374483999978,,003,P013,2025_Feb_08_1457,ConditionRich,2021.2.3,59.978575652419195,
275.75,276.0,41,0.0,Stimuli/Blank.png,0,0,0.0,0,122,122,122,,,,,,,,,,,,,275.7605984999973,0.010598499997286126,None,314.5907509999997,314.5907509999997,314.5907509999997,314.5907509999997,314.5907509999997,314.5907509999997,314.5907509999997,314.5907509999997,314.5907509999997,314.5907509999997,,003,P013,2025_Feb_08_1457,ConditionRich,2021.2.3,59.978575652419195,
276.0,292.0,0,0.0,Stimuli/Blank.png,1,11,11.75,0,123,123,123,,,,,,,,,,,,,276.0116943999965,0.011694399996486027,1,314.8576647000009,314.8576647000009,314.8576647000009,314.8576647000009,314.8576647000009,314.8576647000009,325.8340296999995,326.5847103999986,314.8576647000009,314.8576647000009,11.767393599999195,003,P013,2025_Feb_08_1457,ConditionRich,2021.2.3,59.978575652419195,
292.0,295.75,29,0.75,Stimuli/P013/things_iguana_07s.jpg,0,0,0.0,0,124,124,124,,,,,,,,,,,,,292.0262354999977,0.026235499997710576,None,330.85514259999763,330.85514259999763,330.85514259999763,330.85514259999763,330.85514259999763,330.85514259999763,330.85514259999763,330.85514259999763,330.85514259999763,330.85514259999763,,003,P013,2025_Feb_08_1457,ConditionRich,2021.2.3,59.978575652419195,
295.75,296.0,41,0.0,Stimuli/Blank.png,0,0,0.0,0,125,125,125,,,,,,,,,,,,,295.76142759999857,0.011427599998569349,None,334.591781799998,334.591781799998,334.591781799998,334.591781799998,334.591781799998,334.591781799998,334.591781799998,334.591781799998,334.591781799998,334.591781799998,,003,P013,2025_Feb_08_1457,ConditionRich,2021.2.3,59.978575652419195,
296.0,299.75,7,0.75,Stimuli/P013/sun_aojplsluiikxrfxc.jpg,0,0,0.0,0,126,126,126,,,,,,,,,,,,,296.0124455999976,0.012445599997590762,None,334.8420054999988,334.8420054999988,334.8420054999988,334.8420054999988,334.8420054999988,334.8420054999988,334.8420054999988,334.8420054999988,334.8420054999988,334.8420054999988,,003,P013,2025_Feb_08_1457,ConditionRich,2021.2.3,59.978575652419195,
299.75,300.0,41,0.0,Stimuli/Blank.png,0,0,0.0,0,127,127,127,,,,,,,,,,,,,299.74909959999786,-0.0009004000021377578,None,338.57861729999786,338.57861729999786,338.57861729999786,338.57861729999786,338.57861729999786,338.57861729999786,338.57861729999786,338.57861729999786,338.57861729999786,338.57861729999786,,003,P013,2025_Feb_08_1457,ConditionRich,2021.2.3,59.978575652419195,
300.0,303.75,26,0.75,Stimuli/P013/things_cougar_07s.jpg,0,0,0.0,0,128,128,128,,,,,,,,,,,,,299.9996177999965,-0.00038220000351429917,None,338.8455423999985,338.8455423999985,338.8455423999985,338.8455423999985,338.8455423999985,338.8455423999985,338.8455423999985,338.8455423999985,338.8455423999985,338.8455423999985,,003,P013,2025_Feb_08_1457,ConditionRich,2021.2.3,59.978575652419195,
303.75,304.0,41,0.0,Stimuli/Blank.png,0,0,0.0,0,129,129,129,,,,,,,,,,,,,303.7710083999991,0.02100839999911841,None,342.6155464000003,342.6155464000003,342.6155464000003,342.6155464000003,342.6155464000003,342.6155464000003,342.6155464000003,342.6155464000003,342.6155464000003,342.6155464000003,,003,P013,2025_Feb_08_1457,ConditionRich,2021.2.3,59.978575652419195,
304.0,307.75,4,0.75,Stimuli/P013/sun_afgoiykvchxqotyz.jpg,0,0,0.0,0,130,130,130,,,,,,,,,,,,,304.0200941999974,0.02009419999740203,None,342.8657944000006,342.8657944000006,342.8657944000006,342.8657944000006,342.8657944000006,342.8657944000006,342.8657944000006,342.8657944000006,342.8657944000006,342.8657944000006,,003,P013,2025_Feb_08_1457,ConditionRich,2021.2.3,59.978575652419195,
307.75,308.0,41,0.0,Stimuli/Blank.png,0,0,0.0,0,131,131,131,,,,,,,,,,,,,307.7734292999994,0.023429299999406794,None,346.6024112999985,346.6024112999985,346.6024112999985,346.6024112999985,346.6024112999985,346.6024112999985,346.6024112999985,346.6024112999985,346.6024112999985,346.6024112999985,,003,P013,2025_Feb_08_1457,ConditionRich,2021.2.3,59.978575652419195,
308.0,311.75,32,0.75,Stimuli/P013/things_mistletoe_07s.jpg,1,3,3.75,0,132,132,132,,,,,,,,,,,,,308.00581509999756,0.005815099997562356,None,346.8359350999999,346.8359350999999,346.8359350999999,346.8359350999999,346.8359350999999,346.8359350999999,349.8219133999992,350.57270549999885,346.8359350999999,346.8359350999999,,003,P013,2025_Feb_08_1457,ConditionRich,2021.2.3,59.978575652419195,
311.75,312.0,41,0.0,Stimuli/Blank.png,0,0,0.0,0,133,133,133,,,,,,,,,,,,,311.7606076999982,0.010607699998217868,None,350.6059666000001,350.6059666000001,350.6059666000001,350.6059666000001,350.6059666000001,350.6059666000001,350.6059666000001,350.6059666000001,350.6059666000001,350.6059666000001,,003,P013,2025_Feb_08_1457,ConditionRich,2021.2.3,59.978575652419195,
312.0,315.75,31,0.75,Stimuli/P013/things_mask_07s.jpg,0,0,0.0,0,134,134,134,,,,,,,,,,,,,312.0264156999983,0.02641569999832427,None,350.856130199998,350.856130199998,350.856130199998,350.856130199998,350.856130199998,350.856130199998,350.856130199998,350.856130199998,350.856130199998,350.856130199998,,003,P013,2025_Feb_08_1457,ConditionRich,2021.2.3,59.978575652419195,
315.75,316.0,41,0.0,Stimuli/Blank.png,0,0,0.0,0,135,135,135,,,,,,,,,,,,,315.7633722999999,0.01337229999990086,None,354.5928153999994,354.5928153999994,354.5928153999994,354.5928153999994,354.5928153999994,354.5928153999994,354.5928153999994,354.5928153999994,354.5928153999994,354.5928153999994,,003,P013,2025_Feb_08_1457,ConditionRich,2021.2.3,59.978575652419195,
316.0,319.75,9,0.75,Stimuli/P013/sun_bdgwqzttihopmpbf.jpg,0,0,0.0,0,136,136,136,,,,,,,,,,,,,316.0149640999989,0.014964099998906022,None,354.8597162999977,354.8597162999977,354.8597162999977,354.8597162999977,354.8597162999977,354.8597162999977,354.8597162999977,354.8597162999977,354.8597162999977,354.8597162999977,,003,P013,2025_Feb_08_1457,ConditionRich,2021.2.3,59.978575652419195,
319.75,320.0,41,0.0,Stimuli/Blank.png,0,0,0.0,0,137,137,137,,,,,,,,,,,,,319.7667857999986,0.016785799998615403,None,358.5963491000002,358.5963491000002,358.5963491000002,358.5963491000002,358.5963491000002,358.5963491000002,358.5963491000002,358.5963491000002,358.5963491000002,358.5963491000002,,003,P013,2025_Feb_08_1457,ConditionRich,2021.2.3,59.978575652419195,
320.0,323.75,18,0.75,Stimuli/P013/sun_btohwudpiusfvpvl.jpg,1,0,0.75,0,138,138,138,,,,,,,,,,,,,320.0010666999988,0.0010666999987734016,None,358.84656840000025,358.84656840000025,358.84656840000025,358.84656840000025,358.84656840000025,358.84656840000025,358.84656840000025,359.5638934999988,358.84656840000025,358.84656840000025,,003,P013,2025_Feb_08_1457,ConditionRich,2021.2.3,59.978575652419195,
323.75,324.0,41,0.0,Stimuli/Blank.png,0,0,0.0,0,139,139,139,,,,,,,,,,,,,323.7704874999981,0.020487499998125713,None,362.5998928000008,362.5998928000008,362.5998928000008,362.5998928000008,362.5998928000008,362.5998928000008,362.5998928000008,362.5998928000008,362.5998928000008,362.5998928000008,,003,P013,2025_Feb_08_1457,ConditionRich,2021.2.3,59.978575652419195,
324.0,327.75,21,0.75,Stimuli/P013/things_baby_07s.jpg,0,0,0.0,0,140,140,140,,,,,,,,,,,,,324.00444119999884,0.004441199998836964,None,362.8505093999993,362.8505093999993,362.8505093999993,362.8505093999993,362.8505093999993,362.8505093999993,362.8505093999993,362.8505093999993,362.8505093999993,362.8505093999993,,003,P013,2025_Feb_08_1457,ConditionRich,2021.2.3,59.978575652419195,
327.75,328.0,41,0.0,Stimuli/Blank.png,0,0,0.0,0,141,141,141,,,,,,,,,,,,,327.77507539999715,0.02507539999714936,None,366.6201166999999,366.6201166999999,366.6201166999999,366.6201166999999,366.6201166999999,366.6201166999999,366.6201166999999,366.6201166999999,366.6201166999999,366.6201166999999,,003,P013,2025_Feb_08_1457,ConditionRich,2021.2.3,59.978575652419195,
328.0,331.75,14,0.75,Stimuli/P013/sun_bqhfterhwnqrbnzg.jpg,0,0,0.0,0,142,142,142,,,,,,,,,,,,,328.024395299999,0.02439529999901424,None,366.8703304999981,366.8703304999981,366.8703304999981,366.8703304999981,366.8703304999981,366.8703304999981,366.8703304999981,366.8703304999981,366.8703304999981,366.8703304999981,,003,P013,2025_Feb_08_1457,ConditionRich,2021.2.3,59.978575652419195,
331.75,332.0,41,0.0,Stimuli/Blank.png,0,0,0.0,0,143,143,143,,,,,,,,,,,,,331.7772643999997,0.027264399999694433,None,370.6069596999987,370.6069596999987,370.6069596999987,370.6069596999987,370.6069596999987,370.6069596999987,370.6069596999987,370.6069596999987,370.6069596999987,370.6069596999987,,003,P013,2025_Feb_08_1457,ConditionRich,2021.2.3,59.978575652419195,
332.0,335.75,10,0.75,Stimuli/P013/sun_bdhxnzyleoiflyak.jpg,0,0,0.0,0,144,144,144,,,,,,,,,,,,,332.0114963999986,0.011496399998577544,None,370.84050529999877,370.84050529999877,370.84050529999877,370.84050529999877,370.84050529999877,370.84050529999877,370.84050529999877,370.84050529999877,370.84050529999877,370.84050529999877,,003,P013,2025_Feb_08_1457,ConditionRich,2021.2.3,59.978575652419195,
335.75,336.0,41,0.0,Stimuli/Blank.png,0,0,0.0,0,145,145,145,,,,,,,,,,,,,335.76484939999864,0.014849399998638546,None,374.593841599999,374.593841599999,374.593841599999,374.593841599999,374.593841599999,374.593841599999,374.593841599999,374.593841599999,374.593841599999,374.593841599999,,003,P013,2025_Feb_08_1457,ConditionRich,2021.2.3,59.978575652419195,
336.0,339.75,27,0.75,Stimuli/P013/things_face_07s.jpg,0,0,0.0,0,146,146,146,,,,,,,,,,,,,336.01375109999935,0.013751099999353755,None,374.84405049999987,374.84405049999987,374.84405049999987,374.84405049999987,374.84405049999987,374.84405049999987,374.84405049999987,374.84405049999987,374.84405049999987,374.84405049999987,,003,P013,2025_Feb_08_1457,ConditionRich,2021.2.3,59.978575652419195,
339.75,340.0,41,0.0,Stimuli/Blank.png,0,0,0.0,0,147,147,147,,,,,,,,,,,,,339.7503674999971,0.00036749999708263204,None,378.5806878000003,378.5806878000003,378.5806878000003,378.5806878000003,378.5806878000003,378.5806878000003,378.5806878000003,378.5806878000003,378.5806878000003,378.5806878000003,,003,P013,2025_Feb_08_1457,ConditionRich,2021.2.3,59.978575652419195,
340.0,343.75,19,0.75,Stimuli/P013/sun_buphlelowxjnoygy.jpg,0,0,0.0,0,148,148,148,,,,,,,,,,,,,340.0006678999998,0.0006678999998257495,None,378.8309138000004,378.8309138000004,378.8309138000004,378.8309138000004,378.8309138000004,378.8309138000004,378.8309138000004,378.8309138000004,378.8309138000004,378.8309138000004,,003,P013,2025_Feb_08_1457,ConditionRich,2021.2.3,59.978575652419195,
343.75,344.0,41,0.0,Stimuli/Blank.png,0,0,0.0,0,149,149,149,,,,,,,,,,,,,343.75617529999727,0.006175299997266848,None,382.60092090000035,382.60092090000035,382.60092090000035,382.60092090000035,382.60092090000035,382.60092090000035,382.60092090000035,382.60092090000035,382.60092090000035,382.60092090000035,,003,P013,2025_Feb_08_1457,ConditionRich,2021.2.3,59.978575652419195,
344.0,347.75,22,0.75,Stimuli/P013/things_banner_07s.jpg,1,1,1.75,0,150,150,150,,,,,,,,,,,,,344.020864099999,0.020864099999016616,1,382.85112579999986,382.85112579999986,382.85112579999986,382.85112579999986,382.85112579999986,382.85112579999986,383.83533929999976,384.58600809999916,382.85112579999986,382.85112579999986,1.4559709999994084,003,P013,2025_Feb_08_1457,ConditionRich,2021.2.3,59.978575652419195,
347.75,348.0,41,0.0,Stimuli/Blank.png,0,0,0.0,0,151,151,151,,,,,,,,,,,,,347.7576270999998,0.007627099999808706,None,386.58777439999903,386.58777439999903,386.58777439999903,386.58777439999903,386.58777439999903,386.58777439999903,386.58777439999903,386.58777439999903,386.58777439999903,386.58777439999903,,003,P013,2025_Feb_08_1457,ConditionRich,2021.2.3,59.978575652419195,
348.0,351.75,5,0.75,Stimuli/P013/sun_aidrxvbfhxtsusrf.jpg,0,0,0.0,0,152,152,152,,,,,,,,,,,,,348.00787969999874,0.007879699998738943,None,386.83798939999906,386.83798939999906,386.83798939999906,386.83798939999906,386.83798939999906,386.83798939999906,386.83798939999906,386.83798939999906,386.83798939999906,386.83798939999906,,003,P013,2025_Feb_08_1457,ConditionRich,2021.2.3,59.978575652419195,
351.75,352.0,41,0.0,Stimuli/Blank.png,0,0,0.0,0,153,153,153,,,,,,,,,,,,,351.7623184999975,0.012318499997491017,None,390.59131329999946,390.59131329999946,390.59131329999946,390.59131329999946,390.59131329999946,390.59131329999946,390.59131329999946,390.59131329999946,390.59131329999946,390.59131329999946,,003,P013,2025_Feb_08_1457,ConditionRich,2021.2.3,59.978575652419195,
352.0,355.75,34,0.75,Stimuli/P013/things_radio_07s.jpg,0,0,0.0,0,154,154,154,,,,,,,,,,,,,352.0119162999981,0.011916299998119939,None,390.8582370000004,390.8582370000004,390.8582370000004,390.8582370000004,390.8582370000004,390.8582370000004,390.8582370000004,390.8582370000004,390.8582370000004,390.8582370000004,,003,P013,2025_Feb_08_1457,ConditionRich,2021.2.3,59.978575652419195,
355.75,356.0,41,0.0,Stimuli/Blank.png,0,0,0.0,0,155,155,155,,,,,,,,,,,,,355.78194959999746,0.03194959999746061,None,394.6115456000007,394.6115456000007,394.6115456000007,394.6115456000007,394.6115456000007,394.6115456000007,394.6115456000007,394.6115456000007,394.6115456000007,394.6115456000007,,003,P013,2025_Feb_08_1457,ConditionRich,2021.2.3,59.978575652419195,
356.0,359.75,36,0.75,Stimuli/P013/things_seafood_07s.jpg,1,0,0.75,0,156,156,156,,,,,,,,,,,,,356.0154156999997,0.015415699999721255,1,394.84508070000084,394.84508070000084,394.84508070000084,394.84508070000084,394.84508070000084,394.84508070000084,394.84508070000084,395.5790620999978,394.84508070000084,394.84508070000084,1.0112235999986297,003,P013,2025_Feb_08_1457,ConditionRich,2021.2.3,59.978575652419195,
359.75,360.0,41,0.0,Stimuli/Blank.png,0,0,0.0,0,157,157,157,,,,,,,,,,,,,359.75153429999773,0.0015342999977292493,None,398.581710800001,398.581710800001,398.581710800001,398.581710800001,398.581710800001,398.581710800001,398.581710800001,398.581710800001,398.581710800001,398.581710800001,,003,P013,2025_Feb_08_1457,ConditionRich,2021.2.3,59.978575652419195,
360.0,363.75,23,0.75,Stimuli/P013/things_bug_07s.jpg,0,0,0.0,0,158,158,158,,,,,,,,,,,,,360.0017614999997,0.0017614999997022096,None,398.83193109999775,398.83193109999775,398.83193109999775,398.83193109999775,398.83193109999775,398.83193109999775,398.83193109999775,398.83193109999775,398.83193109999775,398.83193109999775,,003,P013,2025_Feb_08_1457,ConditionRich,2021.2.3,59.978575652419195,
363.75,364.0,41,0.0,Stimuli/Blank.png,0,0,0.0,0,159,159,159,,,,,,,,,,,,,363.7556287999978,0.005628799997793976,None,402.58525569999983,402.58525569999983,402.58525569999983,402.58525569999983,402.58525569999983,402.58525569999983,402.58525569999983,402.58525569999983,402.58525569999983,402.58525569999983,,003,P013,2025_Feb_08_1457,ConditionRich,2021.2.3,59.978575652419195,
364.0,367.75,17,0.75,Stimuli/P013/sun_bsguftphqnrkbedw.jpg,0,0,0.0,0,160,160,160,,,,,,,,,,,,,364.00643429999764,0.006434299997636117,None,402.8521631000003,402.8521631000003,402.8521631000003,402.8521631000003,402.8521631000003,402.8521631000003,402.8521631000003,402.8521631000003,402.8521631000003,402.8521631000003,,003,P013,2025_Feb_08_1457,ConditionRich,2021.2.3,59.978575652419195,
367.75,368.0,41,0.0,Stimuli/Blank.png,0,0,0.0,0,161,161,161,,,,,,,,,,,,,367.77642359999663,0.02642359999663313,None,406.6054785999986,406.6054785999986,406.6054785999986,406.6054785999986,406.6054785999986,406.6054785999986,406.6054785999986,406.6054785999986,406.6054785999986,406.6054785999986,,003,P013,2025_Feb_08_1457,ConditionRich,2021.2.3,59.978575652419195,
368.0,371.75,30,0.75,Stimuli/P013/things_man_07s.jpg,0,0,0.0,0,162,162,162,,,,,,,,,,,,,368.0109201999985,0.010920199998508906,None,406.8557054999983,406.8557054999983,406.8557054999983,406.8557054999983,406.8557054999983,406.8557054999983,406.8557054999983,406.8557054999983,406.8557054999983,406.8557054999983,,003,P013,2025_Feb_08_1457,ConditionRich,2021.2.3,59.978575652419195,
371.75,372.0,41,0.0,Stimuli/Blank.png,0,0,0.0,0,163,163,163,,,,,,,,,,,,,371.78090419999717,0.03090419999716687,None,410.6257048999978,410.6257048999978,410.6257048999978,410.6257048999978,410.6257048999978,410.6257048999978,410.6257048999978,410.6257048999978,410.6257048999978,410.6257048999978,,003,P013,2025_Feb_08_1457,ConditionRich,2021.2.3,59.978575652419195,
372.0,388.0,0,0.0,Stimuli/Blank.png,1,7,7.75,0,164,164,164,,,,,,,,,,,,,372.03107819999786,0.03107819999786443,None,410.8759358999996,410.8759358999996,410.8759358999996,410.8759358999996,410.8759358999996,410.8759358999996,417.8487927999995,418.5994376999988,410.8759358999996,410.8759358999996,,003,P013,2025_Feb_08_1457,ConditionRich,2021.2.3,59.978575652419195,
