eventStartTime,eventEndTime,eventCond,imSize,imFile,responseEvent,fixRespStart,fixRespEnd,Events.thisRepN,Events.thisTrialN,Events.thisN,Events.thisIndex,Instructions.started,Instructions.stopped,participantReadyResponse.keys,participantReadyResponse.rt,participantReadyResponse.started,participantReadyResponse.stopped,startWaitforTrigger,triggerResponse.keys,triggerResponse.rt,triggerResponse.started,triggerResponse.stopped,globalTimer,actualStartTime,startTimingDiff,participantResponse.keys,participantResponse.started,participantResponse.stopped,image.started,image.stopped,fixationOutside.started,fixationOutside.stopped,fixationResponse.started,fixationResponse.stopped,fixationInside.started,fixationInside.stopped,participantResponse.rt,session,participant,date,expName,psychopyVersion,frameRate,
,,,,,,,,,,,,12.322670099998504,None,1,7.541825700001937,12.322670099998504,None,,,,,,,,,,,,,,,,,,,,,002,P013,2025_Feb_08_1450,ConditionRich,2021.2.3,59.93109123160806,
,,,,,,,,,,,,,,,,,,19.877957000000606,5,13.744446600001538,19.891030499999033,None,,,,,,,,,,,,,,,,002,P013,2025_Feb_08_1450,ConditionRich,2021.2.3,59.93109123160806,
0.0,4.0,0,0.0,Stimuli/Blank.png,0,0,0.0,0,0,0,0,,,,,,,,,,,,33.64134449999983,0.06146049999733805,0.06146049999733805,None,33.719948199999635,None,33.719948199999635,None,33.719948199999635,None,33.719948199999635,33.719948199999635,33.719948199999635,None,,002,P013,2025_Feb_08_1450,ConditionRich,2021.2.3,59.93109123160806,
4.0,4.75,40,0.75,Stimuli/P013/things_woman_07s.jpg,0,0,0.0,0,1,1,1,,,,,,,,,,,,,4.019330600000103,0.019330600000103004,1,37.673758900000394,37.673758900000394,37.673758900000394,37.673758900000394,37.673758900000394,37.673758900000394,37.673758900000394,37.673758900000394,37.673758900000394,37.673758900000394,0.6655873000017891,002,P013,2025_Feb_08_1450,ConditionRich,2021.2.3,59.93109123160806,
4.75,5.0,41,0.0,Stimuli/Blank.png,0,0,0.0,0,2,2,2,,,,,,,,,,,,,4.752032599997619,0.0020325999976194,None,38.407736100001785,38.407736100001785,38.407736100001785,38.407736100001785,38.407736100001785,38.407736100001785,38.407736100001785,38.407736100001785,38.407736100001785,38.407736100001785,,002,P013,2025_Feb_08_1450,ConditionRich,2021.2.3,59.93109123160806,
5.0,5.75,40,0.75,Stimuli/P013/things_woman_07s.jpg,0,0,0.0,0,3,3,3,,,,,,,,,,,,,5.001935599997523,0.0019355999975232407,None,38.65764150000177,38.65764150000177,38.65764150000177,38.65764150000177,38.65764150000177,38.65764150000177,38.65764150000177,38.65764150000177,38.65764150000177,38.65764150000177,,002,P013,2025_Feb_08_1450,ConditionRich,2021.2.3,59.93109123160806,
5.75,6.0,41,0.0,Stimuli/Blank.png,0,0,0.0,0,4,4,4,,,,,,,,,,,,,5.753136499999528,0.0031364999995275866,None,39.408315100001346,39.408315100001346,39.408315100001346,39.408315100001346,39.408315100001346,39.408315100001346,39.408315100001346,39.408315100001346,39.408315100001346,39.408315100001346,,002,P013,2025_Feb_08_1450,ConditionRich,2021.2.3,59.93109123160806,
6.0,6.75,40,0.75,Stimuli/P013/things_woman_07s.jpg,0,0,0.0,0,5,5,5,,,,,,,,,,,,,6.002620699997351,0.002620699997351039,None,39.6752505000004,39.6752505000004,39.6752505000004,39.6752505000004,39.6752505000004,39.6752505000004,39.6752505000004,39.6752505000004,39.6752505000004,39.6752505000004,,002,P013,2025_Feb_08_1450,ConditionRich,2021.2.3,59.93109123160806,
6.75,7.0,41,0.0,Stimuli/Blank.png,0,0,0.0,0,6,6,6,,,,,,,,,,,,,6.769833799997286,0.019833799997286405,None,40.425867500001914,40.425867500001914,40.425867500001914,40.425867500001914,40.425867500001914,40.425867500001914,40.425867500001914,40.425867500001914,40.425867500001914,40.425867500001914,,002,P013,2025_Feb_08_1450,ConditionRich,2021.2.3,59.93109123160806,
7.0,7.75,40,0.75,Stimuli/P013/things_woman_07s.jpg,0,0,0.0,0,7,7,7,,,,,,,,,,,,,7.006031799999619,0.00603179999961867,None,40.67609309999898,40.67609309999898,40.67609309999898,40.67609309999898,40.67609309999898,40.67609309999898,40.67609309999898,40.67609309999898,40.67609309999898,40.67609309999898,,002,P013,2025_Feb_08_1450,ConditionRich,2021.2.3,59.93109123160806,
7.75,8.0,41,0.0,Stimuli/Blank.png,0,0,0.0,0,8,8,8,,,,,,,,,,,,,7.771814899999299,0.021814899999299087,None,41.42675560000134,41.42675560000134,41.42675560000134,41.42675560000134,41.42675560000134,41.42675560000134,41.42675560000134,41.42675560000134,41.42675560000134,41.42675560000134,,002,P013,2025_Feb_08_1450,ConditionRich,2021.2.3,59.93109123160806,
8.0,8.75,11,0.75,Stimuli/P013/sun_bfyxzbjsvqsobbky.jpg,0,0,0.0,0,9,9,9,,,,,,,,,,,,,8.004317799997807,0.004317799997807015,None,41.66026179999972,41.66026179999972,41.66026179999972,41.66026179999972,41.66026179999972,41.66026179999972,41.66026179999972,41.66026179999972,41.66026179999972,41.66026179999972,,002,P013,2025_Feb_08_1450,ConditionRich,2021.2.3,59.93109123160806,
8.75,9.0,41,0.0,Stimuli/Blank.png,0,0,0.0,0,10,10,10,,,,,,,,,,,,,8.756178999999975,0.0061789999999746215,None,42.41098499999862,42.41098499999862,42.41098499999862,42.41098499999862,42.41098499999862,42.41098499999862,42.41098499999862,42.41098499999862,42.41098499999862,42.41098499999862,,002,P013,2025_Feb_08_1450,ConditionRich,2021.2.3,59.93109123160806,
9.0,9.75,11,0.75,Stimuli/P013/sun_bfyxzbjsvqsobbky.jpg,0,0,0.0,0,11,11,11,,,,,,,,,,,,,9.00583049999841,0.005830499998410232,None,42.677885199998855,42.677885199998855,42.677885199998855,42.677885199998855,42.677885199998855,42.677885199998855,42.677885199998855,42.677885199998855,42.677885199998855,42.677885199998855,,002,P013,2025_Feb_08_1450,ConditionRich,2021.2.3,59.93109123160806,
9.75,10.0,41,0.0,Stimuli/Blank.png,0,0,0.0,0,12,12,12,,,,,,,,,,,,,9.772698699998728,0.022698699998727534,None,43.42852520000088,43.42852520000088,43.42852520000088,43.42852520000088,43.42852520000088,43.42852520000088,43.42852520000088,43.42852520000088,43.42852520000088,43.42852520000088,,002,P013,2025_Feb_08_1450,ConditionRich,2021.2.3,59.93109123160806,
10.0,10.75,11,0.75,Stimuli/P013/sun_bfyxzbjsvqsobbky.jpg,1,0,0.75,0,13,13,13,,,,,,,,,,,,,10.006226899997273,0.006226899997272994,1,43.662022100001195,43.662022100001195,43.662022100001195,43.662022100001195,43.662022100001195,43.662022100001195,43.662022100001195,44.396041899999545,43.662022100001195,43.662022100001195,0.41234540000004927,002,P013,2025_Feb_08_1450,ConditionRich,2021.2.3,59.93109123160806,
10.75,11.0,41,0.0,Stimuli/Blank.png,0,0,0.0,0,14,14,14,,,,,,,,,,,,,10.756793699998525,0.006793699998524971,None,44.41272570000001,44.41272570000001,44.41272570000001,44.41272570000001,44.41272570000001,44.41272570000001,44.41272570000001,44.41272570000001,44.41272570000001,44.41272570000001,,002,P013,2025_Feb_08_1450,ConditionRich,2021.2.3,59.93109123160806,
11.0,11.75,11,0.75,Stimuli/P013/sun_bfyxzbjsvqsobbky.jpg,0,0,0.0,0,15,15,15,,,,,,,,,,,,,11.007037100000161,0.007037100000161445,None,44.663517600001796,44.663517600001796,44.663517600001796,44.663517600001796,44.663517600001796,44.663517600001796,44.663517600001796,44.663517600001796,44.663517600001796,44.663517600001796,,002,P013,2025_Feb_08_1450,ConditionRich,2021.2.3,59.93109123160806,
11.75,12.0,41,0.0,Stimuli/Blank.png,0,0,0.0,0,16,16,16,,,,,,,,,,,,,11.758325999999215,0.008325999999215128,None,45.413615199999185,45.413615199999185,45.413615199999185,45.413615199999185,45.413615199999185,45.413615199999185,45.413615199999185,45.413615199999185,45.413615199999185,45.413615199999185,,002,P013,2025_Feb_08_1450,ConditionRich,2021.2.3,59.93109123160806,
12.0,12.75,6,0.75,Stimuli/P013/sun_aoejkkmwkfegacni.jpg,0,0,0.0,0,17,17,17,,,,,,,,,,,,,12.00792089999959,0.007920899999589892,None,45.68053439999858,45.68053439999858,45.68053439999858,45.68053439999858,45.68053439999858,45.68053439999858,45.68053439999858,45.68053439999858,45.68053439999858,45.68053439999858,,002,P013,2025_Feb_08_1450,ConditionRich,2021.2.3,59.93109123160806,
12.75,13.0,41,0.0,Stimuli/Blank.png,0,0,0.0,0,18,18,18,,,,,,,,,,,,,12.775873099999444,0.025873099999444094,None,46.431191700001364,46.431191700001364,46.431191700001364,46.431191700001364,46.431191700001364,46.431191700001364,46.431191700001364,46.431191700001364,46.431191700001364,46.431191700001364,,002,P013,2025_Feb_08_1450,ConditionRich,2021.2.3,59.93109123160806,
13.0,13.75,6,0.75,Stimuli/P013/sun_aoejkkmwkfegacni.jpg,0,0,0.0,0,19,19,19,,,,,,,,,,,,,13.011570599999686,0.011570599999686237,None,46.68140130000029,46.68140130000029,46.68140130000029,46.68140130000029,46.68140130000029,46.68140130000029,46.68140130000029,46.68140130000029,46.68140130000029,46.68140130000029,,002,P013,2025_Feb_08_1450,ConditionRich,2021.2.3,59.93109123160806,
13.75,14.0,41,0.0,Stimuli/Blank.png,0,0,0.0,0,20,20,20,,,,,,,,,,,,,13.776237300000503,0.026237300000502728,None,47.43206420000206,47.43206420000206,47.43206420000206,47.43206420000206,47.43206420000206,47.43206420000206,47.43206420000206,47.43206420000206,47.43206420000206,47.43206420000206,,002,P013,2025_Feb_08_1450,ConditionRich,2021.2.3,59.93109123160806,
14.0,14.75,6,0.75,Stimuli/P013/sun_aoejkkmwkfegacni.jpg,0,0,0.0,0,21,21,21,,,,,,,,,,,,,14.009979299997212,0.009979299997212365,None,47.66560659999959,47.66560659999959,47.66560659999959,47.66560659999959,47.66560659999959,47.66560659999959,47.66560659999959,47.66560659999959,47.66560659999959,47.66560659999959,,002,P013,2025_Feb_08_1450,ConditionRich,2021.2.3,59.93109123160806,
14.75,15.0,41,0.0,Stimuli/Blank.png,0,0,0.0,0,22,22,22,,,,,,,,,,,,,14.761853199997859,0.01185319999785861,None,48.43297729999904,48.43297729999904,48.43297729999904,48.43297729999904,48.43297729999904,48.43297729999904,48.43297729999904,48.43297729999904,48.43297729999904,48.43297729999904,,002,P013,2025_Feb_08_1450,ConditionRich,2021.2.3,59.93109123160806,
15.0,15.75,6,0.75,Stimuli/P013/sun_aoejkkmwkfegacni.jpg,0,0,0.0,0,23,23,23,,,,,,,,,,,,,15.028054299997166,0.0280542999971658,None,48.699856800001726,48.699856800001726,48.699856800001726,48.699856800001726,48.699856800001726,48.699856800001726,48.699856800001726,48.699856800001726,48.699856800001726,48.699856800001726,,002,P013,2025_Feb_08_1450,ConditionRich,2021.2.3,59.93109123160806,
15.75,16.0,41,0.0,Stimuli/Blank.png,0,0,0.0,0,24,24,24,,,,,,,,,,,,,15.780796099999861,0.030796099999861326,None,49.45052510000096,49.45052510000096,49.45052510000096,49.45052510000096,49.45052510000096,49.45052510000096,49.45052510000096,49.45052510000096,49.45052510000096,49.45052510000096,,002,P013,2025_Feb_08_1450,ConditionRich,2021.2.3,59.93109123160806,
16.0,16.75,4,0.75,Stimuli/P013/sun_afgoiykvchxqotyz.jpg,0,0,0.0,0,25,25,25,,,,,,,,,,,,,16.031058999997185,0.03105899999718531,None,49.701225000000704,49.701225000000704,49.701225000000704,49.701225000000704,49.701225000000704,49.701225000000704,49.701225000000704,49.701225000000704,49.701225000000704,49.701225000000704,,002,P013,2025_Feb_08_1450,ConditionRich,2021.2.3,59.93109123160806,
16.75,17.0,41,0.0,Stimuli/Blank.png,0,0,0.0,0,26,26,26,,,,,,,,,,,,,16.78005789999952,0.030057899999519577,None,50.434732599998824,50.434732599998824,50.434732599998824,50.434732599998824,50.434732599998824,50.434732599998824,50.434732599998824,50.434732599998824,50.434732599998824,50.434732599998824,,002,P013,2025_Feb_08_1450,ConditionRich,2021.2.3,59.93109123160806,
17.0,17.75,4,0.75,Stimuli/P013/sun_afgoiykvchxqotyz.jpg,0,0,0.0,0,27,27,27,,,,,,,,,,,,,17.012635399998544,0.012635399998544017,None,50.68494970000029,50.68494970000029,50.68494970000029,50.68494970000029,50.68494970000029,50.68494970000029,50.68494970000029,50.68494970000029,50.68494970000029,50.68494970000029,,002,P013,2025_Feb_08_1450,ConditionRich,2021.2.3,59.93109123160806,
17.75,18.0,41,0.0,Stimuli/Blank.png,0,0,0.0,0,28,28,28,,,,,,,,,,,,,17.779884999999922,0.029884999999922,None,51.435598299998674,51.435598299998674,51.435598299998674,51.435598299998674,51.435598299998674,51.435598299998674,51.435598299998674,51.435598299998674,51.435598299998674,51.435598299998674,,002,P013,2025_Feb_08_1450,ConditionRich,2021.2.3,59.93109123160806,
18.0,18.75,4,0.75,Stimuli/P013/sun_afgoiykvchxqotyz.jpg,0,0,0.0,0,29,29,29,,,,,,,,,,,,,18.01364470000044,0.013644700000440935,None,51.68584929999997,51.68584929999997,51.68584929999997,51.68584929999997,51.68584929999997,51.68584929999997,51.68584929999997,51.68584929999997,51.68584929999997,51.68584929999997,,002,P013,2025_Feb_08_1450,ConditionRich,2021.2.3,59.93109123160806,
18.75,19.0,41,0.0,Stimuli/Blank.png,0,0,0.0,0,30,30,30,,,,,,,,,,,,,18.781206600000587,0.03120660000058706,None,52.43650310000157,52.43650310000157,52.43650310000157,52.43650310000157,52.43650310000157,52.43650310000157,52.43650310000157,52.43650310000157,52.43650310000157,52.43650310000157,,002,P013,2025_Feb_08_1450,ConditionRich,2021.2.3,59.93109123160806,
19.0,19.75,4,0.75,Stimuli/P013/sun_afgoiykvchxqotyz.jpg,0,0,0.0,0,31,31,31,,,,,,,,,,,,,19.016168999998627,0.016168999998626532,None,52.68671650000033,52.68671650000033,52.68671650000033,52.68671650000033,52.68671650000033,52.68671650000033,52.68671650000033,52.68671650000033,52.68671650000033,52.68671650000033,,002,P013,2025_Feb_08_1450,ConditionRich,2021.2.3,59.93109123160806,
19.75,20.0,41,0.0,Stimuli/Blank.png,0,0,0.0,0,32,32,32,,,,,,,,,,,,,19.7653610999987,0.015361099998699501,None,53.42070489999969,53.42070489999969,53.42070489999969,53.42070489999969,53.42070489999969,53.42070489999969,53.42070489999969,53.42070489999969,53.42070489999969,53.42070489999969,,002,P013,2025_Feb_08_1450,ConditionRich,2021.2.3,59.93109123160806,
20.0,20.75,3,0.75,Stimuli/P013/sun_aengzsmykwchlrdn.jpg,0,0,0.0,0,33,33,33,,,,,,,,,,,,,20.014856199999485,0.014856199999485398,None,53.670915499998955,53.670915499998955,53.670915499998955,53.670915499998955,53.670915499998955,53.670915499998955,53.670915499998955,53.670915499998955,53.670915499998955,53.670915499998955,,002,P013,2025_Feb_08_1450,ConditionRich,2021.2.3,59.93109123160806,
20.75,21.0,41,0.0,Stimuli/Blank.png,0,0,0.0,0,34,34,34,,,,,,,,,,,,,20.76625050000075,0.016250500000751344,None,54.421579500001826,54.421579500001826,54.421579500001826,54.421579500001826,54.421579500001826,54.421579500001826,54.421579500001826,54.421579500001826,54.421579500001826,54.421579500001826,,002,P013,2025_Feb_08_1450,ConditionRich,2021.2.3,59.93109123160806,
21.0,21.75,3,0.75,Stimuli/P013/sun_aengzsmykwchlrdn.jpg,0,0,0.0,0,35,35,35,,,,,,,,,,,,,21.00001379999958,1.3799999578623101e-05,None,54.672285500000726,54.672285500000726,54.672285500000726,54.672285500000726,54.672285500000726,54.672285500000726,54.672285500000726,54.672285500000726,54.672285500000726,54.672285500000726,,002,P013,2025_Feb_08_1450,ConditionRich,2021.2.3,59.93109123160806,
21.75,22.0,41,0.0,Stimuli/Blank.png,0,0,0.0,0,36,36,36,,,,,,,,,,,,,21.766475899999932,0.016475899999932153,None,55.42246199999863,55.42246199999863,55.42246199999863,55.42246199999863,55.42246199999863,55.42246199999863,55.42246199999863,55.42246199999863,55.42246199999863,55.42246199999863,,002,P013,2025_Feb_08_1450,ConditionRich,2021.2.3,59.93109123160806,
22.0,22.75,3,0.75,Stimuli/P013/sun_aengzsmykwchlrdn.jpg,0,0,0.0,0,37,37,37,,,,,,,,,,,,,22.00089029999799,0.0008902999979909509,None,55.672710599999846,55.672710599999846,55.672710599999846,55.672710599999846,55.672710599999846,55.672710599999846,55.672710599999846,55.672710599999846,55.672710599999846,55.672710599999846,,002,P013,2025_Feb_08_1450,ConditionRich,2021.2.3,59.93109123160806,
22.75,23.0,41,0.0,Stimuli/Blank.png,0,0,0.0,0,38,38,38,,,,,,,,,,,,,22.7679384999974,0.01793849999739905,None,56.42335190000085,56.42335190000085,56.42335190000085,56.42335190000085,56.42335190000085,56.42335190000085,56.42335190000085,56.42335190000085,56.42335190000085,56.42335190000085,,002,P013,2025_Feb_08_1450,ConditionRich,2021.2.3,59.93109123160806,
23.0,23.75,3,0.75,Stimuli/P013/sun_aengzsmykwchlrdn.jpg,1,0,0.75,0,39,39,39,,,,,,,,,,,,,23.001618499998585,0.001618499998585321,1,56.6568909000016,56.6568909000016,56.6568909000016,56.6568909000016,56.6568909000016,56.6568909000016,56.6568909000016,57.39086550000138,56.6568909000016,56.6568909000016,0.683410300000105,002,P013,2025_Feb_08_1450,ConditionRich,2021.2.3,59.93109123160806,
23.75,24.0,41,0.0,Stimuli/Blank.png,0,0,0.0,0,40,40,40,,,,,,,,,,,,,23.752695600000152,0.0026956000001518987,None,57.4075574999988,57.4075574999988,57.4075574999988,57.4075574999988,57.4075574999988,57.4075574999988,57.4075574999988,57.4075574999988,57.4075574999988,57.4075574999988,,002,P013,2025_Feb_08_1450,ConditionRich,2021.2.3,59.93109123160806,
24.0,24.75,12,0.75,Stimuli/P013/sun_bjyrrxiwsnbmkbqs.jpg,0,0,0.0,0,41,41,41,,,,,,,,,,,,,24.002555799997936,0.0025557999979355372,None,57.657781500001875,57.657781500001875,57.657781500001875,57.657781500001875,57.657781500001875,57.657781500001875,57.657781500001875,57.657781500001875,57.657781500001875,57.657781500001875,,002,P013,2025_Feb_08_1450,ConditionRich,2021.2.3,59.93109123160806,
24.75,25.0,41,0.0,Stimuli/Blank.png,0,0,0.0,0,42,42,42,,,,,,,,,,,,,24.75277730000016,0.002777300000161631,None,58.408453299998655,58.408453299998655,58.408453299998655,58.408453299998655,58.408453299998655,58.408453299998655,58.408453299998655,58.408453299998655,58.408453299998655,58.408453299998655,,002,P013,2025_Feb_08_1450,ConditionRich,2021.2.3,59.93109123160806,
25.0,25.75,12,0.75,Stimuli/P013/sun_bjyrrxiwsnbmkbqs.jpg,0,0,0.0,0,43,43,43,,,,,,,,,,,,,25.005648599999404,0.005648599999403814,None,58.67535190000126,58.67535190000126,58.67535190000126,58.67535190000126,58.67535190000126,58.67535190000126,58.67535190000126,58.67535190000126,58.67535190000126,58.67535190000126,,002,P013,2025_Feb_08_1450,ConditionRich,2021.2.3,59.93109123160806,
25.75,26.0,41,0.0,Stimuli/Blank.png,0,0,0.0,0,44,44,44,,,,,,,,,,,,,25.77156969999851,0.02156969999850844,None,59.4260099000021,59.4260099000021,59.4260099000021,59.4260099000021,59.4260099000021,59.4260099000021,59.4260099000021,59.4260099000021,59.4260099000021,59.4260099000021,,002,P013,2025_Feb_08_1450,ConditionRich,2021.2.3,59.93109123160806,
26.0,26.75,12,0.75,Stimuli/P013/sun_bjyrrxiwsnbmkbqs.jpg,0,0,0.0,0,45,45,45,,,,,,,,,,,,,26.005681700000423,0.005681700000423007,None,59.67623680000179,59.67623680000179,59.67623680000179,59.67623680000179,59.67623680000179,59.67623680000179,59.67623680000179,59.67623680000179,59.67623680000179,59.67623680000179,,002,P013,2025_Feb_08_1450,ConditionRich,2021.2.3,59.93109123160806,
26.75,27.0,41,0.0,Stimuli/Blank.png,0,0,0.0,0,46,46,46,,,,,,,,,,,,,26.771055799999885,0.021055799999885494,None,60.42688709999857,60.42688709999857,60.42688709999857,60.42688709999857,60.42688709999857,60.42688709999857,60.42688709999857,60.42688709999857,60.42688709999857,60.42688709999857,,002,P013,2025_Feb_08_1450,ConditionRich,2021.2.3,59.93109123160806,
27.0,27.75,12,0.75,Stimuli/P013/sun_bjyrrxiwsnbmkbqs.jpg,0,0,0.0,0,47,47,47,,,,,,,,,,,,,27.005227300000115,0.005227300000115065,None,60.6771090000002,60.6771090000002,60.6771090000002,60.6771090000002,60.6771090000002,60.6771090000002,60.6771090000002,60.6771090000002,60.6771090000002,60.6771090000002,,002,P013,2025_Feb_08_1450,ConditionRich,2021.2.3,59.93109123160806,
27.75,28.0,41,0.0,Stimuli/Blank.png,0,0,0.0,0,48,48,48,,,,,,,,,,,,,27.77193569999872,0.021935699998721248,None,61.427778400000534,61.427778400000534,61.427778400000534,61.427778400000534,61.427778400000534,61.427778400000534,61.427778400000534,61.427778400000534,61.427778400000534,61.427778400000534,,002,P013,2025_Feb_08_1450,ConditionRich,2021.2.3,59.93109123160806,
28.0,28.75,8,0.75,Stimuli/P013/sun_auqrilekgmdmrncq.jpg,0,0,0.0,0,49,49,49,,,,,,,,,,,,,28.006019399999786,0.006019399999786401,None,61.661320800001704,61.661320800001704,61.661320800001704,61.661320800001704,61.661320800001704,61.661320800001704,61.661320800001704,61.661320800001704,61.661320800001704,61.661320800001704,,002,P013,2025_Feb_08_1450,ConditionRich,2021.2.3,59.93109123160806,
28.75,29.0,41,0.0,Stimuli/Blank.png,0,0,0.0,0,50,50,50,,,,,,,,,,,,,28.756819799997174,0.006819799997174414,None,62.41197480000119,62.41197480000119,62.41197480000119,62.41197480000119,62.41197480000119,62.41197480000119,62.41197480000119,62.41197480000119,62.41197480000119,62.41197480000119,,002,P013,2025_Feb_08_1450,ConditionRich,2021.2.3,59.93109123160806,
29.0,29.75,8,0.75,Stimuli/P013/sun_auqrilekgmdmrncq.jpg,0,0,0.0,0,51,51,51,,,,,,,,,,,,,29.006496899997728,0.006496899997728178,None,62.66219679999995,62.66219679999995,62.66219679999995,62.66219679999995,62.66219679999995,62.66219679999995,62.66219679999995,62.66219679999995,62.66219679999995,62.66219679999995,,002,P013,2025_Feb_08_1450,ConditionRich,2021.2.3,59.93109123160806,
29.75,30.0,41,0.0,Stimuli/Blank.png,0,0,0.0,0,52,52,52,,,,,,,,,,,,,29.757557499997347,0.007557499997346895,None,63.41286680000121,63.41286680000121,63.41286680000121,63.41286680000121,63.41286680000121,63.41286680000121,63.41286680000121,63.41286680000121,63.41286680000121,63.41286680000121,,002,P013,2025_Feb_08_1450,ConditionRich,2021.2.3,59.93109123160806,
30.0,30.75,8,0.75,Stimuli/P013/sun_auqrilekgmdmrncq.jpg,0,0,0.0,0,53,53,53,,,,,,,,,,,,,30.00726869999926,0.007268699999258388,None,63.66304039999886,63.66304039999886,63.66304039999886,63.66304039999886,63.66304039999886,63.66304039999886,63.66304039999886,63.66304039999886,63.66304039999886,63.66304039999886,,002,P013,2025_Feb_08_1450,ConditionRich,2021.2.3,59.93109123160806,
30.75,31.0,41,0.0,Stimuli/Blank.png,0,0,0.0,0,54,54,54,,,,,,,,,,,,,30.75779110000076,0.007791100000758888,None,64.41375519999929,64.41375519999929,64.41375519999929,64.41375519999929,64.41375519999929,64.41375519999929,64.41375519999929,64.41375519999929,64.41375519999929,64.41375519999929,,002,P013,2025_Feb_08_1450,ConditionRich,2021.2.3,59.93109123160806,
31.0,31.75,8,0.75,Stimuli/P013/sun_auqrilekgmdmrncq.jpg,0,0,0.0,0,55,55,55,,,,,,,,,,,,,31.00809709999885,0.008097099998849444,None,64.68066399999952,64.68066399999952,64.68066399999952,64.68066399999952,64.68066399999952,64.68066399999952,64.68066399999952,64.68066399999952,64.68066399999952,64.68066399999952,,002,P013,2025_Feb_08_1450,ConditionRich,2021.2.3,59.93109123160806,
31.75,32.0,41,0.0,Stimuli/Blank.png,0,0,0.0,0,56,56,56,,,,,,,,,,,,,31.775275899999542,0.025275899999542162,None,65.43131519999952,65.43131519999952,65.43131519999952,65.43131519999952,65.43131519999952,65.43131519999952,65.43131519999952,65.43131519999952,65.43131519999952,65.43131519999952,,002,P013,2025_Feb_08_1450,ConditionRich,2021.2.3,59.93109123160806,
32.0,32.75,31,0.75,Stimuli/P013/things_mask_07s.jpg,0,0,0.0,0,57,57,57,,,,,,,,,,,,,32.00940199999968,0.00940199999968172,None,65.66486209999857,65.66486209999857,65.66486209999857,65.66486209999857,65.66486209999857,65.66486209999857,65.66486209999857,65.66486209999857,65.66486209999857,65.66486209999857,,002,P013,2025_Feb_08_1450,ConditionRich,2021.2.3,59.93109123160806,
32.75,33.0,41,0.0,Stimuli/Blank.png,0,0,0.0,0,58,58,58,,,,,,,,,,,,,32.76054319999821,0.010543199998210184,None,66.41552090000187,66.41552090000187,66.41552090000187,66.41552090000187,66.41552090000187,66.41552090000187,66.41552090000187,66.41552090000187,66.41552090000187,66.41552090000187,,002,P013,2025_Feb_08_1450,ConditionRich,2021.2.3,59.93109123160806,
33.0,33.75,31,0.75,Stimuli/P013/things_mask_07s.jpg,0,0,0.0,0,59,59,59,,,,,,,,,,,,,33.010580899997876,0.010580899997876259,None,66.66574469999978,66.66574469999978,66.66574469999978,66.66574469999978,66.66574469999978,66.66574469999978,66.66574469999978,66.66574469999978,66.66574469999978,66.66574469999978,,002,P013,2025_Feb_08_1450,ConditionRich,2021.2.3,59.93109123160806,
33.75,34.0,41,0.0,Stimuli/Blank.png,0,0,0.0,0,60,60,60,,,,,,,,,,,,,33.76240459999826,0.012404599998262711,None,67.41641320000053,67.41641320000053,67.41641320000053,67.41641320000053,67.41641320000053,67.41641320000053,67.41641320000053,67.41641320000053,67.41641320000053,67.41641320000053,,002,P013,2025_Feb_08_1450,ConditionRich,2021.2.3,59.93109123160806,
34.0,34.75,31,0.75,Stimuli/P013/things_mask_07s.jpg,0,0,0.0,0,61,61,61,,,,,,,,,,,,,34.011168900000484,0.011168900000484427,None,67.66662350000115,67.66662350000115,67.66662350000115,67.66662350000115,67.66662350000115,67.66662350000115,67.66662350000115,67.66662350000115,67.66662350000115,67.66662350000115,,002,P013,2025_Feb_08_1450,ConditionRich,2021.2.3,59.93109123160806,
34.75,35.0,41,0.0,Stimuli/Blank.png,0,0,0.0,0,62,62,62,,,,,,,,,,,,,34.76192900000024,0.011929000000236556,None,68.41729250000208,68.41729250000208,68.41729250000208,68.41729250000208,68.41729250000208,68.41729250000208,68.41729250000208,68.41729250000208,68.41729250000208,68.41729250000208,,002,P013,2025_Feb_08_1450,ConditionRich,2021.2.3,59.93109123160806,
35.0,35.75,31,0.75,Stimuli/P013/things_mask_07s.jpg,0,0,0.0,0,63,63,63,,,,,,,,,,,,,35.01162619999741,0.011626199997408548,None,68.6675060000016,68.6675060000016,68.6675060000016,68.6675060000016,68.6675060000016,68.6675060000016,68.6675060000016,68.6675060000016,68.6675060000016,68.6675060000016,,002,P013,2025_Feb_08_1450,ConditionRich,2021.2.3,59.93109123160806,
35.75,36.0,41,0.0,Stimuli/Blank.png,0,0,0.0,0,64,64,64,,,,,,,,,,,,,35.762361999997665,0.012361999997665407,None,69.41817609999998,69.41817609999998,69.41817609999998,69.41817609999998,69.41817609999998,69.41817609999998,69.41817609999998,69.41817609999998,69.41817609999998,69.41817609999998,,002,P013,2025_Feb_08_1450,ConditionRich,2021.2.3,59.93109123160806,
36.0,36.75,24,0.75,Stimuli/P013/things_bungee_07s.jpg,0,0,0.0,0,65,65,65,,,,,,,,,,,,,36.01360360000035,0.013603600000351435,None,69.68508659999861,69.68508659999861,69.68508659999861,69.68508659999861,69.68508659999861,69.68508659999861,69.68508659999861,69.68508659999861,69.68508659999861,69.68508659999861,,002,P013,2025_Feb_08_1450,ConditionRich,2021.2.3,59.93109123160806,
36.75,37.0,41,0.0,Stimuli/Blank.png,0,0,0.0,0,66,66,66,,,,,,,,,,,,,36.78130659999806,0.03130659999806085,None,70.43574770000123,70.43574770000123,70.43574770000123,70.43574770000123,70.43574770000123,70.43574770000123,70.43574770000123,70.43574770000123,70.43574770000123,70.43574770000123,,002,P013,2025_Feb_08_1450,ConditionRich,2021.2.3,59.93109123160806,
37.0,37.75,24,0.75,Stimuli/P013/things_bungee_07s.jpg,1,0,0.75,0,67,67,67,,,,,,,,,,,,,37.01544759999888,0.015447599998879014,1,70.68595300000015,70.68595300000015,70.68595300000015,70.68595300000015,70.68595300000015,70.68595300000015,70.68595300000015,None,70.68595300000015,70.68595300000015,0.5183614999987185,002,P013,2025_Feb_08_1450,ConditionRich,2021.2.3,59.93109123160806,
37.75,38.0,41,0.0,Stimuli/Blank.png,0,0,0.0,0,68,68,68,,,,,,,,,,,,,37.76716809999925,0.017168099999253172,None,71.4366657999999,71.4366657999999,71.4366657999999,71.4366657999999,71.4366657999999,71.4366657999999,71.4366657999999,71.4366657999999,71.4366657999999,71.4366657999999,,002,P013,2025_Feb_08_1450,ConditionRich,2021.2.3,59.93109123160806,
38.0,38.75,24,0.75,Stimuli/P013/things_bungee_07s.jpg,0,0,0.0,0,69,69,69,,,,,,,,,,,,,38.015132199998334,0.015132199998333817,None,71.67016639999929,71.67016639999929,71.67016639999929,71.67016639999929,71.67016639999929,71.67016639999929,71.67016639999929,71.67016639999929,71.67016639999929,71.67016639999929,,002,P013,2025_Feb_08_1450,ConditionRich,2021.2.3,59.93109123160806,
38.75,39.0,41,0.0,Stimuli/Blank.png,0,0,0.0,0,70,70,70,,,,,,,,,,,,,38.751273499998206,0.001273499998205807,None,72.42084249999971,72.42084249999971,72.42084249999971,72.42084249999971,72.42084249999971,72.42084249999971,72.42084249999971,72.42084249999971,72.42084249999971,72.42084249999971,,002,P013,2025_Feb_08_1450,ConditionRich,2021.2.3,59.93109123160806,
39.0,39.75,24,0.75,Stimuli/P013/things_bungee_07s.jpg,0,0,0.0,0,71,71,71,,,,,,,,,,,,,39.016318499998306,0.016318499998305924,None,72.67106169999897,72.67106169999897,72.67106169999897,72.67106169999897,72.67106169999897,72.67106169999897,72.67106169999897,72.67106169999897,72.67106169999897,72.67106169999897,,002,P013,2025_Feb_08_1450,ConditionRich,2021.2.3,59.93109123160806,
39.75,40.0,41,0.0,Stimuli/Blank.png,0,0,0.0,0,72,72,72,,,,,,,,,,,,,39.74926769999729,-0.0007323000027099624,None,73.40505029999986,73.40505029999986,73.40505029999986,73.40505029999986,73.40505029999986,73.40505029999986,73.40505029999986,73.40505029999986,73.40505029999986,73.40505029999986,,002,P013,2025_Feb_08_1450,ConditionRich,2021.2.3,59.93109123160806,
40.0,40.75,10,0.75,Stimuli/P013/sun_bdhxnzyleoiflyak.jpg,0,0,0.0,0,73,73,73,,,,,,,,,,,,,40.000051499999245,5.149999924469739e-05,None,73.67193979999865,73.67193979999865,73.67193979999865,73.67193979999865,73.67193979999865,73.67193979999865,73.67193979999865,73.67193979999865,73.67193979999865,73.67193979999865,,002,P013,2025_Feb_08_1450,ConditionRich,2021.2.3,59.93109123160806,
40.75,41.0,41,0.0,Stimuli/Blank.png,0,0,0.0,0,74,74,74,,,,,,,,,,,,,40.76736359999995,0.017363599999953294,None,74.42259660000127,74.42259660000127,74.42259660000127,74.42259660000127,74.42259660000127,74.42259660000127,74.42259660000127,74.42259660000127,74.42259660000127,74.42259660000127,,002,P013,2025_Feb_08_1450,ConditionRich,2021.2.3,59.93109123160806,
41.0,41.75,10,0.75,Stimuli/P013/sun_bdhxnzyleoiflyak.jpg,0,0,0.0,0,75,75,75,,,,,,,,,,,,,41.00056620000032,0.0005662000003212597,None,74.65617190000194,74.65617190000194,74.65617190000194,74.65617190000194,74.65617190000194,74.65617190000194,74.65617190000194,74.65617190000194,74.65617190000194,74.65617190000194,,002,P013,2025_Feb_08_1450,ConditionRich,2021.2.3,59.93109123160806,
41.75,42.0,41,0.0,Stimuli/Blank.png,0,0,0.0,0,76,76,76,,,,,,,,,,,,,41.751968900000065,0.0019689000000653323,None,75.4068143000004,75.4068143000004,75.4068143000004,75.4068143000004,75.4068143000004,75.4068143000004,75.4068143000004,75.4068143000004,75.4068143000004,75.4068143000004,,002,P013,2025_Feb_08_1450,ConditionRich,2021.2.3,59.93109123160806,
42.0,42.75,10,0.75,Stimuli/P013/sun_bdhxnzyleoiflyak.jpg,0,0,0.0,0,77,77,77,,,,,,,,,,,,,42.00165500000003,0.0016550000000279397,None,75.67371339999954,75.67371339999954,75.67371339999954,75.67371339999954,75.67371339999954,75.67371339999954,75.67371339999954,75.67371339999954,75.67371339999954,75.67371339999954,,002,P013,2025_Feb_08_1450,ConditionRich,2021.2.3,59.93109123160806,
42.75,43.0,41,0.0,Stimuli/Blank.png,0,0,0.0,0,78,78,78,,,,,,,,,,,,,42.77066740000009,0.02066740000009304,None,76.44106549999924,76.44106549999924,76.44106549999924,76.44106549999924,76.44106549999924,76.44106549999924,76.44106549999924,76.44106549999924,76.44106549999924,76.44106549999924,,002,P013,2025_Feb_08_1450,ConditionRich,2021.2.3,59.93109123160806,
43.0,43.75,10,0.75,Stimuli/P013/sun_bdhxnzyleoiflyak.jpg,0,0,0.0,0,79,79,79,,,,,,,,,,,,,43.02072199999748,0.020721999997476814,None,76.69127899999876,76.69127899999876,76.69127899999876,76.69127899999876,76.69127899999876,76.69127899999876,76.69127899999876,76.69127899999876,76.69127899999876,76.69127899999876,,002,P013,2025_Feb_08_1450,ConditionRich,2021.2.3,59.93109123160806,
43.75,44.0,41,0.0,Stimuli/Blank.png,0,0,0.0,0,80,80,80,,,,,,,,,,,,,43.769920799997635,0.019920799997635186,None,77.4252622999993,77.4252622999993,77.4252622999993,77.4252622999993,77.4252622999993,77.4252622999993,77.4252622999993,77.4252622999993,77.4252622999993,77.4252622999993,,002,P013,2025_Feb_08_1450,ConditionRich,2021.2.3,59.93109123160806,
44.0,44.75,19,0.75,Stimuli/P013/sun_buphlelowxjnoygy.jpg,0,0,0.0,0,81,81,81,,,,,,,,,,,,,44.00280460000067,0.002804600000672508,None,77.67547639999975,77.67547639999975,77.67547639999975,77.67547639999975,77.67547639999975,77.67547639999975,77.67547639999975,77.67547639999975,77.67547639999975,77.67547639999975,,002,P013,2025_Feb_08_1450,ConditionRich,2021.2.3,59.93109123160806,
44.75,45.0,41,0.0,Stimuli/Blank.png,0,0,0.0,0,82,82,82,,,,,,,,,,,,,44.7708034999996,0.020803499999601627,None,78.4261477,78.4261477,78.4261477,78.4261477,78.4261477,78.4261477,78.4261477,78.4261477,78.4261477,78.4261477,,002,P013,2025_Feb_08_1450,ConditionRich,2021.2.3,59.93109123160806,
45.0,45.75,19,0.75,Stimuli/P013/sun_buphlelowxjnoygy.jpg,0,0,0.0,0,83,83,83,,,,,,,,,,,,,45.00662369999918,0.006623699999181554,None,78.67637340000147,78.67637340000147,78.67637340000147,78.67637340000147,78.67637340000147,78.67637340000147,78.67637340000147,78.67637340000147,78.67637340000147,78.67637340000147,,002,P013,2025_Feb_08_1450,ConditionRich,2021.2.3,59.93109123160806,
45.75,46.0,41,0.0,Stimuli/Blank.png,0,0,0.0,0,84,84,84,,,,,,,,,,,,,45.771176399997785,0.021176399997784756,None,79.42702270000154,79.42702270000154,79.42702270000154,79.42702270000154,79.42702270000154,79.42702270000154,79.42702270000154,79.42702270000154,79.42702270000154,79.42702270000154,,002,P013,2025_Feb_08_1450,ConditionRich,2021.2.3,59.93109123160806,
46.0,46.75,19,0.75,Stimuli/P013/sun_buphlelowxjnoygy.jpg,0,0,0.0,0,85,85,85,,,,,,,,,,,,,46.00510479999866,0.005104799998662202,None,79.6605191000017,79.6605191000017,79.6605191000017,79.6605191000017,79.6605191000017,79.6605191000017,79.6605191000017,79.6605191000017,79.6605191000017,79.6605191000017,,002,P013,2025_Feb_08_1450,ConditionRich,2021.2.3,59.93109123160806,
46.75,47.0,41,0.0,Stimuli/Blank.png,0,0,0.0,0,86,86,86,,,,,,,,,,,,,46.756349899998895,0.0063498999988951255,None,80.41123990000051,80.41123990000051,80.41123990000051,80.41123990000051,80.41123990000051,80.41123990000051,80.41123990000051,80.41123990000051,80.41123990000051,80.41123990000051,,002,P013,2025_Feb_08_1450,ConditionRich,2021.2.3,59.93109123160806,
47.0,47.75,19,0.75,Stimuli/P013/sun_buphlelowxjnoygy.jpg,0,0,0.0,0,87,87,87,,,,,,,,,,,,,47.00665769999978,0.006657699999777833,None,80.67860949999886,80.67860949999886,80.67860949999886,80.67860949999886,80.67860949999886,80.67860949999886,80.67860949999886,80.67860949999886,80.67860949999886,80.67860949999886,,002,P013,2025_Feb_08_1450,ConditionRich,2021.2.3,59.93109123160806,
47.75,48.0,41,0.0,Stimuli/Blank.png,0,0,0.0,0,88,88,88,,,,,,,,,,,,,47.77281159999984,0.022811599999840837,None,81.42880800000057,81.42880800000057,81.42880800000057,81.42880800000057,81.42880800000057,81.42880800000057,81.42880800000057,81.42880800000057,81.42880800000057,81.42880800000057,,002,P013,2025_Feb_08_1450,ConditionRich,2021.2.3,59.93109123160806,
48.0,48.75,29,0.75,Stimuli/P013/things_iguana_07s.jpg,0,0,0.0,0,89,89,89,,,,,,,,,,,,,48.00756369999726,0.007563699997263029,None,81.66237439999895,81.66237439999895,81.66237439999895,81.66237439999895,81.66237439999895,81.66237439999895,81.66237439999895,81.66237439999895,81.66237439999895,81.66237439999895,,002,P013,2025_Feb_08_1450,ConditionRich,2021.2.3,59.93109123160806,
48.75,49.0,41,0.0,Stimuli/Blank.png,0,0,0.0,0,90,90,90,,,,,,,,,,,,,48.75697170000058,0.006971700000576675,None,82.41299830000207,82.41299830000207,82.41299830000207,82.41299830000207,82.41299830000207,82.41299830000207,82.41299830000207,82.41299830000207,82.41299830000207,82.41299830000207,,002,P013,2025_Feb_08_1450,ConditionRich,2021.2.3,59.93109123160806,
49.0,49.75,29,0.75,Stimuli/P013/things_iguana_07s.jpg,0,0,0.0,0,91,91,91,,,,,,,,,,,,,49.007496099999116,0.007496099999116268,None,82.66322260000015,82.66322260000015,82.66322260000015,82.66322260000015,82.66322260000015,82.66322260000015,82.66322260000015,82.66322260000015,82.66322260000015,82.66322260000015,,002,P013,2025_Feb_08_1450,ConditionRich,2021.2.3,59.93109123160806,
49.75,50.0,41,0.0,Stimuli/Blank.png,0,0,0.0,0,92,92,92,,,,,,,,,,,,,49.75867559999824,0.008675599998241523,None,83.41390120000142,83.41390120000142,83.41390120000142,83.41390120000142,83.41390120000142,83.41390120000142,83.41390120000142,83.41390120000142,83.41390120000142,83.41390120000142,,002,P013,2025_Feb_08_1450,ConditionRich,2021.2.3,59.93109123160806,
50.0,50.75,29,0.75,Stimuli/P013/things_iguana_07s.jpg,0,0,0.0,0,93,93,93,,,,,,,,,,,,,50.008900099997845,0.008900099997845246,None,83.66410850000102,83.66410850000102,83.66410850000102,83.66410850000102,83.66410850000102,83.66410850000102,83.66410850000102,83.66410850000102,83.66410850000102,83.66410850000102,,002,P013,2025_Feb_08_1450,ConditionRich,2021.2.3,59.93109123160806,
50.75,51.0,41,0.0,Stimuli/Blank.png,0,0,0.0,0,94,94,94,,,,,,,,,,,,,50.76097889999801,0.010978899998008274,None,84.4314607999986,84.4314607999986,84.4314607999986,84.4314607999986,84.4314607999986,84.4314607999986,84.4314607999986,84.4314607999986,84.4314607999986,84.4314607999986,,002,P013,2025_Feb_08_1450,ConditionRich,2021.2.3,59.93109123160806,
51.0,51.75,29,0.75,Stimuli/P013/things_iguana_07s.jpg,0,0,0.0,0,95,95,95,,,,,,,,,,,,,51.0256816000001,0.025681600000098115,None,84.68167430000176,84.68167430000176,84.68167430000176,84.68167430000176,84.68167430000176,84.68167430000176,84.68167430000176,84.68167430000176,84.68167430000176,84.68167430000176,,002,P013,2025_Feb_08_1450,ConditionRich,2021.2.3,59.93109123160806,
51.75,52.0,41,0.0,Stimuli/Blank.png,0,0,0.0,0,96,96,96,,,,,,,,,,,,,51.760105499997735,0.010105499997735023,None,85.41565869999977,85.41565869999977,85.41565869999977,85.41565869999977,85.41565869999977,85.41565869999977,85.41565869999977,85.41565869999977,85.41565869999977,85.41565869999977,,002,P013,2025_Feb_08_1450,ConditionRich,2021.2.3,59.93109123160806,
52.0,52.75,35,0.75,Stimuli/P013/things_road_sign_07s.jpg,0,0,0.0,0,97,97,97,,,,,,,,,,,,,52.01159259999986,0.011592599999858066,None,85.66588039999988,85.66588039999988,85.66588039999988,85.66588039999988,85.66588039999988,85.66588039999988,85.66588039999988,85.66588039999988,85.66588039999988,85.66588039999988,,002,P013,2025_Feb_08_1450,ConditionRich,2021.2.3,59.93109123160806,
52.75,53.0,41,0.0,Stimuli/Blank.png,0,0,0.0,0,98,98,98,,,,,,,,,,,,,52.76180589999785,0.011805899997852976,None,86.43324260000009,86.43324260000009,86.43324260000009,86.43324260000009,86.43324260000009,86.43324260000009,86.43324260000009,86.43324260000009,86.43324260000009,86.43324260000009,,002,P013,2025_Feb_08_1450,ConditionRich,2021.2.3,59.93109123160806,
53.0,53.75,35,0.75,Stimuli/P013/things_road_sign_07s.jpg,0,0,0.0,0,99,99,99,,,,,,,,,,,,,53.028522599997814,0.028522599997813813,None,86.70010019999972,86.70010019999972,86.70010019999972,86.70010019999972,86.70010019999972,86.70010019999972,86.70010019999972,86.70010019999972,86.70010019999972,86.70010019999972,,002,P013,2025_Feb_08_1450,ConditionRich,2021.2.3,59.93109123160806,
53.75,54.0,41,0.0,Stimuli/Blank.png,0,0,0.0,0,100,100,100,,,,,,,,,,,,,53.7804948999983,0.03049489999830257,None,87.45081990000108,87.45081990000108,87.45081990000108,87.45081990000108,87.45081990000108,87.45081990000108,87.45081990000108,87.45081990000108,87.45081990000108,87.45081990000108,,002,P013,2025_Feb_08_1450,ConditionRich,2021.2.3,59.93109123160806,
54.0,54.75,35,0.75,Stimuli/P013/things_road_sign_07s.jpg,0,0,0.0,0,101,101,101,,,,,,,,,,,,,54.03058459999738,0.03058459999738261,None,87.70101879999856,87.70101879999856,87.70101879999856,87.70101879999856,87.70101879999856,87.70101879999856,87.70101879999856,87.70101879999856,87.70101879999856,87.70101879999856,,002,P013,2025_Feb_08_1450,ConditionRich,2021.2.3,59.93109123160806,
54.75,55.0,41,0.0,Stimuli/Blank.png,0,0,0.0,0,102,102,102,,,,,,,,,,,,,54.781016400000226,0.031016400000225985,None,88.45269610000105,88.45269610000105,88.45269610000105,88.45269610000105,88.45269610000105,88.45269610000105,88.45269610000105,88.45269610000105,88.45269610000105,88.45269610000105,,002,P013,2025_Feb_08_1450,ConditionRich,2021.2.3,59.93109123160806,
55.0,55.75,35,0.75,Stimuli/P013/things_road_sign_07s.jpg,0,0,0.0,0,103,103,103,,,,,,,,,,,,,55.02916460000051,0.02916460000051302,None,88.68521580000015,88.68521580000015,88.68521580000015,88.68521580000015,88.68521580000015,88.68521580000015,88.68521580000015,88.68521580000015,88.68521580000015,88.68521580000015,,002,P013,2025_Feb_08_1450,ConditionRich,2021.2.3,59.93109123160806,
55.75,56.0,41,0.0,Stimuli/Blank.png,0,0,0.0,0,104,104,104,,,,,,,,,,,,,55.76318329999776,0.013183299997763243,None,89.41919670000061,89.41919670000061,89.41919670000061,89.41919670000061,89.41919670000061,89.41919670000061,89.41919670000061,89.41919670000061,89.41919670000061,89.41919670000061,,002,P013,2025_Feb_08_1450,ConditionRich,2021.2.3,59.93109123160806,
56.0,56.75,2,0.75,Stimuli/P013/sun_adotnsaifoooswkf.jpg,0,0,0.0,0,105,105,105,,,,,,,,,,,,,56.01433899999756,0.014338999997562496,None,89.66941040000165,89.66941040000165,89.66941040000165,89.66941040000165,89.66941040000165,89.66941040000165,89.66941040000165,89.66941040000165,89.66941040000165,89.66941040000165,,002,P013,2025_Feb_08_1450,ConditionRich,2021.2.3,59.93109123160806,
56.75,57.0,41,0.0,Stimuli/Blank.png,0,0,0.0,0,106,106,106,,,,,,,,,,,,,56.76714440000069,0.01714440000068862,None,90.43677310000203,90.43677310000203,90.43677310000203,90.43677310000203,90.43677310000203,90.43677310000203,90.43677310000203,90.43677310000203,90.43677310000203,90.43677310000203,,002,P013,2025_Feb_08_1450,ConditionRich,2021.2.3,59.93109123160806,
57.0,57.75,2,0.75,Stimuli/P013/sun_adotnsaifoooswkf.jpg,0,0,0.0,0,107,107,107,,,,,,,,,,,,,57.01500319999832,0.01500319999831845,None,90.67032580000159,90.67032580000159,90.67032580000159,90.67032580000159,90.67032580000159,90.67032580000159,90.67032580000159,90.67032580000159,90.67032580000159,90.67032580000159,,002,P013,2025_Feb_08_1450,ConditionRich,2021.2.3,59.93109123160806,
57.75,58.0,41,0.0,Stimuli/Blank.png,0,0,0.0,0,108,108,108,,,,,,,,,,,,,57.75056989999939,0.0005698999993910547,None,91.42098220000116,91.42098220000116,91.42098220000116,91.42098220000116,91.42098220000116,91.42098220000116,91.42098220000116,91.42098220000116,91.42098220000116,91.42098220000116,,002,P013,2025_Feb_08_1450,ConditionRich,2021.2.3,59.93109123160806,
58.0,58.75,2,0.75,Stimuli/P013/sun_adotnsaifoooswkf.jpg,0,0,0.0,0,109,109,109,,,,,,,,,,,,,58.01584439999715,0.015844399997149594,None,91.67118729999856,91.67118729999856,91.67118729999856,91.67118729999856,91.67118729999856,91.67118729999856,91.67118729999856,91.67118729999856,91.67118729999856,91.67118729999856,,002,P013,2025_Feb_08_1450,ConditionRich,2021.2.3,59.93109123160806,
58.75,59.0,41,0.0,Stimuli/Blank.png,0,0,0.0,0,110,110,110,,,,,,,,,,,,,58.75095579999834,0.0009557999983371701,None,92.40518109999903,92.40518109999903,92.40518109999903,92.40518109999903,92.40518109999903,92.40518109999903,92.40518109999903,92.40518109999903,92.40518109999903,92.40518109999903,,002,P013,2025_Feb_08_1450,ConditionRich,2021.2.3,59.93109123160806,
59.0,59.75,2,0.75,Stimuli/P013/sun_adotnsaifoooswkf.jpg,0,0,0.0,0,111,111,111,,,,,,,,,,,,,59.00100819999716,0.001008199997158954,None,92.67208140000002,92.67208140000002,92.67208140000002,92.67208140000002,92.67208140000002,92.67208140000002,92.67208140000002,92.67208140000002,92.67208140000002,92.67208140000002,,002,P013,2025_Feb_08_1450,ConditionRich,2021.2.3,59.93109123160806,
59.75,60.0,41,0.0,Stimuli/Blank.png,0,0,0.0,0,112,112,112,,,,,,,,,,,,,59.766705699999875,0.016705699999874923,None,93.42273660000137,93.42273660000137,93.42273660000137,93.42273660000137,93.42273660000137,93.42273660000137,93.42273660000137,93.42273660000137,93.42273660000137,93.42273660000137,,002,P013,2025_Feb_08_1450,ConditionRich,2021.2.3,59.93109123160806,
60.0,60.75,21,0.75,Stimuli/P013/things_baby_07s.jpg,0,0,0.0,0,113,113,113,,,,,,,,,,,,,60.00114609999946,0.0011460999994596932,None,93.67295770000055,93.67295770000055,93.67295770000055,93.67295770000055,93.67295770000055,93.67295770000055,93.67295770000055,93.67295770000055,93.67295770000055,93.67295770000055,,002,P013,2025_Feb_08_1450,ConditionRich,2021.2.3,59.93109123160806,
60.75,61.0,41,0.0,Stimuli/Blank.png,0,0,0.0,0,114,114,114,,,,,,,,,,,,,60.77076300000044,0.020763000000442844,None,94.44030639999983,94.44030639999983,94.44030639999983,94.44030639999983,94.44030639999983,94.44030639999983,94.44030639999983,94.44030639999983,94.44030639999983,94.44030639999983,,002,P013,2025_Feb_08_1450,ConditionRich,2021.2.3,59.93109123160806,
61.0,61.75,21,0.75,Stimuli/P013/things_baby_07s.jpg,0,0,0.0,0,115,115,115,,,,,,,,,,,,,61.01780879999933,0.017808799999329494,None,94.67384220000167,94.67384220000167,94.67384220000167,94.67384220000167,94.67384220000167,94.67384220000167,94.67384220000167,94.67384220000167,94.67384220000167,94.67384220000167,,002,P013,2025_Feb_08_1450,ConditionRich,2021.2.3,59.93109123160806,
61.75,62.0,41,0.0,Stimuli/Blank.png,0,0,0.0,0,116,116,116,,,,,,,,,,,,,61.75248809999903,0.0024880999990273267,None,95.40782179999951,95.40782179999951,95.40782179999951,95.40782179999951,95.40782179999951,95.40782179999951,95.40782179999951,95.40782179999951,95.40782179999951,95.40782179999951,,002,P013,2025_Feb_08_1450,ConditionRich,2021.2.3,59.93109123160806,
62.0,62.75,21,0.75,Stimuli/P013/things_baby_07s.jpg,1,0,0.75,0,117,117,117,,,,,,,,,,,,,62.00229620000027,0.0022962000002735294,1,95.65799830000105,95.65799830000105,95.65799830000105,95.65799830000105,95.65799830000105,95.65799830000105,95.65799830000105,96.39201669999966,95.65799830000105,95.65799830000105,0.5464873999990232,002,P013,2025_Feb_08_1450,ConditionRich,2021.2.3,59.93109123160806,
62.75,63.0,41,0.0,Stimuli/Blank.png,0,0,0.0,0,118,118,118,,,,,,,,,,,,,62.75337939999736,0.0033793999973568134,None,96.40870649999852,96.40870649999852,96.40870649999852,96.40870649999852,96.40870649999852,96.40870649999852,96.40870649999852,96.40870649999852,96.40870649999852,96.40870649999852,,002,P013,2025_Feb_08_1450,ConditionRich,2021.2.3,59.93109123160806,
63.0,63.75,21,0.75,Stimuli/P013/things_baby_07s.jpg,0,0,0.0,0,119,119,119,,,,,,,,,,,,,63.003708299998834,0.0037082999988342635,None,96.67561639999985,96.67561639999985,96.67561639999985,96.67561639999985,96.67561639999985,96.67561639999985,96.67561639999985,96.67561639999985,96.67561639999985,96.67561639999985,,002,P013,2025_Feb_08_1450,ConditionRich,2021.2.3,59.93109123160806,
63.75,64.0,41,0.0,Stimuli/Blank.png,0,0,0.0,0,120,120,120,,,,,,,,,,,,,63.77037749999727,0.020377499997266568,None,97.42627690000154,97.42627690000154,97.42627690000154,97.42627690000154,97.42627690000154,97.42627690000154,97.42627690000154,97.42627690000154,97.42627690000154,97.42627690000154,,002,P013,2025_Feb_08_1450,ConditionRich,2021.2.3,59.93109123160806,
64.0,64.75,39,0.75,Stimuli/P013/things_violin_07n.jpg,0,0,0.0,0,121,121,121,,,,,,,,,,,,,64.00655209999968,0.0065520999996806495,None,97.67647470000156,97.67647470000156,97.67647470000156,97.67647470000156,97.67647470000156,97.67647470000156,97.67647470000156,97.67647470000156,97.67647470000156,97.67647470000156,,002,P013,2025_Feb_08_1450,ConditionRich,2021.2.3,59.93109123160806,
64.75,65.0,41,0.0,Stimuli/Blank.png,0,0,0.0,0,122,122,122,,,,,,,,,,,,,64.77132599999823,0.021325999998225598,None,98.42716049999945,98.42716049999945,98.42716049999945,98.42716049999945,98.42716049999945,98.42716049999945,98.42716049999945,98.42716049999945,98.42716049999945,98.42716049999945,,002,P013,2025_Feb_08_1450,ConditionRich,2021.2.3,59.93109123160806,
65.0,65.75,39,0.75,Stimuli/P013/things_violin_07n.jpg,0,0,0.0,0,123,123,123,,,,,,,,,,,,,65.00540909999836,0.005409099998360034,None,98.67738010000176,98.67738010000176,98.67738010000176,98.67738010000176,98.67738010000176,98.67738010000176,98.67738010000176,98.67738010000176,98.67738010000176,98.67738010000176,,002,P013,2025_Feb_08_1450,ConditionRich,2021.2.3,59.93109123160806,
65.75,66.0,41,0.0,Stimuli/Blank.png,0,0,0.0,0,124,124,124,,,,,,,,,,,,,65.77256539999871,0.022565399998711655,None,99.42805090000184,99.42805090000184,99.42805090000184,99.42805090000184,99.42805090000184,99.42805090000184,99.42805090000184,99.42805090000184,99.42805090000184,99.42805090000184,,002,P013,2025_Feb_08_1450,ConditionRich,2021.2.3,59.93109123160806,
66.0,66.75,39,0.75,Stimuli/P013/things_violin_07n.jpg,0,0,0.0,0,125,125,125,,,,,,,,,,,,,66.00709329999881,0.007093299998814473,None,99.67827169999873,99.67827169999873,99.67827169999873,99.67827169999873,99.67827169999873,99.67827169999873,99.67827169999873,99.67827169999873,99.67827169999873,99.67827169999873,,002,P013,2025_Feb_08_1450,ConditionRich,2021.2.3,59.93109123160806,
66.75,67.0,41,0.0,Stimuli/Blank.png,0,0,0.0,0,126,126,126,,,,,,,,,,,,,66.77603149999777,0.02603149999777088,None,100.44564660000106,100.44564660000106,100.44564660000106,100.44564660000106,100.44564660000106,100.44564660000106,100.44564660000106,100.44564660000106,100.44564660000106,100.44564660000106,,002,P013,2025_Feb_08_1450,ConditionRich,2021.2.3,59.93109123160806,
67.0,67.75,39,0.75,Stimuli/P013/things_violin_07n.jpg,0,0,0.0,0,127,127,127,,,,,,,,,,,,,67.02562810000018,0.025628100000176346,None,100.695846300001,100.695846300001,100.695846300001,100.695846300001,100.695846300001,100.695846300001,100.695846300001,100.695846300001,100.695846300001,100.695846300001,,002,P013,2025_Feb_08_1450,ConditionRich,2021.2.3,59.93109123160806,
67.75,68.0,41,0.0,Stimuli/Blank.png,0,0,0.0,0,128,128,128,,,,,,,,,,,,,67.77681739999753,0.02681739999752608,None,101.44650840000031,101.44650840000031,101.44650840000031,101.44650840000031,101.44650840000031,101.44650840000031,101.44650840000031,101.44650840000031,101.44650840000031,101.44650840000031,,002,P013,2025_Feb_08_1450,ConditionRich,2021.2.3,59.93109123160806,
68.0,68.75,33,0.75,Stimuli/P013/things_piglet_07s.jpg,0,0,0.0,0,129,129,129,,,,,,,,,,,,,68.02527559999726,0.025275599997257814,None,101.6800359000008,101.6800359000008,101.6800359000008,101.6800359000008,101.6800359000008,101.6800359000008,101.6800359000008,101.6800359000008,101.6800359000008,101.6800359000008,,002,P013,2025_Feb_08_1450,ConditionRich,2021.2.3,59.93109123160806,
68.75,69.0,41,0.0,Stimuli/Blank.png,0,0,0.0,0,130,130,130,,,,,,,,,,,,,68.75957949999793,0.009579499997926177,None,102.41403519999949,102.41403519999949,102.41403519999949,102.41403519999949,102.41403519999949,102.41403519999949,102.41403519999949,102.41403519999949,102.41403519999949,102.41403519999949,,002,P013,2025_Feb_08_1450,ConditionRich,2021.2.3,59.93109123160806,
69.0,69.75,33,0.75,Stimuli/P013/things_piglet_07s.jpg,0,0,0.0,0,131,131,131,,,,,,,,,,,,,69.00842179999745,0.008421799997449853,None,102.68093109999973,102.68093109999973,102.68093109999973,102.68093109999973,102.68093109999973,102.68093109999973,102.68093109999973,102.68093109999973,102.68093109999973,102.68093109999973,,002,P013,2025_Feb_08_1450,ConditionRich,2021.2.3,59.93109123160806,
69.75,70.0,41,0.0,Stimuli/Blank.png,0,0,0.0,0,132,132,132,,,,,,,,,,,,,69.77628809999806,0.02628809999805526,None,103.43160350000107,103.43160350000107,103.43160350000107,103.43160350000107,103.43160350000107,103.43160350000107,103.43160350000107,103.43160350000107,103.43160350000107,103.43160350000107,,002,P013,2025_Feb_08_1450,ConditionRich,2021.2.3,59.93109123160806,
70.0,70.75,33,0.75,Stimuli/P013/things_piglet_07s.jpg,0,0,0.0,0,133,133,133,,,,,,,,,,,,,70.01098219999767,0.01098219999767025,None,103.68180950000169,103.68180950000169,103.68180950000169,103.68180950000169,103.68180950000169,103.68180950000169,103.68180950000169,103.68180950000169,103.68180950000169,103.68180950000169,,002,P013,2025_Feb_08_1450,ConditionRich,2021.2.3,59.93109123160806,
70.75,71.0,41,0.0,Stimuli/Blank.png,0,0,0.0,0,134,134,134,,,,,,,,,,,,,70.77661299999818,0.026612999998178566,None,104.43247410000185,104.43247410000185,104.43247410000185,104.43247410000185,104.43247410000185,104.43247410000185,104.43247410000185,104.43247410000185,104.43247410000185,104.43247410000185,,002,P013,2025_Feb_08_1450,ConditionRich,2021.2.3,59.93109123160806,
71.0,71.75,33,0.75,Stimuli/P013/things_piglet_07s.jpg,0,0,0.0,0,135,135,135,,,,,,,,,,,,,71.01080809999985,0.010808099999849219,None,104.66601739999896,104.66601739999896,104.66601739999896,104.66601739999896,104.66601739999896,104.66601739999896,104.66601739999896,104.66601739999896,104.66601739999896,104.66601739999896,,002,P013,2025_Feb_08_1450,ConditionRich,2021.2.3,59.93109123160806,
71.75,72.0,41,0.0,Stimuli/Blank.png,0,0,0.0,0,136,136,136,,,,,,,,,,,,,71.76126799999838,0.011267999998381129,None,105.41668729999947,105.41668729999947,105.41668729999947,105.41668729999947,105.41668729999947,105.41668729999947,105.41668729999947,105.41668729999947,105.41668729999947,105.41668729999947,,002,P013,2025_Feb_08_1450,ConditionRich,2021.2.3,59.93109123160806,
72.0,72.75,22,0.75,Stimuli/P013/things_banner_07s.jpg,0,0,0.0,0,137,137,137,,,,,,,,,,,,,72.01122329999998,0.011223299999983283,None,105.6668955999994,105.6668955999994,105.6668955999994,105.6668955999994,105.6668955999994,105.6668955999994,105.6668955999994,105.6668955999994,105.6668955999994,105.6668955999994,,002,P013,2025_Feb_08_1450,ConditionRich,2021.2.3,59.93109123160806,
72.75,73.0,41,0.0,Stimuli/Blank.png,0,0,0.0,0,138,138,138,,,,,,,,,,,,,72.76243169999725,0.01243169999725069,None,106.41755510000075,106.41755510000075,106.41755510000075,106.41755510000075,106.41755510000075,106.41755510000075,106.41755510000075,106.41755510000075,106.41755510000075,106.41755510000075,,002,P013,2025_Feb_08_1450,ConditionRich,2021.2.3,59.93109123160806,
73.0,73.75,22,0.75,Stimuli/P013/things_banner_07s.jpg,0,0,0.0,0,139,139,139,,,,,,,,,,,,,73.01318339999852,0.013183399998524692,None,106.68445989999964,106.68445989999964,106.68445989999964,106.68445989999964,106.68445989999964,106.68445989999964,106.68445989999964,106.68445989999964,106.68445989999964,106.68445989999964,,002,P013,2025_Feb_08_1450,ConditionRich,2021.2.3,59.93109123160806,
73.75,74.0,41,0.0,Stimuli/Blank.png,0,0,0.0,0,140,140,140,,,,,,,,,,,,,73.7797862999978,0.02978629999779514,None,107.4351115999998,107.4351115999998,107.4351115999998,107.4351115999998,107.4351115999998,107.4351115999998,107.4351115999998,107.4351115999998,107.4351115999998,107.4351115999998,,002,P013,2025_Feb_08_1450,ConditionRich,2021.2.3,59.93109123160806,
74.0,74.75,22,0.75,Stimuli/P013/things_banner_07s.jpg,0,0,0.0,0,141,141,141,,,,,,,,,,,,,74.01338709999982,0.01338709999981802,None,107.6853469000016,107.6853469000016,107.6853469000016,107.6853469000016,107.6853469000016,107.6853469000016,107.6853469000016,107.6853469000016,107.6853469000016,107.6853469000016,,002,P013,2025_Feb_08_1450,ConditionRich,2021.2.3,59.93109123160806,
74.75,75.0,41,0.0,Stimuli/Blank.png,0,0,0.0,0,142,142,142,,,,,,,,,,,,,74.78071929999714,0.030719299997144844,None,108.43602399999872,108.43602399999872,108.43602399999872,108.43602399999872,108.43602399999872,108.43602399999872,108.43602399999872,108.43602399999872,108.43602399999872,108.43602399999872,,002,P013,2025_Feb_08_1450,ConditionRich,2021.2.3,59.93109123160806,
75.0,75.75,22,0.75,Stimuli/P013/things_banner_07s.jpg,1,0,0.75,0,143,143,143,,,,,,,,,,,,,75.01562089999788,0.015620899997884408,1,108.6862469000007,108.6862469000007,108.6862469000007,108.6862469000007,108.6862469000007,108.6862469000007,108.6862469000007,None,108.6862469000007,108.6862469000007,0.55645050000021,002,P013,2025_Feb_08_1450,ConditionRich,2021.2.3,59.93109123160806,
75.75,76.0,41,0.0,Stimuli/Blank.png,0,0,0.0,0,144,144,144,,,,,,,,,,,,,75.76559979999729,0.015599799997289665,None,109.42022279999946,109.42022279999946,109.42022279999946,109.42022279999946,109.42022279999946,109.42022279999946,109.42022279999946,109.42022279999946,109.42022279999946,109.42022279999946,,002,P013,2025_Feb_08_1450,ConditionRich,2021.2.3,59.93109123160806,
76.0,76.75,18,0.75,Stimuli/P013/sun_btohwudpiusfvpvl.jpg,0,0,0.0,0,145,145,145,,,,,,,,,,,,,76.00074569999924,0.0007456999992427882,None,109.67046610000034,109.67046610000034,109.67046610000034,109.67046610000034,109.67046610000034,109.67046610000034,109.67046610000034,109.67046610000034,109.67046610000034,109.67046610000034,,002,P013,2025_Feb_08_1450,ConditionRich,2021.2.3,59.93109123160806,
76.75,77.0,41,0.0,Stimuli/Blank.png,0,0,0.0,0,146,146,146,,,,,,,,,,,,,76.76579529999799,0.015795299997989787,None,110.42110089999915,110.42110089999915,110.42110089999915,110.42110089999915,110.42110089999915,110.42110089999915,110.42110089999915,110.42110089999915,110.42110089999915,110.42110089999915,,002,P013,2025_Feb_08_1450,ConditionRich,2021.2.3,59.93109123160806,
77.0,77.75,18,0.75,Stimuli/P013/sun_btohwudpiusfvpvl.jpg,0,0,0.0,0,147,147,147,,,,,,,,,,,,,76.99995359999957,-4.640000042854808e-05,None,110.6714009999996,110.6714009999996,110.6714009999996,110.6714009999996,110.6714009999996,110.6714009999996,110.6714009999996,110.6714009999996,110.6714009999996,110.6714009999996,,002,P013,2025_Feb_08_1450,ConditionRich,2021.2.3,59.93109123160806,
77.75,78.0,41,0.0,Stimuli/Blank.png,0,0,0.0,0,148,148,148,,,,,,,,,,,,,77.76681029999963,0.01681029999963357,None,111.42198930000086,111.42198930000086,111.42198930000086,111.42198930000086,111.42198930000086,111.42198930000086,111.42198930000086,111.42198930000086,111.42198930000086,111.42198930000086,,002,P013,2025_Feb_08_1450,ConditionRich,2021.2.3,59.93109123160806,
78.0,78.75,18,0.75,Stimuli/P013/sun_btohwudpiusfvpvl.jpg,0,0,0.0,0,149,149,149,,,,,,,,,,,,,78.0004958999998,0.0004958999998052604,None,111.65552989999924,111.65552989999924,111.65552989999924,111.65552989999924,111.65552989999924,111.65552989999924,111.65552989999924,111.65552989999924,111.65552989999924,111.65552989999924,,002,P013,2025_Feb_08_1450,ConditionRich,2021.2.3,59.93109123160806,
78.75,79.0,41,0.0,Stimuli/Blank.png,0,0,0.0,0,150,150,150,,,,,,,,,,,,,78.75166469999749,0.0016646999974909704,None,112.40620940000008,112.40620940000008,112.40620940000008,112.40620940000008,112.40620940000008,112.40620940000008,112.40620940000008,112.40620940000008,112.40620940000008,112.40620940000008,,002,P013,2025_Feb_08_1450,ConditionRich,2021.2.3,59.93109123160806,
79.0,79.75,18,0.75,Stimuli/P013/sun_btohwudpiusfvpvl.jpg,0,0,0.0,0,151,151,151,,,,,,,,,,,,,79.0010786999992,0.0010786999991978519,None,112.67312730000049,112.67312730000049,112.67312730000049,112.67312730000049,112.67312730000049,112.67312730000049,112.67312730000049,112.67312730000049,112.67312730000049,112.67312730000049,,002,P013,2025_Feb_08_1450,ConditionRich,2021.2.3,59.93109123160806,
79.75,80.0,41,0.0,Stimuli/Blank.png,0,0,0.0,0,152,152,152,,,,,,,,,,,,,79.77057159999822,0.020571599998220336,None,113.44053490000078,113.44053490000078,113.44053490000078,113.44053490000078,113.44053490000078,113.44053490000078,113.44053490000078,113.44053490000078,113.44053490000078,113.44053490000078,,002,P013,2025_Feb_08_1450,ConditionRich,2021.2.3,59.93109123160806,
80.0,80.75,20,0.75,Stimuli/P013/sun_cidodcxikcyrdglc.jpg,0,0,0.0,0,153,153,153,,,,,,,,,,,,,80.02106429999913,0.02106429999912507,None,113.69071819999954,113.69071819999954,113.69071819999954,113.69071819999954,113.69071819999954,113.69071819999954,113.69071819999954,113.69071819999954,113.69071819999954,113.69071819999954,,002,P013,2025_Feb_08_1450,ConditionRich,2021.2.3,59.93109123160806,
80.75,81.0,41,0.0,Stimuli/Blank.png,0,0,0.0,0,154,154,154,,,,,,,,,,,,,80.76945019999766,0.01945019999766373,None,114.4246430000021,114.4246430000021,114.4246430000021,114.4246430000021,114.4246430000021,114.4246430000021,114.4246430000021,114.4246430000021,114.4246430000021,114.4246430000021,,002,P013,2025_Feb_08_1450,ConditionRich,2021.2.3,59.93109123160806,
81.0,81.75,20,0.75,Stimuli/P013/sun_cidodcxikcyrdglc.jpg,0,0,0.0,0,155,155,155,,,,,,,,,,,,,81.00233659999867,0.002336599998670863,None,114.65818199999921,114.65818199999921,114.65818199999921,114.65818199999921,114.65818199999921,114.65818199999921,114.65818199999921,114.65818199999921,114.65818199999921,114.65818199999921,,002,P013,2025_Feb_08_1450,ConditionRich,2021.2.3,59.93109123160806,
81.75,82.0,41,0.0,Stimuli/Blank.png,0,0,0.0,0,156,156,156,,,,,,,,,,,,,81.75553679999939,0.005536799999390496,None,115.42553210000187,115.42553210000187,115.42553210000187,115.42553210000187,115.42553210000187,115.42553210000187,115.42553210000187,115.42553210000187,115.42553210000187,115.42553210000187,,002,P013,2025_Feb_08_1450,ConditionRich,2021.2.3,59.93109123160806,
82.0,82.75,20,0.75,Stimuli/P013/sun_cidodcxikcyrdglc.jpg,0,0,0.0,0,157,157,157,,,,,,,,,,,,,82.01985109999805,0.019851099998049904,None,115.67574909999894,115.67574909999894,115.67574909999894,115.67574909999894,115.67574909999894,115.67574909999894,115.67574909999894,115.67574909999894,115.67574909999894,115.67574909999894,,002,P013,2025_Feb_08_1450,ConditionRich,2021.2.3,59.93109123160806,
82.75,83.0,41,0.0,Stimuli/Blank.png,0,0,0.0,0,158,158,158,,,,,,,,,,,,,82.7557068999995,0.005706899999495363,None,116.42641730000105,116.42641730000105,116.42641730000105,116.42641730000105,116.42641730000105,116.42641730000105,116.42641730000105,116.42641730000105,116.42641730000105,116.42641730000105,,002,P013,2025_Feb_08_1450,ConditionRich,2021.2.3,59.93109123160806,
83.0,83.75,20,0.75,Stimuli/P013/sun_cidodcxikcyrdglc.jpg,0,0,0.0,0,159,159,159,,,,,,,,,,,,,83.02065909999874,0.020659099998738384,None,116.6766263999998,116.6766263999998,116.6766263999998,116.6766263999998,116.6766263999998,116.6766263999998,116.6766263999998,116.6766263999998,116.6766263999998,116.6766263999998,,002,P013,2025_Feb_08_1450,ConditionRich,2021.2.3,59.93109123160806,
83.75,84.0,41,0.0,Stimuli/Blank.png,0,0,0.0,0,160,160,160,,,,,,,,,,,,,83.75527829999919,0.005278299999190494,None,117.41062610000154,117.41062610000154,117.41062610000154,117.41062610000154,117.41062610000154,117.41062610000154,117.41062610000154,117.41062610000154,117.41062610000154,117.41062610000154,,002,P013,2025_Feb_08_1450,ConditionRich,2021.2.3,59.93109123160806,
84.0,100.0,0,0.0,Stimuli/Blank.png,1,2,2.75,0,161,161,161,,,,,,,,,,,,,84.0050573999979,0.005057399997895118,1,117.66083870000148,117.66083870000148,117.66083870000148,117.66083870000148,117.66083870000148,117.66083870000148,119.64592830000038,120.39659279999978,117.66083870000148,117.66083870000148,2.6385754000002635,002,P013,2025_Feb_08_1450,ConditionRich,2021.2.3,59.93109123160806,
100.0,100.75,30,0.75,Stimuli/P013/things_man_07s.jpg,0,0,0.0,0,162,162,162,,,,,,,,,,,,,100.0032461999981,0.0032461999981023837,None,133.6582844000004,133.6582844000004,133.6582844000004,133.6582844000004,133.6582844000004,133.6582844000004,133.6582844000004,133.6582844000004,133.6582844000004,133.6582844000004,,002,P013,2025_Feb_08_1450,ConditionRich,2021.2.3,59.93109123160806,
100.75,101.0,41,0.0,Stimuli/Blank.png,0,0,0.0,0,163,163,163,,,,,,,,,,,,,100.75371149999773,0.0037114999977347907,None,134.40898430000016,134.40898430000016,134.40898430000016,134.40898430000016,134.40898430000016,134.40898430000016,134.40898430000016,134.40898430000016,134.40898430000016,134.40898430000016,,002,P013,2025_Feb_08_1450,ConditionRich,2021.2.3,59.93109123160806,
101.0,101.75,30,0.75,Stimuli/P013/things_man_07s.jpg,0,0,0.0,0,164,164,164,,,,,,,,,,,,,101.00395959999878,0.003959599998779595,None,134.65921249999883,134.65921249999883,134.65921249999883,134.65921249999883,134.65921249999883,134.65921249999883,134.65921249999883,134.65921249999883,134.65921249999883,134.65921249999883,,002,P013,2025_Feb_08_1450,ConditionRich,2021.2.3,59.93109123160806,
101.75,102.0,41,0.0,Stimuli/Blank.png,0,0,0.0,0,165,165,165,,,,,,,,,,,,,101.75546819999727,0.00546819999726722,None,135.4098679000017,135.4098679000017,135.4098679000017,135.4098679000017,135.4098679000017,135.4098679000017,135.4098679000017,135.4098679000017,135.4098679000017,135.4098679000017,,002,P013,2025_Feb_08_1450,ConditionRich,2021.2.3,59.93109123160806,
102.0,102.75,30,0.75,Stimuli/P013/things_man_07s.jpg,0,0,0.0,0,166,166,166,,,,,,,,,,,,,102.00723129999824,0.007231299998238683,None,135.67674260000058,135.67674260000058,135.67674260000058,135.67674260000058,135.67674260000058,135.67674260000058,135.67674260000058,135.67674260000058,135.67674260000058,135.67674260000058,,002,P013,2025_Feb_08_1450,ConditionRich,2021.2.3,59.93109123160806,
102.75,103.0,41,0.0,Stimuli/Blank.png,0,0,0.0,0,167,167,167,,,,,,,,,,,,,102.77220979999765,0.022209799997654045,None,136.42742949999956,136.42742949999956,136.42742949999956,136.42742949999956,136.42742949999956,136.42742949999956,136.42742949999956,136.42742949999956,136.42742949999956,136.42742949999956,,002,P013,2025_Feb_08_1450,ConditionRich,2021.2.3,59.93109123160806,
103.0,103.75,30,0.75,Stimuli/P013/things_man_07s.jpg,0,0,0.0,0,168,168,168,,,,,,,,,,,,,103.0065727000001,0.006572700000106124,None,136.67766100000154,136.67766100000154,136.67766100000154,136.67766100000154,136.67766100000154,136.67766100000154,136.67766100000154,136.67766100000154,136.67766100000154,136.67766100000154,,002,P013,2025_Feb_08_1450,ConditionRich,2021.2.3,59.93109123160806,
103.75,104.0,41,0.0,Stimuli/Blank.png,0,0,0.0,0,169,169,169,,,,,,,,,,,,,103.77280459999747,0.022804599997471087,None,137.42832479999925,137.42832479999925,137.42832479999925,137.42832479999925,137.42832479999925,137.42832479999925,137.42832479999925,137.42832479999925,137.42832479999925,137.42832479999925,,002,P013,2025_Feb_08_1450,ConditionRich,2021.2.3,59.93109123160806,
104.0,104.75,37,0.75,Stimuli/P013/things_slug_07s.jpg,0,0,0.0,0,170,170,170,,,,,,,,,,,,,104.00592179999876,0.005921799998759525,None,137.66182950000075,137.66182950000075,137.66182950000075,137.66182950000075,137.66182950000075,137.66182950000075,137.66182950000075,137.66182950000075,137.66182950000075,137.66182950000075,,002,P013,2025_Feb_08_1450,ConditionRich,2021.2.3,59.93109123160806,
104.75,105.0,41,0.0,Stimuli/Blank.png,0,0,0.0,0,171,171,171,,,,,,,,,,,,,104.75724949999858,0.007249499998579267,None,138.41251240000202,138.41251240000202,138.41251240000202,138.41251240000202,138.41251240000202,138.41251240000202,138.41251240000202,138.41251240000202,138.41251240000202,138.41251240000202,,002,P013,2025_Feb_08_1450,ConditionRich,2021.2.3,59.93109123160806,
105.0,105.75,37,0.75,Stimuli/P013/things_slug_07s.jpg,0,0,0.0,0,172,172,172,,,,,,,,,,,,,105.0067999999992,0.006799999999202555,None,138.66274350000094,138.66274350000094,138.66274350000094,138.66274350000094,138.66274350000094,138.66274350000094,138.66274350000094,138.66274350000094,138.66274350000094,138.66274350000094,,002,P013,2025_Feb_08_1450,ConditionRich,2021.2.3,59.93109123160806,
105.75,106.0,41,0.0,Stimuli/Blank.png,0,0,0.0,0,173,173,173,,,,,,,,,,,,,105.75748489999751,0.007484899997507455,None,139.41340639999908,139.41340639999908,139.41340639999908,139.41340639999908,139.41340639999908,139.41340639999908,139.41340639999908,139.41340639999908,139.41340639999908,139.41340639999908,,002,P013,2025_Feb_08_1450,ConditionRich,2021.2.3,59.93109123160806,
106.0,106.75,37,0.75,Stimuli/P013/things_slug_07s.jpg,0,0,0.0,0,174,174,174,,,,,,,,,,,,,106.00760420000006,0.007604200000059791,None,139.6636342999991,139.6636342999991,139.6636342999991,139.6636342999991,139.6636342999991,139.6636342999991,139.6636342999991,139.6636342999991,139.6636342999991,139.6636342999991,,002,P013,2025_Feb_08_1450,ConditionRich,2021.2.3,59.93109123160806,
106.75,107.0,41,0.0,Stimuli/Blank.png,0,0,0.0,0,175,175,175,,,,,,,,,,,,,106.76111350000065,0.011113500000647036,None,140.43099979999897,140.43099979999897,140.43099979999897,140.43099979999897,140.43099979999897,140.43099979999897,140.43099979999897,140.43099979999897,140.43099979999897,140.43099979999897,,002,P013,2025_Feb_08_1450,ConditionRich,2021.2.3,59.93109123160806,
107.0,107.75,37,0.75,Stimuli/P013/things_slug_07s.jpg,0,0,0.0,0,176,176,176,,,,,,,,,,,,,107.02687890000016,0.026878900000156136,None,140.697871700002,140.697871700002,140.697871700002,140.697871700002,140.697871700002,140.697871700002,140.697871700002,140.697871700002,140.697871700002,140.697871700002,,002,P013,2025_Feb_08_1450,ConditionRich,2021.2.3,59.93109123160806,
107.75,108.0,41,0.0,Stimuli/Blank.png,0,0,0.0,0,177,177,177,,,,,,,,,,,,,107.7769831000005,0.026983100000506965,None,141.43185939999967,141.43185939999967,141.43185939999967,141.43185939999967,141.43185939999967,141.43185939999967,141.43185939999967,141.43185939999967,141.43185939999967,141.43185939999967,,002,P013,2025_Feb_08_1450,ConditionRich,2021.2.3,59.93109123160806,
108.0,108.75,9,0.75,Stimuli/P013/sun_bdgwqzttihopmpbf.jpg,0,0,0.0,0,178,178,178,,,,,,,,,,,,,108.00938769999993,0.00938769999993383,None,141.6654097999999,141.6654097999999,141.6654097999999,141.6654097999999,141.6654097999999,141.6654097999999,141.6654097999999,141.6654097999999,141.6654097999999,141.6654097999999,,002,P013,2025_Feb_08_1450,ConditionRich,2021.2.3,59.93109123160806,
108.75,109.0,41,0.0,Stimuli/Blank.png,0,0,0.0,0,179,179,179,,,,,,,,,,,,,108.76070980000077,0.010709800000768155,None,142.4160679000015,142.4160679000015,142.4160679000015,142.4160679000015,142.4160679000015,142.4160679000015,142.4160679000015,142.4160679000015,142.4160679000015,142.4160679000015,,002,P013,2025_Feb_08_1450,ConditionRich,2021.2.3,59.93109123160806,
109.0,109.75,9,0.75,Stimuli/P013/sun_bdgwqzttihopmpbf.jpg,0,0,0.0,0,180,180,180,,,,,,,,,,,,,109.01111499999752,0.011114999997516861,None,142.68299370000022,142.68299370000022,142.68299370000022,142.68299370000022,142.68299370000022,142.68299370000022,142.68299370000022,142.68299370000022,142.68299370000022,142.68299370000022,,002,P013,2025_Feb_08_1450,ConditionRich,2021.2.3,59.93109123160806,
109.75,110.0,41,0.0,Stimuli/Blank.png,0,0,0.0,0,181,181,181,,,,,,,,,,,,,109.7784842000001,0.02848420000009355,None,143.4336456000019,143.4336456000019,143.4336456000019,143.4336456000019,143.4336456000019,143.4336456000019,143.4336456000019,143.4336456000019,143.4336456000019,143.4336456000019,,002,P013,2025_Feb_08_1450,ConditionRich,2021.2.3,59.93109123160806,
110.0,110.75,9,0.75,Stimuli/P013/sun_bdgwqzttihopmpbf.jpg,0,0,0.0,0,182,182,182,,,,,,,,,,,,,110.01166190000004,0.01166190000003553,None,143.66771169999993,143.66771169999993,143.66771169999993,143.66771169999993,143.66771169999993,143.66771169999993,143.66771169999993,143.66771169999993,143.66771169999993,143.66771169999993,,002,P013,2025_Feb_08_1450,ConditionRich,2021.2.3,59.93109123160806,
110.75,111.0,41,0.0,Stimuli/Blank.png,0,0,0.0,0,183,183,183,,,,,,,,,,,,,110.76191569999719,0.011915699997189222,None,144.4178393000002,144.4178393000002,144.4178393000002,144.4178393000002,144.4178393000002,144.4178393000002,144.4178393000002,144.4178393000002,144.4178393000002,144.4178393000002,,002,P013,2025_Feb_08_1450,ConditionRich,2021.2.3,59.93109123160806,
111.0,111.75,9,0.75,Stimuli/P013/sun_bdgwqzttihopmpbf.jpg,0,0,0.0,0,184,184,184,,,,,,,,,,,,,111.01207969999814,0.012079699998139404,None,144.66805190000014,144.66805190000014,144.66805190000014,144.66805190000014,144.66805190000014,144.66805190000014,144.66805190000014,144.66805190000014,144.66805190000014,144.66805190000014,,002,P013,2025_Feb_08_1450,ConditionRich,2021.2.3,59.93109123160806,
111.75,112.0,41,0.0,Stimuli/Blank.png,0,0,0.0,0,185,185,185,,,,,,,,,,,,,111.76324720000048,0.013247200000478188,None,145.4187263999993,145.4187263999993,145.4187263999993,145.4187263999993,145.4187263999993,145.4187263999993,145.4187263999993,145.4187263999993,145.4187263999993,145.4187263999993,,002,P013,2025_Feb_08_1450,ConditionRich,2021.2.3,59.93109123160806,
112.0,112.75,38,0.75,Stimuli/P013/things_spark_plug_07s.jpg,0,0,0.0,0,186,186,186,,,,,,,,,,,,,112.01308719999724,0.01308719999724417,None,145.6856289999996,145.6856289999996,145.6856289999996,145.6856289999996,145.6856289999996,145.6856289999996,145.6856289999996,145.6856289999996,145.6856289999996,145.6856289999996,,002,P013,2025_Feb_08_1450,ConditionRich,2021.2.3,59.93109123160806,
112.75,113.0,41,0.0,Stimuli/Blank.png,0,0,0.0,0,187,187,187,,,,,,,,,,,,,112.78099269999802,0.030992699998023454,None,146.43629599999986,146.43629599999986,146.43629599999986,146.43629599999986,146.43629599999986,146.43629599999986,146.43629599999986,146.43629599999986,146.43629599999986,146.43629599999986,,002,P013,2025_Feb_08_1450,ConditionRich,2021.2.3,59.93109123160806,
113.0,113.75,38,0.75,Stimuli/P013/things_spark_plug_07s.jpg,0,0,0.0,0,188,188,188,,,,,,,,,,,,,113.01619469999787,0.016194699997868156,None,146.68648759999996,146.68648759999996,146.68648759999996,146.68648759999996,146.68648759999996,146.68648759999996,146.68648759999996,146.68648759999996,146.68648759999996,146.68648759999996,,002,P013,2025_Feb_08_1450,ConditionRich,2021.2.3,59.93109123160806,
113.75,114.0,41,0.0,Stimuli/Blank.png,0,0,0.0,0,189,189,189,,,,,,,,,,,,,113.76548729999922,0.01548729999922216,None,147.42046250000203,147.42046250000203,147.42046250000203,147.42046250000203,147.42046250000203,147.42046250000203,147.42046250000203,147.42046250000203,147.42046250000203,147.42046250000203,,002,P013,2025_Feb_08_1450,ConditionRich,2021.2.3,59.93109123160806,
114.0,114.75,38,0.75,Stimuli/P013/things_spark_plug_07s.jpg,0,0,0.0,0,190,190,190,,,,,,,,,,,,,113.99887769999987,-0.0011223000001336914,None,147.67072850000113,147.67072850000113,147.67072850000113,147.67072850000113,147.67072850000113,147.67072850000113,147.67072850000113,147.67072850000113,147.67072850000113,147.67072850000113,,002,P013,2025_Feb_08_1450,ConditionRich,2021.2.3,59.93109123160806,
114.75,115.0,41,0.0,Stimuli/Blank.png,0,0,0.0,0,191,191,191,,,,,,,,,,,,,114.7660423999987,0.016042399998696055,None,148.42137459999867,148.42137459999867,148.42137459999867,148.42137459999867,148.42137459999867,148.42137459999867,148.42137459999867,148.42137459999867,148.42137459999867,148.42137459999867,,002,P013,2025_Feb_08_1450,ConditionRich,2021.2.3,59.93109123160806,
115.0,115.75,38,0.75,Stimuli/P013/things_spark_plug_07s.jpg,0,0,0.0,0,192,192,192,,,,,,,,,,,,,115.0014960999979,0.0014960999978939071,None,148.6716043999986,148.6716043999986,148.6716043999986,148.6716043999986,148.6716043999986,148.6716043999986,148.6716043999986,148.6716043999986,148.6716043999986,148.6716043999986,,002,P013,2025_Feb_08_1450,ConditionRich,2021.2.3,59.93109123160806,
115.75,116.0,41,0.0,Stimuli/Blank.png,0,0,0.0,0,193,193,193,,,,,,,,,,,,,115.7670775000006,0.017077500000596046,None,149.42226279999886,149.42226279999886,149.42226279999886,149.42226279999886,149.42226279999886,149.42226279999886,149.42226279999886,149.42226279999886,149.42226279999886,149.42226279999886,,002,P013,2025_Feb_08_1450,ConditionRich,2021.2.3,59.93109123160806,
116.0,116.75,13,0.75,Stimuli/P013/sun_bpccpwpohfirajtf.jpg,0,0,0.0,0,194,194,194,,,,,,,,,,,,,116.0004248999976,0.0004248999975970946,None,149.6558468000003,149.6558468000003,149.6558468000003,149.6558468000003,149.6558468000003,149.6558468000003,149.6558468000003,149.6558468000003,149.6558468000003,149.6558468000003,,002,P013,2025_Feb_08_1450,ConditionRich,2021.2.3,59.93109123160806,
116.75,117.0,41,0.0,Stimuli/Blank.png,0,0,0.0,0,195,195,195,,,,,,,,,,,,,116.75060619999931,0.0006061999993107747,None,150.40646000000197,150.40646000000197,150.40646000000197,150.40646000000197,150.40646000000197,150.40646000000197,150.40646000000197,150.40646000000197,150.40646000000197,150.40646000000197,,002,P013,2025_Feb_08_1450,ConditionRich,2021.2.3,59.93109123160806,
117.0,117.75,13,0.75,Stimuli/P013/sun_bpccpwpohfirajtf.jpg,0,0,0.0,0,196,196,196,,,,,,,,,,,,,117.00142839999899,0.0014283999989856966,None,150.67336559999967,150.67336559999967,150.67336559999967,150.67336559999967,150.67336559999967,150.67336559999967,150.67336559999967,150.67336559999967,150.67336559999967,150.67336559999967,,002,P013,2025_Feb_08_1450,ConditionRich,2021.2.3,59.93109123160806,
117.75,118.0,41,0.0,Stimuli/Blank.png,0,0,0.0,0,197,197,197,,,,,,,,,,,,,117.7709094999991,0.02090949999910663,None,151.44180490000144,151.44180490000144,151.44180490000144,151.44180490000144,151.44180490000144,151.44180490000144,151.44180490000144,151.44180490000144,151.44180490000144,151.44180490000144,,002,P013,2025_Feb_08_1450,ConditionRich,2021.2.3,59.93109123160806,
118.0,118.75,13,0.75,Stimuli/P013/sun_bpccpwpohfirajtf.jpg,0,0,0.0,0,198,198,198,,,,,,,,,,,,,118.01905029999762,0.019050299997616094,None,151.69096410000202,151.69096410000202,151.69096410000202,151.69096410000202,151.69096410000202,151.69096410000202,151.69096410000202,151.69096410000202,151.69096410000202,151.69096410000202,,002,P013,2025_Feb_08_1450,ConditionRich,2021.2.3,59.93109123160806,
118.75,119.0,41,0.0,Stimuli/Blank.png,0,0,0.0,0,199,199,199,,,,,,,,,,,,,118.7701621999986,0.020162199998594588,None,152.42491560000053,152.42491560000053,152.42491560000053,152.42491560000053,152.42491560000053,152.42491560000053,152.42491560000053,152.42491560000053,152.42491560000053,152.42491560000053,,002,P013,2025_Feb_08_1450,ConditionRich,2021.2.3,59.93109123160806,
119.0,119.75,13,0.75,Stimuli/P013/sun_bpccpwpohfirajtf.jpg,0,0,0.0,0,200,200,200,,,,,,,,,,,,,119.00250819999928,0.0025081999992835335,None,152.65845460000128,152.65845460000128,152.65845460000128,152.65845460000128,152.65845460000128,152.65845460000128,152.65845460000128,152.65845460000128,152.65845460000128,152.65845460000128,,002,P013,2025_Feb_08_1450,ConditionRich,2021.2.3,59.93109123160806,
119.75,120.0,41,0.0,Stimuli/Blank.png,0,0,0.0,0,201,201,201,,,,,,,,,,,,,119.75564929999746,0.005649299997458002,None,153.42580090000047,153.42580090000047,153.42580090000047,153.42580090000047,153.42580090000047,153.42580090000047,153.42580090000047,153.42580090000047,153.42580090000047,153.42580090000047,,002,P013,2025_Feb_08_1450,ConditionRich,2021.2.3,59.93109123160806,
120.0,120.75,26,0.75,Stimuli/P013/things_cougar_07s.jpg,0,0,0.0,0,202,202,202,,,,,,,,,,,,,120.02059129999907,0.020591299999068724,None,153.67600669999956,153.67600669999956,153.67600669999956,153.67600669999956,153.67600669999956,153.67600669999956,153.67600669999956,153.67600669999956,153.67600669999956,153.67600669999956,,002,P013,2025_Feb_08_1450,ConditionRich,2021.2.3,59.93109123160806,
120.75,121.0,41,0.0,Stimuli/Blank.png,0,0,0.0,0,203,203,203,,,,,,,,,,,,,120.7560577999975,0.006057799997506663,None,154.4266889999999,154.4266889999999,154.4266889999999,154.4266889999999,154.4266889999999,154.4266889999999,154.4266889999999,154.4266889999999,154.4266889999999,154.4266889999999,,002,P013,2025_Feb_08_1450,ConditionRich,2021.2.3,59.93109123160806,
121.0,121.75,26,0.75,Stimuli/P013/things_cougar_07s.jpg,0,0,0.0,0,204,204,204,,,,,,,,,,,,,121.02156019999893,0.02156019999893033,None,154.67690439999933,154.67690439999933,154.67690439999933,154.67690439999933,154.67690439999933,154.67690439999933,154.67690439999933,154.67690439999933,154.67690439999933,154.67690439999933,,002,P013,2025_Feb_08_1450,ConditionRich,2021.2.3,59.93109123160806,
121.75,122.0,41,0.0,Stimuli/Blank.png,0,0,0.0,0,205,205,205,,,,,,,,,,,,,121.75516149999748,0.005161499997484498,None,155.41088310000123,155.41088310000123,155.41088310000123,155.41088310000123,155.41088310000123,155.41088310000123,155.41088310000123,155.41088310000123,155.41088310000123,155.41088310000123,,002,P013,2025_Feb_08_1450,ConditionRich,2021.2.3,59.93109123160806,
122.0,122.75,26,0.75,Stimuli/P013/things_cougar_07s.jpg,0,0,0.0,0,206,206,206,,,,,,,,,,,,,122.00512170000002,0.005121700000017881,None,155.6610667999994,155.6610667999994,155.6610667999994,155.6610667999994,155.6610667999994,155.6610667999994,155.6610667999994,155.6610667999994,155.6610667999994,155.6610667999994,,002,P013,2025_Feb_08_1450,ConditionRich,2021.2.3,59.93109123160806,
122.75,123.0,41,0.0,Stimuli/Blank.png,0,0,0.0,0,207,207,207,,,,,,,,,,,,,122.75621909999973,0.006219099999725586,None,156.4117772999998,156.4117772999998,156.4117772999998,156.4117772999998,156.4117772999998,156.4117772999998,156.4117772999998,156.4117772999998,156.4117772999998,156.4117772999998,,002,P013,2025_Feb_08_1450,ConditionRich,2021.2.3,59.93109123160806,
123.0,123.75,26,0.75,Stimuli/P013/things_cougar_07s.jpg,0,0,0.0,0,208,208,208,,,,,,,,,,,,,123.00613510000039,0.006135100000392413,None,156.66199970000162,156.66199970000162,156.66199970000162,156.66199970000162,156.66199970000162,156.66199970000162,156.66199970000162,156.66199970000162,156.66199970000162,156.66199970000162,,002,P013,2025_Feb_08_1450,ConditionRich,2021.2.3,59.93109123160806,
123.75,124.0,41,0.0,Stimuli/Blank.png,0,0,0.0,0,209,209,209,,,,,,,,,,,,,123.75689719999718,0.006897199997183634,None,157.41265270000076,157.41265270000076,157.41265270000076,157.41265270000076,157.41265270000076,157.41265270000076,157.41265270000076,157.41265270000076,157.41265270000076,157.41265270000076,,002,P013,2025_Feb_08_1450,ConditionRich,2021.2.3,59.93109123160806,
124.0,124.75,27,0.75,Stimuli/P013/things_face_07s.jpg,0,0,0.0,0,210,210,210,,,,,,,,,,,,,124.00740369999767,0.00740369999766699,None,157.66285749999952,157.66285749999952,157.66285749999952,157.66285749999952,157.66285749999952,157.66285749999952,157.66285749999952,157.66285749999952,157.66285749999952,157.66285749999952,,002,P013,2025_Feb_08_1450,ConditionRich,2021.2.3,59.93109123160806,
124.75,125.0,41,0.0,Stimuli/Blank.png,0,0,0.0,0,211,211,211,,,,,,,,,,,,,124.7583973999972,0.008397399997193133,None,158.41354710000087,158.41354710000087,158.41354710000087,158.41354710000087,158.41354710000087,158.41354710000087,158.41354710000087,158.41354710000087,158.41354710000087,158.41354710000087,,002,P013,2025_Feb_08_1450,ConditionRich,2021.2.3,59.93109123160806,
125.0,125.75,27,0.75,Stimuli/P013/things_face_07s.jpg,0,0,0.0,0,212,212,212,,,,,,,,,,,,,125.00776969999788,0.007769699997879798,None,158.6637723999993,158.6637723999993,158.6637723999993,158.6637723999993,158.6637723999993,158.6637723999993,158.6637723999993,158.6637723999993,158.6637723999993,158.6637723999993,,002,P013,2025_Feb_08_1450,ConditionRich,2021.2.3,59.93109123160806,
125.75,126.0,41,0.0,Stimuli/Blank.png,0,0,0.0,0,213,213,213,,,,,,,,,,,,,125.76057629999923,0.010576299999229377,None,159.43111270000009,159.43111270000009,159.43111270000009,159.43111270000009,159.43111270000009,159.43111270000009,159.43111270000009,159.43111270000009,159.43111270000009,159.43111270000009,,002,P013,2025_Feb_08_1450,ConditionRich,2021.2.3,59.93109123160806,
126.0,126.75,27,0.75,Stimuli/P013/things_face_07s.jpg,0,0,0.0,0,214,214,214,,,,,,,,,,,,,126.02542919999905,0.0254291999990528,None,159.68134080000164,159.68134080000164,159.68134080000164,159.68134080000164,159.68134080000164,159.68134080000164,159.68134080000164,159.68134080000164,159.68134080000164,159.68134080000164,,002,P013,2025_Feb_08_1450,ConditionRich,2021.2.3,59.93109123160806,
126.75,127.0,41,0.0,Stimuli/Blank.png,0,0,0.0,0,215,215,215,,,,,,,,,,,,,126.75996069999746,0.009960699997463962,None,160.41532310000184,160.41532310000184,160.41532310000184,160.41532310000184,160.41532310000184,160.41532310000184,160.41532310000184,160.41532310000184,160.41532310000184,160.41532310000184,,002,P013,2025_Feb_08_1450,ConditionRich,2021.2.3,59.93109123160806,
127.0,127.75,27,0.75,Stimuli/P013/things_face_07s.jpg,0,0,0.0,0,216,216,216,,,,,,,,,,,,,127.01025259999733,0.010252599997329526,None,160.68221709999852,160.68221709999852,160.68221709999852,160.68221709999852,160.68221709999852,160.68221709999852,160.68221709999852,160.68221709999852,160.68221709999852,160.68221709999852,,002,P013,2025_Feb_08_1450,ConditionRich,2021.2.3,59.93109123160806,
127.75,128.0,41,0.0,Stimuli/Blank.png,0,0,0.0,0,217,217,217,,,,,,,,,,,,,127.7777752999973,0.027775299997301772,None,161.4328788999992,161.4328788999992,161.4328788999992,161.4328788999992,161.4328788999992,161.4328788999992,161.4328788999992,161.4328788999992,161.4328788999992,161.4328788999992,,002,P013,2025_Feb_08_1450,ConditionRich,2021.2.3,59.93109123160806,
128.0,128.75,25,0.75,Stimuli/P013/things_cashew_07s.jpg,0,0,0.0,0,218,218,218,,,,,,,,,,,,,128.0109468999981,0.010946899998089066,None,161.66642130000037,161.66642130000037,161.66642130000037,161.66642130000037,161.66642130000037,161.66642130000037,161.66642130000037,161.66642130000037,161.66642130000037,161.66642130000037,,002,P013,2025_Feb_08_1450,ConditionRich,2021.2.3,59.93109123160806,
128.75,129.0,41,0.0,Stimuli/Blank.png,0,0,0.0,0,219,219,219,,,,,,,,,,,,,128.7613249999995,0.011324999999487773,None,162.41709120000087,162.41709120000087,162.41709120000087,162.41709120000087,162.41709120000087,162.41709120000087,162.41709120000087,162.41709120000087,162.41709120000087,162.41709120000087,,002,P013,2025_Feb_08_1450,ConditionRich,2021.2.3,59.93109123160806,
129.0,129.75,25,0.75,Stimuli/P013/things_cashew_07s.jpg,0,0,0.0,0,220,220,220,,,,,,,,,,,,,129.01130829999965,0.011308299999654992,None,162.6673109000003,162.6673109000003,162.6673109000003,162.6673109000003,162.6673109000003,162.6673109000003,162.6673109000003,162.6673109000003,162.6673109000003,162.6673109000003,,002,P013,2025_Feb_08_1450,ConditionRich,2021.2.3,59.93109123160806,
129.75,130.0,41,0.0,Stimuli/Blank.png,0,0,0.0,0,221,221,221,,,,,,,,,,,,,129.76269909999974,0.012699099999736063,None,163.41797249999945,163.41797249999945,163.41797249999945,163.41797249999945,163.41797249999945,163.41797249999945,163.41797249999945,163.41797249999945,163.41797249999945,163.41797249999945,,002,P013,2025_Feb_08_1450,ConditionRich,2021.2.3,59.93109123160806,
130.0,130.75,25,0.75,Stimuli/P013/things_cashew_07s.jpg,0,0,0.0,0,222,222,222,,,,,,,,,,,,,130.01218019999942,0.012180199999420438,None,163.66819119999855,163.66819119999855,163.66819119999855,163.66819119999855,163.66819119999855,163.66819119999855,163.66819119999855,163.66819119999855,163.66819119999855,163.66819119999855,,002,P013,2025_Feb_08_1450,ConditionRich,2021.2.3,59.93109123160806,
130.75,131.0,41,0.0,Stimuli/Blank.png,0,0,0.0,0,223,223,223,,,,,,,,,,,,,130.7636805000002,0.013680500000191387,None,164.41887209999913,164.41887209999913,164.41887209999913,164.41887209999913,164.41887209999913,164.41887209999913,164.41887209999913,164.41887209999913,164.41887209999913,164.41887209999913,,002,P013,2025_Feb_08_1450,ConditionRich,2021.2.3,59.93109123160806,
131.0,131.75,25,0.75,Stimuli/P013/things_cashew_07s.jpg,0,0,0.0,0,224,224,224,,,,,,,,,,,,,131.01393749999988,0.013937499999883585,None,164.66910229999849,164.66910229999849,164.66910229999849,164.66910229999849,164.66910229999849,164.66910229999849,164.66910229999849,164.66910229999849,164.66910229999849,164.66910229999849,,002,P013,2025_Feb_08_1450,ConditionRich,2021.2.3,59.93109123160806,
131.75,132.0,41,0.0,Stimuli/Blank.png,0,0,0.0,0,225,225,225,,,,,,,,,,,,,131.7659769999991,0.015976999999111285,None,165.43643080000038,165.43643080000038,165.43643080000038,165.43643080000038,165.43643080000038,165.43643080000038,165.43643080000038,165.43643080000038,165.43643080000038,165.43643080000038,,002,P013,2025_Feb_08_1450,ConditionRich,2021.2.3,59.93109123160806,
132.0,132.75,16,0.75,Stimuli/P013/sun_bsgtkqjrnrvttrax.jpg,0,0,0.0,0,226,226,226,,,,,,,,,,,,,132.01387619999878,0.013876199998776428,None,165.66995980000138,165.66995980000138,165.66995980000138,165.66995980000138,165.66995980000138,165.66995980000138,165.66995980000138,165.66995980000138,165.66995980000138,165.66995980000138,,002,P013,2025_Feb_08_1450,ConditionRich,2021.2.3,59.93109123160806,
132.75,133.0,41,0.0,Stimuli/Blank.png,0,0,0.0,0,227,227,227,,,,,,,,,,,,,132.7656915999978,0.015691599997808225,None,166.42062960000112,166.42062960000112,166.42062960000112,166.42062960000112,166.42062960000112,166.42062960000112,166.42062960000112,166.42062960000112,166.42062960000112,166.42062960000112,,002,P013,2025_Feb_08_1450,ConditionRich,2021.2.3,59.93109123160806,
133.0,133.75,16,0.75,Stimuli/P013/sun_bsgtkqjrnrvttrax.jpg,0,0,0.0,0,228,228,228,,,,,,,,,,,,,133.00084269999934,0.0008426999993389472,None,166.67084940000132,166.67084940000132,166.67084940000132,166.67084940000132,166.67084940000132,166.67084940000132,166.67084940000132,166.67084940000132,166.67084940000132,166.67084940000132,,002,P013,2025_Feb_08_1450,ConditionRich,2021.2.3,59.93109123160806,
133.75,134.0,41,0.0,Stimuli/Blank.png,0,0,0.0,0,229,229,229,,,,,,,,,,,,,133.76658970000062,0.016589700000622543,None,167.4215183999986,167.4215183999986,167.4215183999986,167.4215183999986,167.4215183999986,167.4215183999986,167.4215183999986,167.4215183999986,167.4215183999986,167.4215183999986,,002,P013,2025_Feb_08_1450,ConditionRich,2021.2.3,59.93109123160806,
134.0,134.75,16,0.75,Stimuli/P013/sun_bsgtkqjrnrvttrax.jpg,0,0,0.0,0,230,230,230,,,,,,,,,,,,,134.0011061999976,0.0011061999975936487,None,167.6717005999999,167.6717005999999,167.6717005999999,167.6717005999999,167.6717005999999,167.6717005999999,167.6717005999999,167.6717005999999,167.6717005999999,167.6717005999999,,002,P013,2025_Feb_08_1450,ConditionRich,2021.2.3,59.93109123160806,
134.75,135.0,41,0.0,Stimuli/Blank.png,0,0,0.0,0,231,231,231,,,,,,,,,,,,,134.76679519999743,0.016795199997432064,None,168.4224030000005,168.4224030000005,168.4224030000005,168.4224030000005,168.4224030000005,168.4224030000005,168.4224030000005,168.4224030000005,168.4224030000005,168.4224030000005,,002,P013,2025_Feb_08_1450,ConditionRich,2021.2.3,59.93109123160806,
135.0,135.75,16,0.75,Stimuli/P013/sun_bsgtkqjrnrvttrax.jpg,1,0,0.75,0,232,232,232,,,,,,,,,,,,,135.0015519999979,0.001551999997900566,None,168.6726232000001,168.6726232000001,168.6726232000001,168.6726232000001,168.6726232000001,168.6726232000001,168.6726232000001,169.3899461000001,168.6726232000001,168.6726232000001,,002,P013,2025_Feb_08_1450,ConditionRich,2021.2.3,59.93109123160806,
135.75,136.0,41,0.0,Stimuli/Blank.png,0,0,0.0,0,233,233,233,,,,,,,,,,,,,135.7680010999975,0.01800109999749111,None,169.42336520000026,169.42336520000026,169.42336520000026,169.42336520000026,169.42336520000026,169.42336520000026,169.42336520000026,169.42336520000026,169.42336520000026,169.42336520000026,,002,P013,2025_Feb_08_1450,ConditionRich,2021.2.3,59.93109123160806,
136.0,136.75,34,0.75,Stimuli/P013/things_radio_07s.jpg,0,0,0.0,0,234,234,234,,,,,,,,,,,,,136.0015631999995,0.0015631999995093793,None,169.67346800000087,169.67346800000087,169.67346800000087,169.67346800000087,169.67346800000087,169.67346800000087,169.67346800000087,169.67346800000087,169.67346800000087,169.67346800000087,,002,P013,2025_Feb_08_1450,ConditionRich,2021.2.3,59.93109123160806,
136.75,137.0,41,0.0,Stimuli/Blank.png,0,0,0.0,0,235,235,235,,,,,,,,,,,,,136.77062719999958,0.020627199999580625,None,170.44087690000015,170.44087690000015,170.44087690000015,170.44087690000015,170.44087690000015,170.44087690000015,170.44087690000015,170.44087690000015,170.44087690000015,170.44087690000015,,002,P013,2025_Feb_08_1450,ConditionRich,2021.2.3,59.93109123160806,
137.0,137.75,34,0.75,Stimuli/P013/things_radio_07s.jpg,0,0,0.0,0,236,236,236,,,,,,,,,,,,,137.02073129999917,0.020731299999170005,None,170.69107630000144,170.69107630000144,170.69107630000144,170.69107630000144,170.69107630000144,170.69107630000144,170.69107630000144,170.69107630000144,170.69107630000144,170.69107630000144,,002,P013,2025_Feb_08_1450,ConditionRich,2021.2.3,59.93109123160806,
137.75,138.0,41,0.0,Stimuli/Blank.png,0,0,0.0,0,237,237,237,,,,,,,,,,,,,137.7694066999975,0.01940669999748934,None,171.4250949999987,171.4250949999987,171.4250949999987,171.4250949999987,171.4250949999987,171.4250949999987,171.4250949999987,171.4250949999987,171.4250949999987,171.4250949999987,,002,P013,2025_Feb_08_1450,ConditionRich,2021.2.3,59.93109123160806,
138.0,138.75,34,0.75,Stimuli/P013/things_radio_07s.jpg,1,0,0.75,0,238,238,238,,,,,,,,,,,,,138.00584069999968,0.00584069999968051,1,171.675283200002,171.675283200002,171.675283200002,171.675283200002,171.675283200002,171.675283200002,171.675283200002,172.4092528000001,171.675283200002,171.675283200002,0.592218399997364,002,P013,2025_Feb_08_1450,ConditionRich,2021.2.3,59.93109123160806,
138.75,139.0,41,0.0,Stimuli/Blank.png,0,0,0.0,0,239,239,239,,,,,,,,,,,,,138.77048499999728,0.020484999997279374,None,172.42594019999888,172.42594019999888,172.42594019999888,172.42594019999888,172.42594019999888,172.42594019999888,172.42594019999888,172.42594019999888,172.42594019999888,172.42594019999888,,002,P013,2025_Feb_08_1450,ConditionRich,2021.2.3,59.93109123160806,
139.0,139.75,34,0.75,Stimuli/P013/things_radio_07s.jpg,0,0,0.0,0,240,240,240,,,,,,,,,,,,,139.00614080000014,0.006140800000139279,None,172.67616470000212,172.67616470000212,172.67616470000212,172.67616470000212,172.67616470000212,172.67616470000212,172.67616470000212,172.67616470000212,172.67616470000212,172.67616470000212,,002,P013,2025_Feb_08_1450,ConditionRich,2021.2.3,59.93109123160806,
139.75,140.0,41,0.0,Stimuli/Blank.png,0,0,0.0,0,241,241,241,,,,,,,,,,,,,139.77164659999835,0.021646599998348393,None,173.4268222999999,173.4268222999999,173.4268222999999,173.4268222999999,173.4268222999999,173.4268222999999,173.4268222999999,173.4268222999999,173.4268222999999,173.4268222999999,,002,P013,2025_Feb_08_1450,ConditionRich,2021.2.3,59.93109123160806,
140.0,140.75,1,0.75,Stimuli/P013/sun_adkmgqclfrkhfxbd.jpg,0,0,0.0,0,242,242,242,,,,,,,,,,,,,140.0045637000003,0.004563700000289828,None,173.66036090000125,173.66036090000125,173.66036090000125,173.66036090000125,173.66036090000125,173.66036090000125,173.66036090000125,173.66036090000125,173.66036090000125,173.66036090000125,,002,P013,2025_Feb_08_1450,ConditionRich,2021.2.3,59.93109123160806,
140.75,141.0,41,0.0,Stimuli/Blank.png,0,0,0.0,0,243,243,243,,,,,,,,,,,,,140.7560072999986,0.006007299998600502,None,174.4110452999994,174.4110452999994,174.4110452999994,174.4110452999994,174.4110452999994,174.4110452999994,174.4110452999994,174.4110452999994,174.4110452999994,174.4110452999994,,002,P013,2025_Feb_08_1450,ConditionRich,2021.2.3,59.93109123160806,
141.0,141.75,1,0.75,Stimuli/P013/sun_adkmgqclfrkhfxbd.jpg,0,0,0.0,0,244,244,244,,,,,,,,,,,,,141.00548770000023,0.005487700000230689,None,174.66199770000094,174.66199770000094,174.66199770000094,174.66199770000094,174.66199770000094,174.66199770000094,174.66199770000094,174.66199770000094,174.66199770000094,174.66199770000094,,002,P013,2025_Feb_08_1450,ConditionRich,2021.2.3,59.93109123160806,
141.75,142.0,41,0.0,Stimuli/Blank.png,0,0,0.0,0,245,245,245,,,,,,,,,,,,,141.7567257999981,0.006725799998093862,None,175.41192199999932,175.41192199999932,175.41192199999932,175.41192199999932,175.41192199999932,175.41192199999932,175.41192199999932,175.41192199999932,175.41192199999932,175.41192199999932,,002,P013,2025_Feb_08_1450,ConditionRich,2021.2.3,59.93109123160806,
142.0,142.75,1,0.75,Stimuli/P013/sun_adkmgqclfrkhfxbd.jpg,0,0,0.0,0,246,246,246,,,,,,,,,,,,,142.00615429999743,0.006154299997433554,None,175.6621379999997,175.6621379999997,175.6621379999997,175.6621379999997,175.6621379999997,175.6621379999997,175.6621379999997,175.6621379999997,175.6621379999997,175.6621379999997,,002,P013,2025_Feb_08_1450,ConditionRich,2021.2.3,59.93109123160806,
142.75,143.0,41,0.0,Stimuli/Blank.png,0,0,0.0,0,247,247,247,,,,,,,,,,,,,142.75680300000022,0.006803000000218162,None,176.41279479999866,176.41279479999866,176.41279479999866,176.41279479999866,176.41279479999866,176.41279479999866,176.41279479999866,176.41279479999866,176.41279479999866,176.41279479999866,,002,P013,2025_Feb_08_1450,ConditionRich,2021.2.3,59.93109123160806,
143.0,143.75,1,0.75,Stimuli/P013/sun_adkmgqclfrkhfxbd.jpg,0,0,0.0,0,248,248,248,,,,,,,,,,,,,143.0082732999981,0.008273299998108996,None,176.6797200000001,176.6797200000001,176.6797200000001,176.6797200000001,176.6797200000001,176.6797200000001,176.6797200000001,176.6797200000001,176.6797200000001,176.6797200000001,,002,P013,2025_Feb_08_1450,ConditionRich,2021.2.3,59.93109123160806,
143.75,144.0,41,0.0,Stimuli/Blank.png,0,0,0.0,0,249,249,249,,,,,,,,,,,,,143.7752177000002,0.025217700000212062,None,177.43036900000152,177.43036900000152,177.43036900000152,177.43036900000152,177.43036900000152,177.43036900000152,177.43036900000152,177.43036900000152,177.43036900000152,177.43036900000152,,002,P013,2025_Feb_08_1450,ConditionRich,2021.2.3,59.93109123160806,
144.0,144.75,14,0.75,Stimuli/P013/sun_bqhfterhwnqrbnzg.jpg,0,0,0.0,0,250,250,250,,,,,,,,,,,,,144.007947099999,0.007947099999000784,None,177.68060179999884,177.68060179999884,177.68060179999884,177.68060179999884,177.68060179999884,177.68060179999884,177.68060179999884,177.68060179999884,177.68060179999884,177.68060179999884,,002,P013,2025_Feb_08_1450,ConditionRich,2021.2.3,59.93109123160806,
144.75,145.0,41,0.0,Stimuli/Blank.png,0,0,0.0,0,251,251,251,,,,,,,,,,,,,144.77676900000006,0.02676900000005844,None,178.43126649999977,178.43126649999977,178.43126649999977,178.43126649999977,178.43126649999977,178.43126649999977,178.43126649999977,178.43126649999977,178.43126649999977,178.43126649999977,,002,P013,2025_Feb_08_1450,ConditionRich,2021.2.3,59.93109123160806,
145.0,145.75,14,0.75,Stimuli/P013/sun_bqhfterhwnqrbnzg.jpg,0,0,0.0,0,252,252,252,,,,,,,,,,,,,145.00943749999715,0.009437499997147825,None,178.66478110000025,178.66478110000025,178.66478110000025,178.66478110000025,178.66478110000025,178.66478110000025,178.66478110000025,178.66478110000025,178.66478110000025,178.66478110000025,,002,P013,2025_Feb_08_1450,ConditionRich,2021.2.3,59.93109123160806,
145.75,146.0,41,0.0,Stimuli/Blank.png,0,0,0.0,0,253,253,253,,,,,,,,,,,,,145.7608798000001,0.010879800000111572,None,179.4154602999988,179.4154602999988,179.4154602999988,179.4154602999988,179.4154602999988,179.4154602999988,179.4154602999988,179.4154602999988,179.4154602999988,179.4154602999988,,002,P013,2025_Feb_08_1450,ConditionRich,2021.2.3,59.93109123160806,
146.0,146.75,14,0.75,Stimuli/P013/sun_bqhfterhwnqrbnzg.jpg,0,0,0.0,0,254,254,254,,,,,,,,,,,,,146.01071919999958,0.010719199999584816,None,179.66567450000002,179.66567450000002,179.66567450000002,179.66567450000002,179.66567450000002,179.66567450000002,179.66567450000002,179.66567450000002,179.66567450000002,179.66567450000002,,002,P013,2025_Feb_08_1450,ConditionRich,2021.2.3,59.93109123160806,
146.75,147.0,41,0.0,Stimuli/Blank.png,0,0,0.0,0,255,255,255,,,,,,,,,,,,,146.76155219999782,0.011552199997822754,None,180.41634540000086,180.41634540000086,180.41634540000086,180.41634540000086,180.41634540000086,180.41634540000086,180.41634540000086,180.41634540000086,180.41634540000086,180.41634540000086,,002,P013,2025_Feb_08_1450,ConditionRich,2021.2.3,59.93109123160806,
147.0,147.75,14,0.75,Stimuli/P013/sun_bqhfterhwnqrbnzg.jpg,0,0,0.0,0,256,256,256,,,,,,,,,,,,,147.01169369999843,0.011693699998431839,None,180.6832663999994,180.6832663999994,180.6832663999994,180.6832663999994,180.6832663999994,180.6832663999994,180.6832663999994,180.6832663999994,180.6832663999994,180.6832663999994,,002,P013,2025_Feb_08_1450,ConditionRich,2021.2.3,59.93109123160806,
147.75,148.0,41,0.0,Stimuli/Blank.png,0,0,0.0,0,257,257,257,,,,,,,,,,,,,147.77789199999825,0.02789199999824632,None,181.43389860000025,181.43389860000025,181.43389860000025,181.43389860000025,181.43389860000025,181.43389860000025,181.43389860000025,181.43389860000025,181.43389860000025,181.43389860000025,,002,P013,2025_Feb_08_1450,ConditionRich,2021.2.3,59.93109123160806,
148.0,148.75,28,0.75,Stimuli/P013/things_girl_07s.jpg,0,0,0.0,0,258,258,258,,,,,,,,,,,,,148.01251499999853,0.012514999998529674,None,181.6674434000015,181.6674434000015,181.6674434000015,181.6674434000015,181.6674434000015,181.6674434000015,181.6674434000015,181.6674434000015,181.6674434000015,181.6674434000015,,002,P013,2025_Feb_08_1450,ConditionRich,2021.2.3,59.93109123160806,
148.75,149.0,41,0.0,Stimuli/Blank.png,0,0,0.0,0,259,259,259,,,,,,,,,,,,,148.76227499999732,0.012274999997316627,None,182.41810429999896,182.41810429999896,182.41810429999896,182.41810429999896,182.41810429999896,182.41810429999896,182.41810429999896,182.41810429999896,182.41810429999896,182.41810429999896,,002,P013,2025_Feb_08_1450,ConditionRich,2021.2.3,59.93109123160806,
149.0,149.75,28,0.75,Stimuli/P013/things_girl_07s.jpg,0,0,0.0,0,260,260,260,,,,,,,,,,,,,149.01252889999887,0.012528899998869747,None,182.66832689999865,182.66832689999865,182.66832689999865,182.66832689999865,182.66832689999865,182.66832689999865,182.66832689999865,182.66832689999865,182.66832689999865,182.66832689999865,,002,P013,2025_Feb_08_1450,ConditionRich,2021.2.3,59.93109123160806,
149.75,150.0,41,0.0,Stimuli/Blank.png,0,0,0.0,0,261,261,261,,,,,,,,,,,,,149.7656508,0.015650800000003073,None,183.43567470000198,183.43567470000198,183.43567470000198,183.43567470000198,183.43567470000198,183.43567470000198,183.43567470000198,183.43567470000198,183.43567470000198,183.43567470000198,,002,P013,2025_Feb_08_1450,ConditionRich,2021.2.3,59.93109123160806,
