eventStartTime,eventEndTime,eventCond,imSize,imFile,responseEvent,fixRespStart,fixRespEnd,Events.thisRepN,Events.thisTrialN,Events.thisN,Events.thisIndex,Instructions.started,Instructions.stopped,participantReadyResponse.keys,participantReadyResponse.rt,participantReadyResponse.started,participantReadyResponse.stopped,startWaitforTrigger,triggerResponse.keys,triggerResponse.rt,triggerResponse.started,triggerResponse.stopped,globalTimer,actualStartTime,startTimingDiff,participantResponse.keys,participantResponse.started,participantResponse.stopped,image.started,image.stopped,fixationOutside.started,fixationOutside.stopped,fixationResponse.started,fixationResponse.stopped,fixationInside.started,fixationInside.stopped,participantResponse.rt,session,participant,date,expName,psychopyVersion,frameRate,
,,,,,,,,,,,,11.275676000001113,None,1,6.517978099996981,11.275676000001113,None,,,,,,,,,,,,,,,,,,,,,004,P013,2025_Feb_08_1511,ConditionRich,2021.2.3,59.934755026441195,
,,,,,,,,,,,,,,,,,,17.80311300000176,5,14.918883800000913,17.815772500001913,None,,,,,,,,,,,,,,,,004,P013,2025_Feb_08_1511,ConditionRich,2021.2.3,59.934755026441195,
0.0,4.0,0,0.0,Stimuli/Blank.png,0,0.0,0.0,0,0,0,0,,,,,,,,,,,,32.7490386999998,0.04822480000075302,0.04822480000075302,None,32.81233490000159,None,32.81233490000159,None,32.81233490000159,None,32.81233490000159,32.81233490000159,32.81233490000159,None,,004,P013,2025_Feb_08_1511,ConditionRich,2021.2.3,59.934755026441195,
4.0,4.75,28,0.75,Stimuli/P013/things_girl_07s.jpg,0,0.0,0.0,0,1,1,1,,,,,,,,,,,,,4.004568200001813,0.0045682000018132385,None,36.7828064000023,36.7828064000023,36.7828064000023,36.7828064000023,36.7828064000023,36.7828064000023,36.7828064000023,36.7828064000023,36.7828064000023,36.7828064000023,,004,P013,2025_Feb_08_1511,ConditionRich,2021.2.3,59.934755026441195,
4.75,8.0,41,0.0,Stimuli/Blank.png,0,0.0,0.0,0,2,2,2,,,,,,,,,,,,,4.7696011000007275,0.019601100000727456,None,37.53348310000001,37.53348310000001,37.53348310000001,37.53348310000001,37.53348310000001,37.53348310000001,37.53348310000001,37.53348310000001,37.53348310000001,37.53348310000001,,004,P013,2025_Feb_08_1511,ConditionRich,2021.2.3,59.934755026441195,
8.0,8.75,33,0.75,Stimuli/P013/things_piglet_07s.jpg,0,0.0,0.0,0,3,3,3,,,,,,,,,,,,,8.006304599999567,0.0063045999995665625,None,40.76937760000146,40.76937760000146,40.76937760000146,40.76937760000146,40.76937760000146,40.76937760000146,40.76937760000146,40.76937760000146,40.76937760000146,40.76937760000146,,004,P013,2025_Feb_08_1511,ConditionRich,2021.2.3,59.934755026441195,
8.75,12.0,41,0.0,Stimuli/Blank.png,1,2.25,3.0,0,4,4,4,,,,,,,,,,,,,8.7563332000027,0.006333200002700323,1,41.52004510000188,41.52004510000188,41.52004510000188,41.52004510000188,41.52004510000188,41.52004510000188,43.7554166000009,44.50611910000225,41.52004510000188,41.52004510000188,2.723924800000532,004,P013,2025_Feb_08_1511,ConditionRich,2021.2.3,59.934755026441195,
12.0,12.75,10,0.75,Stimuli/P013/sun_bdhxnzyleoiflyak.jpg,0,0.0,0.0,0,5,5,5,,,,,,,,,,,,,12.009900900000503,0.009900900000502588,None,44.77291890000197,44.77291890000197,44.77291890000197,44.77291890000197,44.77291890000197,44.77291890000197,44.77291890000197,44.77291890000197,44.77291890000197,44.77291890000197,,004,P013,2025_Feb_08_1511,ConditionRich,2021.2.3,59.934755026441195,
12.75,16.0,41,0.0,Stimuli/Blank.png,0,0.0,0.0,0,6,6,6,,,,,,,,,,,,,12.76056360000075,0.010563600000750739,None,45.52357850000044,45.52357850000044,45.52357850000044,45.52357850000044,45.52357850000044,45.52357850000044,45.52357850000044,45.52357850000044,45.52357850000044,45.52357850000044,,004,P013,2025_Feb_08_1511,ConditionRich,2021.2.3,59.934755026441195,
16.0,16.75,31,0.75,Stimuli/P013/things_mask_07s.jpg,0,0.0,0.0,0,7,7,7,,,,,,,,,,,,,16.014919900000677,0.014919900000677444,None,48.79310769999938,48.79310769999938,48.79310769999938,48.79310769999938,48.79310769999938,48.79310769999938,48.79310769999938,48.79310769999938,48.79310769999938,48.79310769999938,,004,P013,2025_Feb_08_1511,ConditionRich,2021.2.3,59.934755026441195,
16.75,20.0,41,0.0,Stimuli/Blank.png,0,0.0,0.0,0,8,8,8,,,,,,,,,,,,,16.7806571000001,0.03065710000009858,None,49.54380260000107,49.54380260000107,49.54380260000107,49.54380260000107,49.54380260000107,49.54380260000107,49.54380260000107,49.54380260000107,49.54380260000107,49.54380260000107,,004,P013,2025_Feb_08_1511,ConditionRich,2021.2.3,59.934755026441195,
20.0,20.75,18,0.75,Stimuli/P013/sun_btohwudpiusfvpvl.jpg,0,0.0,0.0,0,9,9,9,,,,,,,,,,,,,20.00125300000218,0.0012530000021797605,None,52.77999350000027,52.77999350000027,52.77999350000027,52.77999350000027,52.77999350000027,52.77999350000027,52.77999350000027,52.77999350000027,52.77999350000027,52.77999350000027,,004,P013,2025_Feb_08_1511,ConditionRich,2021.2.3,59.934755026441195,
20.75,24.0,41,0.0,Stimuli/Blank.png,0,0.0,0.0,0,10,10,10,,,,,,,,,,,,,20.76778480000212,0.017784800002118573,None,53.5307352000018,53.5307352000018,53.5307352000018,53.5307352000018,53.5307352000018,53.5307352000018,53.5307352000018,53.5307352000018,53.5307352000018,53.5307352000018,,004,P013,2025_Feb_08_1511,ConditionRich,2021.2.3,59.934755026441195,
24.0,24.75,8,0.75,Stimuli/P013/sun_auqrilekgmdmrncq.jpg,0,0.0,0.0,0,11,11,11,,,,,,,,,,,,,24.00562560000253,0.005625600002531428,None,56.783543600002304,56.783543600002304,56.783543600002304,56.783543600002304,56.783543600002304,56.783543600002304,56.783543600002304,56.783543600002304,56.783543600002304,56.783543600002304,,004,P013,2025_Feb_08_1511,ConditionRich,2021.2.3,59.934755026441195,
24.75,28.0,41,0.0,Stimuli/Blank.png,0,0.0,0.0,0,12,12,12,,,,,,,,,,,,,24.772112900001957,0.022112900001957314,None,57.534217200001876,57.534217200001876,57.534217200001876,57.534217200001876,57.534217200001876,57.534217200001876,57.534217200001876,57.534217200001876,57.534217200001876,57.534217200001876,,004,P013,2025_Feb_08_1511,ConditionRich,2021.2.3,59.934755026441195,
28.0,28.75,5,0.75,Stimuli/P013/sun_aidrxvbfhxtsusrf.jpg,0,0.0,0.0,0,13,13,13,,,,,,,,,,,,,28.007506800000556,0.007506800000555813,None,60.78709230000095,60.78709230000095,60.78709230000095,60.78709230000095,60.78709230000095,60.78709230000095,60.78709230000095,60.78709230000095,60.78709230000095,60.78709230000095,,004,P013,2025_Feb_08_1511,ConditionRich,2021.2.3,59.934755026441195,
28.75,32.0,41,0.0,Stimuli/Blank.png,0,0.0,0.0,0,14,14,14,,,,,,,,,,,,,28.775845899999695,0.025845899999694666,None,61.537751600000774,61.537751600000774,61.537751600000774,61.537751600000774,61.537751600000774,61.537751600000774,61.537751600000774,61.537751600000774,61.537751600000774,61.537751600000774,,004,P013,2025_Feb_08_1511,ConditionRich,2021.2.3,59.934755026441195,
32.0,32.75,32,0.75,Stimuli/P013/things_mistletoe_07s.jpg,0,0.0,0.0,0,15,15,15,,,,,,,,,,,,,32.012052900001436,0.012052900001435773,None,64.79061540000112,64.79061540000112,64.79061540000112,64.79061540000112,64.79061540000112,64.79061540000112,64.79061540000112,64.79061540000112,64.79061540000112,64.79061540000112,,004,P013,2025_Feb_08_1511,ConditionRich,2021.2.3,59.934755026441195,
32.75,36.0,41,0.0,Stimuli/Blank.png,1,0.25,1.0,0,16,16,16,,,,,,,,,,,,,32.77765139999974,0.027651399999740534,1,65.54128260000289,65.54128260000289,65.54128260000289,65.54128260000289,65.54128260000289,65.54128260000289,65.77487090000068,66.52636990000246,65.54128260000289,65.54128260000289,1.272681599999487,004,P013,2025_Feb_08_1511,ConditionRich,2021.2.3,59.934755026441195,
36.0,36.75,17,0.75,Stimuli/P013/sun_bsguftphqnrkbedw.jpg,1,0.0,0.75,0,17,17,17,,,,,,,,,,,,,36.016824300000735,0.016824300000735093,1,68.79417300000205,68.79417300000205,68.79417300000205,68.79417300000205,68.79417300000205,68.79417300000205,68.79417300000205,None,68.79417300000205,68.79417300000205,0.4946878000009747,004,P013,2025_Feb_08_1511,ConditionRich,2021.2.3,59.934755026441195,
36.75,40.0,41,0.0,Stimuli/Blank.png,0,0.0,0.0,0,18,18,18,,,,,,,,,,,,,36.76621530000193,0.01621530000193161,None,69.52814600000056,69.52814600000056,69.52814600000056,69.52814600000056,69.52814600000056,69.52814600000056,69.52814600000056,69.52814600000056,69.52814600000056,69.52814600000056,,004,P013,2025_Feb_08_1511,ConditionRich,2021.2.3,59.934755026441195,
40.0,40.75,20,0.75,Stimuli/P013/sun_cidodcxikcyrdglc.jpg,0,0.0,0.0,0,19,19,19,,,,,,,,,,,,,40.00236770000265,0.002367700002650963,None,72.76434060000247,72.76434060000247,72.76434060000247,72.76434060000247,72.76434060000247,72.76434060000247,72.76434060000247,72.76434060000247,72.76434060000247,72.76434060000247,,004,P013,2025_Feb_08_1511,ConditionRich,2021.2.3,59.934755026441195,
40.75,44.0,41,0.0,Stimuli/Blank.png,0,0.0,0.0,0,20,20,20,,,,,,,,,,,,,40.751473300002544,0.0014733000025444198,None,73.51500260000103,73.51500260000103,73.51500260000103,73.51500260000103,73.51500260000103,73.51500260000103,73.51500260000103,73.51500260000103,73.51500260000103,73.51500260000103,,004,P013,2025_Feb_08_1511,ConditionRich,2021.2.3,59.934755026441195,
44.0,44.75,39,0.75,Stimuli/P013/things_violin_07n.jpg,0,0.0,0.0,0,21,21,21,,,,,,,,,,,,,44.00478010000006,0.004780100000061793,None,76.78456650000226,76.78456650000226,76.78456650000226,76.78456650000226,76.78456650000226,76.78456650000226,76.78456650000226,76.78456650000226,76.78456650000226,76.78456650000226,,004,P013,2025_Feb_08_1511,ConditionRich,2021.2.3,59.934755026441195,
44.75,48.0,41,0.0,Stimuli/Blank.png,0,0.0,0.0,0,22,22,22,,,,,,,,,,,,,44.771520000002056,0.021520000002055895,None,77.53523480000149,77.53523480000149,77.53523480000149,77.53523480000149,77.53523480000149,77.53523480000149,77.53523480000149,77.53523480000149,77.53523480000149,77.53523480000149,,004,P013,2025_Feb_08_1511,ConditionRich,2021.2.3,59.934755026441195,
48.0,48.75,30,0.75,Stimuli/P013/things_man_07s.jpg,1,0.0,0.75,0,23,23,23,,,,,,,,,,,,,48.00786069999958,0.007860699999582721,1,80.78812070000276,80.78812070000276,80.78812070000276,80.78812070000276,80.78812070000276,80.78812070000276,80.78812070000276,81.50545310000234,80.78812070000276,80.78812070000276,0.5218759999988833,004,P013,2025_Feb_08_1511,ConditionRich,2021.2.3,59.934755026441195,
48.75,52.0,41,0.0,Stimuli/Blank.png,0,0.0,0.0,0,24,24,24,,,,,,,,,,,,,48.77579810000316,0.025798100003157742,None,81.53877800000191,81.53877800000191,81.53877800000191,81.53877800000191,81.53877800000191,81.53877800000191,81.53877800000191,81.53877800000191,81.53877800000191,81.53877800000191,,004,P013,2025_Feb_08_1511,ConditionRich,2021.2.3,59.934755026441195,
52.0,52.75,12,0.75,Stimuli/P013/sun_bjyrrxiwsnbmkbqs.jpg,0,0.0,0.0,0,25,25,25,,,,,,,,,,,,,52.01187520000167,0.011875200001668418,None,84.77496360000077,84.77496360000077,84.77496360000077,84.77496360000077,84.77496360000077,84.77496360000077,84.77496360000077,84.77496360000077,84.77496360000077,84.77496360000077,,004,P013,2025_Feb_08_1511,ConditionRich,2021.2.3,59.934755026441195,
52.75,56.0,41,0.0,Stimuli/Blank.png,1,0.25,1.0,0,26,26,26,,,,,,,,,,,,,52.76262459999998,0.012624599999981001,1,85.5256036000028,85.5256036000028,85.5256036000028,85.5256036000028,85.5256036000028,85.5256036000028,85.75914280000143,86.50982719999956,85.5256036000028,85.5256036000028,0.6822001000000455,004,P013,2025_Feb_08_1511,ConditionRich,2021.2.3,59.934755026441195,
56.0,56.75,24,0.75,Stimuli/P013/things_bungee_07s.jpg,0,0.0,0.0,0,27,27,27,,,,,,,,,,,,,56.01592680000249,0.015926800002489472,None,88.77848490000179,88.77848490000179,88.77848490000179,88.77848490000179,88.77848490000179,88.77848490000179,88.77848490000179,88.77848490000179,88.77848490000179,88.77848490000179,,004,P013,2025_Feb_08_1511,ConditionRich,2021.2.3,59.934755026441195,
56.75,60.0,41,0.0,Stimuli/Blank.png,0,0.0,0.0,0,28,28,28,,,,,,,,,,,,,56.75034710000182,0.0003471000018180348,None,89.51249580000149,89.51249580000149,89.51249580000149,89.51249580000149,89.51249580000149,89.51249580000149,89.51249580000149,89.51249580000149,89.51249580000149,89.51249580000149,,004,P013,2025_Feb_08_1511,ConditionRich,2021.2.3,59.934755026441195,
60.0,60.75,22,0.75,Stimuli/P013/things_banner_07s.jpg,0,0.0,0.0,0,29,29,29,,,,,,,,,,,,,60.002410700002656,0.0024107000026560854,None,92.78207140000086,92.78207140000086,92.78207140000086,92.78207140000086,92.78207140000086,92.78207140000086,92.78207140000086,92.78207140000086,92.78207140000086,92.78207140000086,,004,P013,2025_Feb_08_1511,ConditionRich,2021.2.3,59.934755026441195,
60.75,64.0,41,0.0,Stimuli/Blank.png,0,0.0,0.0,0,30,30,30,,,,,,,,,,,,,60.77017150000029,0.02017150000028778,None,93.5327137000022,93.5327137000022,93.5327137000022,93.5327137000022,93.5327137000022,93.5327137000022,93.5327137000022,93.5327137000022,93.5327137000022,93.5327137000022,,004,P013,2025_Feb_08_1511,ConditionRich,2021.2.3,59.934755026441195,
64.0,64.75,11,0.75,Stimuli/P013/sun_bfyxzbjsvqsobbky.jpg,0,0.0,0.0,0,31,31,31,,,,,,,,,,,,,64.00511760000154,0.005117600001540268,None,96.7689062999998,96.7689062999998,96.7689062999998,96.7689062999998,96.7689062999998,96.7689062999998,96.7689062999998,96.7689062999998,96.7689062999998,96.7689062999998,,004,P013,2025_Feb_08_1511,ConditionRich,2021.2.3,59.934755026441195,
64.75,68.0,41,0.0,Stimuli/Blank.png,0,0.0,0.0,0,32,32,32,,,,,,,,,,,,,64.75596120000046,0.0059612000004563015,None,97.51956849999988,97.51956849999988,97.51956849999988,97.51956849999988,97.51956849999988,97.51956849999988,97.51956849999988,97.51956849999988,97.51956849999988,97.51956849999988,,004,P013,2025_Feb_08_1511,ConditionRich,2021.2.3,59.934755026441195,
68.0,68.75,13,0.75,Stimuli/P013/sun_bpccpwpohfirajtf.jpg,0,0.0,0.0,0,33,33,33,,,,,,,,,,,,,68.00908690000142,0.009086900001420872,None,100.77251640000031,100.77251640000031,100.77251640000031,100.77251640000031,100.77251640000031,100.77251640000031,100.77251640000031,100.77251640000031,100.77251640000031,100.77251640000031,,004,P013,2025_Feb_08_1511,ConditionRich,2021.2.3,59.934755026441195,
68.75,72.0,41,0.0,Stimuli/Blank.png,0,0.0,0.0,0,34,34,34,,,,,,,,,,,,,68.76065469999958,0.010654699999577133,None,101.52311779999945,101.52311779999945,101.52311779999945,101.52311779999945,101.52311779999945,101.52311779999945,101.52311779999945,101.52311779999945,101.52311779999945,101.52311779999945,,004,P013,2025_Feb_08_1511,ConditionRich,2021.2.3,59.934755026441195,
72.0,72.75,29,0.75,Stimuli/P013/things_iguana_07s.jpg,0,0.0,0.0,0,35,35,35,,,,,,,,,,,,,72.01237590000164,0.012375900001643458,None,104.77598070000022,104.77598070000022,104.77598070000022,104.77598070000022,104.77598070000022,104.77598070000022,104.77598070000022,104.77598070000022,104.77598070000022,104.77598070000022,,004,P013,2025_Feb_08_1511,ConditionRich,2021.2.3,59.934755026441195,
72.75,76.0,41,0.0,Stimuli/Blank.png,0,0.0,0.0,0,36,36,36,,,,,,,,,,,,,72.76293749999968,0.012937499999679858,None,105.52664060000097,105.52664060000097,105.52664060000097,105.52664060000097,105.52664060000097,105.52664060000097,105.52664060000097,105.52664060000097,105.52664060000097,105.52664060000097,,004,P013,2025_Feb_08_1511,ConditionRich,2021.2.3,59.934755026441195,
76.0,76.75,38,0.75,Stimuli/P013/things_spark_plug_07s.jpg,0,0.0,0.0,0,37,37,37,,,,,,,,,,,,,75.9998400000004,-0.00015999999959603883,None,108.7628407000011,108.7628407000011,108.7628407000011,108.7628407000011,108.7628407000011,108.7628407000011,108.7628407000011,108.7628407000011,108.7628407000011,108.7628407000011,,004,P013,2025_Feb_08_1511,ConditionRich,2021.2.3,59.934755026441195,
76.75,80.0,41,0.0,Stimuli/Blank.png,0,0.0,0.0,0,38,38,38,,,,,,,,,,,,,76.7501669000012,0.0001669000012043398,None,109.51350230000025,109.51350230000025,109.51350230000025,109.51350230000025,109.51350230000025,109.51350230000025,109.51350230000025,109.51350230000025,109.51350230000025,109.51350230000025,,004,P013,2025_Feb_08_1511,ConditionRich,2021.2.3,59.934755026441195,
80.0,80.75,4,0.75,Stimuli/P013/sun_afgoiykvchxqotyz.jpg,0,0.0,0.0,0,39,39,39,,,,,,,,,,,,,80.00540360000014,0.005403600000136066,None,112.78307420000056,112.78307420000056,112.78307420000056,112.78307420000056,112.78307420000056,112.78307420000056,112.78307420000056,112.78307420000056,112.78307420000056,112.78307420000056,,004,P013,2025_Feb_08_1511,ConditionRich,2021.2.3,59.934755026441195,
80.75,84.0,41,0.0,Stimuli/Blank.png,0,0.0,0.0,0,40,40,40,,,,,,,,,,,,,80.77098250000199,0.020982500001991866,None,113.53374310000072,113.53374310000072,113.53374310000072,113.53374310000072,113.53374310000072,113.53374310000072,113.53374310000072,113.53374310000072,113.53374310000072,113.53374310000072,,004,P013,2025_Feb_08_1511,ConditionRich,2021.2.3,59.934755026441195,
84.0,100.0,0,0.0,Stimuli/Blank.png,1,9.0,9.75,0,41,41,41,,,,,,,,,,,,,84.00632980000228,0.006329800002276897,1,116.7699289000011,116.7699289000011,116.7699289000011,116.7699289000011,116.7699289000011,116.7699289000011,125.76238830000148,126.49522910000087,116.7699289000011,116.7699289000011,9.48180610000054,004,P013,2025_Feb_08_1511,ConditionRich,2021.2.3,59.934755026441195,
100.0,100.75,16,0.75,Stimuli/P013/sun_bsgtkqjrnrvttrax.jpg,0,0.0,0.0,0,42,42,42,,,,,,,,,,,,,100.00522439999986,0.005224399999860907,None,132.7674044000014,132.7674044000014,132.7674044000014,132.7674044000014,132.7674044000014,132.7674044000014,132.7674044000014,132.7674044000014,132.7674044000014,132.7674044000014,,004,P013,2025_Feb_08_1511,ConditionRich,2021.2.3,59.934755026441195,
100.75,104.0,41,0.0,Stimuli/Blank.png,0,0.0,0.0,0,43,43,43,,,,,,,,,,,,,100.75510900000154,0.005109000001539243,None,133.51807610000105,133.51807610000105,133.51807610000105,133.51807610000105,133.51807610000105,133.51807610000105,133.51807610000105,133.51807610000105,133.51807610000105,133.51807610000105,,004,P013,2025_Feb_08_1511,ConditionRich,2021.2.3,59.934755026441195,
104.0,104.75,36,0.75,Stimuli/P013/things_seafood_07s.jpg,0,0.0,0.0,0,44,44,44,,,,,,,,,,,,,104.008167400003,0.008167400003003422,None,136.770943800002,136.770943800002,136.770943800002,136.770943800002,136.770943800002,136.770943800002,136.770943800002,136.770943800002,136.770943800002,136.770943800002,,004,P013,2025_Feb_08_1511,ConditionRich,2021.2.3,59.934755026441195,
104.75,108.0,41,0.0,Stimuli/Blank.png,0,0.0,0.0,0,45,45,45,,,,,,,,,,,,,104.75959000000148,0.009590000001480803,None,137.52162379999936,137.52162379999936,137.52162379999936,137.52162379999936,137.52162379999936,137.52162379999936,137.52162379999936,137.52162379999936,137.52162379999936,137.52162379999936,,004,P013,2025_Feb_08_1511,ConditionRich,2021.2.3,59.934755026441195,
108.0,108.75,37,0.75,Stimuli/P013/things_slug_07s.jpg,0,0.0,0.0,0,46,46,46,,,,,,,,,,,,,108.01098439999987,0.01098439999987022,None,140.7744832999997,140.7744832999997,140.7744832999997,140.7744832999997,140.7744832999997,140.7744832999997,140.7744832999997,140.7744832999997,140.7744832999997,140.7744832999997,,004,P013,2025_Feb_08_1511,ConditionRich,2021.2.3,59.934755026441195,
108.75,112.0,41,0.0,Stimuli/Blank.png,0,0.0,0.0,0,47,47,47,,,,,,,,,,,,,108.76145750000069,0.011457500000688015,None,141.52515450000283,141.52515450000283,141.52515450000283,141.52515450000283,141.52515450000283,141.52515450000283,141.52515450000283,141.52515450000283,141.52515450000283,141.52515450000283,,004,P013,2025_Feb_08_1511,ConditionRich,2021.2.3,59.934755026441195,
112.0,112.75,19,0.75,Stimuli/P013/sun_buphlelowxjnoygy.jpg,0,0.0,0.0,0,48,48,48,,,,,,,,,,,,,112.01510940000298,0.01510940000298433,None,144.77802750000046,144.77802750000046,144.77802750000046,144.77802750000046,144.77802750000046,144.77802750000046,144.77802750000046,144.77802750000046,144.77802750000046,144.77802750000046,,004,P013,2025_Feb_08_1511,ConditionRich,2021.2.3,59.934755026441195,
112.75,116.0,41,0.0,Stimuli/Blank.png,0,0.0,0.0,0,49,49,49,,,,,,,,,,,,,112.75055720000091,0.0005572000009124167,None,145.5287038000024,145.5287038000024,145.5287038000024,145.5287038000024,145.5287038000024,145.5287038000024,145.5287038000024,145.5287038000024,145.5287038000024,145.5287038000024,,004,P013,2025_Feb_08_1511,ConditionRich,2021.2.3,59.934755026441195,
116.0,116.75,27,0.75,Stimuli/P013/things_face_07s.jpg,0,0.0,0.0,0,50,50,50,,,,,,,,,,,,,116.01875830000063,0.01875830000062706,None,148.78157439999995,148.78157439999995,148.78157439999995,148.78157439999995,148.78157439999995,148.78157439999995,148.78157439999995,148.78157439999995,148.78157439999995,148.78157439999995,,004,P013,2025_Feb_08_1511,ConditionRich,2021.2.3,59.934755026441195,
116.75,120.0,41,0.0,Stimuli/Blank.png,0,0.0,0.0,0,51,51,51,,,,,,,,,,,,,116.75261600000158,0.0026160000015806872,None,149.5155479999994,149.5155479999994,149.5155479999994,149.5155479999994,149.5155479999994,149.5155479999994,149.5155479999994,149.5155479999994,149.5155479999994,149.5155479999994,,004,P013,2025_Feb_08_1511,ConditionRich,2021.2.3,59.934755026441195,
120.0,120.75,2,0.75,Stimuli/P013/sun_adotnsaifoooswkf.jpg,0,0.0,0.0,0,52,52,52,,,,,,,,,,,,,120.00524520000181,0.00524520000180928,None,152.76842780000152,152.76842780000152,152.76842780000152,152.76842780000152,152.76842780000152,152.76842780000152,152.76842780000152,152.76842780000152,152.76842780000152,152.76842780000152,,004,P013,2025_Feb_08_1511,ConditionRich,2021.2.3,59.934755026441195,
120.75,124.0,41,0.0,Stimuli/Blank.png,1,0.25,1.0,0,53,53,53,,,,,,,,,,,,,120.7569865000005,0.006986500000493834,1,153.53580830000283,153.53580830000283,153.53580830000283,153.53580830000283,153.53580830000283,153.53580830000283,153.75263290000294,154.50331970000116,153.53580830000283,153.53580830000283,0.6489977999990515,004,P013,2025_Feb_08_1511,ConditionRich,2021.2.3,59.934755026441195,
124.0,124.75,1,0.75,Stimuli/P013/sun_adkmgqclfrkhfxbd.jpg,0,0.0,0.0,0,54,54,54,,,,,,,,,,,,,124.02576990000307,0.02576990000306978,None,156.7886434000029,156.7886434000029,156.7886434000029,156.7886434000029,156.7886434000029,156.7886434000029,156.7886434000029,156.7886434000029,156.7886434000029,156.7886434000029,,004,P013,2025_Feb_08_1511,ConditionRich,2021.2.3,59.934755026441195,
124.75,128.0,41,0.0,Stimuli/Blank.png,1,0.25,1.0,0,55,55,55,,,,,,,,,,,,,124.75909780000075,0.009097800000745337,1,157.52269570000135,157.52269570000135,157.52269570000135,157.52269570000135,157.52269570000135,157.52269570000135,157.75620550000167,158.50683760000175,157.52269570000135,157.52269570000135,0.6820783000002848,004,P013,2025_Feb_08_1511,ConditionRich,2021.2.3,59.934755026441195,
128.0,128.75,9,0.75,Stimuli/P013/sun_bdgwqzttihopmpbf.jpg,0,0.0,0.0,0,56,56,56,,,,,,,,,,,,,128.0126006999999,0.01260069999989355,None,160.79220580000037,160.79220580000037,160.79220580000037,160.79220580000037,160.79220580000037,160.79220580000037,160.79220580000037,160.79220580000037,160.79220580000037,160.79220580000037,,004,P013,2025_Feb_08_1511,ConditionRich,2021.2.3,59.934755026441195,
128.75,132.0,41,0.0,Stimuli/Blank.png,0,0.0,0.0,0,57,57,57,,,,,,,,,,,,,128.77910820000034,0.029108200000337092,None,161.54291720000037,161.54291720000037,161.54291720000037,161.54291720000037,161.54291720000037,161.54291720000037,161.54291720000037,161.54291720000037,161.54291720000037,161.54291720000037,,004,P013,2025_Feb_08_1511,ConditionRich,2021.2.3,59.934755026441195,
132.0,132.75,6,0.75,Stimuli/P013/sun_aoejkkmwkfegacni.jpg,0,0.0,0.0,0,58,58,58,,,,,,,,,,,,,132.01542170000175,0.01542170000175247,None,164.77904780000245,164.77904780000245,164.77904780000245,164.77904780000245,164.77904780000245,164.77904780000245,164.77904780000245,164.77904780000245,164.77904780000245,164.77904780000245,,004,P013,2025_Feb_08_1511,ConditionRich,2021.2.3,59.934755026441195,
132.75,136.0,41,0.0,Stimuli/Blank.png,0,0.0,0.0,0,59,59,59,,,,,,,,,,,,,132.74933690000034,-0.0006630999996559694,None,165.51300800000172,165.51300800000172,165.51300800000172,165.51300800000172,165.51300800000172,165.51300800000172,165.51300800000172,165.51300800000172,165.51300800000172,165.51300800000172,,004,P013,2025_Feb_08_1511,ConditionRich,2021.2.3,59.934755026441195,
136.0,136.75,34,0.75,Stimuli/P013/things_radio_07s.jpg,0,0.0,0.0,0,60,60,60,,,,,,,,,,,,,136.003097300003,0.0030973000029916875,None,168.76590910000232,168.76590910000232,168.76590910000232,168.76590910000232,168.76590910000232,168.76590910000232,168.76590910000232,168.76590910000232,168.76590910000232,168.76590910000232,,004,P013,2025_Feb_08_1511,ConditionRich,2021.2.3,59.934755026441195,
136.75,140.0,41,0.0,Stimuli/Blank.png,0,0.0,0.0,0,61,61,61,,,,,,,,,,,,,136.75575720000052,0.005757200000516605,None,169.5332660000022,169.5332660000022,169.5332660000022,169.5332660000022,169.5332660000022,169.5332660000022,169.5332660000022,169.5332660000022,169.5332660000022,169.5332660000022,,004,P013,2025_Feb_08_1511,ConditionRich,2021.2.3,59.934755026441195,
140.0,140.75,35,0.75,Stimuli/P013/things_road_sign_07s.jpg,0,0.0,0.0,0,62,62,62,,,,,,,,,,,,,140.02262570000312,0.022625700003118254,None,172.78611790000286,172.78611790000286,172.78611790000286,172.78611790000286,172.78611790000286,172.78611790000286,172.78611790000286,172.78611790000286,172.78611790000286,172.78611790000286,,004,P013,2025_Feb_08_1511,ConditionRich,2021.2.3,59.934755026441195,
140.75,144.0,41,0.0,Stimuli/Blank.png,0,0.0,0.0,0,63,63,63,,,,,,,,,,,,,140.75733220000257,0.007332200002565514,None,173.52011720000155,173.52011720000155,173.52011720000155,173.52011720000155,173.52011720000155,173.52011720000155,173.52011720000155,173.52011720000155,173.52011720000155,173.52011720000155,,004,P013,2025_Feb_08_1511,ConditionRich,2021.2.3,59.934755026441195,
144.0,144.75,40,0.75,Stimuli/P013/things_woman_07s.jpg,0,0.0,0.0,0,64,64,64,,,,,,,,,,,,,144.01013610000155,0.010136100001545856,None,176.77298879999944,176.77298879999944,176.77298879999944,176.77298879999944,176.77298879999944,176.77298879999944,176.77298879999944,176.77298879999944,176.77298879999944,176.77298879999944,,004,P013,2025_Feb_08_1511,ConditionRich,2021.2.3,59.934755026441195,
144.75,148.0,41,0.0,Stimuli/Blank.png,0,0.0,0.0,0,65,65,65,,,,,,,,,,,,,144.7599700000028,0.009970000002795132,None,177.52365980000104,177.52365980000104,177.52365980000104,177.52365980000104,177.52365980000104,177.52365980000104,177.52365980000104,177.52365980000104,177.52365980000104,177.52365980000104,,004,P013,2025_Feb_08_1511,ConditionRich,2021.2.3,59.934755026441195,
148.0,148.75,26,0.75,Stimuli/P013/things_cougar_07s.jpg,0,0.0,0.0,0,66,66,66,,,,,,,,,,,,,148.0131782999997,0.013178299999708543,None,180.79322760000287,180.79322760000287,180.79322760000287,180.79322760000287,180.79322760000287,180.79322760000287,180.79322760000287,180.79322760000287,180.79322760000287,180.79322760000287,,004,P013,2025_Feb_08_1511,ConditionRich,2021.2.3,59.934755026441195,
148.75,152.0,41,0.0,Stimuli/Blank.png,1,1.25,2.0,0,67,67,67,,,,,,,,,,,,,148.781132600001,0.031132600001001265,1,181.54388520000066,181.54388520000066,181.54388520000066,181.54388520000066,181.54388520000066,181.54388520000066,182.77829470000142,183.52896850000252,181.54388520000066,181.54388520000066,1.6709491000001435,004,P013,2025_Feb_08_1511,ConditionRich,2021.2.3,59.934755026441195,
152.0,152.75,3,0.75,Stimuli/P013/sun_aengzsmykwchlrdn.jpg,0,0.0,0.0,0,68,68,68,,,,,,,,,,,,,152.00073809999958,0.0007380999995802995,None,184.76336079999965,184.76336079999965,184.76336079999965,184.76336079999965,184.76336079999965,184.76336079999965,184.76336079999965,184.76336079999965,184.76336079999965,184.76336079999965,,004,P013,2025_Feb_08_1511,ConditionRich,2021.2.3,59.934755026441195,
152.75,156.0,41,0.0,Stimuli/Blank.png,0,0.0,0.0,0,69,69,69,,,,,,,,,,,,,152.75115930000175,0.001159300001745578,None,185.51406309999948,185.51406309999948,185.51406309999948,185.51406309999948,185.51406309999948,185.51406309999948,185.51406309999948,185.51406309999948,185.51406309999948,185.51406309999948,,004,P013,2025_Feb_08_1511,ConditionRich,2021.2.3,59.934755026441195,
156.0,156.75,25,0.75,Stimuli/P013/things_cashew_07s.jpg,0,0.0,0.0,0,70,70,70,,,,,,,,,,,,,156.00436160000027,0.004361600000265753,None,188.78362410000045,188.78362410000045,188.78362410000045,188.78362410000045,188.78362410000045,188.78362410000045,188.78362410000045,188.78362410000045,188.78362410000045,188.78362410000045,,004,P013,2025_Feb_08_1511,ConditionRich,2021.2.3,59.934755026441195,
156.75,160.0,41,0.0,Stimuli/Blank.png,0,0.0,0.0,0,71,71,71,,,,,,,,,,,,,156.77123070000016,0.02123070000016014,None,189.53428160000112,189.53428160000112,189.53428160000112,189.53428160000112,189.53428160000112,189.53428160000112,189.53428160000112,189.53428160000112,189.53428160000112,189.53428160000112,,004,P013,2025_Feb_08_1511,ConditionRich,2021.2.3,59.934755026441195,
160.0,160.75,7,0.75,Stimuli/P013/sun_aojplsluiikxrfxc.jpg,0,0.0,0.0,0,72,72,72,,,,,,,,,,,,,160.01092900000003,0.010929000000032829,None,192.7871604000029,192.7871604000029,192.7871604000029,192.7871604000029,192.7871604000029,192.7871604000029,192.7871604000029,192.7871604000029,192.7871604000029,192.7871604000029,,004,P013,2025_Feb_08_1511,ConditionRich,2021.2.3,59.934755026441195,
160.75,164.0,41,0.0,Stimuli/Blank.png,0,0.0,0.0,0,73,73,73,,,,,,,,,,,,,160.77449960000013,0.02449960000012652,None,193.53782169999977,193.53782169999977,193.53782169999977,193.53782169999977,193.53782169999977,193.53782169999977,193.53782169999977,193.53782169999977,193.53782169999977,193.53782169999977,,004,P013,2025_Feb_08_1511,ConditionRich,2021.2.3,59.934755026441195,
164.0,164.75,23,0.75,Stimuli/P013/things_bug_07s.jpg,0,0.0,0.0,0,74,74,74,,,,,,,,,,,,,164.01057390000278,0.010573900002782466,None,196.77401029999965,196.77401029999965,196.77401029999965,196.77401029999965,196.77401029999965,196.77401029999965,196.77401029999965,196.77401029999965,196.77401029999965,196.77401029999965,,004,P013,2025_Feb_08_1511,ConditionRich,2021.2.3,59.934755026441195,
164.75,168.0,41,0.0,Stimuli/Blank.png,0,0.0,0.0,0,75,75,75,,,,,,,,,,,,,164.7612676000026,0.011267600002611289,None,197.52468539999973,197.52468539999973,197.52468539999973,197.52468539999973,197.52468539999973,197.52468539999973,197.52468539999973,197.52468539999973,197.52468539999973,197.52468539999973,,004,P013,2025_Feb_08_1511,ConditionRich,2021.2.3,59.934755026441195,
168.0,168.75,15,0.75,Stimuli/P013/sun_brezwczwwllviogu.jpg,0,0.0,0.0,0,76,76,76,,,,,,,,,,,,,168.01630980000118,0.01630980000118143,None,200.79424199999994,200.79424199999994,200.79424199999994,200.79424199999994,200.79424199999994,200.79424199999994,200.79424199999994,200.79424199999994,200.79424199999994,200.79424199999994,,004,P013,2025_Feb_08_1511,ConditionRich,2021.2.3,59.934755026441195,
168.75,172.0,41,0.0,Stimuli/Blank.png,0,0.0,0.0,0,77,77,77,,,,,,,,,,,,,168.76520770000207,0.015207700002065394,None,201.52821590000167,201.52821590000167,201.52821590000167,201.52821590000167,201.52821590000167,201.52821590000167,201.52821590000167,201.52821590000167,201.52821590000167,201.52821590000167,,004,P013,2025_Feb_08_1511,ConditionRich,2021.2.3,59.934755026441195,
172.0,172.75,14,0.75,Stimuli/P013/sun_bqhfterhwnqrbnzg.jpg,0,0.0,0.0,0,78,78,78,,,,,,,,,,,,,172.0007523000022,0.0007523000022047199,None,204.7644325000001,204.7644325000001,204.7644325000001,204.7644325000001,204.7644325000001,204.7644325000001,204.7644325000001,204.7644325000001,204.7644325000001,204.7644325000001,,004,P013,2025_Feb_08_1511,ConditionRich,2021.2.3,59.934755026441195,
172.75,176.0,41,0.0,Stimuli/Blank.png,0,0.0,0.0,0,79,79,79,,,,,,,,,,,,,172.75159880000137,0.0015988000013749115,None,205.5150973000018,205.5150973000018,205.5150973000018,205.5150973000018,205.5150973000018,205.5150973000018,205.5150973000018,205.5150973000018,205.5150973000018,205.5150973000018,,004,P013,2025_Feb_08_1511,ConditionRich,2021.2.3,59.934755026441195,
176.0,176.75,21,0.75,Stimuli/P013/things_baby_07s.jpg,0,0.0,0.0,0,80,80,80,,,,,,,,,,,,,176.00661970000147,0.0066197000014653895,None,208.78463960000227,208.78463960000227,208.78463960000227,208.78463960000227,208.78463960000227,208.78463960000227,208.78463960000227,208.78463960000227,208.78463960000227,208.78463960000227,,004,P013,2025_Feb_08_1511,ConditionRich,2021.2.3,59.934755026441195,
176.75,180.0,41,0.0,Stimuli/Blank.png,1,1.25,2.0,0,81,81,81,,,,,,,,,,,,,176.77290580000044,0.022905800000444287,1,209.53550630000245,209.53550630000245,209.53550630000245,209.53550630000245,209.53550630000245,209.53550630000245,210.77049220000117,211.52043050000066,209.53550630000245,209.53550630000245,1.658256300001085,004,P013,2025_Feb_08_1511,ConditionRich,2021.2.3,59.934755026441195,
180.0,196.0,0,0.0,Stimuli/Blank.png,1,3.0,3.75,0,82,82,82,,,,,,,,,,,,,180.01117000000158,0.011170000001584413,1,212.78816460000235,212.78816460000235,212.78816460000235,212.78816460000235,212.78816460000235,212.78816460000235,215.77413979999983,216.52480769999966,212.78816460000235,212.78816460000235,4.90362180000011,004,P013,2025_Feb_08_1511,ConditionRich,2021.2.3,59.934755026441195,
196.0,196.75,5,0.75,Stimuli/P013/sun_aidrxvbfhxtsusrf.jpg,0,0.0,0.0,0,83,83,83,,,,,,,,,,,,,196.02216530000078,0.022165300000779098,None,228.78565860000163,228.78565860000163,228.78565860000163,228.78565860000163,228.78565860000163,228.78565860000163,228.78565860000163,228.78565860000163,228.78565860000163,228.78565860000163,,004,P013,2025_Feb_08_1511,ConditionRich,2021.2.3,59.934755026441195,
196.75,200.0,41,0.0,Stimuli/Blank.png,0,0.0,0.0,0,84,84,84,,,,,,,,,,,,,196.75712540000313,0.007125400003133109,None,229.51969610000015,229.51969610000015,229.51969610000015,229.51969610000015,229.51969610000015,229.51969610000015,229.51969610000015,229.51969610000015,229.51969610000015,229.51969610000015,,004,P013,2025_Feb_08_1511,ConditionRich,2021.2.3,59.934755026441195,
200.0,200.75,24,0.75,Stimuli/P013/things_bungee_07s.jpg,0,0.0,0.0,0,85,85,85,,,,,,,,,,,,,200.00956340000266,0.009563400002662092,None,232.7725231000004,232.7725231000004,232.7725231000004,232.7725231000004,232.7725231000004,232.7725231000004,232.7725231000004,232.7725231000004,232.7725231000004,232.7725231000004,,004,P013,2025_Feb_08_1511,ConditionRich,2021.2.3,59.934755026441195,
200.75,204.0,41,0.0,Stimuli/Blank.png,1,1.25,2.0,0,86,86,86,,,,,,,,,,,,,200.75964490000115,0.009644900001148926,1,233.52318039999955,233.52318039999955,233.52318039999955,233.52318039999955,233.52318039999955,233.52318039999955,234.75760730000184,235.50827539999955,233.52318039999955,233.52318039999955,1.6949032999982592,004,P013,2025_Feb_08_1511,ConditionRich,2021.2.3,59.934755026441195,
204.0,204.75,23,0.75,Stimuli/P013/things_bug_07s.jpg,0,0.0,0.0,0,87,87,87,,,,,,,,,,,,,204.01561140000194,0.015611400001944276,None,236.7927589000028,236.7927589000028,236.7927589000028,236.7927589000028,236.7927589000028,236.7927589000028,236.7927589000028,236.7927589000028,236.7927589000028,236.7927589000028,,004,P013,2025_Feb_08_1511,ConditionRich,2021.2.3,59.934755026441195,
204.75,208.0,41,0.0,Stimuli/Blank.png,0,0.0,0.0,0,88,88,88,,,,,,,,,,,,,204.76551570000083,0.015515700000833021,None,237.54344010000204,237.54344010000204,237.54344010000204,237.54344010000204,237.54344010000204,237.54344010000204,237.54344010000204,237.54344010000204,237.54344010000204,237.54344010000204,,004,P013,2025_Feb_08_1511,ConditionRich,2021.2.3,59.934755026441195,
208.0,208.75,37,0.75,Stimuli/P013/things_slug_07s.jpg,0,0.0,0.0,0,89,89,89,,,,,,,,,,,,,208.01640419999967,0.0164041999996698,None,240.77959940000073,240.77959940000073,240.77959940000073,240.77959940000073,240.77959940000073,240.77959940000073,240.77959940000073,240.77959940000073,240.77959940000073,240.77959940000073,,004,P013,2025_Feb_08_1511,ConditionRich,2021.2.3,59.934755026441195,
208.75,212.0,41,0.0,Stimuli/Blank.png,0,0.0,0.0,0,90,90,90,,,,,,,,,,,,,208.75109610000072,0.0010961000007227995,None,241.51358980000077,241.51358980000077,241.51358980000077,241.51358980000077,241.51358980000077,241.51358980000077,241.51358980000077,241.51358980000077,241.51358980000077,241.51358980000077,,004,P013,2025_Feb_08_1511,ConditionRich,2021.2.3,59.934755026441195,
212.0,212.75,19,0.75,Stimuli/P013/sun_buphlelowxjnoygy.jpg,1,0.0,0.75,0,91,91,91,,,,,,,,,,,,,212.0054063000025,0.005406300002505304,1,244.78314239999963,244.78314239999963,244.78314239999963,244.78314239999963,244.78314239999963,244.78314239999963,244.78314239999963,245.51715740000145,244.78314239999963,244.78314239999963,0.5259016999989399,004,P013,2025_Feb_08_1511,ConditionRich,2021.2.3,59.934755026441195,
212.75,216.0,41,0.0,Stimuli/Blank.png,0,0.0,0.0,0,92,92,92,,,,,,,,,,,,,212.77089590000105,0.020895900001050904,None,245.5525708000023,245.5525708000023,245.5525708000023,245.5525708000023,245.5525708000023,245.5525708000023,245.5525708000023,245.5525708000023,245.5525708000023,245.5525708000023,,004,P013,2025_Feb_08_1511,ConditionRich,2021.2.3,59.934755026441195,
216.0,216.75,30,0.75,Stimuli/P013/things_man_07s.jpg,0,0.0,0.0,0,93,93,93,,,,,,,,,,,,,216.0238059000003,0.023805900000297697,None,248.80336720000196,248.80336720000196,248.80336720000196,248.80336720000196,248.80336720000196,248.80336720000196,248.80336720000196,248.80336720000196,248.80336720000196,248.80336720000196,,004,P013,2025_Feb_08_1511,ConditionRich,2021.2.3,59.934755026441195,
216.75,220.0,41,0.0,Stimuli/Blank.png,0,0.0,0.0,0,94,94,94,,,,,,,,,,,,,216.7758094000019,0.025809400001890026,None,249.5540295000028,249.5540295000028,249.5540295000028,249.5540295000028,249.5540295000028,249.5540295000028,249.5540295000028,249.5540295000028,249.5540295000028,249.5540295000028,,004,P013,2025_Feb_08_1511,ConditionRich,2021.2.3,59.934755026441195,
220.0,220.75,15,0.75,Stimuli/P013/sun_brezwczwwllviogu.jpg,0,0.0,0.0,0,95,95,95,,,,,,,,,,,,,220.02792380000028,0.027923800000280607,None,252.79021800000191,252.79021800000191,252.79021800000191,252.79021800000191,252.79021800000191,252.79021800000191,252.79021800000191,252.79021800000191,252.79021800000191,252.79021800000191,,004,P013,2025_Feb_08_1511,ConditionRich,2021.2.3,59.934755026441195,
220.75,224.0,41,0.0,Stimuli/Blank.png,0,0.0,0.0,0,96,96,96,,,,,,,,,,,,,220.76183400000082,0.011834000000817468,None,253.5242032999995,253.5242032999995,253.5242032999995,253.5242032999995,253.5242032999995,253.5242032999995,253.5242032999995,253.5242032999995,253.5242032999995,253.5242032999995,,004,P013,2025_Feb_08_1511,ConditionRich,2021.2.3,59.934755026441195,
224.0,224.75,3,0.75,Stimuli/P013/sun_aengzsmykwchlrdn.jpg,0,0.0,0.0,0,97,97,97,,,,,,,,,,,,,224.01572680000027,0.01572680000026594,None,256.79376090000005,256.79376090000005,256.79376090000005,256.79376090000005,256.79376090000005,256.79376090000005,256.79376090000005,256.79376090000005,256.79376090000005,256.79376090000005,,004,P013,2025_Feb_08_1511,ConditionRich,2021.2.3,59.934755026441195,
224.75,228.0,41,0.0,Stimuli/Blank.png,0,0.0,0.0,0,98,98,98,,,,,,,,,,,,,224.76418770000237,0.01418770000236691,None,257.52774780000254,257.52774780000254,257.52774780000254,257.52774780000254,257.52774780000254,257.52774780000254,257.52774780000254,257.52774780000254,257.52774780000254,257.52774780000254,,004,P013,2025_Feb_08_1511,ConditionRich,2021.2.3,59.934755026441195,
228.0,228.75,35,0.75,Stimuli/P013/things_road_sign_07s.jpg,0,0.0,0.0,0,99,99,99,,,,,,,,,,,,,228.00132049999957,0.0013204999995650724,None,260.76395940000293,260.76395940000293,260.76395940000293,260.76395940000293,260.76395940000293,260.76395940000293,260.76395940000293,260.76395940000293,260.76395940000293,260.76395940000293,,004,P013,2025_Feb_08_1511,ConditionRich,2021.2.3,59.934755026441195,
228.75,232.0,41,0.0,Stimuli/Blank.png,0,0.0,0.0,0,100,100,100,,,,,,,,,,,,,228.75096910000138,0.0009691000013845041,None,261.51460059999954,261.51460059999954,261.51460059999954,261.51460059999954,261.51460059999954,261.51460059999954,261.51460059999954,261.51460059999954,261.51460059999954,261.51460059999954,,004,P013,2025_Feb_08_1511,ConditionRich,2021.2.3,59.934755026441195,
232.0,232.75,9,0.75,Stimuli/P013/sun_bdgwqzttihopmpbf.jpg,0,0.0,0.0,0,101,101,101,,,,,,,,,,,,,232.00688250000167,0.006882500001665903,None,264.7841585000024,264.7841585000024,264.7841585000024,264.7841585000024,264.7841585000024,264.7841585000024,264.7841585000024,264.7841585000024,264.7841585000024,264.7841585000024,,004,P013,2025_Feb_08_1511,ConditionRich,2021.2.3,59.934755026441195,
232.75,236.0,41,0.0,Stimuli/Blank.png,0,0.0,0.0,0,102,102,102,,,,,,,,,,,,,232.7716904000008,0.02169040000080713,1,265.5348219000007,265.5348219000007,265.5348219000007,265.5348219000007,265.5348219000007,265.5348219000007,265.5348219000007,265.5348219000007,265.5348219000007,265.5348219000007,0.10112329999901704,004,P013,2025_Feb_08_1511,ConditionRich,2021.2.3,59.934755026441195,
236.0,236.75,7,0.75,Stimuli/P013/sun_aojplsluiikxrfxc.jpg,0,0.0,0.0,0,103,103,103,,,,,,,,,,,,,236.00802750000003,0.008027500000025611,None,268.7710165999997,268.7710165999997,268.7710165999997,268.7710165999997,268.7710165999997,268.7710165999997,268.7710165999997,268.7710165999997,268.7710165999997,268.7710165999997,,004,P013,2025_Feb_08_1511,ConditionRich,2021.2.3,59.934755026441195,
236.75,240.0,41,0.0,Stimuli/Blank.png,0,0.0,0.0,0,104,104,104,,,,,,,,,,,,,236.76028860000224,0.010288600002240855,None,269.5383784000005,269.5383784000005,269.5383784000005,269.5383784000005,269.5383784000005,269.5383784000005,269.5383784000005,269.5383784000005,269.5383784000005,269.5383784000005,,004,P013,2025_Feb_08_1511,ConditionRich,2021.2.3,59.934755026441195,
240.0,240.75,2,0.75,Stimuli/P013/sun_adotnsaifoooswkf.jpg,0,0.0,0.0,0,105,105,105,,,,,,,,,,,,,240.02753210000083,0.027532100000826176,None,272.79123880000043,272.79123880000043,272.79123880000043,272.79123880000043,272.79123880000043,272.79123880000043,272.79123880000043,272.79123880000043,272.79123880000043,272.79123880000043,,004,P013,2025_Feb_08_1511,ConditionRich,2021.2.3,59.934755026441195,
240.75,244.0,41,0.0,Stimuli/Blank.png,1,1.25,2.0,0,106,106,106,,,,,,,,,,,,,240.7615646000013,0.011564600001293002,1,273.5252197000009,273.5252197000009,273.5252197000009,273.5252197000009,273.5252197000009,273.5252197000009,274.7596493000019,275.5103519000004,273.5252197000009,273.5252197000009,1.7036754000000656,004,P013,2025_Feb_08_1511,ConditionRich,2021.2.3,59.934755026441195,
244.0,244.75,26,0.75,Stimuli/P013/things_cougar_07s.jpg,0,0.0,0.0,0,107,107,107,,,,,,,,,,,,,244.01542110000082,0.015421100000821752,None,276.7781042000024,276.7781042000024,276.7781042000024,276.7781042000024,276.7781042000024,276.7781042000024,276.7781042000024,276.7781042000024,276.7781042000024,276.7781042000024,,004,P013,2025_Feb_08_1511,ConditionRich,2021.2.3,59.934755026441195,
244.75,248.0,41,0.0,Stimuli/Blank.png,0,0.0,0.0,0,108,108,108,,,,,,,,,,,,,244.75155610000002,0.0015561000000161584,None,277.52877400000216,277.52877400000216,277.52877400000216,277.52877400000216,277.52877400000216,277.52877400000216,277.52877400000216,277.52877400000216,277.52877400000216,277.52877400000216,,004,P013,2025_Feb_08_1511,ConditionRich,2021.2.3,59.934755026441195,
248.0,248.75,31,0.75,Stimuli/P013/things_mask_07s.jpg,0,0.0,0.0,0,109,109,109,,,,,,,,,,,,,248.02073850000306,0.020738500003062654,None,280.79834889999984,280.79834889999984,280.79834889999984,280.79834889999984,280.79834889999984,280.79834889999984,280.79834889999984,280.79834889999984,280.79834889999984,280.79834889999984,,004,P013,2025_Feb_08_1511,ConditionRich,2021.2.3,59.934755026441195,
248.75,252.0,41,0.0,Stimuli/Blank.png,0,0.0,0.0,0,110,110,110,,,,,,,,,,,,,248.76980110000295,0.01980110000295099,None,281.53231420000157,281.53231420000157,281.53231420000157,281.53231420000157,281.53231420000157,281.53231420000157,281.53231420000157,281.53231420000157,281.53231420000157,281.53231420000157,,004,P013,2025_Feb_08_1511,ConditionRich,2021.2.3,59.934755026441195,
252.0,252.75,16,0.75,Stimuli/P013/sun_bsgtkqjrnrvttrax.jpg,0,0.0,0.0,0,111,111,111,,,,,,,,,,,,,252.00511680000272,0.005116800002724631,None,284.7684967000023,284.7684967000023,284.7684967000023,284.7684967000023,284.7684967000023,284.7684967000023,284.7684967000023,284.7684967000023,284.7684967000023,284.7684967000023,,004,P013,2025_Feb_08_1511,ConditionRich,2021.2.3,59.934755026441195,
252.75,256.0,41,0.0,Stimuli/Blank.png,0,0.0,0.0,0,112,112,112,,,,,,,,,,,,,252.75604980000207,0.006049800002074335,None,285.5191694999994,285.5191694999994,285.5191694999994,285.5191694999994,285.5191694999994,285.5191694999994,285.5191694999994,285.5191694999994,285.5191694999994,285.5191694999994,,004,P013,2025_Feb_08_1511,ConditionRich,2021.2.3,59.934755026441195,
256.0,256.75,21,0.75,Stimuli/P013/things_baby_07s.jpg,0,0.0,0.0,0,113,113,113,,,,,,,,,,,,,256.0091482000025,0.009148200002528029,None,288.7720326000017,288.7720326000017,288.7720326000017,288.7720326000017,288.7720326000017,288.7720326000017,288.7720326000017,288.7720326000017,288.7720326000017,288.7720326000017,,004,P013,2025_Feb_08_1511,ConditionRich,2021.2.3,59.934755026441195,
256.75,260.0,41,0.0,Stimuli/Blank.png,0,0.0,0.0,0,114,114,114,,,,,,,,,,,,,256.75982440000007,0.009824400000070455,None,289.5227217000029,289.5227217000029,289.5227217000029,289.5227217000029,289.5227217000029,289.5227217000029,289.5227217000029,289.5227217000029,289.5227217000029,289.5227217000029,,004,P013,2025_Feb_08_1511,ConditionRich,2021.2.3,59.934755026441195,
260.0,260.75,6,0.75,Stimuli/P013/sun_aoejkkmwkfegacni.jpg,0,0.0,0.0,0,115,115,115,,,,,,,,,,,,,260.01250580000124,0.012505800001235912,None,292.775583300001,292.775583300001,292.775583300001,292.775583300001,292.775583300001,292.775583300001,292.775583300001,292.775583300001,292.775583300001,292.775583300001,,004,P013,2025_Feb_08_1511,ConditionRich,2021.2.3,59.934755026441195,
260.75,264.0,41,0.0,Stimuli/Blank.png,0,0.0,0.0,0,116,116,116,,,,,,,,,,,,,260.7632115000015,0.013211500001489185,None,293.5262452999996,293.5262452999996,293.5262452999996,293.5262452999996,293.5262452999996,293.5262452999996,293.5262452999996,293.5262452999996,293.5262452999996,293.5262452999996,,004,P013,2025_Feb_08_1511,ConditionRich,2021.2.3,59.934755026441195,
264.0,264.75,10,0.75,Stimuli/P013/sun_bdhxnzyleoiflyak.jpg,0,0.0,0.0,0,117,117,117,,,,,,,,,,,,,264.0019117000011,0.0019117000010737684,None,296.7791380000017,296.7791380000017,296.7791380000017,296.7791380000017,296.7791380000017,296.7791380000017,296.7791380000017,296.7791380000017,296.7791380000017,296.7791380000017,,004,P013,2025_Feb_08_1511,ConditionRich,2021.2.3,59.934755026441195,
264.75,268.0,41,0.0,Stimuli/Blank.png,0,0.0,0.0,0,118,118,118,,,,,,,,,,,,,264.76626800000304,0.01626800000303774,None,297.52979080000296,297.52979080000296,297.52979080000296,297.52979080000296,297.52979080000296,297.52979080000296,297.52979080000296,297.52979080000296,297.52979080000296,297.52979080000296,,004,P013,2025_Feb_08_1511,ConditionRich,2021.2.3,59.934755026441195,
268.0,268.75,34,0.75,Stimuli/P013/things_radio_07s.jpg,0,0.0,0.0,0,119,119,119,,,,,,,,,,,,,268.0034749000006,0.0034749000005831476,None,300.7833212000005,300.7833212000005,300.7833212000005,300.7833212000005,300.7833212000005,300.7833212000005,300.7833212000005,300.7833212000005,300.7833212000005,300.7833212000005,,004,P013,2025_Feb_08_1511,ConditionRich,2021.2.3,59.934755026441195,
268.75,272.0,41,0.0,Stimuli/Blank.png,1,1.25,2.0,0,120,120,120,,,,,,,,,,,,,268.77030880000166,0.0203088000016578,1,301.53332240000236,301.53332240000236,301.53332240000236,301.53332240000236,301.53332240000236,301.53332240000236,302.7677549,303.51948600000105,301.53332240000236,301.53332240000236,1.6146908999980951,004,P013,2025_Feb_08_1511,ConditionRich,2021.2.3,59.934755026441195,
272.0,272.75,18,0.75,Stimuli/P013/sun_btohwudpiusfvpvl.jpg,0,0.0,0.0,0,121,121,121,,,,,,,,,,,,,272.0067995999998,0.0067995999997947365,None,304.7862239999995,304.7862239999995,304.7862239999995,304.7862239999995,304.7862239999995,304.7862239999995,304.7862239999995,304.7862239999995,304.7862239999995,304.7862239999995,,004,P013,2025_Feb_08_1511,ConditionRich,2021.2.3,59.934755026441195,
272.75,276.0,41,0.0,Stimuli/Blank.png,0,0.0,0.0,0,122,122,122,,,,,,,,,,,,,272.7754205000019,0.025420500001928303,None,305.5535576000002,305.5535576000002,305.5535576000002,305.5535576000002,305.5535576000002,305.5535576000002,305.5535576000002,305.5535576000002,305.5535576000002,305.5535576000002,,004,P013,2025_Feb_08_1511,ConditionRich,2021.2.3,59.934755026441195,
276.0,292.0,0,0.0,Stimuli/Blank.png,1,11.0,11.75,0,123,123,123,,,,,,,,,,,,,276.02599589999954,0.025995899999543326,1,308.7897413000028,308.7897413000028,308.7897413000028,308.7897413000028,308.7897413000028,308.7897413000028,319.7661576999999,320.5167394000018,308.7897413000028,308.7897413000028,11.431162099997891,004,P013,2025_Feb_08_1511,ConditionRich,2021.2.3,59.934755026441195,
292.0,292.75,29,0.75,Stimuli/P013/things_iguana_07s.jpg,0,0.0,0.0,0,124,124,124,,,,,,,,,,,,,292.0077861000027,0.007786100002704188,None,324.78723190000164,324.78723190000164,324.78723190000164,324.78723190000164,324.78723190000164,324.78723190000164,324.78723190000164,324.78723190000164,324.78723190000164,324.78723190000164,,004,P013,2025_Feb_08_1511,ConditionRich,2021.2.3,59.934755026441195,
292.75,296.0,41,0.0,Stimuli/Blank.png,0,0.0,0.0,0,125,125,125,,,,,,,,,,,,,292.7749436000013,0.024943600001279265,None,325.5378952000028,325.5378952000028,325.5378952000028,325.5378952000028,325.5378952000028,325.5378952000028,325.5378952000028,325.5378952000028,325.5378952000028,325.5378952000028,,004,P013,2025_Feb_08_1511,ConditionRich,2021.2.3,59.934755026441195,
296.0,296.75,38,0.75,Stimuli/P013/things_spark_plug_07s.jpg,0,0.0,0.0,0,126,126,126,,,,,,,,,,,,,296.0108360000013,0.010836000001290813,None,328.7740859000005,328.7740859000005,328.7740859000005,328.7740859000005,328.7740859000005,328.7740859000005,328.7740859000005,328.7740859000005,328.7740859000005,328.7740859000005,,004,P013,2025_Feb_08_1511,ConditionRich,2021.2.3,59.934755026441195,
296.75,300.0,41,0.0,Stimuli/Blank.png,0,0.0,0.0,0,127,127,127,,,,,,,,,,,,,296.7622064999996,0.01220649999959278,None,329.5247612000021,329.5247612000021,329.5247612000021,329.5247612000021,329.5247612000021,329.5247612000021,329.5247612000021,329.5247612000021,329.5247612000021,329.5247612000021,,004,P013,2025_Feb_08_1511,ConditionRich,2021.2.3,59.934755026441195,
300.0,300.75,33,0.75,Stimuli/P013/things_piglet_07s.jpg,0,0.0,0.0,0,128,128,128,,,,,,,,,,,,,300.0151659000003,0.015165900000283727,None,332.7949370000024,332.7949370000024,332.7949370000024,332.7949370000024,332.7949370000024,332.7949370000024,332.7949370000024,332.7949370000024,332.7949370000024,332.7949370000024,,004,P013,2025_Feb_08_1511,ConditionRich,2021.2.3,59.934755026441195,
300.75,304.0,41,0.0,Stimuli/Blank.png,0,0.0,0.0,0,129,129,129,,,,,,,,,,,,,300.7813186000021,0.031318600002123276,None,333.5449397000011,333.5449397000011,333.5449397000011,333.5449397000011,333.5449397000011,333.5449397000011,333.5449397000011,333.5449397000011,333.5449397000011,333.5449397000011,,004,P013,2025_Feb_08_1511,ConditionRich,2021.2.3,59.934755026441195,
304.0,304.75,14,0.75,Stimuli/P013/sun_bqhfterhwnqrbnzg.jpg,0,0.0,0.0,0,130,130,130,,,,,,,,,,,,,304.0016187000001,0.0016187000001082197,None,336.7644835000028,336.7644835000028,336.7644835000028,336.7644835000028,336.7644835000028,336.7644835000028,336.7644835000028,336.7644835000028,336.7644835000028,336.7644835000028,,004,P013,2025_Feb_08_1511,ConditionRich,2021.2.3,59.934755026441195,
304.75,308.0,41,0.0,Stimuli/Blank.png,0,0.0,0.0,0,131,131,131,,,,,,,,,,,,,304.7514717000013,0.0014717000012751669,None,337.51514250000037,337.51514250000037,337.51514250000037,337.51514250000037,337.51514250000037,337.51514250000037,337.51514250000037,337.51514250000037,337.51514250000037,337.51514250000037,,004,P013,2025_Feb_08_1511,ConditionRich,2021.2.3,59.934755026441195,
308.0,308.75,4,0.75,Stimuli/P013/sun_afgoiykvchxqotyz.jpg,0,0.0,0.0,0,132,132,132,,,,,,,,,,,,,308.0042790000007,0.004279000000678934,None,340.7680207000012,340.7680207000012,340.7680207000012,340.7680207000012,340.7680207000012,340.7680207000012,340.7680207000012,340.7680207000012,340.7680207000012,340.7680207000012,,004,P013,2025_Feb_08_1511,ConditionRich,2021.2.3,59.934755026441195,
308.75,312.0,41,0.0,Stimuli/Blank.png,0,0.0,0.0,0,133,133,133,,,,,,,,,,,,,308.7557841000016,0.005784100001619663,None,341.51870319999944,341.51870319999944,341.51870319999944,341.51870319999944,341.51870319999944,341.51870319999944,341.51870319999944,341.51870319999944,341.51870319999944,341.51870319999944,,004,P013,2025_Feb_08_1511,ConditionRich,2021.2.3,59.934755026441195,
312.0,312.75,11,0.75,Stimuli/P013/sun_bfyxzbjsvqsobbky.jpg,0,0.0,0.0,0,134,134,134,,,,,,,,,,,,,312.0105887000027,0.010588700002699625,None,344.7882529000017,344.7882529000017,344.7882529000017,344.7882529000017,344.7882529000017,344.7882529000017,344.7882529000017,344.7882529000017,344.7882529000017,344.7882529000017,,004,P013,2025_Feb_08_1511,ConditionRich,2021.2.3,59.934755026441195,
312.75,316.0,41,0.0,Stimuli/Blank.png,0,0.0,0.0,0,135,135,135,,,,,,,,,,,,,312.7759936000002,0.025993600000219885,None,345.53891660000227,345.53891660000227,345.53891660000227,345.53891660000227,345.53891660000227,345.53891660000227,345.53891660000227,345.53891660000227,345.53891660000227,345.53891660000227,,004,P013,2025_Feb_08_1511,ConditionRich,2021.2.3,59.934755026441195,
316.0,316.75,39,0.75,Stimuli/P013/things_violin_07n.jpg,0,0.0,0.0,0,136,136,136,,,,,,,,,,,,,316.0122929999998,0.012292999999772292,None,348.7756515000001,348.7756515000001,348.7756515000001,348.7756515000001,348.7756515000001,348.7756515000001,348.7756515000001,348.7756515000001,348.7756515000001,348.7756515000001,,004,P013,2025_Feb_08_1511,ConditionRich,2021.2.3,59.934755026441195,
316.75,320.0,41,0.0,Stimuli/Blank.png,0,0.0,0.0,0,137,137,137,,,,,,,,,,,,,316.762513200003,0.01251320000301348,None,349.52576260000205,349.52576260000205,349.52576260000205,349.52576260000205,349.52576260000205,349.52576260000205,349.52576260000205,349.52576260000205,349.52576260000205,349.52576260000205,,004,P013,2025_Feb_08_1511,ConditionRich,2021.2.3,59.934755026441195,
320.0,320.75,20,0.75,Stimuli/P013/sun_cidodcxikcyrdglc.jpg,0,0.0,0.0,0,138,138,138,,,,,,,,,,,,,320.01612800000294,0.01612800000293646,None,352.77864650000265,352.77864650000265,352.77864650000265,352.77864650000265,352.77864650000265,352.77864650000265,352.77864650000265,352.77864650000265,352.77864650000265,352.77864650000265,,004,P013,2025_Feb_08_1511,ConditionRich,2021.2.3,59.934755026441195,
320.75,324.0,41,0.0,Stimuli/Blank.png,0,0.0,0.0,0,139,139,139,,,,,,,,,,,,,320.7497635,-0.0002365000000281725,None,353.5126397000022,353.5126397000022,353.5126397000022,353.5126397000022,353.5126397000022,353.5126397000022,353.5126397000022,353.5126397000022,353.5126397000022,353.5126397000022,,004,P013,2025_Feb_08_1511,ConditionRich,2021.2.3,59.934755026441195,
324.0,324.75,32,0.75,Stimuli/P013/things_mistletoe_07s.jpg,0,0.0,0.0,0,140,140,140,,,,,,,,,,,,,324.00496620000195,0.0049662000019452535,None,356.78219460000037,356.78219460000037,356.78219460000037,356.78219460000037,356.78219460000037,356.78219460000037,356.78219460000037,356.78219460000037,356.78219460000037,356.78219460000037,,004,P013,2025_Feb_08_1511,ConditionRich,2021.2.3,59.934755026441195,
324.75,328.0,41,0.0,Stimuli/Blank.png,0,0.0,0.0,0,141,141,141,,,,,,,,,,,,,324.76999480000086,0.01999480000085896,None,357.5328563000003,357.5328563000003,357.5328563000003,357.5328563000003,357.5328563000003,357.5328563000003,357.5328563000003,357.5328563000003,357.5328563000003,357.5328563000003,,004,P013,2025_Feb_08_1511,ConditionRich,2021.2.3,59.934755026441195,
328.0,328.75,12,0.75,Stimuli/P013/sun_bjyrrxiwsnbmkbqs.jpg,0,0.0,0.0,0,142,142,142,,,,,,,,,,,,,328.0060394000029,0.0060394000029191375,None,360.7690493000009,360.7690493000009,360.7690493000009,360.7690493000009,360.7690493000009,360.7690493000009,360.7690493000009,360.7690493000009,360.7690493000009,360.7690493000009,,004,P013,2025_Feb_08_1511,ConditionRich,2021.2.3,59.934755026441195,
328.75,332.0,41,0.0,Stimuli/Blank.png,0,0.0,0.0,0,143,143,143,,,,,,,,,,,,,328.75600300000224,0.006003000002237968,None,361.51976600000125,361.51976600000125,361.51976600000125,361.51976600000125,361.51976600000125,361.51976600000125,361.51976600000125,361.51976600000125,361.51976600000125,361.51976600000125,,004,P013,2025_Feb_08_1511,ConditionRich,2021.2.3,59.934755026441195,
332.0,332.75,27,0.75,Stimuli/P013/things_face_07s.jpg,0,0.0,0.0,0,144,144,144,,,,,,,,,,,,,332.0093067000016,0.009306700001616264,None,364.7725855000026,364.7725855000026,364.7725855000026,364.7725855000026,364.7725855000026,364.7725855000026,364.7725855000026,364.7725855000026,364.7725855000026,364.7725855000026,,004,P013,2025_Feb_08_1511,ConditionRich,2021.2.3,59.934755026441195,
332.75,336.0,41,0.0,Stimuli/Blank.png,0,0.0,0.0,0,145,145,145,,,,,,,,,,,,,332.7601112000011,0.010111200001119869,None,365.52324560000125,365.52324560000125,365.52324560000125,365.52324560000125,365.52324560000125,365.52324560000125,365.52324560000125,365.52324560000125,365.52324560000125,365.52324560000125,,004,P013,2025_Feb_08_1511,ConditionRich,2021.2.3,59.934755026441195,
336.0,336.75,8,0.75,Stimuli/P013/sun_auqrilekgmdmrncq.jpg,0,0.0,0.0,0,146,146,146,,,,,,,,,,,,,336.0132740000008,0.013274000000819797,None,368.7928119999997,368.7928119999997,368.7928119999997,368.7928119999997,368.7928119999997,368.7928119999997,368.7928119999997,368.7928119999997,368.7928119999997,368.7928119999997,,004,P013,2025_Feb_08_1511,ConditionRich,2021.2.3,59.934755026441195,
336.75,340.0,41,0.0,Stimuli/Blank.png,1,1.25,2.0,0,147,147,147,,,,,,,,,,,,,336.77979750000304,0.029797500003041932,1,369.5434727000029,369.5434727000029,369.5434727000029,369.5434727000029,369.5434727000029,369.5434727000029,370.7779322000024,371.5285485000022,369.5434727000029,369.5434727000029,1.7085262000000512,004,P013,2025_Feb_08_1511,ConditionRich,2021.2.3,59.934755026441195,
340.0,340.75,40,0.75,Stimuli/P013/things_woman_07s.jpg,0,0.0,0.0,0,148,148,148,,,,,,,,,,,,,340.00026810000054,0.00026810000053956173,None,372.7631527000012,372.7631527000012,372.7631527000012,372.7631527000012,372.7631527000012,372.7631527000012,372.7631527000012,372.7631527000012,372.7631527000012,372.7631527000012,,004,P013,2025_Feb_08_1511,ConditionRich,2021.2.3,59.934755026441195,
340.75,344.0,41,0.0,Stimuli/Blank.png,0,0.0,0.0,0,149,149,149,,,,,,,,,,,,,340.7510037000029,0.0010037000029115006,None,373.5136418000002,373.5136418000002,373.5136418000002,373.5136418000002,373.5136418000002,373.5136418000002,373.5136418000002,373.5136418000002,373.5136418000002,373.5136418000002,,004,P013,2025_Feb_08_1511,ConditionRich,2021.2.3,59.934755026441195,
344.0,344.75,22,0.75,Stimuli/P013/things_banner_07s.jpg,0,0.0,0.0,0,150,150,150,,,,,,,,,,,,,344.0034626000015,0.003462600001512328,None,376.76652599999943,376.76652599999943,376.76652599999943,376.76652599999943,376.76652599999943,376.76652599999943,376.76652599999943,376.76652599999943,376.76652599999943,376.76652599999943,,004,P013,2025_Feb_08_1511,ConditionRich,2021.2.3,59.934755026441195,
344.75,348.0,41,0.0,Stimuli/Blank.png,1,2.25,3.0,0,151,151,151,,,,,,,,,,,,,344.7543599000019,0.004359900001873029,1,377.5338937000015,377.5338937000015,377.5338937000015,377.5338937000015,377.5338937000015,377.5338937000015,379.75254210000276,380.50325560000056,377.5338937000015,377.5338937000015,2.7271181999967666,004,P013,2025_Feb_08_1511,ConditionRich,2021.2.3,59.934755026441195,
348.0,348.75,36,0.75,Stimuli/P013/things_seafood_07s.jpg,0,0.0,0.0,0,152,152,152,,,,,,,,,,,,,348.0236924000019,0.023692400001891656,None,380.80343770000036,380.80343770000036,380.80343770000036,380.80343770000036,380.80343770000036,380.80343770000036,380.80343770000036,380.80343770000036,380.80343770000036,380.80343770000036,,004,P013,2025_Feb_08_1511,ConditionRich,2021.2.3,59.934755026441195,
348.75,352.0,41,0.0,Stimuli/Blank.png,1,0.25,1.0,0,153,153,153,,,,,,,,,,,,,348.77404690000185,0.02404690000184928,1,381.5374057000008,381.5374057000008,381.5374057000008,381.5374057000008,381.5374057000008,381.5374057000008,381.77094919999945,382.5216032999997,381.5374057000008,381.5374057000008,0.7426209000004746,004,P013,2025_Feb_08_1511,ConditionRich,2021.2.3,59.934755026441195,
352.0,352.75,28,0.75,Stimuli/P013/things_girl_07s.jpg,0,0.0,0.0,0,154,154,154,,,,,,,,,,,,,352.01011260000087,0.010112600000866223,None,384.7736036000024,384.7736036000024,384.7736036000024,384.7736036000024,384.7736036000024,384.7736036000024,384.7736036000024,384.7736036000024,384.7736036000024,384.7736036000024,,004,P013,2025_Feb_08_1511,ConditionRich,2021.2.3,59.934755026441195,
352.75,356.0,41,0.0,Stimuli/Blank.png,1,1.25,2.0,0,155,155,155,,,,,,,,,,,,,352.7605684000009,0.01056840000092052,None,385.52427230000103,385.52427230000103,385.52427230000103,385.52427230000103,385.52427230000103,385.52427230000103,386.7586900000024,387.50939819999985,385.52427230000103,385.52427230000103,,004,P013,2025_Feb_08_1511,ConditionRich,2021.2.3,59.934755026441195,
356.0,356.75,13,0.75,Stimuli/P013/sun_bpccpwpohfirajtf.jpg,0,0.0,0.0,0,156,156,156,,,,,,,,,,,,,356.01415350000025,0.014153500000247732,None,388.7771449000029,388.7771449000029,388.7771449000029,388.7771449000029,388.7771449000029,388.7771449000029,388.7771449000029,388.7771449000029,388.7771449000029,388.7771449000029,,004,P013,2025_Feb_08_1511,ConditionRich,2021.2.3,59.934755026441195,
356.75,360.0,41,0.0,Stimuli/Blank.png,1,0.25,1.0,0,157,157,157,,,,,,,,,,,,,356.7642455000023,0.014245500002289191,1,389.5278126000012,389.5278126000012,389.5278126000012,389.5278126000012,389.5278126000012,389.5278126000012,389.76134340000135,390.5120057000022,389.5278126000012,389.5278126000012,0.7551349000023038,004,P013,2025_Feb_08_1511,ConditionRich,2021.2.3,59.934755026441195,
360.0,360.75,1,0.75,Stimuli/P013/sun_adkmgqclfrkhfxbd.jpg,0,0.0,0.0,0,158,158,158,,,,,,,,,,,,,360.0004203999997,0.00042039999971166253,None,392.7640038000027,392.7640038000027,392.7640038000027,392.7640038000027,392.7640038000027,392.7640038000027,392.7640038000027,392.7640038000027,392.7640038000027,392.7640038000027,,004,P013,2025_Feb_08_1511,ConditionRich,2021.2.3,59.934755026441195,
360.75,364.0,41,0.0,Stimuli/Blank.png,0,0.0,0.0,0,159,159,159,,,,,,,,,,,,,360.7537176000005,0.0037176000005274545,None,393.5313634000013,393.5313634000013,393.5313634000013,393.5313634000013,393.5313634000013,393.5313634000013,393.5313634000013,393.5313634000013,393.5313634000013,393.5313634000013,,004,P013,2025_Feb_08_1511,ConditionRich,2021.2.3,59.934755026441195,
364.0,364.75,17,0.75,Stimuli/P013/sun_bsguftphqnrkbedw.jpg,0,0.0,0.0,0,160,160,160,,,,,,,,,,,,,364.0213376000029,0.021337600002880208,None,396.801392100002,396.801392100002,396.801392100002,396.801392100002,396.801392100002,396.801392100002,396.801392100002,396.801392100002,396.801392100002,396.801392100002,,004,P013,2025_Feb_08_1511,ConditionRich,2021.2.3,59.934755026441195,
364.75,368.0,41,0.0,Stimuli/Blank.png,0,0.0,0.0,0,161,161,161,,,,,,,,,,,,,364.77350750000187,0.02350750000186963,None,397.55156830000124,397.55156830000124,397.55156830000124,397.55156830000124,397.55156830000124,397.55156830000124,397.55156830000124,397.55156830000124,397.55156830000124,397.55156830000124,,004,P013,2025_Feb_08_1511,ConditionRich,2021.2.3,59.934755026441195,
368.0,368.75,25,0.75,Stimuli/P013/things_cashew_07s.jpg,0,0.0,0.0,0,162,162,162,,,,,,,,,,,,,368.02414740000313,0.024147400003130315,None,400.78776030000154,400.78776030000154,400.78776030000154,400.78776030000154,400.78776030000154,400.78776030000154,400.78776030000154,400.78776030000154,400.78776030000154,400.78776030000154,,004,P013,2025_Feb_08_1511,ConditionRich,2021.2.3,59.934755026441195,
368.75,372.0,41,0.0,Stimuli/Blank.png,0,0.0,0.0,0,163,163,163,,,,,,,,,,,,,368.7580491000008,0.008049100000789622,None,401.52174920000107,401.52174920000107,401.52174920000107,401.52174920000107,401.52174920000107,401.52174920000107,401.52174920000107,401.52174920000107,401.52174920000107,401.52174920000107,,004,P013,2025_Feb_08_1511,ConditionRich,2021.2.3,59.934755026441195,
372.0,388.0,0,0.0,Stimuli/Blank.png,1,12.0,12.75,0,164,164,164,,,,,,,,,,,,,372.0149369999999,0.014936999999918044,1,404.79137670000273,404.79137670000273,404.79137670000273,404.79137670000273,404.79137670000273,404.79137670000273,416.7852711000014,417.5359083000003,404.79137670000273,404.79137670000273,12.452640200001042,004,P013,2025_Feb_08_1511,ConditionRich,2021.2.3,59.934755026441195,
