eventStartTime,eventEndTime,eventCond,imSize,imFile,responseEvent,fixRespStart,fixRespEnd,Events.thisRepN,Events.thisTrialN,Events.thisN,Events.thisIndex,Instructions.started,Instructions.stopped,participantReadyResponse.keys,participantReadyResponse.rt,participantReadyResponse.started,participantReadyResponse.stopped,startWaitforTrigger,triggerResponse.keys,triggerResponse.rt,triggerResponse.started,triggerResponse.stopped,globalTimer,actualStartTime,startTimingDiff,participantResponse.keys,participantResponse.started,participantResponse.stopped,image.started,image.stopped,fixationOutside.started,fixationOutside.stopped,fixationResponse.started,fixationResponse.stopped,fixationInside.started,fixationInside.stopped,participantResponse.rt,session,participant,date,expName,psychopyVersion,frameRate,
,,,,,,,,,,,,19.893958900000143,None,1,4.559971800001222,19.893958900000143,None,,,,,,,,,,,,,,,,,,,,,009,P013,2025_Feb_08_1555,ConditionRich,2021.2.3,59.945210078630765,
,,,,,,,,,,,,,,,,,,24.465741899999557,5,14.876768499998434,24.478954199999862,None,,,,,,,,,,,,,,,,009,P013,2025_Feb_08_1555,ConditionRich,2021.2.3,59.945210078630765,
0.0,4.0,0,0.0,Stimuli/Blank.png,0,0,0.0,0,0,0,0,,,,,,,,,,,,39.36234410000179,0.05057450000094832,0.05057450000094832,None,39.42680299999847,None,39.42680299999847,None,39.42680299999847,None,39.42680299999847,39.42680299999847,39.42680299999847,None,,009,P013,2025_Feb_08_1555,ConditionRich,2021.2.3,59.945210078630765,
4.0,7.75,34,0.75,Stimuli/P013/things_radio_07s.jpg,0,0,0.0,0,1,1,1,,,,,,,,,,,,,4.003106400003162,0.00310640000316198,None,43.37949110000045,43.37949110000045,43.37949110000045,43.37949110000045,43.37949110000045,43.37949110000045,43.37949110000045,43.37949110000045,43.37949110000045,43.37949110000045,,009,P013,2025_Feb_08_1555,ConditionRich,2021.2.3,59.945210078630765,
7.75,8.0,41,0.0,Stimuli/Blank.png,0,0,0.0,0,2,2,2,,,,,,,,,,,,,7.756419800000003,0.006419800000003306,None,47.13287180000043,47.13287180000043,47.13287180000043,47.13287180000043,47.13287180000043,47.13287180000043,47.13287180000043,47.13287180000043,47.13287180000043,47.13287180000043,,009,P013,2025_Feb_08_1555,ConditionRich,2021.2.3,59.945210078630765,
8.0,11.75,10,0.75,Stimuli/P013/sun_bdhxnzyleoiflyak.jpg,0,0,0.0,0,3,3,3,,,,,,,,,,,,,8.00697560000117,0.006975600001169369,None,47.39944330000071,47.39944330000071,47.39944330000071,47.39944330000071,47.39944330000071,47.39944330000071,47.39944330000071,47.39944330000071,47.39944330000071,47.39944330000071,,009,P013,2025_Feb_08_1555,ConditionRich,2021.2.3,59.945210078630765,
11.75,12.0,41,0.0,Stimuli/Blank.png,0,0,0.0,0,4,4,4,,,,,,,,,,,,,11.776518400001805,0.026518400001805276,None,51.15277100000094,51.15277100000094,51.15277100000094,51.15277100000094,51.15277100000094,51.15277100000094,51.15277100000094,51.15277100000094,51.15277100000094,51.15277100000094,,009,P013,2025_Feb_08_1555,ConditionRich,2021.2.3,59.945210078630765,
12.0,15.75,16,0.75,Stimuli/P013/sun_bsgtkqjrnrvttrax.jpg,0,0,0.0,0,5,5,5,,,,,,,,,,,,,12.010049400003481,0.010049400003481423,None,51.40301919999911,51.40301919999911,51.40301919999911,51.40301919999911,51.40301919999911,51.40301919999911,51.40301919999911,51.40301919999911,51.40301919999911,51.40301919999911,,009,P013,2025_Feb_08_1555,ConditionRich,2021.2.3,59.945210078630765,
15.75,16.0,41,0.0,Stimuli/Blank.png,0,0,0.0,0,6,6,6,,,,,,,,,,,,,15.7793776000035,0.029377600003499538,None,55.15630669999882,55.15630669999882,55.15630669999882,55.15630669999882,55.15630669999882,55.15630669999882,55.15630669999882,55.15630669999882,55.15630669999882,55.15630669999882,,009,P013,2025_Feb_08_1555,ConditionRich,2021.2.3,59.945210078630765,
16.0,19.75,25,0.75,Stimuli/P013/things_cashew_07s.jpg,0,0,0.0,0,7,7,7,,,,,,,,,,,,,16.01289590000306,0.012895900003059069,None,55.389843400000245,55.389843400000245,55.389843400000245,55.389843400000245,55.389843400000245,55.389843400000245,55.389843400000245,55.389843400000245,55.389843400000245,55.389843400000245,,009,P013,2025_Feb_08_1555,ConditionRich,2021.2.3,59.945210078630765,
19.75,20.0,41,0.0,Stimuli/Blank.png,0,0,0.0,0,8,8,8,,,,,,,,,,,,,19.749510400000872,-0.0004895999991276767,None,59.12654420000035,59.12654420000035,59.12654420000035,59.12654420000035,59.12654420000035,59.12654420000035,59.12654420000035,59.12654420000035,59.12654420000035,59.12654420000035,,009,P013,2025_Feb_08_1555,ConditionRich,2021.2.3,59.945210078630765,
20.0,23.75,7,0.75,Stimuli/P013/sun_aojplsluiikxrfxc.jpg,0,0,0.0,0,9,9,9,,,,,,,,,,,,,19.999804200000654,-0.00019579999934649095,None,59.393378400000074,59.393378400000074,59.393378400000074,59.393378400000074,59.393378400000074,59.393378400000074,59.393378400000074,59.393378400000074,59.393378400000074,59.393378400000074,,009,P013,2025_Feb_08_1555,ConditionRich,2021.2.3,59.945210078630765,
23.75,24.0,41,0.0,Stimuli/Blank.png,0,0,0.0,0,10,10,10,,,,,,,,,,,,,23.769677800002682,0.01967780000268249,None,63.14677529999972,63.14677529999972,63.14677529999972,63.14677529999972,63.14677529999972,63.14677529999972,63.14677529999972,63.14677529999972,63.14677529999972,63.14677529999972,,009,P013,2025_Feb_08_1555,ConditionRich,2021.2.3,59.945210078630765,
24.0,27.75,8,0.75,Stimuli/P013/sun_auqrilekgmdmrncq.jpg,1,0,0.75,0,11,11,11,,,,,,,,,,,,,24.0038155000002,0.0038155000002007,1,63.380205900000874,63.380205900000874,63.380205900000874,63.380205900000874,63.380205900000874,63.380205900000874,63.380205900000874,64.11421609999888,63.380205900000874,63.380205900000874,0.5636907999978575,009,P013,2025_Feb_08_1555,ConditionRich,2021.2.3,59.945210078630765,
27.75,28.0,41,0.0,Stimuli/Blank.png,0,0,0.0,0,12,12,12,,,,,,,,,,,,,27.758215400001063,0.008215400001063244,None,67.13356810000187,67.13356810000187,67.13356810000187,67.13356810000187,67.13356810000187,67.13356810000187,67.13356810000187,67.13356810000187,67.13356810000187,67.13356810000187,,009,P013,2025_Feb_08_1555,ConditionRich,2021.2.3,59.945210078630765,
28.0,31.75,4,0.75,Stimuli/P013/sun_afgoiykvchxqotyz.jpg,0,0,0.0,0,13,13,13,,,,,,,,,,,,,28.007253000003402,0.007253000003402121,None,67.38378010000088,67.38378010000088,67.38378010000088,67.38378010000088,67.38378010000088,67.38378010000088,67.38378010000088,67.38378010000088,67.38378010000088,67.38378010000088,,009,P013,2025_Feb_08_1555,ConditionRich,2021.2.3,59.945210078630765,
31.75,32.0,41,0.0,Stimuli/Blank.png,0,0,0.0,0,14,14,14,,,,,,,,,,,,,31.76236760000029,0.012367600000288803,None,71.15379549999852,71.15379549999852,71.15379549999852,71.15379549999852,71.15379549999852,71.15379549999852,71.15379549999852,71.15379549999852,71.15379549999852,71.15379549999852,,009,P013,2025_Feb_08_1555,ConditionRich,2021.2.3,59.945210078630765,
32.0,35.75,1,0.75,Stimuli/P013/sun_adkmgqclfrkhfxbd.jpg,0,0,0.0,0,15,15,15,,,,,,,,,,,,,32.02773810000144,0.027738100001442945,None,71.40400139999838,71.40400139999838,71.40400139999838,71.40400139999838,71.40400139999838,71.40400139999838,71.40400139999838,71.40400139999838,71.40400139999838,71.40400139999838,,009,P013,2025_Feb_08_1555,ConditionRich,2021.2.3,59.945210078630765,
35.75,36.0,41,0.0,Stimuli/Blank.png,0,0,0.0,0,16,16,16,,,,,,,,,,,,,35.76480210000227,0.01480210000227089,None,75.140725199999,75.140725199999,75.140725199999,75.140725199999,75.140725199999,75.140725199999,75.140725199999,75.140725199999,75.140725199999,75.140725199999,,009,P013,2025_Feb_08_1555,ConditionRich,2021.2.3,59.945210078630765,
36.0,39.75,20,0.75,Stimuli/P013/sun_cidodcxikcyrdglc.jpg,0,0,0.0,0,17,17,17,,,,,,,,,,,,,36.014469000001554,0.014469000001554377,None,75.40755669999999,75.40755669999999,75.40755669999999,75.40755669999999,75.40755669999999,75.40755669999999,75.40755669999999,75.40755669999999,75.40755669999999,75.40755669999999,,009,P013,2025_Feb_08_1555,ConditionRich,2021.2.3,59.945210078630765,
39.75,40.0,41,0.0,Stimuli/Blank.png,0,0,0.0,0,18,18,18,,,,,,,,,,,,,39.76789530000315,0.017895300003146986,None,79.14419220000127,79.14419220000127,79.14419220000127,79.14419220000127,79.14419220000127,79.14419220000127,79.14419220000127,79.14419220000127,79.14419220000127,79.14419220000127,,009,P013,2025_Feb_08_1555,ConditionRich,2021.2.3,59.945210078630765,
40.0,43.75,19,0.75,Stimuli/P013/sun_buphlelowxjnoygy.jpg,0,0,0.0,0,19,19,19,,,,,,,,,,,,,40.00157030000264,0.001570300002640579,None,79.3943786000018,79.3943786000018,79.3943786000018,79.3943786000018,79.3943786000018,79.3943786000018,79.3943786000018,79.3943786000018,79.3943786000018,79.3943786000018,,009,P013,2025_Feb_08_1555,ConditionRich,2021.2.3,59.945210078630765,
43.75,44.0,41,0.0,Stimuli/Blank.png,0,0,0.0,0,20,20,20,,,,,,,,,,,,,43.77159280000342,0.021592800003418233,None,83.1476943000016,83.1476943000016,83.1476943000016,83.1476943000016,83.1476943000016,83.1476943000016,83.1476943000016,83.1476943000016,83.1476943000016,83.1476943000016,,009,P013,2025_Feb_08_1555,ConditionRich,2021.2.3,59.945210078630765,
44.0,47.75,21,0.75,Stimuli/P013/things_baby_07s.jpg,0,0,0.0,0,21,21,21,,,,,,,,,,,,,44.0054059000031,0.005405900003097486,None,83.39795619999859,83.39795619999859,83.39795619999859,83.39795619999859,83.39795619999859,83.39795619999859,83.39795619999859,83.39795619999859,83.39795619999859,83.39795619999859,,009,P013,2025_Feb_08_1555,ConditionRich,2021.2.3,59.945210078630765,
47.75,48.0,41,0.0,Stimuli/Blank.png,0,0,0.0,0,22,22,22,,,,,,,,,,,,,47.77434070000163,0.024340700001630466,None,87.15127230000144,87.15127230000144,87.15127230000144,87.15127230000144,87.15127230000144,87.15127230000144,87.15127230000144,87.15127230000144,87.15127230000144,87.15127230000144,,009,P013,2025_Feb_08_1555,ConditionRich,2021.2.3,59.945210078630765,
48.0,51.75,15,0.75,Stimuli/P013/sun_brezwczwwllviogu.jpg,0,0,0.0,0,23,23,23,,,,,,,,,,,,,48.007848700002796,0.00784870000279625,None,87.38481300000058,87.38481300000058,87.38481300000058,87.38481300000058,87.38481300000058,87.38481300000058,87.38481300000058,87.38481300000058,87.38481300000058,87.38481300000058,,009,P013,2025_Feb_08_1555,ConditionRich,2021.2.3,59.945210078630765,
51.75,52.0,41,0.0,Stimuli/Blank.png,0,0,0.0,0,24,24,24,,,,,,,,,,,,,51.76155980000112,0.011559800001123222,None,91.13813260000097,91.13813260000097,91.13813260000097,91.13813260000097,91.13813260000097,91.13813260000097,91.13813260000097,91.13813260000097,91.13813260000097,91.13813260000097,,009,P013,2025_Feb_08_1555,ConditionRich,2021.2.3,59.945210078630765,
52.0,55.75,23,0.75,Stimuli/P013/things_bug_07s.jpg,0,0,0.0,0,25,25,25,,,,,,,,,,,,,52.01149510000323,0.011495100003230618,None,91.38835280000058,91.38835280000058,91.38835280000058,91.38835280000058,91.38835280000058,91.38835280000058,91.38835280000058,91.38835280000058,91.38835280000058,91.38835280000058,,009,P013,2025_Feb_08_1555,ConditionRich,2021.2.3,59.945210078630765,
55.75,56.0,41,0.0,Stimuli/Blank.png,0,0,0.0,0,26,26,26,,,,,,,,,,,,,55.76481390000117,0.014813900001172442,None,95.14167069999894,95.14167069999894,95.14167069999894,95.14167069999894,95.14167069999894,95.14167069999894,95.14167069999894,95.14167069999894,95.14167069999894,95.14167069999894,,009,P013,2025_Feb_08_1555,ConditionRich,2021.2.3,59.945210078630765,
56.0,59.75,5,0.75,Stimuli/P013/sun_aidrxvbfhxtsusrf.jpg,1,0,0.75,0,27,27,27,,,,,,,,,,,,,56.01603530000284,0.016035300002840813,1,95.40857160000087,95.40857160000087,95.40857160000087,95.40857160000087,95.40857160000087,95.40857160000087,95.40857160000087,96.12587930000154,95.40857160000087,95.40857160000087,0.5302832999987004,009,P013,2025_Feb_08_1555,ConditionRich,2021.2.3,59.945210078630765,
59.75,60.0,41,0.0,Stimuli/Blank.png,0,0,0.0,0,28,28,28,,,,,,,,,,,,,59.77000410000255,0.02000410000255215,None,99.14523090000148,99.14523090000148,99.14523090000148,99.14523090000148,99.14523090000148,99.14523090000148,99.14523090000148,99.14523090000148,99.14523090000148,99.14523090000148,,009,P013,2025_Feb_08_1555,ConditionRich,2021.2.3,59.945210078630765,
60.0,63.75,2,0.75,Stimuli/P013/sun_adotnsaifoooswkf.jpg,1,0,0.75,0,29,29,29,,,,,,,,,,,,,60.0017945000036,0.001794500003597932,1,99.37875189999977,99.37875189999977,99.37875189999977,99.37875189999977,99.37875189999977,99.37875189999977,99.37875189999977,100.1128749999989,99.37875189999977,99.37875189999977,0.48017089999848395,009,P013,2025_Feb_08_1555,ConditionRich,2021.2.3,59.945210078630765,
63.75,64.0,41,0.0,Stimuli/Blank.png,0,0,0.0,0,30,30,30,,,,,,,,,,,,,63.75735920000079,0.007359200000792043,None,103.14876770000046,103.14876770000046,103.14876770000046,103.14876770000046,103.14876770000046,103.14876770000046,103.14876770000046,103.14876770000046,103.14876770000046,103.14876770000046,,009,P013,2025_Feb_08_1555,ConditionRich,2021.2.3,59.945210078630765,
64.0,67.75,18,0.75,Stimuli/P013/sun_btohwudpiusfvpvl.jpg,0,0,0.0,0,31,31,31,,,,,,,,,,,,,64.02287230000002,0.022872300000017276,None,103.39897270000074,103.39897270000074,103.39897270000074,103.39897270000074,103.39897270000074,103.39897270000074,103.39897270000074,103.39897270000074,103.39897270000074,103.39897270000074,,009,P013,2025_Feb_08_1555,ConditionRich,2021.2.3,59.945210078630765,
67.75,68.0,41,0.0,Stimuli/Blank.png,0,0,0.0,0,32,32,32,,,,,,,,,,,,,67.75885010000275,0.00885010000274633,None,107.1356608999995,107.1356608999995,107.1356608999995,107.1356608999995,107.1356608999995,107.1356608999995,107.1356608999995,107.1356608999995,107.1356608999995,107.1356608999995,,009,P013,2025_Feb_08_1555,ConditionRich,2021.2.3,59.945210078630765,
68.0,71.75,27,0.75,Stimuli/P013/things_face_07s.jpg,0,0,0.0,0,33,33,33,,,,,,,,,,,,,68.00945250000223,0.009452500002225861,None,107.40311640000073,107.40311640000073,107.40311640000073,107.40311640000073,107.40311640000073,107.40311640000073,107.40311640000073,107.40311640000073,107.40311640000073,107.40311640000073,,009,P013,2025_Feb_08_1555,ConditionRich,2021.2.3,59.945210078630765,
71.75,72.0,41,0.0,Stimuli/Blank.png,0,0,0.0,0,34,34,34,,,,,,,,,,,,,71.77917440000238,0.029174400002375478,None,111.15592069999911,111.15592069999911,111.15592069999911,111.15592069999911,111.15592069999911,111.15592069999911,111.15592069999911,111.15592069999911,111.15592069999911,111.15592069999911,,009,P013,2025_Feb_08_1555,ConditionRich,2021.2.3,59.945210078630765,
72.0,75.75,26,0.75,Stimuli/P013/things_cougar_07s.jpg,1,3,3.75,0,35,35,35,,,,,,,,,,,,,72.01235690000249,0.012356900002487237,1,111.38937929999884,111.38937929999884,111.38937929999884,111.38937929999884,111.38937929999884,111.38937929999884,114.37537950000115,None,111.38937929999884,111.38937929999884,3.4975488999989466,009,P013,2025_Feb_08_1555,ConditionRich,2021.2.3,59.945210078630765,
75.75,76.0,41,0.0,Stimuli/Blank.png,0,0,0.0,0,36,36,36,,,,,,,,,,,,,75.75065930000346,0.0006593000034627039,None,115.12605189999886,115.12605189999886,115.12605189999886,115.12605189999886,115.12605189999886,115.12605189999886,115.12605189999886,115.12605189999886,115.12605189999886,115.12605189999886,,009,P013,2025_Feb_08_1555,ConditionRich,2021.2.3,59.945210078630765,
76.0,79.75,11,0.75,Stimuli/P013/sun_bfyxzbjsvqsobbky.jpg,0,0,0.0,0,37,37,37,,,,,,,,,,,,,75.99941520000357,-0.0005847999964316841,None,115.3762115999998,115.3762115999998,115.3762115999998,115.3762115999998,115.3762115999998,115.3762115999998,115.3762115999998,115.3762115999998,115.3762115999998,115.3762115999998,,009,P013,2025_Feb_08_1555,ConditionRich,2021.2.3,59.945210078630765,
79.75,80.0,41,0.0,Stimuli/Blank.png,0,0,0.0,0,38,38,38,,,,,,,,,,,,,79.7525059000036,0.0025059000035980716,None,119.12953170000037,119.12953170000037,119.12953170000037,119.12953170000037,119.12953170000037,119.12953170000037,119.12953170000037,119.12953170000037,119.12953170000037,119.12953170000037,,009,P013,2025_Feb_08_1555,ConditionRich,2021.2.3,59.945210078630765,
80.0,83.75,40,0.75,Stimuli/P013/things_woman_07s.jpg,0,0,0.0,0,39,39,39,,,,,,,,,,,,,80.00298650000332,0.0029865000033169053,None,119.37974979999854,119.37974979999854,119.37974979999854,119.37974979999854,119.37974979999854,119.37974979999854,119.37974979999854,119.37974979999854,119.37974979999854,119.37974979999854,,009,P013,2025_Feb_08_1555,ConditionRich,2021.2.3,59.945210078630765,
83.75,84.0,41,0.0,Stimuli/Blank.png,0,0,0.0,0,40,40,40,,,,,,,,,,,,,83.75709280000228,0.007092800002283184,None,123.13311109999995,123.13311109999995,123.13311109999995,123.13311109999995,123.13311109999995,123.13311109999995,123.13311109999995,123.13311109999995,123.13311109999995,123.13311109999995,,009,P013,2025_Feb_08_1555,ConditionRich,2021.2.3,59.945210078630765,
84.0,100.0,0,0.0,Stimuli/Blank.png,1,8,8.75,0,41,41,41,,,,,,,,,,,,,84.00635540000076,0.006355400000757072,1,123.3833338000004,123.3833338000004,123.3833338000004,123.3833338000004,123.3833338000004,123.3833338000004,131.37369599999874,132.10777049999888,123.3833338000004,123.3833338000004,8.388628400000016,009,P013,2025_Feb_08_1555,ConditionRich,2021.2.3,59.945210078630765,
100.0,103.75,3,0.75,Stimuli/P013/sun_aengzsmykwchlrdn.jpg,0,0,0.0,0,42,42,42,,,,,,,,,,,,,100.00401090000014,0.004010900000139372,None,139.38081389999934,139.38081389999934,139.38081389999934,139.38081389999934,139.38081389999934,139.38081389999934,139.38081389999934,139.38081389999934,139.38081389999934,139.38081389999934,,009,P013,2025_Feb_08_1555,ConditionRich,2021.2.3,59.945210078630765,
103.75,104.0,41,0.0,Stimuli/Blank.png,0,0,0.0,0,43,43,43,,,,,,,,,,,,,103.75875540000197,0.008755400001973612,None,143.15083099999902,143.15083099999902,143.15083099999902,143.15083099999902,143.15083099999902,143.15083099999902,143.15083099999902,143.15083099999902,143.15083099999902,143.15083099999902,,009,P013,2025_Feb_08_1555,ConditionRich,2021.2.3,59.945210078630765,
104.0,107.75,22,0.75,Stimuli/P013/things_banner_07s.jpg,0,0,0.0,0,44,44,44,,,,,,,,,,,,,104.02494790000128,0.024947900001279777,None,143.4177395000006,143.4177395000006,143.4177395000006,143.4177395000006,143.4177395000006,143.4177395000006,143.4177395000006,143.4177395000006,143.4177395000006,143.4177395000006,,009,P013,2025_Feb_08_1555,ConditionRich,2021.2.3,59.945210078630765,
107.75,108.0,41,0.0,Stimuli/Blank.png,0,0,0.0,0,45,45,45,,,,,,,,,,,,,107.77764620000016,0.027646200000162935,None,147.1543586000007,147.1543586000007,147.1543586000007,147.1543586000007,147.1543586000007,147.1543586000007,147.1543586000007,147.1543586000007,147.1543586000007,147.1543586000007,,009,P013,2025_Feb_08_1555,ConditionRich,2021.2.3,59.945210078630765,
108.0,111.75,13,0.75,Stimuli/P013/sun_bpccpwpohfirajtf.jpg,0,0,0.0,0,46,46,46,,,,,,,,,,,,,108.01205280000067,0.012052800000674324,None,147.40459120000014,147.40459120000014,147.40459120000014,147.40459120000014,147.40459120000014,147.40459120000014,147.40459120000014,147.40459120000014,147.40459120000014,147.40459120000014,,009,P013,2025_Feb_08_1555,ConditionRich,2021.2.3,59.945210078630765,
111.75,112.0,41,0.0,Stimuli/Blank.png,0,0,0.0,0,47,47,47,,,,,,,,,,,,,111.78161070000351,0.03161070000351174,None,151.1579047999985,151.1579047999985,151.1579047999985,151.1579047999985,151.1579047999985,151.1579047999985,151.1579047999985,151.1579047999985,151.1579047999985,151.1579047999985,,009,P013,2025_Feb_08_1555,ConditionRich,2021.2.3,59.945210078630765,
112.0,115.75,14,0.75,Stimuli/P013/sun_bqhfterhwnqrbnzg.jpg,0,0,0.0,0,48,48,48,,,,,,,,,,,,,112.01439500000197,0.014395000001968583,None,151.40812970000115,151.40812970000115,151.40812970000115,151.40812970000115,151.40812970000115,151.40812970000115,151.40812970000115,151.40812970000115,151.40812970000115,151.40812970000115,,009,P013,2025_Feb_08_1555,ConditionRich,2021.2.3,59.945210078630765,
115.75,116.0,41,0.0,Stimuli/Blank.png,0,0,0.0,0,49,49,49,,,,,,,,,,,,,115.76778120000017,0.017781200000172248,None,155.1447517000015,155.1447517000015,155.1447517000015,155.1447517000015,155.1447517000015,155.1447517000015,155.1447517000015,155.1447517000015,155.1447517000015,155.1447517000015,,009,P013,2025_Feb_08_1555,ConditionRich,2021.2.3,59.945210078630765,
116.0,119.75,37,0.75,Stimuli/P013/things_slug_07s.jpg,0,0,0.0,0,50,50,50,,,,,,,,,,,,,116.00178310000047,0.00178310000046622,None,155.3782605000015,155.3782605000015,155.3782605000015,155.3782605000015,155.3782605000015,155.3782605000015,155.3782605000015,155.3782605000015,155.3782605000015,155.3782605000015,,009,P013,2025_Feb_08_1555,ConditionRich,2021.2.3,59.945210078630765,
119.75,120.0,41,0.0,Stimuli/Blank.png,0,0,0.0,0,51,51,51,,,,,,,,,,,,,119.75720310000179,0.007203100001788698,None,159.1483021999993,159.1483021999993,159.1483021999993,159.1483021999993,159.1483021999993,159.1483021999993,159.1483021999993,159.1483021999993,159.1483021999993,159.1483021999993,,009,P013,2025_Feb_08_1555,ConditionRich,2021.2.3,59.945210078630765,
120.0,123.75,30,0.75,Stimuli/P013/things_man_07s.jpg,0,0,0.0,0,52,52,52,,,,,,,,,,,,,120.0222861000002,0.02228610000020126,None,159.39851009999984,159.39851009999984,159.39851009999984,159.39851009999984,159.39851009999984,159.39851009999984,159.39851009999984,159.39851009999984,159.39851009999984,159.39851009999984,,009,P013,2025_Feb_08_1555,ConditionRich,2021.2.3,59.945210078630765,
123.75,124.0,41,0.0,Stimuli/Blank.png,0,0,0.0,0,53,53,53,,,,,,,,,,,,,123.75815100000182,0.00815100000181701,None,163.13521609999952,163.13521609999952,163.13521609999952,163.13521609999952,163.13521609999952,163.13521609999952,163.13521609999952,163.13521609999952,163.13521609999952,163.13521609999952,,009,P013,2025_Feb_08_1555,ConditionRich,2021.2.3,59.945210078630765,
124.0,127.75,12,0.75,Stimuli/P013/sun_bjyrrxiwsnbmkbqs.jpg,1,2,2.75,0,54,54,54,,,,,,,,,,,,,124.0083872000032,0.008387200003198814,1,163.38537749999887,163.38537749999887,163.38537749999887,163.38537749999887,163.38537749999887,163.38537749999887,165.37043379999886,166.12120539999887,163.38537749999887,163.38537749999887,2.3954780000021856,009,P013,2025_Feb_08_1555,ConditionRich,2021.2.3,59.945210078630765,
127.75,128.0,41,0.0,Stimuli/Blank.png,0,0,0.0,0,55,55,55,,,,,,,,,,,,,127.76254100000006,0.012541000000055647,None,167.1386965999991,167.1386965999991,167.1386965999991,167.1386965999991,167.1386965999991,167.1386965999991,167.1386965999991,167.1386965999991,167.1386965999991,167.1386965999991,,009,P013,2025_Feb_08_1555,ConditionRich,2021.2.3,59.945210078630765,
128.0,131.75,17,0.75,Stimuli/P013/sun_bsguftphqnrkbedw.jpg,0,0,0.0,0,56,56,56,,,,,,,,,,,,,128.01218600000357,0.012186000003566733,None,167.38891280000098,167.38891280000098,167.38891280000098,167.38891280000098,167.38891280000098,167.38891280000098,167.38891280000098,167.38891280000098,167.38891280000098,167.38891280000098,,009,P013,2025_Feb_08_1555,ConditionRich,2021.2.3,59.945210078630765,
131.75,132.0,41,0.0,Stimuli/Blank.png,0,0,0.0,0,57,57,57,,,,,,,,,,,,,131.76746470000217,0.017464700002165046,None,171.15893119999964,171.15893119999964,171.15893119999964,171.15893119999964,171.15893119999964,171.15893119999964,171.15893119999964,171.15893119999964,171.15893119999964,171.15893119999964,,009,P013,2025_Feb_08_1555,ConditionRich,2021.2.3,59.945210078630765,
132.0,135.75,9,0.75,Stimuli/P013/sun_bdgwqzttihopmpbf.jpg,0,0,0.0,0,58,58,58,,,,,,,,,,,,,132.01765210000303,0.01765210000303341,None,171.40915049999967,171.40915049999967,171.40915049999967,171.40915049999967,171.40915049999967,171.40915049999967,171.40915049999967,171.40915049999967,171.40915049999967,171.40915049999967,,009,P013,2025_Feb_08_1555,ConditionRich,2021.2.3,59.945210078630765,
135.75,136.0,41,0.0,Stimuli/Blank.png,0,0,0.0,0,59,59,59,,,,,,,,,,,,,135.76891440000327,0.018914400003268383,None,175.14585870000155,175.14585870000155,175.14585870000155,175.14585870000155,175.14585870000155,175.14585870000155,175.14585870000155,175.14585870000155,175.14585870000155,175.14585870000155,,009,P013,2025_Feb_08_1555,ConditionRich,2021.2.3,59.945210078630765,
136.0,139.75,38,0.75,Stimuli/P013/things_spark_plug_07s.jpg,0,0,0.0,0,60,60,60,,,,,,,,,,,,,136.00242300000173,0.002423000001726905,None,175.37931659999958,175.37931659999958,175.37931659999958,175.37931659999958,175.37931659999958,175.37931659999958,175.37931659999958,175.37931659999958,175.37931659999958,175.37931659999958,,009,P013,2025_Feb_08_1555,ConditionRich,2021.2.3,59.945210078630765,
139.75,140.0,41,0.0,Stimuli/Blank.png,0,0,0.0,0,61,61,61,,,,,,,,,,,,,139.75731200000155,0.007312000001547858,None,179.13264790000176,179.13264790000176,179.13264790000176,179.13264790000176,179.13264790000176,179.13264790000176,179.13264790000176,179.13264790000176,179.13264790000176,179.13264790000176,,009,P013,2025_Feb_08_1555,ConditionRich,2021.2.3,59.945210078630765,
140.0,143.75,31,0.75,Stimuli/P013/things_mask_07s.jpg,0,0,0.0,0,62,62,62,,,,,,,,,,,,,140.00647370000297,0.0064737000029708724,None,179.3828543999989,179.3828543999989,179.3828543999989,179.3828543999989,179.3828543999989,179.3828543999989,179.3828543999989,179.3828543999989,179.3828543999989,179.3828543999989,,009,P013,2025_Feb_08_1555,ConditionRich,2021.2.3,59.945210078630765,
143.75,144.0,41,0.0,Stimuli/Blank.png,0,0,0.0,0,63,63,63,,,,,,,,,,,,,143.75922860000355,0.009228600003552856,None,183.13617760000125,183.13617760000125,183.13617760000125,183.13617760000125,183.13617760000125,183.13617760000125,183.13617760000125,183.13617760000125,183.13617760000125,183.13617760000125,,009,P013,2025_Feb_08_1555,ConditionRich,2021.2.3,59.945210078630765,
144.0,147.75,35,0.75,Stimuli/P013/things_road_sign_07s.jpg,1,1,1.75,0,64,64,64,,,,,,,,,,,,,144.01193910000075,0.011939100000745384,1,183.40310339999996,183.40310339999996,183.40310339999996,183.40310339999996,183.40310339999996,183.40310339999996,184.38733480000155,185.13793879999866,183.40310339999996,183.40310339999996,1.4198097000007692,009,P013,2025_Feb_08_1555,ConditionRich,2021.2.3,59.945210078630765,
147.75,148.0,41,0.0,Stimuli/Blank.png,0,0,0.0,0,65,65,65,,,,,,,,,,,,,147.7805210000006,0.030521000000589993,None,187.15642379999917,187.15642379999917,187.15642379999917,187.15642379999917,187.15642379999917,187.15642379999917,187.15642379999917,187.15642379999917,187.15642379999917,187.15642379999917,,009,P013,2025_Feb_08_1555,ConditionRich,2021.2.3,59.945210078630765,
148.0,151.75,28,0.75,Stimuli/P013/things_girl_07s.jpg,0,0,0.0,0,66,66,66,,,,,,,,,,,,,148.01312130000224,0.013121300002239877,None,187.38993670000127,187.38993670000127,187.38993670000127,187.38993670000127,187.38993670000127,187.38993670000127,187.38993670000127,187.38993670000127,187.38993670000127,187.38993670000127,,009,P013,2025_Feb_08_1555,ConditionRich,2021.2.3,59.945210078630765,
151.75,152.0,41,0.0,Stimuli/Blank.png,0,0,0.0,0,67,67,67,,,,,,,,,,,,,151.75294680000297,0.0029468000029737595,None,191.14326749999964,191.14326749999964,191.14326749999964,191.14326749999964,191.14326749999964,191.14326749999964,191.14326749999964,191.14326749999964,191.14326749999964,191.14326749999964,,009,P013,2025_Feb_08_1555,ConditionRich,2021.2.3,59.945210078630765,
152.0,155.75,36,0.75,Stimuli/P013/things_seafood_07s.jpg,1,2,2.75,0,68,68,68,,,,,,,,,,,,,152.0173493000002,0.017349300000205403,1,191.39348410000093,191.39348410000093,191.39348410000093,191.39348410000093,191.39348410000093,191.39348410000093,193.37856029999966,194.12922769999932,191.39348410000093,191.39348410000093,2.367488500000036,009,P013,2025_Feb_08_1555,ConditionRich,2021.2.3,59.945210078630765,
155.75,156.0,41,0.0,Stimuli/Blank.png,0,0,0.0,0,69,69,69,,,,,,,,,,,,,155.75431550000212,0.004315500002121553,None,195.1301190000013,195.1301190000013,195.1301190000013,195.1301190000013,195.1301190000013,195.1301190000013,195.1301190000013,195.1301190000013,195.1301190000013,195.1301190000013,,009,P013,2025_Feb_08_1555,ConditionRich,2021.2.3,59.945210078630765,
156.0,159.75,32,0.75,Stimuli/P013/things_mistletoe_07s.jpg,0,0,0.0,0,70,70,70,,,,,,,,,,,,,156.0072770000006,0.007277000000613043,None,195.39703759999975,195.39703759999975,195.39703759999975,195.39703759999975,195.39703759999975,195.39703759999975,195.39703759999975,195.39703759999975,195.39703759999975,195.39703759999975,,009,P013,2025_Feb_08_1555,ConditionRich,2021.2.3,59.945210078630765,
159.75,160.0,41,0.0,Stimuli/Blank.png,0,0,0.0,0,71,71,71,,,,,,,,,,,,,159.77338500000042,0.023385000000416767,None,199.15034530000048,199.15034530000048,199.15034530000048,199.15034530000048,199.15034530000048,199.15034530000048,199.15034530000048,199.15034530000048,199.15034530000048,199.15034530000048,,009,P013,2025_Feb_08_1555,ConditionRich,2021.2.3,59.945210078630765,
160.0,163.75,6,0.75,Stimuli/P013/sun_aoejkkmwkfegacni.jpg,1,1,1.75,0,72,72,72,,,,,,,,,,,,,160.0072833000013,0.007283300001290627,1,199.38388570000097,199.38388570000097,199.38388570000097,199.38388570000097,199.38388570000097,199.38388570000097,200.36807709999994,201.1187472999991,199.38388570000097,199.38388570000097,1.3750091000001703,009,P013,2025_Feb_08_1555,ConditionRich,2021.2.3,59.945210078630765,
163.75,164.0,41,0.0,Stimuli/Blank.png,0,0,0.0,0,73,73,73,,,,,,,,,,,,,163.76256700000158,0.012567000001581619,None,203.1539429000004,203.1539429000004,203.1539429000004,203.1539429000004,203.1539429000004,203.1539429000004,203.1539429000004,203.1539429000004,203.1539429000004,203.1539429000004,,009,P013,2025_Feb_08_1555,ConditionRich,2021.2.3,59.945210078630765,
164.0,167.75,24,0.75,Stimuli/P013/things_bungee_07s.jpg,0,0,0.0,0,74,74,74,,,,,,,,,,,,,164.0273242000003,0.027324200000293786,None,203.40410559999873,203.40410559999873,203.40410559999873,203.40410559999873,203.40410559999873,203.40410559999873,203.40410559999873,203.40410559999873,203.40410559999873,203.40410559999873,,009,P013,2025_Feb_08_1555,ConditionRich,2021.2.3,59.945210078630765,
167.75,168.0,41,0.0,Stimuli/Blank.png,0,0,0.0,0,75,75,75,,,,,,,,,,,,,167.76463810000132,0.014638100001320709,None,207.14078090000112,207.14078090000112,207.14078090000112,207.14078090000112,207.14078090000112,207.14078090000112,207.14078090000112,207.14078090000112,207.14078090000112,207.14078090000112,,009,P013,2025_Feb_08_1555,ConditionRich,2021.2.3,59.945210078630765,
168.0,171.75,33,0.75,Stimuli/P013/things_piglet_07s.jpg,0,0,0.0,0,76,76,76,,,,,,,,,,,,,168.0142304000001,0.014230400000087684,None,207.39098340000055,207.39098340000055,207.39098340000055,207.39098340000055,207.39098340000055,207.39098340000055,207.39098340000055,207.39098340000055,207.39098340000055,207.39098340000055,,009,P013,2025_Feb_08_1555,ConditionRich,2021.2.3,59.945210078630765,
171.75,172.0,41,0.0,Stimuli/Blank.png,0,0,0.0,0,77,77,77,,,,,,,,,,,,,171.75266580000243,0.002665800002432661,None,211.1442906000011,211.1442906000011,211.1442906000011,211.1442906000011,211.1442906000011,211.1442906000011,211.1442906000011,211.1442906000011,211.1442906000011,211.1442906000011,,009,P013,2025_Feb_08_1555,ConditionRich,2021.2.3,59.945210078630765,
172.0,175.75,39,0.75,Stimuli/P013/things_violin_07n.jpg,0,0,0.0,0,78,78,78,,,,,,,,,,,,,172.0186801000018,0.018680100001802202,None,211.39495199999874,211.39495199999874,211.39495199999874,211.39495199999874,211.39495199999874,211.39495199999874,211.39495199999874,211.39495199999874,211.39495199999874,211.39495199999874,,009,P013,2025_Feb_08_1555,ConditionRich,2021.2.3,59.945210078630765,
175.75,176.0,41,0.0,Stimuli/Blank.png,0,0,0.0,0,79,79,79,,,,,,,,,,,,,175.75414060000185,0.004140600001846906,None,215.13114190000124,215.13114190000124,215.13114190000124,215.13114190000124,215.13114190000124,215.13114190000124,215.13114190000124,215.13114190000124,215.13114190000124,215.13114190000124,,009,P013,2025_Feb_08_1555,ConditionRich,2021.2.3,59.945210078630765,
176.0,179.75,29,0.75,Stimuli/P013/things_iguana_07s.jpg,0,0,0.0,0,80,80,80,,,,,,,,,,,,,176.00440080000044,0.004400800000439631,None,215.38135770000008,215.38135770000008,215.38135770000008,215.38135770000008,215.38135770000008,215.38135770000008,215.38135770000008,215.38135770000008,215.38135770000008,215.38135770000008,,009,P013,2025_Feb_08_1555,ConditionRich,2021.2.3,59.945210078630765,
179.75,180.0,41,0.0,Stimuli/Blank.png,0,0,0.0,0,81,81,81,,,,,,,,,,,,,179.7585887000023,0.008588700002292171,None,219.13468609999836,219.13468609999836,219.13468609999836,219.13468609999836,219.13468609999836,219.13468609999836,219.13468609999836,219.13468609999836,219.13468609999836,219.13468609999836,,009,P013,2025_Feb_08_1555,ConditionRich,2021.2.3,59.945210078630765,
180.0,196.0,0,0.0,Stimuli/Blank.png,1,13,13.75,0,82,82,82,,,,,,,,,,,,,180.00876990000324,0.008769900003244402,1,219.384902400001,219.384902400001,219.384902400001,219.384902400001,219.384902400001,219.384902400001,232.3630478999985,233.1137172000017,219.384902400001,219.384902400001,13.323997399998916,009,P013,2025_Feb_08_1555,ConditionRich,2021.2.3,59.945210078630765,
196.0,199.75,33,0.75,Stimuli/P013/things_piglet_07s.jpg,0,0,0.0,0,83,83,83,,,,,,,,,,,,,196.00799800000095,0.007998000000952743,None,235.39908110000033,235.39908110000033,235.39908110000033,235.39908110000033,235.39908110000033,235.39908110000033,235.39908110000033,235.39908110000033,235.39908110000033,235.39908110000033,,009,P013,2025_Feb_08_1555,ConditionRich,2021.2.3,59.945210078630765,
199.75,200.0,41,0.0,Stimuli/Blank.png,0,0,0.0,0,84,84,84,,,,,,,,,,,,,199.77764840000236,0.027648400002362905,None,239.16908899999908,239.16908899999908,239.16908899999908,239.16908899999908,239.16908899999908,239.16908899999908,239.16908899999908,239.16908899999908,239.16908899999908,239.16908899999908,,009,P013,2025_Feb_08_1555,ConditionRich,2021.2.3,59.945210078630765,
200.0,203.75,11,0.75,Stimuli/P013/sun_bfyxzbjsvqsobbky.jpg,1,0,0.75,0,85,85,85,,,,,,,,,,,,,200.0264245000035,0.026424500003486173,None,239.4193196999986,239.4193196999986,239.4193196999986,239.4193196999986,239.4193196999986,239.4193196999986,239.4193196999986,240.1366468999986,239.4193196999986,239.4193196999986,,009,P013,2025_Feb_08_1555,ConditionRich,2021.2.3,59.945210078630765,
203.75,204.0,41,0.0,Stimuli/Blank.png,0,0,0.0,0,86,86,86,,,,,,,,,,,,,203.77918520000094,0.029185200000938494,None,243.1559301999987,243.1559301999987,243.1559301999987,243.1559301999987,243.1559301999987,243.1559301999987,243.1559301999987,243.1559301999987,243.1559301999987,243.1559301999987,,009,P013,2025_Feb_08_1555,ConditionRich,2021.2.3,59.945210078630765,
204.0,207.75,34,0.75,Stimuli/P013/things_radio_07s.jpg,0,0,0.0,0,87,87,87,,,,,,,,,,,,,204.0127261000016,0.012726100001600571,None,243.38947159999952,243.38947159999952,243.38947159999952,243.38947159999952,243.38947159999952,243.38947159999952,243.38947159999952,243.38947159999952,243.38947159999952,243.38947159999952,,009,P013,2025_Feb_08_1555,ConditionRich,2021.2.3,59.945210078630765,
207.75,208.0,41,0.0,Stimuli/Blank.png,0,0,0.0,0,88,88,88,,,,,,,,,,,,,207.74919750000117,-0.0008024999988265336,None,247.12611169999946,247.12611169999946,247.12611169999946,247.12611169999946,247.12611169999946,247.12611169999946,247.12611169999946,247.12611169999946,247.12611169999946,247.12611169999946,,009,P013,2025_Feb_08_1555,ConditionRich,2021.2.3,59.945210078630765,
208.0,211.75,15,0.75,Stimuli/P013/sun_brezwczwwllviogu.jpg,1,2,2.75,0,89,89,89,,,,,,,,,,,,,208.0002145000035,0.0002145000034943223,1,247.39301540000088,247.39301540000088,247.39301540000088,247.39301540000088,247.39301540000088,247.39301540000088,249.36142729999847,250.11211800000092,247.39301540000088,247.39301540000088,2.3451986000000034,009,P013,2025_Feb_08_1555,ConditionRich,2021.2.3,59.945210078630765,
211.75,212.0,41,0.0,Stimuli/Blank.png,0,0,0.0,0,90,90,90,,,,,,,,,,,,,211.7702285000014,0.020228500001394423,None,251.1463408999989,251.1463408999989,251.1463408999989,251.1463408999989,251.1463408999989,251.1463408999989,251.1463408999989,251.1463408999989,251.1463408999989,251.1463408999989,,009,P013,2025_Feb_08_1555,ConditionRich,2021.2.3,59.945210078630765,
212.0,215.75,32,0.75,Stimuli/P013/things_mistletoe_07s.jpg,1,3,3.75,0,91,91,91,,,,,,,,,,,,,212.00309720000223,0.003097200002230238,1,251.3798585000004,251.3798585000004,251.3798585000004,251.3798585000004,251.3798585000004,251.3798585000004,254.3658418999985,255.1165770000007,251.3798585000004,251.3798585000004,3.442144200002076,009,P013,2025_Feb_08_1555,ConditionRich,2021.2.3,59.945210078630765,
215.75,216.0,41,0.0,Stimuli/Blank.png,0,0,0.0,0,92,92,92,,,,,,,,,,,,,215.75729070000307,0.007290700003068196,None,255.1331910000008,255.1331910000008,255.1331910000008,255.1331910000008,255.1331910000008,255.1331910000008,255.1331910000008,255.1331910000008,255.1331910000008,255.1331910000008,,009,P013,2025_Feb_08_1555,ConditionRich,2021.2.3,59.945210078630765,
216.0,219.75,24,0.75,Stimuli/P013/things_bungee_07s.jpg,0,0,0.0,0,93,93,93,,,,,,,,,,,,,216.00693020000108,0.006930200001079356,None,255.3834136000005,255.3834136000005,255.3834136000005,255.3834136000005,255.3834136000005,255.3834136000005,255.3834136000005,255.3834136000005,255.3834136000005,255.3834136000005,,009,P013,2025_Feb_08_1555,ConditionRich,2021.2.3,59.945210078630765,
219.75,220.0,41,0.0,Stimuli/Blank.png,0,0,0.0,0,94,94,94,,,,,,,,,,,,,219.76048290000108,0.010482900001079543,None,259.1367500000015,259.1367500000015,259.1367500000015,259.1367500000015,259.1367500000015,259.1367500000015,259.1367500000015,259.1367500000015,259.1367500000015,259.1367500000015,,009,P013,2025_Feb_08_1555,ConditionRich,2021.2.3,59.945210078630765,
220.0,223.75,4,0.75,Stimuli/P013/sun_afgoiykvchxqotyz.jpg,0,0,0.0,0,95,95,95,,,,,,,,,,,,,220.0123016000034,0.012301600003411295,None,259.4036420000011,259.4036420000011,259.4036420000011,259.4036420000011,259.4036420000011,259.4036420000011,259.4036420000011,259.4036420000011,259.4036420000011,259.4036420000011,,009,P013,2025_Feb_08_1555,ConditionRich,2021.2.3,59.945210078630765,
223.75,224.0,41,0.0,Stimuli/Blank.png,0,0,0.0,0,96,96,96,,,,,,,,,,,,,223.78158350000012,0.03158350000012433,None,263.1569777000004,263.1569777000004,263.1569777000004,263.1569777000004,263.1569777000004,263.1569777000004,263.1569777000004,263.1569777000004,263.1569777000004,263.1569777000004,,009,P013,2025_Feb_08_1555,ConditionRich,2021.2.3,59.945210078630765,
224.0,227.75,23,0.75,Stimuli/P013/things_bug_07s.jpg,0,0,0.0,0,97,97,97,,,,,,,,,,,,,224.01379760000054,0.013797600000543753,None,263.3905890999995,263.3905890999995,263.3905890999995,263.3905890999995,263.3905890999995,263.3905890999995,263.3905890999995,263.3905890999995,263.3905890999995,263.3905890999995,,009,P013,2025_Feb_08_1555,ConditionRich,2021.2.3,59.945210078630765,
227.75,228.0,41,0.0,Stimuli/Blank.png,0,0,0.0,0,98,98,98,,,,,,,,,,,,,227.75269190000108,0.0026919000010821037,None,267.14383010000165,267.14383010000165,267.14383010000165,267.14383010000165,267.14383010000165,267.14383010000165,267.14383010000165,267.14383010000165,267.14383010000165,267.14383010000165,,009,P013,2025_Feb_08_1555,ConditionRich,2021.2.3,59.945210078630765,
228.0,231.75,12,0.75,Stimuli/P013/sun_bjyrrxiwsnbmkbqs.jpg,0,0,0.0,0,99,99,99,,,,,,,,,,,,,228.01719330000196,0.017193300001963507,None,267.3940416000005,267.3940416000005,267.3940416000005,267.3940416000005,267.3940416000005,267.3940416000005,267.3940416000005,267.3940416000005,267.3940416000005,267.3940416000005,,009,P013,2025_Feb_08_1555,ConditionRich,2021.2.3,59.945210078630765,
231.75,232.0,41,0.0,Stimuli/Blank.png,0,0,0.0,0,100,100,100,,,,,,,,,,,,,231.75396790000013,0.00396790000013425,None,271.13068080000085,271.13068080000085,271.13068080000085,271.13068080000085,271.13068080000085,271.13068080000085,271.13068080000085,271.13068080000085,271.13068080000085,271.13068080000085,,009,P013,2025_Feb_08_1555,ConditionRich,2021.2.3,59.945210078630765,
232.0,235.75,5,0.75,Stimuli/P013/sun_aidrxvbfhxtsusrf.jpg,0,0,0.0,0,101,101,101,,,,,,,,,,,,,232.00468960000217,0.004689600002166117,None,271.3808997999986,271.3808997999986,271.3808997999986,271.3808997999986,271.3808997999986,271.3808997999986,271.3808997999986,271.3808997999986,271.3808997999986,271.3808997999986,,009,P013,2025_Feb_08_1555,ConditionRich,2021.2.3,59.945210078630765,
235.75,236.0,41,0.0,Stimuli/Blank.png,0,0,0.0,0,102,102,102,,,,,,,,,,,,,235.75806280000324,0.008062800003244774,None,275.13422459999856,275.13422459999856,275.13422459999856,275.13422459999856,275.13422459999856,275.13422459999856,275.13422459999856,275.13422459999856,275.13422459999856,275.13422459999856,,009,P013,2025_Feb_08_1555,ConditionRich,2021.2.3,59.945210078630765,
236.0,239.75,14,0.75,Stimuli/P013/sun_bqhfterhwnqrbnzg.jpg,0,0,0.0,0,103,103,103,,,,,,,,,,,,,236.01004960000137,0.010049600001366343,None,275.40115389999846,275.40115389999846,275.40115389999846,275.40115389999846,275.40115389999846,275.40115389999846,275.40115389999846,275.40115389999846,275.40115389999846,275.40115389999846,,009,P013,2025_Feb_08_1555,ConditionRich,2021.2.3,59.945210078630765,
239.75,240.0,41,0.0,Stimuli/Blank.png,0,0,0.0,0,104,104,104,,,,,,,,,,,,,239.77744280000115,0.027442800001153955,None,279.1544391999996,279.1544391999996,279.1544391999996,279.1544391999996,279.1544391999996,279.1544391999996,279.1544391999996,279.1544391999996,279.1544391999996,279.1544391999996,,009,P013,2025_Feb_08_1555,ConditionRich,2021.2.3,59.945210078630765,
240.0,243.75,13,0.75,Stimuli/P013/sun_bpccpwpohfirajtf.jpg,0,0,0.0,0,105,105,105,,,,,,,,,,,,,240.01180000000022,0.011800000000221189,None,279.40465720000066,279.40465720000066,279.40465720000066,279.40465720000066,279.40465720000066,279.40465720000066,279.40465720000066,279.40465720000066,279.40465720000066,279.40465720000066,,009,P013,2025_Feb_08_1555,ConditionRich,2021.2.3,59.945210078630765,
243.75,244.0,41,0.0,Stimuli/Blank.png,0,0,0.0,0,106,106,106,,,,,,,,,,,,,243.78247920000285,0.03247920000285376,None,283.1579836000019,283.1579836000019,283.1579836000019,283.1579836000019,283.1579836000019,283.1579836000019,283.1579836000019,283.1579836000019,283.1579836000019,283.1579836000019,,009,P013,2025_Feb_08_1555,ConditionRich,2021.2.3,59.945210078630765,
244.0,247.75,17,0.75,Stimuli/P013/sun_bsguftphqnrkbedw.jpg,0,0,0.0,0,107,107,107,,,,,,,,,,,,,243.99811670000054,-0.0018832999994629063,None,283.3748298999999,283.3748298999999,283.3748298999999,283.3748298999999,283.3748298999999,283.3748298999999,283.3748298999999,283.3748298999999,283.3748298999999,283.3748298999999,,009,P013,2025_Feb_08_1555,ConditionRich,2021.2.3,59.945210078630765,
247.75,248.0,41,0.0,Stimuli/Blank.png,0,0,0.0,0,108,108,108,,,,,,,,,,,,,247.7511314000003,0.0011314000003039837,None,287.1281624000003,287.1281624000003,287.1281624000003,287.1281624000003,287.1281624000003,287.1281624000003,287.1281624000003,287.1281624000003,287.1281624000003,287.1281624000003,,009,P013,2025_Feb_08_1555,ConditionRich,2021.2.3,59.945210078630765,
248.0,251.75,36,0.75,Stimuli/P013/things_seafood_07s.jpg,0,0,0.0,0,109,109,109,,,,,,,,,,,,,248.00226230000044,0.0022623000004386995,None,287.39505759999884,287.39505759999884,287.39505759999884,287.39505759999884,287.39505759999884,287.39505759999884,287.39505759999884,287.39505759999884,287.39505759999884,287.39505759999884,,009,P013,2025_Feb_08_1555,ConditionRich,2021.2.3,59.945210078630765,
251.75,252.0,41,0.0,Stimuli/Blank.png,0,0,0.0,0,110,110,110,,,,,,,,,,,,,251.77266000000236,0.022660000002360903,None,291.14839180000126,291.14839180000126,291.14839180000126,291.14839180000126,291.14839180000126,291.14839180000126,291.14839180000126,291.14839180000126,291.14839180000126,291.14839180000126,,009,P013,2025_Feb_08_1555,ConditionRich,2021.2.3,59.945210078630765,
252.0,255.75,25,0.75,Stimuli/P013/things_cashew_07s.jpg,0,0,0.0,0,111,111,111,,,,,,,,,,,,,252.00729540000248,0.007295400002476526,None,291.3986307999985,291.3986307999985,291.3986307999985,291.3986307999985,291.3986307999985,291.3986307999985,291.3986307999985,291.3986307999985,291.3986307999985,291.3986307999985,,009,P013,2025_Feb_08_1555,ConditionRich,2021.2.3,59.945210078630765,
255.75,256.0,41,0.0,Stimuli/Blank.png,0,0,0.0,0,112,112,112,,,,,,,,,,,,,255.77495140000246,0.024951400002464652,None,295.1519283000016,295.1519283000016,295.1519283000016,295.1519283000016,295.1519283000016,295.1519283000016,295.1519283000016,295.1519283000016,295.1519283000016,295.1519283000016,,009,P013,2025_Feb_08_1555,ConditionRich,2021.2.3,59.945210078630765,
256.0,259.75,31,0.75,Stimuli/P013/things_mask_07s.jpg,1,1,1.75,0,113,113,113,,,,,,,,,,,,,256.0093134000017,0.009313400001701666,None,295.40215389999867,295.40215389999867,295.40215389999867,295.40215389999867,295.40215389999867,295.40215389999867,296.36970239999937,297.12037110000165,295.40215389999867,295.40215389999867,,009,P013,2025_Feb_08_1555,ConditionRich,2021.2.3,59.945210078630765,
259.75,260.0,41,0.0,Stimuli/Blank.png,0,0,0.0,0,114,114,114,,,,,,,,,,,,,259.7784215000029,0.02842150000287802,None,299.1554666000011,299.1554666000011,299.1554666000011,299.1554666000011,299.1554666000011,299.1554666000011,299.1554666000011,299.1554666000011,299.1554666000011,299.1554666000011,,009,P013,2025_Feb_08_1555,ConditionRich,2021.2.3,59.945210078630765,
260.0,263.75,8,0.75,Stimuli/P013/sun_auqrilekgmdmrncq.jpg,0,0,0.0,0,115,115,115,,,,,,,,,,,,,260.01264340000125,0.012643400001252303,None,299.40570220000154,299.40570220000154,299.40570220000154,299.40570220000154,299.40570220000154,299.40570220000154,299.40570220000154,299.40570220000154,299.40570220000154,299.40570220000154,,009,P013,2025_Feb_08_1555,ConditionRich,2021.2.3,59.945210078630765,
263.75,264.0,41,0.0,Stimuli/Blank.png,0,0,0.0,0,116,116,116,,,,,,,,,,,,,263.7674592000003,0.0174592000003031,None,303.1590193000011,303.1590193000011,303.1590193000011,303.1590193000011,303.1590193000011,303.1590193000011,303.1590193000011,303.1590193000011,303.1590193000011,303.1590193000011,,009,P013,2025_Feb_08_1555,ConditionRich,2021.2.3,59.945210078630765,
264.0,267.75,40,0.75,Stimuli/P013/things_woman_07s.jpg,0,0,0.0,0,117,117,117,,,,,,,,,,,,,264.0165607000017,0.016560700001718942,None,303.40925100000095,303.40925100000095,303.40925100000095,303.40925100000095,303.40925100000095,303.40925100000095,303.40925100000095,303.40925100000095,303.40925100000095,303.40925100000095,,009,P013,2025_Feb_08_1555,ConditionRich,2021.2.3,59.945210078630765,
267.75,268.0,41,0.0,Stimuli/Blank.png,0,0,0.0,0,118,118,118,,,,,,,,,,,,,267.76895680000234,0.01895680000234279,None,307.1458679999996,307.1458679999996,307.1458679999996,307.1458679999996,307.1458679999996,307.1458679999996,307.1458679999996,307.1458679999996,307.1458679999996,307.1458679999996,,009,P013,2025_Feb_08_1555,ConditionRich,2021.2.3,59.945210078630765,
268.0,271.75,6,0.75,Stimuli/P013/sun_aoejkkmwkfegacni.jpg,1,1,1.75,0,119,119,119,,,,,,,,,,,,,268.0025201000026,0.0025201000025845133,1,307.37942570000087,307.37942570000087,307.37942570000087,307.37942570000087,307.37942570000087,307.37942570000087,308.3636078999989,309.11426180000126,307.37942570000087,307.37942570000087,1.4107120000007853,009,P013,2025_Feb_08_1555,ConditionRich,2021.2.3,59.945210078630765,
271.75,272.0,41,0.0,Stimuli/Blank.png,0,0,0.0,0,120,120,120,,,,,,,,,,,,,271.75700900000083,0.007009000000834931,None,311.13273059999847,311.13273059999847,311.13273059999847,311.13273059999847,311.13273059999847,311.13273059999847,311.13273059999847,311.13273059999847,311.13273059999847,311.13273059999847,,009,P013,2025_Feb_08_1555,ConditionRich,2021.2.3,59.945210078630765,
272.0,275.75,21,0.75,Stimuli/P013/things_baby_07s.jpg,0,0,0.0,0,121,121,121,,,,,,,,,,,,,272.0068295000019,0.006829500001913402,None,311.3996324,311.3996324,311.3996324,311.3996324,311.3996324,311.3996324,311.3996324,311.3996324,311.3996324,311.3996324,,009,P013,2025_Feb_08_1555,ConditionRich,2021.2.3,59.945210078630765,
275.75,276.0,41,0.0,Stimuli/Blank.png,0,0,0.0,0,122,122,122,,,,,,,,,,,,,275.7768261000019,0.026826100001926534,None,315.1529506000006,315.1529506000006,315.1529506000006,315.1529506000006,315.1529506000006,315.1529506000006,315.1529506000006,315.1529506000006,315.1529506000006,315.1529506000006,,009,P013,2025_Feb_08_1555,ConditionRich,2021.2.3,59.945210078630765,
276.0,292.0,0,0.0,Stimuli/Blank.png,1,10,10.75,0,123,123,123,,,,,,,,,,,,,276.01047630000176,0.01047630000175559,1,315.38648749999993,315.38648749999993,315.38648749999993,315.38648749999993,315.38648749999993,315.38648749999993,325.3786605999994,326.12932250000085,315.38648749999993,315.38648749999993,10.34579870000016,009,P013,2025_Feb_08_1555,ConditionRich,2021.2.3,59.945210078630765,
292.0,295.75,18,0.75,Stimuli/P013/sun_btohwudpiusfvpvl.jpg,0,0,0.0,0,124,124,124,,,,,,,,,,,,,292.0071972000005,0.007197200000518933,None,331.3839650000009,331.3839650000009,331.3839650000009,331.3839650000009,331.3839650000009,331.3839650000009,331.3839650000009,331.3839650000009,331.3839650000009,331.3839650000009,,009,P013,2025_Feb_08_1555,ConditionRich,2021.2.3,59.945210078630765,
295.75,296.0,41,0.0,Stimuli/Blank.png,0,0,0.0,0,125,125,125,,,,,,,,,,,,,295.7633178000033,0.013317800003278535,None,335.15397160000066,335.15397160000066,335.15397160000066,335.15397160000066,335.15397160000066,335.15397160000066,335.15397160000066,335.15397160000066,335.15397160000066,335.15397160000066,,009,P013,2025_Feb_08_1555,ConditionRich,2021.2.3,59.945210078630765,
296.0,299.75,19,0.75,Stimuli/P013/sun_buphlelowxjnoygy.jpg,0,0,0.0,0,126,126,126,,,,,,,,,,,,,296.0278090000029,0.02780900000288966,None,335.4208131000014,335.4208131000014,335.4208131000014,335.4208131000014,335.4208131000014,335.4208131000014,335.4208131000014,335.4208131000014,335.4208131000014,335.4208131000014,,009,P013,2025_Feb_08_1555,ConditionRich,2021.2.3,59.945210078630765,
299.75,300.0,41,0.0,Stimuli/Blank.png,0,0,0.0,0,127,127,127,,,,,,,,,,,,,299.7826716000018,0.032671600001776824,None,339.17419660000087,339.17419660000087,339.17419660000087,339.17419660000087,339.17419660000087,339.17419660000087,339.17419660000087,339.17419660000087,339.17419660000087,339.17419660000087,,009,P013,2025_Feb_08_1555,ConditionRich,2021.2.3,59.945210078630765,
300.0,303.75,38,0.75,Stimuli/P013/things_spark_plug_07s.jpg,0,0,0.0,0,128,128,128,,,,,,,,,,,,,300.0143194000011,0.014319400001113536,None,339.3910490999988,339.3910490999988,339.3910490999988,339.3910490999988,339.3910490999988,339.3910490999988,339.3910490999988,339.3910490999988,339.3910490999988,339.3910490999988,,009,P013,2025_Feb_08_1555,ConditionRich,2021.2.3,59.945210078630765,
303.75,304.0,41,0.0,Stimuli/Blank.png,0,0,0.0,0,129,129,129,,,,,,,,,,,,,303.753729,0.0037290000000211876,None,343.1443967999985,343.1443967999985,343.1443967999985,343.1443967999985,343.1443967999985,343.1443967999985,343.1443967999985,343.1443967999985,343.1443967999985,343.1443967999985,,009,P013,2025_Feb_08_1555,ConditionRich,2021.2.3,59.945210078630765,
304.0,307.75,37,0.75,Stimuli/P013/things_slug_07s.jpg,0,0,0.0,0,130,130,130,,,,,,,,,,,,,304.0176767000012,0.01767670000117505,None,343.3945941999991,343.3945941999991,343.3945941999991,343.3945941999991,343.3945941999991,343.3945941999991,343.3945941999991,343.3945941999991,343.3945941999991,343.3945941999991,,009,P013,2025_Feb_08_1555,ConditionRich,2021.2.3,59.945210078630765,
307.75,308.0,41,0.0,Stimuli/Blank.png,0,0,0.0,0,131,131,131,,,,,,,,,,,,,307.7571876000002,0.007187600000179373,None,347.13122510000176,347.13122510000176,347.13122510000176,347.13122510000176,347.13122510000176,347.13122510000176,347.13122510000176,347.13122510000176,347.13122510000176,347.13122510000176,,009,P013,2025_Feb_08_1555,ConditionRich,2021.2.3,59.945210078630765,
308.0,311.75,27,0.75,Stimuli/P013/things_face_07s.jpg,1,1,1.75,0,132,132,132,,,,,,,,,,,,,308.0046234000001,0.004623400000127731,None,347.3814519000007,347.3814519000007,347.3814519000007,347.3814519000007,347.3814519000007,347.3814519000007,348.3657224999988,349.11631990000024,347.3814519000007,347.3814519000007,,009,P013,2025_Feb_08_1555,ConditionRich,2021.2.3,59.945210078630765,
311.75,312.0,41,0.0,Stimuli/Blank.png,0,0,0.0,0,133,133,133,,,,,,,,,,,,,311.75847870000143,0.008478700001433026,None,351.13477630000125,351.13477630000125,351.13477630000125,351.13477630000125,351.13477630000125,351.13477630000125,351.13477630000125,351.13477630000125,351.13477630000125,351.13477630000125,,009,P013,2025_Feb_08_1555,ConditionRich,2021.2.3,59.945210078630765,
312.0,315.75,7,0.75,Stimuli/P013/sun_aojplsluiikxrfxc.jpg,0,0,0.0,0,134,134,134,,,,,,,,,,,,,312.0085175000022,0.008517500002199085,None,351.4016881999996,351.4016881999996,351.4016881999996,351.4016881999996,351.4016881999996,351.4016881999996,351.4016881999996,351.4016881999996,351.4016881999996,351.4016881999996,,009,P013,2025_Feb_08_1555,ConditionRich,2021.2.3,59.945210078630765,
315.75,316.0,41,0.0,Stimuli/Blank.png,0,0,0.0,0,135,135,135,,,,,,,,,,,,,315.77881190000335,0.028811900003347546,None,355.15499289999934,355.15499289999934,355.15499289999934,355.15499289999934,355.15499289999934,355.15499289999934,355.15499289999934,355.15499289999934,355.15499289999934,355.15499289999934,,009,P013,2025_Feb_08_1555,ConditionRich,2021.2.3,59.945210078630765,
316.0,319.75,3,0.75,Stimuli/P013/sun_aengzsmykwchlrdn.jpg,0,0,0.0,0,136,136,136,,,,,,,,,,,,,316.01152170000205,0.011521700002049329,None,355.3885319000001,355.3885319000001,355.3885319000001,355.3885319000001,355.3885319000001,355.3885319000001,355.3885319000001,355.3885319000001,355.3885319000001,355.3885319000001,,009,P013,2025_Feb_08_1555,ConditionRich,2021.2.3,59.945210078630765,
319.75,320.0,41,0.0,Stimuli/Blank.png,0,0,0.0,0,137,137,137,,,,,,,,,,,,,319.76560750000135,0.015607500001351582,None,359.14186490000066,359.14186490000066,359.14186490000066,359.14186490000066,359.14186490000066,359.14186490000066,359.14186490000066,359.14186490000066,359.14186490000066,359.14186490000066,,009,P013,2025_Feb_08_1555,ConditionRich,2021.2.3,59.945210078630765,
320.0,323.75,9,0.75,Stimuli/P013/sun_bdgwqzttihopmpbf.jpg,0,0,0.0,0,138,138,138,,,,,,,,,,,,,319.999317400001,-0.0006825999989814591,None,359.3921001000017,359.3921001000017,359.3921001000017,359.3921001000017,359.3921001000017,359.3921001000017,359.3921001000017,359.3921001000017,359.3921001000017,359.3921001000017,,009,P013,2025_Feb_08_1555,ConditionRich,2021.2.3,59.945210078630765,
323.75,324.0,41,0.0,Stimuli/Blank.png,0,0,0.0,0,139,139,139,,,,,,,,,,,,,323.76920430000246,0.019204300002456876,None,363.1453934000019,363.1453934000019,363.1453934000019,363.1453934000019,363.1453934000019,363.1453934000019,363.1453934000019,363.1453934000019,363.1453934000019,363.1453934000019,,009,P013,2025_Feb_08_1555,ConditionRich,2021.2.3,59.945210078630765,
324.0,327.75,26,0.75,Stimuli/P013/things_cougar_07s.jpg,0,0,0.0,0,140,140,140,,,,,,,,,,,,,324.00275720000354,0.002757200003543403,None,363.39563980000094,363.39563980000094,363.39563980000094,363.39563980000094,363.39563980000094,363.39563980000094,363.39563980000094,363.39563980000094,363.39563980000094,363.39563980000094,,009,P013,2025_Feb_08_1555,ConditionRich,2021.2.3,59.945210078630765,
327.75,328.0,41,0.0,Stimuli/Blank.png,0,0,0.0,0,141,141,141,,,,,,,,,,,,,327.7727707000013,0.022770700001274236,None,367.14894659999845,367.14894659999845,367.14894659999845,367.14894659999845,367.14894659999845,367.14894659999845,367.14894659999845,367.14894659999845,367.14894659999845,367.14894659999845,,009,P013,2025_Feb_08_1555,ConditionRich,2021.2.3,59.945210078630765,
328.0,331.75,1,0.75,Stimuli/P013/sun_adkmgqclfrkhfxbd.jpg,0,0,0.0,0,142,142,142,,,,,,,,,,,,,328.0085457000023,0.008545700002287049,None,367.3991663000015,367.3991663000015,367.3991663000015,367.3991663000015,367.3991663000015,367.3991663000015,367.3991663000015,367.3991663000015,367.3991663000015,367.3991663000015,,009,P013,2025_Feb_08_1555,ConditionRich,2021.2.3,59.945210078630765,
331.75,332.0,41,0.0,Stimuli/Blank.png,0,0,0.0,0,143,143,143,,,,,,,,,,,,,331.77747320000344,0.02747320000344189,None,371.1691573999997,371.1691573999997,371.1691573999997,371.1691573999997,371.1691573999997,371.1691573999997,371.1691573999997,371.1691573999997,371.1691573999997,371.1691573999997,,009,P013,2025_Feb_08_1555,ConditionRich,2021.2.3,59.945210078630765,
332.0,335.75,20,0.75,Stimuli/P013/sun_cidodcxikcyrdglc.jpg,0,0,0.0,0,144,144,144,,,,,,,,,,,,,332.0263681000033,0.026368100003310246,None,371.4027137000012,371.4027137000012,371.4027137000012,371.4027137000012,371.4027137000012,371.4027137000012,371.4027137000012,371.4027137000012,371.4027137000012,371.4027137000012,,009,P013,2025_Feb_08_1555,ConditionRich,2021.2.3,59.945210078630765,
335.75,336.0,41,0.0,Stimuli/Blank.png,0,0,0.0,0,145,145,145,,,,,,,,,,,,,335.7630031000008,0.013003100000787526,None,375.1404455000011,375.1404455000011,375.1404455000011,375.1404455000011,375.1404455000011,375.1404455000011,375.1404455000011,375.1404455000011,375.1404455000011,375.1404455000011,,009,P013,2025_Feb_08_1555,ConditionRich,2021.2.3,59.945210078630765,
336.0,339.75,39,0.75,Stimuli/P013/things_violin_07n.jpg,0,0,0.0,0,146,146,146,,,,,,,,,,,,,336.01270510000177,0.012705100001767278,None,375.38954849999936,375.38954849999936,375.38954849999936,375.38954849999936,375.38954849999936,375.38954849999936,375.38954849999936,375.38954849999936,375.38954849999936,375.38954849999936,,009,P013,2025_Feb_08_1555,ConditionRich,2021.2.3,59.945210078630765,
339.75,340.0,41,0.0,Stimuli/Blank.png,0,0,0.0,0,147,147,147,,,,,,,,,,,,,339.74919600000067,-0.0008039999993343372,None,379.1261865000015,379.1261865000015,379.1261865000015,379.1261865000015,379.1261865000015,379.1261865000015,379.1261865000015,379.1261865000015,379.1261865000015,379.1261865000015,,009,P013,2025_Feb_08_1555,ConditionRich,2021.2.3,59.945210078630765,
340.0,343.75,28,0.75,Stimuli/P013/things_girl_07s.jpg,0,0,0.0,0,148,148,148,,,,,,,,,,,,,339.9994306000008,-0.0005693999992217869,None,379.37640979999924,379.37640979999924,379.37640979999924,379.37640979999924,379.37640979999924,379.37640979999924,379.37640979999924,379.37640979999924,379.37640979999924,379.37640979999924,,009,P013,2025_Feb_08_1555,ConditionRich,2021.2.3,59.945210078630765,
343.75,344.0,41,0.0,Stimuli/Blank.png,0,0,0.0,0,149,149,149,,,,,,,,,,,,,343.75286140000026,0.0028614000002562534,None,383.1297878000005,383.1297878000005,383.1297878000005,383.1297878000005,383.1297878000005,383.1297878000005,383.1297878000005,383.1297878000005,383.1297878000005,383.1297878000005,,009,P013,2025_Feb_08_1555,ConditionRich,2021.2.3,59.945210078630765,
344.0,347.75,16,0.75,Stimuli/P013/sun_bsgtkqjrnrvttrax.jpg,0,0,0.0,0,150,150,150,,,,,,,,,,,,,344.0031867000034,0.003186700003425358,None,383.3799528000018,383.3799528000018,383.3799528000018,383.3799528000018,383.3799528000018,383.3799528000018,383.3799528000018,383.3799528000018,383.3799528000018,383.3799528000018,,009,P013,2025_Feb_08_1555,ConditionRich,2021.2.3,59.945210078630765,
347.75,348.0,41,0.0,Stimuli/Blank.png,0,0,0.0,0,151,151,151,,,,,,,,,,,,,347.7570510000005,0.007051000000501517,None,387.13328080000065,387.13328080000065,387.13328080000065,387.13328080000065,387.13328080000065,387.13328080000065,387.13328080000065,387.13328080000065,387.13328080000065,387.13328080000065,,009,P013,2025_Feb_08_1555,ConditionRich,2021.2.3,59.945210078630765,
348.0,351.75,29,0.75,Stimuli/P013/things_iguana_07s.jpg,0,0,0.0,0,152,152,152,,,,,,,,,,,,,348.0072336000012,0.007233600001200102,None,387.4001719000007,387.4001719000007,387.4001719000007,387.4001719000007,387.4001719000007,387.4001719000007,387.4001719000007,387.4001719000007,387.4001719000007,387.4001719000007,,009,P013,2025_Feb_08_1555,ConditionRich,2021.2.3,59.945210078630765,
351.75,352.0,41,0.0,Stimuli/Blank.png,0,0,0.0,0,153,153,153,,,,,,,,,,,,,351.7776621000012,0.02766210000118008,None,391.1545111999985,391.1545111999985,391.1545111999985,391.1545111999985,391.1545111999985,391.1545111999985,391.1545111999985,391.1545111999985,391.1545111999985,391.1545111999985,,009,P013,2025_Feb_08_1555,ConditionRich,2021.2.3,59.945210078630765,
352.0,355.75,22,0.75,Stimuli/P013/things_banner_07s.jpg,0,0,0.0,0,154,154,154,,,,,,,,,,,,,352.012508900003,0.012508900003012968,None,391.4037242000013,391.4037242000013,391.4037242000013,391.4037242000013,391.4037242000013,391.4037242000013,391.4037242000013,391.4037242000013,391.4037242000013,391.4037242000013,,009,P013,2025_Feb_08_1555,ConditionRich,2021.2.3,59.945210078630765,
355.75,356.0,41,0.0,Stimuli/Blank.png,0,0,0.0,0,155,155,155,,,,,,,,,,,,,355.7633713000032,0.013371300003200304,None,395.1403667000013,395.1403667000013,395.1403667000013,395.1403667000013,395.1403667000013,395.1403667000013,395.1403667000013,395.1403667000013,395.1403667000013,395.1403667000013,,009,P013,2025_Feb_08_1555,ConditionRich,2021.2.3,59.945210078630765,
356.0,359.75,30,0.75,Stimuli/P013/things_man_07s.jpg,0,0,0.0,0,156,156,156,,,,,,,,,,,,,356.01405910000176,0.014059100001759361,None,395.39058300000033,395.39058300000033,395.39058300000033,395.39058300000033,395.39058300000033,395.39058300000033,395.39058300000033,395.39058300000033,395.39058300000033,395.39058300000033,,009,P013,2025_Feb_08_1555,ConditionRich,2021.2.3,59.945210078630765,
359.75,360.0,41,0.0,Stimuli/Blank.png,0,0,0.0,0,157,157,157,,,,,,,,,,,,,359.75299710000036,0.0029971000003570225,None,399.14390560000174,399.14390560000174,399.14390560000174,399.14390560000174,399.14390560000174,399.14390560000174,399.14390560000174,399.14390560000174,399.14390560000174,399.14390560000174,,009,P013,2025_Feb_08_1555,ConditionRich,2021.2.3,59.945210078630765,
360.0,363.75,10,0.75,Stimuli/P013/sun_bdhxnzyleoiflyak.jpg,1,3,3.75,0,158,158,158,,,,,,,,,,,,,360.01882280000063,0.018822800000634743,1,399.41139230000044,399.41139230000044,399.41139230000044,399.41139230000044,399.41139230000044,399.41139230000044,402.38014739999926,403.1308045000005,399.41139230000044,399.41139230000044,3.3886634999980743,009,P013,2025_Feb_08_1555,ConditionRich,2021.2.3,59.945210078630765,
363.75,364.0,41,0.0,Stimuli/Blank.png,0,0,0.0,0,159,159,159,,,,,,,,,,,,,363.77281100000255,0.0228110000025481,None,403.16412539999874,403.16412539999874,403.16412539999874,403.16412539999874,403.16412539999874,403.16412539999874,403.16412539999874,403.16412539999874,403.16412539999874,403.16412539999874,,009,P013,2025_Feb_08_1555,ConditionRich,2021.2.3,59.945210078630765,
364.0,367.75,35,0.75,Stimuli/P013/things_road_sign_07s.jpg,1,2,2.75,0,160,160,160,,,,,,,,,,,,,364.023677600002,0.023677600001974497,1,403.41437809999843,403.41437809999843,403.41437809999843,403.41437809999843,403.41437809999843,403.41437809999843,405.39944280000054,406.15008600000147,403.41437809999843,403.41437809999843,2.3436483000004955,009,P013,2025_Feb_08_1555,ConditionRich,2021.2.3,59.945210078630765,
367.75,368.0,41,0.0,Stimuli/Blank.png,0,0,0.0,0,161,161,161,,,,,,,,,,,,,367.77470900000117,0.024709000001166714,None,407.1509822000007,407.1509822000007,407.1509822000007,407.1509822000007,407.1509822000007,407.1509822000007,407.1509822000007,407.1509822000007,407.1509822000007,407.1509822000007,,009,P013,2025_Feb_08_1555,ConditionRich,2021.2.3,59.945210078630765,
368.0,371.75,2,0.75,Stimuli/P013/sun_adotnsaifoooswkf.jpg,1,3,3.75,0,162,162,162,,,,,,,,,,,,,368.0083603000021,0.008360300002095755,1,407.38452600000164,407.38452600000164,407.38452600000164,407.38452600000164,407.38452600000164,407.38452600000164,410.37049489999845,411.1211234000002,407.38452600000164,407.38452600000164,3.385592700000416,009,P013,2025_Feb_08_1555,ConditionRich,2021.2.3,59.945210078630765,
371.75,372.0,41,0.0,Stimuli/Blank.png,0,0,0.0,0,163,163,163,,,,,,,,,,,,,371.7630653000015,0.013065300001471769,None,411.1545236999991,411.1545236999991,411.1545236999991,411.1545236999991,411.1545236999991,411.1545236999991,411.1545236999991,411.1545236999991,411.1545236999991,411.1545236999991,,009,P013,2025_Feb_08_1555,ConditionRich,2021.2.3,59.945210078630765,
372.0,388.0,0,0.0,Stimuli/Blank.png,1,11,11.75,0,164,164,164,,,,,,,,,,,,,372.0279085000002,0.02790850000019418,1,411.4048103999994,411.4048103999994,411.4048103999994,411.4048103999994,411.4048103999994,411.4048103999994,422.38114960000166,423.1318081999998,411.4048103999994,411.4048103999994,11.42834419999781,009,P013,2025_Feb_08_1555,ConditionRich,2021.2.3,59.945210078630765,
