eventStartTime,eventEndTime,eventCond,imSize,imFile,responseEvent,fixRespStart,fixRespEnd,Events.thisRepN,Events.thisTrialN,Events.thisN,Events.thisIndex,Instructions.started,Instructions.stopped,participantReadyResponse.keys,participantReadyResponse.rt,participantReadyResponse.started,participantReadyResponse.stopped,startWaitforTrigger,triggerResponse.keys,triggerResponse.rt,triggerResponse.started,triggerResponse.stopped,globalTimer,actualStartTime,startTimingDiff,participantResponse.keys,participantResponse.started,participantResponse.stopped,image.started,image.stopped,fixationOutside.started,fixationOutside.stopped,fixationResponse.started,fixationResponse.stopped,fixationInside.started,fixationInside.stopped,participantResponse.rt,session,participant,date,expName,psychopyVersion,frameRate,
,,,,,,,,,,,,11.068573200001993,None,1,14.956344799997169,11.068573200001993,None,,,,,,,,,,,,,,,,,,,,,006,P013,2025_Feb_08_1526,ConditionRich,2021.2.3,59.93479094848485,
,,,,,,,,,,,,,,,,,,26.0415224999997,5,14.454113200001302,26.054748999998992,None,,,,,,,,,,,,,,,,006,P013,2025_Feb_08_1526,ConditionRich,2021.2.3,59.93479094848485,
0.0,4.0,0,0.0,Stimuli/Blank.png,0,0,0.0,0,0,0,0,,,,,,,,,,,,40.52083979999952,0.05103950000193436,0.05103950000193436,None,40.58412959999987,None,40.58412959999987,None,40.58412959999987,None,40.58412959999987,40.58412959999987,40.58412959999987,None,,006,P013,2025_Feb_08_1526,ConditionRich,2021.2.3,59.93479094848485,
4.0,7.75,21,0.75,Stimuli/P013/things_baby_07s.jpg,0,0,0.0,0,1,1,1,,,,,,,,,,,,,4.004554900002404,0.004554900002403883,None,44.55457390000083,44.55457390000083,44.55457390000083,44.55457390000083,44.55457390000083,44.55457390000083,44.55457390000083,44.55457390000083,44.55457390000083,44.55457390000083,,006,P013,2025_Feb_08_1526,ConditionRich,2021.2.3,59.93479094848485,
7.75,8.0,41,0.0,Stimuli/Blank.png,0,0,0.0,0,2,2,2,,,,,,,,,,,,,7.773440500001016,0.023440500001015607,None,48.30792350000047,48.30792350000047,48.30792350000047,48.30792350000047,48.30792350000047,48.30792350000047,48.30792350000047,48.30792350000047,48.30792350000047,48.30792350000047,,006,P013,2025_Feb_08_1526,ConditionRich,2021.2.3,59.93479094848485,
8.0,11.75,16,0.75,Stimuli/P013/sun_bsgtkqjrnrvttrax.jpg,0,0,0.0,0,3,3,3,,,,,,,,,,,,,8.005692999999155,0.00569299999915529,None,48.55785929999911,48.55785929999911,48.55785929999911,48.55785929999911,48.55785929999911,48.55785929999911,48.55785929999911,48.55785929999911,48.55785929999911,48.55785929999911,,006,P013,2025_Feb_08_1526,ConditionRich,2021.2.3,59.93479094848485,
11.75,12.0,41,0.0,Stimuli/Blank.png,0,0,0.0,0,4,4,4,,,,,,,,,,,,,11.777050400000007,0.027050400000007357,None,52.31118450000213,52.31118450000213,52.31118450000213,52.31118450000213,52.31118450000213,52.31118450000213,52.31118450000213,52.31118450000213,52.31118450000213,52.31118450000213,,006,P013,2025_Feb_08_1526,ConditionRich,2021.2.3,59.93479094848485,
12.0,15.75,18,0.75,Stimuli/P013/sun_btohwudpiusfvpvl.jpg,0,0,0.0,0,5,5,5,,,,,,,,,,,,,12.01085729999977,0.010857299999770476,None,52.54470230000152,52.54470230000152,52.54470230000152,52.54470230000152,52.54470230000152,52.54470230000152,52.54470230000152,52.54470230000152,52.54470230000152,52.54470230000152,,006,P013,2025_Feb_08_1526,ConditionRich,2021.2.3,59.93479094848485,
15.75,16.0,41,0.0,Stimuli/Blank.png,0,0,0.0,0,6,6,6,,,,,,,,,,,,,15.763288800000737,0.013288800000736956,None,56.2980361000009,56.2980361000009,56.2980361000009,56.2980361000009,56.2980361000009,56.2980361000009,56.2980361000009,56.2980361000009,56.2980361000009,56.2980361000009,,006,P013,2025_Feb_08_1526,ConditionRich,2021.2.3,59.93479094848485,
16.0,19.75,36,0.75,Stimuli/P013/things_seafood_07s.jpg,1,1,1.75,0,7,7,7,,,,,,,,,,,,,16.01296369999909,0.01296369999909075,1,56.54824210000152,56.54824210000152,56.54824210000152,56.54824210000152,56.54824210000152,56.54824210000152,57.532451400002174,58.28310839999904,56.54824210000152,56.54824210000152,1.5187753999998677,006,P013,2025_Feb_08_1526,ConditionRich,2021.2.3,59.93479094848485,
19.75,20.0,41,0.0,Stimuli/Blank.png,0,0,0.0,0,8,8,8,,,,,,,,,,,,,19.750242400001298,0.0002424000012979377,None,60.28488590000052,60.28488590000052,60.28488590000052,60.28488590000052,60.28488590000052,60.28488590000052,60.28488590000052,60.28488590000052,60.28488590000052,60.28488590000052,,006,P013,2025_Feb_08_1526,ConditionRich,2021.2.3,59.93479094848485,
20.0,23.75,12,0.75,Stimuli/P013/sun_bjyrrxiwsnbmkbqs.jpg,1,2,2.75,0,9,9,9,,,,,,,,,,,,,20.000326199999108,0.00032619999910821207,1,60.55178729999898,60.55178729999898,60.55178729999898,60.55178729999898,60.55178729999898,60.55178729999898,62.52019780000046,63.27089419999902,60.55178729999898,60.55178729999898,2.2943567000002076,006,P013,2025_Feb_08_1526,ConditionRich,2021.2.3,59.93479094848485,
23.75,24.0,41,0.0,Stimuli/Blank.png,0,0,0.0,0,10,10,10,,,,,,,,,,,,,23.770331800002168,0.020331800002168166,None,64.30509990000064,64.30509990000064,64.30509990000064,64.30509990000064,64.30509990000064,64.30509990000064,64.30509990000064,64.30509990000064,64.30509990000064,64.30509990000064,,006,P013,2025_Feb_08_1526,ConditionRich,2021.2.3,59.93479094848485,
24.0,27.75,11,0.75,Stimuli/P013/sun_bfyxzbjsvqsobbky.jpg,0,0,0.0,0,11,11,11,,,,,,,,,,,,,24.003479800001514,0.003479800001514377,None,64.53864429999885,64.53864429999885,64.53864429999885,64.53864429999885,64.53864429999885,64.53864429999885,64.53864429999885,64.53864429999885,64.53864429999885,64.53864429999885,,006,P013,2025_Feb_08_1526,ConditionRich,2021.2.3,59.93479094848485,
27.75,28.0,41,0.0,Stimuli/Blank.png,0,0,0.0,0,12,12,12,,,,,,,,,,,,,27.757782399999996,0.007782399999996414,None,68.29197910000221,68.29197910000221,68.29197910000221,68.29197910000221,68.29197910000221,68.29197910000221,68.29197910000221,68.29197910000221,68.29197910000221,68.29197910000221,,006,P013,2025_Feb_08_1526,ConditionRich,2021.2.3,59.93479094848485,
28.0,31.75,1,0.75,Stimuli/P013/sun_adkmgqclfrkhfxbd.jpg,0,0,0.0,0,13,13,13,,,,,,,,,,,,,28.006694899999275,0.006694899999274639,None,68.54218240000046,68.54218240000046,68.54218240000046,68.54218240000046,68.54218240000046,68.54218240000046,68.54218240000046,68.54218240000046,68.54218240000046,68.54218240000046,,006,P013,2025_Feb_08_1526,ConditionRich,2021.2.3,59.93479094848485,
31.75,32.0,41,0.0,Stimuli/Blank.png,0,0,0.0,0,14,14,14,,,,,,,,,,,,,31.759973000000173,0.00997300000017276,None,72.29551550000178,72.29551550000178,72.29551550000178,72.29551550000178,72.29551550000178,72.29551550000178,72.29551550000178,72.29551550000178,72.29551550000178,72.29551550000178,,006,P013,2025_Feb_08_1526,ConditionRich,2021.2.3,59.93479094848485,
32.0,35.75,2,0.75,Stimuli/P013/sun_adotnsaifoooswkf.jpg,0,0,0.0,0,15,15,15,,,,,,,,,,,,,32.01289530000213,0.012895300002128351,None,72.5624186999994,72.5624186999994,72.5624186999994,72.5624186999994,72.5624186999994,72.5624186999994,72.5624186999994,72.5624186999994,72.5624186999994,72.5624186999994,,006,P013,2025_Feb_08_1526,ConditionRich,2021.2.3,59.93479094848485,
35.75,36.0,41,0.0,Stimuli/Blank.png,0,0,0.0,0,16,16,16,,,,,,,,,,,,,35.764530899999954,0.014530899999954272,None,76.29902149999907,76.29902149999907,76.29902149999907,76.29902149999907,76.29902149999907,76.29902149999907,76.29902149999907,76.29902149999907,76.29902149999907,76.29902149999907,,006,P013,2025_Feb_08_1526,ConditionRich,2021.2.3,59.93479094848485,
36.0,39.75,23,0.75,Stimuli/P013/things_bug_07s.jpg,0,0,0.0,0,17,17,17,,,,,,,,,,,,,36.01386380000258,0.013863800002582138,None,76.54927139999927,76.54927139999927,76.54927139999927,76.54927139999927,76.54927139999927,76.54927139999927,76.54927139999927,76.54927139999927,76.54927139999927,76.54927139999927,,006,P013,2025_Feb_08_1526,ConditionRich,2021.2.3,59.93479094848485,
39.75,40.0,41,0.0,Stimuli/Blank.png,0,0,0.0,0,18,18,18,,,,,,,,,,,,,39.752652999999555,0.002652999999554595,None,80.30260220000127,80.30260220000127,80.30260220000127,80.30260220000127,80.30260220000127,80.30260220000127,80.30260220000127,80.30260220000127,80.30260220000127,80.30260220000127,,006,P013,2025_Feb_08_1526,ConditionRich,2021.2.3,59.93479094848485,
40.0,43.75,30,0.75,Stimuli/P013/things_man_07s.jpg,0,0,0.0,0,19,19,19,,,,,,,,,,,,,40.01753599999938,0.017535999999381602,None,80.55281269999978,80.55281269999978,80.55281269999978,80.55281269999978,80.55281269999978,80.55281269999978,80.55281269999978,80.55281269999978,80.55281269999978,80.55281269999978,,006,P013,2025_Feb_08_1526,ConditionRich,2021.2.3,59.93479094848485,
43.75,44.0,41,0.0,Stimuli/Blank.png,0,0,0.0,0,20,20,20,,,,,,,,,,,,,43.7548941999994,0.004894199999398552,None,84.28945450000174,84.28945450000174,84.28945450000174,84.28945450000174,84.28945450000174,84.28945450000174,84.28945450000174,84.28945450000174,84.28945450000174,84.28945450000174,,006,P013,2025_Feb_08_1526,ConditionRich,2021.2.3,59.93479094848485,
44.0,47.75,6,0.75,Stimuli/P013/sun_aoejkkmwkfegacni.jpg,1,3,3.75,0,21,21,21,,,,,,,,,,,,,44.00501090000034,0.005010900000343099,1,84.5396710999994,84.5396710999994,84.5396710999994,84.5396710999994,84.5396710999994,84.5396710999994,87.52564410000195,88.27633050000077,84.5396710999994,84.5396710999994,3.4694407999995747,006,P013,2025_Feb_08_1526,ConditionRich,2021.2.3,59.93479094848485,
47.75,48.0,41,0.0,Stimuli/Blank.png,0,0,0.0,0,22,22,22,,,,,,,,,,,,,47.758671600000525,0.008671600000525359,None,88.29299629999878,88.29299629999878,88.29299629999878,88.29299629999878,88.29299629999878,88.29299629999878,88.29299629999878,88.29299629999878,88.29299629999878,88.29299629999878,,006,P013,2025_Feb_08_1526,ConditionRich,2021.2.3,59.93479094848485,
48.0,51.75,13,0.75,Stimuli/P013/sun_bpccpwpohfirajtf.jpg,1,3,3.75,0,23,23,23,,,,,,,,,,,,,48.00805240000045,0.008052400000451598,1,88.54320910000024,88.54320910000024,88.54320910000024,88.54320910000024,88.54320910000024,88.54320910000024,91.5291771000011,92.27984379999907,88.54320910000024,88.54320910000024,3.4279707000023336,006,P013,2025_Feb_08_1526,ConditionRich,2021.2.3,59.93479094848485,
51.75,52.0,41,0.0,Stimuli/Blank.png,0,0,0.0,0,24,24,24,,,,,,,,,,,,,51.76324100000056,0.013241000000562053,None,92.31429170000047,92.31429170000047,92.31429170000047,92.31429170000047,92.31429170000047,92.31429170000047,92.31429170000047,92.31429170000047,92.31429170000047,92.31429170000047,,006,P013,2025_Feb_08_1526,ConditionRich,2021.2.3,59.93479094848485,
52.0,55.75,5,0.75,Stimuli/P013/sun_aidrxvbfhxtsusrf.jpg,0,0,0.0,0,25,25,25,,,,,,,,,,,,,52.028041500001564,0.02804150000156369,None,92.56343539999943,92.56343539999943,92.56343539999943,92.56343539999943,92.56343539999943,92.56343539999943,92.56343539999943,92.56343539999943,92.56343539999943,92.56343539999943,,006,P013,2025_Feb_08_1526,ConditionRich,2021.2.3,59.93479094848485,
55.75,56.0,41,0.0,Stimuli/Blank.png,0,0,0.0,0,26,26,26,,,,,,,,,,,,,55.76510260000214,0.015102600002137478,None,96.30007530000148,96.30007530000148,96.30007530000148,96.30007530000148,96.30007530000148,96.30007530000148,96.30007530000148,96.30007530000148,96.30007530000148,96.30007530000148,,006,P013,2025_Feb_08_1526,ConditionRich,2021.2.3,59.93479094848485,
56.0,59.75,20,0.75,Stimuli/P013/sun_cidodcxikcyrdglc.jpg,0,0,0.0,0,27,27,27,,,,,,,,,,,,,56.01483980000194,0.014839800001936965,None,96.56701199999952,96.56701199999952,96.56701199999952,96.56701199999952,96.56701199999952,96.56701199999952,96.56701199999952,96.56701199999952,96.56701199999952,96.56701199999952,,006,P013,2025_Feb_08_1526,ConditionRich,2021.2.3,59.93479094848485,
59.75,60.0,41,0.0,Stimuli/Blank.png,0,0,0.0,0,28,28,28,,,,,,,,,,,,,59.770058099999005,0.020058099999005208,None,100.30363289999877,100.30363289999877,100.30363289999877,100.30363289999877,100.30363289999877,100.30363289999877,100.30363289999877,100.30363289999877,100.30363289999877,100.30363289999877,,006,P013,2025_Feb_08_1526,ConditionRich,2021.2.3,59.93479094848485,
60.0,63.75,10,0.75,Stimuli/P013/sun_bdhxnzyleoiflyak.jpg,1,3,3.75,0,29,29,29,,,,,,,,,,,,,60.0021725000006,0.0021725000005972106,1,100.53715379999994,100.53715379999994,100.53715379999994,100.53715379999994,100.53715379999994,100.53715379999994,103.5231257000014,104.27379859999928,100.53715379999994,100.53715379999994,3.350828200000251,006,P013,2025_Feb_08_1526,ConditionRich,2021.2.3,59.93479094848485,
63.75,64.0,41,0.0,Stimuli/Blank.png,0,0,0.0,0,30,30,30,,,,,,,,,,,,,63.75511000000188,0.005110000001877779,None,104.29058580000128,104.29058580000128,104.29058580000128,104.29058580000128,104.29058580000128,104.29058580000128,104.29058580000128,104.29058580000128,104.29058580000128,104.29058580000128,,006,P013,2025_Feb_08_1526,ConditionRich,2021.2.3,59.93479094848485,
64.0,67.75,4,0.75,Stimuli/P013/sun_afgoiykvchxqotyz.jpg,0,0,0.0,0,31,31,31,,,,,,,,,,,,,64.00578470000255,0.00578470000255038,None,104.55737860000227,104.55737860000227,104.55737860000227,104.55737860000227,104.55737860000227,104.55737860000227,104.55737860000227,104.55737860000227,104.55737860000227,104.55737860000227,,006,P013,2025_Feb_08_1526,ConditionRich,2021.2.3,59.93479094848485,
67.75,68.0,41,0.0,Stimuli/Blank.png,0,0,0.0,0,32,32,32,,,,,,,,,,,,,67.77778319999925,0.02778319999924861,None,108.32737780000025,108.32737780000025,108.32737780000025,108.32737780000025,108.32737780000025,108.32737780000025,108.32737780000025,108.32737780000025,108.32737780000025,108.32737780000025,,006,P013,2025_Feb_08_1526,ConditionRich,2021.2.3,59.93479094848485,
68.0,71.75,35,0.75,Stimuli/P013/things_road_sign_07s.jpg,0,0,0.0,0,33,33,33,,,,,,,,,,,,,68.02541969999947,0.025419699999474688,None,108.57760319999943,108.57760319999943,108.57760319999943,108.57760319999943,108.57760319999943,108.57760319999943,108.57760319999943,108.57760319999943,108.57760319999943,108.57760319999943,,006,P013,2025_Feb_08_1526,ConditionRich,2021.2.3,59.93479094848485,
71.75,72.0,41,0.0,Stimuli/Blank.png,0,0,0.0,0,34,34,34,,,,,,,,,,,,,71.77946870000233,0.02946870000232593,None,112.3142317999991,112.3142317999991,112.3142317999991,112.3142317999991,112.3142317999991,112.3142317999991,112.3142317999991,112.3142317999991,112.3142317999991,112.3142317999991,,006,P013,2025_Feb_08_1526,ConditionRich,2021.2.3,59.93479094848485,
72.0,75.75,39,0.75,Stimuli/P013/things_violin_07n.jpg,0,0,0.0,0,35,35,35,,,,,,,,,,,,,72.01347689999966,0.013476899999659508,None,112.54777520000061,112.54777520000061,112.54777520000061,112.54777520000061,112.54777520000061,112.54777520000061,112.54777520000061,112.54777520000061,112.54777520000061,112.54777520000061,,006,P013,2025_Feb_08_1526,ConditionRich,2021.2.3,59.93479094848485,
75.75,76.0,41,0.0,Stimuli/Blank.png,0,0,0.0,0,36,36,36,,,,,,,,,,,,,75.74986490000083,-0.0001350999991700519,None,116.2844084999997,116.2844084999997,116.2844084999997,116.2844084999997,116.2844084999997,116.2844084999997,116.2844084999997,116.2844084999997,116.2844084999997,116.2844084999997,,006,P013,2025_Feb_08_1526,ConditionRich,2021.2.3,59.93479094848485,
76.0,79.75,22,0.75,Stimuli/P013/things_banner_07s.jpg,0,0,0.0,0,37,37,37,,,,,,,,,,,,,75.99993720000202,-6.27999979769811e-05,None,116.53459510000175,116.53459510000175,116.53459510000175,116.53459510000175,116.53459510000175,116.53459510000175,116.53459510000175,116.53459510000175,116.53459510000175,116.53459510000175,,006,P013,2025_Feb_08_1526,ConditionRich,2021.2.3,59.93479094848485,
79.75,80.0,41,0.0,Stimuli/Blank.png,0,0,0.0,0,38,38,38,,,,,,,,,,,,,79.75333540000065,0.003335400000651134,None,120.28795140000148,120.28795140000148,120.28795140000148,120.28795140000148,120.28795140000148,120.28795140000148,120.28795140000148,120.28795140000148,120.28795140000148,120.28795140000148,,006,P013,2025_Feb_08_1526,ConditionRich,2021.2.3,59.93479094848485,
80.0,83.75,14,0.75,Stimuli/P013/sun_bqhfterhwnqrbnzg.jpg,0,0,0.0,0,39,39,39,,,,,,,,,,,,,80.00264360000074,0.0026436000007379334,None,120.53816350000125,120.53816350000125,120.53816350000125,120.53816350000125,120.53816350000125,120.53816350000125,120.53816350000125,120.53816350000125,120.53816350000125,120.53816350000125,,006,P013,2025_Feb_08_1526,ConditionRich,2021.2.3,59.93479094848485,
83.75,84.0,41,0.0,Stimuli/Blank.png,0,0,0.0,0,40,40,40,,,,,,,,,,,,,83.7588848000014,0.008884800001396798,None,124.30818170000202,124.30818170000202,124.30818170000202,124.30818170000202,124.30818170000202,124.30818170000202,124.30818170000202,124.30818170000202,124.30818170000202,124.30818170000202,,006,P013,2025_Feb_08_1526,ConditionRich,2021.2.3,59.93479094848485,
84.0,100.0,0,0.0,Stimuli/Blank.png,1,12,12.75,0,41,41,41,,,,,,,,,,,,,84.02354449999984,0.023544499999843538,1,124.55839019999985,124.55839019999985,124.55839019999985,124.55839019999985,124.55839019999985,124.55839019999985,136.53568749999977,137.28628690000187,124.55839019999985,124.55839019999985,12.340593699998863,006,P013,2025_Feb_08_1526,ConditionRich,2021.2.3,59.93479094848485,
100.0,103.75,17,0.75,Stimuli/P013/sun_bsguftphqnrkbedw.jpg,0,0,0.0,0,42,42,42,,,,,,,,,,,,,100.00450170000113,0.0045017000011284836,None,140.53919980000137,140.53919980000137,140.53919980000137,140.53919980000137,140.53919980000137,140.53919980000137,140.53919980000137,140.53919980000137,140.53919980000137,140.53919980000137,,006,P013,2025_Feb_08_1526,ConditionRich,2021.2.3,59.93479094848485,
103.75,104.0,41,0.0,Stimuli/Blank.png,0,0,0.0,0,43,43,43,,,,,,,,,,,,,103.75787130000026,0.007871300000260817,None,144.2925166999994,144.2925166999994,144.2925166999994,144.2925166999994,144.2925166999994,144.2925166999994,144.2925166999994,144.2925166999994,144.2925166999994,144.2925166999994,,006,P013,2025_Feb_08_1526,ConditionRich,2021.2.3,59.93479094848485,
104.0,107.75,19,0.75,Stimuli/P013/sun_buphlelowxjnoygy.jpg,0,0,0.0,0,44,44,44,,,,,,,,,,,,,104.00725629999943,0.007256299999426119,None,144.54273209999883,144.54273209999883,144.54273209999883,144.54273209999883,144.54273209999883,144.54273209999883,144.54273209999883,144.54273209999883,144.54273209999883,144.54273209999883,,006,P013,2025_Feb_08_1526,ConditionRich,2021.2.3,59.93479094848485,
107.75,108.0,41,0.0,Stimuli/Blank.png,0,0,0.0,0,45,45,45,,,,,,,,,,,,,107.76283909999984,0.012839099999837345,None,148.31273290000172,148.31273290000172,148.31273290000172,148.31273290000172,148.31273290000172,148.31273290000172,148.31273290000172,148.31273290000172,148.31273290000172,148.31273290000172,,006,P013,2025_Feb_08_1526,ConditionRich,2021.2.3,59.93479094848485,
108.0,111.75,27,0.75,Stimuli/P013/things_face_07s.jpg,0,0,0.0,0,46,46,46,,,,,,,,,,,,,108.02873790000012,0.028737900000123773,None,148.56296750000183,148.56296750000183,148.56296750000183,148.56296750000183,148.56296750000183,148.56296750000183,148.56296750000183,148.56296750000183,148.56296750000183,148.56296750000183,,006,P013,2025_Feb_08_1526,ConditionRich,2021.2.3,59.93479094848485,
111.75,112.0,41,0.0,Stimuli/Blank.png,0,0,0.0,0,47,47,47,,,,,,,,,,,,,111.764119200001,0.014119200001005083,None,152.29956970000057,152.29956970000057,152.29956970000057,152.29956970000057,152.29956970000057,152.29956970000057,152.29956970000057,152.29956970000057,152.29956970000057,152.29956970000057,,006,P013,2025_Feb_08_1526,ConditionRich,2021.2.3,59.93479094848485,
112.0,115.75,9,0.75,Stimuli/P013/sun_bdgwqzttihopmpbf.jpg,0,0,0.0,0,48,48,48,,,,,,,,,,,,,112.01436860000103,0.014368600001034793,None,152.56651119999879,152.56651119999879,152.56651119999879,152.56651119999879,152.56651119999879,152.56651119999879,152.56651119999879,152.56651119999879,152.56651119999879,152.56651119999879,,006,P013,2025_Feb_08_1526,ConditionRich,2021.2.3,59.93479094848485,
115.75,116.0,41,0.0,Stimuli/Blank.png,0,0,0.0,0,49,49,49,,,,,,,,,,,,,115.76832289999948,0.01832289999947534,None,156.3031415000005,156.3031415000005,156.3031415000005,156.3031415000005,156.3031415000005,156.3031415000005,156.3031415000005,156.3031415000005,156.3031415000005,156.3031415000005,,006,P013,2025_Feb_08_1526,ConditionRich,2021.2.3,59.93479094848485,
116.0,119.75,38,0.75,Stimuli/P013/things_spark_plug_07s.jpg,0,0,0.0,0,50,50,50,,,,,,,,,,,,,116.00323030000072,0.0032303000007232185,None,156.55338050000137,156.55338050000137,156.55338050000137,156.55338050000137,156.55338050000137,156.55338050000137,156.55338050000137,156.55338050000137,156.55338050000137,156.55338050000137,,006,P013,2025_Feb_08_1526,ConditionRich,2021.2.3,59.93479094848485,
119.75,120.0,41,0.0,Stimuli/Blank.png,0,0,0.0,0,51,51,51,,,,,,,,,,,,,119.77396560000125,0.023965600001247367,None,160.32336740000028,160.32336740000028,160.32336740000028,160.32336740000028,160.32336740000028,160.32336740000028,160.32336740000028,160.32336740000028,160.32336740000028,160.32336740000028,,006,P013,2025_Feb_08_1526,ConditionRich,2021.2.3,59.93479094848485,
120.0,123.75,31,0.75,Stimuli/P013/things_mask_07s.jpg,1,1,1.75,0,52,52,52,,,,,,,,,,,,,120.02157340000122,0.021573400001216214,1,160.5568991,160.5568991,160.5568991,160.5568991,160.5568991,160.5568991,161.54114010000194,162.30852040000173,160.5568991,160.5568991,1.7382139000001189,006,P013,2025_Feb_08_1526,ConditionRich,2021.2.3,59.93479094848485,
123.75,124.0,41,0.0,Stimuli/Blank.png,0,0,0.0,0,53,53,53,,,,,,,,,,,,,123.75823690000107,0.008236900001065806,None,164.2935338999996,164.2935338999996,164.2935338999996,164.2935338999996,164.2935338999996,164.2935338999996,164.2935338999996,164.2935338999996,164.2935338999996,164.2935338999996,,006,P013,2025_Feb_08_1526,ConditionRich,2021.2.3,59.93479094848485,
124.0,127.75,33,0.75,Stimuli/P013/things_piglet_07s.jpg,0,0,0.0,0,54,54,54,,,,,,,,,,,,,124.00825389999954,0.008253899999544956,None,164.5437579999998,164.5437579999998,164.5437579999998,164.5437579999998,164.5437579999998,164.5437579999998,164.5437579999998,164.5437579999998,164.5437579999998,164.5437579999998,,006,P013,2025_Feb_08_1526,ConditionRich,2021.2.3,59.93479094848485,
127.75,128.0,41,0.0,Stimuli/Blank.png,0,0,0.0,0,55,55,55,,,,,,,,,,,,,127.76275820000228,0.012758200002281228,None,168.2971006000007,168.2971006000007,168.2971006000007,168.2971006000007,168.2971006000007,168.2971006000007,168.2971006000007,168.2971006000007,168.2971006000007,168.2971006000007,,006,P013,2025_Feb_08_1526,ConditionRich,2021.2.3,59.93479094848485,
128.0,131.75,7,0.75,Stimuli/P013/sun_aojplsluiikxrfxc.jpg,0,0,0.0,0,56,56,56,,,,,,,,,,,,,128.01192720000108,0.011927200001082383,None,168.54730009999912,168.54730009999912,168.54730009999912,168.54730009999912,168.54730009999912,168.54730009999912,168.54730009999912,168.54730009999912,168.54730009999912,168.54730009999912,,006,P013,2025_Feb_08_1526,ConditionRich,2021.2.3,59.93479094848485,
131.75,132.0,41,0.0,Stimuli/Blank.png,0,0,0.0,0,57,57,57,,,,,,,,,,,,,131.7660410000026,0.01604100000258768,None,172.30076960000224,172.30076960000224,172.30076960000224,172.30076960000224,172.30076960000224,172.30076960000224,172.30076960000224,172.30076960000224,172.30076960000224,172.30076960000224,,006,P013,2025_Feb_08_1526,ConditionRich,2021.2.3,59.93479094848485,
132.0,135.75,15,0.75,Stimuli/P013/sun_brezwczwwllviogu.jpg,0,0,0.0,0,58,58,58,,,,,,,,,,,,,131.99940060000154,-0.0005993999984639231,None,172.535240600002,172.535240600002,172.535240600002,172.535240600002,172.535240600002,172.535240600002,172.535240600002,172.535240600002,172.535240600002,172.535240600002,,006,P013,2025_Feb_08_1526,ConditionRich,2021.2.3,59.93479094848485,
135.75,136.0,41,0.0,Stimuli/Blank.png,0,0,0.0,0,59,59,59,,,,,,,,,,,,,135.75227730000188,0.002277300001878757,None,176.28747199999998,176.28747199999998,176.28747199999998,176.28747199999998,176.28747199999998,176.28747199999998,176.28747199999998,176.28747199999998,176.28747199999998,176.28747199999998,,006,P013,2025_Feb_08_1526,ConditionRich,2021.2.3,59.93479094848485,
136.0,139.75,25,0.75,Stimuli/P013/things_cashew_07s.jpg,0,0,0.0,0,60,60,60,,,,,,,,,,,,,136.002693800001,0.002693800000997726,None,176.53769060000195,176.53769060000195,176.53769060000195,176.53769060000195,176.53769060000195,176.53769060000195,176.53769060000195,176.53769060000195,176.53769060000195,176.53769060000195,,006,P013,2025_Feb_08_1526,ConditionRich,2021.2.3,59.93479094848485,
139.75,140.0,41,0.0,Stimuli/Blank.png,0,0,0.0,0,61,61,61,,,,,,,,,,,,,139.75772230000075,0.0077223000007506926,None,180.30802550000226,180.30802550000226,180.30802550000226,180.30802550000226,180.30802550000226,180.30802550000226,180.30802550000226,180.30802550000226,180.30802550000226,180.30802550000226,,006,P013,2025_Feb_08_1526,ConditionRich,2021.2.3,59.93479094848485,
140.0,143.75,26,0.75,Stimuli/P013/things_cougar_07s.jpg,0,0,0.0,0,62,62,62,,,,,,,,,,,,,140.0232673999999,0.023267399999895133,None,180.5579026000014,180.5579026000014,180.5579026000014,180.5579026000014,180.5579026000014,180.5579026000014,180.5579026000014,180.5579026000014,180.5579026000014,180.5579026000014,,006,P013,2025_Feb_08_1526,ConditionRich,2021.2.3,59.93479094848485,
143.75,144.0,41,0.0,Stimuli/Blank.png,0,0,0.0,0,63,63,63,,,,,,,,,,,,,143.75910769999973,0.009107699999731267,None,184.29455790000065,184.29455790000065,184.29455790000065,184.29455790000065,184.29455790000065,184.29455790000065,184.29455790000065,184.29455790000065,184.29455790000065,184.29455790000065,,006,P013,2025_Feb_08_1526,ConditionRich,2021.2.3,59.93479094848485,
144.0,147.75,40,0.75,Stimuli/P013/things_woman_07s.jpg,0,0,0.0,0,64,64,64,,,,,,,,,,,,,144.0097964000015,0.00979640000150539,None,184.54478799999924,184.54478799999924,184.54478799999924,184.54478799999924,184.54478799999924,184.54478799999924,184.54478799999924,184.54478799999924,184.54478799999924,184.54478799999924,,006,P013,2025_Feb_08_1526,ConditionRich,2021.2.3,59.93479094848485,
147.75,148.0,41,0.0,Stimuli/Blank.png,0,0,0.0,0,65,65,65,,,,,,,,,,,,,147.76373740000054,0.013737400000536582,None,188.29810580000049,188.29810580000049,188.29810580000049,188.29810580000049,188.29810580000049,188.29810580000049,188.29810580000049,188.29810580000049,188.29810580000049,188.29810580000049,,006,P013,2025_Feb_08_1526,ConditionRich,2021.2.3,59.93479094848485,
148.0,151.75,8,0.75,Stimuli/P013/sun_auqrilekgmdmrncq.jpg,0,0,0.0,0,66,66,66,,,,,,,,,,,,,148.01289370000086,0.012893700000859099,None,188.54831980000017,188.54831980000017,188.54831980000017,188.54831980000017,188.54831980000017,188.54831980000017,188.54831980000017,188.54831980000017,188.54831980000017,188.54831980000017,,006,P013,2025_Feb_08_1526,ConditionRich,2021.2.3,59.93479094848485,
151.75,152.0,41,0.0,Stimuli/Blank.png,0,0,0.0,0,67,67,67,,,,,,,,,,,,,151.75039240000115,0.0003924000011465978,None,192.284975999999,192.284975999999,192.284975999999,192.284975999999,192.284975999999,192.284975999999,192.284975999999,192.284975999999,192.284975999999,192.284975999999,,006,P013,2025_Feb_08_1526,ConditionRich,2021.2.3,59.93479094848485,
152.0,155.75,24,0.75,Stimuli/P013/things_bungee_07s.jpg,0,0,0.0,0,68,68,68,,,,,,,,,,,,,152.00053480000133,0.0005348000013327692,None,192.53514429999996,192.53514429999996,192.53514429999996,192.53514429999996,192.53514429999996,192.53514429999996,192.53514429999996,192.53514429999996,192.53514429999996,192.53514429999996,,006,P013,2025_Feb_08_1526,ConditionRich,2021.2.3,59.93479094848485,
155.75,156.0,41,0.0,Stimuli/Blank.png,0,0,0.0,0,69,69,69,,,,,,,,,,,,,155.75472490000175,0.004724900001747301,None,196.28851959999884,196.28851959999884,196.28851959999884,196.28851959999884,196.28851959999884,196.28851959999884,196.28851959999884,196.28851959999884,196.28851959999884,196.28851959999884,,006,P013,2025_Feb_08_1526,ConditionRich,2021.2.3,59.93479094848485,
156.0,159.75,28,0.75,Stimuli/P013/things_girl_07s.jpg,1,3,3.75,0,70,70,70,,,,,,,,,,,,,156.00344360000236,0.0034436000023561064,1,196.5387222999998,196.5387222999998,196.5387222999998,196.5387222999998,196.5387222999998,196.5387222999998,199.52473760000066,200.27540080000108,196.5387222999998,196.5387222999998,3.4134847999994236,006,P013,2025_Feb_08_1526,ConditionRich,2021.2.3,59.93479094848485,
159.75,160.0,41,0.0,Stimuli/Blank.png,0,0,0.0,0,71,71,71,,,,,,,,,,,,,159.75749120000182,0.007491200001823017,None,200.29204839999875,200.29204839999875,200.29204839999875,200.29204839999875,200.29204839999875,200.29204839999875,200.29204839999875,200.29204839999875,200.29204839999875,200.29204839999875,,006,P013,2025_Feb_08_1526,ConditionRich,2021.2.3,59.93479094848485,
160.0,163.75,29,0.75,Stimuli/P013/things_iguana_07s.jpg,0,0,0.0,0,72,72,72,,,,,,,,,,,,,160.00817319999987,0.00817319999987376,None,200.55896289999873,200.55896289999873,200.55896289999873,200.55896289999873,200.55896289999873,200.55896289999873,200.55896289999873,200.55896289999873,200.55896289999873,200.55896289999873,,006,P013,2025_Feb_08_1526,ConditionRich,2021.2.3,59.93479094848485,
163.75,164.0,41,0.0,Stimuli/Blank.png,0,0,0.0,0,73,73,73,,,,,,,,,,,,,163.7783156000005,0.028315600000496488,None,204.31227330000183,204.31227330000183,204.31227330000183,204.31227330000183,204.31227330000183,204.31227330000183,204.31227330000183,204.31227330000183,204.31227330000183,204.31227330000183,,006,P013,2025_Feb_08_1526,ConditionRich,2021.2.3,59.93479094848485,
164.0,167.75,3,0.75,Stimuli/P013/sun_aengzsmykwchlrdn.jpg,0,0,0.0,0,74,74,74,,,,,,,,,,,,,164.01161259999935,0.011612599999352824,None,204.56248490000144,204.56248490000144,204.56248490000144,204.56248490000144,204.56248490000144,204.56248490000144,204.56248490000144,204.56248490000144,204.56248490000144,204.56248490000144,,006,P013,2025_Feb_08_1526,ConditionRich,2021.2.3,59.93479094848485,
167.75,168.0,41,0.0,Stimuli/Blank.png,0,0,0.0,0,75,75,75,,,,,,,,,,,,,167.78033300000243,0.03033300000242889,None,208.31582290000006,208.31582290000006,208.31582290000006,208.31582290000006,208.31582290000006,208.31582290000006,208.31582290000006,208.31582290000006,208.31582290000006,208.31582290000006,,006,P013,2025_Feb_08_1526,ConditionRich,2021.2.3,59.93479094848485,
168.0,171.75,37,0.75,Stimuli/P013/things_slug_07s.jpg,1,1,1.75,0,76,76,76,,,,,,,,,,,,,168.01944419999927,0.019444199999270495,1,208.56618900000103,208.56618900000103,208.56618900000103,208.56618900000103,208.56618900000103,208.56618900000103,209.550266000002,210.30089040000166,208.56618900000103,208.56618900000103,1.4619004999985918,006,P013,2025_Feb_08_1526,ConditionRich,2021.2.3,59.93479094848485,
171.75,172.0,41,0.0,Stimuli/Blank.png,0,0,0.0,0,77,77,77,,,,,,,,,,,,,171.76756179999938,0.017561799999384675,None,212.30266240000128,212.30266240000128,212.30266240000128,212.30266240000128,212.30266240000128,212.30266240000128,212.30266240000128,212.30266240000128,212.30266240000128,212.30266240000128,,006,P013,2025_Feb_08_1526,ConditionRich,2021.2.3,59.93479094848485,
172.0,175.75,34,0.75,Stimuli/P013/things_radio_07s.jpg,1,3,3.75,0,78,78,78,,,,,,,,,,,,,172.0033024000004,0.0033024000003933907,None,212.55288970000038,212.55288970000038,212.55288970000038,212.55288970000038,212.55288970000038,212.55288970000038,215.53884720000133,216.2902099999992,212.55288970000038,212.55288970000038,,006,P013,2025_Feb_08_1526,ConditionRich,2021.2.3,59.93479094848485,
175.75,176.0,41,0.0,Stimuli/Blank.png,0,0,0.0,0,79,79,79,,,,,,,,,,,,,175.77294099999926,0.022940999999264022,1,216.30621729999984,216.30621729999984,216.30621729999984,216.30621729999984,216.30621729999984,216.30621729999984,216.30621729999984,216.30621729999984,216.30621729999984,216.30621729999984,0.021202399999310728,006,P013,2025_Feb_08_1526,ConditionRich,2021.2.3,59.93479094848485,
176.0,179.75,32,0.75,Stimuli/P013/things_mistletoe_07s.jpg,1,3,3.75,0,80,80,80,,,,,,,,,,,,,176.00541030000022,0.0054103000002214685,1,216.55643119999877,216.55643119999877,216.55643119999877,216.55643119999877,216.55643119999877,216.55643119999877,219.52579120000155,220.27642220000052,216.55643119999877,216.55643119999877,3.493663600002037,006,P013,2025_Feb_08_1526,ConditionRich,2021.2.3,59.93479094848485,
179.75,180.0,41,0.0,Stimuli/Blank.png,0,0,0.0,0,81,81,81,,,,,,,,,,,,,179.77443649999987,0.02443649999986519,None,220.3097415000011,220.3097415000011,220.3097415000011,220.3097415000011,220.3097415000011,220.3097415000011,220.3097415000011,220.3097415000011,220.3097415000011,220.3097415000011,,006,P013,2025_Feb_08_1526,ConditionRich,2021.2.3,59.93479094848485,
180.0,196.0,0,0.0,Stimuli/Blank.png,1,2,2.75,0,82,82,82,,,,,,,,,,,,,180.00846250000177,0.008462500001769513,1,220.54327090000152,220.54327090000152,220.54327090000152,220.54327090000152,220.54327090000152,220.54327090000152,222.5283890999999,223.2790387999994,220.54327090000152,220.54327090000152,2.531829100000323,006,P013,2025_Feb_08_1526,ConditionRich,2021.2.3,59.93479094848485,
196.0,199.75,1,0.75,Stimuli/P013/sun_adkmgqclfrkhfxbd.jpg,0,0,0.0,0,83,83,83,,,,,,,,,,,,,196.00541950000115,0.00541950000115321,None,236.55745920000118,236.55745920000118,236.55745920000118,236.55745920000118,236.55745920000118,236.55745920000118,236.55745920000118,236.55745920000118,236.55745920000118,236.55745920000118,,006,P013,2025_Feb_08_1526,ConditionRich,2021.2.3,59.93479094848485,
199.75,200.0,41,0.0,Stimuli/Blank.png,0,0,0.0,0,84,84,84,,,,,,,,,,,,,199.77844209999967,0.028442099999665515,None,240.32749690000128,240.32749690000128,240.32749690000128,240.32749690000128,240.32749690000128,240.32749690000128,240.32749690000128,240.32749690000128,240.32749690000128,240.32749690000128,,006,P013,2025_Feb_08_1526,ConditionRich,2021.2.3,59.93479094848485,
200.0,203.75,7,0.75,Stimuli/P013/sun_aojplsluiikxrfxc.jpg,0,0,0.0,0,85,85,85,,,,,,,,,,,,,200.02624040000228,0.026240400002279785,None,240.5776810999996,240.5776810999996,240.5776810999996,240.5776810999996,240.5776810999996,240.5776810999996,240.5776810999996,240.5776810999996,240.5776810999996,240.5776810999996,,006,P013,2025_Feb_08_1526,ConditionRich,2021.2.3,59.93479094848485,
203.75,204.0,41,0.0,Stimuli/Blank.png,0,0,0.0,0,86,86,86,,,,,,,,,,,,,203.77885190000234,0.02885190000233706,None,244.31431259999954,244.31431259999954,244.31431259999954,244.31431259999954,244.31431259999954,244.31431259999954,244.31431259999954,244.31431259999954,244.31431259999954,244.31431259999954,,006,P013,2025_Feb_08_1526,ConditionRich,2021.2.3,59.93479094848485,
204.0,207.75,14,0.75,Stimuli/P013/sun_bqhfterhwnqrbnzg.jpg,0,0,0.0,0,87,87,87,,,,,,,,,,,,,204.01348890000008,0.013488900000083959,None,244.54784180000206,244.54784180000206,244.54784180000206,244.54784180000206,244.54784180000206,244.54784180000206,244.54784180000206,244.54784180000206,244.54784180000206,244.54784180000206,,006,P013,2025_Feb_08_1526,ConditionRich,2021.2.3,59.93479094848485,
207.75,208.0,41,0.0,Stimuli/Blank.png,0,0,0.0,0,88,88,88,,,,,,,,,,,,,207.74926060000143,-0.0007393999985652044,None,248.28453079999963,248.28453079999963,248.28453079999963,248.28453079999963,248.28453079999963,248.28453079999963,248.28453079999963,248.28453079999963,248.28453079999963,248.28453079999963,,006,P013,2025_Feb_08_1526,ConditionRich,2021.2.3,59.93479094848485,
208.0,211.75,8,0.75,Stimuli/P013/sun_auqrilekgmdmrncq.jpg,0,0,0.0,0,89,89,89,,,,,,,,,,,,,207.99998050000067,-1.9499999325489625e-05,None,248.5346970999999,248.5346970999999,248.5346970999999,248.5346970999999,248.5346970999999,248.5346970999999,248.5346970999999,248.5346970999999,248.5346970999999,248.5346970999999,,006,P013,2025_Feb_08_1526,ConditionRich,2021.2.3,59.93479094848485,
211.75,212.0,41,0.0,Stimuli/Blank.png,0,0,0.0,0,90,90,90,,,,,,,,,,,,,211.75381420000122,0.003814200001215795,None,252.28802759999962,252.28802759999962,252.28802759999962,252.28802759999962,252.28802759999962,252.28802759999962,252.28802759999962,252.28802759999962,252.28802759999962,252.28802759999962,,006,P013,2025_Feb_08_1526,ConditionRich,2021.2.3,59.93479094848485,
212.0,215.75,19,0.75,Stimuli/P013/sun_buphlelowxjnoygy.jpg,0,0,0.0,0,91,91,91,,,,,,,,,,,,,212.00287440000102,0.0028744000010192394,None,252.5382454999999,252.5382454999999,252.5382454999999,252.5382454999999,252.5382454999999,252.5382454999999,252.5382454999999,252.5382454999999,252.5382454999999,252.5382454999999,,006,P013,2025_Feb_08_1526,ConditionRich,2021.2.3,59.93479094848485,
215.75,216.0,41,0.0,Stimuli/Blank.png,0,0,0.0,0,92,92,92,,,,,,,,,,,,,215.75810880000063,0.008108800000627525,None,256.30825710000136,256.30825710000136,256.30825710000136,256.30825710000136,256.30825710000136,256.30825710000136,256.30825710000136,256.30825710000136,256.30825710000136,256.30825710000136,,006,P013,2025_Feb_08_1526,ConditionRich,2021.2.3,59.93479094848485,
216.0,219.75,17,0.75,Stimuli/P013/sun_bsguftphqnrkbedw.jpg,0,0,0.0,0,93,93,93,,,,,,,,,,,,,216.0241919,0.024191900000005262,None,256.5751741999993,256.5751741999993,256.5751741999993,256.5751741999993,256.5751741999993,256.5751741999993,256.5751741999993,256.5751741999993,256.5751741999993,256.5751741999993,,006,P013,2025_Feb_08_1526,ConditionRich,2021.2.3,59.93479094848485,
219.75,220.0,41,0.0,Stimuli/Blank.png,0,0,0.0,0,94,94,94,,,,,,,,,,,,,219.7790535000022,0.029053500002191868,None,260.32848039999953,260.32848039999953,260.32848039999953,260.32848039999953,260.32848039999953,260.32848039999953,260.32848039999953,260.32848039999953,260.32848039999953,260.32848039999953,,006,P013,2025_Feb_08_1526,ConditionRich,2021.2.3,59.93479094848485,
220.0,223.75,28,0.75,Stimuli/P013/things_girl_07s.jpg,0,0,0.0,0,95,95,95,,,,,,,,,,,,,220.02756510000108,0.02756510000108392,None,260.5620205000014,260.5620205000014,260.5620205000014,260.5620205000014,260.5620205000014,260.5620205000014,260.5620205000014,260.5620205000014,260.5620205000014,260.5620205000014,,006,P013,2025_Feb_08_1526,ConditionRich,2021.2.3,59.93479094848485,
223.75,224.0,41,0.0,Stimuli/Blank.png,0,0,0.0,0,96,96,96,,,,,,,,,,,,,223.76330520000192,0.013305200001923367,None,264.29865319999953,264.29865319999953,264.29865319999953,264.29865319999953,264.29865319999953,264.29865319999953,264.29865319999953,264.29865319999953,264.29865319999953,264.29865319999953,,006,P013,2025_Feb_08_1526,ConditionRich,2021.2.3,59.93479094848485,
224.0,227.75,9,0.75,Stimuli/P013/sun_bdgwqzttihopmpbf.jpg,1,1,1.75,0,97,97,97,,,,,,,,,,,,,224.01349810000102,0.0134981000010157,1,264.5488824000022,264.5488824000022,264.5488824000022,264.5488824000022,264.5488824000022,264.5488824000022,265.53306969999903,266.28373700000157,264.5488824000022,264.5488824000022,1.4065510999971593,006,P013,2025_Feb_08_1526,ConditionRich,2021.2.3,59.93479094848485,
227.75,228.0,41,0.0,Stimuli/Blank.png,0,0,0.0,0,98,98,98,,,,,,,,,,,,,227.75305650000155,0.0030565000015485566,None,268.30221750000055,268.30221750000055,268.30221750000055,268.30221750000055,268.30221750000055,268.30221750000055,268.30221750000055,268.30221750000055,268.30221750000055,268.30221750000055,,006,P013,2025_Feb_08_1526,ConditionRich,2021.2.3,59.93479094848485,
228.0,231.75,31,0.75,Stimuli/P013/things_mask_07s.jpg,0,0,0.0,0,99,99,99,,,,,,,,,,,,,228.0179379000001,0.01793790000010631,None,268.5523781000011,268.5523781000011,268.5523781000011,268.5523781000011,268.5523781000011,268.5523781000011,268.5523781000011,268.5523781000011,268.5523781000011,268.5523781000011,,006,P013,2025_Feb_08_1526,ConditionRich,2021.2.3,59.93479094848485,
231.75,232.0,41,0.0,Stimuli/Blank.png,0,0,0.0,0,100,100,100,,,,,,,,,,,,,231.75359220000246,0.003592200002458412,None,272.28904799999873,272.28904799999873,272.28904799999873,272.28904799999873,272.28904799999873,272.28904799999873,272.28904799999873,272.28904799999873,272.28904799999873,272.28904799999873,,006,P013,2025_Feb_08_1526,ConditionRich,2021.2.3,59.93479094848485,
232.0,235.75,18,0.75,Stimuli/P013/sun_btohwudpiusfvpvl.jpg,0,0,0.0,0,101,101,101,,,,,,,,,,,,,232.00384029999987,0.0038402999998652376,None,272.5392700000011,272.5392700000011,272.5392700000011,272.5392700000011,272.5392700000011,272.5392700000011,272.5392700000011,272.5392700000011,272.5392700000011,272.5392700000011,,006,P013,2025_Feb_08_1526,ConditionRich,2021.2.3,59.93479094848485,
235.75,236.0,41,0.0,Stimuli/Blank.png,0,0,0.0,0,102,102,102,,,,,,,,,,,,,235.7583188000026,0.008318800002598437,None,276.2925987000017,276.2925987000017,276.2925987000017,276.2925987000017,276.2925987000017,276.2925987000017,276.2925987000017,276.2925987000017,276.2925987000017,276.2925987000017,,006,P013,2025_Feb_08_1526,ConditionRich,2021.2.3,59.93479094848485,
236.0,239.75,20,0.75,Stimuli/P013/sun_cidodcxikcyrdglc.jpg,0,0,0.0,0,103,103,103,,,,,,,,,,,,,236.0082868999998,0.0082868999998027,None,276.54281170000104,276.54281170000104,276.54281170000104,276.54281170000104,276.54281170000104,276.54281170000104,276.54281170000104,276.54281170000104,276.54281170000104,276.54281170000104,,006,P013,2025_Feb_08_1526,ConditionRich,2021.2.3,59.93479094848485,
239.75,240.0,41,0.0,Stimuli/Blank.png,0,0,0.0,0,104,104,104,,,,,,,,,,,,,239.76220880000255,0.012208800002554199,None,280.29615790000025,280.29615790000025,280.29615790000025,280.29615790000025,280.29615790000025,280.29615790000025,280.29615790000025,280.29615790000025,280.29615790000025,280.29615790000025,,006,P013,2025_Feb_08_1526,ConditionRich,2021.2.3,59.93479094848485,
240.0,243.75,21,0.75,Stimuli/P013/things_baby_07s.jpg,1,2,2.75,0,105,105,105,,,,,,,,,,,,,240.01312970000072,0.013129700000718003,1,280.5630339999989,280.5630339999989,280.5630339999989,280.5630339999989,280.5630339999989,280.5630339999989,282.5481299000021,283.2988241999992,280.5630339999989,280.5630339999989,2.3623693000008643,006,P013,2025_Feb_08_1526,ConditionRich,2021.2.3,59.93479094848485,
243.75,244.0,41,0.0,Stimuli/Blank.png,0,0,0.0,0,106,106,106,,,,,,,,,,,,,243.7652240999996,0.015224099999613827,None,284.3007249000002,284.3007249000002,284.3007249000002,284.3007249000002,284.3007249000002,284.3007249000002,284.3007249000002,284.3007249000002,284.3007249000002,284.3007249000002,,006,P013,2025_Feb_08_1526,ConditionRich,2021.2.3,59.93479094848485,
244.0,247.75,37,0.75,Stimuli/P013/things_slug_07s.jpg,0,0,0.0,0,107,107,107,,,,,,,,,,,,,244.0144650000002,0.014465000000200234,None,284.5665998000004,284.5665998000004,284.5665998000004,284.5665998000004,284.5665998000004,284.5665998000004,284.5665998000004,284.5665998000004,284.5665998000004,284.5665998000004,,006,P013,2025_Feb_08_1526,ConditionRich,2021.2.3,59.93479094848485,
247.75,248.0,41,0.0,Stimuli/Blank.png,0,0,0.0,0,108,108,108,,,,,,,,,,,,,247.76911610000025,0.01911610000024666,None,288.30321209999966,288.30321209999966,288.30321209999966,288.30321209999966,288.30321209999966,288.30321209999966,288.30321209999966,288.30321209999966,288.30321209999966,288.30321209999966,,006,P013,2025_Feb_08_1526,ConditionRich,2021.2.3,59.93479094848485,
248.0,251.75,13,0.75,Stimuli/P013/sun_bpccpwpohfirajtf.jpg,0,0,0.0,0,109,109,109,,,,,,,,,,,,,248.00353929999983,0.0035392999998293817,None,288.55344550000154,288.55344550000154,288.55344550000154,288.55344550000154,288.55344550000154,288.55344550000154,288.55344550000154,288.55344550000154,288.55344550000154,288.55344550000154,,006,P013,2025_Feb_08_1526,ConditionRich,2021.2.3,59.93479094848485,
251.75,252.0,41,0.0,Stimuli/Blank.png,0,0,0.0,0,110,110,110,,,,,,,,,,,,,251.7742787999996,0.024278799999592593,None,292.32345369999894,292.32345369999894,292.32345369999894,292.32345369999894,292.32345369999894,292.32345369999894,292.32345369999894,292.32345369999894,292.32345369999894,292.32345369999894,,006,P013,2025_Feb_08_1526,ConditionRich,2021.2.3,59.93479094848485,
252.0,255.75,10,0.75,Stimuli/P013/sun_bdhxnzyleoiflyak.jpg,1,1,1.75,0,111,111,111,,,,,,,,,,,,,252.02355460000035,0.023554600000352366,None,292.57366120000006,292.57366120000006,292.57366120000006,292.57366120000006,292.57366120000006,292.57366120000006,293.5578576000007,294.30854009999894,292.57366120000006,292.57366120000006,,006,P013,2025_Feb_08_1526,ConditionRich,2021.2.3,59.93479094848485,
255.75,256.0,41,0.0,Stimuli/Blank.png,0,0,0.0,0,112,112,112,,,,,,,,,,,,,255.77490840000246,0.02490840000245953,None,296.310295700001,296.310295700001,296.310295700001,296.310295700001,296.310295700001,296.310295700001,296.310295700001,296.310295700001,296.310295700001,296.310295700001,,006,P013,2025_Feb_08_1526,ConditionRich,2021.2.3,59.93479094848485,
256.0,259.75,27,0.75,Stimuli/P013/things_face_07s.jpg,1,2,2.75,0,113,113,113,,,,,,,,,,,,,256.00836940000227,0.008369400002266048,1,296.5438319999994,296.5438319999994,296.5438319999994,296.5438319999994,296.5438319999994,296.5438319999994,298.5289183999994,299.27972170000066,296.5438319999994,296.5438319999994,2.375686899998982,006,P013,2025_Feb_08_1526,ConditionRich,2021.2.3,59.93479094848485,
259.75,260.0,41,0.0,Stimuli/Blank.png,0,0,0.0,0,114,114,114,,,,,,,,,,,,,259.7625915999997,0.012591599999723257,None,300.2971577999997,300.2971577999997,300.2971577999997,300.2971577999997,300.2971577999997,300.2971577999997,300.2971577999997,300.2971577999997,300.2971577999997,300.2971577999997,,006,P013,2025_Feb_08_1526,ConditionRich,2021.2.3,59.93479094848485,
260.0,263.75,33,0.75,Stimuli/P013/things_piglet_07s.jpg,0,0,0.0,0,115,115,115,,,,,,,,,,,,,260.01273729999957,0.012737299999571405,None,300.5640572000011,300.5640572000011,300.5640572000011,300.5640572000011,300.5640572000011,300.5640572000011,300.5640572000011,300.5640572000011,300.5640572000011,300.5640572000011,,006,P013,2025_Feb_08_1526,ConditionRich,2021.2.3,59.93479094848485,
263.75,264.0,41,0.0,Stimuli/Blank.png,0,0,0.0,0,116,116,116,,,,,,,,,,,,,263.76631930000076,0.01631930000075954,None,304.30070460000206,304.30070460000206,304.30070460000206,304.30070460000206,304.30070460000206,304.30070460000206,304.30070460000206,304.30070460000206,304.30070460000206,304.30070460000206,,006,P013,2025_Feb_08_1526,ConditionRich,2021.2.3,59.93479094848485,
264.0,267.75,16,0.75,Stimuli/P013/sun_bsgtkqjrnrvttrax.jpg,0,0,0.0,0,117,117,117,,,,,,,,,,,,,263.9989095000019,-0.0010904999980994035,None,304.5342266000007,304.5342266000007,304.5342266000007,304.5342266000007,304.5342266000007,304.5342266000007,304.5342266000007,304.5342266000007,304.5342266000007,304.5342266000007,,006,P013,2025_Feb_08_1526,ConditionRich,2021.2.3,59.93479094848485,
267.75,268.0,41,0.0,Stimuli/Blank.png,0,0,0.0,0,118,118,118,,,,,,,,,,,,,267.7520527000015,0.0020527000015135854,None,308.2875602999993,308.2875602999993,308.2875602999993,308.2875602999993,308.2875602999993,308.2875602999993,308.2875602999993,308.2875602999993,308.2875602999993,308.2875602999993,,006,P013,2025_Feb_08_1526,ConditionRich,2021.2.3,59.93479094848485,
268.0,271.75,6,0.75,Stimuli/P013/sun_aoejkkmwkfegacni.jpg,1,0,0.75,0,119,119,119,,,,,,,,,,,,,268.00230569999985,0.0023056999998516403,1,308.5377761000018,308.5377761000018,308.5377761000018,308.5377761000018,308.5377761000018,308.5377761000018,308.5377761000018,309.2717913000015,308.5377761000018,308.5377761000018,1.6324268000025768,006,P013,2025_Feb_08_1526,ConditionRich,2021.2.3,59.93479094848485,
271.75,272.0,41,0.0,Stimuli/Blank.png,0,0,0.0,0,120,120,120,,,,,,,,,,,,,271.75564940000186,0.00564940000185743,None,312.29116480000084,312.29116480000084,312.29116480000084,312.29116480000084,312.29116480000084,312.29116480000084,312.29116480000084,312.29116480000084,312.29116480000084,312.29116480000084,,006,P013,2025_Feb_08_1526,ConditionRich,2021.2.3,59.93479094848485,
272.0,275.75,25,0.75,Stimuli/P013/things_cashew_07s.jpg,0,0,0.0,0,121,121,121,,,,,,,,,,,,,272.0088770000002,0.00887700000021141,None,312.55801620000057,312.55801620000057,312.55801620000057,312.55801620000057,312.55801620000057,312.55801620000057,312.55801620000057,312.55801620000057,312.55801620000057,312.55801620000057,,006,P013,2025_Feb_08_1526,ConditionRich,2021.2.3,59.93479094848485,
275.75,276.0,41,0.0,Stimuli/Blank.png,0,0,0.0,0,122,122,122,,,,,,,,,,,,,275.77837700000237,0.028377000002365094,None,316.3280095000009,316.3280095000009,316.3280095000009,316.3280095000009,316.3280095000009,316.3280095000009,316.3280095000009,316.3280095000009,316.3280095000009,316.3280095000009,,006,P013,2025_Feb_08_1526,ConditionRich,2021.2.3,59.93479094848485,
276.0,292.0,0,0.0,Stimuli/Blank.png,1,8,8.75,0,123,123,123,,,,,,,,,,,,,276.0267851000026,0.026785100002598483,1,316.5615500999993,316.5615500999993,316.5615500999993,316.5615500999993,316.5615500999993,316.5615500999993,324.55196760000035,325.30259619999924,316.5615500999993,316.5615500999993,8.516618000001472,006,P013,2025_Feb_08_1526,ConditionRich,2021.2.3,59.93479094848485,
292.0,295.75,3,0.75,Stimuli/P013/sun_aengzsmykwchlrdn.jpg,0,0,0.0,0,124,124,124,,,,,,,,,,,,,292.00868360000095,0.00868360000094981,None,332.5590594000023,332.5590594000023,332.5590594000023,332.5590594000023,332.5590594000023,332.5590594000023,332.5590594000023,332.5590594000023,332.5590594000023,332.5590594000023,,006,P013,2025_Feb_08_1526,ConditionRich,2021.2.3,59.93479094848485,
295.75,296.0,41,0.0,Stimuli/Blank.png,0,0,0.0,0,125,125,125,,,,,,,,,,,,,295.7785944000025,0.028594400002475595,None,336.3133631000019,336.3133631000019,336.3133631000019,336.3133631000019,336.3133631000019,336.3133631000019,336.3133631000019,336.3133631000019,336.3133631000019,336.3133631000019,,006,P013,2025_Feb_08_1526,ConditionRich,2021.2.3,59.93479094848485,
296.0,299.75,2,0.75,Stimuli/P013/sun_adotnsaifoooswkf.jpg,0,0,0.0,0,126,126,126,,,,,,,,,,,,,296.0129402999992,0.012940299999172566,None,336.56258140000136,336.56258140000136,336.56258140000136,336.56258140000136,336.56258140000136,336.56258140000136,336.56258140000136,336.56258140000136,336.56258140000136,336.56258140000136,,006,P013,2025_Feb_08_1526,ConditionRich,2021.2.3,59.93479094848485,
299.75,300.0,41,0.0,Stimuli/Blank.png,0,0,0.0,0,127,127,127,,,,,,,,,,,,,299.76483120000194,0.01483120000193594,None,340.2992013000003,340.2992013000003,340.2992013000003,340.2992013000003,340.2992013000003,340.2992013000003,340.2992013000003,340.2992013000003,340.2992013000003,340.2992013000003,,006,P013,2025_Feb_08_1526,ConditionRich,2021.2.3,59.93479094848485,
300.0,303.75,38,0.75,Stimuli/P013/things_spark_plug_07s.jpg,0,0,0.0,0,128,128,128,,,,,,,,,,,,,300.0146910000003,0.01469100000031176,None,340.5494327000015,340.5494327000015,340.5494327000015,340.5494327000015,340.5494327000015,340.5494327000015,340.5494327000015,340.5494327000015,340.5494327000015,340.5494327000015,,006,P013,2025_Feb_08_1526,ConditionRich,2021.2.3,59.93479094848485,
303.75,304.0,41,0.0,Stimuli/Blank.png,0,0,0.0,0,129,129,129,,,,,,,,,,,,,303.7513222000016,0.0013222000015957747,None,344.2860830999998,344.2860830999998,344.2860830999998,344.2860830999998,344.2860830999998,344.2860830999998,344.2860830999998,344.2860830999998,344.2860830999998,344.2860830999998,,006,P013,2025_Feb_08_1526,ConditionRich,2021.2.3,59.93479094848485,
304.0,307.75,36,0.75,Stimuli/P013/things_seafood_07s.jpg,0,0,0.0,0,130,130,130,,,,,,,,,,,,,304.00226079999993,0.002260799999930896,None,344.55296259999886,344.55296259999886,344.55296259999886,344.55296259999886,344.55296259999886,344.55296259999886,344.55296259999886,344.55296259999886,344.55296259999886,344.55296259999886,,006,P013,2025_Feb_08_1526,ConditionRich,2021.2.3,59.93479094848485,
307.75,308.0,41,0.0,Stimuli/Blank.png,0,0,0.0,0,131,131,131,,,,,,,,,,,,,307.7721072000022,0.022107200002210448,None,348.30629279999994,348.30629279999994,348.30629279999994,348.30629279999994,348.30629279999994,348.30629279999994,348.30629279999994,348.30629279999994,348.30629279999994,348.30629279999994,,006,P013,2025_Feb_08_1526,ConditionRich,2021.2.3,59.93479094848485,
308.0,311.75,32,0.75,Stimuli/P013/things_mistletoe_07s.jpg,0,0,0.0,0,132,132,132,,,,,,,,,,,,,308.0044830000006,0.004483000000618631,None,348.53982290000204,348.53982290000204,348.53982290000204,348.53982290000204,348.53982290000204,348.53982290000204,348.53982290000204,348.53982290000204,348.53982290000204,348.53982290000204,,006,P013,2025_Feb_08_1526,ConditionRich,2021.2.3,59.93479094848485,
311.75,312.0,41,0.0,Stimuli/Blank.png,0,0,0.0,0,133,133,133,,,,,,,,,,,,,311.75834699999905,0.008346999999048421,None,352.293153300001,352.293153300001,352.293153300001,352.293153300001,352.293153300001,352.293153300001,352.293153300001,352.293153300001,352.293153300001,352.293153300001,,006,P013,2025_Feb_08_1526,ConditionRich,2021.2.3,59.93479094848485,
312.0,315.75,34,0.75,Stimuli/P013/things_radio_07s.jpg,1,2,2.75,0,134,134,134,,,,,,,,,,,,,312.008020199999,0.008020199999009492,1,352.5433637999995,352.5433637999995,352.5433637999995,352.5433637999995,352.5433637999995,352.5433637999995,354.5287093000006,355.2790838000001,352.5433637999995,352.5433637999995,2.4748507000003883,006,P013,2025_Feb_08_1526,ConditionRich,2021.2.3,59.93479094848485,
315.75,316.0,41,0.0,Stimuli/Blank.png,0,0,0.0,0,135,135,135,,,,,,,,,,,,,315.7614070000018,0.011407000001781853,None,356.2966751000022,356.2966751000022,356.2966751000022,356.2966751000022,356.2966751000022,356.2966751000022,356.2966751000022,356.2966751000022,356.2966751000022,356.2966751000022,,006,P013,2025_Feb_08_1526,ConditionRich,2021.2.3,59.93479094848485,
316.0,319.75,23,0.75,Stimuli/P013/things_bug_07s.jpg,0,0,0.0,0,136,136,136,,,,,,,,,,,,,316.01242510000156,0.012425100001564715,None,356.5635924999988,356.5635924999988,356.5635924999988,356.5635924999988,356.5635924999988,356.5635924999988,356.5635924999988,356.5635924999988,356.5635924999988,356.5635924999988,,006,P013,2025_Feb_08_1526,ConditionRich,2021.2.3,59.93479094848485,
319.75,320.0,41,0.0,Stimuli/Blank.png,0,0,0.0,0,137,137,137,,,,,,,,,,,,,319.76486730000033,0.014867300000332762,None,360.3002177999988,360.3002177999988,360.3002177999988,360.3002177999988,360.3002177999988,360.3002177999988,360.3002177999988,360.3002177999988,360.3002177999988,360.3002177999988,,006,P013,2025_Feb_08_1526,ConditionRich,2021.2.3,59.93479094848485,
320.0,323.75,11,0.75,Stimuli/P013/sun_bfyxzbjsvqsobbky.jpg,1,0,0.75,0,138,138,138,,,,,,,,,,,,,320.0150078000006,0.01500780000060331,1,360.55045130000144,360.55045130000144,360.55045130000144,360.55045130000144,360.55045130000144,360.55045130000144,360.55045130000144,361.2844256999997,360.55045130000144,360.55045130000144,0.7799666000028083,006,P013,2025_Feb_08_1526,ConditionRich,2021.2.3,59.93479094848485,
323.75,324.0,41,0.0,Stimuli/Blank.png,0,0,0.0,0,139,139,139,,,,,,,,,,,,,323.7526930999993,0.0026930999993055593,None,364.2870867999991,364.2870867999991,364.2870867999991,364.2870867999991,364.2870867999991,364.2870867999991,364.2870867999991,364.2870867999991,364.2870867999991,364.2870867999991,,006,P013,2025_Feb_08_1526,ConditionRich,2021.2.3,59.93479094848485,
324.0,327.75,15,0.75,Stimuli/P013/sun_brezwczwwllviogu.jpg,0,0,0.0,0,140,140,140,,,,,,,,,,,,,324.0039921000025,0.003992100002506049,None,364.5539953000007,364.5539953000007,364.5539953000007,364.5539953000007,364.5539953000007,364.5539953000007,364.5539953000007,364.5539953000007,364.5539953000007,364.5539953000007,,006,P013,2025_Feb_08_1526,ConditionRich,2021.2.3,59.93479094848485,
327.75,328.0,41,0.0,Stimuli/Blank.png,0,0,0.0,0,141,141,141,,,,,,,,,,,,,327.77399530000184,0.023995300001843134,None,368.3239930999989,368.3239930999989,368.3239930999989,368.3239930999989,368.3239930999989,368.3239930999989,368.3239930999989,368.3239930999989,368.3239930999989,368.3239930999989,,006,P013,2025_Feb_08_1526,ConditionRich,2021.2.3,59.93479094848485,
328.0,331.75,29,0.75,Stimuli/P013/things_iguana_07s.jpg,0,0,0.0,0,142,142,142,,,,,,,,,,,,,328.0234870000022,0.023487000002205605,None,368.57417910000004,368.57417910000004,368.57417910000004,368.57417910000004,368.57417910000004,368.57417910000004,368.57417910000004,368.57417910000004,368.57417910000004,368.57417910000004,,006,P013,2025_Feb_08_1526,ConditionRich,2021.2.3,59.93479094848485,
331.75,332.0,41,0.0,Stimuli/Blank.png,0,0,0.0,0,143,143,143,,,,,,,,,,,,,331.7759862999992,0.025986299999203766,None,372.31084460000056,372.31084460000056,372.31084460000056,372.31084460000056,372.31084460000056,372.31084460000056,372.31084460000056,372.31084460000056,372.31084460000056,372.31084460000056,,006,P013,2025_Feb_08_1526,ConditionRich,2021.2.3,59.93479094848485,
332.0,335.75,40,0.75,Stimuli/P013/things_woman_07s.jpg,0,0,0.0,0,144,144,144,,,,,,,,,,,,,332.00950530000046,0.009505300000455463,None,372.54440180000165,372.54440180000165,372.54440180000165,372.54440180000165,372.54440180000165,372.54440180000165,372.54440180000165,372.54440180000165,372.54440180000165,372.54440180000165,,006,P013,2025_Feb_08_1526,ConditionRich,2021.2.3,59.93479094848485,
335.75,336.0,41,0.0,Stimuli/Blank.png,0,0,0.0,0,145,145,145,,,,,,,,,,,,,335.76283890000195,0.012838900001952425,None,376.29774650000036,376.29774650000036,376.29774650000036,376.29774650000036,376.29774650000036,376.29774650000036,376.29774650000036,376.29774650000036,376.29774650000036,376.29774650000036,,006,P013,2025_Feb_08_1526,ConditionRich,2021.2.3,59.93479094848485,
336.0,339.75,4,0.75,Stimuli/P013/sun_afgoiykvchxqotyz.jpg,0,0,0.0,0,146,146,146,,,,,,,,,,,,,336.01270619999923,0.012706199999229284,None,376.5479524000002,376.5479524000002,376.5479524000002,376.5479524000002,376.5479524000002,376.5479524000002,376.5479524000002,376.5479524000002,376.5479524000002,376.5479524000002,,006,P013,2025_Feb_08_1526,ConditionRich,2021.2.3,59.93479094848485,
339.75,340.0,41,0.0,Stimuli/Blank.png,0,0,0.0,0,147,147,147,,,,,,,,,,,,,339.75054720000117,0.000547200001165038,None,380.2845707000015,380.2845707000015,380.2845707000015,380.2845707000015,380.2845707000015,380.2845707000015,380.2845707000015,380.2845707000015,380.2845707000015,380.2845707000015,,006,P013,2025_Feb_08_1526,ConditionRich,2021.2.3,59.93479094848485,
340.0,343.75,22,0.75,Stimuli/P013/things_banner_07s.jpg,1,3,3.75,0,148,148,148,,,,,,,,,,,,,340.0008873000006,0.0008873000006133225,None,380.53474990000177,380.53474990000177,380.53474990000177,380.53474990000177,380.53474990000177,380.53474990000177,383.5208101999997,384.2714238000008,380.53474990000177,380.53474990000177,,006,P013,2025_Feb_08_1526,ConditionRich,2021.2.3,59.93479094848485,
343.75,344.0,41,0.0,Stimuli/Blank.png,0,0,0.0,0,149,149,149,,,,,,,,,,,,,343.7526768000025,0.0026768000025185756,None,384.288147700001,384.288147700001,384.288147700001,384.288147700001,384.288147700001,384.288147700001,384.288147700001,384.288147700001,384.288147700001,384.288147700001,,006,P013,2025_Feb_08_1526,ConditionRich,2021.2.3,59.93479094848485,
344.0,347.75,26,0.75,Stimuli/P013/things_cougar_07s.jpg,0,0,0.0,0,150,150,150,,,,,,,,,,,,,344.0037532999995,0.0037532999995164573,None,384.55500849999953,384.55500849999953,384.55500849999953,384.55500849999953,384.55500849999953,384.55500849999953,384.55500849999953,384.55500849999953,384.55500849999953,384.55500849999953,,006,P013,2025_Feb_08_1526,ConditionRich,2021.2.3,59.93479094848485,
347.75,348.0,41,0.0,Stimuli/Blank.png,0,0,0.0,0,151,151,151,,,,,,,,,,,,,347.77362390000053,0.02362390000052983,None,388.3083298999991,388.3083298999991,388.3083298999991,388.3083298999991,388.3083298999991,388.3083298999991,388.3083298999991,388.3083298999991,388.3083298999991,388.3083298999991,,006,P013,2025_Feb_08_1526,ConditionRich,2021.2.3,59.93479094848485,
348.0,351.75,30,0.75,Stimuli/P013/things_man_07s.jpg,0,0,0.0,0,152,152,152,,,,,,,,,,,,,348.00659520000045,0.006595200000447221,None,388.54187150000143,388.54187150000143,388.54187150000143,388.54187150000143,388.54187150000143,388.54187150000143,388.54187150000143,388.54187150000143,388.54187150000143,388.54187150000143,,006,P013,2025_Feb_08_1526,ConditionRich,2021.2.3,59.93479094848485,
351.75,352.0,41,0.0,Stimuli/Blank.png,0,0,0.0,0,153,153,153,,,,,,,,,,,,,351.76038410000183,0.01038410000182921,None,392.29518480000115,392.29518480000115,392.29518480000115,392.29518480000115,392.29518480000115,392.29518480000115,392.29518480000115,392.29518480000115,392.29518480000115,392.29518480000115,,006,P013,2025_Feb_08_1526,ConditionRich,2021.2.3,59.93479094848485,
352.0,355.75,12,0.75,Stimuli/P013/sun_bjyrrxiwsnbmkbqs.jpg,1,1,1.75,0,154,154,154,,,,,,,,,,,,,352.0109556999996,0.010955699999612989,1,392.5621186999997,392.5621186999997,392.5621186999997,392.5621186999997,392.5621186999997,392.5621186999997,393.52965210000184,394.2803184000004,392.5621186999997,392.5621186999997,1.386234900001,006,P013,2025_Feb_08_1526,ConditionRich,2021.2.3,59.93479094848485,
355.75,356.0,41,0.0,Stimuli/Blank.png,0,0,0.0,0,155,155,155,,,,,,,,,,,,,355.78060729999925,0.030607299999246607,None,396.3154033999999,396.3154033999999,396.3154033999999,396.3154033999999,396.3154033999999,396.3154033999999,396.3154033999999,396.3154033999999,396.3154033999999,396.3154033999999,,006,P013,2025_Feb_08_1526,ConditionRich,2021.2.3,59.93479094848485,
356.0,359.75,39,0.75,Stimuli/P013/things_violin_07n.jpg,1,0,0.75,0,156,156,156,,,,,,,,,,,,,356.0137489000008,0.013748900000791764,1,396.5489435999989,396.5489435999989,396.5489435999989,396.5489435999989,396.5489435999989,396.5489435999989,396.5489435999989,397.28295069999876,396.5489435999989,396.5489435999989,0.5365775999998732,006,P013,2025_Feb_08_1526,ConditionRich,2021.2.3,59.93479094848485,
359.75,360.0,41,0.0,Stimuli/Blank.png,0,0,0.0,0,157,157,157,,,,,,,,,,,,,359.7501424000002,0.00014240000018617138,None,400.2855969000011,400.2855969000011,400.2855969000011,400.2855969000011,400.2855969000011,400.2855969000011,400.2855969000011,400.2855969000011,400.2855969000011,400.2855969000011,,006,P013,2025_Feb_08_1526,ConditionRich,2021.2.3,59.93479094848485,
360.0,363.75,24,0.75,Stimuli/P013/things_bungee_07s.jpg,0,0,0.0,0,158,158,158,,,,,,,,,,,,,360.0010280000024,0.0010280000024067704,None,400.55250700000033,400.55250700000033,400.55250700000033,400.55250700000033,400.55250700000033,400.55250700000033,400.55250700000033,400.55250700000033,400.55250700000033,400.55250700000033,,006,P013,2025_Feb_08_1526,ConditionRich,2021.2.3,59.93479094848485,
363.75,364.0,41,0.0,Stimuli/Blank.png,0,0,0.0,0,159,159,159,,,,,,,,,,,,,363.77060189999975,0.02060189999974682,None,404.3058091999992,404.3058091999992,404.3058091999992,404.3058091999992,404.3058091999992,404.3058091999992,404.3058091999992,404.3058091999992,404.3058091999992,404.3058091999992,,006,P013,2025_Feb_08_1526,ConditionRich,2021.2.3,59.93479094848485,
364.0,367.75,35,0.75,Stimuli/P013/things_road_sign_07s.jpg,0,0,0.0,0,160,160,160,,,,,,,,,,,,,364.0047307999994,0.004730799999379087,None,404.55603490000067,404.55603490000067,404.55603490000067,404.55603490000067,404.55603490000067,404.55603490000067,404.55603490000067,404.55603490000067,404.55603490000067,404.55603490000067,,006,P013,2025_Feb_08_1526,ConditionRich,2021.2.3,59.93479094848485,
367.75,368.0,41,0.0,Stimuli/Blank.png,0,0,0.0,0,161,161,161,,,,,,,,,,,,,367.7738480000007,0.023848000000725733,None,408.30934049999996,408.30934049999996,408.30934049999996,408.30934049999996,408.30934049999996,408.30934049999996,408.30934049999996,408.30934049999996,408.30934049999996,408.30934049999996,,006,P013,2025_Feb_08_1526,ConditionRich,2021.2.3,59.93479094848485,
368.0,371.75,5,0.75,Stimuli/P013/sun_aidrxvbfhxtsusrf.jpg,0,0,0.0,0,162,162,162,,,,,,,,,,,,,368.0093947000023,0.00939470000230358,None,408.5595708000001,408.5595708000001,408.5595708000001,408.5595708000001,408.5595708000001,408.5595708000001,408.5595708000001,408.5595708000001,408.5595708000001,408.5595708000001,,006,P013,2025_Feb_08_1526,ConditionRich,2021.2.3,59.93479094848485,
371.75,372.0,41,0.0,Stimuli/Blank.png,0,0,0.0,0,163,163,163,,,,,,,,,,,,,371.7800191000024,0.030019100002391497,None,412.32958080000026,412.32958080000026,412.32958080000026,412.32958080000026,412.32958080000026,412.32958080000026,412.32958080000026,412.32958080000026,412.32958080000026,412.32958080000026,,006,P013,2025_Feb_08_1526,ConditionRich,2021.2.3,59.93479094848485,
372.0,388.0,0,0.0,Stimuli/Blank.png,1,8,8.75,0,164,164,164,,,,,,,,,,,,,372.0283788000015,0.028378800001519267,1,412.5631143999999,412.5631143999999,412.5631143999999,412.5631143999999,412.5631143999999,412.5631143999999,420.55352100000164,421.304179499999,412.5631143999999,412.5631143999999,8.33414239999911,006,P013,2025_Feb_08_1526,ConditionRich,2021.2.3,59.93479094848485,
