eventStartTime,eventEndTime,eventCond,imSize,imFile,responseEvent,fixRespStart,fixRespEnd,Events.thisRepN,Events.thisTrialN,Events.thisN,Events.thisIndex,Instructions.started,Instructions.stopped,participantReadyResponse.keys,participantReadyResponse.rt,participantReadyResponse.started,participantReadyResponse.stopped,startWaitforTrigger,triggerResponse.keys,triggerResponse.rt,triggerResponse.started,triggerResponse.stopped,globalTimer,actualStartTime,startTimingDiff,participantResponse.keys,participantResponse.started,participantResponse.stopped,image.started,image.stopped,fixationOutside.started,fixationOutside.stopped,fixationResponse.started,fixationResponse.stopped,fixationInside.started,fixationInside.stopped,participantResponse.rt,session,participant,date,expName,psychopyVersion,frameRate,
,,,,,,,,,,,,13.469515999997384,None,1,19.1679953999992,13.469515999997384,None,,,,,,,,,,,,,,,,,,,,,001,P013,2025_Feb_08_1443,ConditionRich,2021.2.3,59.93238428374893,
,,,,,,,,,,,,,,,,,,32.64958219999971,5,14.111139000000549,32.662187099998846,None,,,,,,,,,,,,,,,,001,P013,2025_Feb_08_1443,ConditionRich,2021.2.3,59.93238428374893,
0.0,4.0,0,0.0,Stimuli/Blank.png,0,0.0,0.0,0,0,0,0,,,,,,,,,,,,46.77963749999981,0.05443409999861615,0.05443409999861615,None,46.85803920000035,None,46.85803920000035,None,46.85803920000035,None,46.85803920000035,46.85803920000035,46.85803920000035,None,,001,P013,2025_Feb_08_1443,ConditionRich,2021.2.3,59.93238428374893,
4.0,4.75,31,0.75,Stimuli/P013/things_mask_07s.jpg,0,0.0,0.0,0,1,1,1,,,,,,,,,,,,,4.018703000001551,0.018703000001551118,None,50.82858499999929,50.82858499999929,50.82858499999929,50.82858499999929,50.82858499999929,50.82858499999929,50.82858499999929,50.82858499999929,50.82858499999929,50.82858499999929,,001,P013,2025_Feb_08_1443,ConditionRich,2021.2.3,59.93238428374893,
4.75,8.0,41,0.0,Stimuli/Blank.png,0,0.0,0.0,0,2,2,2,,,,,,,,,,,,,4.768531599998823,0.018531599998823367,None,51.562547800000175,51.562547800000175,51.562547800000175,51.562547800000175,51.562547800000175,51.562547800000175,51.562547800000175,51.562547800000175,51.562547800000175,51.562547800000175,,001,P013,2025_Feb_08_1443,ConditionRich,2021.2.3,59.93238428374893,
8.0,8.75,21,0.75,Stimuli/P013/things_baby_07s.jpg,0,0.0,0.0,0,3,3,3,,,,,,,,,,,,,8.004858100001002,0.0048581000010017306,None,54.815036600000894,54.815036600000894,54.815036600000894,54.815036600000894,54.815036600000894,54.815036600000894,54.815036600000894,54.815036600000894,54.815036600000894,54.815036600000894,,001,P013,2025_Feb_08_1443,ConditionRich,2021.2.3,59.93238428374893,
8.75,12.0,41,0.0,Stimuli/Blank.png,1,0.25,1.0,0,4,4,4,,,,,,,,,,,,,8.772705100000167,0.022705100000166567,1,55.56574439999895,55.56574439999895,55.56574439999895,55.56574439999895,55.56574439999895,55.56574439999895,55.799274900000455,56.549948899999436,55.56574439999895,55.56574439999895,1.3745850999985123,001,P013,2025_Feb_08_1443,ConditionRich,2021.2.3,59.93238428374893,
12.0,12.75,18,0.75,Stimuli/P013/sun_btohwudpiusfvpvl.jpg,0,0.0,0.0,0,5,5,5,,,,,,,,,,,,,12.008443899998383,0.008443899998383131,None,58.818642700000055,58.818642700000055,58.818642700000055,58.818642700000055,58.818642700000055,58.818642700000055,58.818642700000055,58.818642700000055,58.818642700000055,58.818642700000055,,001,P013,2025_Feb_08_1443,ConditionRich,2021.2.3,59.93238428374893,
12.75,16.0,41,0.0,Stimuli/Blank.png,0,0.0,0.0,0,6,6,6,,,,,,,,,,,,,12.777235800000199,0.02723580000019865,None,59.58596459999899,59.58596459999899,59.58596459999899,59.58596459999899,59.58596459999899,59.58596459999899,59.58596459999899,59.58596459999899,59.58596459999899,59.58596459999899,,001,P013,2025_Feb_08_1443,ConditionRich,2021.2.3,59.93238428374893,
16.0,16.75,40,0.75,Stimuli/P013/things_woman_07s.jpg,0,0.0,0.0,0,7,7,7,,,,,,,,,,,,,16.033131200001662,0.033131200001662364,None,62.83885000000009,62.83885000000009,62.83885000000009,62.83885000000009,62.83885000000009,62.83885000000009,62.83885000000009,62.83885000000009,62.83885000000009,62.83885000000009,,001,P013,2025_Feb_08_1443,ConditionRich,2021.2.3,59.93238428374893,
16.75,20.0,41,0.0,Stimuli/Blank.png,0,0.0,0.0,0,8,8,8,,,,,,,,,,,,,16.763085099999444,0.013085099999443628,None,63.556143699999666,63.556143699999666,63.556143699999666,63.556143699999666,63.556143699999666,63.556143699999666,63.556143699999666,63.556143699999666,63.556143699999666,63.556143699999666,,001,P013,2025_Feb_08_1443,ConditionRich,2021.2.3,59.93238428374893,
20.0,20.75,22,0.75,Stimuli/P013/things_banner_07s.jpg,0,0.0,0.0,0,9,9,9,,,,,,,,,,,,,19.99835289999828,-0.0016471000017190818,None,66.82568519999768,66.82568519999768,66.82568519999768,66.82568519999768,66.82568519999768,66.82568519999768,66.82568519999768,66.82568519999768,66.82568519999768,66.82568519999768,,001,P013,2025_Feb_08_1443,ConditionRich,2021.2.3,59.93238428374893,
20.75,24.0,41,0.0,Stimuli/Blank.png,1,2.25,3.0,0,10,10,10,,,,,,,,,,,,,20.78281589999824,0.03281589999824064,1,67.5763607000008,67.5763607000008,67.5763607000008,67.5763607000008,67.5763607000008,67.5763607000008,69.81166739999753,70.56234499999846,67.5763607000008,67.5763607000008,2.8159197000022687,001,P013,2025_Feb_08_1443,ConditionRich,2021.2.3,59.93238428374893,
24.0,24.75,33,0.75,Stimuli/P013/things_piglet_07s.jpg,1,0.0,0.75,0,11,11,11,,,,,,,,,,,,,24.002894799999922,0.0028947999999218155,1,70.81251300000076,70.81251300000076,70.81251300000076,70.81251300000076,70.81251300000076,70.81251300000076,70.81251300000076,71.54657699999734,70.81251300000076,70.81251300000076,0.6828872000005504,001,P013,2025_Feb_08_1443,ConditionRich,2021.2.3,59.93238428374893,
24.75,28.0,41,0.0,Stimuli/Blank.png,0,0.0,0.0,0,12,12,12,,,,,,,,,,,,,24.770568799998728,0.020568799998727627,None,71.56323379999958,71.56323379999958,71.56323379999958,71.56323379999958,71.56323379999958,71.56323379999958,71.56323379999958,71.56323379999958,71.56323379999958,71.56323379999958,,001,P013,2025_Feb_08_1443,ConditionRich,2021.2.3,59.93238428374893,
28.0,28.75,15,0.75,Stimuli/P013/sun_brezwczwwllviogu.jpg,0,0.0,0.0,0,13,13,13,,,,,,,,,,,,,28.00581130000137,0.005811300001369091,None,74.81605829999899,74.81605829999899,74.81605829999899,74.81605829999899,74.81605829999899,74.81605829999899,74.81605829999899,74.81605829999899,74.81605829999899,74.81605829999899,,001,P013,2025_Feb_08_1443,ConditionRich,2021.2.3,59.93238428374893,
28.75,32.0,41,0.0,Stimuli/Blank.png,0,0.0,0.0,0,14,14,14,,,,,,,,,,,,,28.773232799998368,0.023232799998368137,None,75.56683089999933,75.56683089999933,75.56683089999933,75.56683089999933,75.56683089999933,75.56683089999933,75.56683089999933,75.56683089999933,75.56683089999933,75.56683089999933,,001,P013,2025_Feb_08_1443,ConditionRich,2021.2.3,59.93238428374893,
32.0,32.75,17,0.75,Stimuli/P013/sun_bsguftphqnrkbedw.jpg,0,0.0,0.0,0,15,15,15,,,,,,,,,,,,,32.00887320000038,0.008873200000380166,None,78.82021299999906,78.82021299999906,78.82021299999906,78.82021299999906,78.82021299999906,78.82021299999906,78.82021299999906,78.82021299999906,78.82021299999906,78.82021299999906,,001,P013,2025_Feb_08_1443,ConditionRich,2021.2.3,59.93238428374893,
32.75,36.0,41,0.0,Stimuli/Blank.png,0,0.0,0.0,0,16,16,16,,,,,,,,,,,,,32.77665569999954,0.02665569999953732,None,79.57029989999864,79.57029989999864,79.57029989999864,79.57029989999864,79.57029989999864,79.57029989999864,79.57029989999864,79.57029989999864,79.57029989999864,79.57029989999864,,001,P013,2025_Feb_08_1443,ConditionRich,2021.2.3,59.93238428374893,
36.0,36.75,10,0.75,Stimuli/P013/sun_bdhxnzyleoiflyak.jpg,0,0.0,0.0,0,17,17,17,,,,,,,,,,,,,36.012761999998474,0.012761999998474494,None,82.82319389999975,82.82319389999975,82.82319389999975,82.82319389999975,82.82319389999975,82.82319389999975,82.82319389999975,82.82319389999975,82.82319389999975,82.82319389999975,,001,P013,2025_Feb_08_1443,ConditionRich,2021.2.3,59.93238428374893,
36.75,40.0,41,0.0,Stimuli/Blank.png,0,0.0,0.0,0,18,18,18,,,,,,,,,,,,,36.78041749999829,0.03041749999829335,None,83.57384789999924,83.57384789999924,83.57384789999924,83.57384789999924,83.57384789999924,83.57384789999924,83.57384789999924,83.57384789999924,83.57384789999924,83.57384789999924,,001,P013,2025_Feb_08_1443,ConditionRich,2021.2.3,59.93238428374893,
40.0,40.75,26,0.75,Stimuli/P013/things_cougar_07s.jpg,0,0.0,0.0,0,19,19,19,,,,,,,,,,,,,39.99974890000158,-0.0002510999984224327,None,86.79330959999788,86.79330959999788,86.79330959999788,86.79330959999788,86.79330959999788,86.79330959999788,86.79330959999788,86.79330959999788,86.79330959999788,86.79330959999788,,001,P013,2025_Feb_08_1443,ConditionRich,2021.2.3,59.93238428374893,
40.75,44.0,41,0.0,Stimuli/Blank.png,0,0.0,0.0,0,20,20,20,,,,,,,,,,,,,40.750544999998965,0.0005449999989650678,None,87.54402760000085,87.54402760000085,87.54402760000085,87.54402760000085,87.54402760000085,87.54402760000085,87.54402760000085,87.54402760000085,87.54402760000085,87.54402760000085,,001,P013,2025_Feb_08_1443,ConditionRich,2021.2.3,59.93238428374893,
44.0,44.75,3,0.75,Stimuli/P013/sun_aengzsmykwchlrdn.jpg,0,0.0,0.0,0,21,21,21,,,,,,,,,,,,,44.002993099999,0.0029930999990028795,None,90.81354719999945,90.81354719999945,90.81354719999945,90.81354719999945,90.81354719999945,90.81354719999945,90.81354719999945,90.81354719999945,90.81354719999945,90.81354719999945,,001,P013,2025_Feb_08_1443,ConditionRich,2021.2.3,59.93238428374893,
44.75,48.0,41,0.0,Stimuli/Blank.png,1,2.25,3.0,0,22,22,22,,,,,,,,,,,,,44.77222729999994,0.022227299999940442,1,91.5809494999994,91.5809494999994,91.5809494999994,91.5809494999994,91.5809494999994,91.5809494999994,93.81621710000036,94.56688840000061,91.5809494999994,91.5809494999994,2.727387600003567,001,P013,2025_Feb_08_1443,ConditionRich,2021.2.3,59.93238428374893,
48.0,48.75,36,0.75,Stimuli/P013/things_seafood_07s.jpg,0,0.0,0.0,0,23,23,23,,,,,,,,,,,,,48.023792899999535,0.02379289999953471,None,94.83379159999822,94.83379159999822,94.83379159999822,94.83379159999822,94.83379159999822,94.83379159999822,94.83379159999822,94.83379159999822,94.83379159999822,94.83379159999822,,001,P013,2025_Feb_08_1443,ConditionRich,2021.2.3,59.93238428374893,
48.75,52.0,41,0.0,Stimuli/Blank.png,0,0.0,0.0,0,24,24,24,,,,,,,,,,,,,48.77365510000163,0.0236551000016334,None,95.56776460000037,95.56776460000037,95.56776460000037,95.56776460000037,95.56776460000037,95.56776460000037,95.56776460000037,95.56776460000037,95.56776460000037,95.56776460000037,,001,P013,2025_Feb_08_1443,ConditionRich,2021.2.3,59.93238428374893,
52.0,52.75,23,0.75,Stimuli/P013/things_bug_07s.jpg,0,0.0,0.0,0,25,25,25,,,,,,,,,,,,,52.01285669999925,0.012856699999247212,None,98.82063379999818,98.82063379999818,98.82063379999818,98.82063379999818,98.82063379999818,98.82063379999818,98.82063379999818,98.82063379999818,98.82063379999818,98.82063379999818,,001,P013,2025_Feb_08_1443,ConditionRich,2021.2.3,59.93238428374893,
52.75,56.0,41,0.0,Stimuli/Blank.png,0,0.0,0.0,0,26,26,26,,,,,,,,,,,,,52.777722700000595,0.02772270000059507,None,99.5713227999986,99.5713227999986,99.5713227999986,99.5713227999986,99.5713227999986,99.5713227999986,99.5713227999986,99.5713227999986,99.5713227999986,99.5713227999986,,001,P013,2025_Feb_08_1443,ConditionRich,2021.2.3,59.93238428374893,
56.0,56.75,7,0.75,Stimuli/P013/sun_aojplsluiikxrfxc.jpg,0,0.0,0.0,0,27,27,27,,,,,,,,,,,,,56.013347899999644,0.013347899999644142,None,102.82421450000038,102.82421450000038,102.82421450000038,102.82421450000038,102.82421450000038,102.82421450000038,102.82421450000038,102.82421450000038,102.82421450000038,102.82421450000038,,001,P013,2025_Feb_08_1443,ConditionRich,2021.2.3,59.93238428374893,
56.75,60.0,41,0.0,Stimuli/Blank.png,0,0.0,0.0,0,28,28,28,,,,,,,,,,,,,56.783213999999134,0.0332139999991341,None,103.59154879999915,103.59154879999915,103.59154879999915,103.59154879999915,103.59154879999915,103.59154879999915,103.59154879999915,103.59154879999915,103.59154879999915,103.59154879999915,,001,P013,2025_Feb_08_1443,ConditionRich,2021.2.3,59.93238428374893,
60.0,60.75,16,0.75,Stimuli/P013/sun_bsgtkqjrnrvttrax.jpg,0,0.0,0.0,0,29,29,29,,,,,,,,,,,,,60.017374899998686,0.017374899998685578,None,106.84444389999771,106.84444389999771,106.84444389999771,106.84444389999771,106.84444389999771,106.84444389999771,106.84444389999771,106.84444389999771,106.84444389999771,106.84444389999771,,001,P013,2025_Feb_08_1443,ConditionRich,2021.2.3,59.93238428374893,
60.75,64.0,41,0.0,Stimuli/Blank.png,0,0.0,0.0,0,30,30,30,,,,,,,,,,,,,60.7871813999991,0.037181399999099085,None,107.59614519999741,107.59614519999741,107.59614519999741,107.59614519999741,107.59614519999741,107.59614519999741,107.59614519999741,107.59614519999741,107.59614519999741,107.59614519999741,,001,P013,2025_Feb_08_1443,ConditionRich,2021.2.3,59.93238428374893,
64.0,64.75,1,0.75,Stimuli/P013/sun_adkmgqclfrkhfxbd.jpg,0,0.0,0.0,0,31,31,31,,,,,,,,,,,,,64.02145179999934,0.021451799999340437,None,110.83127559999775,110.83127559999775,110.83127559999775,110.83127559999775,110.83127559999775,110.83127559999775,110.83127559999775,110.83127559999775,110.83127559999775,110.83127559999775,,001,P013,2025_Feb_08_1443,ConditionRich,2021.2.3,59.93238428374893,
64.75,68.0,41,0.0,Stimuli/Blank.png,0,0.0,0.0,0,32,32,32,,,,,,,,,,,,,64.77156470000045,0.02156470000045374,None,111.56526029999804,111.56526029999804,111.56526029999804,111.56526029999804,111.56526029999804,111.56526029999804,111.56526029999804,111.56526029999804,111.56526029999804,111.56526029999804,,001,P013,2025_Feb_08_1443,ConditionRich,2021.2.3,59.93238428374893,
68.0,68.75,34,0.75,Stimuli/P013/things_radio_07s.jpg,0,0.0,0.0,0,33,33,33,,,,,,,,,,,,,68.00766179999846,0.007661799998459173,None,114.80203509999774,114.80203509999774,114.80203509999774,114.80203509999774,114.80203509999774,114.80203509999774,114.80203509999774,114.80203509999774,114.80203509999774,114.80203509999774,,001,P013,2025_Feb_08_1443,ConditionRich,2021.2.3,59.93238428374893,
68.75,72.0,41,0.0,Stimuli/Blank.png,0,0.0,0.0,0,34,34,34,,,,,,,,,,,,,68.75845689999915,0.008456899999146117,None,115.55214789999809,115.55214789999809,115.55214789999809,115.55214789999809,115.55214789999809,115.55214789999809,115.55214789999809,115.55214789999809,115.55214789999809,115.55214789999809,,001,P013,2025_Feb_08_1443,ConditionRich,2021.2.3,59.93238428374893,
72.0,72.75,28,0.75,Stimuli/P013/things_girl_07s.jpg,0,0.0,0.0,0,35,35,35,,,,,,,,,,,,,72.01076290000128,0.010762900001282105,None,118.82166959999813,118.82166959999813,118.82166959999813,118.82166959999813,118.82166959999813,118.82166959999813,118.82166959999813,118.82166959999813,118.82166959999813,118.82166959999813,,001,P013,2025_Feb_08_1443,ConditionRich,2021.2.3,59.93238428374893,
72.75,76.0,41,0.0,Stimuli/Blank.png,0,0.0,0.0,0,36,36,36,,,,,,,,,,,,,72.77835079999932,0.028350799999316223,None,119.57233429999906,119.57233429999906,119.57233429999906,119.57233429999906,119.57233429999906,119.57233429999906,119.57233429999906,119.57233429999906,119.57233429999906,119.57233429999906,,001,P013,2025_Feb_08_1443,ConditionRich,2021.2.3,59.93238428374893,
76.0,76.75,35,0.75,Stimuli/P013/things_road_sign_07s.jpg,0,0.0,0.0,0,37,37,37,,,,,,,,,,,,,76.01590080000096,0.0159008000009635,None,122.84189049999986,122.84189049999986,122.84189049999986,122.84189049999986,122.84189049999986,122.84189049999986,122.84189049999986,122.84189049999986,122.84189049999986,122.84189049999986,,001,P013,2025_Feb_08_1443,ConditionRich,2021.2.3,59.93238428374893,
76.75,80.0,41,0.0,Stimuli/Blank.png,0,0.0,0.0,0,38,38,38,,,,,,,,,,,,,76.78225620000012,0.03225620000011986,None,123.57588419999956,123.57588419999956,123.57588419999956,123.57588419999956,123.57588419999956,123.57588419999956,123.57588419999956,123.57588419999956,123.57588419999956,123.57588419999956,,001,P013,2025_Feb_08_1443,ConditionRich,2021.2.3,59.93238428374893,
80.0,80.75,32,0.75,Stimuli/P013/things_mistletoe_07s.jpg,0,0.0,0.0,0,39,39,39,,,,,,,,,,,,,80.0020059999988,0.0020059999988006894,None,126.81206910000037,126.81206910000037,126.81206910000037,126.81206910000037,126.81206910000037,126.81206910000037,126.81206910000037,126.81206910000037,126.81206910000037,126.81206910000037,,001,P013,2025_Feb_08_1443,ConditionRich,2021.2.3,59.93238428374893,
80.75,84.0,41,0.0,Stimuli/Blank.png,0,0.0,0.0,0,40,40,40,,,,,,,,,,,,,80.76996539999891,0.01996539999890956,None,127.5627499000002,127.5627499000002,127.5627499000002,127.5627499000002,127.5627499000002,127.5627499000002,127.5627499000002,127.5627499000002,127.5627499000002,127.5627499000002,,001,P013,2025_Feb_08_1443,ConditionRich,2021.2.3,59.93238428374893,
84.0,100.0,0,0.0,Stimuli/Blank.png,1,9.0,9.75,0,41,41,41,,,,,,,,,,,,,84.00752060000013,0.007520600000134436,1,130.81562249999843,130.81562249999843,130.81562249999843,130.81562249999843,130.81562249999843,130.81562249999843,139.7901822999993,140.54087330000038,130.81562249999843,130.81562249999843,9.324765000001207,001,P013,2025_Feb_08_1443,ConditionRich,2021.2.3,59.93238428374893,
100.0,100.75,2,0.75,Stimuli/P013/sun_adotnsaifoooswkf.jpg,0,0.0,0.0,0,42,42,42,,,,,,,,,,,,,100.01892990000124,0.01892990000123973,None,146.82977209999808,146.82977209999808,146.82977209999808,146.82977209999808,146.82977209999808,146.82977209999808,146.82977209999808,146.82977209999808,146.82977209999808,146.82977209999808,,001,P013,2025_Feb_08_1443,ConditionRich,2021.2.3,59.93238428374893,
100.75,104.0,41,0.0,Stimuli/Blank.png,0,0.0,0.0,0,43,43,43,,,,,,,,,,,,,100.77215200000137,0.022152000001369743,None,147.58044949999748,147.58044949999748,147.58044949999748,147.58044949999748,147.58044949999748,147.58044949999748,147.58044949999748,147.58044949999748,147.58044949999748,147.58044949999748,,001,P013,2025_Feb_08_1443,ConditionRich,2021.2.3,59.93238428374893,
104.0,104.75,30,0.75,Stimuli/P013/things_man_07s.jpg,0,0.0,0.0,0,44,44,44,,,,,,,,,,,,,104.02331659999982,0.02331659999981639,None,150.83335330000045,150.83335330000045,150.83335330000045,150.83335330000045,150.83335330000045,150.83335330000045,150.83335330000045,150.83335330000045,150.83335330000045,150.83335330000045,,001,P013,2025_Feb_08_1443,ConditionRich,2021.2.3,59.93238428374893,
104.75,108.0,41,0.0,Stimuli/Blank.png,0,0.0,0.0,0,45,45,45,,,,,,,,,,,,,104.77297819999876,0.02297819999876083,None,151.56729049999922,151.56729049999922,151.56729049999922,151.56729049999922,151.56729049999922,151.56729049999922,151.56729049999922,151.56729049999922,151.56729049999922,151.56729049999922,,001,P013,2025_Feb_08_1443,ConditionRich,2021.2.3,59.93238428374893,
108.0,108.75,4,0.75,Stimuli/P013/sun_afgoiykvchxqotyz.jpg,1,0.0,0.75,0,46,46,46,,,,,,,,,,,,,108.00977290000083,0.009772900000825757,1,154.8201685999993,154.8201685999993,154.8201685999993,154.8201685999993,154.8201685999993,154.8201685999993,154.8201685999993,155.53746630000023,154.8201685999993,154.8201685999993,0.7021469999999681,001,P013,2025_Feb_08_1443,ConditionRich,2021.2.3,59.93238428374893,
108.75,112.0,41,0.0,Stimuli/Blank.png,0,0.0,0.0,0,47,47,47,,,,,,,,,,,,,108.7767817999993,0.026781799999298528,None,155.57083409999905,155.57083409999905,155.57083409999905,155.57083409999905,155.57083409999905,155.57083409999905,155.57083409999905,155.57083409999905,155.57083409999905,155.57083409999905,,001,P013,2025_Feb_08_1443,ConditionRich,2021.2.3,59.93238428374893,
112.0,112.75,24,0.75,Stimuli/P013/things_bungee_07s.jpg,0,0.0,0.0,0,48,48,48,,,,,,,,,,,,,112.01273589999983,0.012735899999825051,None,158.82371090000015,158.82371090000015,158.82371090000015,158.82371090000015,158.82371090000015,158.82371090000015,158.82371090000015,158.82371090000015,158.82371090000015,158.82371090000015,,001,P013,2025_Feb_08_1443,ConditionRich,2021.2.3,59.93238428374893,
112.75,116.0,41,0.0,Stimuli/Blank.png,0,0.0,0.0,0,49,49,49,,,,,,,,,,,,,112.78233040000123,0.032330400001228554,None,159.5910655000007,159.5910655000007,159.5910655000007,159.5910655000007,159.5910655000007,159.5910655000007,159.5910655000007,159.5910655000007,159.5910655000007,159.5910655000007,,001,P013,2025_Feb_08_1443,ConditionRich,2021.2.3,59.93238428374893,
116.0,116.75,38,0.75,Stimuli/P013/things_spark_plug_07s.jpg,0,0.0,0.0,0,50,50,50,,,,,,,,,,,,,116.01689139999871,0.016891399998712586,None,162.82731529999728,162.82731529999728,162.82731529999728,162.82731529999728,162.82731529999728,162.82731529999728,162.82731529999728,162.82731529999728,162.82731529999728,162.82731529999728,,001,P013,2025_Feb_08_1443,ConditionRich,2021.2.3,59.93238428374893,
116.75,120.0,41,0.0,Stimuli/Blank.png,0,0.0,0.0,0,51,51,51,,,,,,,,,,,,,116.76763589999973,0.01763589999973192,None,163.56123709999883,163.56123709999883,163.56123709999883,163.56123709999883,163.56123709999883,163.56123709999883,163.56123709999883,163.56123709999883,163.56123709999883,163.56123709999883,,001,P013,2025_Feb_08_1443,ConditionRich,2021.2.3,59.93238428374893,
120.0,120.75,39,0.75,Stimuli/P013/things_violin_07n.jpg,0,0.0,0.0,0,52,52,52,,,,,,,,,,,,,120.00317780000114,0.0031778000011399854,None,166.83078670000032,166.83078670000032,166.83078670000032,166.83078670000032,166.83078670000032,166.83078670000032,166.83078670000032,166.83078670000032,166.83078670000032,166.83078670000032,,001,P013,2025_Feb_08_1443,ConditionRich,2021.2.3,59.93238428374893,
120.75,124.0,41,0.0,Stimuli/Blank.png,0,0.0,0.0,0,53,53,53,,,,,,,,,,,,,120.78793510000105,0.03793510000105016,None,167.5814505999988,167.5814505999988,167.5814505999988,167.5814505999988,167.5814505999988,167.5814505999988,167.5814505999988,167.5814505999988,167.5814505999988,167.5814505999988,,001,P013,2025_Feb_08_1443,ConditionRich,2021.2.3,59.93238428374893,
124.0,124.75,13,0.75,Stimuli/P013/sun_bpccpwpohfirajtf.jpg,0,0.0,0.0,0,54,54,54,,,,,,,,,,,,,124.00723319999815,0.007233199998154305,None,170.8009634000009,170.8009634000009,170.8009634000009,170.8009634000009,170.8009634000009,170.8009634000009,170.8009634000009,170.8009634000009,170.8009634000009,170.8009634000009,,001,P013,2025_Feb_08_1443,ConditionRich,2021.2.3,59.93238428374893,
124.75,128.0,41,0.0,Stimuli/Blank.png,1,2.25,3.0,0,55,55,55,,,,,,,,,,,,,124.75748480000038,0.007484800000383984,1,171.55163229999744,171.55163229999744,171.55163229999744,171.55163229999744,171.55163229999744,171.55163229999744,173.78693279999789,174.53764059999958,171.55163229999744,171.55163229999744,2.76178809999692,001,P013,2025_Feb_08_1443,ConditionRich,2021.2.3,59.93238428374893,
128.0,128.75,27,0.75,Stimuli/P013/things_face_07s.jpg,0,0.0,0.0,0,56,56,56,,,,,,,,,,,,,128.01067260000127,0.010672600001271348,None,174.82118059999993,174.82118059999993,174.82118059999993,174.82118059999993,174.82118059999993,174.82118059999993,174.82118059999993,174.82118059999993,174.82118059999993,174.82118059999993,,001,P013,2025_Feb_08_1443,ConditionRich,2021.2.3,59.93238428374893,
128.75,132.0,41,0.0,Stimuli/Blank.png,0,0.0,0.0,0,57,57,57,,,,,,,,,,,,,128.77894839999863,0.028948399998625973,None,175.58855309999853,175.58855309999853,175.58855309999853,175.58855309999853,175.58855309999853,175.58855309999853,175.58855309999853,175.58855309999853,175.58855309999853,175.58855309999853,,001,P013,2025_Feb_08_1443,ConditionRich,2021.2.3,59.93238428374893,
132.0,132.75,20,0.75,Stimuli/P013/sun_cidodcxikcyrdglc.jpg,0,0.0,0.0,0,58,58,58,,,,,,,,,,,,,132.03335220000008,0.03335220000008121,None,178.84142869999778,178.84142869999778,178.84142869999778,178.84142869999778,178.84142869999778,178.84142869999778,178.84142869999778,178.84142869999778,178.84142869999778,178.84142869999778,,001,P013,2025_Feb_08_1443,ConditionRich,2021.2.3,59.93238428374893,
132.75,136.0,41,0.0,Stimuli/Blank.png,1,0.25,1.0,0,59,59,59,,,,,,,,,,,,,132.76506670000163,0.015066700001625577,1,179.5588050999977,179.5588050999977,179.5588050999977,179.5588050999977,179.5588050999977,179.5588050999977,179.7922503000009,180.5429648999998,179.5588050999977,179.5588050999977,0.6605740999984846,001,P013,2025_Feb_08_1443,ConditionRich,2021.2.3,59.93238428374893,
136.0,136.75,12,0.75,Stimuli/P013/sun_bjyrrxiwsnbmkbqs.jpg,0,0.0,0.0,0,60,60,60,,,,,,,,,,,,,136.00099129999944,0.000991299999441253,None,182.81157940000048,182.81157940000048,182.81157940000048,182.81157940000048,182.81157940000048,182.81157940000048,182.81157940000048,182.81157940000048,182.81157940000048,182.81157940000048,,001,P013,2025_Feb_08_1443,ConditionRich,2021.2.3,59.93238428374893,
136.75,140.0,41,0.0,Stimuli/Blank.png,0,0.0,0.0,0,61,61,61,,,,,,,,,,,,,136.7684436999989,0.0184436999988975,None,183.56224089999887,183.56224089999887,183.56224089999887,183.56224089999887,183.56224089999887,183.56224089999887,183.56224089999887,183.56224089999887,183.56224089999887,183.56224089999887,,001,P013,2025_Feb_08_1443,ConditionRich,2021.2.3,59.93238428374893,
140.0,140.75,25,0.75,Stimuli/P013/things_cashew_07s.jpg,0,0.0,0.0,0,62,62,62,,,,,,,,,,,,,140.00418530000024,0.004185300000244752,None,186.81512519999887,186.81512519999887,186.81512519999887,186.81512519999887,186.81512519999887,186.81512519999887,186.81512519999887,186.81512519999887,186.81512519999887,186.81512519999887,,001,P013,2025_Feb_08_1443,ConditionRich,2021.2.3,59.93238428374893,
140.75,144.0,41,0.0,Stimuli/Blank.png,0,0.0,0.0,0,63,63,63,,,,,,,,,,,,,140.77217160000146,0.02217160000145668,None,187.5657883999993,187.5657883999993,187.5657883999993,187.5657883999993,187.5657883999993,187.5657883999993,187.5657883999993,187.5657883999993,187.5657883999993,187.5657883999993,,001,P013,2025_Feb_08_1443,ConditionRich,2021.2.3,59.93238428374893,
144.0,144.75,19,0.75,Stimuli/P013/sun_buphlelowxjnoygy.jpg,0,0.0,0.0,0,64,64,64,,,,,,,,,,,,,144.00846870000169,0.008468700001685647,None,190.81863309999972,190.81863309999972,190.81863309999972,190.81863309999972,190.81863309999972,190.81863309999972,190.81863309999972,190.81863309999972,190.81863309999972,190.81863309999972,,001,P013,2025_Feb_08_1443,ConditionRich,2021.2.3,59.93238428374893,
144.75,148.0,41,0.0,Stimuli/Blank.png,0,0.0,0.0,0,65,65,65,,,,,,,,,,,,,144.77508339999986,0.025083399999857647,None,191.56932589999997,191.56932589999997,191.56932589999997,191.56932589999997,191.56932589999997,191.56932589999997,191.56932589999997,191.56932589999997,191.56932589999997,191.56932589999997,,001,P013,2025_Feb_08_1443,ConditionRich,2021.2.3,59.93238428374893,
148.0,148.75,14,0.75,Stimuli/P013/sun_bqhfterhwnqrbnzg.jpg,0,0.0,0.0,0,66,66,66,,,,,,,,,,,,,148.01114170000073,0.011141700000735,None,194.82224710000082,194.82224710000082,194.82224710000082,194.82224710000082,194.82224710000082,194.82224710000082,194.82224710000082,194.82224710000082,194.82224710000082,194.82224710000082,,001,P013,2025_Feb_08_1443,ConditionRich,2021.2.3,59.93238428374893,
148.75,152.0,41,0.0,Stimuli/Blank.png,0,0.0,0.0,0,67,67,67,,,,,,,,,,,,,148.77903650000007,0.02903650000007474,None,195.5728827999992,195.5728827999992,195.5728827999992,195.5728827999992,195.5728827999992,195.5728827999992,195.5728827999992,195.5728827999992,195.5728827999992,195.5728827999992,,001,P013,2025_Feb_08_1443,ConditionRich,2021.2.3,59.93238428374893,
152.0,152.75,29,0.75,Stimuli/P013/things_iguana_07s.jpg,0,0.0,0.0,0,68,68,68,,,,,,,,,,,,,152.01514189999943,0.015141899999434827,None,198.84243050000077,198.84243050000077,198.84243050000077,198.84243050000077,198.84243050000077,198.84243050000077,198.84243050000077,198.84243050000077,198.84243050000077,198.84243050000077,,001,P013,2025_Feb_08_1443,ConditionRich,2021.2.3,59.93238428374893,
152.75,156.0,41,0.0,Stimuli/Blank.png,0,0.0,0.0,0,69,69,69,,,,,,,,,,,,,152.78283519999968,0.03283519999968121,None,199.5763866999987,199.5763866999987,199.5763866999987,199.5763866999987,199.5763866999987,199.5763866999987,199.5763866999987,199.5763866999987,199.5763866999987,199.5763866999987,,001,P013,2025_Feb_08_1443,ConditionRich,2021.2.3,59.93238428374893,
156.0,156.75,11,0.75,Stimuli/P013/sun_bfyxzbjsvqsobbky.jpg,0,0.0,0.0,0,70,70,70,,,,,,,,,,,,,156.00215440000102,0.0021544000010180753,None,202.8125904999979,202.8125904999979,202.8125904999979,202.8125904999979,202.8125904999979,202.8125904999979,202.8125904999979,202.8125904999979,202.8125904999979,202.8125904999979,,001,P013,2025_Feb_08_1443,ConditionRich,2021.2.3,59.93238428374893,
156.75,160.0,41,0.0,Stimuli/Blank.png,0,0.0,0.0,0,71,71,71,,,,,,,,,,,,,156.76892210000005,0.018922100000054343,None,203.56327629999942,203.56327629999942,203.56327629999942,203.56327629999942,203.56327629999942,203.56327629999942,203.56327629999942,203.56327629999942,203.56327629999942,203.56327629999942,,001,P013,2025_Feb_08_1443,ConditionRich,2021.2.3,59.93238428374893,
160.0,160.75,8,0.75,Stimuli/P013/sun_auqrilekgmdmrncq.jpg,0,0.0,0.0,0,72,72,72,,,,,,,,,,,,,160.0075238999998,0.007523899999796413,None,206.81611440000052,206.81611440000052,206.81611440000052,206.81611440000052,206.81611440000052,206.81611440000052,206.81611440000052,206.81611440000052,206.81611440000052,206.81611440000052,,001,P013,2025_Feb_08_1443,ConditionRich,2021.2.3,59.93238428374893,
160.75,164.0,41,0.0,Stimuli/Blank.png,0,0.0,0.0,0,73,73,73,,,,,,,,,,,,,160.77281009999933,0.022810099999333033,None,207.56681079999908,207.56681079999908,207.56681079999908,207.56681079999908,207.56681079999908,207.56681079999908,207.56681079999908,207.56681079999908,207.56681079999908,207.56681079999908,,001,P013,2025_Feb_08_1443,ConditionRich,2021.2.3,59.93238428374893,
164.0,164.75,5,0.75,Stimuli/P013/sun_aidrxvbfhxtsusrf.jpg,0,0.0,0.0,0,74,74,74,,,,,,,,,,,,,164.00889280000047,0.008892800000467105,None,210.8196785,210.8196785,210.8196785,210.8196785,210.8196785,210.8196785,210.8196785,210.8196785,210.8196785,210.8196785,,001,P013,2025_Feb_08_1443,ConditionRich,2021.2.3,59.93238428374893,
164.75,168.0,41,0.0,Stimuli/Blank.png,1,0.25,1.0,0,75,75,75,,,,,,,,,,,,,164.7770101999995,0.027010199999494944,1,211.57144369999878,211.57144369999878,211.57144369999878,211.57144369999878,211.57144369999878,211.57144369999878,211.80392120000033,212.55459349999728,211.57144369999878,211.57144369999878,1.2140749000027427,001,P013,2025_Feb_08_1443,ConditionRich,2021.2.3,59.93238428374893,
168.0,168.75,9,0.75,Stimuli/P013/sun_bdgwqzttihopmpbf.jpg,0,0.0,0.0,0,76,76,76,,,,,,,,,,,,,168.01296509999884,0.012965099998837104,None,214.823249699999,214.823249699999,214.823249699999,214.823249699999,214.823249699999,214.823249699999,214.823249699999,214.823249699999,214.823249699999,214.823249699999,,001,P013,2025_Feb_08_1443,ConditionRich,2021.2.3,59.93238428374893,
168.75,172.0,41,0.0,Stimuli/Blank.png,0,0.0,0.0,0,77,77,77,,,,,,,,,,,,,168.77966190000006,0.029661900000064634,None,215.57388490000085,215.57388490000085,215.57388490000085,215.57388490000085,215.57388490000085,215.57388490000085,215.57388490000085,215.57388490000085,215.57388490000085,215.57388490000085,,001,P013,2025_Feb_08_1443,ConditionRich,2021.2.3,59.93238428374893,
172.0,172.75,6,0.75,Stimuli/P013/sun_aoejkkmwkfegacni.jpg,0,0.0,0.0,0,78,78,78,,,,,,,,,,,,,172.00056409999888,0.0005640999988827389,None,218.81009579999954,218.81009579999954,218.81009579999954,218.81009579999954,218.81009579999954,218.81009579999954,218.81009579999954,218.81009579999954,218.81009579999954,218.81009579999954,,001,P013,2025_Feb_08_1443,ConditionRich,2021.2.3,59.93238428374893,
172.75,176.0,41,0.0,Stimuli/Blank.png,0,0.0,0.0,0,79,79,79,,,,,,,,,,,,,172.76683780000167,0.016837800001667347,None,219.56074399999852,219.56074399999852,219.56074399999852,219.56074399999852,219.56074399999852,219.56074399999852,219.56074399999852,219.56074399999852,219.56074399999852,219.56074399999852,,001,P013,2025_Feb_08_1443,ConditionRich,2021.2.3,59.93238428374893,
176.0,176.75,37,0.75,Stimuli/P013/things_slug_07s.jpg,0,0.0,0.0,0,80,80,80,,,,,,,,,,,,,176.00290759999916,0.002907599999161903,None,222.8136259999992,222.8136259999992,222.8136259999992,222.8136259999992,222.8136259999992,222.8136259999992,222.8136259999992,222.8136259999992,222.8136259999992,222.8136259999992,,001,P013,2025_Feb_08_1443,ConditionRich,2021.2.3,59.93238428374893,
176.75,180.0,41,0.0,Stimuli/Blank.png,0,0.0,0.0,0,81,81,81,,,,,,,,,,,,,176.77076060000036,0.020760600000357954,None,223.56428740000047,223.56428740000047,223.56428740000047,223.56428740000047,223.56428740000047,223.56428740000047,223.56428740000047,223.56428740000047,223.56428740000047,223.56428740000047,,001,P013,2025_Feb_08_1443,ConditionRich,2021.2.3,59.93238428374893,
180.0,196.0,0,0.0,Stimuli/Blank.png,1,10.0,10.75,0,82,82,82,,,,,,,,,,,,,180.0061437000004,0.006143700000393437,1,226.8004742999983,226.8004742999983,226.8004742999983,226.8004742999983,226.8004742999983,226.8004742999983,236.77596500000072,237.52662979999877,226.8004742999983,226.8004742999983,10.32395280000128,001,P013,2025_Feb_08_1443,ConditionRich,2021.2.3,59.93238428374893,
196.0,196.75,39,0.75,Stimuli/P013/things_violin_07n.jpg,0,0.0,0.0,0,83,83,83,,,,,,,,,,,,,196.0046110000003,0.004611000000295462,None,242.7979579999992,242.7979579999992,242.7979579999992,242.7979579999992,242.7979579999992,242.7979579999992,242.7979579999992,242.7979579999992,242.7979579999992,242.7979579999992,,001,P013,2025_Feb_08_1443,ConditionRich,2021.2.3,59.93238428374893,
196.75,200.0,41,0.0,Stimuli/Blank.png,0,0.0,0.0,0,84,84,84,,,,,,,,,,,,,196.75729449999926,0.007294499999261461,None,243.5653033999988,243.5653033999988,243.5653033999988,243.5653033999988,243.5653033999988,243.5653033999988,243.5653033999988,243.5653033999988,243.5653033999988,243.5653033999988,,001,P013,2025_Feb_08_1443,ConditionRich,2021.2.3,59.93238428374893,
200.0,200.75,19,0.75,Stimuli/P013/sun_buphlelowxjnoygy.jpg,0,0.0,0.0,0,85,85,85,,,,,,,,,,,,,200.02480930000092,0.02480930000092485,None,246.8348600999998,246.8348600999998,246.8348600999998,246.8348600999998,246.8348600999998,246.8348600999998,246.8348600999998,246.8348600999998,246.8348600999998,246.8348600999998,,001,P013,2025_Feb_08_1443,ConditionRich,2021.2.3,59.93238428374893,
200.75,204.0,41,0.0,Stimuli/Blank.png,0,0.0,0.0,0,86,86,86,,,,,,,,,,,,,200.7751645999997,0.025164599999698112,None,247.56892320000043,247.56892320000043,247.56892320000043,247.56892320000043,247.56892320000043,247.56892320000043,247.56892320000043,247.56892320000043,247.56892320000043,247.56892320000043,,001,P013,2025_Feb_08_1443,ConditionRich,2021.2.3,59.93238428374893,
204.0,204.75,7,0.75,Stimuli/P013/sun_aojplsluiikxrfxc.jpg,0,0.0,0.0,0,87,87,87,,,,,,,,,,,,,204.01367089999985,0.013670899999851827,None,250.82172859999991,250.82172859999991,250.82172859999991,250.82172859999991,250.82172859999991,250.82172859999991,250.82172859999991,250.82172859999991,250.82172859999991,250.82172859999991,,001,P013,2025_Feb_08_1443,ConditionRich,2021.2.3,59.93238428374893,
204.75,208.0,41,0.0,Stimuli/Blank.png,1,2.25,3.0,0,88,88,88,,,,,,,,,,,,,204.7782627000015,0.028262700001505436,1,251.57237849999728,251.57237849999728,251.57237849999728,251.57237849999728,251.57237849999728,251.57237849999728,253.80769599999985,254.5586665999981,251.57237849999728,251.57237849999728,2.6630686999997124,001,P013,2025_Feb_08_1443,ConditionRich,2021.2.3,59.93238428374893,
208.0,208.75,18,0.75,Stimuli/P013/sun_btohwudpiusfvpvl.jpg,0,0.0,0.0,0,89,89,89,,,,,,,,,,,,,208.01439830000163,0.01439830000163056,None,254.8252638999984,254.8252638999984,254.8252638999984,254.8252638999984,254.8252638999984,254.8252638999984,254.8252638999984,254.8252638999984,254.8252638999984,254.8252638999984,,001,P013,2025_Feb_08_1443,ConditionRich,2021.2.3,59.93238428374893,
208.75,212.0,41,0.0,Stimuli/Blank.png,0,0.0,0.0,0,90,90,90,,,,,,,,,,,,,208.78293340000164,0.0329334000016388,None,255.57592970000042,255.57592970000042,255.57592970000042,255.57592970000042,255.57592970000042,255.57592970000042,255.57592970000042,255.57592970000042,255.57592970000042,255.57592970000042,,001,P013,2025_Feb_08_1443,ConditionRich,2021.2.3,59.93238428374893,
212.0,212.75,5,0.75,Stimuli/P013/sun_aidrxvbfhxtsusrf.jpg,0,0.0,0.0,0,91,91,91,,,,,,,,,,,,,212.00175780000063,0.0017578000006324146,None,258.7954365000005,258.7954365000005,258.7954365000005,258.7954365000005,258.7954365000005,258.7954365000005,258.7954365000005,258.7954365000005,258.7954365000005,258.7954365000005,,001,P013,2025_Feb_08_1443,ConditionRich,2021.2.3,59.93238428374893,
212.75,216.0,41,0.0,Stimuli/Blank.png,0,0.0,0.0,0,92,92,92,,,,,,,,,,,,,212.75282969999898,0.002829699998983415,None,259.54610279999906,259.54610279999906,259.54610279999906,259.54610279999906,259.54610279999906,259.54610279999906,259.54610279999906,259.54610279999906,259.54610279999906,259.54610279999906,,001,P013,2025_Feb_08_1443,ConditionRich,2021.2.3,59.93238428374893,
216.0,216.75,32,0.75,Stimuli/P013/things_mistletoe_07s.jpg,0,0.0,0.0,0,93,93,93,,,,,,,,,,,,,216.00480049999896,0.004800499998964369,None,262.8156768999979,262.8156768999979,262.8156768999979,262.8156768999979,262.8156768999979,262.8156768999979,262.8156768999979,262.8156768999979,262.8156768999979,262.8156768999979,,001,P013,2025_Feb_08_1443,ConditionRich,2021.2.3,59.93238428374893,
216.75,220.0,41,0.0,Stimuli/Blank.png,0,0.0,0.0,0,94,94,94,,,,,,,,,,,,,216.77268230000118,0.0226823000011791,None,263.56632030000037,263.56632030000037,263.56632030000037,263.56632030000037,263.56632030000037,263.56632030000037,263.56632030000037,263.56632030000037,263.56632030000037,263.56632030000037,,001,P013,2025_Feb_08_1443,ConditionRich,2021.2.3,59.93238428374893,
220.0,220.75,10,0.75,Stimuli/P013/sun_bdhxnzyleoiflyak.jpg,0,0.0,0.0,0,95,95,95,,,,,,,,,,,,,220.00858270000026,0.008582700000260957,None,266.8025197999996,266.8025197999996,266.8025197999996,266.8025197999996,266.8025197999996,266.8025197999996,266.8025197999996,266.8025197999996,266.8025197999996,266.8025197999996,,001,P013,2025_Feb_08_1443,ConditionRich,2021.2.3,59.93238428374893,
220.75,224.0,41,0.0,Stimuli/Blank.png,0,0.0,0.0,0,96,96,96,,,,,,,,,,,,,220.759130800001,0.009130800001003081,None,267.55318439999974,267.55318439999974,267.55318439999974,267.55318439999974,267.55318439999974,267.55318439999974,267.55318439999974,267.55318439999974,267.55318439999974,267.55318439999974,,001,P013,2025_Feb_08_1443,ConditionRich,2021.2.3,59.93238428374893,
224.0,224.75,12,0.75,Stimuli/P013/sun_bjyrrxiwsnbmkbqs.jpg,0,0.0,0.0,0,97,97,97,,,,,,,,,,,,,224.01166540000122,0.011665400001220405,None,270.8060614999995,270.8060614999995,270.8060614999995,270.8060614999995,270.8060614999995,270.8060614999995,270.8060614999995,270.8060614999995,270.8060614999995,270.8060614999995,,001,P013,2025_Feb_08_1443,ConditionRich,2021.2.3,59.93238428374893,
224.75,228.0,41,0.0,Stimuli/Blank.png,0,0.0,0.0,0,98,98,98,,,,,,,,,,,,,224.76399440000023,0.01399440000022878,None,271.55674539999745,271.55674539999745,271.55674539999745,271.55674539999745,271.55674539999745,271.55674539999745,271.55674539999745,271.55674539999745,271.55674539999745,271.55674539999745,,001,P013,2025_Feb_08_1443,ConditionRich,2021.2.3,59.93238428374893,
228.0,228.75,20,0.75,Stimuli/P013/sun_cidodcxikcyrdglc.jpg,0,0.0,0.0,0,99,99,99,,,,,,,,,,,,,228.0001889999985,0.00018899999849963933,None,274.80959489999805,274.80959489999805,274.80959489999805,274.80959489999805,274.80959489999805,274.80959489999805,274.80959489999805,274.80959489999805,274.80959489999805,274.80959489999805,,001,P013,2025_Feb_08_1443,ConditionRich,2021.2.3,59.93238428374893,
228.75,232.0,41,0.0,Stimuli/Blank.png,0,0.0,0.0,0,100,100,100,,,,,,,,,,,,,228.7690017999994,0.019001799999387003,None,275.5780487999982,275.5780487999982,275.5780487999982,275.5780487999982,275.5780487999982,275.5780487999982,275.5780487999982,275.5780487999982,275.5780487999982,275.5780487999982,,001,P013,2025_Feb_08_1443,ConditionRich,2021.2.3,59.93238428374893,
232.0,232.75,40,0.75,Stimuli/P013/things_woman_07s.jpg,0,0.0,0.0,0,101,101,101,,,,,,,,,,,,,232.01986309999847,0.019863099998474354,None,278.81314940000084,278.81314940000084,278.81314940000084,278.81314940000084,278.81314940000084,278.81314940000084,278.81314940000084,278.81314940000084,278.81314940000084,278.81314940000084,,001,P013,2025_Feb_08_1443,ConditionRich,2021.2.3,59.93238428374893,
232.75,236.0,41,0.0,Stimuli/Blank.png,0,0.0,0.0,0,102,102,102,,,,,,,,,,,,,232.75298629999816,0.002986299998156028,None,279.54711730000054,279.54711730000054,279.54711730000054,279.54711730000054,279.54711730000054,279.54711730000054,279.54711730000054,279.54711730000054,279.54711730000054,279.54711730000054,,001,P013,2025_Feb_08_1443,ConditionRich,2021.2.3,59.93238428374893,
236.0,236.75,16,0.75,Stimuli/P013/sun_bsgtkqjrnrvttrax.jpg,0,0.0,0.0,0,103,103,103,,,,,,,,,,,,,236.00763799999913,0.0076379999991331715,None,282.8000011999975,282.8000011999975,282.8000011999975,282.8000011999975,282.8000011999975,282.8000011999975,282.8000011999975,282.8000011999975,282.8000011999975,282.8000011999975,,001,P013,2025_Feb_08_1443,ConditionRich,2021.2.3,59.93238428374893,
236.75,240.0,41,0.0,Stimuli/Blank.png,0,0.0,0.0,0,104,104,104,,,,,,,,,,,,,236.75739659999817,0.0073965999981737696,None,283.55066739999893,283.55066739999893,283.55066739999893,283.55066739999893,283.55066739999893,283.55066739999893,283.55066739999893,283.55066739999893,283.55066739999893,283.55066739999893,,001,P013,2025_Feb_08_1443,ConditionRich,2021.2.3,59.93238428374893,
240.0,240.75,27,0.75,Stimuli/P013/things_face_07s.jpg,0,0.0,0.0,0,105,105,105,,,,,,,,,,,,,240.00988739999957,0.009887399999570334,None,286.8202137999979,286.8202137999979,286.8202137999979,286.8202137999979,286.8202137999979,286.8202137999979,286.8202137999979,286.8202137999979,286.8202137999979,286.8202137999979,,001,P013,2025_Feb_08_1443,ConditionRich,2021.2.3,59.93238428374893,
240.75,244.0,41,0.0,Stimuli/Blank.png,0,0.0,0.0,0,106,106,106,,,,,,,,,,,,,240.77737089999937,0.027370899999368703,None,287.57088069999736,287.57088069999736,287.57088069999736,287.57088069999736,287.57088069999736,287.57088069999736,287.57088069999736,287.57088069999736,287.57088069999736,287.57088069999736,,001,P013,2025_Feb_08_1443,ConditionRich,2021.2.3,59.93238428374893,
244.0,244.75,6,0.75,Stimuli/P013/sun_aoejkkmwkfegacni.jpg,0,0.0,0.0,0,107,107,107,,,,,,,,,,,,,244.01354210000136,0.013542100001359358,None,290.8071787999979,290.8071787999979,290.8071787999979,290.8071787999979,290.8071787999979,290.8071787999979,290.8071787999979,290.8071787999979,290.8071787999979,290.8071787999979,,001,P013,2025_Feb_08_1443,ConditionRich,2021.2.3,59.93238428374893,
244.75,248.0,41,0.0,Stimuli/Blank.png,1,0.25,1.0,0,108,108,108,,,,,,,,,,,,,244.76408069999889,0.014080699998885393,1,291.5577325999984,291.5577325999984,291.5577325999984,291.5577325999984,291.5577325999984,291.5577325999984,291.79127549999976,292.541996699998,291.5577325999984,291.5577325999984,0.8589167999998608,001,P013,2025_Feb_08_1443,ConditionRich,2021.2.3,59.93238428374893,
248.0,248.75,36,0.75,Stimuli/P013/things_seafood_07s.jpg,0,0.0,0.0,0,109,109,109,,,,,,,,,,,,,247.99977930000023,-0.0002206999997724779,None,294.8106255999992,294.8106255999992,294.8106255999992,294.8106255999992,294.8106255999992,294.8106255999992,294.8106255999992,294.8106255999992,294.8106255999992,294.8106255999992,,001,P013,2025_Feb_08_1443,ConditionRich,2021.2.3,59.93238428374893,
248.75,252.0,41,0.0,Stimuli/Blank.png,0,0.0,0.0,0,110,110,110,,,,,,,,,,,,,248.7681119000008,0.01811190000080387,None,295.56128439999884,295.56128439999884,295.56128439999884,295.56128439999884,295.56128439999884,295.56128439999884,295.56128439999884,295.56128439999884,295.56128439999884,295.56128439999884,,001,P013,2025_Feb_08_1443,ConditionRich,2021.2.3,59.93238428374893,
252.0,252.75,28,0.75,Stimuli/P013/things_girl_07s.jpg,0,0.0,0.0,0,111,111,111,,,,,,,,,,,,,252.00458660000004,0.004586600000038743,None,298.79747099999804,298.79747099999804,298.79747099999804,298.79747099999804,298.79747099999804,298.79747099999804,298.79747099999804,298.79747099999804,298.79747099999804,298.79747099999804,,001,P013,2025_Feb_08_1443,ConditionRich,2021.2.3,59.93238428374893,
252.75,256.0,41,0.0,Stimuli/Blank.png,0,0.0,0.0,0,112,112,112,,,,,,,,,,,,,252.7539859999997,0.0039859999997133855,None,299.54813939999804,299.54813939999804,299.54813939999804,299.54813939999804,299.54813939999804,299.54813939999804,299.54813939999804,299.54813939999804,299.54813939999804,299.54813939999804,,001,P013,2025_Feb_08_1443,ConditionRich,2021.2.3,59.93238428374893,
256.0,256.75,3,0.75,Stimuli/P013/sun_aengzsmykwchlrdn.jpg,0,0.0,0.0,0,113,113,113,,,,,,,,,,,,,256.0079681999996,0.007968199999595527,None,302.8177184999986,302.8177184999986,302.8177184999986,302.8177184999986,302.8177184999986,302.8177184999986,302.8177184999986,302.8177184999986,302.8177184999986,302.8177184999986,,001,P013,2025_Feb_08_1443,ConditionRich,2021.2.3,59.93238428374893,
256.75,260.0,41,0.0,Stimuli/Blank.png,1,0.25,1.0,0,114,114,114,,,,,,,,,,,,,256.77421519999916,0.024215199999161996,1,303.5683575000003,303.5683575000003,303.5683575000003,303.5683575000003,303.5683575000003,303.5683575000003,303.80197009999756,304.55260160000034,303.5683575000003,303.5683575000003,1.1061382999978377,001,P013,2025_Feb_08_1443,ConditionRich,2021.2.3,59.93238428374893,
260.0,260.75,13,0.75,Stimuli/P013/sun_bpccpwpohfirajtf.jpg,0,0.0,0.0,0,115,115,115,,,,,,,,,,,,,260.0119841000014,0.011984100001427578,None,306.82125019999876,306.82125019999876,306.82125019999876,306.82125019999876,306.82125019999876,306.82125019999876,306.82125019999876,306.82125019999876,306.82125019999876,306.82125019999876,,001,P013,2025_Feb_08_1443,ConditionRich,2021.2.3,59.93238428374893,
260.75,264.0,41,0.0,Stimuli/Blank.png,0,0.0,0.0,0,116,116,116,,,,,,,,,,,,,260.77835609999966,0.02835609999965527,None,307.57190769999943,307.57190769999943,307.57190769999943,307.57190769999943,307.57190769999943,307.57190769999943,307.57190769999943,307.57190769999943,307.57190769999943,307.57190769999943,,001,P013,2025_Feb_08_1443,ConditionRich,2021.2.3,59.93238428374893,
264.0,264.75,33,0.75,Stimuli/P013/things_piglet_07s.jpg,0,0.0,0.0,0,117,117,117,,,,,,,,,,,,,264.0145224000007,0.014522400000714697,None,310.8247874999979,310.8247874999979,310.8247874999979,310.8247874999979,310.8247874999979,310.8247874999979,310.8247874999979,310.8247874999979,310.8247874999979,310.8247874999979,,001,P013,2025_Feb_08_1443,ConditionRich,2021.2.3,59.93238428374893,
264.75,268.0,41,0.0,Stimuli/Blank.png,0,0.0,0.0,0,118,118,118,,,,,,,,,,,,,264.7819253999987,0.03192539999872679,None,311.5754428,311.5754428,311.5754428,311.5754428,311.5754428,311.5754428,311.5754428,311.5754428,311.5754428,311.5754428,,001,P013,2025_Feb_08_1443,ConditionRich,2021.2.3,59.93238428374893,
268.0,268.75,35,0.75,Stimuli/P013/things_road_sign_07s.jpg,0,0.0,0.0,0,119,119,119,,,,,,,,,,,,,268.0032210999998,0.003221099999791477,None,314.81216329999734,314.81216329999734,314.81216329999734,314.81216329999734,314.81216329999734,314.81216329999734,314.81216329999734,314.81216329999734,314.81216329999734,314.81216329999734,,001,P013,2025_Feb_08_1443,ConditionRich,2021.2.3,59.93238428374893,
268.75,272.0,41,0.0,Stimuli/Blank.png,1,2.25,3.0,0,120,120,120,,,,,,,,,,,,,268.7687325000006,0.018732500000623986,1,315.56230030000006,315.56230030000006,315.56230030000006,315.56230030000006,315.56230030000006,315.56230030000006,317.7976467999979,318.5482658000001,315.56230030000006,315.56230030000006,2.8301879999999073,001,P013,2025_Feb_08_1443,ConditionRich,2021.2.3,59.93238428374893,
272.0,272.75,22,0.75,Stimuli/P013/things_banner_07s.jpg,0,0.0,0.0,0,121,121,121,,,,,,,,,,,,,272.004969900001,0.0049699000010150485,None,318.81519320000007,318.81519320000007,318.81519320000007,318.81519320000007,318.81519320000007,318.81519320000007,318.81519320000007,318.81519320000007,318.81519320000007,318.81519320000007,,001,P013,2025_Feb_08_1443,ConditionRich,2021.2.3,59.93238428374893,
272.75,276.0,41,0.0,Stimuli/Blank.png,0,0.0,0.0,0,122,122,122,,,,,,,,,,,,,272.77292619999935,0.022926199999346863,None,319.56584590000057,319.56584590000057,319.56584590000057,319.56584590000057,319.56584590000057,319.56584590000057,319.56584590000057,319.56584590000057,319.56584590000057,319.56584590000057,,001,P013,2025_Feb_08_1443,ConditionRich,2021.2.3,59.93238428374893,
276.0,292.0,0,0.0,Stimuli/Blank.png,1,1.0,1.75,0,123,123,123,,,,,,,,,,,,,276.00834079999913,0.008340799999132287,1,322.80204389999926,322.80204389999926,322.80204389999926,322.80204389999926,322.80204389999926,322.80204389999926,323.7862349999996,324.5368858999973,322.80204389999926,322.80204389999926,1.4484895000023243,001,P013,2025_Feb_08_1443,ConditionRich,2021.2.3,59.93238428374893,
292.0,292.75,34,0.75,Stimuli/P013/things_radio_07s.jpg,0,0.0,0.0,0,124,124,124,,,,,,,,,,,,,292.0082289999991,0.008228999999118969,None,338.8161986999985,338.8161986999985,338.8161986999985,338.8161986999985,338.8161986999985,338.8161986999985,338.8161986999985,338.8161986999985,338.8161986999985,338.8161986999985,,001,P013,2025_Feb_08_1443,ConditionRich,2021.2.3,59.93238428374893,
292.75,296.0,41,0.0,Stimuli/Blank.png,0,0.0,0.0,0,125,125,125,,,,,,,,,,,,,292.7734710000004,0.02347100000042701,None,339.56686980000086,339.56686980000086,339.56686980000086,339.56686980000086,339.56686980000086,339.56686980000086,339.56686980000086,339.56686980000086,339.56686980000086,339.56686980000086,,001,P013,2025_Feb_08_1443,ConditionRich,2021.2.3,59.93238428374893,
296.0,296.75,9,0.75,Stimuli/P013/sun_bdgwqzttihopmpbf.jpg,0,0.0,0.0,0,126,126,126,,,,,,,,,,,,,296.00911709999855,0.009117099998547928,None,342.8197388999979,342.8197388999979,342.8197388999979,342.8197388999979,342.8197388999979,342.8197388999979,342.8197388999979,342.8197388999979,342.8197388999979,342.8197388999979,,001,P013,2025_Feb_08_1443,ConditionRich,2021.2.3,59.93238428374893,
296.75,300.0,41,0.0,Stimuli/Blank.png,0,0.0,0.0,0,127,127,127,,,,,,,,,,,,,296.77684769999905,0.026847699999052566,None,343.5704095000001,343.5704095000001,343.5704095000001,343.5704095000001,343.5704095000001,343.5704095000001,343.5704095000001,343.5704095000001,343.5704095000001,343.5704095000001,,001,P013,2025_Feb_08_1443,ConditionRich,2021.2.3,59.93238428374893,
300.0,300.75,8,0.75,Stimuli/P013/sun_auqrilekgmdmrncq.jpg,0,0.0,0.0,0,128,128,128,,,,,,,,,,,,,300.0146806999983,0.014680699998280033,None,346.8232743999979,346.8232743999979,346.8232743999979,346.8232743999979,346.8232743999979,346.8232743999979,346.8232743999979,346.8232743999979,346.8232743999979,346.8232743999979,,001,P013,2025_Feb_08_1443,ConditionRich,2021.2.3,59.93238428374893,
300.75,304.0,41,0.0,Stimuli/Blank.png,1,2.25,3.0,0,129,129,129,,,,,,,,,,,,,300.7802023000004,0.03020230000038282,1,347.57393189999857,347.57393189999857,347.57393189999857,347.57393189999857,347.57393189999857,347.57393189999857,349.8092504999986,350.5599454999974,347.57393189999857,347.57393189999857,2.670939100000396,001,P013,2025_Feb_08_1443,ConditionRich,2021.2.3,59.93238428374893,
304.0,304.75,15,0.75,Stimuli/P013/sun_brezwczwwllviogu.jpg,0,0.0,0.0,0,130,130,130,,,,,,,,,,,,,303.99987189999956,-0.0001281000004382804,None,350.8101311999999,350.8101311999999,350.8101311999999,350.8101311999999,350.8101311999999,350.8101311999999,350.8101311999999,350.8101311999999,350.8101311999999,350.8101311999999,,001,P013,2025_Feb_08_1443,ConditionRich,2021.2.3,59.93238428374893,
304.75,308.0,41,0.0,Stimuli/Blank.png,0,0.0,0.0,0,131,131,131,,,,,,,,,,,,,304.7670720999995,0.01707209999949555,None,351.56078889999844,351.56078889999844,351.56078889999844,351.56078889999844,351.56078889999844,351.56078889999844,351.56078889999844,351.56078889999844,351.56078889999844,351.56078889999844,,001,P013,2025_Feb_08_1443,ConditionRich,2021.2.3,59.93238428374893,
308.0,308.75,17,0.75,Stimuli/P013/sun_bsguftphqnrkbedw.jpg,0,0.0,0.0,0,132,132,132,,,,,,,,,,,,,308.0034510000005,0.0034510000004956964,None,354.796988099999,354.796988099999,354.796988099999,354.796988099999,354.796988099999,354.796988099999,354.796988099999,354.796988099999,354.796988099999,354.796988099999,,001,P013,2025_Feb_08_1443,ConditionRich,2021.2.3,59.93238428374893,
308.75,312.0,41,0.0,Stimuli/Blank.png,0,0.0,0.0,0,133,133,133,,,,,,,,,,,,,308.7533594999986,0.0033594999986235052,None,355.54765589999806,355.54765589999806,355.54765589999806,355.54765589999806,355.54765589999806,355.54765589999806,355.54765589999806,355.54765589999806,355.54765589999806,355.54765589999806,,001,P013,2025_Feb_08_1443,ConditionRich,2021.2.3,59.93238428374893,
312.0,312.75,31,0.75,Stimuli/P013/things_mask_07s.jpg,0,0.0,0.0,0,134,134,134,,,,,,,,,,,,,312.00657819999833,0.006578199998330092,None,358.80053190000035,358.80053190000035,358.80053190000035,358.80053190000035,358.80053190000035,358.80053190000035,358.80053190000035,358.80053190000035,358.80053190000035,358.80053190000035,,001,P013,2025_Feb_08_1443,ConditionRich,2021.2.3,59.93238428374893,
312.75,316.0,41,0.0,Stimuli/Blank.png,0,0.0,0.0,0,135,135,135,,,,,,,,,,,,,312.75756120000005,0.007561200000054669,None,359.55120069999975,359.55120069999975,359.55120069999975,359.55120069999975,359.55120069999975,359.55120069999975,359.55120069999975,359.55120069999975,359.55120069999975,359.55120069999975,,001,P013,2025_Feb_08_1443,ConditionRich,2021.2.3,59.93238428374893,
316.0,316.75,30,0.75,Stimuli/P013/things_man_07s.jpg,0,0.0,0.0,0,136,136,136,,,,,,,,,,,,,316.0103734000004,0.010373400000389665,None,362.82080359999964,362.82080359999964,362.82080359999964,362.82080359999964,362.82080359999964,362.82080359999964,362.82080359999964,362.82080359999964,362.82080359999964,362.82080359999964,,001,P013,2025_Feb_08_1443,ConditionRich,2021.2.3,59.93238428374893,
316.75,320.0,41,0.0,Stimuli/Blank.png,1,1.25,2.0,0,137,137,137,,,,,,,,,,,,,316.77816489999896,0.02816489999895566,1,363.57146329999887,363.57146329999887,363.57146329999887,363.57146329999887,363.57146329999887,363.57146329999887,364.8058452000005,365.5565609999976,363.57146329999887,363.57146329999887,1.693062900001678,001,P013,2025_Feb_08_1443,ConditionRich,2021.2.3,59.93238428374893,
320.0,320.75,2,0.75,Stimuli/P013/sun_adotnsaifoooswkf.jpg,0,0.0,0.0,0,138,138,138,,,,,,,,,,,,,320.01333499999964,0.013334999999642605,None,366.80758579999747,366.80758579999747,366.80758579999747,366.80758579999747,366.80758579999747,366.80758579999747,366.80758579999747,366.80758579999747,366.80758579999747,366.80758579999747,,001,P013,2025_Feb_08_1443,ConditionRich,2021.2.3,59.93238428374893,
320.75,324.0,41,0.0,Stimuli/Blank.png,0,0.0,0.0,0,139,139,139,,,,,,,,,,,,,320.7646639000013,0.014663900001323782,None,367.5582699000006,367.5582699000006,367.5582699000006,367.5582699000006,367.5582699000006,367.5582699000006,367.5582699000006,367.5582699000006,367.5582699000006,367.5582699000006,,001,P013,2025_Feb_08_1443,ConditionRich,2021.2.3,59.93238428374893,
324.0,324.75,1,0.75,Stimuli/P013/sun_adkmgqclfrkhfxbd.jpg,0,0.0,0.0,0,140,140,140,,,,,,,,,,,,,324.0024298999997,0.002429899999697227,None,370.8111534999989,370.8111534999989,370.8111534999989,370.8111534999989,370.8111534999989,370.8111534999989,370.8111534999989,370.8111534999989,370.8111534999989,370.8111534999989,,001,P013,2025_Feb_08_1443,ConditionRich,2021.2.3,59.93238428374893,
324.75,328.0,41,0.0,Stimuli/Blank.png,0,0.0,0.0,0,141,141,141,,,,,,,,,,,,,324.7683889,0.018388899999990826,None,371.56182889999764,371.56182889999764,371.56182889999764,371.56182889999764,371.56182889999764,371.56182889999764,371.56182889999764,371.56182889999764,371.56182889999764,371.56182889999764,,001,P013,2025_Feb_08_1443,ConditionRich,2021.2.3,59.93238428374893,
328.0,328.75,21,0.75,Stimuli/P013/things_baby_07s.jpg,0,0.0,0.0,0,142,142,142,,,,,,,,,,,,,328.00391509999827,0.003915099998266669,None,374.79805249999845,374.79805249999845,374.79805249999845,374.79805249999845,374.79805249999845,374.79805249999845,374.79805249999845,374.79805249999845,374.79805249999845,374.79805249999845,,001,P013,2025_Feb_08_1443,ConditionRich,2021.2.3,59.93238428374893,
328.75,332.0,41,0.0,Stimuli/Blank.png,0,0.0,0.0,0,143,143,143,,,,,,,,,,,,,328.75743499999953,0.00743499999953201,None,375.5653607999993,375.5653607999993,375.5653607999993,375.5653607999993,375.5653607999993,375.5653607999993,375.5653607999993,375.5653607999993,375.5653607999993,375.5653607999993,,001,P013,2025_Feb_08_1443,ConditionRich,2021.2.3,59.93238428374893,
332.0,332.75,23,0.75,Stimuli/P013/things_bug_07s.jpg,0,0.0,0.0,0,144,144,144,,,,,,,,,,,,,332.0241414999982,0.02414149999822257,None,378.83490289999827,378.83490289999827,378.83490289999827,378.83490289999827,378.83490289999827,378.83490289999827,378.83490289999827,378.83490289999827,378.83490289999827,378.83490289999827,,001,P013,2025_Feb_08_1443,ConditionRich,2021.2.3,59.93238428374893,
332.75,336.0,41,0.0,Stimuli/Blank.png,0,0.0,0.0,0,145,145,145,,,,,,,,,,,,,332.77460670000073,0.024606700000731507,None,379.5689636999996,379.5689636999996,379.5689636999996,379.5689636999996,379.5689636999996,379.5689636999996,379.5689636999996,379.5689636999996,379.5689636999996,379.5689636999996,,001,P013,2025_Feb_08_1443,ConditionRich,2021.2.3,59.93238428374893,
336.0,336.75,14,0.75,Stimuli/P013/sun_bqhfterhwnqrbnzg.jpg,1,0.0,0.75,0,146,146,146,,,,,,,,,,,,,336.01089879999927,0.010898799999267794,1,382.80509170000005,382.80509170000005,382.80509170000005,382.80509170000005,382.80509170000005,382.80509170000005,382.80509170000005,383.53912280000077,382.80509170000005,382.80509170000005,0.6365399999995134,001,P013,2025_Feb_08_1443,ConditionRich,2021.2.3,59.93238428374893,
336.75,340.0,41,0.0,Stimuli/Blank.png,0,0.0,0.0,0,147,147,147,,,,,,,,,,,,,336.7628326000013,0.012832600001274841,None,383.5557568000004,383.5557568000004,383.5557568000004,383.5557568000004,383.5557568000004,383.5557568000004,383.5557568000004,383.5557568000004,383.5557568000004,383.5557568000004,,001,P013,2025_Feb_08_1443,ConditionRich,2021.2.3,59.93238428374893,
340.0,340.75,4,0.75,Stimuli/P013/sun_afgoiykvchxqotyz.jpg,0,0.0,0.0,0,148,148,148,,,,,,,,,,,,,339.9988110000013,-0.0011889999987033661,None,386.8086003999997,386.8086003999997,386.8086003999997,386.8086003999997,386.8086003999997,386.8086003999997,386.8086003999997,386.8086003999997,386.8086003999997,386.8086003999997,,001,P013,2025_Feb_08_1443,ConditionRich,2021.2.3,59.93238428374893,
340.75,344.0,41,0.0,Stimuli/Blank.png,0,0.0,0.0,0,149,149,149,,,,,,,,,,,,,340.76522040000054,0.015220400000544032,None,387.55936010000005,387.55936010000005,387.55936010000005,387.55936010000005,387.55936010000005,387.55936010000005,387.55936010000005,387.55936010000005,387.55936010000005,387.55936010000005,,001,P013,2025_Feb_08_1443,ConditionRich,2021.2.3,59.93238428374893,
344.0,344.75,24,0.75,Stimuli/P013/things_bungee_07s.jpg,0,0.0,0.0,0,150,150,150,,,,,,,,,,,,,344.0019915999983,0.001991599998291349,None,390.81217339999785,390.81217339999785,390.81217339999785,390.81217339999785,390.81217339999785,390.81217339999785,390.81217339999785,390.81217339999785,390.81217339999785,390.81217339999785,,001,P013,2025_Feb_08_1443,ConditionRich,2021.2.3,59.93238428374893,
344.75,348.0,41,0.0,Stimuli/Blank.png,0,0.0,0.0,0,151,151,151,,,,,,,,,,,,,344.76948139999877,0.0194813999987673,None,391.5628288000007,391.5628288000007,391.5628288000007,391.5628288000007,391.5628288000007,391.5628288000007,391.5628288000007,391.5628288000007,391.5628288000007,391.5628288000007,,001,P013,2025_Feb_08_1443,ConditionRich,2021.2.3,59.93238428374893,
348.0,348.75,26,0.75,Stimuli/P013/things_cougar_07s.jpg,0,0.0,0.0,0,152,152,152,,,,,,,,,,,,,348.0055844000017,0.0055844000016804785,None,394.81571260000055,394.81571260000055,394.81571260000055,394.81571260000055,394.81571260000055,394.81571260000055,394.81571260000055,394.81571260000055,394.81571260000055,394.81571260000055,,001,P013,2025_Feb_08_1443,ConditionRich,2021.2.3,59.93238428374893,
348.75,352.0,41,0.0,Stimuli/Blank.png,1,0.25,1.0,0,153,153,153,,,,,,,,,,,,,348.77349740000136,0.023497400001360802,1,395.5663777000009,395.5663777000009,395.5663777000009,395.5663777000009,395.5663777000009,395.5663777000009,395.79994299999817,396.55057379999926,395.5663777000009,395.5663777000009,1.0921816999980365,001,P013,2025_Feb_08_1443,ConditionRich,2021.2.3,59.93238428374893,
352.0,352.75,11,0.75,Stimuli/P013/sun_bfyxzbjsvqsobbky.jpg,0,0.0,0.0,0,154,154,154,,,,,,,,,,,,,352.0086534000002,0.008653400000184774,None,398.8025734999974,398.8025734999974,398.8025734999974,398.8025734999974,398.8025734999974,398.8025734999974,398.8025734999974,398.8025734999974,398.8025734999974,398.8025734999974,,001,P013,2025_Feb_08_1443,ConditionRich,2021.2.3,59.93238428374893,
352.75,356.0,41,0.0,Stimuli/Blank.png,0,0.0,0.0,0,155,155,155,,,,,,,,,,,,,352.7598435,0.009843499999988126,None,399.5531970999982,399.5531970999982,399.5531970999982,399.5531970999982,399.5531970999982,399.5531970999982,399.5531970999982,399.5531970999982,399.5531970999982,399.5531970999982,,001,P013,2025_Feb_08_1443,ConditionRich,2021.2.3,59.93238428374893,
356.0,356.75,25,0.75,Stimuli/P013/things_cashew_07s.jpg,0,0.0,0.0,0,156,156,156,,,,,,,,,,,,,356.01248699999996,0.01248699999996461,None,402.8061065999973,402.8061065999973,402.8061065999973,402.8061065999973,402.8061065999973,402.8061065999973,402.8061065999973,402.8061065999973,402.8061065999973,402.8061065999973,,001,P013,2025_Feb_08_1443,ConditionRich,2021.2.3,59.93238428374893,
356.75,360.0,41,0.0,Stimuli/Blank.png,0,0.0,0.0,0,157,157,157,,,,,,,,,,,,,356.76319019999937,0.013190199999371544,None,403.55677809999906,403.55677809999906,403.55677809999906,403.55677809999906,403.55677809999906,403.55677809999906,403.55677809999906,403.55677809999906,403.55677809999906,403.55677809999906,,001,P013,2025_Feb_08_1443,ConditionRich,2021.2.3,59.93238428374893,
360.0,360.75,38,0.75,Stimuli/P013/things_spark_plug_07s.jpg,0,0.0,0.0,0,158,158,158,,,,,,,,,,,,,359.99888120000105,-0.0011187999989488162,None,406.7929624999997,406.7929624999997,406.7929624999997,406.7929624999997,406.7929624999997,406.7929624999997,406.7929624999997,406.7929624999997,406.7929624999997,406.7929624999997,,001,P013,2025_Feb_08_1443,ConditionRich,2021.2.3,59.93238428374893,
360.75,364.0,41,0.0,Stimuli/Blank.png,0,0.0,0.0,0,159,159,159,,,,,,,,,,,,,360.7508319000008,0.0008319000007759314,None,407.5436396999976,407.5436396999976,407.5436396999976,407.5436396999976,407.5436396999976,407.5436396999976,407.5436396999976,407.5436396999976,407.5436396999976,407.5436396999976,,001,P013,2025_Feb_08_1443,ConditionRich,2021.2.3,59.93238428374893,
364.0,364.75,37,0.75,Stimuli/P013/things_slug_07s.jpg,0,0.0,0.0,0,160,160,160,,,,,,,,,,,,,364.00230069999816,0.0023006999981589615,None,410.796508899999,410.796508899999,410.796508899999,410.796508899999,410.796508899999,410.796508899999,410.796508899999,410.796508899999,410.796508899999,410.796508899999,,001,P013,2025_Feb_08_1443,ConditionRich,2021.2.3,59.93238428374893,
364.75,368.0,41,0.0,Stimuli/Blank.png,0,0.0,0.0,0,161,161,161,,,,,,,,,,,,,364.7529590000013,0.0029590000012831297,None,411.5471699000009,411.5471699000009,411.5471699000009,411.5471699000009,411.5471699000009,411.5471699000009,411.5471699000009,411.5471699000009,411.5471699000009,411.5471699000009,,001,P013,2025_Feb_08_1443,ConditionRich,2021.2.3,59.93238428374893,
368.0,368.75,29,0.75,Stimuli/P013/things_iguana_07s.jpg,0,0.0,0.0,0,162,162,162,,,,,,,,,,,,,368.0087864999987,0.008786499998677755,None,414.81674179999754,414.81674179999754,414.81674179999754,414.81674179999754,414.81674179999754,414.81674179999754,414.81674179999754,414.81674179999754,414.81674179999754,414.81674179999754,,001,P013,2025_Feb_08_1443,ConditionRich,2021.2.3,59.93238428374893,
368.75,372.0,41,0.0,Stimuli/Blank.png,0,0.0,0.0,0,163,163,163,,,,,,,,,,,,,368.77432860000044,0.024328600000444567,None,415.5673988999988,415.5673988999988,415.5673988999988,415.5673988999988,415.5673988999988,415.5673988999988,415.5673988999988,415.5673988999988,415.5673988999988,415.5673988999988,,001,P013,2025_Feb_08_1443,ConditionRich,2021.2.3,59.93238428374893,
372.0,388.0,0,0.0,Stimuli/Blank.png,1,3.0,3.75,0,164,164,164,,,,,,,,,,,,,372.01003910000145,0.010039100001449697,1,418.8036694000002,418.8036694000002,418.8036694000002,418.8036694000002,418.8036694000002,418.8036694000002,421.78955359999964,422.54022110000005,418.8036694000002,418.8036694000002,3.672186400002829,001,P013,2025_Feb_08_1443,ConditionRich,2021.2.3,59.93238428374893,
