eventStartTime,eventEndTime,eventCond,imSize,imFile,responseEvent,fixRespStart,fixRespEnd,Events.thisRepN,Events.thisTrialN,Events.thisN,Events.thisIndex,Instructions.started,Instructions.stopped,participantReadyResponse.keys,participantReadyResponse.rt,participantReadyResponse.started,participantReadyResponse.stopped,startWaitforTrigger,triggerResponse.keys,triggerResponse.rt,triggerResponse.started,triggerResponse.stopped,globalTimer,actualStartTime,startTimingDiff,participantResponse.keys,participantResponse.started,participantResponse.stopped,image.started,image.stopped,fixationOutside.started,fixationOutside.stopped,fixationResponse.started,fixationResponse.stopped,fixationInside.started,fixationInside.stopped,participantResponse.rt,session,participant,date,expName,psychopyVersion,frameRate,
,,,,,,,,,,,,18.659163000000262,None,1,15.09129380000013,18.659163000000262,None,,,,,,,,,,,,,,,,,,,,,007,P013,2025_Feb_08_1540,ConditionRich,2021.2.3,59.93920965427136,
,,,,,,,,,,,,,,,,,,33.758414800002356,5,15.154483199999959,33.770893900000374,None,,,,,,,,,,,,,,,,007,P013,2025_Feb_08_1540,ConditionRich,2021.2.3,59.93920965427136,
0.0,4.0,0,0.0,Stimuli/Blank.png,0,0.0,0.0,0,0,0,0,,,,,,,,,,,,48.93775160000223,0.040844499999366235,0.040844499999366235,None,49.001036900001054,None,49.001036900001054,None,49.001036900001054,None,49.001036900001054,49.001036900001054,49.001036900001054,None,,007,P013,2025_Feb_08_1540,ConditionRich,2021.2.3,59.93920965427136,
4.0,4.75,19,0.75,Stimuli/P013/sun_buphlelowxjnoygy.jpg,0,0.0,0.0,0,1,1,1,,,,,,,,,,,,,4.020115399998758,0.02011539999875822,None,52.97147270000278,52.97147270000278,52.97147270000278,52.97147270000278,52.97147270000278,52.97147270000278,52.97147270000278,52.97147270000278,52.97147270000278,52.97147270000278,,007,P013,2025_Feb_08_1540,ConditionRich,2021.2.3,59.93920965427136,
4.75,8.0,41,0.0,Stimuli/Blank.png,0,0.0,0.0,0,2,2,2,,,,,,,,,,,,,4.753456099999312,0.0034560999993118457,None,53.705513200002315,53.705513200002315,53.705513200002315,53.705513200002315,53.705513200002315,53.705513200002315,53.705513200002315,53.705513200002315,53.705513200002315,53.705513200002315,,007,P013,2025_Feb_08_1540,ConditionRich,2021.2.3,59.93920965427136,
8.0,8.75,27,0.75,Stimuli/P013/things_face_07s.jpg,0,0.0,0.0,0,3,3,3,,,,,,,,,,,,,8.007774599998811,0.007774599998811027,None,56.974747899999784,56.974747899999784,56.974747899999784,56.974747899999784,56.974747899999784,56.974747899999784,56.974747899999784,56.974747899999784,56.974747899999784,56.974747899999784,,007,P013,2025_Feb_08_1540,ConditionRich,2021.2.3,59.93920965427136,
8.75,12.0,41,0.0,Stimuli/Blank.png,0,0.0,0.0,0,4,4,4,,,,,,,,,,,,,8.77306409999801,0.023064099998009624,None,57.7254197000002,57.7254197000002,57.7254197000002,57.7254197000002,57.7254197000002,57.7254197000002,57.7254197000002,57.7254197000002,57.7254197000002,57.7254197000002,,007,P013,2025_Feb_08_1540,ConditionRich,2021.2.3,59.93920965427136,
12.0,12.75,4,0.75,Stimuli/P013/sun_afgoiykvchxqotyz.jpg,0,0.0,0.0,0,5,5,5,,,,,,,,,,,,,12.010168500000873,0.010168500000872882,None,60.97830570000224,60.97830570000224,60.97830570000224,60.97830570000224,60.97830570000224,60.97830570000224,60.97830570000224,60.97830570000224,60.97830570000224,60.97830570000224,,007,P013,2025_Feb_08_1540,ConditionRich,2021.2.3,59.93920965427136,
12.75,16.0,41,0.0,Stimuli/Blank.png,0,0.0,0.0,0,6,6,6,,,,,,,,,,,,,12.777002200000425,0.027002200000424637,None,61.72895350000181,61.72895350000181,61.72895350000181,61.72895350000181,61.72895350000181,61.72895350000181,61.72895350000181,61.72895350000181,61.72895350000181,61.72895350000181,,007,P013,2025_Feb_08_1540,ConditionRich,2021.2.3,59.93920965427136,
16.0,16.75,22,0.75,Stimuli/P013/things_banner_07s.jpg,0,0.0,0.0,0,7,7,7,,,,,,,,,,,,,16.01333909999812,0.013339099998120219,None,64.9651522000022,64.9651522000022,64.9651522000022,64.9651522000022,64.9651522000022,64.9651522000022,64.9651522000022,64.9651522000022,64.9651522000022,64.9651522000022,,007,P013,2025_Feb_08_1540,ConditionRich,2021.2.3,59.93920965427136,
16.75,20.0,41,0.0,Stimuli/Blank.png,0,0.0,0.0,0,8,8,8,,,,,,,,,,,,,16.764645200000814,0.01464520000081393,None,65.71597860000111,65.71597860000111,65.71597860000111,65.71597860000111,65.71597860000111,65.71597860000111,65.71597860000111,65.71597860000111,65.71597860000111,65.71597860000111,,007,P013,2025_Feb_08_1540,ConditionRich,2021.2.3,59.93920965427136,
20.0,20.75,9,0.75,Stimuli/P013/sun_bdgwqzttihopmpbf.jpg,0,0.0,0.0,0,9,9,9,,,,,,,,,,,,,19.99985309999829,-0.00014690000170958228,None,68.96869830000287,68.96869830000287,68.96869830000287,68.96869830000287,68.96869830000287,68.96869830000287,68.96869830000287,68.96869830000287,68.96869830000287,68.96869830000287,,007,P013,2025_Feb_08_1540,ConditionRich,2021.2.3,59.93920965427136,
20.75,24.0,41,0.0,Stimuli/Blank.png,0,0.0,0.0,0,10,10,10,,,,,,,,,,,,,20.76819279999836,0.018192799998359988,None,69.73605590000079,69.73605590000079,69.73605590000079,69.73605590000079,69.73605590000079,69.73605590000079,69.73605590000079,69.73605590000079,69.73605590000079,69.73605590000079,,007,P013,2025_Feb_08_1540,ConditionRich,2021.2.3,59.93920965427136,
24.0,24.75,37,0.75,Stimuli/P013/things_slug_07s.jpg,1,0.0,0.75,0,11,11,11,,,,,,,,,,,,,24.022185900001205,0.022185900001204573,1,72.98891130000266,72.98891130000266,72.98891130000266,72.98891130000266,72.98891130000266,72.98891130000266,72.98891130000266,None,72.98891130000266,72.98891130000266,0.4904999000027601,007,P013,2025_Feb_08_1540,ConditionRich,2021.2.3,59.93920965427136,
24.75,28.0,41,0.0,Stimuli/Blank.png,0,0.0,0.0,0,12,12,12,,,,,,,,,,,,,24.773066999998264,0.023066999998263782,None,73.73958140000104,73.73958140000104,73.73958140000104,73.73958140000104,73.73958140000104,73.73958140000104,73.73958140000104,73.73958140000104,73.73958140000104,73.73958140000104,,007,P013,2025_Feb_08_1540,ConditionRich,2021.2.3,59.93920965427136,
28.0,28.75,12,0.75,Stimuli/P013/sun_bjyrrxiwsnbmkbqs.jpg,0,0.0,0.0,0,13,13,13,,,,,,,,,,,,,28.02337550000084,0.023375500000838656,None,76.97576599999957,76.97576599999957,76.97576599999957,76.97576599999957,76.97576599999957,76.97576599999957,76.97576599999957,76.97576599999957,76.97576599999957,76.97576599999957,,007,P013,2025_Feb_08_1540,ConditionRich,2021.2.3,59.93920965427136,
28.75,32.0,41,0.0,Stimuli/Blank.png,0,0.0,0.0,0,14,14,14,,,,,,,,,,,,,28.758592999998655,0.008592999998654705,None,77.7264565000005,77.7264565000005,77.7264565000005,77.7264565000005,77.7264565000005,77.7264565000005,77.7264565000005,77.7264565000005,77.7264565000005,77.7264565000005,,007,P013,2025_Feb_08_1540,ConditionRich,2021.2.3,59.93920965427136,
32.0,32.75,21,0.75,Stimuli/P013/things_baby_07s.jpg,0,0.0,0.0,0,15,15,15,,,,,,,,,,,,,32.027556599998206,0.027556599998206366,None,80.9793064000005,80.9793064000005,80.9793064000005,80.9793064000005,80.9793064000005,80.9793064000005,80.9793064000005,80.9793064000005,80.9793064000005,80.9793064000005,,007,P013,2025_Feb_08_1540,ConditionRich,2021.2.3,59.93920965427136,
32.75,36.0,41,0.0,Stimuli/Blank.png,0,0.0,0.0,0,16,16,16,,,,,,,,,,,,,32.760878400000365,0.010878400000365218,None,81.7133415999997,81.7133415999997,81.7133415999997,81.7133415999997,81.7133415999997,81.7133415999997,81.7133415999997,81.7133415999997,81.7133415999997,81.7133415999997,,007,P013,2025_Feb_08_1540,ConditionRich,2021.2.3,59.93920965427136,
36.0,36.75,16,0.75,Stimuli/P013/sun_bsgtkqjrnrvttrax.jpg,0,0.0,0.0,0,17,17,17,,,,,,,,,,,,,36.01453079999919,0.014530799999192823,None,84.96616690000155,84.96616690000155,84.96616690000155,84.96616690000155,84.96616690000155,84.96616690000155,84.96616690000155,84.96616690000155,84.96616690000155,84.96616690000155,,007,P013,2025_Feb_08_1540,ConditionRich,2021.2.3,59.93920965427136,
36.75,40.0,41,0.0,Stimuli/Blank.png,0,0.0,0.0,0,18,18,18,,,,,,,,,,,,,36.7675347000004,0.017534700000396697,None,85.73351950000142,85.73351950000142,85.73351950000142,85.73351950000142,85.73351950000142,85.73351950000142,85.73351950000142,85.73351950000142,85.73351950000142,85.73351950000142,,007,P013,2025_Feb_08_1540,ConditionRich,2021.2.3,59.93920965427136,
40.0,40.75,32,0.75,Stimuli/P013/things_mistletoe_07s.jpg,0,0.0,0.0,0,19,19,19,,,,,,,,,,,,,40.017619399997784,0.017619399997784058,None,88.96970910000164,88.96970910000164,88.96970910000164,88.96970910000164,88.96970910000164,88.96970910000164,88.96970910000164,88.96970910000164,88.96970910000164,88.96970910000164,,007,P013,2025_Feb_08_1540,ConditionRich,2021.2.3,59.93920965427136,
40.75,44.0,41,0.0,Stimuli/Blank.png,0,0.0,0.0,0,20,20,20,,,,,,,,,,,,,40.7521138000011,0.002113800001097843,None,89.70369879999998,89.70369879999998,89.70369879999998,89.70369879999998,89.70369879999998,89.70369879999998,89.70369879999998,89.70369879999998,89.70369879999998,89.70369879999998,,007,P013,2025_Feb_08_1540,ConditionRich,2021.2.3,59.93920965427136,
44.0,44.75,3,0.75,Stimuli/P013/sun_aengzsmykwchlrdn.jpg,0,0.0,0.0,0,21,21,21,,,,,,,,,,,,,44.004167200000666,0.004167200000665616,None,92.95656820000295,92.95656820000295,92.95656820000295,92.95656820000295,92.95656820000295,92.95656820000295,92.95656820000295,92.95656820000295,92.95656820000295,92.95656820000295,,007,P013,2025_Feb_08_1540,ConditionRich,2021.2.3,59.93920965427136,
44.75,48.0,41,0.0,Stimuli/Blank.png,0,0.0,0.0,0,22,22,22,,,,,,,,,,,,,44.756455200000346,0.00645520000034594,None,93.70724520000294,93.70724520000294,93.70724520000294,93.70724520000294,93.70724520000294,93.70724520000294,93.70724520000294,93.70724520000294,93.70724520000294,93.70724520000294,,007,P013,2025_Feb_08_1540,ConditionRich,2021.2.3,59.93920965427136,
48.0,48.75,23,0.75,Stimuli/P013/things_bug_07s.jpg,0,0.0,0.0,0,23,23,23,,,,,,,,,,,,,48.00810369999817,0.008103699998173397,None,96.96010810000007,96.96010810000007,96.96010810000007,96.96010810000007,96.96010810000007,96.96010810000007,96.96010810000007,96.96010810000007,96.96010810000007,96.96010810000007,,007,P013,2025_Feb_08_1540,ConditionRich,2021.2.3,59.93920965427136,
48.75,52.0,41,0.0,Stimuli/Blank.png,0,0.0,0.0,0,24,24,24,,,,,,,,,,,,,48.7591422000005,0.009142200000496814,None,97.71084850000261,97.71084850000261,97.71084850000261,97.71084850000261,97.71084850000261,97.71084850000261,97.71084850000261,97.71084850000261,97.71084850000261,97.71084850000261,,007,P013,2025_Feb_08_1540,ConditionRich,2021.2.3,59.93920965427136,
52.0,52.75,34,0.75,Stimuli/P013/things_radio_07s.jpg,0,0.0,0.0,0,25,25,25,,,,,,,,,,,,,52.01195540000117,0.011955400001170347,None,100.96365309999965,100.96365309999965,100.96365309999965,100.96365309999965,100.96365309999965,100.96365309999965,100.96365309999965,100.96365309999965,100.96365309999965,100.96365309999965,,007,P013,2025_Feb_08_1540,ConditionRich,2021.2.3,59.93920965427136,
52.75,56.0,41,0.0,Stimuli/Blank.png,0,0.0,0.0,0,26,26,26,,,,,,,,,,,,,52.76210469999933,0.01210469999932684,None,101.7143051000021,101.7143051000021,101.7143051000021,101.7143051000021,101.7143051000021,101.7143051000021,101.7143051000021,101.7143051000021,101.7143051000021,101.7143051000021,,007,P013,2025_Feb_08_1540,ConditionRich,2021.2.3,59.93920965427136,
56.0,56.75,10,0.75,Stimuli/P013/sun_bdhxnzyleoiflyak.jpg,0,0.0,0.0,0,27,27,27,,,,,,,,,,,,,56.01607689999946,0.016076899999461602,None,104.98388040000282,104.98388040000282,104.98388040000282,104.98388040000282,104.98388040000282,104.98388040000282,104.98388040000282,104.98388040000282,104.98388040000282,104.98388040000282,,007,P013,2025_Feb_08_1540,ConditionRich,2021.2.3,59.93920965427136,
56.75,60.0,41,0.0,Stimuli/Blank.png,0,0.0,0.0,0,28,28,28,,,,,,,,,,,,,56.767644600000494,0.017644600000494393,None,105.73454130000027,105.73454130000027,105.73454130000027,105.73454130000027,105.73454130000027,105.73454130000027,105.73454130000027,105.73454130000027,105.73454130000027,105.73454130000027,,007,P013,2025_Feb_08_1540,ConditionRich,2021.2.3,59.93920965427136,
60.0,60.75,11,0.75,Stimuli/P013/sun_bfyxzbjsvqsobbky.jpg,0,0.0,0.0,0,29,29,29,,,,,,,,,,,,,60.018980900000315,0.01898090000031516,None,108.97073100000125,108.97073100000125,108.97073100000125,108.97073100000125,108.97073100000125,108.97073100000125,108.97073100000125,108.97073100000125,108.97073100000125,108.97073100000125,,007,P013,2025_Feb_08_1540,ConditionRich,2021.2.3,59.93920965427136,
60.75,64.0,41,0.0,Stimuli/Blank.png,1,1.25,2.0,0,30,30,30,,,,,,,,,,,,,60.75378450000062,0.003784500000620028,1,109.72141100000226,109.72141100000226,109.72141100000226,109.72141100000226,109.72141100000226,109.72141100000226,110.93910959999994,111.68980039999951,109.72141100000226,109.72141100000226,1.605020200000581,007,P013,2025_Feb_08_1540,ConditionRich,2021.2.3,59.93920965427136,
64.0,64.75,30,0.75,Stimuli/P013/things_man_07s.jpg,0,0.0,0.0,0,31,31,31,,,,,,,,,,,,,64.02193690000058,0.021936900000582682,None,112.9742753999999,112.9742753999999,112.9742753999999,112.9742753999999,112.9742753999999,112.9742753999999,112.9742753999999,112.9742753999999,112.9742753999999,112.9742753999999,,007,P013,2025_Feb_08_1540,ConditionRich,2021.2.3,59.93920965427136,
64.75,68.0,41,0.0,Stimuli/Blank.png,1,1.25,2.0,0,32,32,32,,,,,,,,,,,,,64.7566020000013,0.006602000001294073,1,113.70825909999985,113.70825909999985,113.70825909999985,113.70825909999985,113.70825909999985,113.70825909999985,114.94268740000189,115.69334119999985,113.70825909999985,113.70825909999985,1.6554001000004064,007,P013,2025_Feb_08_1540,ConditionRich,2021.2.3,59.93920965427136,
68.0,68.75,5,0.75,Stimuli/P013/sun_aidrxvbfhxtsusrf.jpg,0,0.0,0.0,0,33,33,33,,,,,,,,,,,,,68.0102509999997,0.010250999999698251,None,116.96113030000197,116.96113030000197,116.96113030000197,116.96113030000197,116.96113030000197,116.96113030000197,116.96113030000197,116.96113030000197,116.96113030000197,116.96113030000197,,007,P013,2025_Feb_08_1540,ConditionRich,2021.2.3,59.93920965427136,
68.75,72.0,41,0.0,Stimuli/Blank.png,0,0.0,0.0,0,34,34,34,,,,,,,,,,,,,68.75936200000069,0.009362000000692206,None,117.71188460000121,117.71188460000121,117.71188460000121,117.71188460000121,117.71188460000121,117.71188460000121,117.71188460000121,117.71188460000121,117.71188460000121,117.71188460000121,,007,P013,2025_Feb_08_1540,ConditionRich,2021.2.3,59.93920965427136,
72.0,72.75,25,0.75,Stimuli/P013/things_cashew_07s.jpg,0,0.0,0.0,0,35,35,35,,,,,,,,,,,,,72.0131369999981,0.013136999998096144,None,120.9646775000001,120.9646775000001,120.9646775000001,120.9646775000001,120.9646775000001,120.9646775000001,120.9646775000001,120.9646775000001,120.9646775000001,120.9646775000001,,007,P013,2025_Feb_08_1540,ConditionRich,2021.2.3,59.93920965427136,
72.75,76.0,41,0.0,Stimuli/Blank.png,1,1.25,2.0,0,36,36,36,,,,,,,,,,,,,72.76312540000072,0.013125400000717491,1,121.71532860000298,121.71532860000298,121.71532860000298,121.71532860000298,121.71532860000298,121.71532860000298,122.94971030000306,123.7004667000001,121.71532860000298,121.71532860000298,1.7660882999989553,007,P013,2025_Feb_08_1540,ConditionRich,2021.2.3,59.93920965427136,
76.0,76.75,38,0.75,Stimuli/P013/things_spark_plug_07s.jpg,0,0.0,0.0,0,37,37,37,,,,,,,,,,,,,76.00095769999825,0.0009576999982527923,None,124.96823930000028,124.96823930000028,124.96823930000028,124.96823930000028,124.96823930000028,124.96823930000028,124.96823930000028,124.96823930000028,124.96823930000028,124.96823930000028,,007,P013,2025_Feb_08_1540,ConditionRich,2021.2.3,59.93920965427136,
76.75,80.0,41,0.0,Stimuli/Blank.png,1,0.25,1.0,0,38,38,38,,,,,,,,,,,,,76.76671350000106,0.01671350000106031,1,125.7188728000001,125.7188728000001,125.7188728000001,125.7188728000001,125.7188728000001,125.7188728000001,125.95244250000178,126.70312800000102,125.7188728000001,125.7188728000001,0.6525444999970205,007,P013,2025_Feb_08_1540,ConditionRich,2021.2.3,59.93920965427136,
80.0,80.75,33,0.75,Stimuli/P013/things_piglet_07s.jpg,0,0.0,0.0,0,39,39,39,,,,,,,,,,,,,80.00301209999816,0.0030120999981591012,None,128.95506990000285,128.95506990000285,128.95506990000285,128.95506990000285,128.95506990000285,128.95506990000285,128.95506990000285,128.95506990000285,128.95506990000285,128.95506990000285,,007,P013,2025_Feb_08_1540,ConditionRich,2021.2.3,59.93920965427136,
80.75,84.0,41,0.0,Stimuli/Blank.png,0,0.0,0.0,0,40,40,40,,,,,,,,,,,,,80.75419329999932,0.004193299999315059,None,129.70573920000243,129.70573920000243,129.70573920000243,129.70573920000243,129.70573920000243,129.70573920000243,129.70573920000243,129.70573920000243,129.70573920000243,129.70573920000243,,007,P013,2025_Feb_08_1540,ConditionRich,2021.2.3,59.93920965427136,
84.0,100.0,0,0.0,Stimuli/Blank.png,1,11.0,11.75,0,41,41,41,,,,,,,,,,,,,84.00679599999785,0.006795999997848412,1,132.95862020000277,132.95862020000277,132.95862020000277,132.95862020000277,132.95862020000277,132.95862020000277,143.9350228000003,144.6856168000013,132.95862020000277,132.95862020000277,11.350843000000168,007,P013,2025_Feb_08_1540,ConditionRich,2021.2.3,59.93920965427136,
100.0,100.75,8,0.75,Stimuli/P013/sun_auqrilekgmdmrncq.jpg,0,0.0,0.0,0,42,42,42,,,,,,,,,,,,,100.00462759999937,0.004627599999366794,None,148.9727751999999,148.9727751999999,148.9727751999999,148.9727751999999,148.9727751999999,148.9727751999999,148.9727751999999,148.9727751999999,148.9727751999999,148.9727751999999,,007,P013,2025_Feb_08_1540,ConditionRich,2021.2.3,59.93920965427136,
100.75,104.0,41,0.0,Stimuli/Blank.png,0,0.0,0.0,0,43,43,43,,,,,,,,,,,,,100.77173589999802,0.021735899998020614,None,149.72343540000293,149.72343540000293,149.72343540000293,149.72343540000293,149.72343540000293,149.72343540000293,149.72343540000293,149.72343540000293,149.72343540000293,149.72343540000293,,007,P013,2025_Feb_08_1540,ConditionRich,2021.2.3,59.93920965427136,
104.0,104.75,14,0.75,Stimuli/P013/sun_bqhfterhwnqrbnzg.jpg,0,0.0,0.0,0,44,44,44,,,,,,,,,,,,,104.0071855999995,0.007185599999502301,None,152.9596319000011,152.9596319000011,152.9596319000011,152.9596319000011,152.9596319000011,152.9596319000011,152.9596319000011,152.9596319000011,152.9596319000011,152.9596319000011,,007,P013,2025_Feb_08_1540,ConditionRich,2021.2.3,59.93920965427136,
104.75,108.0,41,0.0,Stimuli/Blank.png,0,0.0,0.0,0,45,45,45,,,,,,,,,,,,,104.75792649999858,0.00792649999857531,None,153.71030040000187,153.71030040000187,153.71030040000187,153.71030040000187,153.71030040000187,153.71030040000187,153.71030040000187,153.71030040000187,153.71030040000187,153.71030040000187,,007,P013,2025_Feb_08_1540,ConditionRich,2021.2.3,59.93920965427136,
108.0,108.75,2,0.75,Stimuli/P013/sun_adotnsaifoooswkf.jpg,0,0.0,0.0,0,46,46,46,,,,,,,,,,,,,108.01343930000075,0.013439300000754884,None,156.97987120000107,156.97987120000107,156.97987120000107,156.97987120000107,156.97987120000107,156.97987120000107,156.97987120000107,156.97987120000107,156.97987120000107,156.97987120000107,,007,P013,2025_Feb_08_1540,ConditionRich,2021.2.3,59.93920965427136,
108.75,112.0,41,0.0,Stimuli/Blank.png,0,0.0,0.0,0,47,47,47,,,,,,,,,,,,,108.77881400000115,0.028814000001148088,None,157.7305152000008,157.7305152000008,157.7305152000008,157.7305152000008,157.7305152000008,157.7305152000008,157.7305152000008,157.7305152000008,157.7305152000008,157.7305152000008,,007,P013,2025_Feb_08_1540,ConditionRich,2021.2.3,59.93920965427136,
112.0,112.75,24,0.75,Stimuli/P013/things_bungee_07s.jpg,0,0.0,0.0,0,48,48,48,,,,,,,,,,,,,112.01502740000069,0.01502740000069025,None,160.98339889999988,160.98339889999988,160.98339889999988,160.98339889999988,160.98339889999988,160.98339889999988,160.98339889999988,160.98339889999988,160.98339889999988,160.98339889999988,,007,P013,2025_Feb_08_1540,ConditionRich,2021.2.3,59.93920965427136,
112.75,116.0,41,0.0,Stimuli/Blank.png,0,0.0,0.0,0,49,49,49,,,,,,,,,,,,,112.76717310000095,0.01717310000094585,None,161.73405970000022,161.73405970000022,161.73405970000022,161.73405970000022,161.73405970000022,161.73405970000022,161.73405970000022,161.73405970000022,161.73405970000022,161.73405970000022,,007,P013,2025_Feb_08_1540,ConditionRich,2021.2.3,59.93920965427136,
116.0,116.75,13,0.75,Stimuli/P013/sun_bpccpwpohfirajtf.jpg,1,0.0,0.75,0,50,50,50,,,,,,,,,,,,,116.01782349999849,0.017823499998485204,1,164.97025250000297,164.97025250000297,164.97025250000297,164.97025250000297,164.97025250000297,164.97025250000297,164.97025250000297,None,164.97025250000297,164.97025250000297,0.5603676999999152,007,P013,2025_Feb_08_1540,ConditionRich,2021.2.3,59.93920965427136,
116.75,120.0,41,0.0,Stimuli/Blank.png,0,0.0,0.0,0,51,51,51,,,,,,,,,,,,,116.75224700000035,0.0022470000003522728,None,165.70423909999954,165.70423909999954,165.70423909999954,165.70423909999954,165.70423909999954,165.70423909999954,165.70423909999954,165.70423909999954,165.70423909999954,165.70423909999954,,007,P013,2025_Feb_08_1540,ConditionRich,2021.2.3,59.93920965427136,
120.0,120.75,35,0.75,Stimuli/P013/things_road_sign_07s.jpg,0,0.0,0.0,0,52,52,52,,,,,,,,,,,,,120.00778469999932,0.007784699999319855,None,168.97380120000162,168.97380120000162,168.97380120000162,168.97380120000162,168.97380120000162,168.97380120000162,168.97380120000162,168.97380120000162,168.97380120000162,168.97380120000162,,007,P013,2025_Feb_08_1540,ConditionRich,2021.2.3,59.93920965427136,
120.75,124.0,41,0.0,Stimuli/Blank.png,0,0.0,0.0,0,53,53,53,,,,,,,,,,,,,120.77225779999935,0.022257799999351846,None,169.7244563000022,169.7244563000022,169.7244563000022,169.7244563000022,169.7244563000022,169.7244563000022,169.7244563000022,169.7244563000022,169.7244563000022,169.7244563000022,,007,P013,2025_Feb_08_1540,ConditionRich,2021.2.3,59.93920965427136,
124.0,124.75,18,0.75,Stimuli/P013/sun_btohwudpiusfvpvl.jpg,0,0.0,0.0,0,54,54,54,,,,,,,,,,,,,124.00957019999987,0.009570199999870965,None,172.96065910000107,172.96065910000107,172.96065910000107,172.96065910000107,172.96065910000107,172.96065910000107,172.96065910000107,172.96065910000107,172.96065910000107,172.96065910000107,,007,P013,2025_Feb_08_1540,ConditionRich,2021.2.3,59.93920965427136,
124.75,128.0,41,0.0,Stimuli/Blank.png,0,0.0,0.0,0,55,55,55,,,,,,,,,,,,,124.75990869999805,0.009908699998049997,None,173.71134789999996,173.71134789999996,173.71134789999996,173.71134789999996,173.71134789999996,173.71134789999996,173.71134789999996,173.71134789999996,173.71134789999996,173.71134789999996,,007,P013,2025_Feb_08_1540,ConditionRich,2021.2.3,59.93920965427136,
128.0,128.75,17,0.75,Stimuli/P013/sun_bsguftphqnrkbedw.jpg,0,0.0,0.0,0,56,56,56,,,,,,,,,,,,,128.0117597999997,0.011759799999708775,None,176.96419290000267,176.96419290000267,176.96419290000267,176.96419290000267,176.96419290000267,176.96419290000267,176.96419290000267,176.96419290000267,176.96419290000267,176.96419290000267,,007,P013,2025_Feb_08_1540,ConditionRich,2021.2.3,59.93920965427136,
128.75,132.0,41,0.0,Stimuli/Blank.png,1,1.25,2.0,0,57,57,57,,,,,,,,,,,,,128.7624509999987,0.012450999998691259,1,177.71486500000174,177.71486500000174,177.71486500000174,177.71486500000174,177.71486500000174,177.71486500000174,178.94937630000277,179.69997350000267,177.71486500000174,177.71486500000174,1.7617663999990327,007,P013,2025_Feb_08_1540,ConditionRich,2021.2.3,59.93920965427136,
132.0,132.75,28,0.75,Stimuli/P013/things_girl_07s.jpg,0,0.0,0.0,0,58,58,58,,,,,,,,,,,,,132.0157971999979,0.01579719999790541,None,180.98442090000026,180.98442090000026,180.98442090000026,180.98442090000026,180.98442090000026,180.98442090000026,180.98442090000026,180.98442090000026,180.98442090000026,180.98442090000026,,007,P013,2025_Feb_08_1540,ConditionRich,2021.2.3,59.93920965427136,
132.75,136.0,41,0.0,Stimuli/Blank.png,0,0.0,0.0,0,59,59,59,,,,,,,,,,,,,132.76713390000077,0.017133900000771973,None,181.71840970000267,181.71840970000267,181.71840970000267,181.71840970000267,181.71840970000267,181.71840970000267,181.71840970000267,181.71840970000267,181.71840970000267,181.71840970000267,,007,P013,2025_Feb_08_1540,ConditionRich,2021.2.3,59.93920965427136,
136.0,136.75,26,0.75,Stimuli/P013/things_cougar_07s.jpg,0,0.0,0.0,0,60,60,60,,,,,,,,,,,,,136.00276049999957,0.0027604999995674007,None,184.95458359999975,184.95458359999975,184.95458359999975,184.95458359999975,184.95458359999975,184.95458359999975,184.95458359999975,184.95458359999975,184.95458359999975,184.95458359999975,,007,P013,2025_Feb_08_1540,ConditionRich,2021.2.3,59.93920965427136,
136.75,140.0,41,0.0,Stimuli/Blank.png,0,0.0,0.0,0,61,61,61,,,,,,,,,,,,,136.75286580000102,0.002865800001018215,None,185.70527930000026,185.70527930000026,185.70527930000026,185.70527930000026,185.70527930000026,185.70527930000026,185.70527930000026,185.70527930000026,185.70527930000026,185.70527930000026,,007,P013,2025_Feb_08_1540,ConditionRich,2021.2.3,59.93920965427136,
140.0,140.75,7,0.75,Stimuli/P013/sun_aojplsluiikxrfxc.jpg,0,0.0,0.0,0,62,62,62,,,,,,,,,,,,,140.00695659999838,0.006956599998375168,None,188.97477300000173,188.97477300000173,188.97477300000173,188.97477300000173,188.97477300000173,188.97477300000173,188.97477300000173,188.97477300000173,188.97477300000173,188.97477300000173,,007,P013,2025_Feb_08_1540,ConditionRich,2021.2.3,59.93920965427136,
140.75,144.0,41,0.0,Stimuli/Blank.png,1,2.25,3.0,0,63,63,63,,,,,,,,,,,,,140.77385570000115,0.02385570000114967,1,189.72547169999962,189.72547169999962,189.72547169999962,189.72547169999962,189.72547169999962,189.72547169999962,191.96082580000075,192.711531500001,189.72547169999962,189.72547169999962,2.6550090000018827,007,P013,2025_Feb_08_1540,ConditionRich,2021.2.3,59.93920965427136,
144.0,144.75,36,0.75,Stimuli/P013/things_seafood_07s.jpg,0,0.0,0.0,0,64,64,64,,,,,,,,,,,,,144.0094093000007,0.00940930000069784,None,192.96167330000026,192.96167330000026,192.96167330000026,192.96167330000026,192.96167330000026,192.96167330000026,192.96167330000026,192.96167330000026,192.96167330000026,192.96167330000026,,007,P013,2025_Feb_08_1540,ConditionRich,2021.2.3,59.93920965427136,
144.75,148.0,41,0.0,Stimuli/Blank.png,0,0.0,0.0,0,65,65,65,,,,,,,,,,,,,144.76084799999808,0.010847999998077285,None,193.71234929999991,193.71234929999991,193.71234929999991,193.71234929999991,193.71234929999991,193.71234929999991,193.71234929999991,193.71234929999991,193.71234929999991,193.71234929999991,,007,P013,2025_Feb_08_1540,ConditionRich,2021.2.3,59.93920965427136,
148.0,148.75,40,0.75,Stimuli/P013/things_woman_07s.jpg,0,0.0,0.0,0,66,66,66,,,,,,,,,,,,,148.01331189999837,0.01331189999837079,None,196.96520410000085,196.96520410000085,196.96520410000085,196.96520410000085,196.96520410000085,196.96520410000085,196.96520410000085,196.96520410000085,196.96520410000085,196.96520410000085,,007,P013,2025_Feb_08_1540,ConditionRich,2021.2.3,59.93920965427136,
148.75,152.0,41,0.0,Stimuli/Blank.png,0,0.0,0.0,0,67,67,67,,,,,,,,,,,,,148.7635143999978,0.013514399997802684,None,197.71587320000253,197.71587320000253,197.71587320000253,197.71587320000253,197.71587320000253,197.71587320000253,197.71587320000253,197.71587320000253,197.71587320000253,197.71587320000253,,007,P013,2025_Feb_08_1540,ConditionRich,2021.2.3,59.93920965427136,
152.0,152.75,31,0.75,Stimuli/P013/things_mask_07s.jpg,0,0.0,0.0,0,68,68,68,,,,,,,,,,,,,151.99974550000115,-0.0002544999988458585,None,200.95203860000038,200.95203860000038,200.95203860000038,200.95203860000038,200.95203860000038,200.95203860000038,200.95203860000038,200.95203860000038,200.95203860000038,200.95203860000038,,007,P013,2025_Feb_08_1540,ConditionRich,2021.2.3,59.93920965427136,
152.75,156.0,41,0.0,Stimuli/Blank.png,0,0.0,0.0,0,69,69,69,,,,,,,,,,,,,152.75344100000075,0.0034410000007483177,None,201.71942970000237,201.71942970000237,201.71942970000237,201.71942970000237,201.71942970000237,201.71942970000237,201.71942970000237,201.71942970000237,201.71942970000237,201.71942970000237,,007,P013,2025_Feb_08_1540,ConditionRich,2021.2.3,59.93920965427136,
156.0,156.75,29,0.75,Stimuli/P013/things_iguana_07s.jpg,0,0.0,0.0,0,70,70,70,,,,,,,,,,,,,156.02097669999785,0.02097669999784557,None,204.98896349999995,204.98896349999995,204.98896349999995,204.98896349999995,204.98896349999995,204.98896349999995,204.98896349999995,204.98896349999995,204.98896349999995,204.98896349999995,,007,P013,2025_Feb_08_1540,ConditionRich,2021.2.3,59.93920965427136,
156.75,160.0,41,0.0,Stimuli/Blank.png,1,1.25,2.0,0,71,71,71,,,,,,,,,,,,,156.77169069999945,0.0216906999994535,1,205.72297140000228,205.72297140000228,205.72297140000228,205.72297140000228,205.72297140000228,205.72297140000228,206.95739570000296,207.70808340000076,205.72297140000228,205.72297140000228,1.6485159000003478,007,P013,2025_Feb_08_1540,ConditionRich,2021.2.3,59.93920965427136,
160.0,160.75,1,0.75,Stimuli/P013/sun_adkmgqclfrkhfxbd.jpg,0,0.0,0.0,0,72,72,72,,,,,,,,,,,,,160.00679549999768,0.006795499997679144,None,208.95914750000156,208.95914750000156,208.95914750000156,208.95914750000156,208.95914750000156,208.95914750000156,208.95914750000156,208.95914750000156,208.95914750000156,208.95914750000156,,007,P013,2025_Feb_08_1540,ConditionRich,2021.2.3,59.93920965427136,
160.75,164.0,41,0.0,Stimuli/Blank.png,0,0.0,0.0,0,73,73,73,,,,,,,,,,,,,160.7582388999981,0.008238899998104898,None,209.7097840000024,209.7097840000024,209.7097840000024,209.7097840000024,209.7097840000024,209.7097840000024,209.7097840000024,209.7097840000024,209.7097840000024,209.7097840000024,,007,P013,2025_Feb_08_1540,ConditionRich,2021.2.3,59.93920965427136,
164.0,164.75,20,0.75,Stimuli/P013/sun_cidodcxikcyrdglc.jpg,1,0.0,0.75,0,74,74,74,,,,,,,,,,,,,164.01043579999896,0.010435799998958828,None,212.9793881000005,212.9793881000005,212.9793881000005,212.9793881000005,212.9793881000005,212.9793881000005,212.9793881000005,213.69670750000296,212.9793881000005,212.9793881000005,,007,P013,2025_Feb_08_1540,ConditionRich,2021.2.3,59.93920965427136,
164.75,168.0,41,0.0,Stimuli/Blank.png,0,0.0,0.0,0,75,75,75,,,,,,,,,,,,,164.77872990000105,0.028729900001053466,None,213.7309884999995,213.7309884999995,213.7309884999995,213.7309884999995,213.7309884999995,213.7309884999995,213.7309884999995,213.7309884999995,213.7309884999995,213.7309884999995,,007,P013,2025_Feb_08_1540,ConditionRich,2021.2.3,59.93920965427136,
168.0,168.75,15,0.75,Stimuli/P013/sun_brezwczwwllviogu.jpg,0,0.0,0.0,0,76,76,76,,,,,,,,,,,,,168.01388189999852,0.013881899998523295,None,216.96622879999995,216.96622879999995,216.96622879999995,216.96622879999995,216.96622879999995,216.96622879999995,216.96622879999995,216.96622879999995,216.96622879999995,216.96622879999995,,007,P013,2025_Feb_08_1540,ConditionRich,2021.2.3,59.93920965427136,
168.75,172.0,41,0.0,Stimuli/Blank.png,0,0.0,0.0,0,77,77,77,,,,,,,,,,,,,168.76449850000063,0.014498500000627246,None,217.7168937000024,217.7168937000024,217.7168937000024,217.7168937000024,217.7168937000024,217.7168937000024,217.7168937000024,217.7168937000024,217.7168937000024,217.7168937000024,,007,P013,2025_Feb_08_1540,ConditionRich,2021.2.3,59.93920965427136,
172.0,172.75,39,0.75,Stimuli/P013/things_violin_07n.jpg,0,0.0,0.0,0,78,78,78,,,,,,,,,,,,,172.0018510000009,0.0018510000008973293,None,220.95309800000177,220.95309800000177,220.95309800000177,220.95309800000177,220.95309800000177,220.95309800000177,220.95309800000177,220.95309800000177,220.95309800000177,220.95309800000177,,007,P013,2025_Feb_08_1540,ConditionRich,2021.2.3,59.93920965427136,
172.75,176.0,41,0.0,Stimuli/Blank.png,0,0.0,0.0,0,79,79,79,,,,,,,,,,,,,172.75206679999974,0.0020667999997385778,None,221.70375640000202,221.70375640000202,221.70375640000202,221.70375640000202,221.70375640000202,221.70375640000202,221.70375640000202,221.70375640000202,221.70375640000202,221.70375640000202,,007,P013,2025_Feb_08_1540,ConditionRich,2021.2.3,59.93920965427136,
176.0,176.75,6,0.75,Stimuli/P013/sun_aoejkkmwkfegacni.jpg,0,0.0,0.0,0,80,80,80,,,,,,,,,,,,,176.0043618999989,0.004361899998912122,None,224.97332740000274,224.97332740000274,224.97332740000274,224.97332740000274,224.97332740000274,224.97332740000274,224.97332740000274,224.97332740000274,224.97332740000274,224.97332740000274,,007,P013,2025_Feb_08_1540,ConditionRich,2021.2.3,59.93920965427136,
176.75,180.0,41,0.0,Stimuli/Blank.png,0,0.0,0.0,0,81,81,81,,,,,,,,,,,,,176.7718442000005,0.021844200000487035,None,225.72397679999995,225.72397679999995,225.72397679999995,225.72397679999995,225.72397679999995,225.72397679999995,225.72397679999995,225.72397679999995,225.72397679999995,225.72397679999995,,007,P013,2025_Feb_08_1540,ConditionRich,2021.2.3,59.93920965427136,
180.0,196.0,0,0.0,Stimuli/Blank.png,1,9.0,9.75,0,82,82,82,,,,,,,,,,,,,180.00811389999944,0.008113899999443674,1,228.96026669999992,228.96026669999992,228.96026669999992,228.96026669999992,228.96026669999992,228.96026669999992,237.9514436999998,238.7021698000026,228.96026669999992,228.96026669999992,9.415236899996671,007,P013,2025_Feb_08_1540,ConditionRich,2021.2.3,59.93920965427136,
196.0,196.75,25,0.75,Stimuli/P013/things_cashew_07s.jpg,0,0.0,0.0,0,83,83,83,,,,,,,,,,,,,196.00798310000027,0.007983100000274135,None,244.97433300000193,244.97433300000193,244.97433300000193,244.97433300000193,244.97433300000193,244.97433300000193,244.97433300000193,244.97433300000193,244.97433300000193,244.97433300000193,,007,P013,2025_Feb_08_1540,ConditionRich,2021.2.3,59.93920965427136,
196.75,200.0,41,0.0,Stimuli/Blank.png,0,0.0,0.0,0,84,84,84,,,,,,,,,,,,,196.77301140000054,0.02301140000054147,None,245.7249961000016,245.7249961000016,245.7249961000016,245.7249961000016,245.7249961000016,245.7249961000016,245.7249961000016,245.7249961000016,245.7249961000016,245.7249961000016,,007,P013,2025_Feb_08_1540,ConditionRich,2021.2.3,59.93920965427136,
200.0,200.75,33,0.75,Stimuli/P013/things_piglet_07s.jpg,0,0.0,0.0,0,85,85,85,,,,,,,,,,,,,200.00897840000107,0.00897840000106953,None,248.96119160000308,248.96119160000308,248.96119160000308,248.96119160000308,248.96119160000308,248.96119160000308,248.96119160000308,248.96119160000308,248.96119160000308,248.96119160000308,,007,P013,2025_Feb_08_1540,ConditionRich,2021.2.3,59.93920965427136,
200.75,204.0,41,0.0,Stimuli/Blank.png,0,0.0,0.0,0,86,86,86,,,,,,,,,,,,,200.7595293000013,0.009529300001304364,None,249.71184640000138,249.71184640000138,249.71184640000138,249.71184640000138,249.71184640000138,249.71184640000138,249.71184640000138,249.71184640000138,249.71184640000138,249.71184640000138,,007,P013,2025_Feb_08_1540,ConditionRich,2021.2.3,59.93920965427136,
204.0,204.75,27,0.75,Stimuli/P013/things_face_07s.jpg,0,0.0,0.0,0,87,87,87,,,,,,,,,,,,,204.01534189999802,0.01534189999802038,None,252.98142519999965,252.98142519999965,252.98142519999965,252.98142519999965,252.98142519999965,252.98142519999965,252.98142519999965,252.98142519999965,252.98142519999965,252.98142519999965,,007,P013,2025_Feb_08_1540,ConditionRich,2021.2.3,59.93920965427136,
204.75,208.0,41,0.0,Stimuli/Blank.png,0,0.0,0.0,0,88,88,88,,,,,,,,,,,,,204.76366829999824,0.013668299998244038,None,253.7153956000002,253.7153956000002,253.7153956000002,253.7153956000002,253.7153956000002,253.7153956000002,253.7153956000002,253.7153956000002,253.7153956000002,253.7153956000002,,007,P013,2025_Feb_08_1540,ConditionRich,2021.2.3,59.93920965427136,
208.0,208.75,35,0.75,Stimuli/P013/things_road_sign_07s.jpg,0,0.0,0.0,0,89,89,89,,,,,,,,,,,,,208.0002444999991,0.00024449999909847975,None,256.9682681000013,256.9682681000013,256.9682681000013,256.9682681000013,256.9682681000013,256.9682681000013,256.9682681000013,256.9682681000013,256.9682681000013,256.9682681000013,,007,P013,2025_Feb_08_1540,ConditionRich,2021.2.3,59.93920965427136,
208.75,212.0,41,0.0,Stimuli/Blank.png,0,0.0,0.0,0,90,90,90,,,,,,,,,,,,,208.7672308000001,0.017230800000106683,None,257.7189349,257.7189349,257.7189349,257.7189349,257.7189349,257.7189349,257.7189349,257.7189349,257.7189349,257.7189349,,007,P013,2025_Feb_08_1540,ConditionRich,2021.2.3,59.93920965427136,
212.0,212.75,37,0.75,Stimuli/P013/things_slug_07s.jpg,0,0.0,0.0,0,91,91,91,,,,,,,,,,,,,212.0030388999985,0.0030388999985007104,None,260.9717817000019,260.9717817000019,260.9717817000019,260.9717817000019,260.9717817000019,260.9717817000019,260.9717817000019,260.9717817000019,260.9717817000019,260.9717817000019,,007,P013,2025_Feb_08_1540,ConditionRich,2021.2.3,59.93920965427136,
212.75,216.0,41,0.0,Stimuli/Blank.png,0,0.0,0.0,0,92,92,92,,,,,,,,,,,,,212.7701362000007,0.020136200000706594,None,261.72255589999986,261.72255589999986,261.72255589999986,261.72255589999986,261.72255589999986,261.72255589999986,261.72255589999986,261.72255589999986,261.72255589999986,261.72255589999986,,007,P013,2025_Feb_08_1540,ConditionRich,2021.2.3,59.93920965427136,
216.0,216.75,22,0.75,Stimuli/P013/things_banner_07s.jpg,1,0.0,0.75,0,93,93,93,,,,,,,,,,,,,216.00794730000052,0.007947300000523683,None,264.9753664000018,264.9753664000018,264.9753664000018,264.9753664000018,264.9753664000018,264.9753664000018,264.9753664000018,265.7093309000011,264.9753664000018,264.9753664000018,,007,P013,2025_Feb_08_1540,ConditionRich,2021.2.3,59.93920965427136,
216.75,220.0,41,0.0,Stimuli/Blank.png,0,0.0,0.0,0,94,94,94,,,,,,,,,,,,,216.77373449999868,0.023734499998681713,None,265.7260161000013,265.7260161000013,265.7260161000013,265.7260161000013,265.7260161000013,265.7260161000013,265.7260161000013,265.7260161000013,265.7260161000013,265.7260161000013,,007,P013,2025_Feb_08_1540,ConditionRich,2021.2.3,59.93920965427136,
220.0,220.75,11,0.75,Stimuli/P013/sun_bfyxzbjsvqsobbky.jpg,0,0.0,0.0,0,95,95,95,,,,,,,,,,,,,220.01078649999909,0.010786499999085208,None,268.97889270000087,268.97889270000087,268.97889270000087,268.97889270000087,268.97889270000087,268.97889270000087,268.97889270000087,268.97889270000087,268.97889270000087,268.97889270000087,,007,P013,2025_Feb_08_1540,ConditionRich,2021.2.3,59.93920965427136,
220.75,224.0,41,0.0,Stimuli/Blank.png,0,0.0,0.0,0,96,96,96,,,,,,,,,,,,,220.77823910000006,0.028239100000064354,None,269.7462508000026,269.7462508000026,269.7462508000026,269.7462508000026,269.7462508000026,269.7462508000026,269.7462508000026,269.7462508000026,269.7462508000026,269.7462508000026,,007,P013,2025_Feb_08_1540,ConditionRich,2021.2.3,59.93920965427136,
224.0,224.75,34,0.75,Stimuli/P013/things_radio_07s.jpg,0,0.0,0.0,0,97,97,97,,,,,,,,,,,,,224.0309825000004,0.030982500000391155,None,272.9991136000026,272.9991136000026,272.9991136000026,272.9991136000026,272.9991136000026,272.9991136000026,272.9991136000026,272.9991136000026,272.9991136000026,272.9991136000026,,007,P013,2025_Feb_08_1540,ConditionRich,2021.2.3,59.93920965427136,
224.75,228.0,41,0.0,Stimuli/Blank.png,0,0.0,0.0,0,98,98,98,,,,,,,,,,,,,224.7837823000009,0.03378230000089388,None,273.74978399999964,273.74978399999964,273.74978399999964,273.74978399999964,273.74978399999964,273.74978399999964,273.74978399999964,273.74978399999964,273.74978399999964,273.74978399999964,,007,P013,2025_Feb_08_1540,ConditionRich,2021.2.3,59.93920965427136,
228.0,228.75,18,0.75,Stimuli/P013/sun_btohwudpiusfvpvl.jpg,0,0.0,0.0,0,99,99,99,,,,,,,,,,,,,228.0179414000013,0.017941400001291186,None,276.985972100003,276.985972100003,276.985972100003,276.985972100003,276.985972100003,276.985972100003,276.985972100003,276.985972100003,276.985972100003,276.985972100003,,007,P013,2025_Feb_08_1540,ConditionRich,2021.2.3,59.93920965427136,
228.75,232.0,41,0.0,Stimuli/Blank.png,0,0.0,0.0,0,100,100,100,,,,,,,,,,,,,228.76923739999984,0.01923739999983809,None,277.71985340000174,277.71985340000174,277.71985340000174,277.71985340000174,277.71985340000174,277.71985340000174,277.71985340000174,277.71985340000174,277.71985340000174,277.71985340000174,,007,P013,2025_Feb_08_1540,ConditionRich,2021.2.3,59.93920965427136,
232.0,232.75,13,0.75,Stimuli/P013/sun_bpccpwpohfirajtf.jpg,0,0.0,0.0,0,101,101,101,,,,,,,,,,,,,232.00392989999818,0.003929899998183828,None,280.9728589000006,280.9728589000006,280.9728589000006,280.9728589000006,280.9728589000006,280.9728589000006,280.9728589000006,280.9728589000006,280.9728589000006,280.9728589000006,,007,P013,2025_Feb_08_1540,ConditionRich,2021.2.3,59.93920965427136,
232.75,236.0,41,0.0,Stimuli/Blank.png,0,0.0,0.0,0,102,102,102,,,,,,,,,,,,,232.77181299999938,0.021812999999383464,None,281.72349770000073,281.72349770000073,281.72349770000073,281.72349770000073,281.72349770000073,281.72349770000073,281.72349770000073,281.72349770000073,281.72349770000073,281.72349770000073,,007,P013,2025_Feb_08_1540,ConditionRich,2021.2.3,59.93920965427136,
236.0,236.75,24,0.75,Stimuli/P013/things_bungee_07s.jpg,0,0.0,0.0,0,103,103,103,,,,,,,,,,,,,236.00728379999782,0.007283799997821916,None,284.9597285000018,284.9597285000018,284.9597285000018,284.9597285000018,284.9597285000018,284.9597285000018,284.9597285000018,284.9597285000018,284.9597285000018,284.9597285000018,,007,P013,2025_Feb_08_1540,ConditionRich,2021.2.3,59.93920965427136,
236.75,240.0,41,0.0,Stimuli/Blank.png,1,1.25,2.0,0,104,104,104,,,,,,,,,,,,,236.75801109999884,0.0080110999988392,1,285.7103535999995,285.7103535999995,285.7103535999995,285.7103535999995,285.7103535999995,285.7103535999995,286.9447641000006,287.6954960000003,285.7103535999995,285.7103535999995,1.7102293999996618,007,P013,2025_Feb_08_1540,ConditionRich,2021.2.3,59.93920965427136,
240.0,240.75,6,0.75,Stimuli/P013/sun_aoejkkmwkfegacni.jpg,1,0.0,0.75,0,105,105,105,,,,,,,,,,,,,240.01366549999875,0.01366549999875133,1,288.97991510000065,288.97991510000065,288.97991510000065,288.97991510000065,288.97991510000065,288.97991510000065,288.97991510000065,289.7139191999995,288.97991510000065,288.97991510000065,0.4786516999993182,007,P013,2025_Feb_08_1540,ConditionRich,2021.2.3,59.93920965427136,
240.75,244.0,41,0.0,Stimuli/Blank.png,0,0.0,0.0,0,106,106,106,,,,,,,,,,,,,240.77899479999905,0.02899479999905452,None,289.7473071000022,289.7473071000022,289.7473071000022,289.7473071000022,289.7473071000022,289.7473071000022,289.7473071000022,289.7473071000022,289.7473071000022,289.7473071000022,,007,P013,2025_Feb_08_1540,ConditionRich,2021.2.3,59.93920965427136,
244.0,244.75,36,0.75,Stimuli/P013/things_seafood_07s.jpg,0,0.0,0.0,0,107,107,107,,,,,,,,,,,,,244.0310572999988,0.031057299998792587,None,292.9834477000004,292.9834477000004,292.9834477000004,292.9834477000004,292.9834477000004,292.9834477000004,292.9834477000004,292.9834477000004,292.9834477000004,292.9834477000004,,007,P013,2025_Feb_08_1540,ConditionRich,2021.2.3,59.93920965427136,
244.75,248.0,41,0.0,Stimuli/Blank.png,0,0.0,0.0,0,108,108,108,,,,,,,,,,,,,244.7674717000009,0.017471700000896817,None,293.73510910000186,293.73510910000186,293.73510910000186,293.73510910000186,293.73510910000186,293.73510910000186,293.73510910000186,293.73510910000186,293.73510910000186,293.73510910000186,,007,P013,2025_Feb_08_1540,ConditionRich,2021.2.3,59.93920965427136,
248.0,248.75,17,0.75,Stimuli/P013/sun_bsguftphqnrkbedw.jpg,1,0.0,0.75,0,109,109,109,,,,,,,,,,,,,248.01818379999895,0.018183799998951145,1,296.97032150000086,296.97032150000086,296.97032150000086,296.97032150000086,296.97032150000086,296.97032150000086,296.97032150000086,None,296.97032150000086,296.97032150000086,0.40652269999918644,007,P013,2025_Feb_08_1540,ConditionRich,2021.2.3,59.93920965427136,
248.75,252.0,41,0.0,Stimuli/Blank.png,0,0.0,0.0,0,110,110,110,,,,,,,,,,,,,248.75207529999898,0.002075299998978153,None,297.70430070000293,297.70430070000293,297.70430070000293,297.70430070000293,297.70430070000293,297.70430070000293,297.70430070000293,297.70430070000293,297.70430070000293,297.70430070000293,,007,P013,2025_Feb_08_1540,ConditionRich,2021.2.3,59.93920965427136,
252.0,252.75,12,0.75,Stimuli/P013/sun_bjyrrxiwsnbmkbqs.jpg,0,0.0,0.0,0,111,111,111,,,,,,,,,,,,,252.00796289999926,0.007962899999256479,None,300.97380650000196,300.97380650000196,300.97380650000196,300.97380650000196,300.97380650000196,300.97380650000196,300.97380650000196,300.97380650000196,300.97380650000196,300.97380650000196,,007,P013,2025_Feb_08_1540,ConditionRich,2021.2.3,59.93920965427136,
252.75,256.0,41,0.0,Stimuli/Blank.png,0,0.0,0.0,0,112,112,112,,,,,,,,,,,,,252.77284979999968,0.02284979999967618,None,301.7245287000005,301.7245287000005,301.7245287000005,301.7245287000005,301.7245287000005,301.7245287000005,301.7245287000005,301.7245287000005,301.7245287000005,301.7245287000005,,007,P013,2025_Feb_08_1540,ConditionRich,2021.2.3,59.93920965427136,
256.0,256.75,29,0.75,Stimuli/P013/things_iguana_07s.jpg,0,0.0,0.0,0,113,113,113,,,,,,,,,,,,,256.00905919999786,0.009059199997864198,None,304.9607004999998,304.9607004999998,304.9607004999998,304.9607004999998,304.9607004999998,304.9607004999998,304.9607004999998,304.9607004999998,304.9607004999998,304.9607004999998,,007,P013,2025_Feb_08_1540,ConditionRich,2021.2.3,59.93920965427136,
256.75,260.0,41,0.0,Stimuli/Blank.png,0,0.0,0.0,0,114,114,114,,,,,,,,,,,,,256.7590357000008,0.009035700000822544,None,305.71137420000014,305.71137420000014,305.71137420000014,305.71137420000014,305.71137420000014,305.71137420000014,305.71137420000014,305.71137420000014,305.71137420000014,305.71137420000014,,007,P013,2025_Feb_08_1540,ConditionRich,2021.2.3,59.93920965427136,
260.0,260.75,8,0.75,Stimuli/P013/sun_auqrilekgmdmrncq.jpg,0,0.0,0.0,0,115,115,115,,,,,,,,,,,,,260.0118737999983,0.011873799998284085,None,308.96424970000226,308.96424970000226,308.96424970000226,308.96424970000226,308.96424970000226,308.96424970000226,308.96424970000226,308.96424970000226,308.96424970000226,308.96424970000226,,007,P013,2025_Feb_08_1540,ConditionRich,2021.2.3,59.93920965427136,
260.75,264.0,41,0.0,Stimuli/Blank.png,0,0.0,0.0,0,116,116,116,,,,,,,,,,,,,260.76392380000107,0.013923800001066411,None,309.7316000999999,309.7316000999999,309.7316000999999,309.7316000999999,309.7316000999999,309.7316000999999,309.7316000999999,309.7316000999999,309.7316000999999,309.7316000999999,,007,P013,2025_Feb_08_1540,ConditionRich,2021.2.3,59.93920965427136,
264.0,264.75,39,0.75,Stimuli/P013/things_violin_07n.jpg,0,0.0,0.0,0,117,117,117,,,,,,,,,,,,,264.01806510000097,0.018065100000967504,None,312.9844737000021,312.9844737000021,312.9844737000021,312.9844737000021,312.9844737000021,312.9844737000021,312.9844737000021,312.9844737000021,312.9844737000021,312.9844737000021,,007,P013,2025_Feb_08_1540,ConditionRich,2021.2.3,59.93920965427136,
264.75,268.0,41,0.0,Stimuli/Blank.png,0,0.0,0.0,0,118,118,118,,,,,,,,,,,,,264.7676105999999,0.017610599999898113,None,313.71846970000115,313.71846970000115,313.71846970000115,313.71846970000115,313.71846970000115,313.71846970000115,313.71846970000115,313.71846970000115,313.71846970000115,313.71846970000115,,007,P013,2025_Feb_08_1540,ConditionRich,2021.2.3,59.93920965427136,
268.0,268.75,1,0.75,Stimuli/P013/sun_adkmgqclfrkhfxbd.jpg,0,0.0,0.0,0,119,119,119,,,,,,,,,,,,,268.0029777999989,0.0029777999989164528,None,316.9546622000016,316.9546622000016,316.9546622000016,316.9546622000016,316.9546622000016,316.9546622000016,316.9546622000016,316.9546622000016,316.9546622000016,316.9546622000016,,007,P013,2025_Feb_08_1540,ConditionRich,2021.2.3,59.93920965427136,
268.75,272.0,41,0.0,Stimuli/Blank.png,0,0.0,0.0,0,120,120,120,,,,,,,,,,,,,268.75362210000094,0.003622100000939099,None,317.7053500000002,317.7053500000002,317.7053500000002,317.7053500000002,317.7053500000002,317.7053500000002,317.7053500000002,317.7053500000002,317.7053500000002,317.7053500000002,,007,P013,2025_Feb_08_1540,ConditionRich,2021.2.3,59.93920965427136,
272.0,272.75,10,0.75,Stimuli/P013/sun_bdhxnzyleoiflyak.jpg,0,0.0,0.0,0,121,121,121,,,,,,,,,,,,,272.0088230000001,0.008823000000120373,None,320.97487810000166,320.97487810000166,320.97487810000166,320.97487810000166,320.97487810000166,320.97487810000166,320.97487810000166,320.97487810000166,320.97487810000166,320.97487810000166,,007,P013,2025_Feb_08_1540,ConditionRich,2021.2.3,59.93920965427136,
272.75,276.0,41,0.0,Stimuli/Blank.png,1,0.25,1.0,0,122,122,122,,,,,,,,,,,,,272.77337239999906,0.0233723999990616,1,321.7255390999999,321.7255390999999,321.7255390999999,321.7255390999999,321.7255390999999,321.7255390999999,321.95996410000225,322.7097322000009,321.7255390999999,321.7255390999999,0.7971512000003713,007,P013,2025_Feb_08_1540,ConditionRich,2021.2.3,59.93920965427136,
276.0,292.0,0,0.0,Stimuli/Blank.png,1,8.0,8.75,0,123,123,123,,,,,,,,,,,,,276.00986479999847,0.009864799998467788,1,324.96172560000196,324.96172560000196,324.96172560000196,324.96172560000196,324.96172560000196,324.96172560000196,332.9521660999999,333.7028166000018,324.96172560000196,324.96172560000196,8.559913099998084,007,P013,2025_Feb_08_1540,ConditionRich,2021.2.3,59.93920965427136,
292.0,292.75,26,0.75,Stimuli/P013/things_cougar_07s.jpg,0,0.0,0.0,0,124,124,124,,,,,,,,,,,,,292.00768009999956,0.007680099999561207,None,340.9592327999999,340.9592327999999,340.9592327999999,340.9592327999999,340.9592327999999,340.9592327999999,340.9592327999999,340.9592327999999,340.9592327999999,340.9592327999999,,007,P013,2025_Feb_08_1540,ConditionRich,2021.2.3,59.93920965427136,
292.75,296.0,41,0.0,Stimuli/Blank.png,0,0.0,0.0,0,125,125,125,,,,,,,,,,,,,292.7582642999987,0.008264299998700153,None,341.70988090000174,341.70988090000174,341.70988090000174,341.70988090000174,341.70988090000174,341.70988090000174,341.70988090000174,341.70988090000174,341.70988090000174,341.70988090000174,,007,P013,2025_Feb_08_1540,ConditionRich,2021.2.3,59.93920965427136,
296.0,296.75,3,0.75,Stimuli/P013/sun_aengzsmykwchlrdn.jpg,1,0.0,0.75,0,126,126,126,,,,,,,,,,,,,296.01348439999856,0.013484399998560548,1,344.97943360000136,344.97943360000136,344.97943360000136,344.97943360000136,344.97943360000136,344.97943360000136,344.97943360000136,345.7140829000018,344.97943360000136,344.97943360000136,0.5021446000027936,007,P013,2025_Feb_08_1540,ConditionRich,2021.2.3,59.93920965427136,
296.75,300.0,41,0.0,Stimuli/Blank.png,0,0.0,0.0,0,127,127,127,,,,,,,,,,,,,296.7797748000012,0.029774800001177937,None,345.73010520000025,345.73010520000025,345.73010520000025,345.73010520000025,345.73010520000025,345.73010520000025,345.73010520000025,345.73010520000025,345.73010520000025,345.73010520000025,,007,P013,2025_Feb_08_1540,ConditionRich,2021.2.3,59.93920965427136,
300.0,300.75,15,0.75,Stimuli/P013/sun_brezwczwwllviogu.jpg,0,0.0,0.0,0,128,128,128,,,,,,,,,,,,,299.9983184999983,-0.0016815000017231796,None,348.9663103000021,348.9663103000021,348.9663103000021,348.9663103000021,348.9663103000021,348.9663103000021,348.9663103000021,348.9663103000021,348.9663103000021,348.9663103000021,,007,P013,2025_Feb_08_1540,ConditionRich,2021.2.3,59.93920965427136,
300.75,304.0,41,0.0,Stimuli/Blank.png,0,0.0,0.0,0,129,129,129,,,,,,,,,,,,,300.78195739999865,0.031957399998646,None,349.7336557000017,349.7336557000017,349.7336557000017,349.7336557000017,349.7336557000017,349.7336557000017,349.7336557000017,349.7336557000017,349.7336557000017,349.7336557000017,,007,P013,2025_Feb_08_1540,ConditionRich,2021.2.3,59.93920965427136,
304.0,304.75,2,0.75,Stimuli/P013/sun_adotnsaifoooswkf.jpg,0,0.0,0.0,0,130,130,130,,,,,,,,,,,,,304.0029155000011,0.0029155000011087395,None,352.9698386000018,352.9698386000018,352.9698386000018,352.9698386000018,352.9698386000018,352.9698386000018,352.9698386000018,352.9698386000018,352.9698386000018,352.9698386000018,,007,P013,2025_Feb_08_1540,ConditionRich,2021.2.3,59.93920965427136,
304.75,308.0,41,0.0,Stimuli/Blank.png,1,0.25,1.0,0,131,131,131,,,,,,,,,,,,,304.76823030000014,0.018230300000141142,1,353.7205025000003,353.7205025000003,353.7205025000003,353.7205025000003,353.7205025000003,353.7205025000003,353.95402770000146,354.7046651000019,353.7205025000003,353.7205025000003,0.6004102000006242,007,P013,2025_Feb_08_1540,ConditionRich,2021.2.3,59.93920965427136,
308.0,308.75,21,0.75,Stimuli/P013/things_baby_07s.jpg,0,0.0,0.0,0,132,132,132,,,,,,,,,,,,,308.0043669000006,0.004366900000604801,None,356.95668370000203,356.95668370000203,356.95668370000203,356.95668370000203,356.95668370000203,356.95668370000203,356.95668370000203,356.95668370000203,356.95668370000203,356.95668370000203,,007,P013,2025_Feb_08_1540,ConditionRich,2021.2.3,59.93920965427136,
308.75,312.0,41,0.0,Stimuli/Blank.png,0,0.0,0.0,0,133,133,133,,,,,,,,,,,,,308.75748490000115,0.007484900001145434,None,357.7240359000025,357.7240359000025,357.7240359000025,357.7240359000025,357.7240359000025,357.7240359000025,357.7240359000025,357.7240359000025,357.7240359000025,357.7240359000025,,007,P013,2025_Feb_08_1540,ConditionRich,2021.2.3,59.93920965427136,
312.0,312.75,30,0.75,Stimuli/P013/things_man_07s.jpg,0,0.0,0.0,0,134,134,134,,,,,,,,,,,,,312.02452260000064,0.024522600000636885,None,360.976911400001,360.976911400001,360.976911400001,360.976911400001,360.976911400001,360.976911400001,360.976911400001,360.976911400001,360.976911400001,360.976911400001,,007,P013,2025_Feb_08_1540,ConditionRich,2021.2.3,59.93920965427136,
312.75,316.0,41,0.0,Stimuli/Blank.png,0,0.0,0.0,0,135,135,135,,,,,,,,,,,,,312.7590128999982,0.0090128999981971,None,361.7119891000002,361.7119891000002,361.7119891000002,361.7119891000002,361.7119891000002,361.7119891000002,361.7119891000002,361.7119891000002,361.7119891000002,361.7119891000002,,007,P013,2025_Feb_08_1540,ConditionRich,2021.2.3,59.93920965427136,
316.0,316.75,32,0.75,Stimuli/P013/things_mistletoe_07s.jpg,0,0.0,0.0,0,136,136,136,,,,,,,,,,,,,316.01153110000087,0.01153110000086599,None,364.96377120000034,364.96377120000034,364.96377120000034,364.96377120000034,364.96377120000034,364.96377120000034,364.96377120000034,364.96377120000034,364.96377120000034,364.96377120000034,,007,P013,2025_Feb_08_1540,ConditionRich,2021.2.3,59.93920965427136,
316.75,320.0,41,0.0,Stimuli/Blank.png,0,0.0,0.0,0,137,137,137,,,,,,,,,,,,,316.76307720000113,0.01307720000113477,None,365.7144490999999,365.7144490999999,365.7144490999999,365.7144490999999,365.7144490999999,365.7144490999999,365.7144490999999,365.7144490999999,365.7144490999999,365.7144490999999,,007,P013,2025_Feb_08_1540,ConditionRich,2021.2.3,59.93920965427136,
320.0,320.75,38,0.75,Stimuli/P013/things_spark_plug_07s.jpg,0,0.0,0.0,0,138,138,138,,,,,,,,,,,,,319.9982883999983,-0.0017116000017267652,None,368.95062360000156,368.95062360000156,368.95062360000156,368.95062360000156,368.95062360000156,368.95062360000156,368.95062360000156,368.95062360000156,368.95062360000156,368.95062360000156,,007,P013,2025_Feb_08_1540,ConditionRich,2021.2.3,59.93920965427136,
320.75,324.0,41,0.0,Stimuli/Blank.png,0,0.0,0.0,0,139,139,139,,,,,,,,,,,,,320.76869729999817,0.018697299998166272,None,369.73465639999995,369.73465639999995,369.73465639999995,369.73465639999995,369.73465639999995,369.73465639999995,369.73465639999995,369.73465639999995,369.73465639999995,369.73465639999995,,007,P013,2025_Feb_08_1540,ConditionRich,2021.2.3,59.93920965427136,
324.0,324.75,20,0.75,Stimuli/P013/sun_cidodcxikcyrdglc.jpg,0,0.0,0.0,0,140,140,140,,,,,,,,,,,,,324.0187412999985,0.01874129999850993,None,372.97084840000025,372.97084840000025,372.97084840000025,372.97084840000025,372.97084840000025,372.97084840000025,372.97084840000025,372.97084840000025,372.97084840000025,372.97084840000025,,007,P013,2025_Feb_08_1540,ConditionRich,2021.2.3,59.93920965427136,
324.75,328.0,41,0.0,Stimuli/Blank.png,0,0.0,0.0,0,141,141,141,,,,,,,,,,,,,324.75323650000064,0.003236500000639353,None,373.7048323000017,373.7048323000017,373.7048323000017,373.7048323000017,373.7048323000017,373.7048323000017,373.7048323000017,373.7048323000017,373.7048323000017,373.7048323000017,,007,P013,2025_Feb_08_1540,ConditionRich,2021.2.3,59.93920965427136,
328.0,328.75,28,0.75,Stimuli/P013/things_girl_07s.jpg,0,0.0,0.0,0,142,142,142,,,,,,,,,,,,,328.0080221999997,0.008022199999686563,None,376.974391300002,376.974391300002,376.974391300002,376.974391300002,376.974391300002,376.974391300002,376.974391300002,376.974391300002,376.974391300002,376.974391300002,,007,P013,2025_Feb_08_1540,ConditionRich,2021.2.3,59.93920965427136,
328.75,332.0,41,0.0,Stimuli/Blank.png,0,0.0,0.0,0,143,143,143,,,,,,,,,,,,,328.77282879999984,0.022828799999842886,None,377.7250504000003,377.7250504000003,377.7250504000003,377.7250504000003,377.7250504000003,377.7250504000003,377.7250504000003,377.7250504000003,377.7250504000003,377.7250504000003,,007,P013,2025_Feb_08_1540,ConditionRich,2021.2.3,59.93920965427136,
332.0,332.75,31,0.75,Stimuli/P013/things_mask_07s.jpg,0,0.0,0.0,0,144,144,144,,,,,,,,,,,,,332.00980189999973,0.009801899999729358,None,380.9612546000026,380.9612546000026,380.9612546000026,380.9612546000026,380.9612546000026,380.9612546000026,380.9612546000026,380.9612546000026,380.9612546000026,380.9612546000026,,007,P013,2025_Feb_08_1540,ConditionRich,2021.2.3,59.93920965427136,
332.75,336.0,41,0.0,Stimuli/Blank.png,1,2.25,3.0,0,145,145,145,,,,,,,,,,,,,332.7595541999981,0.009554199998092372,1,381.71191330000147,381.71191330000147,381.71191330000147,381.71191330000147,381.71191330000147,381.71191330000147,383.9472768000014,384.69787930000166,381.71191330000147,381.71191330000147,2.6836666999988665,007,P013,2025_Feb_08_1540,ConditionRich,2021.2.3,59.93920965427136,
336.0,336.75,23,0.75,Stimuli/P013/things_bug_07s.jpg,0,0.0,0.0,0,146,146,146,,,,,,,,,,,,,336.0132115999986,0.013211599998612655,None,384.9647922000004,384.9647922000004,384.9647922000004,384.9647922000004,384.9647922000004,384.9647922000004,384.9647922000004,384.9647922000004,384.9647922000004,384.9647922000004,,007,P013,2025_Feb_08_1540,ConditionRich,2021.2.3,59.93920965427136,
336.75,340.0,41,0.0,Stimuli/Blank.png,0,0.0,0.0,0,147,147,147,,,,,,,,,,,,,336.76317310000013,0.013173100000130944,None,385.71544770000037,385.71544770000037,385.71544770000037,385.71544770000037,385.71544770000037,385.71544770000037,385.71544770000037,385.71544770000037,385.71544770000037,385.71544770000037,,007,P013,2025_Feb_08_1540,ConditionRich,2021.2.3,59.93920965427136,
340.0,340.75,19,0.75,Stimuli/P013/sun_buphlelowxjnoygy.jpg,0,0.0,0.0,0,148,148,148,,,,,,,,,,,,,340.0007587,0.0007587000000057742,None,388.96832820000054,388.96832820000054,388.96832820000054,388.96832820000054,388.96832820000054,388.96832820000054,388.96832820000054,388.96832820000054,388.96832820000054,388.96832820000054,,007,P013,2025_Feb_08_1540,ConditionRich,2021.2.3,59.93920965427136,
340.75,344.0,41,0.0,Stimuli/Blank.png,0,0.0,0.0,0,149,149,149,,,,,,,,,,,,,340.7671698999984,0.017169899998407345,None,389.718993100003,389.718993100003,389.718993100003,389.718993100003,389.718993100003,389.718993100003,389.718993100003,389.718993100003,389.718993100003,389.718993100003,,007,P013,2025_Feb_08_1540,ConditionRich,2021.2.3,59.93920965427136,
344.0,344.75,7,0.75,Stimuli/P013/sun_aojplsluiikxrfxc.jpg,0,0.0,0.0,0,150,150,150,,,,,,,,,,,,,344.0036121999983,0.003612199998315191,None,392.95521630000076,392.95521630000076,392.95521630000076,392.95521630000076,392.95521630000076,392.95521630000076,392.95521630000076,392.95521630000076,392.95521630000076,392.95521630000076,,007,P013,2025_Feb_08_1540,ConditionRich,2021.2.3,59.93920965427136,
344.75,348.0,41,0.0,Stimuli/Blank.png,1,2.25,3.0,0,151,151,151,,,,,,,,,,,,,344.75342660000024,0.0034266000002389774,1,393.70585490000303,393.70585490000303,393.70585490000303,393.70585490000303,393.70585490000303,393.70585490000303,395.9411930000024,396.6918603000013,393.70585490000303,393.70585490000303,2.623761099999683,007,P013,2025_Feb_08_1540,ConditionRich,2021.2.3,59.93920965427136,
348.0,348.75,4,0.75,Stimuli/P013/sun_afgoiykvchxqotyz.jpg,0,0.0,0.0,0,152,152,152,,,,,,,,,,,,,348.0086658,0.008665800000017043,None,396.9754148000029,396.9754148000029,396.9754148000029,396.9754148000029,396.9754148000029,396.9754148000029,396.9754148000029,396.9754148000029,396.9754148000029,396.9754148000029,,007,P013,2025_Feb_08_1540,ConditionRich,2021.2.3,59.93920965427136,
348.75,352.0,41,0.0,Stimuli/Blank.png,0,0.0,0.0,0,153,153,153,,,,,,,,,,,,,348.77368449999994,0.02368449999994482,None,397.7260674999998,397.7260674999998,397.7260674999998,397.7260674999998,397.7260674999998,397.7260674999998,397.7260674999998,397.7260674999998,397.7260674999998,397.7260674999998,,007,P013,2025_Feb_08_1540,ConditionRich,2021.2.3,59.93920965427136,
352.0,352.75,9,0.75,Stimuli/P013/sun_bdgwqzttihopmpbf.jpg,0,0.0,0.0,0,154,154,154,,,,,,,,,,,,,352.00980569999956,0.009805699999560602,None,400.96223910000117,400.96223910000117,400.96223910000117,400.96223910000117,400.96223910000117,400.96223910000117,400.96223910000117,400.96223910000117,400.96223910000117,400.96223910000117,,007,P013,2025_Feb_08_1540,ConditionRich,2021.2.3,59.93920965427136,
352.75,356.0,41,0.0,Stimuli/Blank.png,0,0.0,0.0,0,155,155,155,,,,,,,,,,,,,352.76253440000073,0.012534400000731694,None,401.7296359000029,401.7296359000029,401.7296359000029,401.7296359000029,401.7296359000029,401.7296359000029,401.7296359000029,401.7296359000029,401.7296359000029,401.7296359000029,,007,P013,2025_Feb_08_1540,ConditionRich,2021.2.3,59.93920965427136,
356.0,356.75,5,0.75,Stimuli/P013/sun_aidrxvbfhxtsusrf.jpg,0,0.0,0.0,0,156,156,156,,,,,,,,,,,,,356.0300591999985,0.030059199998504482,None,404.99917760000244,404.99917760000244,404.99917760000244,404.99917760000244,404.99917760000244,404.99917760000244,404.99917760000244,404.99917760000244,404.99917760000244,404.99917760000244,,007,P013,2025_Feb_08_1540,ConditionRich,2021.2.3,59.93920965427136,
356.75,360.0,41,0.0,Stimuli/Blank.png,0,0.0,0.0,0,157,157,157,,,,,,,,,,,,,356.7828238000002,0.032823800000187475,None,405.74982120000277,405.74982120000277,405.74982120000277,405.74982120000277,405.74982120000277,405.74982120000277,405.74982120000277,405.74982120000277,405.74982120000277,405.74982120000277,,007,P013,2025_Feb_08_1540,ConditionRich,2021.2.3,59.93920965427136,
360.0,360.75,40,0.75,Stimuli/P013/things_woman_07s.jpg,0,0.0,0.0,0,158,158,158,,,,,,,,,,,,,360.0176337999983,0.017633799998293398,None,408.9693628000023,408.9693628000023,408.9693628000023,408.9693628000023,408.9693628000023,408.9693628000023,408.9693628000023,408.9693628000023,408.9693628000023,408.9693628000023,,007,P013,2025_Feb_08_1540,ConditionRich,2021.2.3,59.93920965427136,
360.75,364.0,41,0.0,Stimuli/Blank.png,0,0.0,0.0,0,159,159,159,,,,,,,,,,,,,360.75173429999995,0.001734299999952782,None,409.70333709999977,409.70333709999977,409.70333709999977,409.70333709999977,409.70333709999977,409.70333709999977,409.70333709999977,409.70333709999977,409.70333709999977,409.70333709999977,,007,P013,2025_Feb_08_1540,ConditionRich,2021.2.3,59.93920965427136,
364.0,364.75,16,0.75,Stimuli/P013/sun_bsgtkqjrnrvttrax.jpg,0,0.0,0.0,0,160,160,160,,,,,,,,,,,,,364.00398779999887,0.003987799998867558,None,412.9562039000011,412.9562039000011,412.9562039000011,412.9562039000011,412.9562039000011,412.9562039000011,412.9562039000011,412.9562039000011,412.9562039000011,412.9562039000011,,007,P013,2025_Feb_08_1540,ConditionRich,2021.2.3,59.93920965427136,
364.75,368.0,41,0.0,Stimuli/Blank.png,0,0.0,0.0,0,161,161,161,,,,,,,,,,,,,364.75473820000116,0.004738200001156656,None,413.7068730000028,413.7068730000028,413.7068730000028,413.7068730000028,413.7068730000028,413.7068730000028,413.7068730000028,413.7068730000028,413.7068730000028,413.7068730000028,,007,P013,2025_Feb_08_1540,ConditionRich,2021.2.3,59.93920965427136,
368.0,368.75,14,0.75,Stimuli/P013/sun_bqhfterhwnqrbnzg.jpg,0,0.0,0.0,0,162,162,162,,,,,,,,,,,,,368.0082737999983,0.008273799998278264,None,416.95975420000104,416.95975420000104,416.95975420000104,416.95975420000104,416.95975420000104,416.95975420000104,416.95975420000104,416.95975420000104,416.95975420000104,416.95975420000104,,007,P013,2025_Feb_08_1540,ConditionRich,2021.2.3,59.93920965427136,
368.75,372.0,41,0.0,Stimuli/Blank.png,0,0.0,0.0,0,163,163,163,,,,,,,,,,,,,368.75871619999816,0.008716199998161756,None,417.7104010000003,417.7104010000003,417.7104010000003,417.7104010000003,417.7104010000003,417.7104010000003,417.7104010000003,417.7104010000003,417.7104010000003,417.7104010000003,,007,P013,2025_Feb_08_1540,ConditionRich,2021.2.3,59.93920965427136,
372.0,388.0,0,0.0,Stimuli/Blank.png,1,4.0,4.75,0,164,164,164,,,,,,,,,,,,,372.0130000999998,0.013000099999771919,1,420.979939300003,420.979939300003,420.979939300003,420.979939300003,420.979939300003,420.979939300003,424.95018090000303,425.7008612999998,420.979939300003,420.979939300003,4.436798899998394,007,P013,2025_Feb_08_1540,ConditionRich,2021.2.3,59.93920965427136,
