eventStartTime,eventEndTime,eventCond,imSize,imFile,responseEvent,fixRespStart,fixRespEnd,Events.thisRepN,Events.thisTrialN,Events.thisN,Events.thisIndex,Instructions.started,Instructions.stopped,participantReadyResponse.keys,participantReadyResponse.rt,participantReadyResponse.started,participantReadyResponse.stopped,startWaitforTrigger,triggerResponse.keys,triggerResponse.rt,triggerResponse.started,triggerResponse.stopped,globalTimer,actualStartTime,startTimingDiff,participantResponse.keys,participantResponse.started,participantResponse.stopped,image.started,image.stopped,fixationOutside.started,fixationOutside.stopped,fixationResponse.started,fixationResponse.stopped,fixationInside.started,fixationInside.stopped,participantResponse.rt,session,participant,date,expName,psychopyVersion,frameRate,
,,,,,,,,,,,,11.05539189999763,None,1,17.413664899999276,11.05539189999763,None,,,,,,,,,,,,,,,,,,,,,005,P013,2025_Feb_08_1519,ConditionRich,2021.2.3,60.00438031949986,
,,,,,,,,,,,,,,,,,,28.48684179999691,5,15.565210799999477,28.50009030000001,None,,,,,,,,,,,,,,,,005,P013,2025_Feb_08_1519,ConditionRich,2021.2.3,60.00438031949986,
0.0,4.0,0,0.0,Stimuli/Blank.png,0,0,0.0,0,0,0,0,,,,,,,,,,,,44.08378779999839,0.04480889999831561,0.04480889999831561,None,44.14723239999876,None,44.14723239999876,None,44.14723239999876,None,44.14723239999876,44.14723239999876,44.14723239999876,None,,005,P013,2025_Feb_08_1519,ConditionRich,2021.2.3,60.00438031949986,
4.0,4.75,38,0.75,Stimuli/P013/things_spark_plug_07s.jpg,0,0,0.0,0,1,1,1,,,,,,,,,,,,,4.020229900001141,0.020229900001140777,None,48.11768689999735,48.11768689999735,48.11768689999735,48.11768689999735,48.11768689999735,48.11768689999735,48.11768689999735,48.11768689999735,48.11768689999735,48.11768689999735,,005,P013,2025_Feb_08_1519,ConditionRich,2021.2.3,60.00438031949986,
4.75,5.0,41,0.0,Stimuli/Blank.png,0,0,0.0,0,2,2,2,,,,,,,,,,,,,4.753573800000595,0.003573800000594929,None,48.851699499999086,48.851699499999086,48.851699499999086,48.851699499999086,48.851699499999086,48.851699499999086,48.851699499999086,48.851699499999086,48.851699499999086,48.851699499999086,,005,P013,2025_Feb_08_1519,ConditionRich,2021.2.3,60.00438031949986,
5.0,5.75,38,0.75,Stimuli/P013/things_spark_plug_07s.jpg,0,0,0.0,0,3,3,3,,,,,,,,,,,,,5.00327489999836,0.003274899998359615,None,49.10160799999721,49.10160799999721,49.10160799999721,49.10160799999721,49.10160799999721,49.10160799999721,49.10160799999721,49.10160799999721,49.10160799999721,49.10160799999721,,005,P013,2025_Feb_08_1519,ConditionRich,2021.2.3,60.00438031949986,
5.75,6.0,41,0.0,Stimuli/Blank.png,0,0,0.0,0,4,4,4,,,,,,,,,,,,,5.754452199998923,0.004452199998922879,None,49.85226829999738,49.85226829999738,49.85226829999738,49.85226829999738,49.85226829999738,49.85226829999738,49.85226829999738,49.85226829999738,49.85226829999738,49.85226829999738,,005,P013,2025_Feb_08_1519,ConditionRich,2021.2.3,60.00438031949986,
6.0,6.75,38,0.75,Stimuli/P013/things_spark_plug_07s.jpg,0,0,0.0,0,5,5,5,,,,,,,,,,,,,6.005842999999004,0.0058429999990039505,None,50.119595899999695,50.119595899999695,50.119595899999695,50.119595899999695,50.119595899999695,50.119595899999695,50.119595899999695,50.119595899999695,50.119595899999695,50.119595899999695,,005,P013,2025_Feb_08_1519,ConditionRich,2021.2.3,60.00438031949986,
6.75,7.0,41,0.0,Stimuli/Blank.png,0,0,0.0,0,6,6,6,,,,,,,,,,,,,6.77240940000047,0.02240940000046976,None,50.869847899997694,50.869847899997694,50.869847899997694,50.869847899997694,50.869847899997694,50.869847899997694,50.869847899997694,50.869847899997694,50.869847899997694,50.869847899997694,,005,P013,2025_Feb_08_1519,ConditionRich,2021.2.3,60.00438031949986,
7.0,7.75,38,0.75,Stimuli/P013/things_spark_plug_07s.jpg,0,0,0.0,0,7,7,7,,,,,,,,,,,,,7.005641100000503,0.0056411000005027745,None,51.103373799996916,51.103373799996916,51.103373799996916,51.103373799996916,51.103373799996916,51.103373799996916,51.103373799996916,51.103373799996916,51.103373799996916,51.103373799996916,,005,P013,2025_Feb_08_1519,ConditionRich,2021.2.3,60.00438031949986,
7.75,8.0,41,0.0,Stimuli/Blank.png,0,0,0.0,0,8,8,8,,,,,,,,,,,,,7.756016200000886,0.006016200000885874,None,51.85401859999911,51.85401859999911,51.85401859999911,51.85401859999911,51.85401859999911,51.85401859999911,51.85401859999911,51.85401859999911,51.85401859999911,51.85401859999911,,005,P013,2025_Feb_08_1519,ConditionRich,2021.2.3,60.00438031949986,
8.0,8.75,39,0.75,Stimuli/P013/things_violin_07n.jpg,0,0,0.0,0,9,9,9,,,,,,,,,,,,,8.005846399999427,0.005846399999427376,None,52.10425829999804,52.10425829999804,52.10425829999804,52.10425829999804,52.10425829999804,52.10425829999804,52.10425829999804,52.10425829999804,52.10425829999804,52.10425829999804,,005,P013,2025_Feb_08_1519,ConditionRich,2021.2.3,60.00438031949986,
8.75,9.0,41,0.0,Stimuli/Blank.png,0,0,0.0,0,10,10,10,,,,,,,,,,,,,8.757459799999197,0.007459799999196548,None,52.85493509999651,52.85493509999651,52.85493509999651,52.85493509999651,52.85493509999651,52.85493509999651,52.85493509999651,52.85493509999651,52.85493509999651,52.85493509999651,,005,P013,2025_Feb_08_1519,ConditionRich,2021.2.3,60.00438031949986,
9.0,9.75,39,0.75,Stimuli/P013/things_violin_07n.jpg,0,0,0.0,0,11,11,11,,,,,,,,,,,,,9.007528800000728,0.007528800000727642,None,53.121832499997254,53.121832499997254,53.121832499997254,53.121832499997254,53.121832499997254,53.121832499997254,53.121832499997254,53.121832499997254,53.121832499997254,53.121832499997254,,005,P013,2025_Feb_08_1519,ConditionRich,2021.2.3,60.00438031949986,
9.75,10.0,41,0.0,Stimuli/Blank.png,0,0,0.0,0,12,12,12,,,,,,,,,,,,,9.774075500001345,0.024075500001345063,None,53.872497999996995,53.872497999996995,53.872497999996995,53.872497999996995,53.872497999996995,53.872497999996995,53.872497999996995,53.872497999996995,53.872497999996995,53.872497999996995,,005,P013,2025_Feb_08_1519,ConditionRich,2021.2.3,60.00438031949986,
10.0,10.75,39,0.75,Stimuli/P013/things_violin_07n.jpg,0,0,0.0,0,13,13,13,,,,,,,,,,,,,10.008656000001793,0.008656000001792563,None,54.10614419999911,54.10614419999911,54.10614419999911,54.10614419999911,54.10614419999911,54.10614419999911,54.10614419999911,54.10614419999911,54.10614419999911,54.10614419999911,,005,P013,2025_Feb_08_1519,ConditionRich,2021.2.3,60.00438031949986,
10.75,11.0,41,0.0,Stimuli/Blank.png,0,0,0.0,0,14,14,14,,,,,,,,,,,,,10.75838510000176,0.008385100001760293,None,54.85669639999833,54.85669639999833,54.85669639999833,54.85669639999833,54.85669639999833,54.85669639999833,54.85669639999833,54.85669639999833,54.85669639999833,54.85669639999833,,005,P013,2025_Feb_08_1519,ConditionRich,2021.2.3,60.00438031949986,
11.0,11.75,39,0.75,Stimuli/P013/things_violin_07n.jpg,0,0,0.0,0,15,15,15,,,,,,,,,,,,,11.008428199998889,0.008428199998888886,None,55.10692839999683,55.10692839999683,55.10692839999683,55.10692839999683,55.10692839999683,55.10692839999683,55.10692839999683,55.10692839999683,55.10692839999683,55.10692839999683,,005,P013,2025_Feb_08_1519,ConditionRich,2021.2.3,60.00438031949986,
11.75,12.0,41,0.0,Stimuli/Blank.png,0,0,0.0,0,16,16,16,,,,,,,,,,,,,11.759147500000836,0.009147500000835862,None,55.857581199998094,55.857581199998094,55.857581199998094,55.857581199998094,55.857581199998094,55.857581199998094,55.857581199998094,55.857581199998094,55.857581199998094,55.857581199998094,,005,P013,2025_Feb_08_1519,ConditionRich,2021.2.3,60.00438031949986,
12.0,12.75,5,0.75,Stimuli/P013/sun_aidrxvbfhxtsusrf.jpg,0,0,0.0,0,17,17,17,,,,,,,,,,,,,12.009946900001523,0.009946900001523318,None,56.124489099998755,56.124489099998755,56.124489099998755,56.124489099998755,56.124489099998755,56.124489099998755,56.124489099998755,56.124489099998755,56.124489099998755,56.124489099998755,,005,P013,2025_Feb_08_1519,ConditionRich,2021.2.3,60.00438031949986,
12.75,13.0,41,0.0,Stimuli/Blank.png,0,0,0.0,0,18,18,18,,,,,,,,,,,,,12.777517300000909,0.027517300000909017,None,56.87515679999706,56.87515679999706,56.87515679999706,56.87515679999706,56.87515679999706,56.87515679999706,56.87515679999706,56.87515679999706,56.87515679999706,56.87515679999706,,005,P013,2025_Feb_08_1519,ConditionRich,2021.2.3,60.00438031949986,
13.0,13.75,5,0.75,Stimuli/P013/sun_aidrxvbfhxtsusrf.jpg,0,0,0.0,0,19,19,19,,,,,,,,,,,,,13.010694799999328,0.010694799999328097,None,57.108663299997716,57.108663299997716,57.108663299997716,57.108663299997716,57.108663299997716,57.108663299997716,57.108663299997716,57.108663299997716,57.108663299997716,57.108663299997716,,005,P013,2025_Feb_08_1519,ConditionRich,2021.2.3,60.00438031949986,
13.75,14.0,41,0.0,Stimuli/Blank.png,0,0,0.0,0,20,20,20,,,,,,,,,,,,,13.762487299998611,0.012487299998610979,None,57.876047499998094,57.876047499998094,57.876047499998094,57.876047499998094,57.876047499998094,57.876047499998094,57.876047499998094,57.876047499998094,57.876047499998094,57.876047499998094,,005,P013,2025_Feb_08_1519,ConditionRich,2021.2.3,60.00438031949986,
14.0,14.75,5,0.75,Stimuli/P013/sun_aidrxvbfhxtsusrf.jpg,0,0,0.0,0,21,21,21,,,,,,,,,,,,,14.027818899998238,0.02781889999823761,None,58.126252099998965,58.126252099998965,58.126252099998965,58.126252099998965,58.126252099998965,58.126252099998965,58.126252099998965,58.126252099998965,58.126252099998965,58.126252099998965,,005,P013,2025_Feb_08_1519,ConditionRich,2021.2.3,60.00438031949986,
14.75,15.0,41,0.0,Stimuli/Blank.png,0,0,0.0,0,22,22,22,,,,,,,,,,,,,14.763020999998844,0.013020999998843763,None,58.87694089999786,58.87694089999786,58.87694089999786,58.87694089999786,58.87694089999786,58.87694089999786,58.87694089999786,58.87694089999786,58.87694089999786,58.87694089999786,,005,P013,2025_Feb_08_1519,ConditionRich,2021.2.3,60.00438031949986,
15.0,15.75,5,0.75,Stimuli/P013/sun_aidrxvbfhxtsusrf.jpg,0,0,0.0,0,23,23,23,,,,,,,,,,,,,15.031769699999131,0.03176969999913126,None,59.14382159999877,59.14382159999877,59.14382159999877,59.14382159999877,59.14382159999877,59.14382159999877,59.14382159999877,59.14382159999877,59.14382159999877,59.14382159999877,,005,P013,2025_Feb_08_1519,ConditionRich,2021.2.3,60.00438031949986,
15.75,16.0,41,0.0,Stimuli/Blank.png,0,0,0.0,0,24,24,24,,,,,,,,,,,,,15.763445799999317,0.013445799999317387,None,59.86112299999877,59.86112299999877,59.86112299999877,59.86112299999877,59.86112299999877,59.86112299999877,59.86112299999877,59.86112299999877,59.86112299999877,59.86112299999877,,005,P013,2025_Feb_08_1519,ConditionRich,2021.2.3,60.00438031949986,
16.0,16.75,13,0.75,Stimuli/P013/sun_bpccpwpohfirajtf.jpg,0,0,0.0,0,25,25,25,,,,,,,,,,,,,16.013702000000194,0.013702000000193948,None,60.111342699998204,60.111342699998204,60.111342699998204,60.111342699998204,60.111342699998204,60.111342699998204,60.111342699998204,60.111342699998204,60.111342699998204,60.111342699998204,,005,P013,2025_Feb_08_1519,ConditionRich,2021.2.3,60.00438031949986,
16.75,17.0,41,0.0,Stimuli/Blank.png,0,0,0.0,0,26,26,26,,,,,,,,,,,,,16.766881999999896,0.016881999999895925,None,60.87869269999646,60.87869269999646,60.87869269999646,60.87869269999646,60.87869269999646,60.87869269999646,60.87869269999646,60.87869269999646,60.87869269999646,60.87869269999646,,005,P013,2025_Feb_08_1519,ConditionRich,2021.2.3,60.00438031949986,
17.0,17.75,13,0.75,Stimuli/P013/sun_bpccpwpohfirajtf.jpg,0,0,0.0,0,27,27,27,,,,,,,,,,,,,17.013935399998445,0.013935399998445064,None,61.112437099996896,61.112437099996896,61.112437099996896,61.112437099996896,61.112437099996896,61.112437099996896,61.112437099996896,61.112437099996896,61.112437099996896,61.112437099996896,,005,P013,2025_Feb_08_1519,ConditionRich,2021.2.3,60.00438031949986,
17.75,18.0,41,0.0,Stimuli/Blank.png,0,0,0.0,0,28,28,28,,,,,,,,,,,,,17.765295699999115,0.015295699999114731,None,61.86289459999898,61.86289459999898,61.86289459999898,61.86289459999898,61.86289459999898,61.86289459999898,61.86289459999898,61.86289459999898,61.86289459999898,61.86289459999898,,005,P013,2025_Feb_08_1519,ConditionRich,2021.2.3,60.00438031949986,
18.0,18.75,13,0.75,Stimuli/P013/sun_bpccpwpohfirajtf.jpg,0,0,0.0,0,29,29,29,,,,,,,,,,,,,18.016867599999387,0.016867599999386584,None,62.12980199999947,62.12980199999947,62.12980199999947,62.12980199999947,62.12980199999947,62.12980199999947,62.12980199999947,62.12980199999947,62.12980199999947,62.12980199999947,,005,P013,2025_Feb_08_1519,ConditionRich,2021.2.3,60.00438031949986,
18.75,19.0,41,0.0,Stimuli/Blank.png,0,0,0.0,0,30,30,30,,,,,,,,,,,,,18.767281399999774,0.017281399999774294,None,62.880460699998366,62.880460699998366,62.880460699998366,62.880460699998366,62.880460699998366,62.880460699998366,62.880460699998366,62.880460699998366,62.880460699998366,62.880460699998366,,005,P013,2025_Feb_08_1519,ConditionRich,2021.2.3,60.00438031949986,
19.0,19.75,13,0.75,Stimuli/P013/sun_bpccpwpohfirajtf.jpg,0,0,0.0,0,31,31,31,,,,,,,,,,,,,19.01637480000136,0.01637480000135838,None,63.13068729999941,63.13068729999941,63.13068729999941,63.13068729999941,63.13068729999941,63.13068729999941,63.13068729999941,63.13068729999941,63.13068729999941,63.13068729999941,,005,P013,2025_Feb_08_1519,ConditionRich,2021.2.3,60.00438031949986,
19.75,20.0,41,0.0,Stimuli/Blank.png,0,0,0.0,0,32,32,32,,,,,,,,,,,,,19.766268200000923,0.01626820000092266,None,63.86464089999936,63.86464089999936,63.86464089999936,63.86464089999936,63.86464089999936,63.86464089999936,63.86464089999936,63.86464089999936,63.86464089999936,63.86464089999936,,005,P013,2025_Feb_08_1519,ConditionRich,2021.2.3,60.00438031949986,
20.0,20.75,31,0.75,Stimuli/P013/things_mask_07s.jpg,0,0,0.0,0,33,33,33,,,,,,,,,,,,,20.001726400001644,0.001726400001643924,None,64.1149046999999,64.1149046999999,64.1149046999999,64.1149046999999,64.1149046999999,64.1149046999999,64.1149046999999,64.1149046999999,64.1149046999999,64.1149046999999,,005,P013,2025_Feb_08_1519,ConditionRich,2021.2.3,60.00438031949986,
20.75,21.0,41,0.0,Stimuli/Blank.png,0,0,0.0,0,34,34,34,,,,,,,,,,,,,20.767980500000704,0.017980500000703614,None,64.86555849999786,64.86555849999786,64.86555849999786,64.86555849999786,64.86555849999786,64.86555849999786,64.86555849999786,64.86555849999786,64.86555849999786,64.86555849999786,,005,P013,2025_Feb_08_1519,ConditionRich,2021.2.3,60.00438031949986,
21.0,21.75,31,0.75,Stimuli/P013/things_mask_07s.jpg,0,0,0.0,0,35,35,35,,,,,,,,,,,,,21.000759800001106,0.0007598000011057593,None,65.09908670000004,65.09908670000004,65.09908670000004,65.09908670000004,65.09908670000004,65.09908670000004,65.09908670000004,65.09908670000004,65.09908670000004,65.09908670000004,,005,P013,2025_Feb_08_1519,ConditionRich,2021.2.3,60.00438031949986,
21.75,22.0,41,0.0,Stimuli/Blank.png,0,0,0.0,0,36,36,36,,,,,,,,,,,,,21.751563500001794,0.0015635000017937273,None,65.84974969999894,65.84974969999894,65.84974969999894,65.84974969999894,65.84974969999894,65.84974969999894,65.84974969999894,65.84974969999894,65.84974969999894,65.84974969999894,,005,P013,2025_Feb_08_1519,ConditionRich,2021.2.3,60.00438031949986,
22.0,22.75,31,0.75,Stimuli/P013/things_mask_07s.jpg,0,0,0.0,0,37,37,37,,,,,,,,,,,,,22.00216939999882,0.002169399998820154,None,66.11667219999799,66.11667219999799,66.11667219999799,66.11667219999799,66.11667219999799,66.11667219999799,66.11667219999799,66.11667219999799,66.11667219999799,66.11667219999799,,005,P013,2025_Feb_08_1519,ConditionRich,2021.2.3,60.00438031949986,
22.75,23.0,41,0.0,Stimuli/Blank.png,0,0,0.0,0,38,38,38,,,,,,,,,,,,,22.769044100001338,0.019044100001337938,None,66.86731379999765,66.86731379999765,66.86731379999765,66.86731379999765,66.86731379999765,66.86731379999765,66.86731379999765,66.86731379999765,66.86731379999765,66.86731379999765,,005,P013,2025_Feb_08_1519,ConditionRich,2021.2.3,60.00438031949986,
23.0,23.75,31,0.75,Stimuli/P013/things_mask_07s.jpg,0,0,0.0,0,39,39,39,,,,,,,,,,,,,23.00306669999918,0.0030666999991808552,None,67.10086359999696,67.10086359999696,67.10086359999696,67.10086359999696,67.10086359999696,67.10086359999696,67.10086359999696,67.10086359999696,67.10086359999696,67.10086359999696,,005,P013,2025_Feb_08_1519,ConditionRich,2021.2.3,60.00438031949986,
23.75,24.0,41,0.0,Stimuli/Blank.png,0,0,0.0,0,40,40,40,,,,,,,,,,,,,23.753912799998943,0.003912799998943228,None,67.85151819999737,67.85151819999737,67.85151819999737,67.85151819999737,67.85151819999737,67.85151819999737,67.85151819999737,67.85151819999737,67.85151819999737,67.85151819999737,,005,P013,2025_Feb_08_1519,ConditionRich,2021.2.3,60.00438031949986,
24.0,24.75,2,0.75,Stimuli/P013/sun_adotnsaifoooswkf.jpg,0,0,0.0,0,41,41,41,,,,,,,,,,,,,24.003753400000278,0.0037534000002779067,None,68.11843359999693,68.11843359999693,68.11843359999693,68.11843359999693,68.11843359999693,68.11843359999693,68.11843359999693,68.11843359999693,68.11843359999693,68.11843359999693,,005,P013,2025_Feb_08_1519,ConditionRich,2021.2.3,60.00438031949986,
24.75,25.0,41,0.0,Stimuli/Blank.png,0,0,0.0,0,42,42,42,,,,,,,,,,,,,24.771476499998244,0.021476499998243526,None,68.8690906999982,68.8690906999982,68.8690906999982,68.8690906999982,68.8690906999982,68.8690906999982,68.8690906999982,68.8690906999982,68.8690906999982,68.8690906999982,,005,P013,2025_Feb_08_1519,ConditionRich,2021.2.3,60.00438031949986,
25.0,25.75,2,0.75,Stimuli/P013/sun_adotnsaifoooswkf.jpg,0,0,0.0,0,43,43,43,,,,,,,,,,,,,25.00424859999839,0.0042485999983910006,None,69.11932319999687,69.11932319999687,69.11932319999687,69.11932319999687,69.11932319999687,69.11932319999687,69.11932319999687,69.11932319999687,69.11932319999687,69.11932319999687,,005,P013,2025_Feb_08_1519,ConditionRich,2021.2.3,60.00438031949986,
25.75,26.0,41,0.0,Stimuli/Blank.png,0,0,0.0,0,44,44,44,,,,,,,,,,,,,25.772354000000632,0.022354000000632368,None,69.86998369999856,69.86998369999856,69.86998369999856,69.86998369999856,69.86998369999856,69.86998369999856,69.86998369999856,69.86998369999856,69.86998369999856,69.86998369999856,,005,P013,2025_Feb_08_1519,ConditionRich,2021.2.3,60.00438031949986,
26.0,26.75,2,0.75,Stimuli/P013/sun_adotnsaifoooswkf.jpg,0,0,0.0,0,45,45,45,,,,,,,,,,,,,26.00530660000004,0.005306600000039907,None,70.10352179999973,70.10352179999973,70.10352179999973,70.10352179999973,70.10352179999973,70.10352179999973,70.10352179999973,70.10352179999973,70.10352179999973,70.10352179999973,,005,P013,2025_Feb_08_1519,ConditionRich,2021.2.3,60.00438031949986,
26.75,27.0,41,0.0,Stimuli/Blank.png,0,0,0.0,0,46,46,46,,,,,,,,,,,,,26.756814600001235,0.006814600001234794,None,70.85415229999853,70.85415229999853,70.85415229999853,70.85415229999853,70.85415229999853,70.85415229999853,70.85415229999853,70.85415229999853,70.85415229999853,70.85415229999853,,005,P013,2025_Feb_08_1519,ConditionRich,2021.2.3,60.00438031949986,
27.0,27.75,2,0.75,Stimuli/P013/sun_adotnsaifoooswkf.jpg,0,0,0.0,0,47,47,47,,,,,,,,,,,,,27.006109999998444,0.006109999998443527,None,71.10440119999839,71.10440119999839,71.10440119999839,71.10440119999839,71.10440119999839,71.10440119999839,71.10440119999839,71.10440119999839,71.10440119999839,71.10440119999839,,005,P013,2025_Feb_08_1519,ConditionRich,2021.2.3,60.00438031949986,
27.75,28.0,41,0.0,Stimuli/Blank.png,0,0,0.0,0,48,48,48,,,,,,,,,,,,,27.75763039999947,0.007630399999470683,None,71.85506389999864,71.85506389999864,71.85506389999864,71.85506389999864,71.85506389999864,71.85506389999864,71.85506389999864,71.85506389999864,71.85506389999864,71.85506389999864,,005,P013,2025_Feb_08_1519,ConditionRich,2021.2.3,60.00438031949986,
28.0,28.75,16,0.75,Stimuli/P013/sun_bsgtkqjrnrvttrax.jpg,0,0,0.0,0,49,49,49,,,,,,,,,,,,,28.008431099999143,0.008431099999143044,None,72.12196899999981,72.12196899999981,72.12196899999981,72.12196899999981,72.12196899999981,72.12196899999981,72.12196899999981,72.12196899999981,72.12196899999981,72.12196899999981,,005,P013,2025_Feb_08_1519,ConditionRich,2021.2.3,60.00438031949986,
28.75,29.0,41,0.0,Stimuli/Blank.png,0,0,0.0,0,50,50,50,,,,,,,,,,,,,28.77425629999925,0.024256299999251496,None,72.87263149999853,72.87263149999853,72.87263149999853,72.87263149999853,72.87263149999853,72.87263149999853,72.87263149999853,72.87263149999853,72.87263149999853,72.87263149999853,,005,P013,2025_Feb_08_1519,ConditionRich,2021.2.3,60.00438031949986,
29.0,29.75,16,0.75,Stimuli/P013/sun_bsgtkqjrnrvttrax.jpg,0,0,0.0,0,51,51,51,,,,,,,,,,,,,29.00892400000157,0.008924000001570676,None,73.10616479999953,73.10616479999953,73.10616479999953,73.10616479999953,73.10616479999953,73.10616479999953,73.10616479999953,73.10616479999953,73.10616479999953,73.10616479999953,,005,P013,2025_Feb_08_1519,ConditionRich,2021.2.3,60.00438031949986,
29.75,30.0,41,0.0,Stimuli/Blank.png,0,0,0.0,0,52,52,52,,,,,,,,,,,,,29.758384400000068,0.008384400000068126,None,73.8568368999986,73.8568368999986,73.8568368999986,73.8568368999986,73.8568368999986,73.8568368999986,73.8568368999986,73.8568368999986,73.8568368999986,73.8568368999986,,005,P013,2025_Feb_08_1519,ConditionRich,2021.2.3,60.00438031949986,
30.0,30.75,16,0.75,Stimuli/P013/sun_bsgtkqjrnrvttrax.jpg,0,0,0.0,0,53,53,53,,,,,,,,,,,,,30.009424100000615,0.009424100000614999,None,74.12374249999993,74.12374249999993,74.12374249999993,74.12374249999993,74.12374249999993,74.12374249999993,74.12374249999993,74.12374249999993,74.12374249999993,74.12374249999993,,005,P013,2025_Feb_08_1519,ConditionRich,2021.2.3,60.00438031949986,
30.75,31.0,41,0.0,Stimuli/Blank.png,0,0,0.0,0,54,54,54,,,,,,,,,,,,,30.777511100000993,0.027511100000992883,None,74.87440619999688,74.87440619999688,74.87440619999688,74.87440619999688,74.87440619999688,74.87440619999688,74.87440619999688,74.87440619999688,74.87440619999688,74.87440619999688,,005,P013,2025_Feb_08_1519,ConditionRich,2021.2.3,60.00438031949986,
31.0,31.75,16,0.75,Stimuli/P013/sun_bsgtkqjrnrvttrax.jpg,0,0,0.0,0,55,55,55,,,,,,,,,,,,,31.00953809999919,0.009538099999190308,None,75.12465279999742,75.12465279999742,75.12465279999742,75.12465279999742,75.12465279999742,75.12465279999742,75.12465279999742,75.12465279999742,75.12465279999742,75.12465279999742,,005,P013,2025_Feb_08_1519,ConditionRich,2021.2.3,60.00438031949986,
31.75,32.0,41,0.0,Stimuli/Blank.png,0,0,0.0,0,56,56,56,,,,,,,,,,,,,31.778461900001275,0.028461900001275353,None,75.87529099999665,75.87529099999665,75.87529099999665,75.87529099999665,75.87529099999665,75.87529099999665,75.87529099999665,75.87529099999665,75.87529099999665,75.87529099999665,,005,P013,2025_Feb_08_1519,ConditionRich,2021.2.3,60.00438031949986,
32.0,32.75,9,0.75,Stimuli/P013/sun_bdgwqzttihopmpbf.jpg,1,0,0.75,0,57,57,57,,,,,,,,,,,,,32.01248560000022,0.012485600000218255,None,76.12551759999769,76.12551759999769,76.12551759999769,76.12551759999769,76.12551759999769,76.12551759999769,76.12551759999769,76.85948149999967,76.12551759999769,76.12551759999769,,005,P013,2025_Feb_08_1519,ConditionRich,2021.2.3,60.00438031949986,
32.75,33.0,41,0.0,Stimuli/Blank.png,0,0,0.0,0,58,58,58,,,,,,,,,,,,,32.777741400001105,0.02774140000110492,1,76.87617150000005,76.87617150000005,76.87617150000005,76.87617150000005,76.87617150000005,76.87617150000005,76.87617150000005,76.87617150000005,76.87617150000005,76.87617150000005,0.03925129999697674,005,P013,2025_Feb_08_1519,ConditionRich,2021.2.3,60.00438031949986,
33.0,33.75,9,0.75,Stimuli/P013/sun_bdgwqzttihopmpbf.jpg,0,0,0.0,0,59,59,59,,,,,,,,,,,,,33.011580099999264,0.011580099999264348,None,77.10970959999759,77.10970959999759,77.10970959999759,77.10970959999759,77.10970959999759,77.10970959999759,77.10970959999759,77.10970959999759,77.10970959999759,77.10970959999759,,005,P013,2025_Feb_08_1519,ConditionRich,2021.2.3,60.00438031949986,
33.75,34.0,41,0.0,Stimuli/Blank.png,0,0,0.0,0,60,60,60,,,,,,,,,,,,,33.762585199998284,0.012585199998284224,None,77.86037509999733,77.86037509999733,77.86037509999733,77.86037509999733,77.86037509999733,77.86037509999733,77.86037509999733,77.86037509999733,77.86037509999733,77.86037509999733,,005,P013,2025_Feb_08_1519,ConditionRich,2021.2.3,60.00438031949986,
34.0,34.75,9,0.75,Stimuli/P013/sun_bdgwqzttihopmpbf.jpg,0,0,0.0,0,61,61,61,,,,,,,,,,,,,34.01242439999987,0.012424399999872549,None,78.11059639999803,78.11059639999803,78.11059639999803,78.11059639999803,78.11059639999803,78.11059639999803,78.11059639999803,78.11059639999803,78.11059639999803,78.11059639999803,,005,P013,2025_Feb_08_1519,ConditionRich,2021.2.3,60.00438031949986,
34.75,35.0,41,0.0,Stimuli/Blank.png,0,0,0.0,0,62,62,62,,,,,,,,,,,,,34.76281970000127,0.012819700001273304,None,78.86126089999743,78.86126089999743,78.86126089999743,78.86126089999743,78.86126089999743,78.86126089999743,78.86126089999743,78.86126089999743,78.86126089999743,78.86126089999743,,005,P013,2025_Feb_08_1519,ConditionRich,2021.2.3,60.00438031949986,
35.0,35.75,9,0.75,Stimuli/P013/sun_bdgwqzttihopmpbf.jpg,0,0,0.0,0,63,63,63,,,,,,,,,,,,,35.0138025999986,0.013802599998598453,None,79.11148789999788,79.11148789999788,79.11148789999788,79.11148789999788,79.11148789999788,79.11148789999788,79.11148789999788,79.11148789999788,79.11148789999788,79.11148789999788,,005,P013,2025_Feb_08_1519,ConditionRich,2021.2.3,60.00438031949986,
35.75,36.0,41,0.0,Stimuli/Blank.png,0,0,0.0,0,64,64,64,,,,,,,,,,,,,35.7640868999988,0.014086899998801528,None,79.86216089999652,79.86216089999652,79.86216089999652,79.86216089999652,79.86216089999652,79.86216089999652,79.86216089999652,79.86216089999652,79.86216089999652,79.86216089999652,,005,P013,2025_Feb_08_1519,ConditionRich,2021.2.3,60.00438031949986,
36.0,36.75,34,0.75,Stimuli/P013/things_radio_07s.jpg,1,0,0.75,0,65,65,65,,,,,,,,,,,,,36.01494340000136,0.014943400001357077,1,80.12903919999735,80.12903919999735,80.12903919999735,80.12903919999735,80.12903919999735,80.12903919999735,80.12903919999735,80.84634829999777,80.12903919999735,80.12903919999735,0.6121376000010059,005,P013,2025_Feb_08_1519,ConditionRich,2021.2.3,60.00438031949986,
36.75,37.0,41,0.0,Stimuli/Blank.png,0,0,0.0,0,66,66,66,,,,,,,,,,,,,36.78281900000002,0.032819000000017695,None,80.8797179999965,80.8797179999965,80.8797179999965,80.8797179999965,80.8797179999965,80.8797179999965,80.8797179999965,80.8797179999965,80.8797179999965,80.8797179999965,,005,P013,2025_Feb_08_1519,ConditionRich,2021.2.3,60.00438031949986,
37.0,37.75,34,0.75,Stimuli/P013/things_radio_07s.jpg,0,0,0.0,0,67,67,67,,,,,,,,,,,,,36.99941609999951,-0.0005839000004925765,None,81.11329549999937,81.11329549999937,81.11329549999937,81.11329549999937,81.11329549999937,81.11329549999937,81.11329549999937,81.11329549999937,81.11329549999937,81.11329549999937,,005,P013,2025_Feb_08_1519,ConditionRich,2021.2.3,60.00438031949986,
37.75,38.0,41,0.0,Stimuli/Blank.png,0,0,0.0,0,68,68,68,,,,,,,,,,,,,37.76615650000167,0.016156500001670793,None,81.86391709999953,81.86391709999953,81.86391709999953,81.86391709999953,81.86391709999953,81.86391709999953,81.86391709999953,81.86391709999953,81.86391709999953,81.86391709999953,,005,P013,2025_Feb_08_1519,ConditionRich,2021.2.3,60.00438031949986,
38.0,38.75,34,0.75,Stimuli/P013/things_radio_07s.jpg,0,0,0.0,0,69,69,69,,,,,,,,,,,,,37.99896979999903,-0.0010302000009687617,None,82.09745699999985,82.09745699999985,82.09745699999985,82.09745699999985,82.09745699999985,82.09745699999985,82.09745699999985,82.09745699999985,82.09745699999985,82.09745699999985,,005,P013,2025_Feb_08_1519,ConditionRich,2021.2.3,60.00438031949986,
38.75,39.0,41,0.0,Stimuli/Blank.png,0,0,0.0,0,70,70,70,,,,,,,,,,,,,38.75227040000027,0.002270400000270456,None,82.86481229999845,82.86481229999845,82.86481229999845,82.86481229999845,82.86481229999845,82.86481229999845,82.86481229999845,82.86481229999845,82.86481229999845,82.86481229999845,,005,P013,2025_Feb_08_1519,ConditionRich,2021.2.3,60.00438031949986,
39.0,39.75,34,0.75,Stimuli/P013/things_radio_07s.jpg,0,0,0.0,0,71,71,71,,,,,,,,,,,,,39.0173747000008,0.017374700000800658,None,83.13173249999818,83.13173249999818,83.13173249999818,83.13173249999818,83.13173249999818,83.13173249999818,83.13173249999818,83.13173249999818,83.13173249999818,83.13173249999818,,005,P013,2025_Feb_08_1519,ConditionRich,2021.2.3,60.00438031949986,
39.75,40.0,41,0.0,Stimuli/Blank.png,0,0,0.0,0,72,72,72,,,,,,,,,,,,,39.768064299998514,0.01806429999851389,None,83.86647229999653,83.86647229999653,83.86647229999653,83.86647229999653,83.86647229999653,83.86647229999653,83.86647229999653,83.86647229999653,83.86647229999653,83.86647229999653,,005,P013,2025_Feb_08_1519,ConditionRich,2021.2.3,60.00438031949986,
40.0,40.75,4,0.75,Stimuli/P013/sun_afgoiykvchxqotyz.jpg,0,0,0.0,0,73,73,73,,,,,,,,,,,,,40.00178009999945,0.0017800999994506128,None,84.11591019999832,84.11591019999832,84.11591019999832,84.11591019999832,84.11591019999832,84.11591019999832,84.11591019999832,84.11591019999832,84.11591019999832,84.11591019999832,,005,P013,2025_Feb_08_1519,ConditionRich,2021.2.3,60.00438031949986,
40.75,41.0,41,0.0,Stimuli/Blank.png,0,0,0.0,0,74,74,74,,,,,,,,,,,,,40.76809960000173,0.01809960000173305,None,84.86657859999832,84.86657859999832,84.86657859999832,84.86657859999832,84.86657859999832,84.86657859999832,84.86657859999832,84.86657859999832,84.86657859999832,84.86657859999832,,005,P013,2025_Feb_08_1519,ConditionRich,2021.2.3,60.00438031949986,
41.0,41.75,4,0.75,Stimuli/P013/sun_afgoiykvchxqotyz.jpg,0,0,0.0,0,75,75,75,,,,,,,,,,,,,41.00257000000056,0.0025700000005599577,None,85.11681499999759,85.11681499999759,85.11681499999759,85.11681499999759,85.11681499999759,85.11681499999759,85.11681499999759,85.11681499999759,85.11681499999759,85.11681499999759,,005,P013,2025_Feb_08_1519,ConditionRich,2021.2.3,60.00438031949986,
41.75,42.0,41,0.0,Stimuli/Blank.png,0,0,0.0,0,76,76,76,,,,,,,,,,,,,41.769833300000755,0.019833300000755116,None,85.86745879999944,85.86745879999944,85.86745879999944,85.86745879999944,85.86745879999944,85.86745879999944,85.86745879999944,85.86745879999944,85.86745879999944,85.86745879999944,,005,P013,2025_Feb_08_1519,ConditionRich,2021.2.3,60.00438031949986,
42.0,42.75,4,0.75,Stimuli/P013/sun_afgoiykvchxqotyz.jpg,0,0,0.0,0,77,77,77,,,,,,,,,,,,,42.00368470000103,0.0036847000010311604,None,86.10098949999883,86.10098949999883,86.10098949999883,86.10098949999883,86.10098949999883,86.10098949999883,86.10098949999883,86.10098949999883,86.10098949999883,86.10098949999883,,005,P013,2025_Feb_08_1519,ConditionRich,2021.2.3,60.00438031949986,
42.75,43.0,41,0.0,Stimuli/Blank.png,0,0,0.0,0,78,78,78,,,,,,,,,,,,,42.753656600001705,0.0036566000017046463,None,86.8516561999968,86.8516561999968,86.8516561999968,86.8516561999968,86.8516561999968,86.8516561999968,86.8516561999968,86.8516561999968,86.8516561999968,86.8516561999968,,005,P013,2025_Feb_08_1519,ConditionRich,2021.2.3,60.00438031949986,
43.0,43.75,4,0.75,Stimuli/P013/sun_afgoiykvchxqotyz.jpg,0,0,0.0,0,79,79,79,,,,,,,,,,,,,43.003693899998325,0.0036938999983249232,None,87.11858559999746,87.11858559999746,87.11858559999746,87.11858559999746,87.11858559999746,87.11858559999746,87.11858559999746,87.11858559999746,87.11858559999746,87.11858559999746,,005,P013,2025_Feb_08_1519,ConditionRich,2021.2.3,60.00438031949986,
43.75,44.0,41,0.0,Stimuli/Blank.png,0,0,0.0,0,80,80,80,,,,,,,,,,,,,43.77128689999881,0.02128689999881317,None,87.86921939999957,87.86921939999957,87.86921939999957,87.86921939999957,87.86921939999957,87.86921939999957,87.86921939999957,87.86921939999957,87.86921939999957,87.86921939999957,,005,P013,2025_Feb_08_1519,ConditionRich,2021.2.3,60.00438031949986,
44.0,44.75,25,0.75,Stimuli/P013/things_cashew_07s.jpg,0,0,0.0,0,81,81,81,,,,,,,,,,,,,44.0050545999984,0.005054599998402409,None,88.11941229999866,88.11941229999866,88.11941229999866,88.11941229999866,88.11941229999866,88.11941229999866,88.11941229999866,88.11941229999866,88.11941229999866,88.11941229999866,,005,P013,2025_Feb_08_1519,ConditionRich,2021.2.3,60.00438031949986,
44.75,45.0,41,0.0,Stimuli/Blank.png,0,0,0.0,0,82,82,82,,,,,,,,,,,,,44.77232459999868,0.02232459999868297,None,88.87012199999663,88.87012199999663,88.87012199999663,88.87012199999663,88.87012199999663,88.87012199999663,88.87012199999663,88.87012199999663,88.87012199999663,88.87012199999663,,005,P013,2025_Feb_08_1519,ConditionRich,2021.2.3,60.00438031949986,
45.0,45.75,25,0.75,Stimuli/P013/things_cashew_07s.jpg,0,0,0.0,0,83,83,83,,,,,,,,,,,,,45.00548250000065,0.00548250000065309,None,89.10365649999949,89.10365649999949,89.10365649999949,89.10365649999949,89.10365649999949,89.10365649999949,89.10365649999949,89.10365649999949,89.10365649999949,89.10365649999949,,005,P013,2025_Feb_08_1519,ConditionRich,2021.2.3,60.00438031949986,
45.75,46.0,41,0.0,Stimuli/Blank.png,0,0,0.0,0,84,84,84,,,,,,,,,,,,,45.75651830000061,0.006518300000607269,None,89.8543217999977,89.8543217999977,89.8543217999977,89.8543217999977,89.8543217999977,89.8543217999977,89.8543217999977,89.8543217999977,89.8543217999977,89.8543217999977,,005,P013,2025_Feb_08_1519,ConditionRich,2021.2.3,60.00438031949986,
46.0,46.75,25,0.75,Stimuli/P013/things_cashew_07s.jpg,0,0,0.0,0,85,85,85,,,,,,,,,,,,,46.006161900000734,0.006161900000734022,None,90.10453439999765,90.10453439999765,90.10453439999765,90.10453439999765,90.10453439999765,90.10453439999765,90.10453439999765,90.10453439999765,90.10453439999765,90.10453439999765,,005,P013,2025_Feb_08_1519,ConditionRich,2021.2.3,60.00438031949986,
46.75,47.0,41,0.0,Stimuli/Blank.png,0,0,0.0,0,86,86,86,,,,,,,,,,,,,46.75670280000122,0.006702800001221476,None,90.85519690000001,90.85519690000001,90.85519690000001,90.85519690000001,90.85519690000001,90.85519690000001,90.85519690000001,90.85519690000001,90.85519690000001,90.85519690000001,,005,P013,2025_Feb_08_1519,ConditionRich,2021.2.3,60.00438031949986,
47.0,47.75,25,0.75,Stimuli/P013/things_cashew_07s.jpg,0,0,0.0,0,87,87,87,,,,,,,,,,,,,47.00764459999846,0.0076445999984571245,None,91.12209439999788,91.12209439999788,91.12209439999788,91.12209439999788,91.12209439999788,91.12209439999788,91.12209439999788,91.12209439999788,91.12209439999788,91.12209439999788,,005,P013,2025_Feb_08_1519,ConditionRich,2021.2.3,60.00438031949986,
47.75,48.0,41,0.0,Stimuli/Blank.png,0,0,0.0,0,88,88,88,,,,,,,,,,,,,47.77736079999886,0.027360799998859875,None,91.88946269999724,91.88946269999724,91.88946269999724,91.88946269999724,91.88946269999724,91.88946269999724,91.88946269999724,91.88946269999724,91.88946269999724,91.88946269999724,,005,P013,2025_Feb_08_1519,ConditionRich,2021.2.3,60.00438031949986,
48.0,48.75,21,0.75,Stimuli/P013/things_baby_07s.jpg,0,0,0.0,0,89,89,89,,,,,,,,,,,,,48.027271899998595,0.027271899998595472,None,92.14027669999996,92.14027669999996,92.14027669999996,92.14027669999996,92.14027669999996,92.14027669999996,92.14027669999996,92.14027669999996,92.14027669999996,92.14027669999996,,005,P013,2025_Feb_08_1519,ConditionRich,2021.2.3,60.00438031949986,
48.75,49.0,41,0.0,Stimuli/Blank.png,0,0,0.0,0,90,90,90,,,,,,,,,,,,,48.77718729999833,0.027187299998331582,None,92.89037189999726,92.89037189999726,92.89037189999726,92.89037189999726,92.89037189999726,92.89037189999726,92.89037189999726,92.89037189999726,92.89037189999726,92.89037189999726,,005,P013,2025_Feb_08_1519,ConditionRich,2021.2.3,60.00438031949986,
49.0,49.75,21,0.75,Stimuli/P013/things_baby_07s.jpg,0,0,0.0,0,91,91,91,,,,,,,,,,,,,49.0282088999993,0.02820889999929932,None,93.14056609999898,93.14056609999898,93.14056609999898,93.14056609999898,93.14056609999898,93.14056609999898,93.14056609999898,93.14056609999898,93.14056609999898,93.14056609999898,,005,P013,2025_Feb_08_1519,ConditionRich,2021.2.3,60.00438031949986,
49.75,50.0,41,0.0,Stimuli/Blank.png,0,0,0.0,0,92,92,92,,,,,,,,,,,,,49.77702380000119,0.027023800001188647,None,93.87454319999961,93.87454319999961,93.87454319999961,93.87454319999961,93.87454319999961,93.87454319999961,93.87454319999961,93.87454319999961,93.87454319999961,93.87454319999961,,005,P013,2025_Feb_08_1519,ConditionRich,2021.2.3,60.00438031949986,
50.0,50.75,21,0.75,Stimuli/P013/things_baby_07s.jpg,0,0,0.0,0,93,93,93,,,,,,,,,,,,,50.010620400000334,0.010620400000334485,None,94.10810849999689,94.10810849999689,94.10810849999689,94.10810849999689,94.10810849999689,94.10810849999689,94.10810849999689,94.10810849999689,94.10810849999689,94.10810849999689,,005,P013,2025_Feb_08_1519,ConditionRich,2021.2.3,60.00438031949986,
50.75,51.0,41,0.0,Stimuli/Blank.png,0,0,0.0,0,94,94,94,,,,,,,,,,,,,50.76233030000003,0.012330300000030547,None,94.87542269999904,94.87542269999904,94.87542269999904,94.87542269999904,94.87542269999904,94.87542269999904,94.87542269999904,94.87542269999904,94.87542269999904,94.87542269999904,,005,P013,2025_Feb_08_1519,ConditionRich,2021.2.3,60.00438031949986,
51.0,51.75,21,0.75,Stimuli/P013/things_baby_07s.jpg,1,0,0.75,0,95,95,95,,,,,,,,,,,,,51.02760549999948,0.027605499999481253,1,95.12564659999771,95.12564659999771,95.12564659999771,95.12564659999771,95.12564659999771,95.12564659999771,95.12564659999771,None,95.12564659999771,95.12564659999771,0.6068125999991025,005,P013,2025_Feb_08_1519,ConditionRich,2021.2.3,60.00438031949986,
51.75,52.0,41,0.0,Stimuli/Blank.png,0,0,0.0,0,96,96,96,,,,,,,,,,,,,51.76320399999895,0.013203999998950167,None,95.85963219999758,95.85963219999758,95.85963219999758,95.85963219999758,95.85963219999758,95.85963219999758,95.85963219999758,95.85963219999758,95.85963219999758,95.85963219999758,,005,P013,2025_Feb_08_1519,ConditionRich,2021.2.3,60.00438031949986,
52.0,52.75,35,0.75,Stimuli/P013/things_road_sign_07s.jpg,0,0,0.0,0,97,97,97,,,,,,,,,,,,,52.01191800000015,0.011918000000150641,None,96.10984279999684,96.10984279999684,96.10984279999684,96.10984279999684,96.10984279999684,96.10984279999684,96.10984279999684,96.10984279999684,96.10984279999684,96.10984279999684,,005,P013,2025_Feb_08_1519,ConditionRich,2021.2.3,60.00438031949986,
52.75,53.0,41,0.0,Stimuli/Blank.png,0,0,0.0,0,98,98,98,,,,,,,,,,,,,52.76210369999899,0.012103699998988304,None,96.86050999999861,96.86050999999861,96.86050999999861,96.86050999999861,96.86050999999861,96.86050999999861,96.86050999999861,96.86050999999861,96.86050999999861,96.86050999999861,,005,P013,2025_Feb_08_1519,ConditionRich,2021.2.3,60.00438031949986,
53.0,53.75,35,0.75,Stimuli/P013/things_road_sign_07s.jpg,0,0,0.0,0,99,99,99,,,,,,,,,,,,,53.01308699999936,0.01308699999935925,None,97.11070969999855,97.11070969999855,97.11070969999855,97.11070969999855,97.11070969999855,97.11070969999855,97.11070969999855,97.11070969999855,97.11070969999855,97.11070969999855,,005,P013,2025_Feb_08_1519,ConditionRich,2021.2.3,60.00438031949986,
53.75,54.0,41,0.0,Stimuli/Blank.png,0,0,0.0,0,100,100,100,,,,,,,,,,,,,53.76300730000003,0.01300730000002659,None,97.86139319999711,97.86139319999711,97.86139319999711,97.86139319999711,97.86139319999711,97.86139319999711,97.86139319999711,97.86139319999711,97.86139319999711,97.86139319999711,,005,P013,2025_Feb_08_1519,ConditionRich,2021.2.3,60.00438031949986,
54.0,54.75,35,0.75,Stimuli/P013/things_road_sign_07s.jpg,0,0,0.0,0,101,101,101,,,,,,,,,,,,,54.01325590000124,0.013255900001240661,None,98.11162069999773,98.11162069999773,98.11162069999773,98.11162069999773,98.11162069999773,98.11162069999773,98.11162069999773,98.11162069999773,98.11162069999773,98.11162069999773,,005,P013,2025_Feb_08_1519,ConditionRich,2021.2.3,60.00438031949986,
54.75,55.0,41,0.0,Stimuli/Blank.png,0,0,0.0,0,102,102,102,,,,,,,,,,,,,54.76391480000166,0.013914800001657568,None,98.86227809999764,98.86227809999764,98.86227809999764,98.86227809999764,98.86227809999764,98.86227809999764,98.86227809999764,98.86227809999764,98.86227809999764,98.86227809999764,,005,P013,2025_Feb_08_1519,ConditionRich,2021.2.3,60.00438031949986,
55.0,55.75,35,0.75,Stimuli/P013/things_road_sign_07s.jpg,0,0,0.0,0,103,103,103,,,,,,,,,,,,,55.014663400001155,0.014663400001154514,None,99.1292070999989,99.1292070999989,99.1292070999989,99.1292070999989,99.1292070999989,99.1292070999989,99.1292070999989,99.1292070999989,99.1292070999989,99.1292070999989,,005,P013,2025_Feb_08_1519,ConditionRich,2021.2.3,60.00438031949986,
55.75,56.0,41,0.0,Stimuli/Blank.png,0,0,0.0,0,104,104,104,,,,,,,,,,,,,55.78245500000048,0.03245500000048196,None,99.87985389999812,99.87985389999812,99.87985389999812,99.87985389999812,99.87985389999812,99.87985389999812,99.87985389999812,99.87985389999812,99.87985389999812,99.87985389999812,,005,P013,2025_Feb_08_1519,ConditionRich,2021.2.3,60.00438031949986,
56.0,56.75,29,0.75,Stimuli/P013/things_iguana_07s.jpg,0,0,0.0,0,105,105,105,,,,,,,,,,,,,55.99886889999834,-0.0011311000016576145,None,100.11339599999701,100.11339599999701,100.11339599999701,100.11339599999701,100.11339599999701,100.11339599999701,100.11339599999701,100.11339599999701,100.11339599999701,100.11339599999701,,005,P013,2025_Feb_08_1519,ConditionRich,2021.2.3,60.00438031949986,
56.75,57.0,41,0.0,Stimuli/Blank.png,0,0,0.0,0,106,106,106,,,,,,,,,,,,,56.765753499999846,0.0157534999998461,None,100.86405029999878,100.86405029999878,100.86405029999878,100.86405029999878,100.86405029999878,100.86405029999878,100.86405029999878,100.86405029999878,100.86405029999878,100.86405029999878,,005,P013,2025_Feb_08_1519,ConditionRich,2021.2.3,60.00438031949986,
57.0,57.75,29,0.75,Stimuli/P013/things_iguana_07s.jpg,0,0,0.0,0,107,107,107,,,,,,,,,,,,,56.999721500000305,-0.000278499999694759,None,101.11428609999712,101.11428609999712,101.11428609999712,101.11428609999712,101.11428609999712,101.11428609999712,101.11428609999712,101.11428609999712,101.11428609999712,101.11428609999712,,005,P013,2025_Feb_08_1519,ConditionRich,2021.2.3,60.00438031949986,
57.75,58.0,41,0.0,Stimuli/Blank.png,0,0,0.0,0,108,108,108,,,,,,,,,,,,,57.76749370000107,0.017493700001068646,None,101.8649422999988,101.8649422999988,101.8649422999988,101.8649422999988,101.8649422999988,101.8649422999988,101.8649422999988,101.8649422999988,101.8649422999988,101.8649422999988,,005,P013,2025_Feb_08_1519,ConditionRich,2021.2.3,60.00438031949986,
58.0,58.75,29,0.75,Stimuli/P013/things_iguana_07s.jpg,0,0,0.0,0,109,109,109,,,,,,,,,,,,,58.000673800001096,0.0006738000010955147,None,102.09847429999718,102.09847429999718,102.09847429999718,102.09847429999718,102.09847429999718,102.09847429999718,102.09847429999718,102.09847429999718,102.09847429999718,102.09847429999718,,005,P013,2025_Feb_08_1519,ConditionRich,2021.2.3,60.00438031949986,
58.75,59.0,41,0.0,Stimuli/Blank.png,0,0,0.0,0,110,110,110,,,,,,,,,,,,,58.7506953000011,0.0006953000010980759,None,102.84918789999938,102.84918789999938,102.84918789999938,102.84918789999938,102.84918789999938,102.84918789999938,102.84918789999938,102.84918789999938,102.84918789999938,102.84918789999938,,005,P013,2025_Feb_08_1519,ConditionRich,2021.2.3,60.00438031949986,
59.0,59.75,29,0.75,Stimuli/P013/things_iguana_07s.jpg,0,0,0.0,0,111,111,111,,,,,,,,,,,,,59.00113639999836,0.0011363999983586837,None,103.0993602999988,103.0993602999988,103.0993602999988,103.0993602999988,103.0993602999988,103.0993602999988,103.0993602999988,103.0993602999988,103.0993602999988,103.0993602999988,,005,P013,2025_Feb_08_1519,ConditionRich,2021.2.3,60.00438031949986,
59.75,60.0,41,0.0,Stimuli/Blank.png,0,0,0.0,0,112,112,112,,,,,,,,,,,,,59.751580700001796,0.0015807000017957762,None,103.85003449999931,103.85003449999931,103.85003449999931,103.85003449999931,103.85003449999931,103.85003449999931,103.85003449999931,103.85003449999931,103.85003449999931,103.85003449999931,,005,P013,2025_Feb_08_1519,ConditionRich,2021.2.3,60.00438031949986,
60.0,60.75,15,0.75,Stimuli/P013/sun_brezwczwwllviogu.jpg,0,0,0.0,0,113,113,113,,,,,,,,,,,,,60.004369599999336,0.00436959999933606,None,104.11692559999938,104.11692559999938,104.11692559999938,104.11692559999938,104.11692559999938,104.11692559999938,104.11692559999938,104.11692559999938,104.11692559999938,104.11692559999938,,005,P013,2025_Feb_08_1519,ConditionRich,2021.2.3,60.00438031949986,
60.75,61.0,41,0.0,Stimuli/Blank.png,0,0,0.0,0,114,114,114,,,,,,,,,,,,,60.769960500001616,0.01996050000161631,None,104.86761469999692,104.86761469999692,104.86761469999692,104.86761469999692,104.86761469999692,104.86761469999692,104.86761469999692,104.86761469999692,104.86761469999692,104.86761469999692,,005,P013,2025_Feb_08_1519,ConditionRich,2021.2.3,60.00438031949986,
61.0,61.75,15,0.75,Stimuli/P013/sun_brezwczwwllviogu.jpg,0,0,0.0,0,115,115,115,,,,,,,,,,,,,61.00358849999975,0.0035884999997506384,None,105.11781509999855,105.11781509999855,105.11781509999855,105.11781509999855,105.11781509999855,105.11781509999855,105.11781509999855,105.11781509999855,105.11781509999855,105.11781509999855,,005,P013,2025_Feb_08_1519,ConditionRich,2021.2.3,60.00438031949986,
61.75,62.0,41,0.0,Stimuli/Blank.png,0,0,0.0,0,116,116,116,,,,,,,,,,,,,61.77209950000179,0.02209950000178651,None,105.88516159999926,105.88516159999926,105.88516159999926,105.88516159999926,105.88516159999926,105.88516159999926,105.88516159999926,105.88516159999926,105.88516159999926,105.88516159999926,,005,P013,2025_Feb_08_1519,ConditionRich,2021.2.3,60.00438031949986,
62.0,62.75,15,0.75,Stimuli/P013/sun_brezwczwwllviogu.jpg,0,0,0.0,0,117,117,117,,,,,,,,,,,,,62.022264399998676,0.0222643999986758,None,106.13539039999887,106.13539039999887,106.13539039999887,106.13539039999887,106.13539039999887,106.13539039999887,106.13539039999887,106.13539039999887,106.13539039999887,106.13539039999887,,005,P013,2025_Feb_08_1519,ConditionRich,2021.2.3,60.00438031949986,
62.75,63.0,41,0.0,Stimuli/Blank.png,0,0,0.0,0,118,118,118,,,,,,,,,,,,,62.7723361999997,0.022336199999699602,None,106.86938209999789,106.86938209999789,106.86938209999789,106.86938209999789,106.86938209999789,106.86938209999789,106.86938209999789,106.86938209999789,106.86938209999789,106.86938209999789,,005,P013,2025_Feb_08_1519,ConditionRich,2021.2.3,60.00438031949986,
63.0,63.75,15,0.75,Stimuli/P013/sun_brezwczwwllviogu.jpg,0,0,0.0,0,119,119,119,,,,,,,,,,,,,63.005180799998925,0.0051807999989250675,None,107.11957739999707,107.11957739999707,107.11957739999707,107.11957739999707,107.11957739999707,107.11957739999707,107.11957739999707,107.11957739999707,107.11957739999707,107.11957739999707,,005,P013,2025_Feb_08_1519,ConditionRich,2021.2.3,60.00438031949986,
63.75,64.0,41,0.0,Stimuli/Blank.png,0,0,0.0,0,120,120,120,,,,,,,,,,,,,63.77272549999907,0.022725499999069143,None,107.87025349999749,107.87025349999749,107.87025349999749,107.87025349999749,107.87025349999749,107.87025349999749,107.87025349999749,107.87025349999749,107.87025349999749,107.87025349999749,,005,P013,2025_Feb_08_1519,ConditionRich,2021.2.3,60.00438031949986,
64.0,64.75,17,0.75,Stimuli/P013/sun_bsguftphqnrkbedw.jpg,1,0,0.75,0,121,121,121,,,,,,,,,,,,,64.00703599999906,0.00703599999906146,1,108.1204977999987,108.1204977999987,108.1204977999987,108.1204977999987,108.1204977999987,108.1204977999987,108.1204977999987,108.83782189999692,108.1204977999987,108.1204977999987,0.5748688999992737,005,P013,2025_Feb_08_1519,ConditionRich,2021.2.3,60.00438031949986,
64.75,65.0,41,0.0,Stimuli/Blank.png,0,0,0.0,0,122,122,122,,,,,,,,,,,,,64.77304110000114,0.023041100001137238,None,108.87113139999929,108.87113139999929,108.87113139999929,108.87113139999929,108.87113139999929,108.87113139999929,108.87113139999929,108.87113139999929,108.87113139999929,108.87113139999929,,005,P013,2025_Feb_08_1519,ConditionRich,2021.2.3,60.00438031949986,
65.0,65.75,17,0.75,Stimuli/P013/sun_bsguftphqnrkbedw.jpg,0,0,0.0,0,123,123,123,,,,,,,,,,,,,65.00728249999884,0.007282499998837011,None,109.10467509999944,109.10467509999944,109.10467509999944,109.10467509999944,109.10467509999944,109.10467509999944,109.10467509999944,109.10467509999944,109.10467509999944,109.10467509999944,,005,P013,2025_Feb_08_1519,ConditionRich,2021.2.3,60.00438031949986,
65.75,66.0,41,0.0,Stimuli/Blank.png,0,0,0.0,0,124,124,124,,,,,,,,,,,,,65.7584147000016,0.00841470000159461,None,109.87203999999838,109.87203999999838,109.87203999999838,109.87203999999838,109.87203999999838,109.87203999999838,109.87203999999838,109.87203999999838,109.87203999999838,109.87203999999838,,005,P013,2025_Feb_08_1519,ConditionRich,2021.2.3,60.00438031949986,
66.0,66.75,17,0.75,Stimuli/P013/sun_bsguftphqnrkbedw.jpg,0,0,0.0,0,125,125,125,,,,,,,,,,,,,66.02418390000093,0.024183900000934955,None,110.12223859999722,110.12223859999722,110.12223859999722,110.12223859999722,110.12223859999722,110.12223859999722,110.12223859999722,110.12223859999722,110.12223859999722,110.12223859999722,,005,P013,2025_Feb_08_1519,ConditionRich,2021.2.3,60.00438031949986,
66.75,67.0,41,0.0,Stimuli/Blank.png,0,0,0.0,0,126,126,126,,,,,,,,,,,,,66.7577440999994,0.007744099999399623,None,110.85621869999886,110.85621869999886,110.85621869999886,110.85621869999886,110.85621869999886,110.85621869999886,110.85621869999886,110.85621869999886,110.85621869999886,110.85621869999886,,005,P013,2025_Feb_08_1519,ConditionRich,2021.2.3,60.00438031949986,
67.0,67.75,17,0.75,Stimuli/P013/sun_bsguftphqnrkbedw.jpg,0,0,0.0,0,127,127,127,,,,,,,,,,,,,67.00906029999896,0.009060299998964183,None,111.1064426999983,111.1064426999983,111.1064426999983,111.1064426999983,111.1064426999983,111.1064426999983,111.1064426999983,111.1064426999983,111.1064426999983,111.1064426999983,,005,P013,2025_Feb_08_1519,ConditionRich,2021.2.3,60.00438031949986,
67.75,68.0,41,0.0,Stimuli/Blank.png,0,0,0.0,0,128,128,128,,,,,,,,,,,,,67.75868750000154,0.008687500001542503,None,111.85710409999956,111.85710409999956,111.85710409999956,111.85710409999956,111.85710409999956,111.85710409999956,111.85710409999956,111.85710409999956,111.85710409999956,111.85710409999956,,005,P013,2025_Feb_08_1519,ConditionRich,2021.2.3,60.00438031949986,
68.0,68.75,8,0.75,Stimuli/P013/sun_auqrilekgmdmrncq.jpg,0,0,0.0,0,129,129,129,,,,,,,,,,,,,68.00893260000157,0.0089326000015717,None,112.10734509999747,112.10734509999747,112.10734509999747,112.10734509999747,112.10734509999747,112.10734509999747,112.10734509999747,112.10734509999747,112.10734509999747,112.10734509999747,,005,P013,2025_Feb_08_1519,ConditionRich,2021.2.3,60.00438031949986,
68.75,69.0,41,0.0,Stimuli/Blank.png,0,0,0.0,0,130,130,130,,,,,,,,,,,,,68.76109590000124,0.011095900001237169,None,112.85801899999933,112.85801899999933,112.85801899999933,112.85801899999933,112.85801899999933,112.85801899999933,112.85801899999933,112.85801899999933,112.85801899999933,112.85801899999933,,005,P013,2025_Feb_08_1519,ConditionRich,2021.2.3,60.00438031949986,
69.0,69.75,8,0.75,Stimuli/P013/sun_auqrilekgmdmrncq.jpg,0,0,0.0,0,131,131,131,,,,,,,,,,,,,69.0120175000011,0.01201750000109314,None,113.12490089999847,113.12490089999847,113.12490089999847,113.12490089999847,113.12490089999847,113.12490089999847,113.12490089999847,113.12490089999847,113.12490089999847,113.12490089999847,,005,P013,2025_Feb_08_1519,ConditionRich,2021.2.3,60.00438031949986,
69.75,70.0,41,0.0,Stimuli/Blank.png,0,0,0.0,0,132,132,132,,,,,,,,,,,,,69.77767930000118,0.027679300001182128,None,113.87556159999804,113.87556159999804,113.87556159999804,113.87556159999804,113.87556159999804,113.87556159999804,113.87556159999804,113.87556159999804,113.87556159999804,113.87556159999804,,005,P013,2025_Feb_08_1519,ConditionRich,2021.2.3,60.00438031949986,
70.0,70.75,8,0.75,Stimuli/P013/sun_auqrilekgmdmrncq.jpg,0,0,0.0,0,133,133,133,,,,,,,,,,,,,70.01143990000128,0.011439900001278147,None,114.12587939999867,114.12587939999867,114.12587939999867,114.12587939999867,114.12587939999867,114.12587939999867,114.12587939999867,114.12587939999867,114.12587939999867,114.12587939999867,,005,P013,2025_Feb_08_1519,ConditionRich,2021.2.3,60.00438031949986,
70.75,71.0,41,0.0,Stimuli/Blank.png,0,0,0.0,0,134,134,134,,,,,,,,,,,,,70.77799239999877,0.027992399998765904,None,114.87644379999983,114.87644379999983,114.87644379999983,114.87644379999983,114.87644379999983,114.87644379999983,114.87644379999983,114.87644379999983,114.87644379999983,114.87644379999983,,005,P013,2025_Feb_08_1519,ConditionRich,2021.2.3,60.00438031949986,
71.0,71.75,8,0.75,Stimuli/P013/sun_auqrilekgmdmrncq.jpg,0,0,0.0,0,135,135,135,,,,,,,,,,,,,71.01282759999958,0.012827599999582162,None,115.12670579999758,115.12670579999758,115.12670579999758,115.12670579999758,115.12670579999758,115.12670579999758,115.12670579999758,115.12670579999758,115.12670579999758,115.12670579999758,,005,P013,2025_Feb_08_1519,ConditionRich,2021.2.3,60.00438031949986,
71.75,72.0,41,0.0,Stimuli/Blank.png,0,0,0.0,0,136,136,136,,,,,,,,,,,,,71.77957339999921,0.02957339999920805,None,115.87732629999664,115.87732629999664,115.87732629999664,115.87732629999664,115.87732629999664,115.87732629999664,115.87732629999664,115.87732629999664,115.87732629999664,115.87732629999664,,005,P013,2025_Feb_08_1519,ConditionRich,2021.2.3,60.00438031949986,
72.0,72.75,19,0.75,Stimuli/P013/sun_buphlelowxjnoygy.jpg,0,0,0.0,0,137,137,137,,,,,,,,,,,,,72.01258629999938,0.01258629999938421,None,116.11086119999891,116.11086119999891,116.11086119999891,116.11086119999891,116.11086119999891,116.11086119999891,116.11086119999891,116.11086119999891,116.11086119999891,116.11086119999891,,005,P013,2025_Feb_08_1519,ConditionRich,2021.2.3,60.00438031949986,
72.75,73.0,41,0.0,Stimuli/Blank.png,0,0,0.0,0,138,138,138,,,,,,,,,,,,,72.76325720000023,0.013257200000225566,None,116.86153319999721,116.86153319999721,116.86153319999721,116.86153319999721,116.86153319999721,116.86153319999721,116.86153319999721,116.86153319999721,116.86153319999721,116.86153319999721,,005,P013,2025_Feb_08_1519,ConditionRich,2021.2.3,60.00438031949986,
73.0,73.75,19,0.75,Stimuli/P013/sun_buphlelowxjnoygy.jpg,0,0,0.0,0,139,139,139,,,,,,,,,,,,,73.01331439999922,0.01331439999921713,None,117.11175289999665,117.11175289999665,117.11175289999665,117.11175289999665,117.11175289999665,117.11175289999665,117.11175289999665,117.11175289999665,117.11175289999665,117.11175289999665,,005,P013,2025_Feb_08_1519,ConditionRich,2021.2.3,60.00438031949986,
73.75,74.0,41,0.0,Stimuli/Blank.png,0,0,0.0,0,140,140,140,,,,,,,,,,,,,73.76395309999862,0.01395309999861638,None,117.86241949999749,117.86241949999749,117.86241949999749,117.86241949999749,117.86241949999749,117.86241949999749,117.86241949999749,117.86241949999749,117.86241949999749,117.86241949999749,,005,P013,2025_Feb_08_1519,ConditionRich,2021.2.3,60.00438031949986,
74.0,74.75,19,0.75,Stimuli/P013/sun_buphlelowxjnoygy.jpg,0,0,0.0,0,141,141,141,,,,,,,,,,,,,74.01443999999901,0.014439999999012798,None,118.1293270999995,118.1293270999995,118.1293270999995,118.1293270999995,118.1293270999995,118.1293270999995,118.1293270999995,118.1293270999995,118.1293270999995,118.1293270999995,,005,P013,2025_Feb_08_1519,ConditionRich,2021.2.3,60.00438031949986,
74.75,75.0,41,0.0,Stimuli/Blank.png,0,0,0.0,0,142,142,142,,,,,,,,,,,,,74.78167570000005,0.03167570000005071,None,118.87998449999941,118.87998449999941,118.87998449999941,118.87998449999941,118.87998449999941,118.87998449999941,118.87998449999941,118.87998449999941,118.87998449999941,118.87998449999941,,005,P013,2025_Feb_08_1519,ConditionRich,2021.2.3,60.00438031949986,
75.0,75.75,19,0.75,Stimuli/P013/sun_buphlelowxjnoygy.jpg,0,0,0.0,0,143,143,143,,,,,,,,,,,,,75.01687970000057,0.016879700000572484,None,119.13020219999817,119.13020219999817,119.13020219999817,119.13020219999817,119.13020219999817,119.13020219999817,119.13020219999817,119.13020219999817,119.13020219999817,119.13020219999817,,005,P013,2025_Feb_08_1519,ConditionRich,2021.2.3,60.00438031949986,
75.75,76.0,41,0.0,Stimuli/Blank.png,0,0,0.0,0,144,144,144,,,,,,,,,,,,,75.76739770000131,0.017397700001311023,None,119.8641899999966,119.8641899999966,119.8641899999966,119.8641899999966,119.8641899999966,119.8641899999966,119.8641899999966,119.8641899999966,119.8641899999966,119.8641899999966,,005,P013,2025_Feb_08_1519,ConditionRich,2021.2.3,60.00438031949986,
76.0,76.75,6,0.75,Stimuli/P013/sun_aoejkkmwkfegacni.jpg,0,0,0.0,0,145,145,145,,,,,,,,,,,,,76.00019130000146,0.00019130000146105886,None,120.0977604999971,120.0977604999971,120.0977604999971,120.0977604999971,120.0977604999971,120.0977604999971,120.0977604999971,120.0977604999971,120.0977604999971,120.0977604999971,,005,P013,2025_Feb_08_1519,ConditionRich,2021.2.3,60.00438031949986,
76.75,77.0,41,0.0,Stimuli/Blank.png,0,0,0.0,0,146,146,146,,,,,,,,,,,,,76.75214010000127,0.0021401000012701843,None,120.86508879999747,120.86508879999747,120.86508879999747,120.86508879999747,120.86508879999747,120.86508879999747,120.86508879999747,120.86508879999747,120.86508879999747,120.86508879999747,,005,P013,2025_Feb_08_1519,ConditionRich,2021.2.3,60.00438031949986,
77.0,77.75,6,0.75,Stimuli/P013/sun_aoejkkmwkfegacni.jpg,0,0,0.0,0,147,147,147,,,,,,,,,,,,,77.01744770000005,0.017447700000047917,None,121.11528689999977,121.11528689999977,121.11528689999977,121.11528689999977,121.11528689999977,121.11528689999977,121.11528689999977,121.11528689999977,121.11528689999977,121.11528689999977,,005,P013,2025_Feb_08_1519,ConditionRich,2021.2.3,60.00438031949986,
77.75,78.0,41,0.0,Stimuli/Blank.png,0,0,0.0,0,148,148,148,,,,,,,,,,,,,77.75212349999856,0.002123499998560874,None,121.84929159999956,121.84929159999956,121.84929159999956,121.84929159999956,121.84929159999956,121.84929159999956,121.84929159999956,121.84929159999956,121.84929159999956,121.84929159999956,,005,P013,2025_Feb_08_1519,ConditionRich,2021.2.3,60.00438031949986,
78.0,78.75,6,0.75,Stimuli/P013/sun_aoejkkmwkfegacni.jpg,0,0,0.0,0,149,149,149,,,,,,,,,,,,,78.00119249999989,0.0011924999998882413,None,122.09950669999671,122.09950669999671,122.09950669999671,122.09950669999671,122.09950669999671,122.09950669999671,122.09950669999671,122.09950669999671,122.09950669999671,122.09950669999671,,005,P013,2025_Feb_08_1519,ConditionRich,2021.2.3,60.00438031949986,
78.75,79.0,41,0.0,Stimuli/Blank.png,0,0,0.0,0,150,150,150,,,,,,,,,,,,,78.75309729999935,0.0030972999993537087,None,122.85016479999831,122.85016479999831,122.85016479999831,122.85016479999831,122.85016479999831,122.85016479999831,122.85016479999831,122.85016479999831,122.85016479999831,122.85016479999831,,005,P013,2025_Feb_08_1519,ConditionRich,2021.2.3,60.00438031949986,
79.0,79.75,6,0.75,Stimuli/P013/sun_aoejkkmwkfegacni.jpg,0,0,0.0,0,151,151,151,,,,,,,,,,,,,79.00190840000141,0.0019084000014117919,None,123.10039249999681,123.10039249999681,123.10039249999681,123.10039249999681,123.10039249999681,123.10039249999681,123.10039249999681,123.10039249999681,123.10039249999681,123.10039249999681,,005,P013,2025_Feb_08_1519,ConditionRich,2021.2.3,60.00438031949986,
79.75,80.0,41,0.0,Stimuli/Blank.png,0,0,0.0,0,152,152,152,,,,,,,,,,,,,79.75319759999911,0.0031975999991118442,None,123.85104939999655,123.85104939999655,123.85104939999655,123.85104939999655,123.85104939999655,123.85104939999655,123.85104939999655,123.85104939999655,123.85104939999655,123.85104939999655,,005,P013,2025_Feb_08_1519,ConditionRich,2021.2.3,60.00438031949986,
80.0,80.75,40,0.75,Stimuli/P013/things_woman_07s.jpg,0,0,0.0,0,153,153,153,,,,,,,,,,,,,80.0031702999986,0.0031702999986009672,None,124.10127449999709,124.10127449999709,124.10127449999709,124.10127449999709,124.10127449999709,124.10127449999709,124.10127449999709,124.10127449999709,124.10127449999709,124.10127449999709,,005,P013,2025_Feb_08_1519,ConditionRich,2021.2.3,60.00438031949986,
80.75,81.0,41,0.0,Stimuli/Blank.png,0,0,0.0,0,154,154,154,,,,,,,,,,,,,80.75363959999959,0.0036395999995875172,None,124.85193399999844,124.85193399999844,124.85193399999844,124.85193399999844,124.85193399999844,124.85193399999844,124.85193399999844,124.85193399999844,124.85193399999844,124.85193399999844,,005,P013,2025_Feb_08_1519,ConditionRich,2021.2.3,60.00438031949986,
81.0,81.75,40,0.75,Stimuli/P013/things_woman_07s.jpg,0,0,0.0,0,155,155,155,,,,,,,,,,,,,81.00385430000097,0.0038543000009667594,None,125.11884419999842,125.11884419999842,125.11884419999842,125.11884419999842,125.11884419999842,125.11884419999842,125.11884419999842,125.11884419999842,125.11884419999842,125.11884419999842,,005,P013,2025_Feb_08_1519,ConditionRich,2021.2.3,60.00438031949986,
81.75,82.0,41,0.0,Stimuli/Blank.png,0,0,0.0,0,156,156,156,,,,,,,,,,,,,81.77169879999929,0.021698799999285256,None,125.86951109999791,125.86951109999791,125.86951109999791,125.86951109999791,125.86951109999791,125.86951109999791,125.86951109999791,125.86951109999791,125.86951109999791,125.86951109999791,,005,P013,2025_Feb_08_1519,ConditionRich,2021.2.3,60.00438031949986,
82.0,82.75,40,0.75,Stimuli/P013/things_woman_07s.jpg,0,0,0.0,0,157,157,157,,,,,,,,,,,,,82.00466710000183,0.00466710000182502,None,126.10303609999755,126.10303609999755,126.10303609999755,126.10303609999755,126.10303609999755,126.10303609999755,126.10303609999755,126.10303609999755,126.10303609999755,126.10303609999755,,005,P013,2025_Feb_08_1519,ConditionRich,2021.2.3,60.00438031949986,
82.75,83.0,41,0.0,Stimuli/Blank.png,0,0,0.0,0,158,158,158,,,,,,,,,,,,,82.75625919999948,0.00625919999947655,None,126.85370029999831,126.85370029999831,126.85370029999831,126.85370029999831,126.85370029999831,126.85370029999831,126.85370029999831,126.85370029999831,126.85370029999831,126.85370029999831,,005,P013,2025_Feb_08_1519,ConditionRich,2021.2.3,60.00438031949986,
83.0,83.75,40,0.75,Stimuli/P013/things_woman_07s.jpg,0,0,0.0,0,159,159,159,,,,,,,,,,,,,83.00829599999997,0.008295999999972992,None,127.12061729999914,127.12061729999914,127.12061729999914,127.12061729999914,127.12061729999914,127.12061729999914,127.12061729999914,127.12061729999914,127.12061729999914,127.12061729999914,,005,P013,2025_Feb_08_1519,ConditionRich,2021.2.3,60.00438031949986,
83.75,84.0,41,0.0,Stimuli/Blank.png,0,0,0.0,0,160,160,160,,,,,,,,,,,,,83.77373509999961,0.02373509999961243,None,127.87126849999913,127.87126849999913,127.87126849999913,127.87126849999913,127.87126849999913,127.87126849999913,127.87126849999913,127.87126849999913,127.87126849999913,127.87126849999913,,005,P013,2025_Feb_08_1519,ConditionRich,2021.2.3,60.00438031949986,
84.0,100.0,0,0.0,Stimuli/Blank.png,1,12,12.75,0,161,161,161,,,,,,,,,,,,,84.00747319999937,0.007473199999367353,1,128.10482099999717,128.10482099999717,128.10482099999717,128.10482099999717,128.10482099999717,128.10482099999717,140.09876099999747,140.84941219999746,128.10482099999717,128.10482099999717,12.413659500001813,005,P013,2025_Feb_08_1519,ConditionRich,2021.2.3,60.00438031949986,
100.0,100.75,37,0.75,Stimuli/P013/things_slug_07s.jpg,0,0,0.0,0,162,162,162,,,,,,,,,,,,,100.00494529999924,0.004945299999235431,None,144.10228649999772,144.10228649999772,144.10228649999772,144.10228649999772,144.10228649999772,144.10228649999772,144.10228649999772,144.10228649999772,144.10228649999772,144.10228649999772,,005,P013,2025_Feb_08_1519,ConditionRich,2021.2.3,60.00438031949986,
100.75,101.0,41,0.0,Stimuli/Blank.png,0,0,0.0,0,163,163,163,,,,,,,,,,,,,100.75459090000004,0.004590900000039255,None,144.85295349999797,144.85295349999797,144.85295349999797,144.85295349999797,144.85295349999797,144.85295349999797,144.85295349999797,144.85295349999797,144.85295349999797,144.85295349999797,,005,P013,2025_Feb_08_1519,ConditionRich,2021.2.3,60.00438031949986,
101.0,101.75,37,0.75,Stimuli/P013/things_slug_07s.jpg,0,0,0.0,0,164,164,164,,,,,,,,,,,,,101.00486699999965,0.004866999999649124,None,145.10317489999943,145.10317489999943,145.10317489999943,145.10317489999943,145.10317489999943,145.10317489999943,145.10317489999943,145.10317489999943,145.10317489999943,145.10317489999943,,005,P013,2025_Feb_08_1519,ConditionRich,2021.2.3,60.00438031949986,
101.75,102.0,41,0.0,Stimuli/Blank.png,0,0,0.0,0,165,165,165,,,,,,,,,,,,,101.7573854000002,0.007385400000202935,None,145.8705396999976,145.8705396999976,145.8705396999976,145.8705396999976,145.8705396999976,145.8705396999976,145.8705396999976,145.8705396999976,145.8705396999976,145.8705396999976,,005,P013,2025_Feb_08_1519,ConditionRich,2021.2.3,60.00438031949986,
102.0,102.75,37,0.75,Stimuli/P013/things_slug_07s.jpg,0,0,0.0,0,166,166,166,,,,,,,,,,,,,102.0228446000001,0.02284460000009858,None,146.1207375999984,146.1207375999984,146.1207375999984,146.1207375999984,146.1207375999984,146.1207375999984,146.1207375999984,146.1207375999984,146.1207375999984,146.1207375999984,,005,P013,2025_Feb_08_1519,ConditionRich,2021.2.3,60.00438031949986,
102.75,103.0,41,0.0,Stimuli/Blank.png,0,0,0.0,0,167,167,167,,,,,,,,,,,,,102.75642460000017,0.006424600000173086,None,146.85472669999945,146.85472669999945,146.85472669999945,146.85472669999945,146.85472669999945,146.85472669999945,146.85472669999945,146.85472669999945,146.85472669999945,146.85472669999945,,005,P013,2025_Feb_08_1519,ConditionRich,2021.2.3,60.00438031949986,
103.0,103.75,37,0.75,Stimuli/P013/things_slug_07s.jpg,0,0,0.0,0,168,168,168,,,,,,,,,,,,,103.00722129999849,0.007221299998491304,None,147.10493199999837,147.10493199999837,147.10493199999837,147.10493199999837,147.10493199999837,147.10493199999837,147.10493199999837,147.10493199999837,147.10493199999837,147.10493199999837,,005,P013,2025_Feb_08_1519,ConditionRich,2021.2.3,60.00438031949986,
103.75,104.0,41,0.0,Stimuli/Blank.png,0,0,0.0,0,169,169,169,,,,,,,,,,,,,103.75814040000114,0.008140400001138914,None,147.85559939999803,147.85559939999803,147.85559939999803,147.85559939999803,147.85559939999803,147.85559939999803,147.85559939999803,147.85559939999803,147.85559939999803,147.85559939999803,,005,P013,2025_Feb_08_1519,ConditionRich,2021.2.3,60.00438031949986,
104.0,104.75,1,0.75,Stimuli/P013/sun_adkmgqclfrkhfxbd.jpg,0,0,0.0,0,170,170,170,,,,,,,,,,,,,104.0078648000017,0.007864800001698313,None,148.10583289999704,148.10583289999704,148.10583289999704,148.10583289999704,148.10583289999704,148.10583289999704,148.10583289999704,148.10583289999704,148.10583289999704,148.10583289999704,,005,P013,2025_Feb_08_1519,ConditionRich,2021.2.3,60.00438031949986,
104.75,105.0,41,0.0,Stimuli/Blank.png,0,0,0.0,0,171,171,171,,,,,,,,,,,,,104.75821029999861,0.008210299998609116,None,148.8564946999977,148.8564946999977,148.8564946999977,148.8564946999977,148.8564946999977,148.8564946999977,148.8564946999977,148.8564946999977,148.8564946999977,148.8564946999977,,005,P013,2025_Feb_08_1519,ConditionRich,2021.2.3,60.00438031949986,
105.0,105.75,1,0.75,Stimuli/P013/sun_adkmgqclfrkhfxbd.jpg,0,0,0.0,0,172,172,172,,,,,,,,,,,,,105.00837920000049,0.008379200000490528,None,149.10671379999985,149.10671379999985,149.10671379999985,149.10671379999985,149.10671379999985,149.10671379999985,149.10671379999985,149.10671379999985,149.10671379999985,149.10671379999985,,005,P013,2025_Feb_08_1519,ConditionRich,2021.2.3,60.00438031949986,
105.75,106.0,41,0.0,Stimuli/Blank.png,0,0,0.0,0,173,173,173,,,,,,,,,,,,,105.7588895000008,0.008889500000805128,None,149.85738619999756,149.85738619999756,149.85738619999756,149.85738619999756,149.85738619999756,149.85738619999756,149.85738619999756,149.85738619999756,149.85738619999756,149.85738619999756,,005,P013,2025_Feb_08_1519,ConditionRich,2021.2.3,60.00438031949986,
106.0,106.75,1,0.75,Stimuli/P013/sun_adkmgqclfrkhfxbd.jpg,0,0,0.0,0,174,174,174,,,,,,,,,,,,,106.0099498999989,0.009949899998900946,None,150.12427769999704,150.12427769999704,150.12427769999704,150.12427769999704,150.12427769999704,150.12427769999704,150.12427769999704,150.12427769999704,150.12427769999704,150.12427769999704,,005,P013,2025_Feb_08_1519,ConditionRich,2021.2.3,60.00438031949986,
106.75,107.0,41,0.0,Stimuli/Blank.png,0,0,0.0,0,175,175,175,,,,,,,,,,,,,106.77763609999965,0.027636099999654107,None,150.87493789999644,150.87493789999644,150.87493789999644,150.87493789999644,150.87493789999644,150.87493789999644,150.87493789999644,150.87493789999644,150.87493789999644,150.87493789999644,,005,P013,2025_Feb_08_1519,ConditionRich,2021.2.3,60.00438031949986,
107.0,107.75,1,0.75,Stimuli/P013/sun_adkmgqclfrkhfxbd.jpg,0,0,0.0,0,176,176,176,,,,,,,,,,,,,107.01211150000017,0.012111500000173692,None,151.1251639999973,151.1251639999973,151.1251639999973,151.1251639999973,151.1251639999973,151.1251639999973,151.1251639999973,151.1251639999973,151.1251639999973,151.1251639999973,,005,P013,2025_Feb_08_1519,ConditionRich,2021.2.3,60.00438031949986,
107.75,108.0,41,0.0,Stimuli/Blank.png,0,0,0.0,0,177,177,177,,,,,,,,,,,,,107.77803499999936,0.028034999999363208,None,151.87600689999817,151.87600689999817,151.87600689999817,151.87600689999817,151.87600689999817,151.87600689999817,151.87600689999817,151.87600689999817,151.87600689999817,151.87600689999817,,005,P013,2025_Feb_08_1519,ConditionRich,2021.2.3,60.00438031949986,
108.0,108.75,23,0.75,Stimuli/P013/things_bug_07s.jpg,0,0,0.0,0,178,178,178,,,,,,,,,,,,,108.01209569999992,0.012095699999917997,None,152.1093680999984,152.1093680999984,152.1093680999984,152.1093680999984,152.1093680999984,152.1093680999984,152.1093680999984,152.1093680999984,152.1093680999984,152.1093680999984,,005,P013,2025_Feb_08_1519,ConditionRich,2021.2.3,60.00438031949986,
108.75,109.0,41,0.0,Stimuli/Blank.png,0,0,0.0,0,179,179,179,,,,,,,,,,,,,108.76240110000072,0.012401100000715815,None,152.86005289999957,152.86005289999957,152.86005289999957,152.86005289999957,152.86005289999957,152.86005289999957,152.86005289999957,152.86005289999957,152.86005289999957,152.86005289999957,,005,P013,2025_Feb_08_1519,ConditionRich,2021.2.3,60.00438031949986,
109.0,109.75,23,0.75,Stimuli/P013/things_bug_07s.jpg,0,0,0.0,0,180,180,180,,,,,,,,,,,,,109.01347860000169,0.01347860000169021,None,153.12690849999854,153.12690849999854,153.12690849999854,153.12690849999854,153.12690849999854,153.12690849999854,153.12690849999854,153.12690849999854,153.12690849999854,153.12690849999854,,005,P013,2025_Feb_08_1519,ConditionRich,2021.2.3,60.00438031949986,
109.75,110.0,41,0.0,Stimuli/Blank.png,0,0,0.0,0,181,181,181,,,,,,,,,,,,,109.77912769999966,0.029127699999662582,None,153.87759649999862,153.87759649999862,153.87759649999862,153.87759649999862,153.87759649999862,153.87759649999862,153.87759649999862,153.87759649999862,153.87759649999862,153.87759649999862,,005,P013,2025_Feb_08_1519,ConditionRich,2021.2.3,60.00438031949986,
110.0,110.75,23,0.75,Stimuli/P013/things_bug_07s.jpg,0,0,0.0,0,182,182,182,,,,,,,,,,,,,110.013646899999,0.013646899999002926,None,154.11111549999987,154.11111549999987,154.11111549999987,154.11111549999987,154.11111549999987,154.11111549999987,154.11111549999987,154.11111549999987,154.11111549999987,154.11111549999987,,005,P013,2025_Feb_08_1519,ConditionRich,2021.2.3,60.00438031949986,
110.75,111.0,41,0.0,Stimuli/Blank.png,0,0,0.0,0,183,183,183,,,,,,,,,,,,,110.76344660000177,0.013446600001771003,None,154.86179869999978,154.86179869999978,154.86179869999978,154.86179869999978,154.86179869999978,154.86179869999978,154.86179869999978,154.86179869999978,154.86179869999978,154.86179869999978,,005,P013,2025_Feb_08_1519,ConditionRich,2021.2.3,60.00438031949986,
111.0,111.75,23,0.75,Stimuli/P013/things_bug_07s.jpg,0,0,0.0,0,184,184,184,,,,,,,,,,,,,111.01373769999918,0.01373769999918295,None,155.1120250999993,155.1120250999993,155.1120250999993,155.1120250999993,155.1120250999993,155.1120250999993,155.1120250999993,155.1120250999993,155.1120250999993,155.1120250999993,,005,P013,2025_Feb_08_1519,ConditionRich,2021.2.3,60.00438031949986,
111.75,112.0,41,0.0,Stimuli/Blank.png,0,0,0.0,0,185,185,185,,,,,,,,,,,,,111.76532339999903,0.015323399999033427,None,155.86270189999777,155.86270189999777,155.86270189999777,155.86270189999777,155.86270189999777,155.86270189999777,155.86270189999777,155.86270189999777,155.86270189999777,155.86270189999777,,005,P013,2025_Feb_08_1519,ConditionRich,2021.2.3,60.00438031949986,
112.0,112.75,33,0.75,Stimuli/P013/things_piglet_07s.jpg,0,0,0.0,0,186,186,186,,,,,,,,,,,,,112.01536670000132,0.015366700001322897,None,156.12959449999835,156.12959449999835,156.12959449999835,156.12959449999835,156.12959449999835,156.12959449999835,156.12959449999835,156.12959449999835,156.12959449999835,156.12959449999835,,005,P013,2025_Feb_08_1519,ConditionRich,2021.2.3,60.00438031949986,
112.75,113.0,41,0.0,Stimuli/Blank.png,0,0,0.0,0,187,187,187,,,,,,,,,,,,,112.7680177000002,0.01801770000020042,None,156.88026219999665,156.88026219999665,156.88026219999665,156.88026219999665,156.88026219999665,156.88026219999665,156.88026219999665,156.88026219999665,156.88026219999665,156.88026219999665,,005,P013,2025_Feb_08_1519,ConditionRich,2021.2.3,60.00438031949986,
113.0,113.75,33,0.75,Stimuli/P013/things_piglet_07s.jpg,0,0,0.0,0,188,188,188,,,,,,,,,,,,,113.0181550999987,0.018155099998693913,None,157.13048299999718,157.13048299999718,157.13048299999718,157.13048299999718,157.13048299999718,157.13048299999718,157.13048299999718,157.13048299999718,157.13048299999718,157.13048299999718,,005,P013,2025_Feb_08_1519,ConditionRich,2021.2.3,60.00438031949986,
113.75,114.0,41,0.0,Stimuli/Blank.png,0,0,0.0,0,189,189,189,,,,,,,,,,,,,113.76603230000183,0.016032300001825206,None,157.86445609999646,157.86445609999646,157.86445609999646,157.86445609999646,157.86445609999646,157.86445609999646,157.86445609999646,157.86445609999646,157.86445609999646,157.86445609999646,,005,P013,2025_Feb_08_1519,ConditionRich,2021.2.3,60.00438031949986,
114.0,114.75,33,0.75,Stimuli/P013/things_piglet_07s.jpg,0,0,0.0,0,190,190,190,,,,,,,,,,,,,114.00237859999834,0.0023785999983374495,None,158.11469459999716,158.11469459999716,158.11469459999716,158.11469459999716,158.11469459999716,158.11469459999716,158.11469459999716,158.11469459999716,158.11469459999716,158.11469459999716,,005,P013,2025_Feb_08_1519,ConditionRich,2021.2.3,60.00438031949986,
114.75,115.0,41,0.0,Stimuli/Blank.png,0,0,0.0,0,191,191,191,,,,,,,,,,,,,114.76700020000135,0.017000200001348276,None,158.86535549999826,158.86535549999826,158.86535549999826,158.86535549999826,158.86535549999826,158.86535549999826,158.86535549999826,158.86535549999826,158.86535549999826,158.86535549999826,,005,P013,2025_Feb_08_1519,ConditionRich,2021.2.3,60.00438031949986,
115.0,115.75,33,0.75,Stimuli/P013/things_piglet_07s.jpg,0,0,0.0,0,192,192,192,,,,,,,,,,,,,115.00247640000089,0.0024764000008872245,None,159.1162207999987,159.1162207999987,159.1162207999987,159.1162207999987,159.1162207999987,159.1162207999987,159.1162207999987,159.1162207999987,159.1162207999987,159.1162207999987,,005,P013,2025_Feb_08_1519,ConditionRich,2021.2.3,60.00438031949986,
115.75,116.0,41,0.0,Stimuli/Blank.png,0,0,0.0,0,193,193,193,,,,,,,,,,,,,115.76780449999933,0.017804499999328982,None,159.86622739999802,159.86622739999802,159.86622739999802,159.86622739999802,159.86622739999802,159.86622739999802,159.86622739999802,159.86622739999802,159.86622739999802,159.86622739999802,,005,P013,2025_Feb_08_1519,ConditionRich,2021.2.3,60.00438031949986,
116.0,116.75,32,0.75,Stimuli/P013/things_mistletoe_07s.jpg,0,0,0.0,0,194,194,194,,,,,,,,,,,,,116.00167869999859,0.0016786999985924922,None,160.09976879999886,160.09976879999886,160.09976879999886,160.09976879999886,160.09976879999886,160.09976879999886,160.09976879999886,160.09976879999886,160.09976879999886,160.09976879999886,,005,P013,2025_Feb_08_1519,ConditionRich,2021.2.3,60.00438031949986,
116.75,117.0,41,0.0,Stimuli/Blank.png,0,0,0.0,0,195,195,195,,,,,,,,,,,,,116.75352130000101,0.0035213000010116957,None,160.86716589999924,160.86716589999924,160.86716589999924,160.86716589999924,160.86716589999924,160.86716589999924,160.86716589999924,160.86716589999924,160.86716589999924,160.86716589999924,,005,P013,2025_Feb_08_1519,ConditionRich,2021.2.3,60.00438031949986,
117.0,117.75,32,0.75,Stimuli/P013/things_mistletoe_07s.jpg,0,0,0.0,0,196,196,196,,,,,,,,,,,,,117.02194859999872,0.021948599998722784,None,161.13402829999904,161.13402829999904,161.13402829999904,161.13402829999904,161.13402829999904,161.13402829999904,161.13402829999904,161.13402829999904,161.13402829999904,161.13402829999904,,005,P013,2025_Feb_08_1519,ConditionRich,2021.2.3,60.00438031949986,
117.75,118.0,41,0.0,Stimuli/Blank.png,0,0,0.0,0,197,197,197,,,,,,,,,,,,,117.77249709999887,0.022497099998872727,None,161.8858199999995,161.8858199999995,161.8858199999995,161.8858199999995,161.8858199999995,161.8858199999995,161.8858199999995,161.8858199999995,161.8858199999995,161.8858199999995,,005,P013,2025_Feb_08_1519,ConditionRich,2021.2.3,60.00438031949986,
118.0,118.75,32,0.75,Stimuli/P013/things_mistletoe_07s.jpg,0,0,0.0,0,198,198,198,,,,,,,,,,,,,118.02144430000044,0.021444300000439398,None,162.13490269999966,162.13490269999966,162.13490269999966,162.13490269999966,162.13490269999966,162.13490269999966,162.13490269999966,162.13490269999966,162.13490269999966,162.13490269999966,,005,P013,2025_Feb_08_1519,ConditionRich,2021.2.3,60.00438031949986,
118.75,119.0,41,0.0,Stimuli/Blank.png,0,0,0.0,0,199,199,199,,,,,,,,,,,,,118.77323320000141,0.023233200001413934,None,162.88557229999788,162.88557229999788,162.88557229999788,162.88557229999788,162.88557229999788,162.88557229999788,162.88557229999788,162.88557229999788,162.88557229999788,162.88557229999788,,005,P013,2025_Feb_08_1519,ConditionRich,2021.2.3,60.00438031949986,
119.0,119.75,32,0.75,Stimuli/P013/things_mistletoe_07s.jpg,0,0,0.0,0,200,200,200,,,,,,,,,,,,,119.0214965999985,0.021496599998499732,None,163.1191063999977,163.1191063999977,163.1191063999977,163.1191063999977,163.1191063999977,163.1191063999977,163.1191063999977,163.1191063999977,163.1191063999977,163.1191063999977,,005,P013,2025_Feb_08_1519,ConditionRich,2021.2.3,60.00438031949986,
119.75,120.0,41,0.0,Stimuli/Blank.png,0,0,0.0,0,201,201,201,,,,,,,,,,,,,119.75722120000137,0.0072212000013678335,None,163.86977659999684,163.86977659999684,163.86977659999684,163.86977659999684,163.86977659999684,163.86977659999684,163.86977659999684,163.86977659999684,163.86977659999684,163.86977659999684,,005,P013,2025_Feb_08_1519,ConditionRich,2021.2.3,60.00438031949986,
120.0,120.75,14,0.75,Stimuli/P013/sun_bqhfterhwnqrbnzg.jpg,0,0,0.0,0,202,202,202,,,,,,,,,,,,,120.02174970000124,0.021749700001237215,None,164.12000069999704,164.12000069999704,164.12000069999704,164.12000069999704,164.12000069999704,164.12000069999704,164.12000069999704,164.12000069999704,164.12000069999704,164.12000069999704,,005,P013,2025_Feb_08_1519,ConditionRich,2021.2.3,60.00438031949986,
120.75,121.0,41,0.0,Stimuli/Blank.png,0,0,0.0,0,203,203,203,,,,,,,,,,,,,120.75749789999827,0.007497899998270441,None,164.87065959999745,164.87065959999745,164.87065959999745,164.87065959999745,164.87065959999745,164.87065959999745,164.87065959999745,164.87065959999745,164.87065959999745,164.87065959999745,,005,P013,2025_Feb_08_1519,ConditionRich,2021.2.3,60.00438031949986,
121.0,121.75,14,0.75,Stimuli/P013/sun_bqhfterhwnqrbnzg.jpg,0,0,0.0,0,204,204,204,,,,,,,,,,,,,121.02313589999903,0.023135899999033427,None,165.12087379999866,165.12087379999866,165.12087379999866,165.12087379999866,165.12087379999866,165.12087379999866,165.12087379999866,165.12087379999866,165.12087379999866,165.12087379999866,,005,P013,2025_Feb_08_1519,ConditionRich,2021.2.3,60.00438031949986,
121.75,122.0,41,0.0,Stimuli/Blank.png,0,0,0.0,0,205,205,205,,,,,,,,,,,,,121.75664039999901,0.006640399999014335,None,165.85486019999735,165.85486019999735,165.85486019999735,165.85486019999735,165.85486019999735,165.85486019999735,165.85486019999735,165.85486019999735,165.85486019999735,165.85486019999735,,005,P013,2025_Feb_08_1519,ConditionRich,2021.2.3,60.00438031949986,
122.0,122.75,14,0.75,Stimuli/P013/sun_bqhfterhwnqrbnzg.jpg,0,0,0.0,0,206,206,206,,,,,,,,,,,,,122.00753210000039,0.007532100000389619,None,166.1218031999997,166.1218031999997,166.1218031999997,166.1218031999997,166.1218031999997,166.1218031999997,166.1218031999997,166.1218031999997,166.1218031999997,166.1218031999997,,005,P013,2025_Feb_08_1519,ConditionRich,2021.2.3,60.00438031949986,
122.75,123.0,41,0.0,Stimuli/Blank.png,0,0,0.0,0,207,207,207,,,,,,,,,,,,,122.77399779999905,0.023997799999051495,None,166.87349579999864,166.87349579999864,166.87349579999864,166.87349579999864,166.87349579999864,166.87349579999864,166.87349579999864,166.87349579999864,166.87349579999864,166.87349579999864,,005,P013,2025_Feb_08_1519,ConditionRich,2021.2.3,60.00438031949986,
123.0,123.75,14,0.75,Stimuli/P013/sun_bqhfterhwnqrbnzg.jpg,0,0,0.0,0,208,208,208,,,,,,,,,,,,,123.00783519999823,0.007835199998226017,None,167.10596579999765,167.10596579999765,167.10596579999765,167.10596579999765,167.10596579999765,167.10596579999765,167.10596579999765,167.10596579999765,167.10596579999765,167.10596579999765,,005,P013,2025_Feb_08_1519,ConditionRich,2021.2.3,60.00438031949986,
123.75,124.0,41,0.0,Stimuli/Blank.png,0,0,0.0,0,209,209,209,,,,,,,,,,,,,123.75820089999979,0.008200899999792455,None,167.85663009999917,167.85663009999917,167.85663009999917,167.85663009999917,167.85663009999917,167.85663009999917,167.85663009999917,167.85663009999917,167.85663009999917,167.85663009999917,,005,P013,2025_Feb_08_1519,ConditionRich,2021.2.3,60.00438031949986,
124.0,124.75,27,0.75,Stimuli/P013/things_face_07s.jpg,0,0,0.0,0,210,210,210,,,,,,,,,,,,,124.00904789999913,0.009047899999131914,None,168.10685399999784,168.10685399999784,168.10685399999784,168.10685399999784,168.10685399999784,168.10685399999784,168.10685399999784,168.10685399999784,168.10685399999784,168.10685399999784,,005,P013,2025_Feb_08_1519,ConditionRich,2021.2.3,60.00438031949986,
124.75,125.0,41,0.0,Stimuli/Blank.png,0,0,0.0,0,211,211,211,,,,,,,,,,,,,124.75929950000136,0.009299500001361594,None,168.85752219999995,168.85752219999995,168.85752219999995,168.85752219999995,168.85752219999995,168.85752219999995,168.85752219999995,168.85752219999995,168.85752219999995,168.85752219999995,,005,P013,2025_Feb_08_1519,ConditionRich,2021.2.3,60.00438031949986,
125.0,125.75,27,0.75,Stimuli/P013/things_face_07s.jpg,0,0,0.0,0,212,212,212,,,,,,,,,,,,,125.01245869999912,0.012458699999115197,None,169.12445129999833,169.12445129999833,169.12445129999833,169.12445129999833,169.12445129999833,169.12445129999833,169.12445129999833,169.12445129999833,169.12445129999833,169.12445129999833,,005,P013,2025_Feb_08_1519,ConditionRich,2021.2.3,60.00438031949986,
125.75,126.0,41,0.0,Stimuli/Blank.png,0,0,0.0,0,213,213,213,,,,,,,,,,,,,125.77721889999884,0.02721889999884297,None,169.8750868999996,169.8750868999996,169.8750868999996,169.8750868999996,169.8750868999996,169.8750868999996,169.8750868999996,169.8750868999996,169.8750868999996,169.8750868999996,,005,P013,2025_Feb_08_1519,ConditionRich,2021.2.3,60.00438031949986,
126.0,126.75,27,0.75,Stimuli/P013/things_face_07s.jpg,0,0,0.0,0,214,214,214,,,,,,,,,,,,,126.01239450000139,0.012394500001391862,None,170.125369399997,170.125369399997,170.125369399997,170.125369399997,170.125369399997,170.125369399997,170.125369399997,170.125369399997,170.125369399997,170.125369399997,,005,P013,2025_Feb_08_1519,ConditionRich,2021.2.3,60.00438031949986,
126.75,127.0,41,0.0,Stimuli/Blank.png,0,0,0.0,0,215,215,215,,,,,,,,,,,,,126.77751839999837,0.027518399998371024,None,170.87594429999808,170.87594429999808,170.87594429999808,170.87594429999808,170.87594429999808,170.87594429999808,170.87594429999808,170.87594429999808,170.87594429999808,170.87594429999808,,005,P013,2025_Feb_08_1519,ConditionRich,2021.2.3,60.00438031949986,
127.0,127.75,27,0.75,Stimuli/P013/things_face_07s.jpg,0,0,0.0,0,216,216,216,,,,,,,,,,,,,127.01181319999887,0.011813199998869095,None,171.1261599999998,171.1261599999998,171.1261599999998,171.1261599999998,171.1261599999998,171.1261599999998,171.1261599999998,171.1261599999998,171.1261599999998,171.1261599999998,,005,P013,2025_Feb_08_1519,ConditionRich,2021.2.3,60.00438031949986,
127.75,128.0,41,0.0,Stimuli/Blank.png,0,0,0.0,0,217,217,217,,,,,,,,,,,,,127.77932359999977,0.029323599999770522,None,171.87688720000006,171.87688720000006,171.87688720000006,171.87688720000006,171.87688720000006,171.87688720000006,171.87688720000006,171.87688720000006,171.87688720000006,171.87688720000006,,005,P013,2025_Feb_08_1519,ConditionRich,2021.2.3,60.00438031949986,
128.0,128.75,3,0.75,Stimuli/P013/sun_aengzsmykwchlrdn.jpg,0,0,0.0,0,218,218,218,,,,,,,,,,,,,128.01311429999987,0.013114299999870127,None,172.1270971999984,172.1270971999984,172.1270971999984,172.1270971999984,172.1270971999984,172.1270971999984,172.1270971999984,172.1270971999984,172.1270971999984,172.1270971999984,,005,P013,2025_Feb_08_1519,ConditionRich,2021.2.3,60.00438031949986,
128.75,129.0,41,0.0,Stimuli/Blank.png,0,0,0.0,0,219,219,219,,,,,,,,,,,,,128.78006359999927,0.030063599999266444,None,172.8777596999971,172.8777596999971,172.8777596999971,172.8777596999971,172.8777596999971,172.8777596999971,172.8777596999971,172.8777596999971,172.8777596999971,172.8777596999971,,005,P013,2025_Feb_08_1519,ConditionRich,2021.2.3,60.00438031949986,
129.0,129.75,3,0.75,Stimuli/P013/sun_aengzsmykwchlrdn.jpg,0,0,0.0,0,220,220,220,,,,,,,,,,,,,129.01300769999943,0.013007699999434408,None,173.11125039999752,173.11125039999752,173.11125039999752,173.11125039999752,173.11125039999752,173.11125039999752,173.11125039999752,173.11125039999752,173.11125039999752,173.11125039999752,,005,P013,2025_Feb_08_1519,ConditionRich,2021.2.3,60.00438031949986,
129.75,130.0,41,0.0,Stimuli/Blank.png,0,0,0.0,0,221,221,221,,,,,,,,,,,,,129.763642599999,0.013642599999002414,None,173.8619484999981,173.8619484999981,173.8619484999981,173.8619484999981,173.8619484999981,173.8619484999981,173.8619484999981,173.8619484999981,173.8619484999981,173.8619484999981,,005,P013,2025_Feb_08_1519,ConditionRich,2021.2.3,60.00438031949986,
130.0,130.75,3,0.75,Stimuli/P013/sun_aengzsmykwchlrdn.jpg,1,0,0.75,0,222,222,222,,,,,,,,,,,,,130.01369509999859,0.013695099998585647,1,174.11215749999974,174.11215749999974,174.11215749999974,174.11215749999974,174.11215749999974,174.11215749999974,174.11215749999974,174.8461400999986,174.11215749999974,174.11215749999974,0.4880510000002687,005,P013,2025_Feb_08_1519,ConditionRich,2021.2.3,60.00438031949986,
130.75,131.0,41,0.0,Stimuli/Blank.png,0,0,0.0,0,223,223,223,,,,,,,,,,,,,130.76744809999946,0.017448099999455735,None,174.87951079999766,174.87951079999766,174.87951079999766,174.87951079999766,174.87951079999766,174.87951079999766,174.87951079999766,174.87951079999766,174.87951079999766,174.87951079999766,,005,P013,2025_Feb_08_1519,ConditionRich,2021.2.3,60.00438031949986,
131.0,131.75,3,0.75,Stimuli/P013/sun_aengzsmykwchlrdn.jpg,0,0,0.0,0,224,224,224,,,,,,,,,,,,,131.01533410000047,0.015334100000472972,None,175.1297298999998,175.1297298999998,175.1297298999998,175.1297298999998,175.1297298999998,175.1297298999998,175.1297298999998,175.1297298999998,175.1297298999998,175.1297298999998,,005,P013,2025_Feb_08_1519,ConditionRich,2021.2.3,60.00438031949986,
131.75,132.0,41,0.0,Stimuli/Blank.png,0,0,0.0,0,225,225,225,,,,,,,,,,,,,131.7671956999984,0.01719569999841042,None,175.8804046999976,175.8804046999976,175.8804046999976,175.8804046999976,175.8804046999976,175.8804046999976,175.8804046999976,175.8804046999976,175.8804046999976,175.8804046999976,,005,P013,2025_Feb_08_1519,ConditionRich,2021.2.3,60.00438031949986,
132.0,132.75,7,0.75,Stimuli/P013/sun_aojplsluiikxrfxc.jpg,0,0,0.0,0,226,226,226,,,,,,,,,,,,,132.01585200000045,0.01585200000045006,None,176.11394679999648,176.11394679999648,176.11394679999648,176.11394679999648,176.11394679999648,176.11394679999648,176.11394679999648,176.11394679999648,176.11394679999648,176.11394679999648,,005,P013,2025_Feb_08_1519,ConditionRich,2021.2.3,60.00438031949986,
132.75,133.0,41,0.0,Stimuli/Blank.png,0,0,0.0,0,227,227,227,,,,,,,,,,,,,132.75034949999826,0.00034949999826494604,None,176.84791679999762,176.84791679999762,176.84791679999762,176.84791679999762,176.84791679999762,176.84791679999762,176.84791679999762,176.84791679999762,176.84791679999762,176.84791679999762,,005,P013,2025_Feb_08_1519,ConditionRich,2021.2.3,60.00438031949986,
133.0,133.75,7,0.75,Stimuli/P013/sun_aojplsluiikxrfxc.jpg,0,0,0.0,0,228,228,228,,,,,,,,,,,,,133.00246790000165,0.0024679000016476493,None,177.11485979999998,177.11485979999998,177.11485979999998,177.11485979999998,177.11485979999998,177.11485979999998,177.11485979999998,177.11485979999998,177.11485979999998,177.11485979999998,,005,P013,2025_Feb_08_1519,ConditionRich,2021.2.3,60.00438031949986,
133.75,134.0,41,0.0,Stimuli/Blank.png,0,0,0.0,0,229,229,229,,,,,,,,,,,,,133.7681061000003,0.018106100000295555,None,177.86548689999836,177.86548689999836,177.86548689999836,177.86548689999836,177.86548689999836,177.86548689999836,177.86548689999836,177.86548689999836,177.86548689999836,177.86548689999836,,005,P013,2025_Feb_08_1519,ConditionRich,2021.2.3,60.00438031949986,
134.0,134.75,7,0.75,Stimuli/P013/sun_aojplsluiikxrfxc.jpg,0,0,0.0,0,230,230,230,,,,,,,,,,,,,134.0004454000009,0.0004454000008990988,None,178.09902469999724,178.09902469999724,178.09902469999724,178.09902469999724,178.09902469999724,178.09902469999724,178.09902469999724,178.09902469999724,178.09902469999724,178.09902469999724,,005,P013,2025_Feb_08_1519,ConditionRich,2021.2.3,60.00438031949986,
134.75,135.0,41,0.0,Stimuli/Blank.png,0,0,0.0,0,231,231,231,,,,,,,,,,,,,134.75196209999922,0.0019620999992184807,None,178.8497064999974,178.8497064999974,178.8497064999974,178.8497064999974,178.8497064999974,178.8497064999974,178.8497064999974,178.8497064999974,178.8497064999974,178.8497064999974,,005,P013,2025_Feb_08_1519,ConditionRich,2021.2.3,60.00438031949986,
135.0,135.75,7,0.75,Stimuli/P013/sun_aojplsluiikxrfxc.jpg,0,0,0.0,0,232,232,232,,,,,,,,,,,,,135.0025295000014,0.002529500001401175,None,179.0999026999998,179.0999026999998,179.0999026999998,179.0999026999998,179.0999026999998,179.0999026999998,179.0999026999998,179.0999026999998,179.0999026999998,179.0999026999998,,005,P013,2025_Feb_08_1519,ConditionRich,2021.2.3,60.00438031949986,
135.75,136.0,41,0.0,Stimuli/Blank.png,0,0,0.0,0,233,233,233,,,,,,,,,,,,,135.7530799999986,0.0030799999985902105,None,179.85054369999852,179.85054369999852,179.85054369999852,179.85054369999852,179.85054369999852,179.85054369999852,179.85054369999852,179.85054369999852,179.85054369999852,179.85054369999852,,005,P013,2025_Feb_08_1519,ConditionRich,2021.2.3,60.00438031949986,
136.0,136.75,10,0.75,Stimuli/P013/sun_bdhxnzyleoiflyak.jpg,0,0,0.0,0,234,234,234,,,,,,,,,,,,,136.00252040000123,0.0025204000012308825,None,180.1008047999967,180.1008047999967,180.1008047999967,180.1008047999967,180.1008047999967,180.1008047999967,180.1008047999967,180.1008047999967,180.1008047999967,180.1008047999967,,005,P013,2025_Feb_08_1519,ConditionRich,2021.2.3,60.00438031949986,
136.75,137.0,41,0.0,Stimuli/Blank.png,0,0,0.0,0,235,235,235,,,,,,,,,,,,,136.75309579999885,0.003095799998845905,None,180.85145059999923,180.85145059999923,180.85145059999923,180.85145059999923,180.85145059999923,180.85145059999923,180.85145059999923,180.85145059999923,180.85145059999923,180.85145059999923,,005,P013,2025_Feb_08_1519,ConditionRich,2021.2.3,60.00438031949986,
137.0,137.75,10,0.75,Stimuli/P013/sun_bdhxnzyleoiflyak.jpg,0,0,0.0,0,236,236,236,,,,,,,,,,,,,137.00324550000005,0.003245500000048196,None,181.1016830999979,181.1016830999979,181.1016830999979,181.1016830999979,181.1016830999979,181.1016830999979,181.1016830999979,181.1016830999979,181.1016830999979,181.1016830999979,,005,P013,2025_Feb_08_1519,ConditionRich,2021.2.3,60.00438031949986,
137.75,138.0,41,0.0,Stimuli/Blank.png,0,0,0.0,0,237,237,237,,,,,,,,,,,,,137.7545370000007,0.004537000000709668,None,181.85231589999967,181.85231589999967,181.85231589999967,181.85231589999967,181.85231589999967,181.85231589999967,181.85231589999967,181.85231589999967,181.85231589999967,181.85231589999967,,005,P013,2025_Feb_08_1519,ConditionRich,2021.2.3,60.00438031949986,
138.0,138.75,10,0.75,Stimuli/P013/sun_bdhxnzyleoiflyak.jpg,0,0,0.0,0,238,238,238,,,,,,,,,,,,,138.0053810999998,0.005381099999794969,None,182.11921869999787,182.11921869999787,182.11921869999787,182.11921869999787,182.11921869999787,182.11921869999787,182.11921869999787,182.11921869999787,182.11921869999787,182.11921869999787,,005,P013,2025_Feb_08_1519,ConditionRich,2021.2.3,60.00438031949986,
138.75,139.0,41,0.0,Stimuli/Blank.png,0,0,0.0,0,239,239,239,,,,,,,,,,,,,138.77274849999958,0.022748499999579508,None,182.86991289999787,182.86991289999787,182.86991289999787,182.86991289999787,182.86991289999787,182.86991289999787,182.86991289999787,182.86991289999787,182.86991289999787,182.86991289999787,,005,P013,2025_Feb_08_1519,ConditionRich,2021.2.3,60.00438031949986,
139.0,139.75,10,0.75,Stimuli/P013/sun_bdhxnzyleoiflyak.jpg,0,0,0.0,0,240,240,240,,,,,,,,,,,,,139.0079580999991,0.007958099999086699,None,183.12013239999942,183.12013239999942,183.12013239999942,183.12013239999942,183.12013239999942,183.12013239999942,183.12013239999942,183.12013239999942,183.12013239999942,183.12013239999942,,005,P013,2025_Feb_08_1519,ConditionRich,2021.2.3,60.00438031949986,
139.75,140.0,41,0.0,Stimuli/Blank.png,0,0,0.0,0,241,241,241,,,,,,,,,,,,,139.77326900000116,0.023269000001164386,None,183.87078819999806,183.87078819999806,183.87078819999806,183.87078819999806,183.87078819999806,183.87078819999806,183.87078819999806,183.87078819999806,183.87078819999806,183.87078819999806,,005,P013,2025_Feb_08_1519,ConditionRich,2021.2.3,60.00438031949986,
140.0,140.75,18,0.75,Stimuli/P013/sun_btohwudpiusfvpvl.jpg,0,0,0.0,0,242,242,242,,,,,,,,,,,,,140.0061213000008,0.00612130000081379,None,184.10436449999906,184.10436449999906,184.10436449999906,184.10436449999906,184.10436449999906,184.10436449999906,184.10436449999906,184.10436449999906,184.10436449999906,184.10436449999906,,005,P013,2025_Feb_08_1519,ConditionRich,2021.2.3,60.00438031949986,
140.75,141.0,41,0.0,Stimuli/Blank.png,0,0,0.0,0,243,243,243,,,,,,,,,,,,,140.75822419999895,0.008224199998949189,None,184.8550338999994,184.8550338999994,184.8550338999994,184.8550338999994,184.8550338999994,184.8550338999994,184.8550338999994,184.8550338999994,184.8550338999994,184.8550338999994,,005,P013,2025_Feb_08_1519,ConditionRich,2021.2.3,60.00438031949986,
141.0,141.75,18,0.75,Stimuli/P013/sun_btohwudpiusfvpvl.jpg,0,0,0.0,0,244,244,244,,,,,,,,,,,,,141.00760829999854,0.0076082999985374045,None,185.1219011999965,185.1219011999965,185.1219011999965,185.1219011999965,185.1219011999965,185.1219011999965,185.1219011999965,185.1219011999965,185.1219011999965,185.1219011999965,,005,P013,2025_Feb_08_1519,ConditionRich,2021.2.3,60.00438031949986,
141.75,142.0,41,0.0,Stimuli/Blank.png,0,0,0.0,0,245,245,245,,,,,,,,,,,,,141.77430879999883,0.02430879999883473,None,185.8725648999971,185.8725648999971,185.8725648999971,185.8725648999971,185.8725648999971,185.8725648999971,185.8725648999971,185.8725648999971,185.8725648999971,185.8725648999971,,005,P013,2025_Feb_08_1519,ConditionRich,2021.2.3,60.00438031949986,
142.0,142.75,18,0.75,Stimuli/P013/sun_btohwudpiusfvpvl.jpg,0,0,0.0,0,246,246,246,,,,,,,,,,,,,142.007908399999,0.007908399998996174,None,186.10610949999682,186.10610949999682,186.10610949999682,186.10610949999682,186.10610949999682,186.10610949999682,186.10610949999682,186.10610949999682,186.10610949999682,186.10610949999682,,005,P013,2025_Feb_08_1519,ConditionRich,2021.2.3,60.00438031949986,
142.75,143.0,41,0.0,Stimuli/Blank.png,0,0,0.0,0,247,247,247,,,,,,,,,,,,,142.75956869999936,0.009568699999363162,None,186.85685959999682,186.85685959999682,186.85685959999682,186.85685959999682,186.85685959999682,186.85685959999682,186.85685959999682,186.85685959999682,186.85685959999682,186.85685959999682,,005,P013,2025_Feb_08_1519,ConditionRich,2021.2.3,60.00438031949986,
143.0,143.75,18,0.75,Stimuli/P013/sun_btohwudpiusfvpvl.jpg,0,0,0.0,0,248,248,248,,,,,,,,,,,,,143.00912740000058,0.009127400000579655,None,187.1236906999984,187.1236906999984,187.1236906999984,187.1236906999984,187.1236906999984,187.1236906999984,187.1236906999984,187.1236906999984,187.1236906999984,187.1236906999984,,005,P013,2025_Feb_08_1519,ConditionRich,2021.2.3,60.00438031949986,
143.75,144.0,41,0.0,Stimuli/Blank.png,0,0,0.0,0,249,249,249,,,,,,,,,,,,,143.77619240000058,0.026192400000581983,None,187.87433449999662,187.87433449999662,187.87433449999662,187.87433449999662,187.87433449999662,187.87433449999662,187.87433449999662,187.87433449999662,187.87433449999662,187.87433449999662,,005,P013,2025_Feb_08_1519,ConditionRich,2021.2.3,60.00438031949986,
144.0,144.75,30,0.75,Stimuli/P013/things_man_07s.jpg,0,0,0.0,0,250,250,250,,,,,,,,,,,,,144.0103381000008,0.010338100000808481,None,188.12471869999717,188.12471869999717,188.12471869999717,188.12471869999717,188.12471869999717,188.12471869999717,188.12471869999717,188.12471869999717,188.12471869999717,188.12471869999717,,005,P013,2025_Feb_08_1519,ConditionRich,2021.2.3,60.00438031949986,
144.75,145.0,41,0.0,Stimuli/Blank.png,0,0,0.0,0,251,251,251,,,,,,,,,,,,,144.77786840000044,0.027868400000443216,None,188.87522519999766,188.87522519999766,188.87522519999766,188.87522519999766,188.87522519999766,188.87522519999766,188.87522519999766,188.87522519999766,188.87522519999766,188.87522519999766,,005,P013,2025_Feb_08_1519,ConditionRich,2021.2.3,60.00438031949986,
145.0,145.75,30,0.75,Stimuli/P013/things_man_07s.jpg,0,0,0.0,0,252,252,252,,,,,,,,,,,,,145.01233259999935,0.012332599999353988,None,189.12545419999879,189.12545419999879,189.12545419999879,189.12545419999879,189.12545419999879,189.12545419999879,189.12545419999879,189.12545419999879,189.12545419999879,189.12545419999879,,005,P013,2025_Feb_08_1519,ConditionRich,2021.2.3,60.00438031949986,
145.75,146.0,41,0.0,Stimuli/Blank.png,0,0,0.0,0,253,253,253,,,,,,,,,,,,,145.77879440000106,0.02879440000106115,None,189.8761001999992,189.8761001999992,189.8761001999992,189.8761001999992,189.8761001999992,189.8761001999992,189.8761001999992,189.8761001999992,189.8761001999992,189.8761001999992,,005,P013,2025_Feb_08_1519,ConditionRich,2021.2.3,60.00438031949986,
146.0,146.75,30,0.75,Stimuli/P013/things_man_07s.jpg,0,0,0.0,0,254,254,254,,,,,,,,,,,,,146.01136469999983,0.011364699999830918,None,190.11023799999748,190.11023799999748,190.11023799999748,190.11023799999748,190.11023799999748,190.11023799999748,190.11023799999748,190.11023799999748,190.11023799999748,190.11023799999748,,005,P013,2025_Feb_08_1519,ConditionRich,2021.2.3,60.00438031949986,
146.75,147.0,41,0.0,Stimuli/Blank.png,0,0,0.0,0,255,255,255,,,,,,,,,,,,,146.76265739999872,0.012657399998715846,None,190.86030599999867,190.86030599999867,190.86030599999867,190.86030599999867,190.86030599999867,190.86030599999867,190.86030599999867,190.86030599999867,190.86030599999867,190.86030599999867,,005,P013,2025_Feb_08_1519,ConditionRich,2021.2.3,60.00438031949986,
147.0,147.75,30,0.75,Stimuli/P013/things_man_07s.jpg,0,0,0.0,0,256,256,256,,,,,,,,,,,,,147.01278250000178,0.012782500001776498,None,191.1272379999973,191.1272379999973,191.1272379999973,191.1272379999973,191.1272379999973,191.1272379999973,191.1272379999973,191.1272379999973,191.1272379999973,191.1272379999973,,005,P013,2025_Feb_08_1519,ConditionRich,2021.2.3,60.00438031949986,
147.75,148.0,41,0.0,Stimuli/Blank.png,0,0,0.0,0,257,257,257,,,,,,,,,,,,,147.7803973000009,0.030397300000913674,None,191.87788159999764,191.87788159999764,191.87788159999764,191.87788159999764,191.87788159999764,191.87788159999764,191.87788159999764,191.87788159999764,191.87788159999764,191.87788159999764,,005,P013,2025_Feb_08_1519,ConditionRich,2021.2.3,60.00438031949986,
148.0,148.75,22,0.75,Stimuli/P013/things_banner_07s.jpg,0,0,0.0,0,258,258,258,,,,,,,,,,,,,148.01319769999827,0.013197699998272583,None,192.1114056999977,192.1114056999977,192.1114056999977,192.1114056999977,192.1114056999977,192.1114056999977,192.1114056999977,192.1114056999977,192.1114056999977,192.1114056999977,,005,P013,2025_Feb_08_1519,ConditionRich,2021.2.3,60.00438031949986,
148.75,149.0,41,0.0,Stimuli/Blank.png,0,0,0.0,0,259,259,259,,,,,,,,,,,,,148.7637895000007,0.013789500000711996,None,192.86208299999998,192.86208299999998,192.86208299999998,192.86208299999998,192.86208299999998,192.86208299999998,192.86208299999998,192.86208299999998,192.86208299999998,192.86208299999998,,005,P013,2025_Feb_08_1519,ConditionRich,2021.2.3,60.00438031949986,
149.0,149.75,22,0.75,Stimuli/P013/things_banner_07s.jpg,0,0,0.0,0,260,260,260,,,,,,,,,,,,,149.0142863000001,0.014286300000094343,None,193.1289969999998,193.1289969999998,193.1289969999998,193.1289969999998,193.1289969999998,193.1289969999998,193.1289969999998,193.1289969999998,193.1289969999998,193.1289969999998,,005,P013,2025_Feb_08_1519,ConditionRich,2021.2.3,60.00438031949986,
149.75,150.0,41,0.0,Stimuli/Blank.png,0,0,0.0,0,261,261,261,,,,,,,,,,,,,149.78148069999952,0.03148069999951986,None,193.87964199999988,193.87964199999988,193.87964199999988,193.87964199999988,193.87964199999988,193.87964199999988,193.87964199999988,193.87964199999988,193.87964199999988,193.87964199999988,,005,P013,2025_Feb_08_1519,ConditionRich,2021.2.3,60.00438031949986,
