eventStartTime,eventEndTime,eventCond,imSize,imFile,responseEvent,fixRespStart,fixRespEnd,Events.thisRepN,Events.thisTrialN,Events.thisN,Events.thisIndex,Instructions.started,Instructions.stopped,participantReadyResponse.keys,participantReadyResponse.rt,participantReadyResponse.started,participantReadyResponse.stopped,startWaitforTrigger,triggerResponse.keys,triggerResponse.rt,triggerResponse.started,triggerResponse.stopped,globalTimer,actualStartTime,startTimingDiff,participantResponse.keys,participantResponse.started,participantResponse.stopped,image.started,image.stopped,fixationOutside.started,fixationOutside.stopped,fixationResponse.started,fixationResponse.stopped,fixationInside.started,fixationInside.stopped,participantResponse.rt,session,participant,date,expName,psychopyVersion,frameRate,
,,,,,,,,,,,,11.734742900000128,None,1,25.006073299999116,11.734742900000128,None,,,,,,,,,,,,,,,,,,,,,003,P014,2025_Feb_28_1610,ConditionRich,2021.2.3,59.914107136313426,
,,,,,,,,,,,,,,,,,,36.74426830000084,5,14.143670199999178,36.75716359999933,None,,,,,,,,,,,,,,,,003,P014,2025_Feb_28_1610,ConditionRich,2021.2.3,59.914107136313426,
0.0,4.0,0,0.0,Stimuli/Blank.png,0,0.0,0.0,0,0,0,0,,,,,,,,,,,,50.90638240000044,0.04955100000006496,0.04955100000006496,None,50.96968030000062,None,50.96968030000062,None,50.96968030000062,None,50.96968030000062,50.96968030000062,50.96968030000062,None,,003,P014,2025_Feb_28_1610,ConditionRich,2021.2.3,59.914107136313426,
4.0,4.75,2,0.75,Stimuli/P014/sun_adotnsaifoooswkf.jpg,0,0.0,0.0,0,1,1,1,,,,,,,,,,,,,4.003030300000319,0.0030303000003186753,None,54.923395300000266,54.923395300000266,54.923395300000266,54.923395300000266,54.923395300000266,54.923395300000266,54.923395300000266,54.923395300000266,54.923395300000266,54.923395300000266,,003,P014,2025_Feb_28_1610,ConditionRich,2021.2.3,59.914107136313426,
4.75,8.0,41,0.0,Stimuli/Blank.png,0,0.0,0.0,0,2,2,2,,,,,,,,,,,,,4.753741799999261,0.003741799999261275,None,55.674124799999845,55.674124799999845,55.674124799999845,55.674124799999845,55.674124799999845,55.674124799999845,55.674124799999845,55.674124799999845,55.674124799999845,55.674124799999845,,003,P014,2025_Feb_28_1610,ConditionRich,2021.2.3,59.914107136313426,
8.0,8.75,18,0.75,Stimuli/P014/sun_btohwudpiusfvpvl.jpg,0,0.0,0.0,0,3,3,3,,,,,,,,,,,,,8.006319899999653,0.006319899999652989,None,58.943406700000196,58.943406700000196,58.943406700000196,58.943406700000196,58.943406700000196,58.943406700000196,58.943406700000196,58.943406700000196,58.943406700000196,58.943406700000196,,003,P014,2025_Feb_28_1610,ConditionRich,2021.2.3,59.914107136313426,
8.75,12.0,41,0.0,Stimuli/Blank.png,0,0.0,0.0,0,4,4,4,,,,,,,,,,,,,8.773204299999634,0.023204299999633804,None,59.69407069999943,59.69407069999943,59.69407069999943,59.69407069999943,59.69407069999943,59.69407069999943,59.69407069999943,59.69407069999943,59.69407069999943,59.69407069999943,,003,P014,2025_Feb_28_1610,ConditionRich,2021.2.3,59.914107136313426,
12.0,12.75,27,0.75,Stimuli/P014/things_face_07s.jpg,0,0.0,0.0,0,5,5,5,,,,,,,,,,,,,12.009398599999258,0.009398599999258295,None,62.93027660000007,62.93027660000007,62.93027660000007,62.93027660000007,62.93027660000007,62.93027660000007,62.93027660000007,62.93027660000007,62.93027660000007,62.93027660000007,,003,P014,2025_Feb_28_1610,ConditionRich,2021.2.3,59.914107136313426,
12.75,16.0,41,0.0,Stimuli/Blank.png,0,0.0,0.0,0,6,6,6,,,,,,,,,,,,,12.760109400000147,0.010109400000146707,None,63.68093709999994,63.68093709999994,63.68093709999994,63.68093709999994,63.68093709999994,63.68093709999994,63.68093709999994,63.68093709999994,63.68093709999994,63.68093709999994,,003,P014,2025_Feb_28_1610,ConditionRich,2021.2.3,59.914107136313426,
16.0,16.75,8,0.75,Stimuli/P014/sun_auqrilekgmdmrncq.jpg,0,0.0,0.0,0,7,7,7,,,,,,,,,,,,,16.012976199999684,0.012976199999684468,None,66.93382179999935,66.93382179999935,66.93382179999935,66.93382179999935,66.93382179999935,66.93382179999935,66.93382179999935,66.93382179999935,66.93382179999935,66.93382179999935,,003,P014,2025_Feb_28_1610,ConditionRich,2021.2.3,59.914107136313426,
16.75,20.0,41,0.0,Stimuli/Blank.png,1,2.25,3.0,0,8,8,8,,,,,,,,,,,,,16.76414400000067,0.014144000000669621,1,67.68450470000062,67.68450470000062,67.68450470000062,67.68450470000062,67.68450470000062,67.68450470000062,69.91979010000068,70.6704664000008,67.68450470000062,67.68450470000062,3.168401500000982,003,P014,2025_Feb_28_1610,ConditionRich,2021.2.3,59.914107136313426,
20.0,20.75,36,0.75,Stimuli/P014/things_seafood_07s.jpg,0,0.0,0.0,0,9,9,9,,,,,,,,,,,,,20.000438600000052,0.0004386000000522472,None,70.92068409999956,70.92068409999956,70.92068409999956,70.92068409999956,70.92068409999956,70.92068409999956,70.92068409999956,70.92068409999956,70.92068409999956,70.92068409999956,,003,P014,2025_Feb_28_1610,ConditionRich,2021.2.3,59.914107136313426,
20.75,24.0,41,0.0,Stimuli/Blank.png,0,0.0,0.0,0,10,10,10,,,,,,,,,,,,,20.750871899999765,0.0008718999997654464,None,71.6713462000007,71.6713462000007,71.6713462000007,71.6713462000007,71.6713462000007,71.6713462000007,71.6713462000007,71.6713462000007,71.6713462000007,71.6713462000007,,003,P014,2025_Feb_28_1610,ConditionRich,2021.2.3,59.914107136313426,
24.0,24.75,31,0.75,Stimuli/P014/things_mask_07s.jpg,0,0.0,0.0,0,11,11,11,,,,,,,,,,,,,24.004226400000334,0.004226400000334252,None,74.94091160000062,74.94091160000062,74.94091160000062,74.94091160000062,74.94091160000062,74.94091160000062,74.94091160000062,74.94091160000062,74.94091160000062,74.94091160000062,,003,P014,2025_Feb_28_1610,ConditionRich,2021.2.3,59.914107136313426,
24.75,28.0,41,0.0,Stimuli/Blank.png,1,0.25,1.0,0,12,12,12,,,,,,,,,,,,,24.77122220000092,0.021222200000920566,1,75.6915810999999,75.6915810999999,75.6915810999999,75.6915810999999,75.6915810999999,75.6915810999999,75.92511510000077,76.67578049999975,75.6915810999999,75.6915810999999,0.5863783000004332,003,P014,2025_Feb_28_1610,ConditionRich,2021.2.3,59.914107136313426,
28.0,28.75,28,0.75,Stimuli/P014/things_girl_07s.jpg,0,0.0,0.0,0,13,13,13,,,,,,,,,,,,,28.006941199999346,0.006941199999346281,None,78.9444624000007,78.9444624000007,78.9444624000007,78.9444624000007,78.9444624000007,78.9444624000007,78.9444624000007,78.9444624000007,78.9444624000007,78.9444624000007,,003,P014,2025_Feb_28_1610,ConditionRich,2021.2.3,59.914107136313426,
28.75,32.0,41,0.0,Stimuli/Blank.png,0,0.0,0.0,0,14,14,14,,,,,,,,,,,,,28.77463159999934,0.024631599999338505,None,79.69512729999951,79.69512729999951,79.69512729999951,79.69512729999951,79.69512729999951,79.69512729999951,79.69512729999951,79.69512729999951,79.69512729999951,79.69512729999951,,003,P014,2025_Feb_28_1610,ConditionRich,2021.2.3,59.914107136313426,
32.0,32.75,15,0.75,Stimuli/P014/sun_brezwczwwllviogu.jpg,0,0.0,0.0,0,15,15,15,,,,,,,,,,,,,32.01144729999942,0.011447299999417737,None,82.93132669999977,82.93132669999977,82.93132669999977,82.93132669999977,82.93132669999977,82.93132669999977,82.93132669999977,82.93132669999977,82.93132669999977,82.93132669999977,,003,P014,2025_Feb_28_1610,ConditionRich,2021.2.3,59.914107136313426,
32.75,36.0,41,0.0,Stimuli/Blank.png,0,0.0,0.0,0,16,16,16,,,,,,,,,,,,,32.761085000000094,0.011085000000093714,None,83.68199199999981,83.68199199999981,83.68199199999981,83.68199199999981,83.68199199999981,83.68199199999981,83.68199199999981,83.68199199999981,83.68199199999981,83.68199199999981,,003,P014,2025_Feb_28_1610,ConditionRich,2021.2.3,59.914107136313426,
36.0,36.75,34,0.75,Stimuli/P014/things_radio_07s.jpg,0,0.0,0.0,0,17,17,17,,,,,,,,,,,,,36.015898699999525,0.01589869999952498,None,86.95159539999986,86.95159539999986,86.95159539999986,86.95159539999986,86.95159539999986,86.95159539999986,86.95159539999986,86.95159539999986,86.95159539999986,86.95159539999986,,003,P014,2025_Feb_28_1610,ConditionRich,2021.2.3,59.914107136313426,
36.75,40.0,41,0.0,Stimuli/Blank.png,0,0.0,0.0,0,18,18,18,,,,,,,,,,,,,36.76484410000012,0.014844100000118488,None,87.68554940000104,87.68554940000104,87.68554940000104,87.68554940000104,87.68554940000104,87.68554940000104,87.68554940000104,87.68554940000104,87.68554940000104,87.68554940000104,,003,P014,2025_Feb_28_1610,ConditionRich,2021.2.3,59.914107136313426,
40.0,40.75,29,0.75,Stimuli/P014/things_iguana_07s.jpg,0,0.0,0.0,0,19,19,19,,,,,,,,,,,,,40.00102820000029,0.0010282000002916902,None,90.92184830000042,90.92184830000042,90.92184830000042,90.92184830000042,90.92184830000042,90.92184830000042,90.92184830000042,90.92184830000042,90.92184830000042,90.92184830000042,,003,P014,2025_Feb_28_1610,ConditionRich,2021.2.3,59.914107136313426,
40.75,44.0,41,0.0,Stimuli/Blank.png,0,0.0,0.0,0,20,20,20,,,,,,,,,,,,,40.75304920000053,0.003049200000532437,None,91.67242110000007,91.67242110000007,91.67242110000007,91.67242110000007,91.67242110000007,91.67242110000007,91.67242110000007,91.67242110000007,91.67242110000007,91.67242110000007,,003,P014,2025_Feb_28_1610,ConditionRich,2021.2.3,59.914107136313426,
44.0,44.75,17,0.75,Stimuli/P014/sun_bsguftphqnrkbedw.jpg,0,0.0,0.0,0,21,21,21,,,,,,,,,,,,,44.00488089999999,0.004880899999989197,None,94.9252918000002,94.9252918000002,94.9252918000002,94.9252918000002,94.9252918000002,94.9252918000002,94.9252918000002,94.9252918000002,94.9252918000002,94.9252918000002,,003,P014,2025_Feb_28_1610,ConditionRich,2021.2.3,59.914107136313426,
44.75,48.0,41,0.0,Stimuli/Blank.png,0,0.0,0.0,0,22,22,22,,,,,,,,,,,,,44.754956500000844,0.004956500000844244,None,95.67592259999947,95.67592259999947,95.67592259999947,95.67592259999947,95.67592259999947,95.67592259999947,95.67592259999947,95.67592259999947,95.67592259999947,95.67592259999947,,003,P014,2025_Feb_28_1610,ConditionRich,2021.2.3,59.914107136313426,
48.0,48.75,5,0.75,Stimuli/P014/sun_aidrxvbfhxtsusrf.jpg,0,0.0,0.0,0,23,23,23,,,,,,,,,,,,,48.00876219999918,0.008762199999182485,None,98.92883910000091,98.92883910000091,98.92883910000091,98.92883910000091,98.92883910000091,98.92883910000091,98.92883910000091,98.92883910000091,98.92883910000091,98.92883910000091,,003,P014,2025_Feb_28_1610,ConditionRich,2021.2.3,59.914107136313426,
48.75,52.0,41,0.0,Stimuli/Blank.png,0,0.0,0.0,0,24,24,24,,,,,,,,,,,,,48.7596338000003,0.009633800000301562,None,99.69619590000002,99.69619590000002,99.69619590000002,99.69619590000002,99.69619590000002,99.69619590000002,99.69619590000002,99.69619590000002,99.69619590000002,99.69619590000002,,003,P014,2025_Feb_28_1610,ConditionRich,2021.2.3,59.914107136313426,
52.0,52.75,25,0.75,Stimuli/P014/things_cashew_07s.jpg,0,0.0,0.0,0,25,25,25,,,,,,,,,,,,,52.029541800000516,0.02954180000051565,None,102.96582619999936,102.96582619999936,102.96582619999936,102.96582619999936,102.96582619999936,102.96582619999936,102.96582619999936,102.96582619999936,102.96582619999936,102.96582619999936,,003,P014,2025_Feb_28_1610,ConditionRich,2021.2.3,59.914107136313426,
52.75,56.0,41,0.0,Stimuli/Blank.png,0,0.0,0.0,0,26,26,26,,,,,,,,,,,,,52.77886519999993,0.028865199999927427,None,103.69974510000065,103.69974510000065,103.69974510000065,103.69974510000065,103.69974510000065,103.69974510000065,103.69974510000065,103.69974510000065,103.69974510000065,103.69974510000065,,003,P014,2025_Feb_28_1610,ConditionRich,2021.2.3,59.914107136313426,
56.0,56.75,35,0.75,Stimuli/P014/things_road_sign_07s.jpg,0,0.0,0.0,0,27,27,27,,,,,,,,,,,,,56.01488889999928,0.014888899999277783,None,106.93593350000083,106.93593350000083,106.93593350000083,106.93593350000083,106.93593350000083,106.93593350000083,106.93593350000083,106.93593350000083,106.93593350000083,106.93593350000083,,003,P014,2025_Feb_28_1610,ConditionRich,2021.2.3,59.914107136313426,
56.75,60.0,41,0.0,Stimuli/Blank.png,0,0.0,0.0,0,28,28,28,,,,,,,,,,,,,56.766572700000324,0.016572700000324403,None,107.68661310000061,107.68661310000061,107.68661310000061,107.68661310000061,107.68661310000061,107.68661310000061,107.68661310000061,107.68661310000061,107.68661310000061,107.68661310000061,,003,P014,2025_Feb_28_1610,ConditionRich,2021.2.3,59.914107136313426,
60.0,60.75,7,0.75,Stimuli/P014/sun_aojplsluiikxrfxc.jpg,0,0.0,0.0,0,29,29,29,,,,,,,,,,,,,60.00197029999981,0.0019702999998116866,None,110.92279690000032,110.92279690000032,110.92279690000032,110.92279690000032,110.92279690000032,110.92279690000032,110.92279690000032,110.92279690000032,110.92279690000032,110.92279690000032,,003,P014,2025_Feb_28_1610,ConditionRich,2021.2.3,59.914107136313426,
60.75,64.0,41,0.0,Stimuli/Blank.png,0,0.0,0.0,0,30,30,30,,,,,,,,,,,,,60.75312649999978,0.003126499999780208,None,111.67347169999994,111.67347169999994,111.67347169999994,111.67347169999994,111.67347169999994,111.67347169999994,111.67347169999994,111.67347169999994,111.67347169999994,111.67347169999994,,003,P014,2025_Feb_28_1610,ConditionRich,2021.2.3,59.914107136313426,
64.0,64.75,38,0.75,Stimuli/P014/things_spark_plug_07s.jpg,0,0.0,0.0,0,31,31,31,,,,,,,,,,,,,64.0071994000009,0.007199400000899914,None,114.94305189999977,114.94305189999977,114.94305189999977,114.94305189999977,114.94305189999977,114.94305189999977,114.94305189999977,114.94305189999977,114.94305189999977,114.94305189999977,,003,P014,2025_Feb_28_1610,ConditionRich,2021.2.3,59.914107136313426,
64.75,68.0,41,0.0,Stimuli/Blank.png,0,0.0,0.0,0,32,32,32,,,,,,,,,,,,,64.77395090000027,0.023950900000272668,None,115.69369630000074,115.69369630000074,115.69369630000074,115.69369630000074,115.69369630000074,115.69369630000074,115.69369630000074,115.69369630000074,115.69369630000074,115.69369630000074,,003,P014,2025_Feb_28_1610,ConditionRich,2021.2.3,59.914107136313426,
68.0,68.75,39,0.75,Stimuli/P014/things_violin_07n.jpg,0,0.0,0.0,0,33,33,33,,,,,,,,,,,,,68.0122795999996,0.012279599999601487,None,118.94658739999977,118.94658739999977,118.94658739999977,118.94658739999977,118.94658739999977,118.94658739999977,118.94658739999977,118.94658739999977,118.94658739999977,118.94658739999977,,003,P014,2025_Feb_28_1610,ConditionRich,2021.2.3,59.914107136313426,
68.75,72.0,41,0.0,Stimuli/Blank.png,0,0.0,0.0,0,34,34,34,,,,,,,,,,,,,68.77692480000042,0.026924800000415416,None,119.69727629999943,119.69727629999943,119.69727629999943,119.69727629999943,119.69727629999943,119.69727629999943,119.69727629999943,119.69727629999943,119.69727629999943,119.69727629999943,,003,P014,2025_Feb_28_1610,ConditionRich,2021.2.3,59.914107136313426,
72.0,72.75,40,0.75,Stimuli/P014/things_woman_07s.jpg,0,0.0,0.0,0,35,35,35,,,,,,,,,,,,,72.01298479999969,0.012984799999685492,None,122.93345070000032,122.93345070000032,122.93345070000032,122.93345070000032,122.93345070000032,122.93345070000032,122.93345070000032,122.93345070000032,122.93345070000032,122.93345070000032,,003,P014,2025_Feb_28_1610,ConditionRich,2021.2.3,59.914107136313426,
72.75,76.0,41,0.0,Stimuli/Blank.png,1,2.25,3.0,0,36,36,36,,,,,,,,,,,,,72.76340429999982,0.013404299999820068,1,123.68411299999934,123.68411299999934,123.68411299999934,123.68411299999934,123.68411299999934,123.68411299999934,125.91941899999983,126.67009920000055,123.68411299999934,123.68411299999934,2.6009903000012855,003,P014,2025_Feb_28_1610,ConditionRich,2021.2.3,59.914107136313426,
76.0,76.75,32,0.75,Stimuli/P014/things_mistletoe_07s.jpg,0,0.0,0.0,0,37,37,37,,,,,,,,,,,,,75.9995584999997,-0.0004415000003064051,None,126.92081470000085,126.92081470000085,126.92081470000085,126.92081470000085,126.92081470000085,126.92081470000085,126.92081470000085,126.92081470000085,126.92081470000085,126.92081470000085,,003,P014,2025_Feb_28_1610,ConditionRich,2021.2.3,59.914107136313426,
76.75,80.0,41,0.0,Stimuli/Blank.png,0,0.0,0.0,0,38,38,38,,,,,,,,,,,,,76.7510129000002,0.0010129000002052635,None,127.67098070000065,127.67098070000065,127.67098070000065,127.67098070000065,127.67098070000065,127.67098070000065,127.67098070000065,127.67098070000065,127.67098070000065,127.67098070000065,,003,P014,2025_Feb_28_1610,ConditionRich,2021.2.3,59.914107136313426,
80.0,80.75,3,0.75,Stimuli/P014/sun_aengzsmykwchlrdn.jpg,0,0.0,0.0,0,39,39,39,,,,,,,,,,,,,80.0057424000006,0.005742400000599446,None,130.94054700000015,130.94054700000015,130.94054700000015,130.94054700000015,130.94054700000015,130.94054700000015,130.94054700000015,130.94054700000015,130.94054700000015,130.94054700000015,,003,P014,2025_Feb_28_1610,ConditionRich,2021.2.3,59.914107136313426,
80.75,84.0,41,0.0,Stimuli/Blank.png,1,2.25,3.0,0,40,40,40,,,,,,,,,,,,,80.7703464999995,0.020346499999504886,1,131.6912114000006,131.6912114000006,131.6912114000006,131.6912114000006,131.6912114000006,131.6912114000006,133.9265589000006,134.67723099999967,131.6912114000006,131.6912114000006,2.607850000000326,003,P014,2025_Feb_28_1610,ConditionRich,2021.2.3,59.914107136313426,
84.0,100.0,0,0.0,Stimuli/Blank.png,1,12.0,12.75,0,41,41,41,,,,,,,,,,,,,84.00694669999939,0.006946699999389239,1,134.9274065999998,134.9274065999998,134.9274065999998,134.9274065999998,134.9274065999998,134.9274065999998,146.90469190000113,147.65535190000082,134.9274065999998,134.9274065999998,12.296621000001323,003,P014,2025_Feb_28_1610,ConditionRich,2021.2.3,59.914107136313426,
100.0,100.75,6,0.75,Stimuli/P014/sun_aoejkkmwkfegacni.jpg,0,0.0,0.0,0,42,42,42,,,,,,,,,,,,,100.00693710000087,0.006937100000868668,None,150.94160080000074,150.94160080000074,150.94160080000074,150.94160080000074,150.94160080000074,150.94160080000074,150.94160080000074,150.94160080000074,150.94160080000074,150.94160080000074,,003,P014,2025_Feb_28_1610,ConditionRich,2021.2.3,59.914107136313426,
100.75,104.0,41,0.0,Stimuli/Blank.png,0,0.0,0.0,0,43,43,43,,,,,,,,,,,,,100.7719720999994,0.021972099999402417,None,151.69227060000048,151.69227060000048,151.69227060000048,151.69227060000048,151.69227060000048,151.69227060000048,151.69227060000048,151.69227060000048,151.69227060000048,151.69227060000048,,003,P014,2025_Feb_28_1610,ConditionRich,2021.2.3,59.914107136313426,
104.0,104.75,4,0.75,Stimuli/P014/sun_afgoiykvchxqotyz.jpg,0,0.0,0.0,0,44,44,44,,,,,,,,,,,,,104.00819729999967,0.00819729999966512,None,154.92845940000007,154.92845940000007,154.92845940000007,154.92845940000007,154.92845940000007,154.92845940000007,154.92845940000007,154.92845940000007,154.92845940000007,154.92845940000007,,003,P014,2025_Feb_28_1610,ConditionRich,2021.2.3,59.914107136313426,
104.75,108.0,41,0.0,Stimuli/Blank.png,1,1.25,2.0,0,45,45,45,,,,,,,,,,,,,104.75939669999934,0.009396699999342673,1,155.6791336999995,155.6791336999995,155.6791336999995,155.6791336999995,155.6791336999995,155.6791336999995,156.9135970999996,157.66418890000023,155.6791336999995,155.6791336999995,1.6039662000002863,003,P014,2025_Feb_28_1610,ConditionRich,2021.2.3,59.914107136313426,
108.0,108.75,21,0.75,Stimuli/P014/things_baby_07s.jpg,0,0.0,0.0,0,46,46,46,,,,,,,,,,,,,108.01220660000035,0.012206600000354229,None,158.94869860000108,158.94869860000108,158.94869860000108,158.94869860000108,158.94869860000108,158.94869860000108,158.94869860000108,158.94869860000108,158.94869860000108,158.94869860000108,,003,P014,2025_Feb_28_1610,ConditionRich,2021.2.3,59.914107136313426,
108.75,112.0,41,0.0,Stimuli/Blank.png,1,0.25,1.0,0,47,47,47,,,,,,,,,,,,,108.77878860000055,0.028788600000552833,1,159.69935459999942,159.69935459999942,159.69935459999942,159.69935459999942,159.69935459999942,159.69935459999942,159.93288399999983,160.6835542000008,159.69935459999942,159.69935459999942,0.7628089999998338,003,P014,2025_Feb_28_1610,ConditionRich,2021.2.3,59.914107136313426,
112.0,112.75,9,0.75,Stimuli/P014/sun_bdgwqzttihopmpbf.jpg,0,0.0,0.0,0,48,48,48,,,,,,,,,,,,,112.01528639999924,0.01528639999924053,None,162.95225179999943,162.95225179999943,162.95225179999943,162.95225179999943,162.95225179999943,162.95225179999943,162.95225179999943,162.95225179999943,162.95225179999943,162.95225179999943,,003,P014,2025_Feb_28_1610,ConditionRich,2021.2.3,59.914107136313426,
112.75,116.0,41,0.0,Stimuli/Blank.png,0,0.0,0.0,0,49,49,49,,,,,,,,,,,,,112.76798980000058,0.017989800000577816,None,163.70291550000002,163.70291550000002,163.70291550000002,163.70291550000002,163.70291550000002,163.70291550000002,163.70291550000002,163.70291550000002,163.70291550000002,163.70291550000002,,003,P014,2025_Feb_28_1610,ConditionRich,2021.2.3,59.914107136313426,
116.0,116.75,26,0.75,Stimuli/P014/things_cougar_07s.jpg,0,0.0,0.0,0,50,50,50,,,,,,,,,,,,,116.01814440000089,0.018144400000892347,None,166.93909929999973,166.93909929999973,166.93909929999973,166.93909929999973,166.93909929999973,166.93909929999973,166.93909929999973,166.93909929999973,166.93909929999973,166.93909929999973,,003,P014,2025_Feb_28_1610,ConditionRich,2021.2.3,59.914107136313426,
116.75,120.0,41,0.0,Stimuli/Blank.png,0,0.0,0.0,0,51,51,51,,,,,,,,,,,,,116.75246639999932,0.0024663999993208563,None,167.67308830000002,167.67308830000002,167.67308830000002,167.67308830000002,167.67308830000002,167.67308830000002,167.67308830000002,167.67308830000002,167.67308830000002,167.67308830000002,,003,P014,2025_Feb_28_1610,ConditionRich,2021.2.3,59.914107136313426,
120.0,120.75,1,0.75,Stimuli/P014/sun_adkmgqclfrkhfxbd.jpg,0,0.0,0.0,0,52,52,52,,,,,,,,,,,,,120.00547089999964,0.005470899999636458,None,170.92597690000002,170.92597690000002,170.92597690000002,170.92597690000002,170.92597690000002,170.92597690000002,170.92597690000002,170.92597690000002,170.92597690000002,170.92597690000002,,003,P014,2025_Feb_28_1610,ConditionRich,2021.2.3,59.914107136313426,
120.75,124.0,41,0.0,Stimuli/Blank.png,0,0.0,0.0,0,53,53,53,,,,,,,,,,,,,120.7561485999995,0.006148599999505677,None,171.6766993000001,171.6766993000001,171.6766993000001,171.6766993000001,171.6766993000001,171.6766993000001,171.6766993000001,171.6766993000001,171.6766993000001,171.6766993000001,,003,P014,2025_Feb_28_1610,ConditionRich,2021.2.3,59.914107136313426,
124.0,124.75,12,0.75,Stimuli/P014/sun_bjyrrxiwsnbmkbqs.jpg,1,0.0,0.75,0,54,54,54,,,,,,,,,,,,,124.00912860000062,0.0091286000006221,2,174.9295086000002,174.9295086000002,174.9295086000002,174.9295086000002,174.9295086000002,174.9295086000002,174.9295086000002,175.66355199999998,174.9295086000002,174.9295086000002,0.5675411000011081,003,P014,2025_Feb_28_1610,ConditionRich,2021.2.3,59.914107136313426,
124.75,128.0,41,0.0,Stimuli/Blank.png,0,0.0,0.0,0,55,55,55,,,,,,,,,,,,,124.7612253999996,0.011225399999602814,None,175.6968992000002,175.6968992000002,175.6968992000002,175.6968992000002,175.6968992000002,175.6968992000002,175.6968992000002,175.6968992000002,175.6968992000002,175.6968992000002,,003,P014,2025_Feb_28_1610,ConditionRich,2021.2.3,59.914107136313426,
128.0,128.75,13,0.75,Stimuli/P014/sun_bpccpwpohfirajtf.jpg,0,0.0,0.0,0,56,56,56,,,,,,,,,,,,,128.02937849999944,0.029378499999438645,None,178.94973500000015,178.94973500000015,178.94973500000015,178.94973500000015,178.94973500000015,178.94973500000015,178.94973500000015,178.94973500000015,178.94973500000015,178.94973500000015,,003,P014,2025_Feb_28_1610,ConditionRich,2021.2.3,59.914107136313426,
128.75,132.0,41,0.0,Stimuli/Blank.png,0,0.0,0.0,0,57,57,57,,,,,,,,,,,,,128.76291599999968,0.012915999999677297,None,179.6837725000005,179.6837725000005,179.6837725000005,179.6837725000005,179.6837725000005,179.6837725000005,179.6837725000005,179.6837725000005,179.6837725000005,179.6837725000005,,003,P014,2025_Feb_28_1610,ConditionRich,2021.2.3,59.914107136313426,
132.0,132.75,37,0.75,Stimuli/P014/things_slug_07s.jpg,0,0.0,0.0,0,58,58,58,,,,,,,,,,,,,132.00002689999928,2.6899999284069054e-05,None,182.93660070000078,182.93660070000078,182.93660070000078,182.93660070000078,182.93660070000078,182.93660070000078,182.93660070000078,182.93660070000078,182.93660070000078,182.93660070000078,,003,P014,2025_Feb_28_1610,ConditionRich,2021.2.3,59.914107136313426,
132.75,136.0,41,0.0,Stimuli/Blank.png,0,0.0,0.0,0,59,59,59,,,,,,,,,,,,,132.76733590000003,0.0173359000000346,None,183.68734869999935,183.68734869999935,183.68734869999935,183.68734869999935,183.68734869999935,183.68734869999935,183.68734869999935,183.68734869999935,183.68734869999935,183.68734869999935,,003,P014,2025_Feb_28_1610,ConditionRich,2021.2.3,59.914107136313426,
136.0,136.75,14,0.75,Stimuli/P014/sun_bqhfterhwnqrbnzg.jpg,1,0.0,0.75,0,60,60,60,,,,,,,,,,,,,136.00286570000026,0.0028657000002567656,1,186.9234722000001,186.9234722000001,186.9234722000001,186.9234722000001,186.9234722000001,186.9234722000001,186.9234722000001,187.6575087000001,186.9234722000001,186.9234722000001,0.40555769999991753,003,P014,2025_Feb_28_1610,ConditionRich,2021.2.3,59.914107136313426,
136.75,140.0,41,0.0,Stimuli/Blank.png,0,0.0,0.0,0,61,61,61,,,,,,,,,,,,,136.75424849999945,0.004248499999448541,None,187.67414740000095,187.67414740000095,187.67414740000095,187.67414740000095,187.67414740000095,187.67414740000095,187.67414740000095,187.67414740000095,187.67414740000095,187.67414740000095,,003,P014,2025_Feb_28_1610,ConditionRich,2021.2.3,59.914107136313426,
140.0,140.75,19,0.75,Stimuli/P014/sun_buphlelowxjnoygy.jpg,0,0.0,0.0,0,62,62,62,,,,,,,,,,,,,140.00619580000057,0.006195800000568852,None,190.92704740000045,190.92704740000045,190.92704740000045,190.92704740000045,190.92704740000045,190.92704740000045,190.92704740000045,190.92704740000045,190.92704740000045,190.92704740000045,,003,P014,2025_Feb_28_1610,ConditionRich,2021.2.3,59.914107136313426,
140.75,144.0,41,0.0,Stimuli/Blank.png,0,0.0,0.0,0,63,63,63,,,,,,,,,,,,,140.75687880000078,0.006878800000777119,None,191.67768679999972,191.67768679999972,191.67768679999972,191.67768679999972,191.67768679999972,191.67768679999972,191.67768679999972,191.67768679999972,191.67768679999972,191.67768679999972,,003,P014,2025_Feb_28_1610,ConditionRich,2021.2.3,59.914107136313426,
144.0,144.75,33,0.75,Stimuli/P014/things_piglet_07s.jpg,0,0.0,0.0,0,64,64,64,,,,,,,,,,,,,144.00952399999915,0.009523999999146326,None,194.93056609999985,194.93056609999985,194.93056609999985,194.93056609999985,194.93056609999985,194.93056609999985,194.93056609999985,194.93056609999985,194.93056609999985,194.93056609999985,,003,P014,2025_Feb_28_1610,ConditionRich,2021.2.3,59.914107136313426,
144.75,148.0,41,0.0,Stimuli/Blank.png,0,0.0,0.0,0,65,65,65,,,,,,,,,,,,,144.76106830000026,0.011068300000260933,None,195.68124080000052,195.68124080000052,195.68124080000052,195.68124080000052,195.68124080000052,195.68124080000052,195.68124080000052,195.68124080000052,195.68124080000052,195.68124080000052,,003,P014,2025_Feb_28_1610,ConditionRich,2021.2.3,59.914107136313426,
148.0,148.75,30,0.75,Stimuli/P014/things_man_07s.jpg,0,0.0,0.0,0,66,66,66,,,,,,,,,,,,,148.0136806999999,0.013680699999895296,None,198.95081109999956,198.95081109999956,198.95081109999956,198.95081109999956,198.95081109999956,198.95081109999956,198.95081109999956,198.95081109999956,198.95081109999956,198.95081109999956,,003,P014,2025_Feb_28_1610,ConditionRich,2021.2.3,59.914107136313426,
148.75,152.0,41,0.0,Stimuli/Blank.png,0,0.0,0.0,0,67,67,67,,,,,,,,,,,,,148.78062300000056,0.03062300000055984,None,199.70157330000075,199.70157330000075,199.70157330000075,199.70157330000075,199.70157330000075,199.70157330000075,199.70157330000075,199.70157330000075,199.70157330000075,199.70157330000075,,003,P014,2025_Feb_28_1610,ConditionRich,2021.2.3,59.914107136313426,
152.0,152.75,11,0.75,Stimuli/P014/sun_bfyxzbjsvqsobbky.jpg,0,0.0,0.0,0,68,68,68,,,,,,,,,,,,,152.00028980000025,0.00028980000024603214,None,202.92097060000015,202.92097060000015,202.92097060000015,202.92097060000015,202.92097060000015,202.92097060000015,202.92097060000015,202.92097060000015,202.92097060000015,202.92097060000015,,003,P014,2025_Feb_28_1610,ConditionRich,2021.2.3,59.914107136313426,
152.75,156.0,41,0.0,Stimuli/Blank.png,0,0.0,0.0,0,69,69,69,,,,,,,,,,,,,152.75137490000088,0.001374900000882917,None,203.67163970000001,203.67163970000001,203.67163970000001,203.67163970000001,203.67163970000001,203.67163970000001,203.67163970000001,203.67163970000001,203.67163970000001,203.67163970000001,,003,P014,2025_Feb_28_1610,ConditionRich,2021.2.3,59.914107136313426,
156.0,156.75,22,0.75,Stimuli/P014/things_banner_07s.jpg,0,0.0,0.0,0,70,70,70,,,,,,,,,,,,,156.0042582999995,0.00425829999949201,None,206.94120620000103,206.94120620000103,206.94120620000103,206.94120620000103,206.94120620000103,206.94120620000103,206.94120620000103,206.94120620000103,206.94120620000103,206.94120620000103,,003,P014,2025_Feb_28_1610,ConditionRich,2021.2.3,59.914107136313426,
156.75,160.0,41,0.0,Stimuli/Blank.png,1,2.25,3.0,0,71,71,71,,,,,,,,,,,,,156.77170750000005,0.02170750000004773,1,207.6918356999995,207.6918356999995,207.6918356999995,207.6918356999995,207.6918356999995,207.6918356999995,209.92717769999945,210.6779133,207.6918356999995,207.6918356999995,2.5823774999989837,003,P014,2025_Feb_28_1610,ConditionRich,2021.2.3,59.914107136313426,
160.0,160.75,10,0.75,Stimuli/P014/sun_bdhxnzyleoiflyak.jpg,0,0.0,0.0,0,72,72,72,,,,,,,,,,,,,160.0073425999999,0.007342599999901722,None,210.9447455999998,210.9447455999998,210.9447455999998,210.9447455999998,210.9447455999998,210.9447455999998,210.9447455999998,210.9447455999998,210.9447455999998,210.9447455999998,,003,P014,2025_Feb_28_1610,ConditionRich,2021.2.3,59.914107136313426,
160.75,164.0,41,0.0,Stimuli/Blank.png,0,0.0,0.0,0,73,73,73,,,,,,,,,,,,,160.7760001000006,0.02600010000060138,None,211.69542170000022,211.69542170000022,211.69542170000022,211.69542170000022,211.69542170000022,211.69542170000022,211.69542170000022,211.69542170000022,211.69542170000022,211.69542170000022,,003,P014,2025_Feb_28_1610,ConditionRich,2021.2.3,59.914107136313426,
164.0,164.75,16,0.75,Stimuli/P014/sun_bsgtkqjrnrvttrax.jpg,0,0.0,0.0,0,74,74,74,,,,,,,,,,,,,164.01145130000077,0.01145130000077188,None,214.948293200001,214.948293200001,214.948293200001,214.948293200001,214.948293200001,214.948293200001,214.948293200001,214.948293200001,214.948293200001,214.948293200001,,003,P014,2025_Feb_28_1610,ConditionRich,2021.2.3,59.914107136313426,
164.75,168.0,41,0.0,Stimuli/Blank.png,0,0.0,0.0,0,75,75,75,,,,,,,,,,,,,164.77869819999978,0.028698199999780627,None,215.69896830000107,215.69896830000107,215.69896830000107,215.69896830000107,215.69896830000107,215.69896830000107,215.69896830000107,215.69896830000107,215.69896830000107,215.69896830000107,,003,P014,2025_Feb_28_1610,ConditionRich,2021.2.3,59.914107136313426,
168.0,168.75,24,0.75,Stimuli/P014/things_bungee_07s.jpg,0,0.0,0.0,0,76,76,76,,,,,,,,,,,,,168.01772770000025,0.01772770000025048,None,218.95187050000095,218.95187050000095,218.95187050000095,218.95187050000095,218.95187050000095,218.95187050000095,218.95187050000095,218.95187050000095,218.95187050000095,218.95187050000095,,003,P014,2025_Feb_28_1610,ConditionRich,2021.2.3,59.914107136313426,
168.75,172.0,41,0.0,Stimuli/Blank.png,0,0.0,0.0,0,77,77,77,,,,,,,,,,,,,168.7675044000007,0.017504400000689202,None,219.70253890000095,219.70253890000095,219.70253890000095,219.70253890000095,219.70253890000095,219.70253890000095,219.70253890000095,219.70253890000095,219.70253890000095,219.70253890000095,,003,P014,2025_Feb_28_1610,ConditionRich,2021.2.3,59.914107136313426,
172.0,172.75,23,0.75,Stimuli/P014/things_bug_07s.jpg,0,0.0,0.0,0,78,78,78,,,,,,,,,,,,,172.01771139999983,0.017711399999825517,None,222.93869559999985,222.93869559999985,222.93869559999985,222.93869559999985,222.93869559999985,222.93869559999985,222.93869559999985,222.93869559999985,222.93869559999985,222.93869559999985,,003,P014,2025_Feb_28_1610,ConditionRich,2021.2.3,59.914107136313426,
172.75,176.0,41,0.0,Stimuli/Blank.png,0,0.0,0.0,0,79,79,79,,,,,,,,,,,,,172.75268759999926,0.002687599999262602,None,223.67271220000111,223.67271220000111,223.67271220000111,223.67271220000111,223.67271220000111,223.67271220000111,223.67271220000111,223.67271220000111,223.67271220000111,223.67271220000111,,003,P014,2025_Feb_28_1610,ConditionRich,2021.2.3,59.914107136313426,
176.0,176.75,20,0.75,Stimuli/P014/sun_cidodcxikcyrdglc.jpg,0,0.0,0.0,0,80,80,80,,,,,,,,,,,,,176.0054008999996,0.005400899999585818,None,226.92562270000053,226.92562270000053,226.92562270000053,226.92562270000053,226.92562270000053,226.92562270000053,226.92562270000053,226.92562270000053,226.92562270000053,226.92562270000053,,003,P014,2025_Feb_28_1610,ConditionRich,2021.2.3,59.914107136313426,
176.75,180.0,41,0.0,Stimuli/Blank.png,0,0.0,0.0,0,81,81,81,,,,,,,,,,,,,176.75664280000092,0.006642800000918214,None,227.67623719999938,227.67623719999938,227.67623719999938,227.67623719999938,227.67623719999938,227.67623719999938,227.67623719999938,227.67623719999938,227.67623719999938,227.67623719999938,,003,P014,2025_Feb_28_1610,ConditionRich,2021.2.3,59.914107136313426,
180.0,196.0,0,0.0,Stimuli/Blank.png,1,4.0,4.75,0,82,82,82,,,,,,,,,,,,,180.0081167999997,0.008116799999697832,1,230.92910870000014,230.92910870000014,230.92910870000014,230.92910870000014,230.92910870000014,230.92910870000014,234.91598180000074,235.66665599999942,230.92910870000014,230.92910870000014,4.354065499999706,003,P014,2025_Feb_28_1610,ConditionRich,2021.2.3,59.914107136313426,
196.0,196.75,31,0.75,Stimuli/P014/things_mask_07s.jpg,0,0.0,0.0,0,83,83,83,,,,,,,,,,,,,196.00672850000046,0.0067285000004631,None,246.94330020000052,246.94330020000052,246.94330020000052,246.94330020000052,246.94330020000052,246.94330020000052,246.94330020000052,246.94330020000052,246.94330020000052,246.94330020000052,,003,P014,2025_Feb_28_1610,ConditionRich,2021.2.3,59.914107136313426,
196.75,200.0,41,0.0,Stimuli/Blank.png,1,2.25,3.0,0,84,84,84,,,,,,,,,,,,,196.7736891000004,0.02368910000041069,None,247.69396199999937,247.69396199999937,247.69396199999937,247.69396199999937,247.69396199999937,247.69396199999937,249.92927260000033,250.6799948000007,247.69396199999937,247.69396199999937,,003,P014,2025_Feb_28_1610,ConditionRich,2021.2.3,59.914107136313426,
200.0,200.75,15,0.75,Stimuli/P014/sun_brezwczwwllviogu.jpg,0,0.0,0.0,0,85,85,85,,,,,,,,,,,,,200.01174189999983,0.01174189999983355,None,250.94683720000103,250.94683720000103,250.94683720000103,250.94683720000103,250.94683720000103,250.94683720000103,250.94683720000103,250.94683720000103,250.94683720000103,250.94683720000103,,003,P014,2025_Feb_28_1610,ConditionRich,2021.2.3,59.914107136313426,
200.75,204.0,41,0.0,Stimuli/Blank.png,0,0.0,0.0,0,86,86,86,,,,,,,,,,,,,200.77720799999952,0.027207999999518506,None,251.6975198,251.6975198,251.6975198,251.6975198,251.6975198,251.6975198,251.6975198,251.6975198,251.6975198,251.6975198,,003,P014,2025_Feb_28_1610,ConditionRich,2021.2.3,59.914107136313426,
204.0,204.75,16,0.75,Stimuli/P014/sun_bsgtkqjrnrvttrax.jpg,0,0.0,0.0,0,87,87,87,,,,,,,,,,,,,204.01270060000024,0.012700600000243867,None,254.93371190000107,254.93371190000107,254.93371190000107,254.93371190000107,254.93371190000107,254.93371190000107,254.93371190000107,254.93371190000107,254.93371190000107,254.93371190000107,,003,P014,2025_Feb_28_1610,ConditionRich,2021.2.3,59.914107136313426,
204.75,208.0,41,0.0,Stimuli/Blank.png,0,0.0,0.0,0,88,88,88,,,,,,,,,,,,,204.76333739999973,0.013337399999727495,None,255.68436760000077,255.68436760000077,255.68436760000077,255.68436760000077,255.68436760000077,255.68436760000077,255.68436760000077,255.68436760000077,255.68436760000077,255.68436760000077,,003,P014,2025_Feb_28_1610,ConditionRich,2021.2.3,59.914107136313426,
208.0,208.75,3,0.75,Stimuli/P014/sun_aengzsmykwchlrdn.jpg,0,0.0,0.0,0,89,89,89,,,,,,,,,,,,,207.9997719999992,-0.0002280000007885974,None,258.93725489999997,258.93725489999997,258.93725489999997,258.93725489999997,258.93725489999997,258.93725489999997,258.93725489999997,258.93725489999997,258.93725489999997,258.93725489999997,,003,P014,2025_Feb_28_1610,ConditionRich,2021.2.3,59.914107136313426,
208.75,212.0,41,0.0,Stimuli/Blank.png,0,0.0,0.0,0,90,90,90,,,,,,,,,,,,,208.7672423999993,0.017242399999304325,None,259.687922000001,259.687922000001,259.687922000001,259.687922000001,259.687922000001,259.687922000001,259.687922000001,259.687922000001,259.687922000001,259.687922000001,,003,P014,2025_Feb_28_1610,ConditionRich,2021.2.3,59.914107136313426,
212.0,212.75,29,0.75,Stimuli/P014/things_iguana_07s.jpg,0,0.0,0.0,0,91,91,91,,,,,,,,,,,,,212.0032984999998,0.003298499999800697,None,262.9241127999994,262.9241127999994,262.9241127999994,262.9241127999994,262.9241127999994,262.9241127999994,262.9241127999994,262.9241127999994,262.9241127999994,262.9241127999994,,003,P014,2025_Feb_28_1610,ConditionRich,2021.2.3,59.914107136313426,
212.75,216.0,41,0.0,Stimuli/Blank.png,0,0.0,0.0,0,92,92,92,,,,,,,,,,,,,212.75492450000093,0.004924500000925036,None,263.6747799999994,263.6747799999994,263.6747799999994,263.6747799999994,263.6747799999994,263.6747799999994,263.6747799999994,263.6747799999994,263.6747799999994,263.6747799999994,,003,P014,2025_Feb_28_1610,ConditionRich,2021.2.3,59.914107136313426,
216.0,216.75,25,0.75,Stimuli/P014/things_cashew_07s.jpg,0,0.0,0.0,0,93,93,93,,,,,,,,,,,,,216.0072928999998,0.007292899999811198,None,266.9276571999999,266.9276571999999,266.9276571999999,266.9276571999999,266.9276571999999,266.9276571999999,266.9276571999999,266.9276571999999,266.9276571999999,266.9276571999999,,003,P014,2025_Feb_28_1610,ConditionRich,2021.2.3,59.914107136313426,
216.75,220.0,41,0.0,Stimuli/Blank.png,0,0.0,0.0,0,94,94,94,,,,,,,,,,,,,216.75807779999923,0.008077799999227864,None,267.6783240999994,267.6783240999994,267.6783240999994,267.6783240999994,267.6783240999994,267.6783240999994,267.6783240999994,267.6783240999994,267.6783240999994,267.6783240999994,,003,P014,2025_Feb_28_1610,ConditionRich,2021.2.3,59.914107136313426,
220.0,220.75,26,0.75,Stimuli/P014/things_cougar_07s.jpg,0,0.0,0.0,0,95,95,95,,,,,,,,,,,,,220.0107680000001,0.010768000000098255,None,270.93120760000056,270.93120760000056,270.93120760000056,270.93120760000056,270.93120760000056,270.93120760000056,270.93120760000056,270.93120760000056,270.93120760000056,270.93120760000056,,003,P014,2025_Feb_28_1610,ConditionRich,2021.2.3,59.914107136313426,
220.75,224.0,41,0.0,Stimuli/Blank.png,0,0.0,0.0,0,96,96,96,,,,,,,,,,,,,220.7639818000007,0.013981800000692601,None,271.69856849999996,271.69856849999996,271.69856849999996,271.69856849999996,271.69856849999996,271.69856849999996,271.69856849999996,271.69856849999996,271.69856849999996,271.69856849999996,,003,P014,2025_Feb_28_1610,ConditionRich,2021.2.3,59.914107136313426,
224.0,224.75,21,0.75,Stimuli/P014/things_baby_07s.jpg,0,0.0,0.0,0,97,97,97,,,,,,,,,,,,,224.01529619999928,0.015296199999284,None,274.9514371000005,274.9514371000005,274.9514371000005,274.9514371000005,274.9514371000005,274.9514371000005,274.9514371000005,274.9514371000005,274.9514371000005,274.9514371000005,,003,P014,2025_Feb_28_1610,ConditionRich,2021.2.3,59.914107136313426,
224.75,228.0,41,0.0,Stimuli/Blank.png,0,0.0,0.0,0,98,98,98,,,,,,,,,,,,,224.76468659999955,0.014686599999549799,None,275.68542069999967,275.68542069999967,275.68542069999967,275.68542069999967,275.68542069999967,275.68542069999967,275.68542069999967,275.68542069999967,275.68542069999967,275.68542069999967,,003,P014,2025_Feb_28_1610,ConditionRich,2021.2.3,59.914107136313426,
228.0,228.75,4,0.75,Stimuli/P014/sun_afgoiykvchxqotyz.jpg,0,0.0,0.0,0,99,99,99,,,,,,,,,,,,,228.00094969999918,0.000949699999182485,None,278.9216286999999,278.9216286999999,278.9216286999999,278.9216286999999,278.9216286999999,278.9216286999999,278.9216286999999,278.9216286999999,278.9216286999999,278.9216286999999,,003,P014,2025_Feb_28_1610,ConditionRich,2021.2.3,59.914107136313426,
228.75,232.0,41,0.0,Stimuli/Blank.png,0,0.0,0.0,0,100,100,100,,,,,,,,,,,,,228.75396270000056,0.0039627000005566515,None,279.68897579999975,279.68897579999975,279.68897579999975,279.68897579999975,279.68897579999975,279.68897579999975,279.68897579999975,279.68897579999975,279.68897579999975,279.68897579999975,,003,P014,2025_Feb_28_1610,ConditionRich,2021.2.3,59.914107136313426,
232.0,232.75,37,0.75,Stimuli/P014/things_slug_07s.jpg,0,0.0,0.0,0,101,101,101,,,,,,,,,,,,,232.02160379999987,0.02160379999986617,None,282.9585353000002,282.9585353000002,282.9585353000002,282.9585353000002,282.9585353000002,282.9585353000002,282.9585353000002,282.9585353000002,282.9585353000002,282.9585353000002,,003,P014,2025_Feb_28_1610,ConditionRich,2021.2.3,59.914107136313426,
232.75,236.0,41,0.0,Stimuli/Blank.png,0,0.0,0.0,0,102,102,102,,,,,,,,,,,,,232.77241259999937,0.022412599999370286,None,283.6925185,283.6925185,283.6925185,283.6925185,283.6925185,283.6925185,283.6925185,283.6925185,283.6925185,283.6925185,,003,P014,2025_Feb_28_1610,ConditionRich,2021.2.3,59.914107136313426,
236.0,236.75,35,0.75,Stimuli/P014/things_road_sign_07s.jpg,0,0.0,0.0,0,103,103,103,,,,,,,,,,,,,236.0084437000005,0.008443700000498211,None,286.9453996000011,286.9453996000011,286.9453996000011,286.9453996000011,286.9453996000011,286.9453996000011,286.9453996000011,286.9453996000011,286.9453996000011,286.9453996000011,,003,P014,2025_Feb_28_1610,ConditionRich,2021.2.3,59.914107136313426,
236.75,240.0,41,0.0,Stimuli/Blank.png,0,0.0,0.0,0,104,104,104,,,,,,,,,,,,,236.77519089999987,0.025190899999870453,None,287.696064400001,287.696064400001,287.696064400001,287.696064400001,287.696064400001,287.696064400001,287.696064400001,287.696064400001,287.696064400001,287.696064400001,,003,P014,2025_Feb_28_1610,ConditionRich,2021.2.3,59.914107136313426,
240.0,240.75,1,0.75,Stimuli/P014/sun_adkmgqclfrkhfxbd.jpg,0,0.0,0.0,0,105,105,105,,,,,,,,,,,,,240.0126493000007,0.012649300000703079,None,290.9489437000011,290.9489437000011,290.9489437000011,290.9489437000011,290.9489437000011,290.9489437000011,290.9489437000011,290.9489437000011,290.9489437000011,290.9489437000011,,003,P014,2025_Feb_28_1610,ConditionRich,2021.2.3,59.914107136313426,
240.75,244.0,41,0.0,Stimuli/Blank.png,0,0.0,0.0,0,106,106,106,,,,,,,,,,,,,240.77969809999922,0.029698099999222904,None,291.69961610000064,291.69961610000064,291.69961610000064,291.69961610000064,291.69961610000064,291.69961610000064,291.69961610000064,291.69961610000064,291.69961610000064,291.69961610000064,,003,P014,2025_Feb_28_1610,ConditionRich,2021.2.3,59.914107136313426,
244.0,244.75,32,0.75,Stimuli/P014/things_mistletoe_07s.jpg,0,0.0,0.0,0,107,107,107,,,,,,,,,,,,,243.99907600000006,-0.000923999999940861,None,294.93582830000014,294.93582830000014,294.93582830000014,294.93582830000014,294.93582830000014,294.93582830000014,294.93582830000014,294.93582830000014,294.93582830000014,294.93582830000014,,003,P014,2025_Feb_28_1610,ConditionRich,2021.2.3,59.914107136313426,
244.75,248.0,41,0.0,Stimuli/Blank.png,1,2.25,3.0,0,108,108,108,,,,,,,,,,,,,244.7659721,0.015972099999999045,None,295.68653670000094,295.68653670000094,295.68653670000094,295.68653670000094,295.68653670000094,295.68653670000094,297.9217718,298.6724869999998,295.68653670000094,295.68653670000094,,003,P014,2025_Feb_28_1610,ConditionRich,2021.2.3,59.914107136313426,
248.0,248.75,9,0.75,Stimuli/P014/sun_bdgwqzttihopmpbf.jpg,0,0.0,0.0,0,109,109,109,,,,,,,,,,,,,248.00429040000017,0.004290400000172667,None,298.93936100000064,298.93936100000064,298.93936100000064,298.93936100000064,298.93936100000064,298.93936100000064,298.93936100000064,298.93936100000064,298.93936100000064,298.93936100000064,,003,P014,2025_Feb_28_1610,ConditionRich,2021.2.3,59.914107136313426,
248.75,252.0,41,0.0,Stimuli/Blank.png,0,0.0,0.0,0,110,110,110,,,,,,,,,,,,,248.76942749999944,0.019427499999437714,None,299.6900024000006,299.6900024000006,299.6900024000006,299.6900024000006,299.6900024000006,299.6900024000006,299.6900024000006,299.6900024000006,299.6900024000006,299.6900024000006,,003,P014,2025_Feb_28_1610,ConditionRich,2021.2.3,59.914107136313426,
252.0,252.75,22,0.75,Stimuli/P014/things_banner_07s.jpg,0,0.0,0.0,0,111,111,111,,,,,,,,,,,,,252.00578189999942,0.005781899999419693,None,302.92620720000014,302.92620720000014,302.92620720000014,302.92620720000014,302.92620720000014,302.92620720000014,302.92620720000014,302.92620720000014,302.92620720000014,302.92620720000014,,003,P014,2025_Feb_28_1610,ConditionRich,2021.2.3,59.914107136313426,
252.75,256.0,41,0.0,Stimuli/Blank.png,0,0.0,0.0,0,112,112,112,,,,,,,,,,,,,252.75663340000028,0.006633400000282563,None,303.67687130000013,303.67687130000013,303.67687130000013,303.67687130000013,303.67687130000013,303.67687130000013,303.67687130000013,303.67687130000013,303.67687130000013,303.67687130000013,,003,P014,2025_Feb_28_1610,ConditionRich,2021.2.3,59.914107136313426,
256.0,256.75,5,0.75,Stimuli/P014/sun_aidrxvbfhxtsusrf.jpg,0,0.0,0.0,0,113,113,113,,,,,,,,,,,,,256.0099594000003,0.009959400000298047,None,306.9464375000007,306.9464375000007,306.9464375000007,306.9464375000007,306.9464375000007,306.9464375000007,306.9464375000007,306.9464375000007,306.9464375000007,306.9464375000007,,003,P014,2025_Feb_28_1610,ConditionRich,2021.2.3,59.914107136313426,
256.75,260.0,41,0.0,Stimuli/Blank.png,0,0.0,0.0,0,114,114,114,,,,,,,,,,,,,256.77673590000086,0.026735900000858237,None,307.6971009000008,307.6971009000008,307.6971009000008,307.6971009000008,307.6971009000008,307.6971009000008,307.6971009000008,307.6971009000008,307.6971009000008,307.6971009000008,,003,P014,2025_Feb_28_1610,ConditionRich,2021.2.3,59.914107136313426,
260.0,260.75,8,0.75,Stimuli/P014/sun_auqrilekgmdmrncq.jpg,0,0.0,0.0,0,115,115,115,,,,,,,,,,,,,260.0147653999993,0.014765399999305373,None,310.94998810000106,310.94998810000106,310.94998810000106,310.94998810000106,310.94998810000106,310.94998810000106,310.94998810000106,310.94998810000106,310.94998810000106,310.94998810000106,,003,P014,2025_Feb_28_1610,ConditionRich,2021.2.3,59.914107136313426,
260.75,264.0,41,0.0,Stimuli/Blank.png,1,2.25,3.0,0,116,116,116,,,,,,,,,,,,,260.7803093000002,0.030309300000226358,1,311.70064719999937,311.70064719999937,311.70064719999937,311.70064719999937,311.70064719999937,311.70064719999937,313.9359571999994,314.6866683999997,311.70064719999937,311.70064719999937,2.663592199998675,003,P014,2025_Feb_28_1610,ConditionRich,2021.2.3,59.914107136313426,
264.0,264.75,38,0.75,Stimuli/P014/things_spark_plug_07s.jpg,0,0.0,0.0,0,117,117,117,,,,,,,,,,,,,264.0012836999995,0.0012836999994760845,None,314.9368465999996,314.9368465999996,314.9368465999996,314.9368465999996,314.9368465999996,314.9368465999996,314.9368465999996,314.9368465999996,314.9368465999996,314.9368465999996,,003,P014,2025_Feb_28_1610,ConditionRich,2021.2.3,59.914107136313426,
264.75,268.0,41,0.0,Stimuli/Blank.png,0,0.0,0.0,0,118,118,118,,,,,,,,,,,,,264.7665950999999,0.01659509999990405,None,315.6875498999998,315.6875498999998,315.6875498999998,315.6875498999998,315.6875498999998,315.6875498999998,315.6875498999998,315.6875498999998,315.6875498999998,315.6875498999998,,003,P014,2025_Feb_28_1610,ConditionRich,2021.2.3,59.914107136313426,
268.0,268.75,19,0.75,Stimuli/P014/sun_buphlelowxjnoygy.jpg,0,0.0,0.0,0,119,119,119,,,,,,,,,,,,,268.0027467,0.0027466999999887776,None,318.9237054000005,318.9237054000005,318.9237054000005,318.9237054000005,318.9237054000005,318.9237054000005,318.9237054000005,318.9237054000005,318.9237054000005,318.9237054000005,,003,P014,2025_Feb_28_1610,ConditionRich,2021.2.3,59.914107136313426,
268.75,272.0,41,0.0,Stimuli/Blank.png,1,0.25,1.0,0,120,120,120,,,,,,,,,,,,,268.7541540000002,0.004154000000198721,None,319.6744553000008,319.6744553000008,319.6744553000008,319.6744553000008,319.6744553000008,319.6744553000008,319.90791660000104,320.6585692000008,319.6744553000008,319.6744553000008,,003,P014,2025_Feb_28_1610,ConditionRich,2021.2.3,59.914107136313426,
272.0,272.75,30,0.75,Stimuli/P014/things_man_07s.jpg,0,0.0,0.0,0,121,121,121,,,,,,,,,,,,,272.0070001999993,0.0070001999993110076,None,322.94396700000107,322.94396700000107,322.94396700000107,322.94396700000107,322.94396700000107,322.94396700000107,322.94396700000107,322.94396700000107,322.94396700000107,322.94396700000107,,003,P014,2025_Feb_28_1610,ConditionRich,2021.2.3,59.914107136313426,
272.75,276.0,41,0.0,Stimuli/Blank.png,0,0.0,0.0,0,122,122,122,,,,,,,,,,,,,272.77360840000074,0.023608400000739493,None,323.6945986999999,323.6945986999999,323.6945986999999,323.6945986999999,323.6945986999999,323.6945986999999,323.6945986999999,323.6945986999999,323.6945986999999,323.6945986999999,,003,P014,2025_Feb_28_1610,ConditionRich,2021.2.3,59.914107136313426,
276.0,292.0,0,0.0,Stimuli/Blank.png,1,10.0,10.75,0,123,123,123,,,,,,,,,,,,,276.01013240000066,0.010132400000657071,1,326.9307872999998,326.9307872999998,326.9307872999998,326.9307872999998,326.9307872999998,326.9307872999998,336.92297660000077,337.6737019000011,326.9307872999998,326.9307872999998,10.34850809999989,003,P014,2025_Feb_28_1610,ConditionRich,2021.2.3,59.914107136313426,
292.0,292.75,13,0.75,Stimuli/P014/sun_bpccpwpohfirajtf.jpg,1,0.0,0.75,0,124,124,124,,,,,,,,,,,,,292.0081494999995,0.008149499999490217,None,342.9283034,342.9283034,342.9283034,342.9283034,342.9283034,342.9283034,342.9283034,343.6623249000004,342.9283034,342.9283034,,003,P014,2025_Feb_28_1610,ConditionRich,2021.2.3,59.914107136313426,
292.75,296.0,41,0.0,Stimuli/Blank.png,0,0.0,0.0,0,125,125,125,,,,,,,,,,,,,292.7597507999999,0.009750799999892479,1,343.67897170000106,343.67897170000106,343.67897170000106,343.67897170000106,343.67897170000106,343.67897170000106,343.67897170000106,343.67897170000106,343.67897170000106,343.67897170000106,0.31836589999875287,003,P014,2025_Feb_28_1610,ConditionRich,2021.2.3,59.914107136313426,
296.0,296.75,40,0.75,Stimuli/P014/things_woman_07s.jpg,0,0.0,0.0,0,126,126,126,,,,,,,,,,,,,296.01113740000073,0.011137400000734488,None,346.9318370000001,346.9318370000001,346.9318370000001,346.9318370000001,346.9318370000001,346.9318370000001,346.9318370000001,346.9318370000001,346.9318370000001,346.9318370000001,,003,P014,2025_Feb_28_1610,ConditionRich,2021.2.3,59.914107136313426,
296.75,300.0,41,0.0,Stimuli/Blank.png,0,0.0,0.0,0,127,127,127,,,,,,,,,,,,,296.76222530000086,0.012225300000864081,None,347.6824966000004,347.6824966000004,347.6824966000004,347.6824966000004,347.6824966000004,347.6824966000004,347.6824966000004,347.6824966000004,347.6824966000004,347.6824966000004,,003,P014,2025_Feb_28_1610,ConditionRich,2021.2.3,59.914107136313426,
300.0,300.75,18,0.75,Stimuli/P014/sun_btohwudpiusfvpvl.jpg,0,0.0,0.0,0,128,128,128,,,,,,,,,,,,,300.0150343000005,0.015034300000479561,None,350.9353798000011,350.9353798000011,350.9353798000011,350.9353798000011,350.9353798000011,350.9353798000011,350.9353798000011,350.9353798000011,350.9353798000011,350.9353798000011,,003,P014,2025_Feb_28_1610,ConditionRich,2021.2.3,59.914107136313426,
300.75,304.0,41,0.0,Stimuli/Blank.png,0,0.0,0.0,0,129,129,129,,,,,,,,,,,,,300.74940330000027,-0.0005966999997326639,None,351.6693739000002,351.6693739000002,351.6693739000002,351.6693739000002,351.6693739000002,351.6693739000002,351.6693739000002,351.6693739000002,351.6693739000002,351.6693739000002,,003,P014,2025_Feb_28_1610,ConditionRich,2021.2.3,59.914107136313426,
304.0,304.75,12,0.75,Stimuli/P014/sun_bjyrrxiwsnbmkbqs.jpg,0,0.0,0.0,0,130,130,130,,,,,,,,,,,,,304.00218440000026,0.0021844000002602115,None,354.9222539000002,354.9222539000002,354.9222539000002,354.9222539000002,354.9222539000002,354.9222539000002,354.9222539000002,354.9222539000002,354.9222539000002,354.9222539000002,,003,P014,2025_Feb_28_1610,ConditionRich,2021.2.3,59.914107136313426,
304.75,308.0,41,0.0,Stimuli/Blank.png,1,1.25,2.0,0,131,131,131,,,,,,,,,,,,,304.75512680000065,0.00512680000065302,1,355.68961370000034,355.68961370000034,355.68961370000034,355.68961370000034,355.68961370000034,355.68961370000034,356.92401729999983,357.67470030000004,355.68961370000034,355.68961370000034,2.1197009999996226,003,P014,2025_Feb_28_1610,ConditionRich,2021.2.3,59.914107136313426,
308.0,308.75,36,0.75,Stimuli/P014/things_seafood_07s.jpg,0,0.0,0.0,0,132,132,132,,,,,,,,,,,,,308.02179199999955,0.02179199999955017,None,358.94247069999983,358.94247069999983,358.94247069999983,358.94247069999983,358.94247069999983,358.94247069999983,358.94247069999983,358.94247069999983,358.94247069999983,358.94247069999983,,003,P014,2025_Feb_28_1610,ConditionRich,2021.2.3,59.914107136313426,
308.75,312.0,41,0.0,Stimuli/Blank.png,0,0.0,0.0,0,133,133,133,,,,,,,,,,,,,308.7563360000004,0.006336000000374042,None,359.67645860000084,359.67645860000084,359.67645860000084,359.67645860000084,359.67645860000084,359.67645860000084,359.67645860000084,359.67645860000084,359.67645860000084,359.67645860000084,,003,P014,2025_Feb_28_1610,ConditionRich,2021.2.3,59.914107136313426,
312.0,312.75,34,0.75,Stimuli/P014/things_radio_07s.jpg,0,0.0,0.0,0,134,134,134,,,,,,,,,,,,,312.0089466999998,0.008946699999796692,None,362.9294523999997,362.9294523999997,362.9294523999997,362.9294523999997,362.9294523999997,362.9294523999997,362.9294523999997,362.9294523999997,362.9294523999997,362.9294523999997,,003,P014,2025_Feb_28_1610,ConditionRich,2021.2.3,59.914107136313426,
312.75,316.0,41,0.0,Stimuli/Blank.png,0,0.0,0.0,0,135,135,135,,,,,,,,,,,,,312.75914530000045,0.009145300000454881,None,363.67999729999974,363.67999729999974,363.67999729999974,363.67999729999974,363.67999729999974,363.67999729999974,363.67999729999974,363.67999729999974,363.67999729999974,363.67999729999974,,003,P014,2025_Feb_28_1610,ConditionRich,2021.2.3,59.914107136313426,
316.0,316.75,7,0.75,Stimuli/P014/sun_aojplsluiikxrfxc.jpg,0,0.0,0.0,0,136,136,136,,,,,,,,,,,,,316.0124544999999,0.012454499999876134,None,366.93287220000093,366.93287220000093,366.93287220000093,366.93287220000093,366.93287220000093,366.93287220000093,366.93287220000093,366.93287220000093,366.93287220000093,366.93287220000093,,003,P014,2025_Feb_28_1610,ConditionRich,2021.2.3,59.914107136313426,
316.75,320.0,41,0.0,Stimuli/Blank.png,0,0.0,0.0,0,137,137,137,,,,,,,,,,,,,316.7632295000003,0.01322950000030687,None,367.6835460000002,367.6835460000002,367.6835460000002,367.6835460000002,367.6835460000002,367.6835460000002,367.6835460000002,367.6835460000002,367.6835460000002,367.6835460000002,,003,P014,2025_Feb_28_1610,ConditionRich,2021.2.3,59.914107136313426,
320.0,320.75,14,0.75,Stimuli/P014/sun_bqhfterhwnqrbnzg.jpg,0,0.0,0.0,0,138,138,138,,,,,,,,,,,,,320.00024549999944,0.0002454999994370155,None,370.9364263999996,370.9364263999996,370.9364263999996,370.9364263999996,370.9364263999996,370.9364263999996,370.9364263999996,370.9364263999996,370.9364263999996,370.9364263999996,,003,P014,2025_Feb_28_1610,ConditionRich,2021.2.3,59.914107136313426,
320.75,324.0,41,0.0,Stimuli/Blank.png,0,0.0,0.0,0,139,139,139,,,,,,,,,,,,,320.76750510000056,0.01750510000056238,None,371.68710400000055,371.68710400000055,371.68710400000055,371.68710400000055,371.68710400000055,371.68710400000055,371.68710400000055,371.68710400000055,371.68710400000055,371.68710400000055,,003,P014,2025_Feb_28_1610,ConditionRich,2021.2.3,59.914107136313426,
324.0,324.75,39,0.75,Stimuli/P014/things_violin_07n.jpg,0,0.0,0.0,0,140,140,140,,,,,,,,,,,,,324.0022621999997,0.00226219999967725,None,374.9232862000008,374.9232862000008,374.9232862000008,374.9232862000008,374.9232862000008,374.9232862000008,374.9232862000008,374.9232862000008,374.9232862000008,374.9232862000008,,003,P014,2025_Feb_28_1610,ConditionRich,2021.2.3,59.914107136313426,
324.75,328.0,41,0.0,Stimuli/Blank.png,0,0.0,0.0,0,141,141,141,,,,,,,,,,,,,324.75298590000057,0.0029859000005671987,None,375.6739481000004,375.6739481000004,375.6739481000004,375.6739481000004,375.6739481000004,375.6739481000004,375.6739481000004,375.6739481000004,375.6739481000004,375.6739481000004,,003,P014,2025_Feb_28_1610,ConditionRich,2021.2.3,59.914107136313426,
328.0,328.75,33,0.75,Stimuli/P014/things_piglet_07s.jpg,0,0.0,0.0,0,142,142,142,,,,,,,,,,,,,328.00834439999926,0.008344399999259622,None,378.94351970000025,378.94351970000025,378.94351970000025,378.94351970000025,378.94351970000025,378.94351970000025,378.94351970000025,378.94351970000025,378.94351970000025,378.94351970000025,,003,P014,2025_Feb_28_1610,ConditionRich,2021.2.3,59.914107136313426,
328.75,332.0,41,0.0,Stimuli/Blank.png,0,0.0,0.0,0,143,143,143,,,,,,,,,,,,,328.7733124000006,0.023312400000577327,None,379.6941772000009,379.6941772000009,379.6941772000009,379.6941772000009,379.6941772000009,379.6941772000009,379.6941772000009,379.6941772000009,379.6941772000009,379.6941772000009,,003,P014,2025_Feb_28_1610,ConditionRich,2021.2.3,59.914107136313426,
332.0,332.75,17,0.75,Stimuli/P014/sun_bsguftphqnrkbedw.jpg,0,0.0,0.0,0,144,144,144,,,,,,,,,,,,,332.0103663000009,0.010366300000896445,None,382.94706960000076,382.94706960000076,382.94706960000076,382.94706960000076,382.94706960000076,382.94706960000076,382.94706960000076,382.94706960000076,382.94706960000076,382.94706960000076,,003,P014,2025_Feb_28_1610,ConditionRich,2021.2.3,59.914107136313426,
332.75,336.0,41,0.0,Stimuli/Blank.png,0,0.0,0.0,0,145,145,145,,,,,,,,,,,,,332.77744370000073,0.02744370000073104,None,383.69771910000054,383.69771910000054,383.69771910000054,383.69771910000054,383.69771910000054,383.69771910000054,383.69771910000054,383.69771910000054,383.69771910000054,383.69771910000054,,003,P014,2025_Feb_28_1610,ConditionRich,2021.2.3,59.914107136313426,
336.0,336.75,27,0.75,Stimuli/P014/things_face_07s.jpg,0,0.0,0.0,0,146,146,146,,,,,,,,,,,,,336.01575050000065,0.01575050000064948,None,386.95063560000017,386.95063560000017,386.95063560000017,386.95063560000017,386.95063560000017,386.95063560000017,386.95063560000017,386.95063560000017,386.95063560000017,386.95063560000017,,003,P014,2025_Feb_28_1610,ConditionRich,2021.2.3,59.914107136313426,
336.75,340.0,41,0.0,Stimuli/Blank.png,1,0.25,1.0,0,147,147,147,,,,,,,,,,,,,336.76526919999924,0.01526919999923848,None,387.68459970000004,387.68459970000004,387.68459970000004,387.68459970000004,387.68459970000004,387.68459970000004,387.9348057999996,388.68548480000027,387.68459970000004,387.68459970000004,,003,P014,2025_Feb_28_1610,ConditionRich,2021.2.3,59.914107136313426,
340.0,340.75,2,0.75,Stimuli/P014/sun_adotnsaifoooswkf.jpg,0,0.0,0.0,0,148,148,148,,,,,,,,,,,,,340.0007958999995,0.0007958999995025806,None,390.93746889999966,390.93746889999966,390.93746889999966,390.93746889999966,390.93746889999966,390.93746889999966,390.93746889999966,390.93746889999966,390.93746889999966,390.93746889999966,,003,P014,2025_Feb_28_1610,ConditionRich,2021.2.3,59.914107136313426,
340.75,344.0,41,0.0,Stimuli/Blank.png,1,0.25,1.0,0,149,149,149,,,,,,,,,,,,,340.76721519999955,0.017215199999554898,None,391.68813670000054,391.68813670000054,391.68813670000054,391.68813670000054,391.68813670000054,391.68813670000054,391.9217126000003,392.6724441999995,391.68813670000054,391.68813670000054,,003,P014,2025_Feb_28_1610,ConditionRich,2021.2.3,59.914107136313426,
344.0,344.75,11,0.75,Stimuli/P014/sun_bfyxzbjsvqsobbky.jpg,0,0.0,0.0,0,150,150,150,,,,,,,,,,,,,344.0043311999998,0.004331199999796809,None,394.94101090000004,394.94101090000004,394.94101090000004,394.94101090000004,394.94101090000004,394.94101090000004,394.94101090000004,394.94101090000004,394.94101090000004,394.94101090000004,,003,P014,2025_Feb_28_1610,ConditionRich,2021.2.3,59.914107136313426,
344.75,348.0,41,0.0,Stimuli/Blank.png,0,0.0,0.0,0,151,151,151,,,,,,,,,,,,,344.77081870000075,0.020818700000745594,None,395.6916741999994,395.6916741999994,395.6916741999994,395.6916741999994,395.6916741999994,395.6916741999994,395.6916741999994,395.6916741999994,395.6916741999994,395.6916741999994,,003,P014,2025_Feb_28_1610,ConditionRich,2021.2.3,59.914107136313426,
348.0,348.75,24,0.75,Stimuli/P014/things_bungee_07s.jpg,0,0.0,0.0,0,152,152,152,,,,,,,,,,,,,348.0090985000006,0.009098500000618515,None,398.9445691000001,398.9445691000001,398.9445691000001,398.9445691000001,398.9445691000001,398.9445691000001,398.9445691000001,398.9445691000001,398.9445691000001,398.9445691000001,,003,P014,2025_Feb_28_1610,ConditionRich,2021.2.3,59.914107136313426,
348.75,352.0,41,0.0,Stimuli/Blank.png,1,0.25,1.0,0,153,153,153,,,,,,,,,,,,,348.7748345,0.024834499999997206,None,399.6952189000003,399.6952189000003,399.6952189000003,399.6952189000003,399.6952189000003,399.6952189000003,399.92876350000006,400.6794143999996,399.6952189000003,399.6952189000003,,003,P014,2025_Feb_28_1610,ConditionRich,2021.2.3,59.914107136313426,
352.0,352.75,28,0.75,Stimuli/P014/things_girl_07s.jpg,0,0.0,0.0,0,154,154,154,,,,,,,,,,,,,352.0105012999993,0.010501299999305047,None,402.93141280000054,402.93141280000054,402.93141280000054,402.93141280000054,402.93141280000054,402.93141280000054,402.93141280000054,402.93141280000054,402.93141280000054,402.93141280000054,,003,P014,2025_Feb_28_1610,ConditionRich,2021.2.3,59.914107136313426,
352.75,356.0,41,0.0,Stimuli/Blank.png,0,0.0,0.0,0,155,155,155,,,,,,,,,,,,,352.7611684000003,0.01116840000031516,None,403.68213300000025,403.68213300000025,403.68213300000025,403.68213300000025,403.68213300000025,403.68213300000025,403.68213300000025,403.68213300000025,403.68213300000025,403.68213300000025,,003,P014,2025_Feb_28_1610,ConditionRich,2021.2.3,59.914107136313426,
356.0,356.75,23,0.75,Stimuli/P014/things_bug_07s.jpg,0,0.0,0.0,0,156,156,156,,,,,,,,,,,,,356.0145100999998,0.014510099999824888,None,406.9349605999996,406.9349605999996,406.9349605999996,406.9349605999996,406.9349605999996,406.9349605999996,406.9349605999996,406.9349605999996,406.9349605999996,406.9349605999996,,003,P014,2025_Feb_28_1610,ConditionRich,2021.2.3,59.914107136313426,
356.75,360.0,41,0.0,Stimuli/Blank.png,0,0.0,0.0,0,157,157,157,,,,,,,,,,,,,356.76464060000035,0.014640600000348059,None,407.6856250000001,407.6856250000001,407.6856250000001,407.6856250000001,407.6856250000001,407.6856250000001,407.6856250000001,407.6856250000001,407.6856250000001,407.6856250000001,,003,P014,2025_Feb_28_1610,ConditionRich,2021.2.3,59.914107136313426,
360.0,360.75,6,0.75,Stimuli/P014/sun_aoejkkmwkfegacni.jpg,0,0.0,0.0,0,158,158,158,,,,,,,,,,,,,360.00170249999974,0.0017024999997374834,None,410.93853390000004,410.93853390000004,410.93853390000004,410.93853390000004,410.93853390000004,410.93853390000004,410.93853390000004,410.93853390000004,410.93853390000004,410.93853390000004,,003,P014,2025_Feb_28_1610,ConditionRich,2021.2.3,59.914107136313426,
360.75,364.0,41,0.0,Stimuli/Blank.png,0,0.0,0.0,0,159,159,159,,,,,,,,,,,,,360.76964790000056,0.019647900000563823,None,411.6891807000011,411.6891807000011,411.6891807000011,411.6891807000011,411.6891807000011,411.6891807000011,411.6891807000011,411.6891807000011,411.6891807000011,411.6891807000011,,003,P014,2025_Feb_28_1610,ConditionRich,2021.2.3,59.914107136313426,
364.0,364.75,10,0.75,Stimuli/P014/sun_bdhxnzyleoiflyak.jpg,0,0.0,0.0,0,160,160,160,,,,,,,,,,,,,364.00444830000015,0.004448300000149175,None,414.9253709000004,414.9253709000004,414.9253709000004,414.9253709000004,414.9253709000004,414.9253709000004,414.9253709000004,414.9253709000004,414.9253709000004,414.9253709000004,,003,P014,2025_Feb_28_1610,ConditionRich,2021.2.3,59.914107136313426,
364.75,368.0,41,0.0,Stimuli/Blank.png,0,0.0,0.0,0,161,161,161,,,,,,,,,,,,,364.7554794000007,0.005479400000695023,None,415.6760340000001,415.6760340000001,415.6760340000001,415.6760340000001,415.6760340000001,415.6760340000001,415.6760340000001,415.6760340000001,415.6760340000001,415.6760340000001,,003,P014,2025_Feb_28_1610,ConditionRich,2021.2.3,59.914107136313426,
368.0,368.75,20,0.75,Stimuli/P014/sun_cidodcxikcyrdglc.jpg,0,0.0,0.0,0,162,162,162,,,,,,,,,,,,,368.00970400000006,0.009704000000056112,None,418.9455978999995,418.9455978999995,418.9455978999995,418.9455978999995,418.9455978999995,418.9455978999995,418.9455978999995,418.9455978999995,418.9455978999995,418.9455978999995,,003,P014,2025_Feb_28_1610,ConditionRich,2021.2.3,59.914107136313426,
368.75,372.0,41,0.0,Stimuli/Blank.png,0,0.0,0.0,0,163,163,163,,,,,,,,,,,,,368.7754423999995,0.025442399999519694,None,419.6962636999997,419.6962636999997,419.6962636999997,419.6962636999997,419.6962636999997,419.6962636999997,419.6962636999997,419.6962636999997,419.6962636999997,419.6962636999997,,003,P014,2025_Feb_28_1610,ConditionRich,2021.2.3,59.914107136313426,
372.0,388.0,0,0.0,Stimuli/Blank.png,1,11.0,11.75,0,164,164,164,,,,,,,,,,,,,372.0141356999993,0.014135699999314966,1,422.9491435,422.9491435,422.9491435,422.9491435,422.9491435,422.9491435,433.9255652000011,434.6763069999997,422.9491435,422.9491435,11.306221199998618,003,P014,2025_Feb_28_1610,ConditionRich,2021.2.3,59.914107136313426,
