eventStartTime,eventEndTime,eventCond,imSize,imFile,responseEvent,fixRespStart,fixRespEnd,Events.thisRepN,Events.thisTrialN,Events.thisN,Events.thisIndex,Instructions.started,Instructions.stopped,participantReadyResponse.keys,participantReadyResponse.rt,participantReadyResponse.started,participantReadyResponse.stopped,startWaitforTrigger,triggerResponse.keys,triggerResponse.rt,triggerResponse.started,triggerResponse.stopped,globalTimer,actualStartTime,startTimingDiff,participantResponse.keys,participantResponse.started,participantResponse.stopped,image.started,image.stopped,fixationOutside.started,fixationOutside.stopped,fixationResponse.started,fixationResponse.stopped,fixationInside.started,fixationInside.stopped,participantResponse.rt,session,participant,date,expName,psychopyVersion,frameRate,
,,,,,,,,,,,,13.734215099999346,None,1,1.9307769999995799,13.734215099999346,None,,,,,,,,,,,,,,,,,,,,,009,P014,2025_Feb_28_1708,ConditionRich,2021.2.3,59.947653708420546,
,,,,,,,,,,,,,,,,,,15.67634360000011,5,14.465066799999477,15.689054499998747,None,,,,,,,,,,,,,,,,009,P014,2025_Feb_28_1708,ConditionRich,2021.2.3,59.947653708420546,
0.0,4.0,0,0.0,Stimuli/Blank.png,0,0.0,0.0,0,0,0,0,,,,,,,,,,,,30.17241019999892,0.018116100000042934,0.018116100000042934,None,30.201840099998662,None,30.201840099998662,None,30.201840099998662,None,30.201840099998662,30.201840099998662,30.201840099998662,None,,009,P014,2025_Feb_28_1708,ConditionRich,2021.2.3,59.947653708420546,
4.0,4.75,19,0.75,Stimuli/P014/sun_buphlelowxjnoygy.jpg,0,0.0,0.0,0,1,1,1,,,,,,,,,,,,,4.004041700000016,0.004041700000016135,None,34.205696299999545,34.205696299999545,34.205696299999545,34.205696299999545,34.205696299999545,34.205696299999545,34.205696299999545,34.205696299999545,34.205696299999545,34.205696299999545,,009,P014,2025_Feb_28_1708,ConditionRich,2021.2.3,59.947653708420546,
4.75,8.0,41,0.0,Stimuli/Blank.png,0,0.0,0.0,0,2,2,2,,,,,,,,,,,,,4.769799700001386,0.019799700001385645,None,34.95636319999903,34.95636319999903,34.95636319999903,34.95636319999903,34.95636319999903,34.95636319999903,34.95636319999903,34.95636319999903,34.95636319999903,34.95636319999903,,009,P014,2025_Feb_28_1708,ConditionRich,2021.2.3,59.947653708420546,
8.0,8.75,14,0.75,Stimuli/P014/sun_bqhfterhwnqrbnzg.jpg,0,0.0,0.0,0,3,3,3,,,,,,,,,,,,,8.005843500000992,0.005843500000992208,None,38.192249199999424,38.192249199999424,38.192249199999424,38.192249199999424,38.192249199999424,38.192249199999424,38.192249199999424,38.192249199999424,38.192249199999424,38.192249199999424,,009,P014,2025_Feb_28_1708,ConditionRich,2021.2.3,59.947653708420546,
8.75,12.0,41,0.0,Stimuli/Blank.png,0,0.0,0.0,0,4,4,4,,,,,,,,,,,,,8.756772900000215,0.006772900000214577,None,38.94291449999946,38.94291449999946,38.94291449999946,38.94291449999946,38.94291449999946,38.94291449999946,38.94291449999946,38.94291449999946,38.94291449999946,38.94291449999946,,009,P014,2025_Feb_28_1708,ConditionRich,2021.2.3,59.947653708420546,
12.0,12.75,31,0.75,Stimuli/P014/things_mask_07s.jpg,0,0.0,0.0,0,5,5,5,,,,,,,,,,,,,12.00894000000153,0.00894000000153028,None,42.195791299998746,42.195791299998746,42.195791299998746,42.195791299998746,42.195791299998746,42.195791299998746,42.195791299998746,42.195791299998746,42.195791299998746,42.195791299998746,,009,P014,2025_Feb_28_1708,ConditionRich,2021.2.3,59.947653708420546,
12.75,16.0,41,0.0,Stimuli/Blank.png,0,0.0,0.0,0,6,6,6,,,,,,,,,,,,,12.760255799999868,0.010255799999868032,None,42.94646009999997,42.94646009999997,42.94646009999997,42.94646009999997,42.94646009999997,42.94646009999997,42.94646009999997,42.94646009999997,42.94646009999997,42.94646009999997,,009,P014,2025_Feb_28_1708,ConditionRich,2021.2.3,59.947653708420546,
16.0,16.75,21,0.75,Stimuli/P014/things_baby_07s.jpg,1,0.0,0.75,0,7,7,7,,,,,,,,,,,,,16.012764800001605,0.012764800001605181,1,46.19933029999993,46.19933029999993,46.19933029999993,46.19933029999993,46.19933029999993,46.19933029999993,46.19933029999993,46.93330479999895,46.19933029999993,46.19933029999993,0.4357018999999127,009,P014,2025_Feb_28_1708,ConditionRich,2021.2.3,59.947653708420546,
16.75,20.0,41,0.0,Stimuli/Blank.png,0,0.0,0.0,0,8,8,8,,,,,,,,,,,,,16.76372640000045,0.013726400000450667,None,46.94998779999878,46.94998779999878,46.94998779999878,46.94998779999878,46.94998779999878,46.94998779999878,46.94998779999878,46.94998779999878,46.94998779999878,46.94998779999878,,009,P014,2025_Feb_28_1708,ConditionRich,2021.2.3,59.947653708420546,
20.0,20.75,25,0.75,Stimuli/P014/things_cashew_07s.jpg,0,0.0,0.0,0,9,9,9,,,,,,,,,,,,,20.002113100001225,0.002113100001224666,None,50.20288099999925,50.20288099999925,50.20288099999925,50.20288099999925,50.20288099999925,50.20288099999925,50.20288099999925,50.20288099999925,50.20288099999925,50.20288099999925,,009,P014,2025_Feb_28_1708,ConditionRich,2021.2.3,59.947653708420546,
20.75,24.0,41,0.0,Stimuli/Blank.png,0,0.0,0.0,0,10,10,10,,,,,,,,,,,,,20.767143300001408,0.017143300001407624,None,50.953547699999035,50.953547699999035,50.953547699999035,50.953547699999035,50.953547699999035,50.953547699999035,50.953547699999035,50.953547699999035,50.953547699999035,50.953547699999035,,009,P014,2025_Feb_28_1708,ConditionRich,2021.2.3,59.947653708420546,
24.0,24.75,7,0.75,Stimuli/P014/sun_aojplsluiikxrfxc.jpg,0,0.0,0.0,0,11,11,11,,,,,,,,,,,,,24.003461000000243,0.003461000000243075,None,54.20643469999959,54.20643469999959,54.20643469999959,54.20643469999959,54.20643469999959,54.20643469999959,54.20643469999959,54.20643469999959,54.20643469999959,54.20643469999959,,009,P014,2025_Feb_28_1708,ConditionRich,2021.2.3,59.947653708420546,
24.75,28.0,41,0.0,Stimuli/Blank.png,0,0.0,0.0,0,12,12,12,,,,,,,,,,,,,24.77020160000029,0.020201600000291364,None,54.95708310000009,54.95708310000009,54.95708310000009,54.95708310000009,54.95708310000009,54.95708310000009,54.95708310000009,54.95708310000009,54.95708310000009,54.95708310000009,,009,P014,2025_Feb_28_1708,ConditionRich,2021.2.3,59.947653708420546,
28.0,28.75,8,0.75,Stimuli/P014/sun_auqrilekgmdmrncq.jpg,0,0.0,0.0,0,13,13,13,,,,,,,,,,,,,28.007107100000212,0.007107100000212085,None,58.19328449999921,58.19328449999921,58.19328449999921,58.19328449999921,58.19328449999921,58.19328449999921,58.19328449999921,58.19328449999921,58.19328449999921,58.19328449999921,,009,P014,2025_Feb_28_1708,ConditionRich,2021.2.3,59.947653708420546,
28.75,32.0,41,0.0,Stimuli/Blank.png,1,1.25,2.0,0,14,14,14,,,,,,,,,,,,,28.75936300000103,0.009363000001030741,2,58.94405629999892,58.94405629999892,58.94405629999892,58.94405629999892,58.94405629999892,58.94405629999892,60.1783661999998,60.929091099998914,58.94405629999892,58.94405629999892,1.6469059999999445,009,P014,2025_Feb_28_1708,ConditionRich,2021.2.3,59.947653708420546,
32.0,32.75,18,0.75,Stimuli/P014/sun_btohwudpiusfvpvl.jpg,0,0.0,0.0,0,15,15,15,,,,,,,,,,,,,32.009999300000345,0.009999300000345102,None,62.21353259999887,62.21353259999887,62.21353259999887,62.21353259999887,62.21353259999887,62.21353259999887,62.21353259999887,62.21353259999887,62.21353259999887,62.21353259999887,,009,P014,2025_Feb_28_1708,ConditionRich,2021.2.3,59.947653708420546,
32.75,36.0,41,0.0,Stimuli/Blank.png,0,0.0,0.0,0,16,16,16,,,,,,,,,,,,,32.777867900000274,0.02786790000027395,None,62.96416669999962,62.96416669999962,62.96416669999962,62.96416669999962,62.96416669999962,62.96416669999962,62.96416669999962,62.96416669999962,62.96416669999962,62.96416669999962,,009,P014,2025_Feb_28_1708,ConditionRich,2021.2.3,59.947653708420546,
36.0,36.75,6,0.75,Stimuli/P014/sun_aoejkkmwkfegacni.jpg,0,0.0,0.0,0,17,17,17,,,,,,,,,,,,,36.01334520000091,0.013345200000912882,None,66.20036999999866,66.20036999999866,66.20036999999866,66.20036999999866,66.20036999999866,66.20036999999866,66.20036999999866,66.20036999999866,66.20036999999866,66.20036999999866,,009,P014,2025_Feb_28_1708,ConditionRich,2021.2.3,59.947653708420546,
36.75,40.0,41,0.0,Stimuli/Blank.png,0,0.0,0.0,0,18,18,18,,,,,,,,,,,,,36.7649093,0.014909299999999348,None,66.95103919999929,66.95103919999929,66.95103919999929,66.95103919999929,66.95103919999929,66.95103919999929,66.95103919999929,66.95103919999929,66.95103919999929,66.95103919999929,,009,P014,2025_Feb_28_1708,ConditionRich,2021.2.3,59.947653708420546,
40.0,40.75,12,0.75,Stimuli/P014/sun_bjyrrxiwsnbmkbqs.jpg,0,0.0,0.0,0,19,19,19,,,,,,,,,,,,,40.00021620000007,0.0002162000000680564,None,70.187218699999,70.187218699999,70.187218699999,70.187218699999,70.187218699999,70.187218699999,70.187218699999,70.187218699999,70.187218699999,70.187218699999,,009,P014,2025_Feb_28_1708,ConditionRich,2021.2.3,59.947653708420546,
40.75,44.0,41,0.0,Stimuli/Blank.png,1,2.25,3.0,0,20,20,20,,,,,,,,,,,,,40.75082740000107,0.0008274000010715099,1,70.93789409999954,70.93789409999954,70.93789409999954,70.93789409999954,70.93789409999954,70.93789409999954,73.17319139999927,73.92385979999926,70.93789409999954,70.93789409999954,2.6371921000009024,009,P014,2025_Feb_28_1708,ConditionRich,2021.2.3,59.947653708420546,
44.0,44.75,40,0.75,Stimuli/P014/things_woman_07s.jpg,0,0.0,0.0,0,21,21,21,,,,,,,,,,,,,44.00413120000121,0.004131200001211255,None,74.1907683999998,74.1907683999998,74.1907683999998,74.1907683999998,74.1907683999998,74.1907683999998,74.1907683999998,74.1907683999998,74.1907683999998,74.1907683999998,,009,P014,2025_Feb_28_1708,ConditionRich,2021.2.3,59.947653708420546,
44.75,48.0,41,0.0,Stimuli/Blank.png,0,0.0,0.0,0,22,22,22,,,,,,,,,,,,,44.75455150000016,0.004551500000161468,None,74.9414326999995,74.9414326999995,74.9414326999995,74.9414326999995,74.9414326999995,74.9414326999995,74.9414326999995,74.9414326999995,74.9414326999995,74.9414326999995,,009,P014,2025_Feb_28_1708,ConditionRich,2021.2.3,59.947653708420546,
48.0,48.75,11,0.75,Stimuli/P014/sun_bfyxzbjsvqsobbky.jpg,0,0.0,0.0,0,23,23,23,,,,,,,,,,,,,48.00788290000128,0.007882900001277449,None,78.21099419999882,78.21099419999882,78.21099419999882,78.21099419999882,78.21099419999882,78.21099419999882,78.21099419999882,78.21099419999882,78.21099419999882,78.21099419999882,,009,P014,2025_Feb_28_1708,ConditionRich,2021.2.3,59.947653708420546,
48.75,52.0,41,0.0,Stimuli/Blank.png,0,0.0,0.0,0,24,24,24,,,,,,,,,,,,,48.77546059999986,0.02546059999986028,None,78.96166350000021,78.96166350000021,78.96166350000021,78.96166350000021,78.96166350000021,78.96166350000021,78.96166350000021,78.96166350000021,78.96166350000021,78.96166350000021,,009,P014,2025_Feb_28_1708,ConditionRich,2021.2.3,59.947653708420546,
52.0,52.75,30,0.75,Stimuli/P014/things_man_07s.jpg,0,0.0,0.0,0,25,25,25,,,,,,,,,,,,,52.01084600000104,0.010846000001038192,None,82.19785210000009,82.19785210000009,82.19785210000009,82.19785210000009,82.19785210000009,82.19785210000009,82.19785210000009,82.19785210000009,82.19785210000009,82.19785210000009,,009,P014,2025_Feb_28_1708,ConditionRich,2021.2.3,59.947653708420546,
52.75,56.0,41,0.0,Stimuli/Blank.png,0,0.0,0.0,0,26,26,26,,,,,,,,,,,,,52.761459500001365,0.011459500001365086,None,82.94853499999954,82.94853499999954,82.94853499999954,82.94853499999954,82.94853499999954,82.94853499999954,82.94853499999954,82.94853499999954,82.94853499999954,82.94853499999954,,009,P014,2025_Feb_28_1708,ConditionRich,2021.2.3,59.947653708420546,
56.0,56.75,38,0.75,Stimuli/P014/things_spark_plug_07s.jpg,0,0.0,0.0,0,27,27,27,,,,,,,,,,,,,56.01506780000091,0.015067800000906573,None,86.20139999999992,86.20139999999992,86.20139999999992,86.20139999999992,86.20139999999992,86.20139999999992,86.20139999999992,86.20139999999992,86.20139999999992,86.20139999999992,,009,P014,2025_Feb_28_1708,ConditionRich,2021.2.3,59.947653708420546,
56.75,60.0,41,0.0,Stimuli/Blank.png,0,0.0,0.0,0,28,28,28,,,,,,,,,,,,,56.74839020000036,-0.0016097999996418366,None,86.9353702999997,86.9353702999997,86.9353702999997,86.9353702999997,86.9353702999997,86.9353702999997,86.9353702999997,86.9353702999997,86.9353702999997,86.9353702999997,,009,P014,2025_Feb_28_1708,ConditionRich,2021.2.3,59.947653708420546,
60.0,60.75,37,0.75,Stimuli/P014/things_slug_07s.jpg,0,0.0,0.0,0,29,29,29,,,,,,,,,,,,,60.001935300000696,0.001935300000695861,None,90.18826059999992,90.18826059999992,90.18826059999992,90.18826059999992,90.18826059999992,90.18826059999992,90.18826059999992,90.18826059999992,90.18826059999992,90.18826059999992,,009,P014,2025_Feb_28_1708,ConditionRich,2021.2.3,59.947653708420546,
60.75,64.0,41,0.0,Stimuli/Blank.png,0,0.0,0.0,0,30,30,30,,,,,,,,,,,,,60.75336210000023,0.003362100000231294,None,90.93901959999857,90.93901959999857,90.93901959999857,90.93901959999857,90.93901959999857,90.93901959999857,90.93901959999857,90.93901959999857,90.93901959999857,90.93901959999857,,009,P014,2025_Feb_28_1708,ConditionRich,2021.2.3,59.947653708420546,
64.0,64.75,13,0.75,Stimuli/P014/sun_bpccpwpohfirajtf.jpg,0,0.0,0.0,0,31,31,31,,,,,,,,,,,,,64.00588170000083,0.00588170000082755,None,94.20848680000017,94.20848680000017,94.20848680000017,94.20848680000017,94.20848680000017,94.20848680000017,94.20848680000017,94.20848680000017,94.20848680000017,94.20848680000017,,009,P014,2025_Feb_28_1708,ConditionRich,2021.2.3,59.947653708420546,
64.75,68.0,41,0.0,Stimuli/Blank.png,1,2.25,3.0,0,32,32,32,,,,,,,,,,,,,64.7725018000001,0.022501800000100047,1,94.95915139999852,94.95915139999852,94.95915139999852,94.95915139999852,94.95915139999852,94.95915139999852,97.19445970000015,97.94511839999905,94.95915139999852,94.95915139999852,2.6042760999989696,009,P014,2025_Feb_28_1708,ConditionRich,2021.2.3,59.947653708420546,
68.0,68.75,16,0.75,Stimuli/P014/sun_bsgtkqjrnrvttrax.jpg,0,0.0,0.0,0,33,33,33,,,,,,,,,,,,,68.009465000001,0.00946500000100059,None,98.19534419999945,98.19534419999945,98.19534419999945,98.19534419999945,98.19534419999945,98.19534419999945,98.19534419999945,98.19534419999945,98.19534419999945,98.19534419999945,,009,P014,2025_Feb_28_1708,ConditionRich,2021.2.3,59.947653708420546,
68.75,72.0,41,0.0,Stimuli/Blank.png,0,0.0,0.0,0,34,34,34,,,,,,,,,,,,,68.7590694999999,0.009069499999895925,None,98.94601919999877,98.94601919999877,98.94601919999877,98.94601919999877,98.94601919999877,98.94601919999877,98.94601919999877,98.94601919999877,98.94601919999877,98.94601919999877,,009,P014,2025_Feb_28_1708,ConditionRich,2021.2.3,59.947653708420546,
72.0,72.75,24,0.75,Stimuli/P014/things_bungee_07s.jpg,0,0.0,0.0,0,35,35,35,,,,,,,,,,,,,72.01190980000138,0.011909800001376425,None,102.19888869999886,102.19888869999886,102.19888869999886,102.19888869999886,102.19888869999886,102.19888869999886,102.19888869999886,102.19888869999886,102.19888869999886,102.19888869999886,,009,P014,2025_Feb_28_1708,ConditionRich,2021.2.3,59.947653708420546,
72.75,76.0,41,0.0,Stimuli/Blank.png,0,0.0,0.0,0,36,36,36,,,,,,,,,,,,,72.76377110000067,0.013771100000667502,None,102.94956399999865,102.94956399999865,102.94956399999865,102.94956399999865,102.94956399999865,102.94956399999865,102.94956399999865,102.94956399999865,102.94956399999865,102.94956399999865,,009,P014,2025_Feb_28_1708,ConditionRich,2021.2.3,59.947653708420546,
76.0,76.75,1,0.75,Stimuli/P014/sun_adkmgqclfrkhfxbd.jpg,0,0.0,0.0,0,37,37,37,,,,,,,,,,,,,75.99905940000099,-0.0009405999990121927,None,106.20244929999899,106.20244929999899,106.20244929999899,106.20244929999899,106.20244929999899,106.20244929999899,106.20244929999899,106.20244929999899,106.20244929999899,106.20244929999899,,009,P014,2025_Feb_28_1708,ConditionRich,2021.2.3,59.947653708420546,
76.75,80.0,41,0.0,Stimuli/Blank.png,0,0.0,0.0,0,38,38,38,,,,,,,,,,,,,76.76603250000153,0.016032500001529115,None,106.95308889999978,106.95308889999978,106.95308889999978,106.95308889999978,106.95308889999978,106.95308889999978,106.95308889999978,106.95308889999978,106.95308889999978,106.95308889999978,,009,P014,2025_Feb_28_1708,ConditionRich,2021.2.3,59.947653708420546,
80.0,80.75,32,0.75,Stimuli/P014/things_mistletoe_07s.jpg,1,0.0,0.75,0,39,39,39,,,,,,,,,,,,,80.00291610000022,0.0029161000002204673,1,110.1892941999995,110.1892941999995,110.1892941999995,110.1892941999995,110.1892941999995,110.1892941999995,110.1892941999995,110.92326979999962,110.1892941999995,110.1892941999995,0.6828110000005836,009,P014,2025_Feb_28_1708,ConditionRich,2021.2.3,59.947653708420546,
80.75,84.0,41,0.0,Stimuli/Blank.png,0,0.0,0.0,0,40,40,40,,,,,,,,,,,,,80.75359790000039,0.0035979000003862893,None,110.9399512,110.9399512,110.9399512,110.9399512,110.9399512,110.9399512,110.9399512,110.9399512,110.9399512,110.9399512,,009,P014,2025_Feb_28_1708,ConditionRich,2021.2.3,59.947653708420546,
84.0,100.0,0,0.0,Stimuli/Blank.png,1,5.0,5.75,0,41,41,41,,,,,,,,,,,,,84.00699920000079,0.006999200000791461,1,114.19285080000009,114.19285080000009,114.19285080000009,114.19285080000009,114.19285080000009,114.19285080000009,119.18064579999918,119.93127099999947,114.19285080000009,114.19285080000009,5.350208300000304,009,P014,2025_Feb_28_1708,ConditionRich,2021.2.3,59.947653708420546,
100.0,100.75,20,0.75,Stimuli/P014/sun_cidodcxikcyrdglc.jpg,0,0.0,0.0,0,42,42,42,,,,,,,,,,,,,100.00339420000091,0.003394200000911951,None,130.20702279999932,130.20702279999932,130.20702279999932,130.20702279999932,130.20702279999932,130.20702279999932,130.20702279999932,130.20702279999932,130.20702279999932,130.20702279999932,,009,P014,2025_Feb_28_1708,ConditionRich,2021.2.3,59.947653708420546,
100.75,104.0,41,0.0,Stimuli/Blank.png,0,0.0,0.0,0,43,43,43,,,,,,,,,,,,,100.77130220000072,0.021302200000718585,1,130.95765409999876,130.95765409999876,130.95765409999876,130.95765409999876,130.95765409999876,130.95765409999876,130.95765409999876,130.95765409999876,130.95765409999876,130.95765409999876,0.0925067999996827,009,P014,2025_Feb_28_1708,ConditionRich,2021.2.3,59.947653708420546,
104.0,104.75,4,0.75,Stimuli/P014/sun_afgoiykvchxqotyz.jpg,0,0.0,0.0,0,44,44,44,,,,,,,,,,,,,104.00758769999993,0.007587699999930919,None,134.2105804999992,134.2105804999992,134.2105804999992,134.2105804999992,134.2105804999992,134.2105804999992,134.2105804999992,134.2105804999992,134.2105804999992,134.2105804999992,,009,P014,2025_Feb_28_1708,ConditionRich,2021.2.3,59.947653708420546,
104.75,108.0,41,0.0,Stimuli/Blank.png,0,0.0,0.0,0,45,45,45,,,,,,,,,,,,,104.77416260000064,0.024162600000636303,None,134.96128639999915,134.96128639999915,134.96128639999915,134.96128639999915,134.96128639999915,134.96128639999915,134.96128639999915,134.96128639999915,134.96128639999915,134.96128639999915,,009,P014,2025_Feb_28_1708,ConditionRich,2021.2.3,59.947653708420546,
108.0,108.75,2,0.75,Stimuli/P014/sun_adotnsaifoooswkf.jpg,0,0.0,0.0,0,46,46,46,,,,,,,,,,,,,108.01083990000006,0.010839900000064517,None,138.19741379999869,138.19741379999869,138.19741379999869,138.19741379999869,138.19741379999869,138.19741379999869,138.19741379999869,138.19741379999869,138.19741379999869,138.19741379999869,,009,P014,2025_Feb_28_1708,ConditionRich,2021.2.3,59.947653708420546,
108.75,112.0,41,0.0,Stimuli/Blank.png,0,0.0,0.0,0,47,47,47,,,,,,,,,,,,,108.76299030000155,0.012990300001547439,None,138.9647780999985,138.9647780999985,138.9647780999985,138.9647780999985,138.9647780999985,138.9647780999985,138.9647780999985,138.9647780999985,138.9647780999985,138.9647780999985,,009,P014,2025_Feb_28_1708,ConditionRich,2021.2.3,59.947653708420546,
112.0,112.75,17,0.75,Stimuli/P014/sun_bsguftphqnrkbedw.jpg,0,0.0,0.0,0,48,48,48,,,,,,,,,,,,,112.01490620000004,0.014906200000041281,None,142.2176399,142.2176399,142.2176399,142.2176399,142.2176399,142.2176399,142.2176399,142.2176399,142.2176399,142.2176399,,009,P014,2025_Feb_28_1708,ConditionRich,2021.2.3,59.947653708420546,
112.75,116.0,41,0.0,Stimuli/Blank.png,0,0.0,0.0,0,49,49,49,,,,,,,,,,,,,112.78196440000102,0.03196440000101575,None,142.9683000999994,142.9683000999994,142.9683000999994,142.9683000999994,142.9683000999994,142.9683000999994,142.9683000999994,142.9683000999994,142.9683000999994,142.9683000999994,,009,P014,2025_Feb_28_1708,ConditionRich,2021.2.3,59.947653708420546,
116.0,116.75,33,0.75,Stimuli/P014/things_piglet_07s.jpg,0,0.0,0.0,0,50,50,50,,,,,,,,,,,,,116.00186190000022,0.0018619000002217945,None,146.2045122999989,146.2045122999989,146.2045122999989,146.2045122999989,146.2045122999989,146.2045122999989,146.2045122999989,146.2045122999989,146.2045122999989,146.2045122999989,,009,P014,2025_Feb_28_1708,ConditionRich,2021.2.3,59.947653708420546,
116.75,120.0,41,0.0,Stimuli/Blank.png,0,0.0,0.0,0,51,51,51,,,,,,,,,,,,,116.77065270000094,0.02065270000093733,None,146.9718632999993,146.9718632999993,146.9718632999993,146.9718632999993,146.9718632999993,146.9718632999993,146.9718632999993,146.9718632999993,146.9718632999993,146.9718632999993,,009,P014,2025_Feb_28_1708,ConditionRich,2021.2.3,59.947653708420546,
120.0,120.75,23,0.75,Stimuli/P014/things_bug_07s.jpg,0,0.0,0.0,0,52,52,52,,,,,,,,,,,,,120.02409640000042,0.024096400000416907,None,150.2247255000002,150.2247255000002,150.2247255000002,150.2247255000002,150.2247255000002,150.2247255000002,150.2247255000002,150.2247255000002,150.2247255000002,150.2247255000002,,009,P014,2025_Feb_28_1708,ConditionRich,2021.2.3,59.947653708420546,
120.75,124.0,41,0.0,Stimuli/Blank.png,0,0.0,0.0,0,53,53,53,,,,,,,,,,,,,120.77472050000142,0.024720500001421897,None,150.97539549999965,150.97539549999965,150.97539549999965,150.97539549999965,150.97539549999965,150.97539549999965,150.97539549999965,150.97539549999965,150.97539549999965,150.97539549999965,,009,P014,2025_Feb_28_1708,ConditionRich,2021.2.3,59.947653708420546,
124.0,124.75,15,0.75,Stimuli/P014/sun_brezwczwwllviogu.jpg,0,0.0,0.0,0,54,54,54,,,,,,,,,,,,,124.02528020000136,0.025280200001361663,None,154.21157409999978,154.21157409999978,154.21157409999978,154.21157409999978,154.21157409999978,154.21157409999978,154.21157409999978,154.21157409999978,154.21157409999978,154.21157409999978,,009,P014,2025_Feb_28_1708,ConditionRich,2021.2.3,59.947653708420546,
124.75,128.0,41,0.0,Stimuli/Blank.png,0,0.0,0.0,0,55,55,55,,,,,,,,,,,,,124.75864200000069,0.008642000000691041,None,154.94554379999863,154.94554379999863,154.94554379999863,154.94554379999863,154.94554379999863,154.94554379999863,154.94554379999863,154.94554379999863,154.94554379999863,154.94554379999863,,009,P014,2025_Feb_28_1708,ConditionRich,2021.2.3,59.947653708420546,
128.0,128.75,36,0.75,Stimuli/P014/things_seafood_07s.jpg,0,0.0,0.0,0,56,56,56,,,,,,,,,,,,,128.0114760000015,0.011476000001493958,None,158.19844219999868,158.19844219999868,158.19844219999868,158.19844219999868,158.19844219999868,158.19844219999868,158.19844219999868,158.19844219999868,158.19844219999868,158.19844219999868,,009,P014,2025_Feb_28_1708,ConditionRich,2021.2.3,59.947653708420546,
128.75,132.0,41,0.0,Stimuli/Blank.png,0,0.0,0.0,0,57,57,57,,,,,,,,,,,,,128.7647233000007,0.014723300000696327,None,158.96579719999863,158.96579719999863,158.96579719999863,158.96579719999863,158.96579719999863,158.96579719999863,158.96579719999863,158.96579719999863,158.96579719999863,158.96579719999863,,009,P014,2025_Feb_28_1708,ConditionRich,2021.2.3,59.947653708420546,
132.0,132.75,35,0.75,Stimuli/P014/things_road_sign_07s.jpg,0,0.0,0.0,0,58,58,58,,,,,,,,,,,,,132.01608690000103,0.01608690000102797,None,162.21870559999843,162.21870559999843,162.21870559999843,162.21870559999843,162.21870559999843,162.21870559999843,162.21870559999843,162.21870559999843,162.21870559999843,162.21870559999843,,009,P014,2025_Feb_28_1708,ConditionRich,2021.2.3,59.947653708420546,
132.75,136.0,41,0.0,Stimuli/Blank.png,0,0.0,0.0,0,59,59,59,,,,,,,,,,,,,132.76651930000116,0.016519300001164083,None,162.9526568000001,162.9526568000001,162.9526568000001,162.9526568000001,162.9526568000001,162.9526568000001,162.9526568000001,162.9526568000001,162.9526568000001,162.9526568000001,,009,P014,2025_Feb_28_1708,ConditionRich,2021.2.3,59.947653708420546,
136.0,136.75,34,0.75,Stimuli/P014/things_radio_07s.jpg,0,0.0,0.0,0,60,60,60,,,,,,,,,,,,,136.0027734000014,0.0027734000013879267,None,166.18885559999944,166.18885559999944,166.18885559999944,166.18885559999944,166.18885559999944,166.18885559999944,166.18885559999944,166.18885559999944,166.18885559999944,166.18885559999944,,009,P014,2025_Feb_28_1708,ConditionRich,2021.2.3,59.947653708420546,
136.75,140.0,41,0.0,Stimuli/Blank.png,0,0.0,0.0,0,61,61,61,,,,,,,,,,,,,136.7527998000005,0.002799800000502728,None,166.93951779999952,166.93951779999952,166.93951779999952,166.93951779999952,166.93951779999952,166.93951779999952,166.93951779999952,166.93951779999952,166.93951779999952,166.93951779999952,,009,P014,2025_Feb_28_1708,ConditionRich,2021.2.3,59.947653708420546,
140.0,140.75,27,0.75,Stimuli/P014/things_face_07s.jpg,0,0.0,0.0,0,62,62,62,,,,,,,,,,,,,140.00660190000053,0.006601900000532623,None,170.20909309999843,170.20909309999843,170.20909309999843,170.20909309999843,170.20909309999843,170.20909309999843,170.20909309999843,170.20909309999843,170.20909309999843,170.20909309999843,,009,P014,2025_Feb_28_1708,ConditionRich,2021.2.3,59.947653708420546,
140.75,144.0,41,0.0,Stimuli/Blank.png,0,0.0,0.0,0,63,63,63,,,,,,,,,,,,,140.77333060000092,0.02333060000091791,None,170.95972900000015,170.95972900000015,170.95972900000015,170.95972900000015,170.95972900000015,170.95972900000015,170.95972900000015,170.95972900000015,170.95972900000015,170.95972900000015,,009,P014,2025_Feb_28_1708,ConditionRich,2021.2.3,59.947653708420546,
144.0,144.75,28,0.75,Stimuli/P014/things_girl_07s.jpg,0,0.0,0.0,0,64,64,64,,,,,,,,,,,,,144.0100618000015,0.010061800001494703,None,174.19592449999982,174.19592449999982,174.19592449999982,174.19592449999982,174.19592449999982,174.19592449999982,174.19592449999982,174.19592449999982,174.19592449999982,174.19592449999982,,009,P014,2025_Feb_28_1708,ConditionRich,2021.2.3,59.947653708420546,
144.75,148.0,41,0.0,Stimuli/Blank.png,0,0.0,0.0,0,65,65,65,,,,,,,,,,,,,144.76088810000147,0.010888100001466228,None,174.9466123000002,174.9466123000002,174.9466123000002,174.9466123000002,174.9466123000002,174.9466123000002,174.9466123000002,174.9466123000002,174.9466123000002,174.9466123000002,,009,P014,2025_Feb_28_1708,ConditionRich,2021.2.3,59.947653708420546,
148.0,148.75,39,0.75,Stimuli/P014/things_violin_07n.jpg,1,0.0,0.75,0,66,66,66,,,,,,,,,,,,,148.01334120000138,0.013341200001377729,1,178.21616429999995,178.21616429999995,178.21616429999995,178.21616429999995,178.21616429999995,178.21616429999995,178.21616429999995,178.93349569999918,178.21616429999995,178.21616429999995,0.661192999999912,009,P014,2025_Feb_28_1708,ConditionRich,2021.2.3,59.947653708420546,
148.75,152.0,41,0.0,Stimuli/Blank.png,0,0.0,0.0,0,67,67,67,,,,,,,,,,,,,148.78048320000016,0.03048320000016247,None,178.966819199999,178.966819199999,178.966819199999,178.966819199999,178.966819199999,178.966819199999,178.966819199999,178.966819199999,178.966819199999,178.966819199999,,009,P014,2025_Feb_28_1708,ConditionRich,2021.2.3,59.947653708420546,
152.0,152.75,5,0.75,Stimuli/P014/sun_aidrxvbfhxtsusrf.jpg,0,0.0,0.0,0,68,68,68,,,,,,,,,,,,,151.99934209999992,-0.0006579000000783708,None,182.20305240000016,182.20305240000016,182.20305240000016,182.20305240000016,182.20305240000016,182.20305240000016,182.20305240000016,182.20305240000016,182.20305240000016,182.20305240000016,,009,P014,2025_Feb_28_1708,ConditionRich,2021.2.3,59.947653708420546,
152.75,156.0,41,0.0,Stimuli/Blank.png,0,0.0,0.0,0,69,69,69,,,,,,,,,,,,,152.7672917,0.01729169999998703,None,182.9536920999999,182.9536920999999,182.9536920999999,182.9536920999999,182.9536920999999,182.9536920999999,182.9536920999999,182.9536920999999,182.9536920999999,182.9536920999999,,009,P014,2025_Feb_28_1708,ConditionRich,2021.2.3,59.947653708420546,
156.0,156.75,9,0.75,Stimuli/P014/sun_bdgwqzttihopmpbf.jpg,0,0.0,0.0,0,70,70,70,,,,,,,,,,,,,156.00355610000042,0.003556100000423612,None,186.18987239999842,186.18987239999842,186.18987239999842,186.18987239999842,186.18987239999842,186.18987239999842,186.18987239999842,186.18987239999842,186.18987239999842,186.18987239999842,,009,P014,2025_Feb_28_1708,ConditionRich,2021.2.3,59.947653708420546,
156.75,160.0,41,0.0,Stimuli/Blank.png,1,0.25,1.0,0,71,71,71,,,,,,,,,,,,,156.7542007000011,0.004200700001092628,1,186.94054009999854,186.94054009999854,186.94054009999854,186.94054009999854,186.94054009999854,186.94054009999854,187.17407769999954,187.92474479999873,186.94054009999854,186.94054009999854,0.6007463999994798,009,P014,2025_Feb_28_1708,ConditionRich,2021.2.3,59.947653708420546,
160.0,160.75,10,0.75,Stimuli/P014/sun_bdhxnzyleoiflyak.jpg,0,0.0,0.0,0,72,72,72,,,,,,,,,,,,,160.00656250000065,0.006562500000654836,None,190.19341149999855,190.19341149999855,190.19341149999855,190.19341149999855,190.19341149999855,190.19341149999855,190.19341149999855,190.19341149999855,190.19341149999855,190.19341149999855,,009,P014,2025_Feb_28_1708,ConditionRich,2021.2.3,59.947653708420546,
160.75,164.0,41,0.0,Stimuli/Blank.png,0,0.0,0.0,0,73,73,73,,,,,,,,,,,,,160.75817629999983,0.008176299999831826,None,190.94408719999956,190.94408719999956,190.94408719999956,190.94408719999956,190.94408719999956,190.94408719999956,190.94408719999956,190.94408719999956,190.94408719999956,190.94408719999956,,009,P014,2025_Feb_28_1708,ConditionRich,2021.2.3,59.947653708420546,
164.0,164.75,26,0.75,Stimuli/P014/things_cougar_07s.jpg,0,0.0,0.0,0,74,74,74,,,,,,,,,,,,,164.01035540000157,0.01035540000157198,None,194.19696209999893,194.19696209999893,194.19696209999893,194.19696209999893,194.19696209999893,194.19696209999893,194.19696209999893,194.19696209999893,194.19696209999893,194.19696209999893,,009,P014,2025_Feb_28_1708,ConditionRich,2021.2.3,59.947653708420546,
164.75,168.0,41,0.0,Stimuli/Blank.png,0,0.0,0.0,0,75,75,75,,,,,,,,,,,,,164.7636760000005,0.013676000000486965,None,194.96431349999875,194.96431349999875,194.96431349999875,194.96431349999875,194.96431349999875,194.96431349999875,194.96431349999875,194.96431349999875,194.96431349999875,194.96431349999875,,009,P014,2025_Feb_28_1708,ConditionRich,2021.2.3,59.947653708420546,
168.0,168.75,3,0.75,Stimuli/P014/sun_aengzsmykwchlrdn.jpg,0,0.0,0.0,0,76,76,76,,,,,,,,,,,,,168.0137166000004,0.013716600000407198,None,198.20050099999935,198.20050099999935,198.20050099999935,198.20050099999935,198.20050099999935,198.20050099999935,198.20050099999935,198.20050099999935,198.20050099999935,198.20050099999935,,009,P014,2025_Feb_28_1708,ConditionRich,2021.2.3,59.947653708420546,
168.75,172.0,41,0.0,Stimuli/Blank.png,0,0.0,0.0,0,77,77,77,,,,,,,,,,,,,168.76432280000154,0.014322800001536962,None,198.95118790000015,198.95118790000015,198.95118790000015,198.95118790000015,198.95118790000015,198.95118790000015,198.95118790000015,198.95118790000015,198.95118790000015,198.95118790000015,,009,P014,2025_Feb_28_1708,ConditionRich,2021.2.3,59.947653708420546,
172.0,172.75,22,0.75,Stimuli/P014/things_banner_07s.jpg,0,0.0,0.0,0,78,78,78,,,,,,,,,,,,,172.00124230000074,0.0012423000007402152,None,202.1873644999996,202.1873644999996,202.1873644999996,202.1873644999996,202.1873644999996,202.1873644999996,202.1873644999996,202.1873644999996,202.1873644999996,202.1873644999996,,009,P014,2025_Feb_28_1708,ConditionRich,2021.2.3,59.947653708420546,
172.75,176.0,41,0.0,Stimuli/Blank.png,1,2.25,3.0,0,79,79,79,,,,,,,,,,,,,172.75111860000106,0.0011186000010638963,1,202.9380258000001,202.9380258000001,202.9380258000001,202.9380258000001,202.9380258000001,202.9380258000001,205.1733389000001,205.92398390000017,202.9380258000001,202.9380258000001,2.567138700000214,009,P014,2025_Feb_28_1708,ConditionRich,2021.2.3,59.947653708420546,
176.0,176.75,29,0.75,Stimuli/P014/things_iguana_07s.jpg,0,0.0,0.0,0,80,80,80,,,,,,,,,,,,,176.005629700001,0.0056297000010090414,None,206.2075952999985,206.2075952999985,206.2075952999985,206.2075952999985,206.2075952999985,206.2075952999985,206.2075952999985,206.2075952999985,206.2075952999985,206.2075952999985,,009,P014,2025_Feb_28_1708,ConditionRich,2021.2.3,59.947653708420546,
176.75,180.0,41,0.0,Stimuli/Blank.png,1,0.25,1.0,0,81,81,81,,,,,,,,,,,,,176.77193609999995,0.021936099999948055,1,206.95825879999938,206.95825879999938,206.95825879999938,206.95825879999938,206.95825879999938,206.95825879999938,207.19182889999865,207.94251619999886,206.95825879999938,206.95825879999938,0.727115199999389,009,P014,2025_Feb_28_1708,ConditionRich,2021.2.3,59.947653708420546,
180.0,196.0,0,0.0,Stimuli/Blank.png,1,11.0,11.75,0,82,82,82,,,,,,,,,,,,,180.01017330000104,0.010173300001042662,1,210.2111447999996,210.2111447999996,210.2111447999996,210.2111447999996,210.2111447999996,210.2111447999996,221.1875586999995,221.93837679999888,210.2111447999996,210.2111447999996,11.790077400000882,009,P014,2025_Feb_28_1708,ConditionRich,2021.2.3,59.947653708420546,
196.0,196.75,7,0.75,Stimuli/P014/sun_aojplsluiikxrfxc.jpg,0,0.0,0.0,0,83,83,83,,,,,,,,,,,,,196.02170050000132,0.02170050000131596,1,226.22531349999917,226.22531349999917,226.22531349999917,226.22531349999917,226.22531349999917,226.22531349999917,226.22531349999917,226.22531349999917,226.22531349999917,226.22531349999917,0.5680112000009103,009,P014,2025_Feb_28_1708,ConditionRich,2021.2.3,59.947653708420546,
196.75,200.0,41,0.0,Stimuli/Blank.png,0,0.0,0.0,0,84,84,84,,,,,,,,,,,,,196.77528500000153,0.025285000001531444,None,226.97598019999896,226.97598019999896,226.97598019999896,226.97598019999896,226.97598019999896,226.97598019999896,226.97598019999896,226.97598019999896,226.97598019999896,226.97598019999896,,009,P014,2025_Feb_28_1708,ConditionRich,2021.2.3,59.947653708420546,
200.0,200.75,36,0.75,Stimuli/P014/things_seafood_07s.jpg,0,0.0,0.0,0,85,85,85,,,,,,,,,,,,,200.0258644000005,0.02586440000050061,None,230.21216490000006,230.21216490000006,230.21216490000006,230.21216490000006,230.21216490000006,230.21216490000006,230.21216490000006,230.21216490000006,230.21216490000006,230.21216490000006,,009,P014,2025_Feb_28_1708,ConditionRich,2021.2.3,59.947653708420546,
200.75,204.0,41,0.0,Stimuli/Blank.png,0,0.0,0.0,0,86,86,86,,,,,,,,,,,,,200.75982710000062,0.009827100000620703,None,230.94614309999997,230.94614309999997,230.94614309999997,230.94614309999997,230.94614309999997,230.94614309999997,230.94614309999997,230.94614309999997,230.94614309999997,230.94614309999997,,009,P014,2025_Feb_28_1708,ConditionRich,2021.2.3,59.947653708420546,
204.0,204.75,15,0.75,Stimuli/P014/sun_brezwczwwllviogu.jpg,0,0.0,0.0,0,87,87,87,,,,,,,,,,,,,204.01482970000143,0.014829700001428137,None,234.2157016000001,234.2157016000001,234.2157016000001,234.2157016000001,234.2157016000001,234.2157016000001,234.2157016000001,234.2157016000001,234.2157016000001,234.2157016000001,,009,P014,2025_Feb_28_1708,ConditionRich,2021.2.3,59.947653708420546,
204.75,208.0,41,0.0,Stimuli/Blank.png,0,0.0,0.0,0,88,88,88,,,,,,,,,,,,,204.78194540000004,0.031945400000040536,None,234.98308389999875,234.98308389999875,234.98308389999875,234.98308389999875,234.98308389999875,234.98308389999875,234.98308389999875,234.98308389999875,234.98308389999875,234.98308389999875,,009,P014,2025_Feb_28_1708,ConditionRich,2021.2.3,59.947653708420546,
208.0,208.75,19,0.75,Stimuli/P014/sun_buphlelowxjnoygy.jpg,0,0.0,0.0,0,89,89,89,,,,,,,,,,,,,208.01603400000022,0.01603400000021793,None,238.2025666999998,238.2025666999998,238.2025666999998,238.2025666999998,238.2025666999998,238.2025666999998,238.2025666999998,238.2025666999998,238.2025666999998,238.2025666999998,,009,P014,2025_Feb_28_1708,ConditionRich,2021.2.3,59.947653708420546,
208.75,212.0,41,0.0,Stimuli/Blank.png,0,0.0,0.0,0,90,90,90,,,,,,,,,,,,,208.7509183000002,0.0009183000001939945,None,238.93655169999874,238.93655169999874,238.93655169999874,238.93655169999874,238.93655169999874,238.93655169999874,238.93655169999874,238.93655169999874,238.93655169999874,238.93655169999874,,009,P014,2025_Feb_28_1708,ConditionRich,2021.2.3,59.947653708420546,
212.0,212.75,39,0.75,Stimuli/P014/things_violin_07n.jpg,0,0.0,0.0,0,91,91,91,,,,,,,,,,,,,212.0028796000006,0.002879600000596838,None,242.20611759999883,242.20611759999883,242.20611759999883,242.20611759999883,242.20611759999883,242.20611759999883,242.20611759999883,242.20611759999883,242.20611759999883,242.20611759999883,,009,P014,2025_Feb_28_1708,ConditionRich,2021.2.3,59.947653708420546,
212.75,216.0,41,0.0,Stimuli/Blank.png,1,1.25,2.0,0,92,92,92,,,,,,,,,,,,,212.7705687000016,0.020568700001604157,1,242.9567723,242.9567723,242.9567723,242.9567723,242.9567723,242.9567723,244.1912013000001,244.94186379999883,242.9567723,242.9567723,1.5854624000003241,009,P014,2025_Feb_28_1708,ConditionRich,2021.2.3,59.947653708420546,
216.0,216.75,26,0.75,Stimuli/P014/things_cougar_07s.jpg,0,0.0,0.0,0,93,93,93,,,,,,,,,,,,,216.0066628000004,0.006662800000412972,None,246.20967799999926,246.20967799999926,246.20967799999926,246.20967799999926,246.20967799999926,246.20967799999926,246.20967799999926,246.20967799999926,246.20967799999926,246.20967799999926,,009,P014,2025_Feb_28_1708,ConditionRich,2021.2.3,59.947653708420546,
216.75,220.0,41,0.0,Stimuli/Blank.png,0,0.0,0.0,0,94,94,94,,,,,,,,,,,,,216.77580050000142,0.025800500001423643,None,246.97701489999963,246.97701489999963,246.97701489999963,246.97701489999963,246.97701489999963,246.97701489999963,246.97701489999963,246.97701489999963,246.97701489999963,246.97701489999963,,009,P014,2025_Feb_28_1708,ConditionRich,2021.2.3,59.947653708420546,
220.0,220.75,17,0.75,Stimuli/P014/sun_bsguftphqnrkbedw.jpg,0,0.0,0.0,0,95,95,95,,,,,,,,,,,,,220.02616080000007,0.026160800000070594,None,250.21319869999934,250.21319869999934,250.21319869999934,250.21319869999934,250.21319869999934,250.21319869999934,250.21319869999934,250.21319869999934,250.21319869999934,250.21319869999934,,009,P014,2025_Feb_28_1708,ConditionRich,2021.2.3,59.947653708420546,
220.75,224.0,41,0.0,Stimuli/Blank.png,0,0.0,0.0,0,96,96,96,,,,,,,,,,,,,220.76161070000126,0.011610700001256191,None,250.96388839999963,250.96388839999963,250.96388839999963,250.96388839999963,250.96388839999963,250.96388839999963,250.96388839999963,250.96388839999963,250.96388839999963,250.96388839999963,,009,P014,2025_Feb_28_1708,ConditionRich,2021.2.3,59.947653708420546,
224.0,224.75,25,0.75,Stimuli/P014/things_cashew_07s.jpg,0,0.0,0.0,0,97,97,97,,,,,,,,,,,,,224.03137849999985,0.0313784999998461,None,254.23341529999925,254.23341529999925,254.23341529999925,254.23341529999925,254.23341529999925,254.23341529999925,254.23341529999925,254.23341529999925,254.23341529999925,254.23341529999925,,009,P014,2025_Feb_28_1708,ConditionRich,2021.2.3,59.947653708420546,
224.75,228.0,41,0.0,Stimuli/Blank.png,1,2.25,3.0,0,98,98,98,,,,,,,,,,,,,224.78119810000135,0.031198100001347484,1,254.9673769000001,254.9673769000001,254.9673769000001,254.9673769000001,254.9673769000001,254.9673769000001,257.2027201000001,257.9533931999995,254.9673769000001,254.9673769000001,2.604912900000272,009,P014,2025_Feb_28_1708,ConditionRich,2021.2.3,59.947653708420546,
228.0,228.75,11,0.75,Stimuli/P014/sun_bfyxzbjsvqsobbky.jpg,0,0.0,0.0,0,99,99,99,,,,,,,,,,,,,228.00334450000082,0.0033445000008214265,None,258.203610999999,258.203610999999,258.203610999999,258.203610999999,258.203610999999,258.203610999999,258.203610999999,258.203610999999,258.203610999999,258.203610999999,,009,P014,2025_Feb_28_1708,ConditionRich,2021.2.3,59.947653708420546,
228.75,232.0,41,0.0,Stimuli/Blank.png,0,0.0,0.0,0,100,100,100,,,,,,,,,,,,,228.76737690000118,0.01737690000118164,None,258.95426979999866,258.95426979999866,258.95426979999866,258.95426979999866,258.95426979999866,258.95426979999866,258.95426979999866,258.95426979999866,258.95426979999866,258.95426979999866,,009,P014,2025_Feb_28_1708,ConditionRich,2021.2.3,59.947653708420546,
232.0,232.75,32,0.75,Stimuli/P014/things_mistletoe_07s.jpg,0,0.0,0.0,0,101,101,101,,,,,,,,,,,,,232.00422980000076,0.0042298000007576775,None,262.1904614999985,262.1904614999985,262.1904614999985,262.1904614999985,262.1904614999985,262.1904614999985,262.1904614999985,262.1904614999985,262.1904614999985,262.1904614999985,,009,P014,2025_Feb_28_1708,ConditionRich,2021.2.3,59.947653708420546,
232.75,236.0,41,0.0,Stimuli/Blank.png,0,0.0,0.0,0,102,102,102,,,,,,,,,,,,,232.7550564000012,0.005056400001194561,None,262.94113539999853,262.94113539999853,262.94113539999853,262.94113539999853,262.94113539999853,262.94113539999853,262.94113539999853,262.94113539999853,262.94113539999853,262.94113539999853,,009,P014,2025_Feb_28_1708,ConditionRich,2021.2.3,59.947653708420546,
236.0,236.75,21,0.75,Stimuli/P014/things_baby_07s.jpg,0,0.0,0.0,0,103,103,103,,,,,,,,,,,,,236.007061100001,0.007061100001010345,None,266.19401149999976,266.19401149999976,266.19401149999976,266.19401149999976,266.19401149999976,266.19401149999976,266.19401149999976,266.19401149999976,266.19401149999976,266.19401149999976,,009,P014,2025_Feb_28_1708,ConditionRich,2021.2.3,59.947653708420546,
236.75,240.0,41,0.0,Stimuli/Blank.png,0,0.0,0.0,0,104,104,104,,,,,,,,,,,,,236.75830959999985,0.008309599999847705,None,266.9446622999985,266.9446622999985,266.9446622999985,266.9446622999985,266.9446622999985,266.9446622999985,266.9446622999985,266.9446622999985,266.9446622999985,266.9446622999985,,009,P014,2025_Feb_28_1708,ConditionRich,2021.2.3,59.947653708420546,
240.0,240.75,12,0.75,Stimuli/P014/sun_bjyrrxiwsnbmkbqs.jpg,0,0.0,0.0,0,105,105,105,,,,,,,,,,,,,240.0106609000013,0.010660900001312257,None,270.1975442999992,270.1975442999992,270.1975442999992,270.1975442999992,270.1975442999992,270.1975442999992,270.1975442999992,270.1975442999992,270.1975442999992,270.1975442999992,,009,P014,2025_Feb_28_1708,ConditionRich,2021.2.3,59.947653708420546,
240.75,244.0,41,0.0,Stimuli/Blank.png,0,0.0,0.0,0,106,106,106,,,,,,,,,,,,,240.76115160000154,0.011151600001539919,None,270.9482107999993,270.9482107999993,270.9482107999993,270.9482107999993,270.9482107999993,270.9482107999993,270.9482107999993,270.9482107999993,270.9482107999993,270.9482107999993,,009,P014,2025_Feb_28_1708,ConditionRich,2021.2.3,59.947653708420546,
244.0,244.75,16,0.75,Stimuli/P014/sun_bsgtkqjrnrvttrax.jpg,0,0.0,0.0,0,107,107,107,,,,,,,,,,,,,244.016158800001,0.016158800000994233,None,274.21777250000014,274.21777250000014,274.21777250000014,274.21777250000014,274.21777250000014,274.21777250000014,274.21777250000014,274.21777250000014,274.21777250000014,274.21777250000014,,009,P014,2025_Feb_28_1708,ConditionRich,2021.2.3,59.947653708420546,
244.75,248.0,41,0.0,Stimuli/Blank.png,0,0.0,0.0,0,108,108,108,,,,,,,,,,,,,244.7653917000007,0.015391700000691344,None,274.95182190000014,274.95182190000014,274.95182190000014,274.95182190000014,274.95182190000014,274.95182190000014,274.95182190000014,274.95182190000014,274.95182190000014,274.95182190000014,,009,P014,2025_Feb_28_1708,ConditionRich,2021.2.3,59.947653708420546,
248.0,248.75,4,0.75,Stimuli/P014/sun_afgoiykvchxqotyz.jpg,0,0.0,0.0,0,109,109,109,,,,,,,,,,,,,248.00160289999985,0.001602899999852525,None,278.20461199999954,278.20461199999954,278.20461199999954,278.20461199999954,278.20461199999954,278.20461199999954,278.20461199999954,278.20461199999954,278.20461199999954,278.20461199999954,,009,P014,2025_Feb_28_1708,ConditionRich,2021.2.3,59.947653708420546,
248.75,252.0,41,0.0,Stimuli/Blank.png,0,0.0,0.0,0,110,110,110,,,,,,,,,,,,,248.76826940000137,0.01826940000137256,None,278.9552982999994,278.9552982999994,278.9552982999994,278.9552982999994,278.9552982999994,278.9552982999994,278.9552982999994,278.9552982999994,278.9552982999994,278.9552982999994,,009,P014,2025_Feb_28_1708,ConditionRich,2021.2.3,59.947653708420546,
252.0,252.75,18,0.75,Stimuli/P014/sun_btohwudpiusfvpvl.jpg,0,0.0,0.0,0,111,111,111,,,,,,,,,,,,,252.0055482000007,0.005548200000703218,None,282.2082154,282.2082154,282.2082154,282.2082154,282.2082154,282.2082154,282.2082154,282.2082154,282.2082154,282.2082154,,009,P014,2025_Feb_28_1708,ConditionRich,2021.2.3,59.947653708420546,
252.75,256.0,41,0.0,Stimuli/Blank.png,0,0.0,0.0,0,112,112,112,,,,,,,,,,,,,252.77314560000013,0.023145600000134436,None,282.95884809999916,282.95884809999916,282.95884809999916,282.95884809999916,282.95884809999916,282.95884809999916,282.95884809999916,282.95884809999916,282.95884809999916,282.95884809999916,,009,P014,2025_Feb_28_1708,ConditionRich,2021.2.3,59.947653708420546,
256.0,256.75,23,0.75,Stimuli/P014/things_bug_07s.jpg,0,0.0,0.0,0,113,113,113,,,,,,,,,,,,,256.0091725000002,0.009172500000204309,None,286.21171499999946,286.21171499999946,286.21171499999946,286.21171499999946,286.21171499999946,286.21171499999946,286.21171499999946,286.21171499999946,286.21171499999946,286.21171499999946,,009,P014,2025_Feb_28_1708,ConditionRich,2021.2.3,59.947653708420546,
256.75,260.0,41,0.0,Stimuli/Blank.png,1,1.25,2.0,0,114,114,114,,,,,,,,,,,,,256.7757964000011,0.02579640000112704,1,286.9623795999996,286.9623795999996,286.9623795999996,286.9623795999996,286.9623795999996,286.9623795999996,288.1968111999995,288.9475105999991,286.9623795999996,286.9623795999996,1.6722220000010566,009,P014,2025_Feb_28_1708,ConditionRich,2021.2.3,59.947653708420546,
260.0,260.75,35,0.75,Stimuli/P014/things_road_sign_07s.jpg,0,0.0,0.0,0,115,115,115,,,,,,,,,,,,,260.0115454000006,0.011545400000613881,None,290.19857219999903,290.19857219999903,290.19857219999903,290.19857219999903,290.19857219999903,290.19857219999903,290.19857219999903,290.19857219999903,290.19857219999903,290.19857219999903,,009,P014,2025_Feb_28_1708,ConditionRich,2021.2.3,59.947653708420546,
260.75,264.0,41,0.0,Stimuli/Blank.png,1,1.25,2.0,0,116,116,116,,,,,,,,,,,,,260.76465520000056,0.014655200000561308,1,290.9659385999985,290.9659385999985,290.9659385999985,290.9659385999985,290.9659385999985,290.9659385999985,292.2003455999984,292.95101280000017,290.9659385999985,290.9659385999985,1.6605048000001261,009,P014,2025_Feb_28_1708,ConditionRich,2021.2.3,59.947653708420546,
264.0,264.75,30,0.75,Stimuli/P014/things_man_07s.jpg,0,0.0,0.0,0,117,117,117,,,,,,,,,,,,,264.01577290000023,0.01577290000022913,None,294.21882059999916,294.21882059999916,294.21882059999916,294.21882059999916,294.21882059999916,294.21882059999916,294.21882059999916,294.21882059999916,294.21882059999916,294.21882059999916,,009,P014,2025_Feb_28_1708,ConditionRich,2021.2.3,59.947653708420546,
264.75,268.0,41,0.0,Stimuli/Blank.png,0,0.0,0.0,0,118,118,118,,,,,,,,,,,,,264.76585010000053,0.01585010000053444,None,294.95278270000017,294.95278270000017,294.95278270000017,294.95278270000017,294.95278270000017,294.95278270000017,294.95278270000017,294.95278270000017,294.95278270000017,294.95278270000017,,009,P014,2025_Feb_28_1708,ConditionRich,2021.2.3,59.947653708420546,
268.0,268.75,37,0.75,Stimuli/P014/things_slug_07s.jpg,0,0.0,0.0,0,119,119,119,,,,,,,,,,,,,268.00207410000075,0.0020741000007546972,None,298.20572019999963,298.20572019999963,298.20572019999963,298.20572019999963,298.20572019999963,298.20572019999963,298.20572019999963,298.20572019999963,298.20572019999963,298.20572019999963,,009,P014,2025_Feb_28_1708,ConditionRich,2021.2.3,59.947653708420546,
268.75,272.0,41,0.0,Stimuli/Blank.png,0,0.0,0.0,0,120,120,120,,,,,,,,,,,,,268.770217700001,0.020217700001012417,None,298.95632769999975,298.95632769999975,298.95632769999975,298.95632769999975,298.95632769999975,298.95632769999975,298.95632769999975,298.95632769999975,298.95632769999975,298.95632769999975,,009,P014,2025_Feb_28_1708,ConditionRich,2021.2.3,59.947653708420546,
272.0,272.75,8,0.75,Stimuli/P014/sun_auqrilekgmdmrncq.jpg,0,0.0,0.0,0,121,121,121,,,,,,,,,,,,,272.00658870000007,0.006588700000065728,None,302.19252529999903,302.19252529999903,302.19252529999903,302.19252529999903,302.19252529999903,302.19252529999903,302.19252529999903,302.19252529999903,302.19252529999903,302.19252529999903,,009,P014,2025_Feb_28_1708,ConditionRich,2021.2.3,59.947653708420546,
272.75,276.0,41,0.0,Stimuli/Blank.png,0,0.0,0.0,0,122,122,122,,,,,,,,,,,,,272.75645010000153,0.0064501000015297905,None,302.9431850000001,302.9431850000001,302.9431850000001,302.9431850000001,302.9431850000001,302.9431850000001,302.9431850000001,302.9431850000001,302.9431850000001,302.9431850000001,,009,P014,2025_Feb_28_1708,ConditionRich,2021.2.3,59.947653708420546,
276.0,292.0,0,0.0,Stimuli/Blank.png,1,5.0,5.75,0,123,123,123,,,,,,,,,,,,,276.011303700001,0.01130370000100811,1,306.2127671999988,306.2127671999988,306.2127671999988,306.2127671999988,306.2127671999988,306.2127671999988,311.20054439999876,311.9344755000002,306.2127671999988,306.2127671999988,5.414972000000489,009,P014,2025_Feb_28_1708,ConditionRich,2021.2.3,59.947653708420546,
292.0,292.75,24,0.75,Stimuli/P014/things_bungee_07s.jpg,0,0.0,0.0,0,124,124,124,,,,,,,,,,,,,292.02447930000017,0.024479300000166404,None,322.21023869999954,322.21023869999954,322.21023869999954,322.21023869999954,322.21023869999954,322.21023869999954,322.21023869999954,322.21023869999954,322.21023869999954,322.21023869999954,,009,P014,2025_Feb_28_1708,ConditionRich,2021.2.3,59.947653708420546,
292.75,296.0,41,0.0,Stimuli/Blank.png,0,0.0,0.0,0,125,125,125,,,,,,,,,,,,,292.75975720000133,0.009757200001331512,None,322.96092189999945,322.96092189999945,322.96092189999945,322.96092189999945,322.96092189999945,322.96092189999945,322.96092189999945,322.96092189999945,322.96092189999945,322.96092189999945,,009,P014,2025_Feb_28_1708,ConditionRich,2021.2.3,59.947653708420546,
296.0,296.75,29,0.75,Stimuli/P014/things_iguana_07s.jpg,0,0.0,0.0,0,126,126,126,,,,,,,,,,,,,296.02867479999986,0.028674799999862444,None,326.23046559999966,326.23046559999966,326.23046559999966,326.23046559999966,326.23046559999966,326.23046559999966,326.23046559999966,326.23046559999966,326.23046559999966,326.23046559999966,,009,P014,2025_Feb_28_1708,ConditionRich,2021.2.3,59.947653708420546,
296.75,300.0,41,0.0,Stimuli/Blank.png,0,0.0,0.0,0,127,127,127,,,,,,,,,,,,,296.7789395,0.02893949999997858,None,326.96445779999885,326.96445779999885,326.96445779999885,326.96445779999885,326.96445779999885,326.96445779999885,326.96445779999885,326.96445779999885,326.96445779999885,326.96445779999885,,009,P014,2025_Feb_28_1708,ConditionRich,2021.2.3,59.947653708420546,
300.0,300.75,6,0.75,Stimuli/P014/sun_aoejkkmwkfegacni.jpg,0,0.0,0.0,0,128,128,128,,,,,,,,,,,,,300.014500700001,0.014500700001008227,None,330.21735869999975,330.21735869999975,330.21735869999975,330.21735869999975,330.21735869999975,330.21735869999975,330.21735869999975,330.21735869999975,330.21735869999975,330.21735869999975,,009,P014,2025_Feb_28_1708,ConditionRich,2021.2.3,59.947653708420546,
300.75,304.0,41,0.0,Stimuli/Blank.png,0,0.0,0.0,0,129,129,129,,,,,,,,,,,,,300.78107790000104,0.03107790000103705,None,330.96811329999946,330.96811329999946,330.96811329999946,330.96811329999946,330.96811329999946,330.96811329999946,330.96811329999946,330.96811329999946,330.96811329999946,330.96811329999946,,009,P014,2025_Feb_28_1708,ConditionRich,2021.2.3,59.947653708420546,
304.0,304.75,2,0.75,Stimuli/P014/sun_adotnsaifoooswkf.jpg,0,0.0,0.0,0,130,130,130,,,,,,,,,,,,,304.0004896999999,0.000489699999889126,None,334.18749620000017,334.18749620000017,334.18749620000017,334.18749620000017,334.18749620000017,334.18749620000017,334.18749620000017,334.18749620000017,334.18749620000017,334.18749620000017,,009,P014,2025_Feb_28_1708,ConditionRich,2021.2.3,59.947653708420546,
304.75,308.0,41,0.0,Stimuli/Blank.png,0,0.0,0.0,0,131,131,131,,,,,,,,,,,,,304.7518170000003,0.00181700000030105,None,334.9381623999998,334.9381623999998,334.9381623999998,334.9381623999998,334.9381623999998,334.9381623999998,334.9381623999998,334.9381623999998,334.9381623999998,334.9381623999998,,009,P014,2025_Feb_28_1708,ConditionRich,2021.2.3,59.947653708420546,
308.0,308.75,38,0.75,Stimuli/P014/things_spark_plug_07s.jpg,0,0.0,0.0,0,132,132,132,,,,,,,,,,,,,308.00495670000055,0.004956700000548153,None,338.19103339999856,338.19103339999856,338.19103339999856,338.19103339999856,338.19103339999856,338.19103339999856,338.19103339999856,338.19103339999856,338.19103339999856,338.19103339999856,,009,P014,2025_Feb_28_1708,ConditionRich,2021.2.3,59.947653708420546,
308.75,312.0,41,0.0,Stimuli/Blank.png,0,0.0,0.0,0,133,133,133,,,,,,,,,,,,,308.7547875,0.004787500000020373,None,338.9417491999993,338.9417491999993,338.9417491999993,338.9417491999993,338.9417491999993,338.9417491999993,338.9417491999993,338.9417491999993,338.9417491999993,338.9417491999993,,009,P014,2025_Feb_28_1708,ConditionRich,2021.2.3,59.947653708420546,
312.0,312.75,10,0.75,Stimuli/P014/sun_bdhxnzyleoiflyak.jpg,0,0.0,0.0,0,134,134,134,,,,,,,,,,,,,312.0084110000007,0.008411000000705826,None,342.1946042999989,342.1946042999989,342.1946042999989,342.1946042999989,342.1946042999989,342.1946042999989,342.1946042999989,342.1946042999989,342.1946042999989,342.1946042999989,,009,P014,2025_Feb_28_1708,ConditionRich,2021.2.3,59.947653708420546,
312.75,316.0,41,0.0,Stimuli/Blank.png,0,0.0,0.0,0,135,135,135,,,,,,,,,,,,,312.7587676000003,0.008767600000282982,None,342.9452215000001,342.9452215000001,342.9452215000001,342.9452215000001,342.9452215000001,342.9452215000001,342.9452215000001,342.9452215000001,342.9452215000001,342.9452215000001,,009,P014,2025_Feb_28_1708,ConditionRich,2021.2.3,59.947653708420546,
316.0,316.75,14,0.75,Stimuli/P014/sun_bqhfterhwnqrbnzg.jpg,1,0.0,0.75,0,136,136,136,,,,,,,,,,,,,316.0116011000009,0.011601100000916631,1,346.19813149999936,346.19813149999936,346.19813149999936,346.19813149999936,346.19813149999936,346.19813149999936,346.19813149999936,346.9321060000002,346.19813149999936,346.19813149999936,0.5992939999996452,009,P014,2025_Feb_28_1708,ConditionRich,2021.2.3,59.947653708420546,
316.75,320.0,41,0.0,Stimuli/Blank.png,0,0.0,0.0,0,137,137,137,,,,,,,,,,,,,316.7649482000015,0.014948200001526857,None,346.96548829999847,346.96548829999847,346.96548829999847,346.96548829999847,346.96548829999847,346.96548829999847,346.96548829999847,346.96548829999847,346.96548829999847,346.96548829999847,,009,P014,2025_Feb_28_1708,ConditionRich,2021.2.3,59.947653708420546,
320.0,320.75,27,0.75,Stimuli/P014/things_face_07s.jpg,0,0.0,0.0,0,138,138,138,,,,,,,,,,,,,320.0175188000012,0.017518800001198542,None,350.21835959999953,350.21835959999953,350.21835959999953,350.21835959999953,350.21835959999953,350.21835959999953,350.21835959999953,350.21835959999953,350.21835959999953,350.21835959999953,,009,P014,2025_Feb_28_1708,ConditionRich,2021.2.3,59.947653708420546,
320.75,324.0,41,0.0,Stimuli/Blank.png,0,0.0,0.0,0,139,139,139,,,,,,,,,,,,,320.76743650000026,0.017436500000258093,None,350.9690336999993,350.9690336999993,350.9690336999993,350.9690336999993,350.9690336999993,350.9690336999993,350.9690336999993,350.9690336999993,350.9690336999993,350.9690336999993,,009,P014,2025_Feb_28_1708,ConditionRich,2021.2.3,59.947653708420546,
324.0,324.75,20,0.75,Stimuli/P014/sun_cidodcxikcyrdglc.jpg,0,0.0,0.0,0,140,140,140,,,,,,,,,,,,,324.01909420000084,0.01909420000083628,None,354.22191699999894,354.22191699999894,354.22191699999894,354.22191699999894,354.22191699999894,354.22191699999894,354.22191699999894,354.22191699999894,354.22191699999894,354.22191699999894,,009,P014,2025_Feb_28_1708,ConditionRich,2021.2.3,59.947653708420546,
324.75,328.0,41,0.0,Stimuli/Blank.png,0,0.0,0.0,0,141,141,141,,,,,,,,,,,,,324.76892640000005,0.018926400000054855,None,354.9558745999984,354.9558745999984,354.9558745999984,354.9558745999984,354.9558745999984,354.9558745999984,354.9558745999984,354.9558745999984,354.9558745999984,354.9558745999984,,009,P014,2025_Feb_28_1708,ConditionRich,2021.2.3,59.947653708420546,
328.0,328.75,28,0.75,Stimuli/P014/things_girl_07s.jpg,0,0.0,0.0,0,142,142,142,,,,,,,,,,,,,328.00630170000113,0.006301700001131394,None,358.20875579999847,358.20875579999847,358.20875579999847,358.20875579999847,358.20875579999847,358.20875579999847,358.20875579999847,358.20875579999847,358.20875579999847,358.20875579999847,,009,P014,2025_Feb_28_1708,ConditionRich,2021.2.3,59.947653708420546,
328.75,332.0,41,0.0,Stimuli/Blank.png,1,2.25,3.0,0,143,143,143,,,,,,,,,,,,,328.77262580000024,0.022625800000241725,1,358.95941909999965,358.95941909999965,358.95941909999965,358.95941909999965,358.95941909999965,358.95941909999965,361.1947167999988,361.94543319999866,358.95941909999965,358.95941909999965,2.6149760999996943,009,P014,2025_Feb_28_1708,ConditionRich,2021.2.3,59.947653708420546,
332.0,332.75,22,0.75,Stimuli/P014/things_banner_07s.jpg,0,0.0,0.0,0,144,144,144,,,,,,,,,,,,,332.00941480000074,0.009414800000740797,None,362.2123044,362.2123044,362.2123044,362.2123044,362.2123044,362.2123044,362.2123044,362.2123044,362.2123044,362.2123044,,009,P014,2025_Feb_28_1708,ConditionRich,2021.2.3,59.947653708420546,
332.75,336.0,41,0.0,Stimuli/Blank.png,0,0.0,0.0,0,145,145,145,,,,,,,,,,,,,332.77601630000026,0.02601630000026489,None,362.96296449999863,362.96296449999863,362.96296449999863,362.96296449999863,362.96296449999863,362.96296449999863,362.96296449999863,362.96296449999863,362.96296449999863,362.96296449999863,,009,P014,2025_Feb_28_1708,ConditionRich,2021.2.3,59.947653708420546,
336.0,336.75,31,0.75,Stimuli/P014/things_mask_07s.jpg,0,0.0,0.0,0,146,146,146,,,,,,,,,,,,,336.01217240000005,0.01217240000005404,None,366.1991617999993,366.1991617999993,366.1991617999993,366.1991617999993,366.1991617999993,366.1991617999993,366.1991617999993,366.1991617999993,366.1991617999993,366.1991617999993,,009,P014,2025_Feb_28_1708,ConditionRich,2021.2.3,59.947653708420546,
336.75,340.0,41,0.0,Stimuli/Blank.png,0,0.0,0.0,0,147,147,147,,,,,,,,,,,,,336.7637446000008,0.013744600000791252,None,366.94984399999885,366.94984399999885,366.94984399999885,366.94984399999885,366.94984399999885,366.94984399999885,366.94984399999885,366.94984399999885,366.94984399999885,366.94984399999885,,009,P014,2025_Feb_28_1708,ConditionRich,2021.2.3,59.947653708420546,
340.0,340.75,40,0.75,Stimuli/P014/things_woman_07s.jpg,0,0.0,0.0,0,148,148,148,,,,,,,,,,,,,339.9997775000011,-0.00022249999892665073,None,370.1860128999997,370.1860128999997,370.1860128999997,370.1860128999997,370.1860128999997,370.1860128999997,370.1860128999997,370.1860128999997,370.1860128999997,370.1860128999997,,009,P014,2025_Feb_28_1708,ConditionRich,2021.2.3,59.947653708420546,
340.75,344.0,41,0.0,Stimuli/Blank.png,0,0.0,0.0,0,149,149,149,,,,,,,,,,,,,340.75023500000134,0.00023500000133935828,None,370.9366773999991,370.9366773999991,370.9366773999991,370.9366773999991,370.9366773999991,370.9366773999991,370.9366773999991,370.9366773999991,370.9366773999991,370.9366773999991,,009,P014,2025_Feb_28_1708,ConditionRich,2021.2.3,59.947653708420546,
344.0,344.75,33,0.75,Stimuli/P014/things_piglet_07s.jpg,0,0.0,0.0,0,150,150,150,,,,,,,,,,,,,344.00252720000026,0.0025272000002587447,None,374.2062522999986,374.2062522999986,374.2062522999986,374.2062522999986,374.2062522999986,374.2062522999986,374.2062522999986,374.2062522999986,374.2062522999986,374.2062522999986,,009,P014,2025_Feb_28_1708,ConditionRich,2021.2.3,59.947653708420546,
344.75,348.0,41,0.0,Stimuli/Blank.png,0,0.0,0.0,0,151,151,151,,,,,,,,,,,,,344.7702201000011,0.020220100001097308,None,374.9569040999995,374.9569040999995,374.9569040999995,374.9569040999995,374.9569040999995,374.9569040999995,374.9569040999995,374.9569040999995,374.9569040999995,374.9569040999995,,009,P014,2025_Feb_28_1708,ConditionRich,2021.2.3,59.947653708420546,
348.0,348.75,1,0.75,Stimuli/P014/sun_adkmgqclfrkhfxbd.jpg,0,0.0,0.0,0,152,152,152,,,,,,,,,,,,,348.0060908000014,0.0060908000014023855,None,378.19309710000016,378.19309710000016,378.19309710000016,378.19309710000016,378.19309710000016,378.19309710000016,378.19309710000016,378.19309710000016,378.19309710000016,378.19309710000016,,009,P014,2025_Feb_28_1708,ConditionRich,2021.2.3,59.947653708420546,
348.75,352.0,41,0.0,Stimuli/Blank.png,0,0.0,0.0,0,153,153,153,,,,,,,,,,,,,348.75681670000085,0.0068167000008543255,None,378.9437650999989,378.9437650999989,378.9437650999989,378.9437650999989,378.9437650999989,378.9437650999989,378.9437650999989,378.9437650999989,378.9437650999989,378.9437650999989,,009,P014,2025_Feb_28_1708,ConditionRich,2021.2.3,59.947653708420546,
352.0,352.75,5,0.75,Stimuli/P014/sun_aidrxvbfhxtsusrf.jpg,0,0.0,0.0,0,154,154,154,,,,,,,,,,,,,352.0097786000006,0.009778600000572624,None,382.19664179999927,382.19664179999927,382.19664179999927,382.19664179999927,382.19664179999927,382.19664179999927,382.19664179999927,382.19664179999927,382.19664179999927,382.19664179999927,,009,P014,2025_Feb_28_1708,ConditionRich,2021.2.3,59.947653708420546,
352.75,356.0,41,0.0,Stimuli/Blank.png,0,0.0,0.0,0,155,155,155,,,,,,,,,,,,,352.762858600001,0.012858600000981824,None,382.9639963999998,382.9639963999998,382.9639963999998,382.9639963999998,382.9639963999998,382.9639963999998,382.9639963999998,382.9639963999998,382.9639963999998,382.9639963999998,,009,P014,2025_Feb_28_1708,ConditionRich,2021.2.3,59.947653708420546,
356.0,356.75,9,0.75,Stimuli/P014/sun_bdgwqzttihopmpbf.jpg,0,0.0,0.0,0,156,156,156,,,,,,,,,,,,,356.0139557000002,0.01395570000022417,None,386.2001885999998,386.2001885999998,386.2001885999998,386.2001885999998,386.2001885999998,386.2001885999998,386.2001885999998,386.2001885999998,386.2001885999998,386.2001885999998,,009,P014,2025_Feb_28_1708,ConditionRich,2021.2.3,59.947653708420546,
356.75,360.0,41,0.0,Stimuli/Blank.png,1,0.25,1.0,0,157,157,157,,,,,,,,,,,,,356.7645599000007,0.014559900000676862,1,386.950851399999,386.950851399999,386.950851399999,386.950851399999,386.950851399999,386.950851399999,387.1844229999988,387.9350521999986,386.950851399999,386.950851399999,0.7486820000012813,009,P014,2025_Feb_28_1708,ConditionRich,2021.2.3,59.947653708420546,
360.0,360.75,34,0.75,Stimuli/P014/things_radio_07s.jpg,1,0.0,0.75,0,158,158,158,,,,,,,,,,,,,360.0000742000011,7.420000110869296e-05,None,390.1870468999987,390.1870468999987,390.1870468999987,390.1870468999987,390.1870468999987,390.1870468999987,390.1870468999987,390.92105569999876,390.1870468999987,390.1870468999987,,009,P014,2025_Feb_28_1708,ConditionRich,2021.2.3,59.947653708420546,
360.75,364.0,41,0.0,Stimuli/Blank.png,0,0.0,0.0,0,159,159,159,,,,,,,,,,,,,360.7511200000008,0.0011200000008102506,1,390.93781820000004,390.93781820000004,390.93781820000004,390.93781820000004,390.93781820000004,390.93781820000004,390.93781820000004,390.93781820000004,390.93781820000004,390.93781820000004,0.10981979999996838,009,P014,2025_Feb_28_1708,ConditionRich,2021.2.3,59.947653708420546,
364.0,364.75,3,0.75,Stimuli/P014/sun_aengzsmykwchlrdn.jpg,0,0.0,0.0,0,160,160,160,,,,,,,,,,,,,364.0047125000001,0.004712500000096043,None,394.2072969000001,394.2072969000001,394.2072969000001,394.2072969000001,394.2072969000001,394.2072969000001,394.2072969000001,394.2072969000001,394.2072969000001,394.2072969000001,,009,P014,2025_Feb_28_1708,ConditionRich,2021.2.3,59.947653708420546,
364.75,368.0,41,0.0,Stimuli/Blank.png,0,0.0,0.0,0,161,161,161,,,,,,,,,,,,,364.77168150000034,0.021681500000340748,None,394.95794899999964,394.95794899999964,394.95794899999964,394.95794899999964,394.95794899999964,394.95794899999964,394.95794899999964,394.95794899999964,394.95794899999964,394.95794899999964,,009,P014,2025_Feb_28_1708,ConditionRich,2021.2.3,59.947653708420546,
368.0,368.75,13,0.75,Stimuli/P014/sun_bpccpwpohfirajtf.jpg,0,0.0,0.0,0,162,162,162,,,,,,,,,,,,,368.00723410000137,0.00723410000136937,None,398.1941300999988,398.1941300999988,398.1941300999988,398.1941300999988,398.1941300999988,398.1941300999988,398.1941300999988,398.1941300999988,398.1941300999988,398.1941300999988,,009,P014,2025_Feb_28_1708,ConditionRich,2021.2.3,59.947653708420546,
368.75,372.0,41,0.0,Stimuli/Blank.png,0,0.0,0.0,0,163,163,163,,,,,,,,,,,,,368.76084919999994,0.010849199999938719,None,398.9614882999995,398.9614882999995,398.9614882999995,398.9614882999995,398.9614882999995,398.9614882999995,398.9614882999995,398.9614882999995,398.9614882999995,398.9614882999995,,009,P014,2025_Feb_28_1708,ConditionRich,2021.2.3,59.947653708420546,
372.0,388.0,0,0.0,Stimuli/Blank.png,1,8.0,8.75,0,164,164,164,,,,,,,,,,,,,372.02820900000006,0.02820900000006077,1,402.21436259999973,402.21436259999973,402.21436259999973,402.21436259999973,402.21436259999973,402.21436259999973,410.204772699999,410.9554285999984,402.21436259999973,402.21436259999973,8.342189799999687,009,P014,2025_Feb_28_1708,ConditionRich,2021.2.3,59.947653708420546,
