eventStartTime,eventEndTime,eventCond,imSize,imFile,responseEvent,fixRespStart,fixRespEnd,Events.thisRepN,Events.thisTrialN,Events.thisN,Events.thisIndex,Instructions.started,Instructions.stopped,participantReadyResponse.keys,participantReadyResponse.rt,participantReadyResponse.started,participantReadyResponse.stopped,startWaitforTrigger,triggerResponse.keys,triggerResponse.rt,triggerResponse.started,triggerResponse.stopped,globalTimer,actualStartTime,startTimingDiff,participantResponse.keys,participantResponse.started,participantResponse.stopped,image.started,image.stopped,fixationOutside.started,fixationOutside.stopped,fixationResponse.started,fixationResponse.stopped,fixationInside.started,fixationInside.stopped,participantResponse.rt,session,participant,date,expName,psychopyVersion,frameRate,
,,,,,,,,,,,,8.973112300000139,None,1,3.1682184000001143,8.973112300000139,None,,,,,,,,,,,,,,,,,,,,,001,P014,2025_Feb_28_1553,ConditionRich,2021.2.3,59.90987158922619,
,,,,,,,,,,,,,,,,,,12.151852399998461,5,20.129408499999045,12.1649927999988,None,,,,,,,,,,,,,,,,001,P014,2025_Feb_28_1553,ConditionRich,2021.2.3,59.90987158922619,
0.0,4.0,0,0.0,Stimuli/Blank.png,0,0,0.0,0,0,0,0,,,,,,,,,,,,32.302592000000004,0.048177900000155205,0.048177900000155205,None,32.366411799999696,None,32.366411799999696,None,32.366411799999696,None,32.366411799999696,32.366411799999696,32.366411799999696,None,,001,P014,2025_Feb_28_1553,ConditionRich,2021.2.3,59.90987158922619,
4.0,4.75,16,0.75,Stimuli/P014/sun_bsgtkqjrnrvttrax.jpg,0,0,0.0,0,1,1,1,,,,,,,,,,,,,4.004686399999628,0.004686399999627611,None,36.32026179999957,36.32026179999957,36.32026179999957,36.32026179999957,36.32026179999957,36.32026179999957,36.32026179999957,36.32026179999957,36.32026179999957,36.32026179999957,,001,P014,2025_Feb_28_1553,ConditionRich,2021.2.3,59.90987158922619,
4.75,5.0,41,0.0,Stimuli/Blank.png,0,0,0.0,0,2,2,2,,,,,,,,,,,,,4.753726999999344,0.003726999999344116,None,37.070873999999094,37.070873999999094,37.070873999999094,37.070873999999094,37.070873999999094,37.070873999999094,37.070873999999094,37.070873999999094,37.070873999999094,37.070873999999094,,001,P014,2025_Feb_28_1553,ConditionRich,2021.2.3,59.90987158922619,
5.0,5.75,16,0.75,Stimuli/P014/sun_bsgtkqjrnrvttrax.jpg,0,0,0.0,0,3,3,3,,,,,,,,,,,,,5.003935400000046,0.0039354000000457745,None,37.32103279999865,37.32103279999865,37.32103279999865,37.32103279999865,37.32103279999865,37.32103279999865,37.32103279999865,37.32103279999865,37.32103279999865,37.32103279999865,,001,P014,2025_Feb_28_1553,ConditionRich,2021.2.3,59.90987158922619,
5.75,6.0,41,0.0,Stimuli/Blank.png,0,0,0.0,0,4,4,4,,,,,,,,,,,,,5.7545633999998245,0.004563399999824469,None,38.07148359999883,38.07148359999883,38.07148359999883,38.07148359999883,38.07148359999883,38.07148359999883,38.07148359999883,38.07148359999883,38.07148359999883,38.07148359999883,,001,P014,2025_Feb_28_1553,ConditionRich,2021.2.3,59.90987158922619,
6.0,6.75,16,0.75,Stimuli/P014/sun_bsgtkqjrnrvttrax.jpg,0,0,0.0,0,5,5,5,,,,,,,,,,,,,6.00563239999974,0.005632399999740301,None,38.32168509999974,38.32168509999974,38.32168509999974,38.32168509999974,38.32168509999974,38.32168509999974,38.32168509999974,38.32168509999974,38.32168509999974,38.32168509999974,,001,P014,2025_Feb_28_1553,ConditionRich,2021.2.3,59.90987158922619,
6.75,7.0,41,0.0,Stimuli/Blank.png,0,0,0.0,0,6,6,6,,,,,,,,,,,,,6.7557651000006445,0.005765100000644452,None,39.07234729999982,39.07234729999982,39.07234729999982,39.07234729999982,39.07234729999982,39.07234729999982,39.07234729999982,39.07234729999982,39.07234729999982,39.07234729999982,,001,P014,2025_Feb_28_1553,ConditionRich,2021.2.3,59.90987158922619,
7.0,7.75,16,0.75,Stimuli/P014/sun_bsgtkqjrnrvttrax.jpg,0,0,0.0,0,7,7,7,,,,,,,,,,,,,7.005500299999767,0.005500299999766867,None,39.32257260000006,39.32257260000006,39.32257260000006,39.32257260000006,39.32257260000006,39.32257260000006,39.32257260000006,39.32257260000006,39.32257260000006,39.32257260000006,,001,P014,2025_Feb_28_1553,ConditionRich,2021.2.3,59.90987158922619,
7.75,8.0,41,0.0,Stimuli/Blank.png,0,0,0.0,0,8,8,8,,,,,,,,,,,,,7.756845800000519,0.006845800000519375,None,40.0732638999998,40.0732638999998,40.0732638999998,40.0732638999998,40.0732638999998,40.0732638999998,40.0732638999998,40.0732638999998,40.0732638999998,40.0732638999998,,001,P014,2025_Feb_28_1553,ConditionRich,2021.2.3,59.90987158922619,
8.0,8.75,11,0.75,Stimuli/P014/sun_bfyxzbjsvqsobbky.jpg,0,0,0.0,0,9,9,9,,,,,,,,,,,,,8.007239799999297,0.007239799999297247,None,40.34013889999915,40.34013889999915,40.34013889999915,40.34013889999915,40.34013889999915,40.34013889999915,40.34013889999915,40.34013889999915,40.34013889999915,40.34013889999915,,001,P014,2025_Feb_28_1553,ConditionRich,2021.2.3,59.90987158922619,
8.75,9.0,41,0.0,Stimuli/Blank.png,0,0,0.0,0,10,10,10,,,,,,,,,,,,,8.774685300000783,0.024685300000783172,None,41.09081999999944,41.09081999999944,41.09081999999944,41.09081999999944,41.09081999999944,41.09081999999944,41.09081999999944,41.09081999999944,41.09081999999944,41.09081999999944,,001,P014,2025_Feb_28_1553,ConditionRich,2021.2.3,59.90987158922619,
9.0,9.75,11,0.75,Stimuli/P014/sun_bfyxzbjsvqsobbky.jpg,0,0,0.0,0,11,11,11,,,,,,,,,,,,,9.007059800000206,0.007059800000206451,None,41.34104049999951,41.34104049999951,41.34104049999951,41.34104049999951,41.34104049999951,41.34104049999951,41.34104049999951,41.34104049999951,41.34104049999951,41.34104049999951,,001,P014,2025_Feb_28_1553,ConditionRich,2021.2.3,59.90987158922619,
9.75,10.0,41,0.0,Stimuli/Blank.png,0,0,0.0,0,12,12,12,,,,,,,,,,,,,9.775692999999592,0.025692999999591848,None,42.0916946999987,42.0916946999987,42.0916946999987,42.0916946999987,42.0916946999987,42.0916946999987,42.0916946999987,42.0916946999987,42.0916946999987,42.0916946999987,,001,P014,2025_Feb_28_1553,ConditionRich,2021.2.3,59.90987158922619,
10.0,10.75,11,0.75,Stimuli/P014/sun_bfyxzbjsvqsobbky.jpg,0,0,0.0,0,13,13,13,,,,,,,,,,,,,10.011043000000427,0.011043000000427128,None,42.34191209999881,42.34191209999881,42.34191209999881,42.34191209999881,42.34191209999881,42.34191209999881,42.34191209999881,42.34191209999881,42.34191209999881,42.34191209999881,,001,P014,2025_Feb_28_1553,ConditionRich,2021.2.3,59.90987158922619,
10.75,11.0,41,0.0,Stimuli/Blank.png,0,0,0.0,0,14,14,14,,,,,,,,,,,,,10.776468199999726,0.026468199999726494,None,43.092578399999184,43.092578399999184,43.092578399999184,43.092578399999184,43.092578399999184,43.092578399999184,43.092578399999184,43.092578399999184,43.092578399999184,43.092578399999184,,001,P014,2025_Feb_28_1553,ConditionRich,2021.2.3,59.90987158922619,
11.0,11.75,11,0.75,Stimuli/P014/sun_bfyxzbjsvqsobbky.jpg,0,0,0.0,0,15,15,15,,,,,,,,,,,,,11.010460100000273,0.010460100000273087,None,43.34279569999853,43.34279569999853,43.34279569999853,43.34279569999853,43.34279569999853,43.34279569999853,43.34279569999853,43.34279569999853,43.34279569999853,43.34279569999853,,001,P014,2025_Feb_28_1553,ConditionRich,2021.2.3,59.90987158922619,
11.75,12.0,41,0.0,Stimuli/Blank.png,0,0,0.0,0,16,16,16,,,,,,,,,,,,,11.776339899999584,0.026339899999584304,None,44.09345880000001,44.09345880000001,44.09345880000001,44.09345880000001,44.09345880000001,44.09345880000001,44.09345880000001,44.09345880000001,44.09345880000001,44.09345880000001,,001,P014,2025_Feb_28_1553,ConditionRich,2021.2.3,59.90987158922619,
12.0,12.75,12,0.75,Stimuli/P014/sun_bjyrrxiwsnbmkbqs.jpg,0,0,0.0,0,17,17,17,,,,,,,,,,,,,12.009923100000378,0.009923100000378327,None,44.32701789999919,44.32701789999919,44.32701789999919,44.32701789999919,44.32701789999919,44.32701789999919,44.32701789999919,44.32701789999919,44.32701789999919,44.32701789999919,,001,P014,2025_Feb_28_1553,ConditionRich,2021.2.3,59.90987158922619,
12.75,13.0,41,0.0,Stimuli/Blank.png,0,0,0.0,0,18,18,18,,,,,,,,,,,,,12.760564000000159,0.010564000000158558,None,45.07767379999859,45.07767379999859,45.07767379999859,45.07767379999859,45.07767379999859,45.07767379999859,45.07767379999859,45.07767379999859,45.07767379999859,45.07767379999859,,001,P014,2025_Feb_28_1553,ConditionRich,2021.2.3,59.90987158922619,
13.0,13.75,12,0.75,Stimuli/P014/sun_bjyrrxiwsnbmkbqs.jpg,0,0,0.0,0,19,19,19,,,,,,,,,,,,,13.011372799999663,0.011372799999662675,None,45.34459379999862,45.34459379999862,45.34459379999862,45.34459379999862,45.34459379999862,45.34459379999862,45.34459379999862,45.34459379999862,45.34459379999862,45.34459379999862,,001,P014,2025_Feb_28_1553,ConditionRich,2021.2.3,59.90987158922619,
13.75,14.0,41,0.0,Stimuli/Blank.png,0,0,0.0,0,20,20,20,,,,,,,,,,,,,13.780963100000008,0.030963100000008126,None,46.111920699999246,46.111920699999246,46.111920699999246,46.111920699999246,46.111920699999246,46.111920699999246,46.111920699999246,46.111920699999246,46.111920699999246,46.111920699999246,,001,P014,2025_Feb_28_1553,ConditionRich,2021.2.3,59.90987158922619,
14.0,14.75,12,0.75,Stimuli/P014/sun_bjyrrxiwsnbmkbqs.jpg,0,0,0.0,0,21,21,21,,,,,,,,,,,,,14.030294199999844,0.03029419999984384,None,46.36214149999978,46.36214149999978,46.36214149999978,46.36214149999978,46.36214149999978,46.36214149999978,46.36214149999978,46.36214149999978,46.36214149999978,46.36214149999978,,001,P014,2025_Feb_28_1553,ConditionRich,2021.2.3,59.90987158922619,
14.75,15.0,41,0.0,Stimuli/Blank.png,0,0,0.0,0,22,22,22,,,,,,,,,,,,,14.779516099999455,0.029516099999455037,None,47.096126399999775,47.096126399999775,47.096126399999775,47.096126399999775,47.096126399999775,47.096126399999775,47.096126399999775,47.096126399999775,47.096126399999775,47.096126399999775,,001,P014,2025_Feb_28_1553,ConditionRich,2021.2.3,59.90987158922619,
15.0,15.75,12,0.75,Stimuli/P014/sun_bjyrrxiwsnbmkbqs.jpg,0,0,0.0,0,23,23,23,,,,,,,,,,,,,15.014948199999708,0.014948199999707867,None,47.34635199999866,47.34635199999866,47.34635199999866,47.34635199999866,47.34635199999866,47.34635199999866,47.34635199999866,47.34635199999866,47.34635199999866,47.34635199999866,,001,P014,2025_Feb_28_1553,ConditionRich,2021.2.3,59.90987158922619,
15.75,16.0,41,0.0,Stimuli/Blank.png,0,0,0.0,0,24,24,24,,,,,,,,,,,,,15.78038639999977,0.03038639999977022,None,48.09700909999992,48.09700909999992,48.09700909999992,48.09700909999992,48.09700909999992,48.09700909999992,48.09700909999992,48.09700909999992,48.09700909999992,48.09700909999992,,001,P014,2025_Feb_28_1553,ConditionRich,2021.2.3,59.90987158922619,
16.0,16.75,6,0.75,Stimuli/P014/sun_aoejkkmwkfegacni.jpg,0,0,0.0,0,25,25,25,,,,,,,,,,,,,16.014283799999248,0.014283799999248004,None,48.34723949999898,48.34723949999898,48.34723949999898,48.34723949999898,48.34723949999898,48.34723949999898,48.34723949999898,48.34723949999898,48.34723949999898,48.34723949999898,,001,P014,2025_Feb_28_1553,ConditionRich,2021.2.3,59.90987158922619,
16.75,17.0,41,0.0,Stimuli/Blank.png,0,0,0.0,0,26,26,26,,,,,,,,,,,,,16.78082650000033,0.03082650000033027,None,49.097894099999394,49.097894099999394,49.097894099999394,49.097894099999394,49.097894099999394,49.097894099999394,49.097894099999394,49.097894099999394,49.097894099999394,49.097894099999394,,001,P014,2025_Feb_28_1553,ConditionRich,2021.2.3,59.90987158922619,
17.0,17.75,6,0.75,Stimuli/P014/sun_aoejkkmwkfegacni.jpg,0,0,0.0,0,27,27,27,,,,,,,,,,,,,17.0149595999992,0.0149595999992016,None,49.34811660000014,49.34811660000014,49.34811660000014,49.34811660000014,49.34811660000014,49.34811660000014,49.34811660000014,49.34811660000014,49.34811660000014,49.34811660000014,,001,P014,2025_Feb_28_1553,ConditionRich,2021.2.3,59.90987158922619,
17.75,18.0,41,0.0,Stimuli/Blank.png,0,0,0.0,0,28,28,28,,,,,,,,,,,,,17.782373399999415,0.03237339999941469,None,50.09885620000023,50.09885620000023,50.09885620000023,50.09885620000023,50.09885620000023,50.09885620000023,50.09885620000023,50.09885620000023,50.09885620000023,50.09885620000023,,001,P014,2025_Feb_28_1553,ConditionRich,2021.2.3,59.90987158922619,
18.0,18.75,6,0.75,Stimuli/P014/sun_aoejkkmwkfegacni.jpg,0,0,0.0,0,29,29,29,,,,,,,,,,,,,17.999189100000876,-0.0008108999991236487,None,50.3323292999994,50.3323292999994,50.3323292999994,50.3323292999994,50.3323292999994,50.3323292999994,50.3323292999994,50.3323292999994,50.3323292999994,50.3323292999994,,001,P014,2025_Feb_28_1553,ConditionRich,2021.2.3,59.90987158922619,
18.75,19.0,41,0.0,Stimuli/Blank.png,0,0,0.0,0,30,30,30,,,,,,,,,,,,,18.766545399999814,0.016545399999813526,None,51.08298899999863,51.08298899999863,51.08298899999863,51.08298899999863,51.08298899999863,51.08298899999863,51.08298899999863,51.08298899999863,51.08298899999863,51.08298899999863,,001,P014,2025_Feb_28_1553,ConditionRich,2021.2.3,59.90987158922619,
19.0,19.75,6,0.75,Stimuli/P014/sun_aoejkkmwkfegacni.jpg,0,0,0.0,0,31,31,31,,,,,,,,,,,,,19.000734100000045,0.0007341000000451459,None,51.33322379999845,51.33322379999845,51.33322379999845,51.33322379999845,51.33322379999845,51.33322379999845,51.33322379999845,51.33322379999845,51.33322379999845,51.33322379999845,,001,P014,2025_Feb_28_1553,ConditionRich,2021.2.3,59.90987158922619,
19.75,20.0,41,0.0,Stimuli/Blank.png,0,0,0.0,0,32,32,32,,,,,,,,,,,,,19.76666540000042,0.01666540000042005,None,52.083869199999754,52.083869199999754,52.083869199999754,52.083869199999754,52.083869199999754,52.083869199999754,52.083869199999754,52.083869199999754,52.083869199999754,52.083869199999754,,001,P014,2025_Feb_28_1553,ConditionRich,2021.2.3,59.90987158922619,
20.0,20.75,32,0.75,Stimuli/P014/things_mistletoe_07s.jpg,1,0,0.75,0,33,33,33,,,,,,,,,,,,,20.000377200000003,0.000377200000002631,1,52.31741559999864,52.31741559999864,52.31741559999864,52.31741559999864,52.31741559999864,52.31741559999864,52.31741559999864,53.0514005999994,52.31741559999864,52.31741559999864,0.4680380999998306,001,P014,2025_Feb_28_1553,ConditionRich,2021.2.3,59.90987158922619,
20.75,21.0,41,0.0,Stimuli/Blank.png,0,0,0.0,0,34,34,34,,,,,,,,,,,,,20.75168819999999,0.0016881999999895925,None,53.06807370000024,53.06807370000024,53.06807370000024,53.06807370000024,53.06807370000024,53.06807370000024,53.06807370000024,53.06807370000024,53.06807370000024,53.06807370000024,,001,P014,2025_Feb_28_1553,ConditionRich,2021.2.3,59.90987158922619,
21.0,21.75,32,0.75,Stimuli/P014/things_mistletoe_07s.jpg,0,0,0.0,0,35,35,35,,,,,,,,,,,,,21.00117979999959,0.0011797999995906139,None,53.318302499999845,53.318302499999845,53.318302499999845,53.318302499999845,53.318302499999845,53.318302499999845,53.318302499999845,53.318302499999845,53.318302499999845,53.318302499999845,,001,P014,2025_Feb_28_1553,ConditionRich,2021.2.3,59.90987158922619,
21.75,22.0,41,0.0,Stimuli/Blank.png,0,0,0.0,0,36,36,36,,,,,,,,,,,,,21.754606300000887,0.004606300000887131,None,54.08566169999904,54.08566169999904,54.08566169999904,54.08566169999904,54.08566169999904,54.08566169999904,54.08566169999904,54.08566169999904,54.08566169999904,54.08566169999904,,001,P014,2025_Feb_28_1553,ConditionRich,2021.2.3,59.90987158922619,
22.0,22.75,32,0.75,Stimuli/P014/things_mistletoe_07s.jpg,0,0,0.0,0,37,37,37,,,,,,,,,,,,,22.019436599999608,0.019436599999608006,None,54.33586769999965,54.33586769999965,54.33586769999965,54.33586769999965,54.33586769999965,54.33586769999965,54.33586769999965,54.33586769999965,54.33586769999965,54.33586769999965,,001,P014,2025_Feb_28_1553,ConditionRich,2021.2.3,59.90987158922619,
22.75,23.0,41,0.0,Stimuli/Blank.png,0,0,0.0,0,38,38,38,,,,,,,,,,,,,22.75482539999939,0.004825399999390356,None,55.08655109999927,55.08655109999927,55.08655109999927,55.08655109999927,55.08655109999927,55.08655109999927,55.08655109999927,55.08655109999927,55.08655109999927,55.08655109999927,,001,P014,2025_Feb_28_1553,ConditionRich,2021.2.3,59.90987158922619,
23.0,23.75,32,0.75,Stimuli/P014/things_mistletoe_07s.jpg,0,0,0.0,0,39,39,39,,,,,,,,,,,,,23.020778599999176,0.02077859999917564,None,55.35351289999926,55.35351289999926,55.35351289999926,55.35351289999926,55.35351289999926,55.35351289999926,55.35351289999926,55.35351289999926,55.35351289999926,55.35351289999926,,001,P014,2025_Feb_28_1553,ConditionRich,2021.2.3,59.90987158922619,
23.75,24.0,41,0.0,Stimuli/Blank.png,0,0,0.0,0,40,40,40,,,,,,,,,,,,,23.77049310000075,0.02049310000074911,None,56.08741539999937,56.08741539999937,56.08741539999937,56.08741539999937,56.08741539999937,56.08741539999937,56.08741539999937,56.08741539999937,56.08741539999937,56.08741539999937,,001,P014,2025_Feb_28_1553,ConditionRich,2021.2.3,59.90987158922619,
24.0,24.75,19,0.75,Stimuli/P014/sun_buphlelowxjnoygy.jpg,0,0,0.0,0,41,41,41,,,,,,,,,,,,,24.00378450000062,0.003784500000620028,None,56.320953700000246,56.320953700000246,56.320953700000246,56.320953700000246,56.320953700000246,56.320953700000246,56.320953700000246,56.320953700000246,56.320953700000246,56.320953700000246,,001,P014,2025_Feb_28_1553,ConditionRich,2021.2.3,59.90987158922619,
24.75,25.0,41,0.0,Stimuli/Blank.png,0,0,0.0,0,42,42,42,,,,,,,,,,,,,24.755058400000053,0.005058400000052643,None,57.07162799999969,57.07162799999969,57.07162799999969,57.07162799999969,57.07162799999969,57.07162799999969,57.07162799999969,57.07162799999969,57.07162799999969,57.07162799999969,,001,P014,2025_Feb_28_1553,ConditionRich,2021.2.3,59.90987158922619,
25.0,25.75,19,0.75,Stimuli/P014/sun_buphlelowxjnoygy.jpg,0,0,0.0,0,43,43,43,,,,,,,,,,,,,25.005734800000937,0.005734800000936957,None,57.33854639999845,57.33854639999845,57.33854639999845,57.33854639999845,57.33854639999845,57.33854639999845,57.33854639999845,57.33854639999845,57.33854639999845,57.33854639999845,,001,P014,2025_Feb_28_1553,ConditionRich,2021.2.3,59.90987158922619,
25.75,26.0,41,0.0,Stimuli/Blank.png,0,0,0.0,0,44,44,44,,,,,,,,,,,,,25.77248800000052,0.022488000000521424,None,58.089182300000175,58.089182300000175,58.089182300000175,58.089182300000175,58.089182300000175,58.089182300000175,58.089182300000175,58.089182300000175,58.089182300000175,58.089182300000175,,001,P014,2025_Feb_28_1553,ConditionRich,2021.2.3,59.90987158922619,
26.0,26.75,19,0.75,Stimuli/P014/sun_buphlelowxjnoygy.jpg,0,0,0.0,0,45,45,45,,,,,,,,,,,,,26.00626630000079,0.00626630000078876,None,58.32273499999974,58.32273499999974,58.32273499999974,58.32273499999974,58.32273499999974,58.32273499999974,58.32273499999974,58.32273499999974,58.32273499999974,58.32273499999974,,001,P014,2025_Feb_28_1553,ConditionRich,2021.2.3,59.90987158922619,
26.75,27.0,41,0.0,Stimuli/Blank.png,0,0,0.0,0,46,46,46,,,,,,,,,,,,,26.756792800000767,0.006792800000766874,None,59.07339209999918,59.07339209999918,59.07339209999918,59.07339209999918,59.07339209999918,59.07339209999918,59.07339209999918,59.07339209999918,59.07339209999918,59.07339209999918,,001,P014,2025_Feb_28_1553,ConditionRich,2021.2.3,59.90987158922619,
27.0,27.75,19,0.75,Stimuli/P014/sun_buphlelowxjnoygy.jpg,1,0,0.75,0,47,47,47,,,,,,,,,,,,,27.007123800000045,0.0071238000000448665,1,59.32360869999866,59.32360869999866,59.32360869999866,59.32360869999866,59.32360869999866,59.32360869999866,59.32360869999866,60.057593699999416,59.32360869999866,59.32360869999866,0.4207605000010517,001,P014,2025_Feb_28_1553,ConditionRich,2021.2.3,59.90987158922619,
27.75,28.0,41,0.0,Stimuli/Blank.png,0,0,0.0,0,48,48,48,,,,,,,,,,,,,27.75971539999955,0.009715399999549845,None,60.090972999998485,60.090972999998485,60.090972999998485,60.090972999998485,60.090972999998485,60.090972999998485,60.090972999998485,60.090972999998485,60.090972999998485,60.090972999998485,,001,P014,2025_Feb_28_1553,ConditionRich,2021.2.3,59.90987158922619,
28.0,28.75,35,0.75,Stimuli/P014/things_road_sign_07s.jpg,0,0,0.0,0,49,49,49,,,,,,,,,,,,,28.024401399999988,0.024401399999987916,None,60.34118119999948,60.34118119999948,60.34118119999948,60.34118119999948,60.34118119999948,60.34118119999948,60.34118119999948,60.34118119999948,60.34118119999948,60.34118119999948,,001,P014,2025_Feb_28_1553,ConditionRich,2021.2.3,59.90987158922619,
28.75,29.0,41,0.0,Stimuli/Blank.png,0,0,0.0,0,50,50,50,,,,,,,,,,,,,28.75853830000051,0.00853830000050948,None,61.07516029999897,61.07516029999897,61.07516029999897,61.07516029999897,61.07516029999897,61.07516029999897,61.07516029999897,61.07516029999897,61.07516029999897,61.07516029999897,,001,P014,2025_Feb_28_1553,ConditionRich,2021.2.3,59.90987158922619,
29.0,29.75,35,0.75,Stimuli/P014/things_road_sign_07s.jpg,0,0,0.0,0,51,51,51,,,,,,,,,,,,,29.010743900000307,0.010743900000306894,None,61.34206989999984,61.34206989999984,61.34206989999984,61.34206989999984,61.34206989999984,61.34206989999984,61.34206989999984,61.34206989999984,61.34206989999984,61.34206989999984,,001,P014,2025_Feb_28_1553,ConditionRich,2021.2.3,59.90987158922619,
29.75,30.0,41,0.0,Stimuli/Blank.png,0,0,0.0,0,52,52,52,,,,,,,,,,,,,29.775620599999456,0.025620599999456317,None,62.093801999999414,62.093801999999414,62.093801999999414,62.093801999999414,62.093801999999414,62.093801999999414,62.093801999999414,62.093801999999414,62.093801999999414,62.093801999999414,,001,P014,2025_Feb_28_1553,ConditionRich,2021.2.3,59.90987158922619,
30.0,30.75,35,0.75,Stimuli/P014/things_road_sign_07s.jpg,0,0,0.0,0,53,53,53,,,,,,,,,,,,,30.010815499999808,0.010815499999807798,None,62.3262708000002,62.3262708000002,62.3262708000002,62.3262708000002,62.3262708000002,62.3262708000002,62.3262708000002,62.3262708000002,62.3262708000002,62.3262708000002,,001,P014,2025_Feb_28_1553,ConditionRich,2021.2.3,59.90987158922619,
30.75,31.0,41,0.0,Stimuli/Blank.png,0,0,0.0,0,54,54,54,,,,,,,,,,,,,30.760370399999374,0.010370399999374058,None,63.07693519999884,63.07693519999884,63.07693519999884,63.07693519999884,63.07693519999884,63.07693519999884,63.07693519999884,63.07693519999884,63.07693519999884,63.07693519999884,,001,P014,2025_Feb_28_1553,ConditionRich,2021.2.3,59.90987158922619,
31.0,31.75,35,0.75,Stimuli/P014/things_road_sign_07s.jpg,0,0,0.0,0,55,55,55,,,,,,,,,,,,,31.010929000000033,0.010929000000032829,None,63.32715449999887,63.32715449999887,63.32715449999887,63.32715449999887,63.32715449999887,63.32715449999887,63.32715449999887,63.32715449999887,63.32715449999887,63.32715449999887,,001,P014,2025_Feb_28_1553,ConditionRich,2021.2.3,59.90987158922619,
31.75,32.0,41,0.0,Stimuli/Blank.png,0,0,0.0,0,56,56,56,,,,,,,,,,,,,31.761086200000136,0.01108620000013616,None,64.07781639999848,64.07781639999848,64.07781639999848,64.07781639999848,64.07781639999848,64.07781639999848,64.07781639999848,64.07781639999848,64.07781639999848,64.07781639999848,,001,P014,2025_Feb_28_1553,ConditionRich,2021.2.3,59.90987158922619,
32.0,32.75,18,0.75,Stimuli/P014/sun_btohwudpiusfvpvl.jpg,0,0,0.0,0,57,57,57,,,,,,,,,,,,,32.01091070000075,0.010910700000749785,None,64.32804279999982,64.32804279999982,64.32804279999982,64.32804279999982,64.32804279999982,64.32804279999982,64.32804279999982,64.32804279999982,64.32804279999982,64.32804279999982,,001,P014,2025_Feb_28_1553,ConditionRich,2021.2.3,59.90987158922619,
32.75,33.0,41,0.0,Stimuli/Blank.png,0,0,0.0,0,58,58,58,,,,,,,,,,,,,32.762377499999275,0.012377499999274733,None,65.07870759999969,65.07870759999969,65.07870759999969,65.07870759999969,65.07870759999969,65.07870759999969,65.07870759999969,65.07870759999969,65.07870759999969,65.07870759999969,,001,P014,2025_Feb_28_1553,ConditionRich,2021.2.3,59.90987158922619,
33.0,33.75,18,0.75,Stimuli/P014/sun_btohwudpiusfvpvl.jpg,0,0,0.0,0,59,59,59,,,,,,,,,,,,,33.01255390000006,0.012553900000057183,None,65.34560579999925,65.34560579999925,65.34560579999925,65.34560579999925,65.34560579999925,65.34560579999925,65.34560579999925,65.34560579999925,65.34560579999925,65.34560579999925,,001,P014,2025_Feb_28_1553,ConditionRich,2021.2.3,59.90987158922619,
33.75,34.0,41,0.0,Stimuli/Blank.png,0,0,0.0,0,60,60,60,,,,,,,,,,,,,33.7792313000009,0.029231300000901683,None,66.0962843999987,66.0962843999987,66.0962843999987,66.0962843999987,66.0962843999987,66.0962843999987,66.0962843999987,66.0962843999987,66.0962843999987,66.0962843999987,,001,P014,2025_Feb_28_1553,ConditionRich,2021.2.3,59.90987158922619,
34.0,34.75,18,0.75,Stimuli/P014/sun_btohwudpiusfvpvl.jpg,0,0,0.0,0,61,61,61,,,,,,,,,,,,,34.013098600000376,0.013098600000375882,None,66.32981479999944,66.32981479999944,66.32981479999944,66.32981479999944,66.32981479999944,66.32981479999944,66.32981479999944,66.32981479999944,66.32981479999944,66.32981479999944,,001,P014,2025_Feb_28_1553,ConditionRich,2021.2.3,59.90987158922619,
34.75,35.0,41,0.0,Stimuli/Blank.png,0,0,0.0,0,62,62,62,,,,,,,,,,,,,34.764650499999334,0.014650499999333988,None,67.08048579999922,67.08048579999922,67.08048579999922,67.08048579999922,67.08048579999922,67.08048579999922,67.08048579999922,67.08048579999922,67.08048579999922,67.08048579999922,,001,P014,2025_Feb_28_1553,ConditionRich,2021.2.3,59.90987158922619,
35.0,35.75,18,0.75,Stimuli/P014/sun_btohwudpiusfvpvl.jpg,0,0,0.0,0,63,63,63,,,,,,,,,,,,,35.01456739999958,0.014567399999577901,None,67.34740280000005,67.34740280000005,67.34740280000005,67.34740280000005,67.34740280000005,67.34740280000005,67.34740280000005,67.34740280000005,67.34740280000005,67.34740280000005,,001,P014,2025_Feb_28_1553,ConditionRich,2021.2.3,59.90987158922619,
35.75,36.0,41,0.0,Stimuli/Blank.png,0,0,0.0,0,64,64,64,,,,,,,,,,,,,35.780856699999276,0.030856699999276316,None,68.09804619999886,68.09804619999886,68.09804619999886,68.09804619999886,68.09804619999886,68.09804619999886,68.09804619999886,68.09804619999886,68.09804619999886,68.09804619999886,,001,P014,2025_Feb_28_1553,ConditionRich,2021.2.3,59.90987158922619,
36.0,36.75,24,0.75,Stimuli/P014/things_bungee_07s.jpg,0,0,0.0,0,65,65,65,,,,,,,,,,,,,36.0143891000007,0.014389100000698818,None,68.33159460000024,68.33159460000024,68.33159460000024,68.33159460000024,68.33159460000024,68.33159460000024,68.33159460000024,68.33159460000024,68.33159460000024,68.33159460000024,,001,P014,2025_Feb_28_1553,ConditionRich,2021.2.3,59.90987158922619,
36.75,37.0,41,0.0,Stimuli/Blank.png,0,0,0.0,0,66,66,66,,,,,,,,,,,,,36.767111700000896,0.017111700000896235,None,69.08226819999982,69.08226819999982,69.08226819999982,69.08226819999982,69.08226819999982,69.08226819999982,69.08226819999982,69.08226819999982,69.08226819999982,69.08226819999982,,001,P014,2025_Feb_28_1553,ConditionRich,2021.2.3,59.90987158922619,
37.0,37.75,24,0.75,Stimuli/P014/things_bungee_07s.jpg,0,0,0.0,0,67,67,67,,,,,,,,,,,,,37.0008426000004,0.0008426000003964873,None,69.33247399999891,69.33247399999891,69.33247399999891,69.33247399999891,69.33247399999891,69.33247399999891,69.33247399999891,69.33247399999891,69.33247399999891,69.33247399999891,,001,P014,2025_Feb_28_1553,ConditionRich,2021.2.3,59.90987158922619,
37.75,38.0,41,0.0,Stimuli/Blank.png,0,0,0.0,0,68,68,68,,,,,,,,,,,,,37.76651529999981,0.01651529999980994,None,70.08314989999963,70.08314989999963,70.08314989999963,70.08314989999963,70.08314989999963,70.08314989999963,70.08314989999963,70.08314989999963,70.08314989999963,70.08314989999963,,001,P014,2025_Feb_28_1553,ConditionRich,2021.2.3,59.90987158922619,
38.0,38.75,24,0.75,Stimuli/P014/things_bungee_07s.jpg,0,0,0.0,0,69,69,69,,,,,,,,,,,,,37.99947179999981,-0.0005282000001898268,None,70.31667949999974,70.31667949999974,70.31667949999974,70.31667949999974,70.31667949999974,70.31667949999974,70.31667949999974,70.31667949999974,70.31667949999974,70.31667949999974,,001,P014,2025_Feb_28_1553,ConditionRich,2021.2.3,59.90987158922619,
38.75,39.0,41,0.0,Stimuli/Blank.png,0,0,0.0,0,70,70,70,,,,,,,,,,,,,38.750265099999524,0.00026509999952395447,None,71.06734890000007,71.06734890000007,71.06734890000007,71.06734890000007,71.06734890000007,71.06734890000007,71.06734890000007,71.06734890000007,71.06734890000007,71.06734890000007,,001,P014,2025_Feb_28_1553,ConditionRich,2021.2.3,59.90987158922619,
39.0,39.75,24,0.75,Stimuli/P014/things_bungee_07s.jpg,0,0,0.0,0,71,71,71,,,,,,,,,,,,,39.001203499999974,0.0012034999999741558,None,71.3176042999985,71.3176042999985,71.3176042999985,71.3176042999985,71.3176042999985,71.3176042999985,71.3176042999985,71.3176042999985,71.3176042999985,71.3176042999985,,001,P014,2025_Feb_28_1553,ConditionRich,2021.2.3,59.90987158922619,
39.75,40.0,41,0.0,Stimuli/Blank.png,0,0,0.0,0,72,72,72,,,,,,,,,,,,,39.75158250000095,0.001582500000949949,None,72.06822809999903,72.06822809999903,72.06822809999903,72.06822809999903,72.06822809999903,72.06822809999903,72.06822809999903,72.06822809999903,72.06822809999903,72.06822809999903,,001,P014,2025_Feb_28_1553,ConditionRich,2021.2.3,59.90987158922619,
40.0,40.75,28,0.75,Stimuli/P014/things_girl_07s.jpg,0,0,0.0,0,73,73,73,,,,,,,,,,,,,40.0012798000007,0.0012798000007023802,None,72.31844959999944,72.31844959999944,72.31844959999944,72.31844959999944,72.31844959999944,72.31844959999944,72.31844959999944,72.31844959999944,72.31844959999944,72.31844959999944,,001,P014,2025_Feb_28_1553,ConditionRich,2021.2.3,59.90987158922619,
40.75,41.0,41,0.0,Stimuli/Blank.png,0,0,0.0,0,74,74,74,,,,,,,,,,,,,40.752524400000766,0.002524400000766036,None,73.06907989999854,73.06907989999854,73.06907989999854,73.06907989999854,73.06907989999854,73.06907989999854,73.06907989999854,73.06907989999854,73.06907989999854,73.06907989999854,,001,P014,2025_Feb_28_1553,ConditionRich,2021.2.3,59.90987158922619,
41.0,41.75,28,0.75,Stimuli/P014/things_girl_07s.jpg,0,0,0.0,0,75,75,75,,,,,,,,,,,,,41.00225209999917,0.002252099999168422,None,73.33603819999917,73.33603819999917,73.33603819999917,73.33603819999917,73.33603819999917,73.33603819999917,73.33603819999917,73.33603819999917,73.33603819999917,73.33603819999917,,001,P014,2025_Feb_28_1553,ConditionRich,2021.2.3,59.90987158922619,
41.75,42.0,41,0.0,Stimuli/Blank.png,0,0,0.0,0,76,76,76,,,,,,,,,,,,,41.770107199999984,0.020107199999984005,None,74.08668859999852,74.08668859999852,74.08668859999852,74.08668859999852,74.08668859999852,74.08668859999852,74.08668859999852,74.08668859999852,74.08668859999852,74.08668859999852,,001,P014,2025_Feb_28_1553,ConditionRich,2021.2.3,59.90987158922619,
42.0,42.75,28,0.75,Stimuli/P014/things_girl_07s.jpg,0,0,0.0,0,77,77,77,,,,,,,,,,,,,42.00461820000055,0.004618200000550132,None,74.33691649999855,74.33691649999855,74.33691649999855,74.33691649999855,74.33691649999855,74.33691649999855,74.33691649999855,74.33691649999855,74.33691649999855,74.33691649999855,,001,P014,2025_Feb_28_1553,ConditionRich,2021.2.3,59.90987158922619,
42.75,43.0,41,0.0,Stimuli/Blank.png,0,0,0.0,0,78,78,78,,,,,,,,,,,,,42.77101120000043,0.021011200000430108,None,75.08757890000015,75.08757890000015,75.08757890000015,75.08757890000015,75.08757890000015,75.08757890000015,75.08757890000015,75.08757890000015,75.08757890000015,75.08757890000015,,001,P014,2025_Feb_28_1553,ConditionRich,2021.2.3,59.90987158922619,
43.0,43.75,28,0.75,Stimuli/P014/things_girl_07s.jpg,0,0,0.0,0,79,79,79,,,,,,,,,,,,,43.00593289999961,0.005932899999606889,None,75.33780109999861,75.33780109999861,75.33780109999861,75.33780109999861,75.33780109999861,75.33780109999861,75.33780109999861,75.33780109999861,75.33780109999861,75.33780109999861,,001,P014,2025_Feb_28_1553,ConditionRich,2021.2.3,59.90987158922619,
43.75,44.0,41,0.0,Stimuli/Blank.png,0,0,0.0,0,80,80,80,,,,,,,,,,,,,43.77189139999973,0.02189139999973122,None,76.08844940000017,76.08844940000017,76.08844940000017,76.08844940000017,76.08844940000017,76.08844940000017,76.08844940000017,76.08844940000017,76.08844940000017,76.08844940000017,,001,P014,2025_Feb_28_1553,ConditionRich,2021.2.3,59.90987158922619,
44.0,44.75,22,0.75,Stimuli/P014/things_banner_07s.jpg,0,0,0.0,0,81,81,81,,,,,,,,,,,,,44.00600669999949,0.006006699999488774,None,76.33878039999945,76.33878039999945,76.33878039999945,76.33878039999945,76.33878039999945,76.33878039999945,76.33878039999945,76.33878039999945,76.33878039999945,76.33878039999945,,001,P014,2025_Feb_28_1553,ConditionRich,2021.2.3,59.90987158922619,
44.75,45.0,41,0.0,Stimuli/Blank.png,0,0,0.0,0,82,82,82,,,,,,,,,,,,,44.772572100000616,0.022572100000616047,None,77.08934210000007,77.08934210000007,77.08934210000007,77.08934210000007,77.08934210000007,77.08934210000007,77.08934210000007,77.08934210000007,77.08934210000007,77.08934210000007,,001,P014,2025_Feb_28_1553,ConditionRich,2021.2.3,59.90987158922619,
45.0,45.75,22,0.75,Stimuli/P014/things_banner_07s.jpg,0,0,0.0,0,83,83,83,,,,,,,,,,,,,45.006900500000484,0.006900500000483589,None,77.33959309999955,77.33959309999955,77.33959309999955,77.33959309999955,77.33959309999955,77.33959309999955,77.33959309999955,77.33959309999955,77.33959309999955,77.33959309999955,,001,P014,2025_Feb_28_1553,ConditionRich,2021.2.3,59.90987158922619,
45.75,46.0,41,0.0,Stimuli/Blank.png,0,0,0.0,0,84,84,84,,,,,,,,,,,,,45.77299669999957,0.022996699999566772,None,78.09022249999907,78.09022249999907,78.09022249999907,78.09022249999907,78.09022249999907,78.09022249999907,78.09022249999907,78.09022249999907,78.09022249999907,78.09022249999907,,001,P014,2025_Feb_28_1553,ConditionRich,2021.2.3,59.90987158922619,
46.0,46.75,22,0.75,Stimuli/P014/things_banner_07s.jpg,0,0,0.0,0,85,85,85,,,,,,,,,,,,,46.00670859999991,0.006708599999910803,None,78.32376440000007,78.32376440000007,78.32376440000007,78.32376440000007,78.32376440000007,78.32376440000007,78.32376440000007,78.32376440000007,78.32376440000007,78.32376440000007,,001,P014,2025_Feb_28_1553,ConditionRich,2021.2.3,59.90987158922619,
46.75,47.0,41,0.0,Stimuli/Blank.png,0,0,0.0,0,86,86,86,,,,,,,,,,,,,46.758166400000846,0.008166400000845897,None,79.07449909999923,79.07449909999923,79.07449909999923,79.07449909999923,79.07449909999923,79.07449909999923,79.07449909999923,79.07449909999923,79.07449909999923,79.07449909999923,,001,P014,2025_Feb_28_1553,ConditionRich,2021.2.3,59.90987158922619,
47.0,47.75,22,0.75,Stimuli/P014/things_banner_07s.jpg,0,0,0.0,0,87,87,87,,,,,,,,,,,,,47.00826589999997,0.008265899999969406,None,79.34135119999883,79.34135119999883,79.34135119999883,79.34135119999883,79.34135119999883,79.34135119999883,79.34135119999883,79.34135119999883,79.34135119999883,79.34135119999883,,001,P014,2025_Feb_28_1553,ConditionRich,2021.2.3,59.90987158922619,
47.75,48.0,41,0.0,Stimuli/Blank.png,0,0,0.0,0,88,88,88,,,,,,,,,,,,,47.77545789999931,0.02545789999931003,None,80.09200409999903,80.09200409999903,80.09200409999903,80.09200409999903,80.09200409999903,80.09200409999903,80.09200409999903,80.09200409999903,80.09200409999903,80.09200409999903,,001,P014,2025_Feb_28_1553,ConditionRich,2021.2.3,59.90987158922619,
48.0,48.75,8,0.75,Stimuli/P014/sun_auqrilekgmdmrncq.jpg,0,0,0.0,0,89,89,89,,,,,,,,,,,,,48.008909800000765,0.008909800000765244,None,80.32553609999923,80.32553609999923,80.32553609999923,80.32553609999923,80.32553609999923,80.32553609999923,80.32553609999923,80.32553609999923,80.32553609999923,80.32553609999923,,001,P014,2025_Feb_28_1553,ConditionRich,2021.2.3,59.90987158922619,
48.75,49.0,41,0.0,Stimuli/Blank.png,0,0,0.0,0,90,90,90,,,,,,,,,,,,,48.76181739999993,0.011817399999927147,None,81.09290879999935,81.09290879999935,81.09290879999935,81.09290879999935,81.09290879999935,81.09290879999935,81.09290879999935,81.09290879999935,81.09290879999935,81.09290879999935,,001,P014,2025_Feb_28_1553,ConditionRich,2021.2.3,59.90987158922619,
49.0,49.75,8,0.75,Stimuli/P014/sun_auqrilekgmdmrncq.jpg,0,0,0.0,0,91,91,91,,,,,,,,,,,,,49.02628779999941,0.02628779999940889,None,81.34310430000005,81.34310430000005,81.34310430000005,81.34310430000005,81.34310430000005,81.34310430000005,81.34310430000005,81.34310430000005,81.34310430000005,81.34310430000005,,001,P014,2025_Feb_28_1553,ConditionRich,2021.2.3,59.90987158922619,
49.75,50.0,41,0.0,Stimuli/Blank.png,0,0,0.0,0,92,92,92,,,,,,,,,,,,,49.75986779999948,0.009867799999483395,None,82.07707979999941,82.07707979999941,82.07707979999941,82.07707979999941,82.07707979999941,82.07707979999941,82.07707979999941,82.07707979999941,82.07707979999941,82.07707979999941,,001,P014,2025_Feb_28_1553,ConditionRich,2021.2.3,59.90987158922619,
50.0,50.75,8,0.75,Stimuli/P014/sun_auqrilekgmdmrncq.jpg,0,0,0.0,0,93,93,93,,,,,,,,,,,,,50.00997989999996,0.009979899999962072,None,82.32730209999863,82.32730209999863,82.32730209999863,82.32730209999863,82.32730209999863,82.32730209999863,82.32730209999863,82.32730209999863,82.32730209999863,82.32730209999863,,001,P014,2025_Feb_28_1553,ConditionRich,2021.2.3,59.90987158922619,
50.75,51.0,41,0.0,Stimuli/Blank.png,0,0,0.0,0,94,94,94,,,,,,,,,,,,,50.76142970000001,0.01142970000000787,None,83.07796950000011,83.07796950000011,83.07796950000011,83.07796950000011,83.07796950000011,83.07796950000011,83.07796950000011,83.07796950000011,83.07796950000011,83.07796950000011,,001,P014,2025_Feb_28_1553,ConditionRich,2021.2.3,59.90987158922619,
51.0,51.75,8,0.75,Stimuli/P014/sun_auqrilekgmdmrncq.jpg,1,0,0.75,0,95,95,95,,,,,,,,,,,,,51.0116665000005,0.0116665000005014,1,83.32819359999849,83.32819359999849,83.32819359999849,83.32819359999849,83.32819359999849,83.32819359999849,83.32819359999849,84.06217139999899,83.32819359999849,83.32819359999849,0.358419900001536,001,P014,2025_Feb_28_1553,ConditionRich,2021.2.3,59.90987158922619,
51.75,52.0,41,0.0,Stimuli/Blank.png,0,0,0.0,0,96,96,96,,,,,,,,,,,,,51.76240379999945,0.012403799999447074,None,84.07886030000009,84.07886030000009,84.07886030000009,84.07886030000009,84.07886030000009,84.07886030000009,84.07886030000009,84.07886030000009,84.07886030000009,84.07886030000009,,001,P014,2025_Feb_28_1553,ConditionRich,2021.2.3,59.90987158922619,
52.0,52.75,34,0.75,Stimuli/P014/things_radio_07s.jpg,0,0,0.0,0,97,97,97,,,,,,,,,,,,,52.01233879999927,0.012338799999270122,None,84.32908959999986,84.32908959999986,84.32908959999986,84.32908959999986,84.32908959999986,84.32908959999986,84.32908959999986,84.32908959999986,84.32908959999986,84.32908959999986,,001,P014,2025_Feb_28_1553,ConditionRich,2021.2.3,59.90987158922619,
52.75,53.0,41,0.0,Stimuli/Blank.png,0,0,0.0,0,98,98,98,,,,,,,,,,,,,52.76395009999942,0.013950099999419763,None,85.0797623999988,85.0797623999988,85.0797623999988,85.0797623999988,85.0797623999988,85.0797623999988,85.0797623999988,85.0797623999988,85.0797623999988,85.0797623999988,,001,P014,2025_Feb_28_1553,ConditionRich,2021.2.3,59.90987158922619,
53.0,53.75,34,0.75,Stimuli/P014/things_radio_07s.jpg,1,0,0.75,0,99,99,99,,,,,,,,,,,,,53.01574930000061,0.015749300000607036,1,85.34665369999857,85.34665369999857,85.34665369999857,85.34665369999857,85.34665369999857,85.34665369999857,85.34665369999857,None,85.34665369999857,85.34665369999857,0.5508728999993764,001,P014,2025_Feb_28_1553,ConditionRich,2021.2.3,59.90987158922619,
53.75,54.0,41,0.0,Stimuli/Blank.png,0,0,0.0,0,100,100,100,,,,,,,,,,,,,53.764390000000276,0.014390000000275904,None,86.08064629999899,86.08064629999899,86.08064629999899,86.08064629999899,86.08064629999899,86.08064629999899,86.08064629999899,86.08064629999899,86.08064629999899,86.08064629999899,,001,P014,2025_Feb_28_1553,ConditionRich,2021.2.3,59.90987158922619,
54.0,54.75,34,0.75,Stimuli/P014/things_radio_07s.jpg,0,0,0.0,0,101,101,101,,,,,,,,,,,,,54.01611539999976,0.016115399999762303,None,86.34754079999948,86.34754079999948,86.34754079999948,86.34754079999948,86.34754079999948,86.34754079999948,86.34754079999948,86.34754079999948,86.34754079999948,86.34754079999948,,001,P014,2025_Feb_28_1553,ConditionRich,2021.2.3,59.90987158922619,
54.75,55.0,41,0.0,Stimuli/Blank.png,0,0,0.0,0,102,102,102,,,,,,,,,,,,,54.76628759999949,0.0162875999994867,None,87.0982071999988,87.0982071999988,87.0982071999988,87.0982071999988,87.0982071999988,87.0982071999988,87.0982071999988,87.0982071999988,87.0982071999988,87.0982071999988,,001,P014,2025_Feb_28_1553,ConditionRich,2021.2.3,59.90987158922619,
55.0,55.75,34,0.75,Stimuli/P014/things_radio_07s.jpg,0,0,0.0,0,103,103,103,,,,,,,,,,,,,55.0151793999994,0.015179399999396992,None,87.33175940000001,87.33175940000001,87.33175940000001,87.33175940000001,87.33175940000001,87.33175940000001,87.33175940000001,87.33175940000001,87.33175940000001,87.33175940000001,,001,P014,2025_Feb_28_1553,ConditionRich,2021.2.3,59.90987158922619,
55.75,56.0,41,0.0,Stimuli/Blank.png,0,0,0.0,0,104,104,104,,,,,,,,,,,,,55.75056129999939,0.0005612999993900303,None,88.08242549999886,88.08242549999886,88.08242549999886,88.08242549999886,88.08242549999886,88.08242549999886,88.08242549999886,88.08242549999886,88.08242549999886,88.08242549999886,,001,P014,2025_Feb_28_1553,ConditionRich,2021.2.3,59.90987158922619,
56.0,56.75,17,0.75,Stimuli/P014/sun_bsguftphqnrkbedw.jpg,0,0,0.0,0,105,105,105,,,,,,,,,,,,,56.01668389999941,0.016683899999407004,None,88.33262879999893,88.33262879999893,88.33262879999893,88.33262879999893,88.33262879999893,88.33262879999893,88.33262879999893,88.33262879999893,88.33262879999893,88.33262879999893,,001,P014,2025_Feb_28_1553,ConditionRich,2021.2.3,59.90987158922619,
56.75,57.0,41,0.0,Stimuli/Blank.png,0,0,0.0,0,106,106,106,,,,,,,,,,,,,56.75198900000032,0.001989000000321539,None,89.08329849999973,89.08329849999973,89.08329849999973,89.08329849999973,89.08329849999973,89.08329849999973,89.08329849999973,89.08329849999973,89.08329849999973,89.08329849999973,,001,P014,2025_Feb_28_1553,ConditionRich,2021.2.3,59.90987158922619,
57.0,57.75,17,0.75,Stimuli/P014/sun_bsguftphqnrkbedw.jpg,0,0,0.0,0,107,107,107,,,,,,,,,,,,,57.016853600000104,0.016853600000104052,None,89.33350699999937,89.33350699999937,89.33350699999937,89.33350699999937,89.33350699999937,89.33350699999937,89.33350699999937,89.33350699999937,89.33350699999937,89.33350699999937,,001,P014,2025_Feb_28_1553,ConditionRich,2021.2.3,59.90987158922619,
57.75,58.0,41,0.0,Stimuli/Blank.png,0,0,0.0,0,108,108,108,,,,,,,,,,,,,57.750173300000824,0.00017330000082438346,None,90.06751079999958,90.06751079999958,90.06751079999958,90.06751079999958,90.06751079999958,90.06751079999958,90.06751079999958,90.06751079999958,90.06751079999958,90.06751079999958,,001,P014,2025_Feb_28_1553,ConditionRich,2021.2.3,59.90987158922619,
58.0,58.75,17,0.75,Stimuli/P014/sun_bsguftphqnrkbedw.jpg,0,0,0.0,0,109,109,109,,,,,,,,,,,,,58.001193399999465,0.0011933999994653277,None,90.3177367999997,90.3177367999997,90.3177367999997,90.3177367999997,90.3177367999997,90.3177367999997,90.3177367999997,90.3177367999997,90.3177367999997,90.3177367999997,,001,P014,2025_Feb_28_1553,ConditionRich,2021.2.3,59.90987158922619,
58.75,59.0,41,0.0,Stimuli/Blank.png,0,0,0.0,0,110,110,110,,,,,,,,,,,,,58.751826800000345,0.0018268000003445195,None,91.06838699999935,91.06838699999935,91.06838699999935,91.06838699999935,91.06838699999935,91.06838699999935,91.06838699999935,91.06838699999935,91.06838699999935,91.06838699999935,,001,P014,2025_Feb_28_1553,ConditionRich,2021.2.3,59.90987158922619,
59.0,59.75,17,0.75,Stimuli/P014/sun_bsguftphqnrkbedw.jpg,0,0,0.0,0,111,111,111,,,,,,,,,,,,,59.0015285999998,0.0015285999998013722,None,91.3186095000001,91.3186095000001,91.3186095000001,91.3186095000001,91.3186095000001,91.3186095000001,91.3186095000001,91.3186095000001,91.3186095000001,91.3186095000001,,001,P014,2025_Feb_28_1553,ConditionRich,2021.2.3,59.90987158922619,
59.75,60.0,41,0.0,Stimuli/Blank.png,0,0,0.0,0,112,112,112,,,,,,,,,,,,,59.753223899999284,0.0032238999992841855,None,92.06926219999878,92.06926219999878,92.06926219999878,92.06926219999878,92.06926219999878,92.06926219999878,92.06926219999878,92.06926219999878,92.06926219999878,92.06926219999878,,001,P014,2025_Feb_28_1553,ConditionRich,2021.2.3,59.90987158922619,
60.0,60.75,14,0.75,Stimuli/P014/sun_bqhfterhwnqrbnzg.jpg,0,0,0.0,0,113,113,113,,,,,,,,,,,,,60.00276219999978,0.0027621999997791136,None,92.31948389999889,92.31948389999889,92.31948389999889,92.31948389999889,92.31948389999889,92.31948389999889,92.31948389999889,92.31948389999889,92.31948389999889,92.31948389999889,,001,P014,2025_Feb_28_1553,ConditionRich,2021.2.3,59.90987158922619,
60.75,61.0,41,0.0,Stimuli/Blank.png,0,0,0.0,0,114,114,114,,,,,,,,,,,,,60.75300319999951,0.0030031999995117076,None,93.07014819999858,93.07014819999858,93.07014819999858,93.07014819999858,93.07014819999858,93.07014819999858,93.07014819999858,93.07014819999858,93.07014819999858,93.07014819999858,,001,P014,2025_Feb_28_1553,ConditionRich,2021.2.3,59.90987158922619,
61.0,61.75,14,0.75,Stimuli/P014/sun_bqhfterhwnqrbnzg.jpg,0,0,0.0,0,115,115,115,,,,,,,,,,,,,61.0058996000007,0.005899600000702776,None,93.33706439999878,93.33706439999878,93.33706439999878,93.33706439999878,93.33706439999878,93.33706439999878,93.33706439999878,93.33706439999878,93.33706439999878,93.33706439999878,,001,P014,2025_Feb_28_1553,ConditionRich,2021.2.3,59.90987158922619,
61.75,62.0,41,0.0,Stimuli/Blank.png,0,0,0.0,0,116,116,116,,,,,,,,,,,,,61.771750100000645,0.021750100000645034,None,94.08775349999996,94.08775349999996,94.08775349999996,94.08775349999996,94.08775349999996,94.08775349999996,94.08775349999996,94.08775349999996,94.08775349999996,94.08775349999996,,001,P014,2025_Feb_28_1553,ConditionRich,2021.2.3,59.90987158922619,
62.0,62.75,14,0.75,Stimuli/P014/sun_bqhfterhwnqrbnzg.jpg,0,0,0.0,0,117,117,117,,,,,,,,,,,,,62.00401670000065,0.004016700000647688,None,94.32126679999965,94.32126679999965,94.32126679999965,94.32126679999965,94.32126679999965,94.32126679999965,94.32126679999965,94.32126679999965,94.32126679999965,94.32126679999965,,001,P014,2025_Feb_28_1553,ConditionRich,2021.2.3,59.90987158922619,
62.75,63.0,41,0.0,Stimuli/Blank.png,0,0,0.0,0,118,118,118,,,,,,,,,,,,,62.75519329999952,0.005193299999518786,None,95.07193129999905,95.07193129999905,95.07193129999905,95.07193129999905,95.07193129999905,95.07193129999905,95.07193129999905,95.07193129999905,95.07193129999905,95.07193129999905,,001,P014,2025_Feb_28_1553,ConditionRich,2021.2.3,59.90987158922619,
63.0,63.75,14,0.75,Stimuli/P014/sun_bqhfterhwnqrbnzg.jpg,0,0,0.0,0,119,119,119,,,,,,,,,,,,,63.00492280000071,0.004922800000713323,None,95.32216599999992,95.32216599999992,95.32216599999992,95.32216599999992,95.32216599999992,95.32216599999992,95.32216599999992,95.32216599999992,95.32216599999992,95.32216599999992,,001,P014,2025_Feb_28_1553,ConditionRich,2021.2.3,59.90987158922619,
63.75,64.0,41,0.0,Stimuli/Blank.png,0,0,0.0,0,120,120,120,,,,,,,,,,,,,63.75641329999962,0.006413299999621813,None,96.07281179999882,96.07281179999882,96.07281179999882,96.07281179999882,96.07281179999882,96.07281179999882,96.07281179999882,96.07281179999882,96.07281179999882,96.07281179999882,,001,P014,2025_Feb_28_1553,ConditionRich,2021.2.3,59.90987158922619,
64.0,64.75,36,0.75,Stimuli/P014/things_seafood_07s.jpg,0,0,0.0,0,121,121,121,,,,,,,,,,,,,64.00582629999917,0.0058262999991711695,None,96.32308279999961,96.32308279999961,96.32308279999961,96.32308279999961,96.32308279999961,96.32308279999961,96.32308279999961,96.32308279999961,96.32308279999961,96.32308279999961,,001,P014,2025_Feb_28_1553,ConditionRich,2021.2.3,59.90987158922619,
64.75,65.0,41,0.0,Stimuli/Blank.png,0,0,0.0,0,122,122,122,,,,,,,,,,,,,64.7566225999999,0.006622599999900558,None,97.07371439999952,97.07371439999952,97.07371439999952,97.07371439999952,97.07371439999952,97.07371439999952,97.07371439999952,97.07371439999952,97.07371439999952,97.07371439999952,,001,P014,2025_Feb_28_1553,ConditionRich,2021.2.3,59.90987158922619,
65.0,65.75,36,0.75,Stimuli/P014/things_seafood_07s.jpg,0,0,0.0,0,123,123,123,,,,,,,,,,,,,65.00708830000076,0.007088300000759773,None,97.32394979999845,97.32394979999845,97.32394979999845,97.32394979999845,97.32394979999845,97.32394979999845,97.32394979999845,97.32394979999845,97.32394979999845,97.32394979999845,,001,P014,2025_Feb_28_1553,ConditionRich,2021.2.3,59.90987158922619,
65.75,66.0,41,0.0,Stimuli/Blank.png,0,0,0.0,0,124,124,124,,,,,,,,,,,,,65.75758189999942,0.007581899999422603,None,98.07458319999932,98.07458319999932,98.07458319999932,98.07458319999932,98.07458319999932,98.07458319999932,98.07458319999932,98.07458319999932,98.07458319999932,98.07458319999932,,001,P014,2025_Feb_28_1553,ConditionRich,2021.2.3,59.90987158922619,
66.0,66.75,36,0.75,Stimuli/P014/things_seafood_07s.jpg,0,0,0.0,0,125,125,125,,,,,,,,,,,,,66.01139990000047,0.011399900000469643,None,98.34150289999889,98.34150289999889,98.34150289999889,98.34150289999889,98.34150289999889,98.34150289999889,98.34150289999889,98.34150289999889,98.34150289999889,98.34150289999889,,001,P014,2025_Feb_28_1553,ConditionRich,2021.2.3,59.90987158922619,
66.75,67.0,41,0.0,Stimuli/Blank.png,0,0,0.0,0,126,126,126,,,,,,,,,,,,,66.77558200000021,0.025582000000213156,None,99.09215579999909,99.09215579999909,99.09215579999909,99.09215579999909,99.09215579999909,99.09215579999909,99.09215579999909,99.09215579999909,99.09215579999909,99.09215579999909,,001,P014,2025_Feb_28_1553,ConditionRich,2021.2.3,59.90987158922619,
67.0,67.75,36,0.75,Stimuli/P014/things_seafood_07s.jpg,0,0,0.0,0,127,127,127,,,,,,,,,,,,,67.0106240999994,0.01062409999940428,None,99.34237989999929,99.34237989999929,99.34237989999929,99.34237989999929,99.34237989999929,99.34237989999929,99.34237989999929,99.34237989999929,99.34237989999929,99.34237989999929,,001,P014,2025_Feb_28_1553,ConditionRich,2021.2.3,59.90987158922619,
67.75,68.0,41,0.0,Stimuli/Blank.png,0,0,0.0,0,128,128,128,,,,,,,,,,,,,67.77695610000046,0.026956100000461447,None,100.10974459999852,100.10974459999852,100.10974459999852,100.10974459999852,100.10974459999852,100.10974459999852,100.10974459999852,100.10974459999852,100.10974459999852,100.10974459999852,,001,P014,2025_Feb_28_1553,ConditionRich,2021.2.3,59.90987158922619,
68.0,68.75,4,0.75,Stimuli/P014/sun_afgoiykvchxqotyz.jpg,0,0,0.0,0,129,129,129,,,,,,,,,,,,,68.02666490000047,0.02666490000046906,None,100.3432662999985,100.3432662999985,100.3432662999985,100.3432662999985,100.3432662999985,100.3432662999985,100.3432662999985,100.3432662999985,100.3432662999985,100.3432662999985,,001,P014,2025_Feb_28_1553,ConditionRich,2021.2.3,59.90987158922619,
68.75,69.0,41,0.0,Stimuli/Blank.png,0,0,0.0,0,130,130,130,,,,,,,,,,,,,68.76004160000048,0.010041600000477047,None,101.07724069999858,101.07724069999858,101.07724069999858,101.07724069999858,101.07724069999858,101.07724069999858,101.07724069999858,101.07724069999858,101.07724069999858,101.07724069999858,,001,P014,2025_Feb_28_1553,ConditionRich,2021.2.3,59.90987158922619,
69.0,69.75,4,0.75,Stimuli/P014/sun_afgoiykvchxqotyz.jpg,0,0,0.0,0,131,131,131,,,,,,,,,,,,,69.01135720000093,0.011357200000929879,None,101.34416379999857,101.34416379999857,101.34416379999857,101.34416379999857,101.34416379999857,101.34416379999857,101.34416379999857,101.34416379999857,101.34416379999857,101.34416379999857,,001,P014,2025_Feb_28_1553,ConditionRich,2021.2.3,59.90987158922619,
69.75,70.0,41,0.0,Stimuli/Blank.png,0,0,0.0,0,132,132,132,,,,,,,,,,,,,69.77914860000055,0.029148600000553415,None,102.09483199999886,102.09483199999886,102.09483199999886,102.09483199999886,102.09483199999886,102.09483199999886,102.09483199999886,102.09483199999886,102.09483199999886,102.09483199999886,,001,P014,2025_Feb_28_1553,ConditionRich,2021.2.3,59.90987158922619,
70.0,70.75,4,0.75,Stimuli/P014/sun_afgoiykvchxqotyz.jpg,0,0,0.0,0,133,133,133,,,,,,,,,,,,,70.01127439999982,0.011274399999820162,None,102.32834299999922,102.32834299999922,102.32834299999922,102.32834299999922,102.32834299999922,102.32834299999922,102.32834299999922,102.32834299999922,102.32834299999922,102.32834299999922,,001,P014,2025_Feb_28_1553,ConditionRich,2021.2.3,59.90987158922619,
70.75,71.0,41,0.0,Stimuli/Blank.png,0,0,0.0,0,134,134,134,,,,,,,,,,,,,70.76189840000006,0.011898400000063702,None,103.07901529999981,103.07901529999981,103.07901529999981,103.07901529999981,103.07901529999981,103.07901529999981,103.07901529999981,103.07901529999981,103.07901529999981,103.07901529999981,,001,P014,2025_Feb_28_1553,ConditionRich,2021.2.3,59.90987158922619,
71.0,71.75,4,0.75,Stimuli/P014/sun_afgoiykvchxqotyz.jpg,0,0,0.0,0,135,135,135,,,,,,,,,,,,,71.01291830000082,0.012918300000819727,None,103.34592749999865,103.34592749999865,103.34592749999865,103.34592749999865,103.34592749999865,103.34592749999865,103.34592749999865,103.34592749999865,103.34592749999865,103.34592749999865,,001,P014,2025_Feb_28_1553,ConditionRich,2021.2.3,59.90987158922619,
71.75,72.0,41,0.0,Stimuli/Blank.png,0,0,0.0,0,136,136,136,,,,,,,,,,,,,71.78192870000021,0.031928700000207755,None,104.11327759999949,104.11327759999949,104.11327759999949,104.11327759999949,104.11327759999949,104.11327759999949,104.11327759999949,104.11327759999949,104.11327759999949,104.11327759999949,,001,P014,2025_Feb_28_1553,ConditionRich,2021.2.3,59.90987158922619,
72.0,72.75,7,0.75,Stimuli/P014/sun_aojplsluiikxrfxc.jpg,0,0,0.0,0,137,137,137,,,,,,,,,,,,,72.03015419999974,0.03015419999974256,None,104.34680389999994,104.34680389999994,104.34680389999994,104.34680389999994,104.34680389999994,104.34680389999994,104.34680389999994,104.34680389999994,104.34680389999994,104.34680389999994,,001,P014,2025_Feb_28_1553,ConditionRich,2021.2.3,59.90987158922619,
72.75,73.0,41,0.0,Stimuli/Blank.png,0,0,0.0,0,138,138,138,,,,,,,,,,,,,72.76569089999975,0.015690899999754038,None,105.09748089999994,105.09748089999994,105.09748089999994,105.09748089999994,105.09748089999994,105.09748089999994,105.09748089999994,105.09748089999994,105.09748089999994,105.09748089999994,,001,P014,2025_Feb_28_1553,ConditionRich,2021.2.3,59.90987158922619,
73.0,73.75,7,0.75,Stimuli/P014/sun_aojplsluiikxrfxc.jpg,0,0,0.0,0,139,139,139,,,,,,,,,,,,,73.01704749999953,0.01704749999953492,None,105.34770219999882,105.34770219999882,105.34770219999882,105.34770219999882,105.34770219999882,105.34770219999882,105.34770219999882,105.34770219999882,105.34770219999882,105.34770219999882,,001,P014,2025_Feb_28_1553,ConditionRich,2021.2.3,59.90987158922619,
73.75,74.0,41,0.0,Stimuli/Blank.png,0,0,0.0,0,140,140,140,,,,,,,,,,,,,73.76587950000066,0.015879500000664848,None,106.08168459999979,106.08168459999979,106.08168459999979,106.08168459999979,106.08168459999979,106.08168459999979,106.08168459999979,106.08168459999979,106.08168459999979,106.08168459999979,,001,P014,2025_Feb_28_1553,ConditionRich,2021.2.3,59.90987158922619,
74.0,74.75,7,0.75,Stimuli/P014/sun_aojplsluiikxrfxc.jpg,0,0,0.0,0,141,141,141,,,,,,,,,,,,,73.99823070000093,-0.0017692999990686076,None,106.33190039999863,106.33190039999863,106.33190039999863,106.33190039999863,106.33190039999863,106.33190039999863,106.33190039999863,106.33190039999863,106.33190039999863,106.33190039999863,,001,P014,2025_Feb_28_1553,ConditionRich,2021.2.3,59.90987158922619,
74.75,75.0,41,0.0,Stimuli/Blank.png,0,0,0.0,0,142,142,142,,,,,,,,,,,,,74.78215740000087,0.03215740000086953,None,107.09924729999875,107.09924729999875,107.09924729999875,107.09924729999875,107.09924729999875,107.09924729999875,107.09924729999875,107.09924729999875,107.09924729999875,107.09924729999875,,001,P014,2025_Feb_28_1553,ConditionRich,2021.2.3,59.90987158922619,
75.0,75.75,7,0.75,Stimuli/P014/sun_aojplsluiikxrfxc.jpg,0,0,0.0,0,143,143,143,,,,,,,,,,,,,75.00105690000055,0.0010569000005489215,None,107.3327862999995,107.3327862999995,107.3327862999995,107.3327862999995,107.3327862999995,107.3327862999995,107.3327862999995,107.3327862999995,107.3327862999995,107.3327862999995,,001,P014,2025_Feb_28_1553,ConditionRich,2021.2.3,59.90987158922619,
75.75,76.0,41,0.0,Stimuli/Blank.png,0,0,0.0,0,144,144,144,,,,,,,,,,,,,75.76628359999995,0.016283599999951548,None,108.08343989999958,108.08343989999958,108.08343989999958,108.08343989999958,108.08343989999958,108.08343989999958,108.08343989999958,108.08343989999958,108.08343989999958,108.08343989999958,,001,P014,2025_Feb_28_1553,ConditionRich,2021.2.3,59.90987158922619,
76.0,76.75,31,0.75,Stimuli/P014/things_mask_07s.jpg,0,0,0.0,0,145,145,145,,,,,,,,,,,,,76.00043560000086,0.00043560000085562933,None,108.33365739999863,108.33365739999863,108.33365739999863,108.33365739999863,108.33365739999863,108.33365739999863,108.33365739999863,108.33365739999863,108.33365739999863,108.33365739999863,,001,P014,2025_Feb_28_1553,ConditionRich,2021.2.3,59.90987158922619,
76.75,77.0,41,0.0,Stimuli/Blank.png,0,0,0.0,0,146,146,146,,,,,,,,,,,,,76.76732730000003,0.017327300000033574,None,109.08432989999892,109.08432989999892,109.08432989999892,109.08432989999892,109.08432989999892,109.08432989999892,109.08432989999892,109.08432989999892,109.08432989999892,109.08432989999892,,001,P014,2025_Feb_28_1553,ConditionRich,2021.2.3,59.90987158922619,
77.0,77.75,31,0.75,Stimuli/P014/things_mask_07s.jpg,0,0,0.0,0,147,147,147,,,,,,,,,,,,,77.00160359999973,0.0016035999997257022,None,109.3345137999986,109.3345137999986,109.3345137999986,109.3345137999986,109.3345137999986,109.3345137999986,109.3345137999986,109.3345137999986,109.3345137999986,109.3345137999986,,001,P014,2025_Feb_28_1553,ConditionRich,2021.2.3,59.90987158922619,
77.75,78.0,41,0.0,Stimuli/Blank.png,0,0,0.0,0,148,148,148,,,,,,,,,,,,,77.7686735999996,0.01867359999960172,None,110.08522999999877,110.08522999999877,110.08522999999877,110.08522999999877,110.08522999999877,110.08522999999877,110.08522999999877,110.08522999999877,110.08522999999877,110.08522999999877,,001,P014,2025_Feb_28_1553,ConditionRich,2021.2.3,59.90987158922619,
78.0,78.75,31,0.75,Stimuli/P014/things_mask_07s.jpg,1,0,0.75,0,149,149,149,,,,,,,,,,,,,78.00237860000016,0.002378600000156439,1,110.3354373000002,110.3354373000002,110.3354373000002,110.3354373000002,110.3354373000002,110.3354373000002,110.3354373000002,111.05273419999867,110.3354373000002,110.3354373000002,0.3350836999998137,001,P014,2025_Feb_28_1553,ConditionRich,2021.2.3,59.90987158922619,
78.75,79.0,41,0.0,Stimuli/Blank.png,0,0,0.0,0,150,150,150,,,,,,,,,,,,,78.76984059999995,0.019840599999952246,None,111.08612079999875,111.08612079999875,111.08612079999875,111.08612079999875,111.08612079999875,111.08612079999875,111.08612079999875,111.08612079999875,111.08612079999875,111.08612079999875,,001,P014,2025_Feb_28_1553,ConditionRich,2021.2.3,59.90987158922619,
79.0,79.75,31,0.75,Stimuli/P014/things_mask_07s.jpg,0,0,0.0,0,151,151,151,,,,,,,,,,,,,79.00299909999922,0.0029990999992151046,None,111.31963670000005,111.31963670000005,111.31963670000005,111.31963670000005,111.31963670000005,111.31963670000005,111.31963670000005,111.31963670000005,111.31963670000005,111.31963670000005,,001,P014,2025_Feb_28_1553,ConditionRich,2021.2.3,59.90987158922619,
79.75,80.0,41,0.0,Stimuli/Blank.png,0,0,0.0,0,152,152,152,,,,,,,,,,,,,79.75324569999975,0.003245699999752105,None,112.07030919999852,112.07030919999852,112.07030919999852,112.07030919999852,112.07030919999852,112.07030919999852,112.07030919999852,112.07030919999852,112.07030919999852,112.07030919999852,,001,P014,2025_Feb_28_1553,ConditionRich,2021.2.3,59.90987158922619,
80.0,80.75,15,0.75,Stimuli/P014/sun_brezwczwwllviogu.jpg,0,0,0.0,0,153,153,153,,,,,,,,,,,,,80.0035826000003,0.0035826000002998626,None,112.33721969999897,112.33721969999897,112.33721969999897,112.33721969999897,112.33721969999897,112.33721969999897,112.33721969999897,112.33721969999897,112.33721969999897,112.33721969999897,,001,P014,2025_Feb_28_1553,ConditionRich,2021.2.3,59.90987158922619,
80.75,81.0,41,0.0,Stimuli/Blank.png,0,0,0.0,0,154,154,154,,,,,,,,,,,,,80.77222369999981,0.022223699999813107,None,113.1045940999993,113.1045940999993,113.1045940999993,113.1045940999993,113.1045940999993,113.1045940999993,113.1045940999993,113.1045940999993,113.1045940999993,113.1045940999993,,001,P014,2025_Feb_28_1553,ConditionRich,2021.2.3,59.90987158922619,
81.0,81.75,15,0.75,Stimuli/P014/sun_brezwczwwllviogu.jpg,0,0,0.0,0,155,155,155,,,,,,,,,,,,,81.02143079999951,0.021430799999507144,None,113.33809139999903,113.33809139999903,113.33809139999903,113.33809139999903,113.33809139999903,113.33809139999903,113.33809139999903,113.33809139999903,113.33809139999903,113.33809139999903,,001,P014,2025_Feb_28_1553,ConditionRich,2021.2.3,59.90987158922619,
81.75,82.0,41,0.0,Stimuli/Blank.png,0,0,0.0,0,156,156,156,,,,,,,,,,,,,81.75563189999957,0.005631899999571033,None,114.07207999999991,114.07207999999991,114.07207999999991,114.07207999999991,114.07207999999991,114.07207999999991,114.07207999999991,114.07207999999991,114.07207999999991,114.07207999999991,,001,P014,2025_Feb_28_1553,ConditionRich,2021.2.3,59.90987158922619,
82.0,82.75,15,0.75,Stimuli/P014/sun_brezwczwwllviogu.jpg,0,0,0.0,0,157,157,157,,,,,,,,,,,,,82.0055355000004,0.005535500000405591,None,114.32229499999994,114.32229499999994,114.32229499999994,114.32229499999994,114.32229499999994,114.32229499999994,114.32229499999994,114.32229499999994,114.32229499999994,114.32229499999994,,001,P014,2025_Feb_28_1553,ConditionRich,2021.2.3,59.90987158922619,
82.75,83.0,41,0.0,Stimuli/Blank.png,0,0,0.0,0,158,158,158,,,,,,,,,,,,,82.75628920000054,0.006289200000537676,None,115.07295859999977,115.07295859999977,115.07295859999977,115.07295859999977,115.07295859999977,115.07295859999977,115.07295859999977,115.07295859999977,115.07295859999977,115.07295859999977,,001,P014,2025_Feb_28_1553,ConditionRich,2021.2.3,59.90987158922619,
83.0,83.75,15,0.75,Stimuli/P014/sun_brezwczwwllviogu.jpg,0,0,0.0,0,159,159,159,,,,,,,,,,,,,83.00667930000054,0.0066793000005418435,None,115.33986399999958,115.33986399999958,115.33986399999958,115.33986399999958,115.33986399999958,115.33986399999958,115.33986399999958,115.33986399999958,115.33986399999958,115.33986399999958,,001,P014,2025_Feb_28_1553,ConditionRich,2021.2.3,59.90987158922619,
83.75,84.0,41,0.0,Stimuli/Blank.png,0,0,0.0,0,160,160,160,,,,,,,,,,,,,83.77375080000093,0.023750800000925665,None,116.0904918999986,116.0904918999986,116.0904918999986,116.0904918999986,116.0904918999986,116.0904918999986,116.0904918999986,116.0904918999986,116.0904918999986,116.0904918999986,,001,P014,2025_Feb_28_1553,ConditionRich,2021.2.3,59.90987158922619,
84.0,100.0,0,0.0,Stimuli/Blank.png,1,4,4.75,0,161,161,161,,,,,,,,,,,,,84.0073040999996,0.007304099999601021,1,116.32406579999952,116.32406579999952,116.32406579999952,116.32406579999952,116.32406579999952,116.32406579999952,120.31097539999973,121.06163679999918,116.32406579999952,116.32406579999952,4.3164402000002156,001,P014,2025_Feb_28_1553,ConditionRich,2021.2.3,59.90987158922619,
100.0,100.75,2,0.75,Stimuli/P014/sun_adotnsaifoooswkf.jpg,0,0,0.0,0,162,162,162,,,,,,,,,,,,,100.00442010000006,0.004420100000061211,None,132.32155809999858,132.32155809999858,132.32155809999858,132.32155809999858,132.32155809999858,132.32155809999858,132.32155809999858,132.32155809999858,132.32155809999858,132.32155809999858,,001,P014,2025_Feb_28_1553,ConditionRich,2021.2.3,59.90987158922619,
100.75,101.0,41,0.0,Stimuli/Blank.png,0,0,0.0,0,163,163,163,,,,,,,,,,,,,100.75584460000027,0.0058446000002732035,None,133.07222889999866,133.07222889999866,133.07222889999866,133.07222889999866,133.07222889999866,133.07222889999866,133.07222889999866,133.07222889999866,133.07222889999866,133.07222889999866,,001,P014,2025_Feb_28_1553,ConditionRich,2021.2.3,59.90987158922619,
101.0,101.75,2,0.75,Stimuli/P014/sun_adotnsaifoooswkf.jpg,0,0,0.0,0,164,164,164,,,,,,,,,,,,,101.0051667000007,0.005166700000700075,None,133.32244170000013,133.32244170000013,133.32244170000013,133.32244170000013,133.32244170000013,133.32244170000013,133.32244170000013,133.32244170000013,133.32244170000013,133.32244170000013,,001,P014,2025_Feb_28_1553,ConditionRich,2021.2.3,59.90987158922619,
101.75,102.0,41,0.0,Stimuli/Blank.png,0,0,0.0,0,165,165,165,,,,,,,,,,,,,101.75871130000087,0.008711300000868505,None,134.0898201,134.0898201,134.0898201,134.0898201,134.0898201,134.0898201,134.0898201,134.0898201,134.0898201,134.0898201,,001,P014,2025_Feb_28_1553,ConditionRich,2021.2.3,59.90987158922619,
102.0,102.75,2,0.75,Stimuli/P014/sun_adotnsaifoooswkf.jpg,0,0,0.0,0,166,166,166,,,,,,,,,,,,,102.02280900000005,0.022809000000052038,None,134.340014899999,134.340014899999,134.340014899999,134.340014899999,134.340014899999,134.340014899999,134.340014899999,134.340014899999,134.340014899999,134.340014899999,,001,P014,2025_Feb_28_1553,ConditionRich,2021.2.3,59.90987158922619,
102.75,103.0,41,0.0,Stimuli/Blank.png,0,0,0.0,0,167,167,167,,,,,,,,,,,,,102.75909320000028,0.009093200000279467,None,135.09069029999955,135.09069029999955,135.09069029999955,135.09069029999955,135.09069029999955,135.09069029999955,135.09069029999955,135.09069029999955,135.09069029999955,135.09069029999955,,001,P014,2025_Feb_28_1553,ConditionRich,2021.2.3,59.90987158922619,
103.0,103.75,2,0.75,Stimuli/P014/sun_adotnsaifoooswkf.jpg,0,0,0.0,0,168,168,168,,,,,,,,,,,,,103.02566520000073,0.025665200000730692,None,135.35759349999898,135.35759349999898,135.35759349999898,135.35759349999898,135.35759349999898,135.35759349999898,135.35759349999898,135.35759349999898,135.35759349999898,135.35759349999898,,001,P014,2025_Feb_28_1553,ConditionRich,2021.2.3,59.90987158922619,
103.75,104.0,41,0.0,Stimuli/Blank.png,0,0,0.0,0,169,169,169,,,,,,,,,,,,,103.77562779999971,0.025627799999710987,None,136.09156780000012,136.09156780000012,136.09156780000012,136.09156780000012,136.09156780000012,136.09156780000012,136.09156780000012,136.09156780000012,136.09156780000012,136.09156780000012,,001,P014,2025_Feb_28_1553,ConditionRich,2021.2.3,59.90987158922619,
104.0,104.75,10,0.75,Stimuli/P014/sun_bdhxnzyleoiflyak.jpg,0,0,0.0,0,170,170,170,,,,,,,,,,,,,104.0079055999995,0.007905599999503465,None,136.3251111999998,136.3251111999998,136.3251111999998,136.3251111999998,136.3251111999998,136.3251111999998,136.3251111999998,136.3251111999998,136.3251111999998,136.3251111999998,,001,P014,2025_Feb_28_1553,ConditionRich,2021.2.3,59.90987158922619,
104.75,105.0,41,0.0,Stimuli/Blank.png,0,0,0.0,0,171,171,171,,,,,,,,,,,,,104.75980770000024,0.009807700000237674,None,137.07577599999968,137.07577599999968,137.07577599999968,137.07577599999968,137.07577599999968,137.07577599999968,137.07577599999968,137.07577599999968,137.07577599999968,137.07577599999968,,001,P014,2025_Feb_28_1553,ConditionRich,2021.2.3,59.90987158922619,
105.0,105.75,10,0.75,Stimuli/P014/sun_bdhxnzyleoiflyak.jpg,0,0,0.0,0,172,172,172,,,,,,,,,,,,,105.01055760000054,0.010557600000538514,None,137.34267609999915,137.34267609999915,137.34267609999915,137.34267609999915,137.34267609999915,137.34267609999915,137.34267609999915,137.34267609999915,137.34267609999915,137.34267609999915,,001,P014,2025_Feb_28_1553,ConditionRich,2021.2.3,59.90987158922619,
105.75,106.0,41,0.0,Stimuli/Blank.png,0,0,0.0,0,173,173,173,,,,,,,,,,,,,105.77856509999947,0.028565099999468657,None,138.1100312999988,138.1100312999988,138.1100312999988,138.1100312999988,138.1100312999988,138.1100312999988,138.1100312999988,138.1100312999988,138.1100312999988,138.1100312999988,,001,P014,2025_Feb_28_1553,ConditionRich,2021.2.3,59.90987158922619,
106.0,106.75,10,0.75,Stimuli/P014/sun_bdhxnzyleoiflyak.jpg,0,0,0.0,0,174,174,174,,,,,,,,,,,,,106.02939719999995,0.029397199999948498,None,138.36026200000015,138.36026200000015,138.36026200000015,138.36026200000015,138.36026200000015,138.36026200000015,138.36026200000015,138.36026200000015,138.36026200000015,138.36026200000015,,001,P014,2025_Feb_28_1553,ConditionRich,2021.2.3,59.90987158922619,
106.75,107.0,41,0.0,Stimuli/Blank.png,0,0,0.0,0,175,175,175,,,,,,,,,,,,,106.77979720000076,0.029797200000757584,None,139.11093079999955,139.11093079999955,139.11093079999955,139.11093079999955,139.11093079999955,139.11093079999955,139.11093079999955,139.11093079999955,139.11093079999955,139.11093079999955,,001,P014,2025_Feb_28_1553,ConditionRich,2021.2.3,59.90987158922619,
107.0,107.75,10,0.75,Stimuli/P014/sun_bdhxnzyleoiflyak.jpg,0,0,0.0,0,176,176,176,,,,,,,,,,,,,107.02930659999947,0.029306599999472382,None,139.36114279999856,139.36114279999856,139.36114279999856,139.36114279999856,139.36114279999856,139.36114279999856,139.36114279999856,139.36114279999856,139.36114279999856,139.36114279999856,,001,P014,2025_Feb_28_1553,ConditionRich,2021.2.3,59.90987158922619,
107.75,108.0,41,0.0,Stimuli/Blank.png,0,0,0.0,0,177,177,177,,,,,,,,,,,,,107.77847649999967,0.028476499999669613,None,140.09508619999906,140.09508619999906,140.09508619999906,140.09508619999906,140.09508619999906,140.09508619999906,140.09508619999906,140.09508619999906,140.09508619999906,140.09508619999906,,001,P014,2025_Feb_28_1553,ConditionRich,2021.2.3,59.90987158922619,
108.0,108.75,30,0.75,Stimuli/P014/things_man_07s.jpg,0,0,0.0,0,178,178,178,,,,,,,,,,,,,108.01141280000047,0.01141280000047118,None,140.34534359999998,140.34534359999998,140.34534359999998,140.34534359999998,140.34534359999998,140.34534359999998,140.34534359999998,140.34534359999998,140.34534359999998,140.34534359999998,,001,P014,2025_Feb_28_1553,ConditionRich,2021.2.3,59.90987158922619,
108.75,109.0,41,0.0,Stimuli/Blank.png,0,0,0.0,0,179,179,179,,,,,,,,,,,,,108.77968099999998,0.029680999999982305,None,141.09599779999917,141.09599779999917,141.09599779999917,141.09599779999917,141.09599779999917,141.09599779999917,141.09599779999917,141.09599779999917,141.09599779999917,141.09599779999917,,001,P014,2025_Feb_28_1553,ConditionRich,2021.2.3,59.90987158922619,
109.0,109.75,30,0.75,Stimuli/P014/things_man_07s.jpg,0,0,0.0,0,180,180,180,,,,,,,,,,,,,109.01513999999952,0.015139999999519205,None,141.34622639999907,141.34622639999907,141.34622639999907,141.34622639999907,141.34622639999907,141.34622639999907,141.34622639999907,141.34622639999907,141.34622639999907,141.34622639999907,,001,P014,2025_Feb_28_1553,ConditionRich,2021.2.3,59.90987158922619,
109.75,110.0,41,0.0,Stimuli/Blank.png,0,0,0.0,0,181,181,181,,,,,,,,,,,,,109.76314719999937,0.013147199999366421,None,142.0801995999991,142.0801995999991,142.0801995999991,142.0801995999991,142.0801995999991,142.0801995999991,142.0801995999991,142.0801995999991,142.0801995999991,142.0801995999991,,001,P014,2025_Feb_28_1553,ConditionRich,2021.2.3,59.90987158922619,
110.0,110.75,30,0.75,Stimuli/P014/things_man_07s.jpg,0,0,0.0,0,182,182,182,,,,,,,,,,,,,110.01311700000042,0.013117000000420376,None,142.33042849999947,142.33042849999947,142.33042849999947,142.33042849999947,142.33042849999947,142.33042849999947,142.33042849999947,142.33042849999947,142.33042849999947,142.33042849999947,,001,P014,2025_Feb_28_1553,ConditionRich,2021.2.3,59.90987158922619,
110.75,111.0,41,0.0,Stimuli/Blank.png,0,0,0.0,0,183,183,183,,,,,,,,,,,,,110.76467140000022,0.014671400000224821,None,143.08109819999845,143.08109819999845,143.08109819999845,143.08109819999845,143.08109819999845,143.08109819999845,143.08109819999845,143.08109819999845,143.08109819999845,143.08109819999845,,001,P014,2025_Feb_28_1553,ConditionRich,2021.2.3,59.90987158922619,
111.0,111.75,30,0.75,Stimuli/P014/things_man_07s.jpg,0,0,0.0,0,184,184,184,,,,,,,,,,,,,111.01476639999964,0.014766399999643909,None,143.33132870000009,143.33132870000009,143.33132870000009,143.33132870000009,143.33132870000009,143.33132870000009,143.33132870000009,143.33132870000009,143.33132870000009,143.33132870000009,,001,P014,2025_Feb_28_1553,ConditionRich,2021.2.3,59.90987158922619,
111.75,112.0,41,0.0,Stimuli/Blank.png,0,0,0.0,0,185,185,185,,,,,,,,,,,,,111.76472359999934,0.014723599999342696,None,144.08197289999953,144.08197289999953,144.08197289999953,144.08197289999953,144.08197289999953,144.08197289999953,144.08197289999953,144.08197289999953,144.08197289999953,144.08197289999953,,001,P014,2025_Feb_28_1553,ConditionRich,2021.2.3,59.90987158922619,
112.0,112.75,20,0.75,Stimuli/P014/sun_cidodcxikcyrdglc.jpg,0,0,0.0,0,186,186,186,,,,,,,,,,,,,112.01587149999978,0.01587149999977555,None,144.33220549999896,144.33220549999896,144.33220549999896,144.33220549999896,144.33220549999896,144.33220549999896,144.33220549999896,144.33220549999896,144.33220549999896,144.33220549999896,,001,P014,2025_Feb_28_1553,ConditionRich,2021.2.3,59.90987158922619,
112.75,113.0,41,0.0,Stimuli/Blank.png,0,0,0.0,0,187,187,187,,,,,,,,,,,,,112.7499198000005,-8.019999950192869e-05,None,145.06618919999892,145.06618919999892,145.06618919999892,145.06618919999892,145.06618919999892,145.06618919999892,145.06618919999892,145.06618919999892,145.06618919999892,145.06618919999892,,001,P014,2025_Feb_28_1553,ConditionRich,2021.2.3,59.90987158922619,
113.0,113.75,20,0.75,Stimuli/P014/sun_cidodcxikcyrdglc.jpg,0,0,0.0,0,188,188,188,,,,,,,,,,,,,112.99983729999985,-0.0001627000001462875,None,145.31640169999991,145.31640169999991,145.31640169999991,145.31640169999991,145.31640169999991,145.31640169999991,145.31640169999991,145.31640169999991,145.31640169999991,145.31640169999991,,001,P014,2025_Feb_28_1553,ConditionRich,2021.2.3,59.90987158922619,
113.75,114.0,41,0.0,Stimuli/Blank.png,0,0,0.0,0,189,189,189,,,,,,,,,,,,,113.7504614999998,0.00046149999980116263,None,146.06709839999894,146.06709839999894,146.06709839999894,146.06709839999894,146.06709839999894,146.06709839999894,146.06709839999894,146.06709839999894,146.06709839999894,146.06709839999894,,001,P014,2025_Feb_28_1553,ConditionRich,2021.2.3,59.90987158922619,
114.0,114.75,20,0.75,Stimuli/P014/sun_cidodcxikcyrdglc.jpg,0,0,0.0,0,190,190,190,,,,,,,,,,,,,114.0005199999996,0.0005199999995966209,None,146.31733840000015,146.31733840000015,146.31733840000015,146.31733840000015,146.31733840000015,146.31733840000015,146.31733840000015,146.31733840000015,146.31733840000015,146.31733840000015,,001,P014,2025_Feb_28_1553,ConditionRich,2021.2.3,59.90987158922619,
114.75,115.0,41,0.0,Stimuli/Blank.png,0,0,0.0,0,191,191,191,,,,,,,,,,,,,114.75100890000067,0.0010089000006701099,None,147.06795369999963,147.06795369999963,147.06795369999963,147.06795369999963,147.06795369999963,147.06795369999963,147.06795369999963,147.06795369999963,147.06795369999963,147.06795369999963,,001,P014,2025_Feb_28_1553,ConditionRich,2021.2.3,59.90987158922619,
115.0,115.75,20,0.75,Stimuli/P014/sun_cidodcxikcyrdglc.jpg,0,0,0.0,0,192,192,192,,,,,,,,,,,,,115.00097669999923,0.0009766999992280034,None,147.33487989999958,147.33487989999958,147.33487989999958,147.33487989999958,147.33487989999958,147.33487989999958,147.33487989999958,147.33487989999958,147.33487989999958,147.33487989999958,,001,P014,2025_Feb_28_1553,ConditionRich,2021.2.3,59.90987158922619,
115.75,116.0,41,0.0,Stimuli/Blank.png,0,0,0.0,0,193,193,193,,,,,,,,,,,,,115.76845999999932,0.018459999999322463,None,148.0855174999997,148.0855174999997,148.0855174999997,148.0855174999997,148.0855174999997,148.0855174999997,148.0855174999997,148.0855174999997,148.0855174999997,148.0855174999997,,001,P014,2025_Feb_28_1553,ConditionRich,2021.2.3,59.90987158922619,
116.0,116.75,23,0.75,Stimuli/P014/things_bug_07s.jpg,0,0,0.0,0,194,194,194,,,,,,,,,,,,,116.0048370000004,0.004837000000406988,None,148.33574299999964,148.33574299999964,148.33574299999964,148.33574299999964,148.33574299999964,148.33574299999964,148.33574299999964,148.33574299999964,148.33574299999964,148.33574299999964,,001,P014,2025_Feb_28_1553,ConditionRich,2021.2.3,59.90987158922619,
116.75,117.0,41,0.0,Stimuli/Blank.png,0,0,0.0,0,195,195,195,,,,,,,,,,,,,116.76949120000063,0.01949120000062976,None,149.08640829999968,149.08640829999968,149.08640829999968,149.08640829999968,149.08640829999968,149.08640829999968,149.08640829999968,149.08640829999968,149.08640829999968,149.08640829999968,,001,P014,2025_Feb_28_1553,ConditionRich,2021.2.3,59.90987158922619,
117.0,117.75,23,0.75,Stimuli/P014/things_bug_07s.jpg,0,0,0.0,0,196,196,196,,,,,,,,,,,,,117.0034226000007,0.0034226000007038238,None,149.33662709999953,149.33662709999953,149.33662709999953,149.33662709999953,149.33662709999953,149.33662709999953,149.33662709999953,149.33662709999953,149.33662709999953,149.33662709999953,,001,P014,2025_Feb_28_1553,ConditionRich,2021.2.3,59.90987158922619,
117.75,118.0,41,0.0,Stimuli/Blank.png,0,0,0.0,0,197,197,197,,,,,,,,,,,,,117.77083390000007,0.02083390000007057,None,150.08728530000008,150.08728530000008,150.08728530000008,150.08728530000008,150.08728530000008,150.08728530000008,150.08728530000008,150.08728530000008,150.08728530000008,150.08728530000008,,001,P014,2025_Feb_28_1553,ConditionRich,2021.2.3,59.90987158922619,
118.0,118.75,23,0.75,Stimuli/P014/things_bug_07s.jpg,0,0,0.0,0,198,198,198,,,,,,,,,,,,,118.00430480000068,0.0043048000006820075,None,150.33753959999922,150.33753959999922,150.33753959999922,150.33753959999922,150.33753959999922,150.33753959999922,150.33753959999922,150.33753959999922,150.33753959999922,150.33753959999922,,001,P014,2025_Feb_28_1553,ConditionRich,2021.2.3,59.90987158922619,
118.75,119.0,41,0.0,Stimuli/Blank.png,0,0,0.0,0,199,199,199,,,,,,,,,,,,,118.77098169999954,0.02098169999953825,None,151.0881706,151.0881706,151.0881706,151.0881706,151.0881706,151.0881706,151.0881706,151.0881706,151.0881706,151.0881706,,001,P014,2025_Feb_28_1553,ConditionRich,2021.2.3,59.90987158922619,
119.0,119.75,23,0.75,Stimuli/P014/things_bug_07s.jpg,0,0,0.0,0,200,200,200,,,,,,,,,,,,,119.00473249999959,0.0047324999995908,None,151.32172079999873,151.32172079999873,151.32172079999873,151.32172079999873,151.32172079999873,151.32172079999873,151.32172079999873,151.32172079999873,151.32172079999873,151.32172079999873,,001,P014,2025_Feb_28_1553,ConditionRich,2021.2.3,59.90987158922619,
119.75,120.0,41,0.0,Stimuli/Blank.png,0,0,0.0,0,201,201,201,,,,,,,,,,,,,119.75602869999966,0.006028699999660603,None,152.07237639999948,152.07237639999948,152.07237639999948,152.07237639999948,152.07237639999948,152.07237639999948,152.07237639999948,152.07237639999948,152.07237639999948,152.07237639999948,,001,P014,2025_Feb_28_1553,ConditionRich,2021.2.3,59.90987158922619,
120.0,120.75,21,0.75,Stimuli/P014/things_baby_07s.jpg,0,0,0.0,0,202,202,202,,,,,,,,,,,,,120.00614270000005,0.0061427000000549015,None,152.32259709999926,152.32259709999926,152.32259709999926,152.32259709999926,152.32259709999926,152.32259709999926,152.32259709999926,152.32259709999926,152.32259709999926,152.32259709999926,,001,P014,2025_Feb_28_1553,ConditionRich,2021.2.3,59.90987158922619,
120.75,121.0,41,0.0,Stimuli/Blank.png,0,0,0.0,0,203,203,203,,,,,,,,,,,,,120.75604879999992,0.00604879999991681,None,153.07337919999918,153.07337919999918,153.07337919999918,153.07337919999918,153.07337919999918,153.07337919999918,153.07337919999918,153.07337919999918,153.07337919999918,153.07337919999918,,001,P014,2025_Feb_28_1553,ConditionRich,2021.2.3,59.90987158922619,
121.0,121.75,21,0.75,Stimuli/P014/things_baby_07s.jpg,0,0,0.0,0,204,204,204,,,,,,,,,,,,,121.00888300000042,0.008883000000423635,None,153.34017129999847,153.34017129999847,153.34017129999847,153.34017129999847,153.34017129999847,153.34017129999847,153.34017129999847,153.34017129999847,153.34017129999847,153.34017129999847,,001,P014,2025_Feb_28_1553,ConditionRich,2021.2.3,59.90987158922619,
121.75,122.0,41,0.0,Stimuli/Blank.png,0,0,0.0,0,205,205,205,,,,,,,,,,,,,121.77489559999958,0.024895599999581464,None,154.09083979999923,154.09083979999923,154.09083979999923,154.09083979999923,154.09083979999923,154.09083979999923,154.09083979999923,154.09083979999923,154.09083979999923,154.09083979999923,,001,P014,2025_Feb_28_1553,ConditionRich,2021.2.3,59.90987158922619,
122.0,122.75,21,0.75,Stimuli/P014/things_baby_07s.jpg,0,0,0.0,0,206,206,206,,,,,,,,,,,,,122.00772719999986,0.007727199999862933,None,154.32438299999922,154.32438299999922,154.32438299999922,154.32438299999922,154.32438299999922,154.32438299999922,154.32438299999922,154.32438299999922,154.32438299999922,154.32438299999922,,001,P014,2025_Feb_28_1553,ConditionRich,2021.2.3,59.90987158922619,
122.75,123.0,41,0.0,Stimuli/Blank.png,0,0,0.0,0,207,207,207,,,,,,,,,,,,,122.75958159999936,0.009581599999364698,None,155.07506169999942,155.07506169999942,155.07506169999942,155.07506169999942,155.07506169999942,155.07506169999942,155.07506169999942,155.07506169999942,155.07506169999942,155.07506169999942,,001,P014,2025_Feb_28_1553,ConditionRich,2021.2.3,59.90987158922619,
123.0,123.75,21,0.75,Stimuli/P014/things_baby_07s.jpg,0,0,0.0,0,208,208,208,,,,,,,,,,,,,123.00999480000064,0.00999480000064068,None,155.3419443999992,155.3419443999992,155.3419443999992,155.3419443999992,155.3419443999992,155.3419443999992,155.3419443999992,155.3419443999992,155.3419443999992,155.3419443999992,,001,P014,2025_Feb_28_1553,ConditionRich,2021.2.3,59.90987158922619,
123.75,124.0,41,0.0,Stimuli/Blank.png,0,0,0.0,0,209,209,209,,,,,,,,,,,,,123.77656919999936,0.026569199999357807,None,156.09260170000016,156.09260170000016,156.09260170000016,156.09260170000016,156.09260170000016,156.09260170000016,156.09260170000016,156.09260170000016,156.09260170000016,156.09260170000016,,001,P014,2025_Feb_28_1553,ConditionRich,2021.2.3,59.90987158922619,
124.0,124.75,29,0.75,Stimuli/P014/things_iguana_07s.jpg,0,0,0.0,0,210,210,210,,,,,,,,,,,,,124.0118867000001,0.01188670000010461,None,156.34285420000015,156.34285420000015,156.34285420000015,156.34285420000015,156.34285420000015,156.34285420000015,156.34285420000015,156.34285420000015,156.34285420000015,156.34285420000015,,001,P014,2025_Feb_28_1553,ConditionRich,2021.2.3,59.90987158922619,
124.75,125.0,41,0.0,Stimuli/Blank.png,0,0,0.0,0,211,211,211,,,,,,,,,,,,,124.77648410000074,0.026484100000743638,None,157.09349709999879,157.09349709999879,157.09349709999879,157.09349709999879,157.09349709999879,157.09349709999879,157.09349709999879,157.09349709999879,157.09349709999879,157.09349709999879,,001,P014,2025_Feb_28_1553,ConditionRich,2021.2.3,59.90987158922619,
125.0,125.75,29,0.75,Stimuli/P014/things_iguana_07s.jpg,0,0,0.0,0,212,212,212,,,,,,,,,,,,,125.01219859999946,0.012198599999464932,None,157.34372119999898,157.34372119999898,157.34372119999898,157.34372119999898,157.34372119999898,157.34372119999898,157.34372119999898,157.34372119999898,157.34372119999898,157.34372119999898,,001,P014,2025_Feb_28_1553,ConditionRich,2021.2.3,59.90987158922619,
125.75,126.0,41,0.0,Stimuli/Blank.png,0,0,0.0,0,213,213,213,,,,,,,,,,,,,125.77717870000015,0.027178700000149547,None,158.0943802999991,158.0943802999991,158.0943802999991,158.0943802999991,158.0943802999991,158.0943802999991,158.0943802999991,158.0943802999991,158.0943802999991,158.0943802999991,,001,P014,2025_Feb_28_1553,ConditionRich,2021.2.3,59.90987158922619,
126.0,126.75,29,0.75,Stimuli/P014/things_iguana_07s.jpg,0,0,0.0,0,214,214,214,,,,,,,,,,,,,126.01073680000081,0.010736800000813673,None,158.32791949999955,158.32791949999955,158.32791949999955,158.32791949999955,158.32791949999955,158.32791949999955,158.32791949999955,158.32791949999955,158.32791949999955,158.32791949999955,,001,P014,2025_Feb_28_1553,ConditionRich,2021.2.3,59.90987158922619,
126.75,127.0,41,0.0,Stimuli/Blank.png,0,0,0.0,0,215,215,215,,,,,,,,,,,,,126.76226180000049,0.01226180000048771,None,159.07858489999853,159.07858489999853,159.07858489999853,159.07858489999853,159.07858489999853,159.07858489999853,159.07858489999853,159.07858489999853,159.07858489999853,159.07858489999853,,001,P014,2025_Feb_28_1553,ConditionRich,2021.2.3,59.90987158922619,
127.0,127.75,29,0.75,Stimuli/P014/things_iguana_07s.jpg,0,0,0.0,0,216,216,216,,,,,,,,,,,,,127.01276289999987,0.01276289999987057,None,159.34548619999987,159.34548619999987,159.34548619999987,159.34548619999987,159.34548619999987,159.34548619999987,159.34548619999987,159.34548619999987,159.34548619999987,159.34548619999987,,001,P014,2025_Feb_28_1553,ConditionRich,2021.2.3,59.90987158922619,
127.75,128.0,41,0.0,Stimuli/Blank.png,0,0,0.0,0,217,217,217,,,,,,,,,,,,,127.77936880000016,0.029368800000156625,None,160.09614359999978,160.09614359999978,160.09614359999978,160.09614359999978,160.09614359999978,160.09614359999978,160.09614359999978,160.09614359999978,160.09614359999978,160.09614359999978,,001,P014,2025_Feb_28_1553,ConditionRich,2021.2.3,59.90987158922619,
128.0,128.75,37,0.75,Stimuli/P014/things_slug_07s.jpg,0,0,0.0,0,218,218,218,,,,,,,,,,,,,128.01301980000062,0.013019800000620307,None,160.32969169999888,160.32969169999888,160.32969169999888,160.32969169999888,160.32969169999888,160.32969169999888,160.32969169999888,160.32969169999888,160.32969169999888,160.32969169999888,,001,P014,2025_Feb_28_1553,ConditionRich,2021.2.3,59.90987158922619,
128.75,129.0,41,0.0,Stimuli/Blank.png,0,0,0.0,0,219,219,219,,,,,,,,,,,,,128.76393520000056,0.013935200000560144,None,161.08035219999874,161.08035219999874,161.08035219999874,161.08035219999874,161.08035219999874,161.08035219999874,161.08035219999874,161.08035219999874,161.08035219999874,161.08035219999874,,001,P014,2025_Feb_28_1553,ConditionRich,2021.2.3,59.90987158922619,
129.0,129.75,37,0.75,Stimuli/P014/things_slug_07s.jpg,0,0,0.0,0,220,220,220,,,,,,,,,,,,,129.01380550000067,0.0138055000006716,None,161.3472830999999,161.3472830999999,161.3472830999999,161.3472830999999,161.3472830999999,161.3472830999999,161.3472830999999,161.3472830999999,161.3472830999999,161.3472830999999,,001,P014,2025_Feb_28_1553,ConditionRich,2021.2.3,59.90987158922619,
129.75,130.0,41,0.0,Stimuli/Blank.png,0,0,0.0,0,221,221,221,,,,,,,,,,,,,129.78343789999963,0.0334378999996261,None,162.11460709999847,162.11460709999847,162.11460709999847,162.11460709999847,162.11460709999847,162.11460709999847,162.11460709999847,162.11460709999847,162.11460709999847,162.11460709999847,,001,P014,2025_Feb_28_1553,ConditionRich,2021.2.3,59.90987158922619,
130.0,130.75,37,0.75,Stimuli/P014/things_slug_07s.jpg,0,0,0.0,0,222,222,222,,,,,,,,,,,,,130.0149581000005,0.014958100000512786,None,162.3314666999995,162.3314666999995,162.3314666999995,162.3314666999995,162.3314666999995,162.3314666999995,162.3314666999995,162.3314666999995,162.3314666999995,162.3314666999995,,001,P014,2025_Feb_28_1553,ConditionRich,2021.2.3,59.90987158922619,
130.75,131.0,41,0.0,Stimuli/Blank.png,0,0,0.0,0,223,223,223,,,,,,,,,,,,,130.76495710000017,0.01495710000017425,None,163.0821247999993,163.0821247999993,163.0821247999993,163.0821247999993,163.0821247999993,163.0821247999993,163.0821247999993,163.0821247999993,163.0821247999993,163.0821247999993,,001,P014,2025_Feb_28_1553,ConditionRich,2021.2.3,59.90987158922619,
131.0,131.75,37,0.75,Stimuli/P014/things_slug_07s.jpg,0,0,0.0,0,224,224,224,,,,,,,,,,,,,131.0185550999995,0.018555099999503,None,163.34907489999932,163.34907489999932,163.34907489999932,163.34907489999932,163.34907489999932,163.34907489999932,163.34907489999932,163.34907489999932,163.34907489999932,163.34907489999932,,001,P014,2025_Feb_28_1553,ConditionRich,2021.2.3,59.90987158922619,
131.75,132.0,41,0.0,Stimuli/Blank.png,0,0,0.0,0,225,225,225,,,,,,,,,,,,,131.76775570000063,0.017755700000634533,None,164.09969889999957,164.09969889999957,164.09969889999957,164.09969889999957,164.09969889999957,164.09969889999957,164.09969889999957,164.09969889999957,164.09969889999957,164.09969889999957,,001,P014,2025_Feb_28_1553,ConditionRich,2021.2.3,59.90987158922619,
132.0,132.75,27,0.75,Stimuli/P014/things_face_07s.jpg,0,0,0.0,0,226,226,226,,,,,,,,,,,,,132.01836609999918,0.01836609999918437,None,164.35004209999897,164.35004209999897,164.35004209999897,164.35004209999897,164.35004209999897,164.35004209999897,164.35004209999897,164.35004209999897,164.35004209999897,164.35004209999897,,001,P014,2025_Feb_28_1553,ConditionRich,2021.2.3,59.90987158922619,
132.75,133.0,41,0.0,Stimuli/Blank.png,0,0,0.0,0,227,227,227,,,,,,,,,,,,,132.7667089000006,0.01670890000059444,None,165.0838967999989,165.0838967999989,165.0838967999989,165.0838967999989,165.0838967999989,165.0838967999989,165.0838967999989,165.0838967999989,165.0838967999989,165.0838967999989,,001,P014,2025_Feb_28_1553,ConditionRich,2021.2.3,59.90987158922619,
133.0,133.75,27,0.75,Stimuli/P014/things_face_07s.jpg,0,0,0.0,0,228,228,228,,,,,,,,,,,,,133.00129650000054,0.0012965000005351612,None,165.33411929999966,165.33411929999966,165.33411929999966,165.33411929999966,165.33411929999966,165.33411929999966,165.33411929999966,165.33411929999966,165.33411929999966,165.33411929999966,,001,P014,2025_Feb_28_1553,ConditionRich,2021.2.3,59.90987158922619,
133.75,134.0,41,0.0,Stimuli/Blank.png,0,0,0.0,0,229,229,229,,,,,,,,,,,,,133.76860309999938,0.01860309999938181,None,166.08479269999953,166.08479269999953,166.08479269999953,166.08479269999953,166.08479269999953,166.08479269999953,166.08479269999953,166.08479269999953,166.08479269999953,166.08479269999953,,001,P014,2025_Feb_28_1553,ConditionRich,2021.2.3,59.90987158922619,
134.0,134.75,27,0.75,Stimuli/P014/things_face_07s.jpg,0,0,0.0,0,230,230,230,,,,,,,,,,,,,134.00316159999966,0.003161599999657483,None,166.33500939999976,166.33500939999976,166.33500939999976,166.33500939999976,166.33500939999976,166.33500939999976,166.33500939999976,166.33500939999976,166.33500939999976,166.33500939999976,,001,P014,2025_Feb_28_1553,ConditionRich,2021.2.3,59.90987158922619,
134.75,135.0,41,0.0,Stimuli/Blank.png,0,0,0.0,0,231,231,231,,,,,,,,,,,,,134.76868040000045,0.01868040000044857,None,167.08566900000005,167.08566900000005,167.08566900000005,167.08566900000005,167.08566900000005,167.08566900000005,167.08566900000005,167.08566900000005,167.08566900000005,167.08566900000005,,001,P014,2025_Feb_28_1553,ConditionRich,2021.2.3,59.90987158922619,
135.0,135.75,27,0.75,Stimuli/P014/things_face_07s.jpg,0,0,0.0,0,232,232,232,,,,,,,,,,,,,135.0022929000006,0.002292900000611553,None,167.31921059999877,167.31921059999877,167.31921059999877,167.31921059999877,167.31921059999877,167.31921059999877,167.31921059999877,167.31921059999877,167.31921059999877,167.31921059999877,,001,P014,2025_Feb_28_1553,ConditionRich,2021.2.3,59.90987158922619,
135.75,136.0,41,0.0,Stimuli/Blank.png,0,0,0.0,0,233,233,233,,,,,,,,,,,,,135.75349479999932,0.003494799999316456,None,168.0698795999997,168.0698795999997,168.0698795999997,168.0698795999997,168.0698795999997,168.0698795999997,168.0698795999997,168.0698795999997,168.0698795999997,168.0698795999997,,001,P014,2025_Feb_28_1553,ConditionRich,2021.2.3,59.90987158922619,
136.0,136.75,3,0.75,Stimuli/P014/sun_aengzsmykwchlrdn.jpg,0,0,0.0,0,234,234,234,,,,,,,,,,,,,136.0046344000002,0.004634400000213645,None,168.33678469999904,168.33678469999904,168.33678469999904,168.33678469999904,168.33678469999904,168.33678469999904,168.33678469999904,168.33678469999904,168.33678469999904,168.33678469999904,,001,P014,2025_Feb_28_1553,ConditionRich,2021.2.3,59.90987158922619,
136.75,137.0,41,0.0,Stimuli/Blank.png,0,0,0.0,0,235,235,235,,,,,,,,,,,,,136.7726679999996,0.02266799999961222,None,169.10413359999984,169.10413359999984,169.10413359999984,169.10413359999984,169.10413359999984,169.10413359999984,169.10413359999984,169.10413359999984,169.10413359999984,169.10413359999984,,001,P014,2025_Feb_28_1553,ConditionRich,2021.2.3,59.90987158922619,
137.0,137.75,3,0.75,Stimuli/P014/sun_aengzsmykwchlrdn.jpg,0,0,0.0,0,236,236,236,,,,,,,,,,,,,137.02273699999932,0.022736999999324325,None,169.3543465999992,169.3543465999992,169.3543465999992,169.3543465999992,169.3543465999992,169.3543465999992,169.3543465999992,169.3543465999992,169.3543465999992,169.3543465999992,,001,P014,2025_Feb_28_1553,ConditionRich,2021.2.3,59.90987158922619,
137.75,138.0,41,0.0,Stimuli/Blank.png,0,0,0.0,0,237,237,237,,,,,,,,,,,,,137.77313739999954,0.02313739999954123,None,170.10501529999965,170.10501529999965,170.10501529999965,170.10501529999965,170.10501529999965,170.10501529999965,170.10501529999965,170.10501529999965,170.10501529999965,170.10501529999965,,001,P014,2025_Feb_28_1553,ConditionRich,2021.2.3,59.90987158922619,
138.0,138.75,3,0.75,Stimuli/P014/sun_aengzsmykwchlrdn.jpg,1,0,0.75,0,238,238,238,,,,,,,,,,,,,138.0243391999993,0.024339199999303673,1,170.35523339999963,170.35523339999963,170.35523339999963,170.35523339999963,170.35523339999963,170.35523339999963,170.35523339999963,None,170.35523339999963,170.35523339999963,0.379318899998907,001,P014,2025_Feb_28_1553,ConditionRich,2021.2.3,59.90987158922619,
138.75,139.0,41,0.0,Stimuli/Blank.png,0,0,0.0,0,239,239,239,,,,,,,,,,,,,138.77258679999977,0.022586799999771756,None,171.08921289999853,171.08921289999853,171.08921289999853,171.08921289999853,171.08921289999853,171.08921289999853,171.08921289999853,171.08921289999853,171.08921289999853,171.08921289999853,,001,P014,2025_Feb_28_1553,ConditionRich,2021.2.3,59.90987158922619,
139.0,139.75,3,0.75,Stimuli/P014/sun_aengzsmykwchlrdn.jpg,0,0,0.0,0,240,240,240,,,,,,,,,,,,,139.00839869999982,0.008398699999816017,None,171.33944279999923,171.33944279999923,171.33944279999923,171.33944279999923,171.33944279999923,171.33944279999923,171.33944279999923,171.33944279999923,171.33944279999923,171.33944279999923,,001,P014,2025_Feb_28_1553,ConditionRich,2021.2.3,59.90987158922619,
139.75,140.0,41,0.0,Stimuli/Blank.png,0,0,0.0,0,241,241,241,,,,,,,,,,,,,139.7737051999993,0.023705199999312754,None,172.09009949999927,172.09009949999927,172.09009949999927,172.09009949999927,172.09009949999927,172.09009949999927,172.09009949999927,172.09009949999927,172.09009949999927,172.09009949999927,,001,P014,2025_Feb_28_1553,ConditionRich,2021.2.3,59.90987158922619,
140.0,140.75,25,0.75,Stimuli/P014/things_cashew_07s.jpg,0,0,0.0,0,242,242,242,,,,,,,,,,,,,140.00759690000086,0.007596900000862661,None,172.3403215999988,172.3403215999988,172.3403215999988,172.3403215999988,172.3403215999988,172.3403215999988,172.3403215999988,172.3403215999988,172.3403215999988,172.3403215999988,,001,P014,2025_Feb_28_1553,ConditionRich,2021.2.3,59.90987158922619,
140.75,141.0,41,0.0,Stimuli/Blank.png,0,0,0.0,0,243,243,243,,,,,,,,,,,,,140.77379409999958,0.023794099999577156,None,173.09098429999904,173.09098429999904,173.09098429999904,173.09098429999904,173.09098429999904,173.09098429999904,173.09098429999904,173.09098429999904,173.09098429999904,173.09098429999904,,001,P014,2025_Feb_28_1553,ConditionRich,2021.2.3,59.90987158922619,
141.0,141.75,25,0.75,Stimuli/P014/things_cashew_07s.jpg,0,0,0.0,0,244,244,244,,,,,,,,,,,,,141.00745429999915,0.007454299999153591,None,173.32453159999932,173.32453159999932,173.32453159999932,173.32453159999932,173.32453159999932,173.32453159999932,173.32453159999932,173.32453159999932,173.32453159999932,173.32453159999932,,001,P014,2025_Feb_28_1553,ConditionRich,2021.2.3,59.90987158922619,
141.75,142.0,41,0.0,Stimuli/Blank.png,0,0,0.0,0,245,245,245,,,,,,,,,,,,,141.75871840000036,0.008718400000361726,None,174.07520579999982,174.07520579999982,174.07520579999982,174.07520579999982,174.07520579999982,174.07520579999982,174.07520579999982,174.07520579999982,174.07520579999982,174.07520579999982,,001,P014,2025_Feb_28_1553,ConditionRich,2021.2.3,59.90987158922619,
142.0,142.75,25,0.75,Stimuli/P014/things_cashew_07s.jpg,0,0,0.0,0,246,246,246,,,,,,,,,,,,,142.0082528999992,0.00825289999920642,None,174.32540999999947,174.32540999999947,174.32540999999947,174.32540999999947,174.32540999999947,174.32540999999947,174.32540999999947,174.32540999999947,174.32540999999947,174.32540999999947,,001,P014,2025_Feb_28_1553,ConditionRich,2021.2.3,59.90987158922619,
142.75,143.0,41,0.0,Stimuli/Blank.png,0,0,0.0,0,247,247,247,,,,,,,,,,,,,142.75988030000008,0.009880300000077114,None,175.07607759999883,175.07607759999883,175.07607759999883,175.07607759999883,175.07607759999883,175.07607759999883,175.07607759999883,175.07607759999883,175.07607759999883,175.07607759999883,,001,P014,2025_Feb_28_1553,ConditionRich,2021.2.3,59.90987158922619,
143.0,143.75,25,0.75,Stimuli/P014/things_cashew_07s.jpg,0,0,0.0,0,248,248,248,,,,,,,,,,,,,143.00962740000068,0.009627400000681519,None,175.32629009999982,175.32629009999982,175.32629009999982,175.32629009999982,175.32629009999982,175.32629009999982,175.32629009999982,175.32629009999982,175.32629009999982,175.32629009999982,,001,P014,2025_Feb_28_1553,ConditionRich,2021.2.3,59.90987158922619,
143.75,144.0,41,0.0,Stimuli/Blank.png,0,0,0.0,0,249,249,249,,,,,,,,,,,,,143.75984190000054,0.009841900000537862,None,176.07696639999995,176.07696639999995,176.07696639999995,176.07696639999995,176.07696639999995,176.07696639999995,176.07696639999995,176.07696639999995,176.07696639999995,176.07696639999995,,001,P014,2025_Feb_28_1553,ConditionRich,2021.2.3,59.90987158922619,
144.0,144.75,13,0.75,Stimuli/P014/sun_bpccpwpohfirajtf.jpg,0,0,0.0,0,250,250,250,,,,,,,,,,,,,144.01047880000078,0.01047880000078294,None,176.34390669999993,176.34390669999993,176.34390669999993,176.34390669999993,176.34390669999993,176.34390669999993,176.34390669999993,176.34390669999993,176.34390669999993,176.34390669999993,,001,P014,2025_Feb_28_1553,ConditionRich,2021.2.3,59.90987158922619,
144.75,145.0,41,0.0,Stimuli/Blank.png,0,0,0.0,0,251,251,251,,,,,,,,,,,,,144.7785984000002,0.02859840000019176,None,177.09453269999904,177.09453269999904,177.09453269999904,177.09453269999904,177.09453269999904,177.09453269999904,177.09453269999904,177.09453269999904,177.09453269999904,177.09453269999904,,001,P014,2025_Feb_28_1553,ConditionRich,2021.2.3,59.90987158922619,
145.0,145.75,13,0.75,Stimuli/P014/sun_bpccpwpohfirajtf.jpg,0,0,0.0,0,252,252,252,,,,,,,,,,,,,145.01328830000057,0.013288300000567688,None,177.34476279999944,177.34476279999944,177.34476279999944,177.34476279999944,177.34476279999944,177.34476279999944,177.34476279999944,177.34476279999944,177.34476279999944,177.34476279999944,,001,P014,2025_Feb_28_1553,ConditionRich,2021.2.3,59.90987158922619,
145.75,146.0,41,0.0,Stimuli/Blank.png,0,0,0.0,0,253,253,253,,,,,,,,,,,,,145.7783292999993,0.028329299999313662,None,178.09542069999952,178.09542069999952,178.09542069999952,178.09542069999952,178.09542069999952,178.09542069999952,178.09542069999952,178.09542069999952,178.09542069999952,178.09542069999952,,001,P014,2025_Feb_28_1553,ConditionRich,2021.2.3,59.90987158922619,
146.0,146.75,13,0.75,Stimuli/P014/sun_bpccpwpohfirajtf.jpg,0,0,0.0,0,254,254,254,,,,,,,,,,,,,146.01273299999957,0.012732999999570893,None,178.3456385999998,178.3456385999998,178.3456385999998,178.3456385999998,178.3456385999998,178.3456385999998,178.3456385999998,178.3456385999998,178.3456385999998,178.3456385999998,,001,P014,2025_Feb_28_1553,ConditionRich,2021.2.3,59.90987158922619,
146.75,147.0,41,0.0,Stimuli/Blank.png,0,0,0.0,0,255,255,255,,,,,,,,,,,,,146.7790685,0.029068499999993946,None,179.09630939999988,179.09630939999988,179.09630939999988,179.09630939999988,179.09630939999988,179.09630939999988,179.09630939999988,179.09630939999988,179.09630939999988,179.09630939999988,,001,P014,2025_Feb_28_1553,ConditionRich,2021.2.3,59.90987158922619,
147.0,147.75,13,0.75,Stimuli/P014/sun_bpccpwpohfirajtf.jpg,0,0,0.0,0,256,256,256,,,,,,,,,,,,,147.0138674000009,0.013867400000890484,None,179.34654389999923,179.34654389999923,179.34654389999923,179.34654389999923,179.34654389999923,179.34654389999923,179.34654389999923,179.34654389999923,179.34654389999923,179.34654389999923,,001,P014,2025_Feb_28_1553,ConditionRich,2021.2.3,59.90987158922619,
147.75,148.0,41,0.0,Stimuli/Blank.png,0,0,0.0,0,257,257,257,,,,,,,,,,,,,147.7804372999999,0.03043729999990319,None,180.09729220000008,180.09729220000008,180.09729220000008,180.09729220000008,180.09729220000008,180.09729220000008,180.09729220000008,180.09729220000008,180.09729220000008,180.09729220000008,,001,P014,2025_Feb_28_1553,ConditionRich,2021.2.3,59.90987158922619,
148.0,148.75,39,0.75,Stimuli/P014/things_violin_07n.jpg,1,0,0.75,0,258,258,258,,,,,,,,,,,,,148.01430620000065,0.01430620000064664,1,180.34740859999874,180.34740859999874,180.34740859999874,180.34740859999874,180.34740859999874,180.34740859999874,180.34740859999874,181.08138159999908,180.34740859999874,180.34740859999874,0.4001707000006718,001,P014,2025_Feb_28_1553,ConditionRich,2021.2.3,59.90987158922619,
148.75,149.0,41,0.0,Stimuli/Blank.png,0,0,0.0,0,259,259,259,,,,,,,,,,,,,148.78162650000013,0.031626500000129454,None,181.09807170000022,181.09807170000022,181.09807170000022,181.09807170000022,181.09807170000022,181.09807170000022,181.09807170000022,181.09807170000022,181.09807170000022,181.09807170000022,,001,P014,2025_Feb_28_1553,ConditionRich,2021.2.3,59.90987158922619,
149.0,149.75,39,0.75,Stimuli/P014/things_violin_07n.jpg,0,0,0.0,0,260,260,260,,,,,,,,,,,,,149.01445590000003,0.014455900000029942,None,181.34830349999902,181.34830349999902,181.34830349999902,181.34830349999902,181.34830349999902,181.34830349999902,181.34830349999902,181.34830349999902,181.34830349999902,181.34830349999902,,001,P014,2025_Feb_28_1553,ConditionRich,2021.2.3,59.90987158922619,
149.75,150.0,41,0.0,Stimuli/Blank.png,0,0,0.0,0,261,261,261,,,,,,,,,,,,,149.78168340000047,0.03168340000047465,None,182.1002589999989,182.1002589999989,182.1002589999989,182.1002589999989,182.1002589999989,182.1002589999989,182.1002589999989,182.1002589999989,182.1002589999989,182.1002589999989,,001,P014,2025_Feb_28_1553,ConditionRich,2021.2.3,59.90987158922619,
