eventStartTime,eventEndTime,eventCond,imSize,imFile,responseEvent,fixRespStart,fixRespEnd,Events.thisRepN,Events.thisTrialN,Events.thisN,Events.thisIndex,Instructions.started,Instructions.stopped,participantReadyResponse.keys,participantReadyResponse.rt,participantReadyResponse.started,participantReadyResponse.stopped,startWaitforTrigger,triggerResponse.keys,triggerResponse.rt,triggerResponse.started,triggerResponse.stopped,globalTimer,actualStartTime,startTimingDiff,participantResponse.keys,participantResponse.started,participantResponse.stopped,image.started,image.stopped,fixationOutside.started,fixationOutside.stopped,fixationResponse.started,fixationResponse.stopped,fixationInside.started,fixationInside.stopped,participantResponse.rt,session,participant,date,expName,psychopyVersion,frameRate,
,,,,,,,,,,,,10.808017600000312,None,1,3.2545815000012226,10.808017600000312,None,,,,,,,,,,,,,,,,,,,,,004,P014,2025_Feb_28_1625,ConditionRich,2021.2.3,59.929905981737384,
,,,,,,,,,,,,,,,,,,14.07609169999887,5,14.23914760000116,14.09036709999964,None,,,,,,,,,,,,,,,,004,P014,2025_Feb_28_1625,ConditionRich,2021.2.3,59.929905981737384,
0.0,4.0,0,0.0,Stimuli/Blank.png,0,0,0.0,0,0,0,0,,,,,,,,,,,,28.338655199999266,0.042612799999915296,0.042612799999915296,None,28.403055299999323,None,28.403055299999323,None,28.403055299999323,None,28.403055299999323,28.403055299999323,28.403055299999323,None,,004,P014,2025_Feb_28_1625,ConditionRich,2021.2.3,59.929905981737384,
4.0,4.75,11,0.75,Stimuli/P014/sun_bfyxzbjsvqsobbky.jpg,0,0,0.0,0,1,1,1,,,,,,,,,,,,,4.021704199998567,0.021704199998566764,None,32.37350770000012,32.37350770000012,32.37350770000012,32.37350770000012,32.37350770000012,32.37350770000012,32.37350770000012,32.37350770000012,32.37350770000012,32.37350770000012,,004,P014,2025_Feb_28_1625,ConditionRich,2021.2.3,59.929905981737384,
4.75,5.0,41,0.0,Stimuli/Blank.png,0,0,0.0,0,2,2,2,,,,,,,,,,,,,4.754381499998999,0.004381499998999061,None,33.107762300000104,33.107762300000104,33.107762300000104,33.107762300000104,33.107762300000104,33.107762300000104,33.107762300000104,33.107762300000104,33.107762300000104,33.107762300000104,,004,P014,2025_Feb_28_1625,ConditionRich,2021.2.3,59.929905981737384,
5.0,5.75,11,0.75,Stimuli/P014/sun_bfyxzbjsvqsobbky.jpg,0,0,0.0,0,3,3,3,,,,,,,,,,,,,5.004164899999523,0.004164899999523186,None,33.35742989999926,33.35742989999926,33.35742989999926,33.35742989999926,33.35742989999926,33.35742989999926,33.35742989999926,33.35742989999926,33.35742989999926,33.35742989999926,,004,P014,2025_Feb_28_1625,ConditionRich,2021.2.3,59.929905981737384,
5.75,6.0,41,0.0,Stimuli/Blank.png,0,0,0.0,0,4,4,4,,,,,,,,,,,,,5.7547429999995074,0.004742999999507447,None,34.1080664000001,34.1080664000001,34.1080664000001,34.1080664000001,34.1080664000001,34.1080664000001,34.1080664000001,34.1080664000001,34.1080664000001,34.1080664000001,,004,P014,2025_Feb_28_1625,ConditionRich,2021.2.3,59.929905981737384,
6.0,6.75,11,0.75,Stimuli/P014/sun_bfyxzbjsvqsobbky.jpg,0,0,0.0,0,5,5,5,,,,,,,,,,,,,6.005057399999714,0.005057399999714107,None,34.374991200000295,34.374991200000295,34.374991200000295,34.374991200000295,34.374991200000295,34.374991200000295,34.374991200000295,34.374991200000295,34.374991200000295,34.374991200000295,,004,P014,2025_Feb_28_1625,ConditionRich,2021.2.3,59.929905981737384,
6.75,7.0,41,0.0,Stimuli/Blank.png,0,0,0.0,0,6,6,6,,,,,,,,,,,,,6.774950600000011,0.024950600000011036,None,35.14236919999894,35.14236919999894,35.14236919999894,35.14236919999894,35.14236919999894,35.14236919999894,35.14236919999894,35.14236919999894,35.14236919999894,35.14236919999894,,004,P014,2025_Feb_28_1625,ConditionRich,2021.2.3,59.929905981737384,
7.0,7.75,11,0.75,Stimuli/P014/sun_bfyxzbjsvqsobbky.jpg,0,0,0.0,0,7,7,7,,,,,,,,,,,,,7.02468989999943,0.024689899999430054,None,35.39258990000053,35.39258990000053,35.39258990000053,35.39258990000053,35.39258990000053,35.39258990000053,35.39258990000053,35.39258990000053,35.39258990000053,35.39258990000053,,004,P014,2025_Feb_28_1625,ConditionRich,2021.2.3,59.929905981737384,
7.75,8.0,41,0.0,Stimuli/Blank.png,0,0,0.0,0,8,8,8,,,,,,,,,,,,,7.776238199998261,0.026238199998260825,None,36.143257199999425,36.143257199999425,36.143257199999425,36.143257199999425,36.143257199999425,36.143257199999425,36.143257199999425,36.143257199999425,36.143257199999425,36.143257199999425,,004,P014,2025_Feb_28_1625,ConditionRich,2021.2.3,59.929905981737384,
8.0,8.75,40,0.75,Stimuli/P014/things_woman_07s.jpg,0,0,0.0,0,9,9,9,,,,,,,,,,,,,8.02357689999917,0.023576899999170564,None,36.376785099999324,36.376785099999324,36.376785099999324,36.376785099999324,36.376785099999324,36.376785099999324,36.376785099999324,36.376785099999324,36.376785099999324,36.376785099999324,,004,P014,2025_Feb_28_1625,ConditionRich,2021.2.3,59.929905981737384,
8.75,9.0,41,0.0,Stimuli/Blank.png,0,0,0.0,0,10,10,10,,,,,,,,,,,,,8.758400099999562,0.008400099999562372,None,37.11077970000042,37.11077970000042,37.11077970000042,37.11077970000042,37.11077970000042,37.11077970000042,37.11077970000042,37.11077970000042,37.11077970000042,37.11077970000042,,004,P014,2025_Feb_28_1625,ConditionRich,2021.2.3,59.929905981737384,
9.0,9.75,40,0.75,Stimuli/P014/things_woman_07s.jpg,0,0,0.0,0,11,11,11,,,,,,,,,,,,,9.008315199998833,0.008315199998833123,None,37.36097969999901,37.36097969999901,37.36097969999901,37.36097969999901,37.36097969999901,37.36097969999901,37.36097969999901,37.36097969999901,37.36097969999901,37.36097969999901,,004,P014,2025_Feb_28_1625,ConditionRich,2021.2.3,59.929905981737384,
9.75,10.0,41,0.0,Stimuli/Blank.png,0,0,0.0,0,12,12,12,,,,,,,,,,,,,9.761060499999076,0.011060499999075546,None,38.12833200000023,38.12833200000023,38.12833200000023,38.12833200000023,38.12833200000023,38.12833200000023,38.12833200000023,38.12833200000023,38.12833200000023,38.12833200000023,,004,P014,2025_Feb_28_1625,ConditionRich,2021.2.3,59.929905981737384,
10.0,10.75,40,0.75,Stimuli/P014/things_woman_07s.jpg,0,0,0.0,0,13,13,13,,,,,,,,,,,,,10.025702799999635,0.025702799999635317,None,38.37855229999877,38.37855229999877,38.37855229999877,38.37855229999877,38.37855229999877,38.37855229999877,38.37855229999877,38.37855229999877,38.37855229999877,38.37855229999877,,004,P014,2025_Feb_28_1625,ConditionRich,2021.2.3,59.929905981737384,
10.75,11.0,41,0.0,Stimuli/Blank.png,0,0,0.0,0,14,14,14,,,,,,,,,,,,,10.761873099998411,0.011873099998410908,None,39.12938249999934,39.12938249999934,39.12938249999934,39.12938249999934,39.12938249999934,39.12938249999934,39.12938249999934,39.12938249999934,39.12938249999934,39.12938249999934,,004,P014,2025_Feb_28_1625,ConditionRich,2021.2.3,59.929905981737384,
11.0,11.75,40,0.75,Stimuli/P014/things_woman_07s.jpg,1,0,0.75,0,15,15,15,,,,,,,,,,,,,11.026982599998519,0.026982599998518708,1,39.37943249999989,39.37943249999989,39.37943249999989,39.37943249999989,39.37943249999989,39.37943249999989,39.37943249999989,None,39.37943249999989,39.37943249999989,0.37906850000035774,004,P014,2025_Feb_28_1625,ConditionRich,2021.2.3,59.929905981737384,
11.75,12.0,41,0.0,Stimuli/Blank.png,0,0,0.0,0,16,16,16,,,,,,,,,,,,,11.762110799998482,0.012110799998481525,None,40.1134191000001,40.1134191000001,40.1134191000001,40.1134191000001,40.1134191000001,40.1134191000001,40.1134191000001,40.1134191000001,40.1134191000001,40.1134191000001,,004,P014,2025_Feb_28_1625,ConditionRich,2021.2.3,59.929905981737384,
12.0,12.75,18,0.75,Stimuli/P014/sun_btohwudpiusfvpvl.jpg,0,0,0.0,0,17,17,17,,,,,,,,,,,,,12.011000599999534,0.011000599999533733,None,40.36364130000038,40.36364130000038,40.36364130000038,40.36364130000038,40.36364130000038,40.36364130000038,40.36364130000038,40.36364130000038,40.36364130000038,40.36364130000038,,004,P014,2025_Feb_28_1625,ConditionRich,2021.2.3,59.929905981737384,
12.75,13.0,41,0.0,Stimuli/Blank.png,0,0,0.0,0,18,18,18,,,,,,,,,,,,,12.761631599998509,0.011631599998509046,None,41.114312199999404,41.114312199999404,41.114312199999404,41.114312199999404,41.114312199999404,41.114312199999404,41.114312199999404,41.114312199999404,41.114312199999404,41.114312199999404,,004,P014,2025_Feb_28_1625,ConditionRich,2021.2.3,59.929905981737384,
13.0,13.75,18,0.75,Stimuli/P014/sun_btohwudpiusfvpvl.jpg,0,0,0.0,0,19,19,19,,,,,,,,,,,,,13.01126750000003,0.01126750000003085,None,41.364517399999386,41.364517399999386,41.364517399999386,41.364517399999386,41.364517399999386,41.364517399999386,41.364517399999386,41.364517399999386,41.364517399999386,41.364517399999386,,004,P014,2025_Feb_28_1625,ConditionRich,2021.2.3,59.929905981737384,
13.75,14.0,41,0.0,Stimuli/Blank.png,0,0,0.0,0,20,20,20,,,,,,,,,,,,,13.76260579999871,0.0126057999987097,None,42.11518939999951,42.11518939999951,42.11518939999951,42.11518939999951,42.11518939999951,42.11518939999951,42.11518939999951,42.11518939999951,42.11518939999951,42.11518939999951,,004,P014,2025_Feb_28_1625,ConditionRich,2021.2.3,59.929905981737384,
14.0,14.75,18,0.75,Stimuli/P014/sun_btohwudpiusfvpvl.jpg,0,0,0.0,0,21,21,21,,,,,,,,,,,,,14.013137499998265,0.013137499998265412,None,42.38210690000051,42.38210690000051,42.38210690000051,42.38210690000051,42.38210690000051,42.38210690000051,42.38210690000051,42.38210690000051,42.38210690000051,42.38210690000051,,004,P014,2025_Feb_28_1625,ConditionRich,2021.2.3,59.929905981737384,
14.75,15.0,41,0.0,Stimuli/Blank.png,0,0,0.0,0,22,22,22,,,,,,,,,,,,,14.780230699998356,0.030230699998355703,None,43.132762600000206,43.132762600000206,43.132762600000206,43.132762600000206,43.132762600000206,43.132762600000206,43.132762600000206,43.132762600000206,43.132762600000206,43.132762600000206,,004,P014,2025_Feb_28_1625,ConditionRich,2021.2.3,59.929905981737384,
15.0,15.75,18,0.75,Stimuli/P014/sun_btohwudpiusfvpvl.jpg,0,0,0.0,0,23,23,23,,,,,,,,,,,,,15.015869499999098,0.01586949999909848,None,43.38298229999964,43.38298229999964,43.38298229999964,43.38298229999964,43.38298229999964,43.38298229999964,43.38298229999964,43.38298229999964,43.38298229999964,43.38298229999964,,004,P014,2025_Feb_28_1625,ConditionRich,2021.2.3,59.929905981737384,
15.75,16.0,41,0.0,Stimuli/Blank.png,0,0,0.0,0,24,24,24,,,,,,,,,,,,,15.766784399998869,0.01678439999886905,None,44.13365379999959,44.13365379999959,44.13365379999959,44.13365379999959,44.13365379999959,44.13365379999959,44.13365379999959,44.13365379999959,44.13365379999959,44.13365379999959,,004,P014,2025_Feb_28_1625,ConditionRich,2021.2.3,59.929905981737384,
16.0,16.75,4,0.75,Stimuli/P014/sun_afgoiykvchxqotyz.jpg,0,0,0.0,0,25,25,25,,,,,,,,,,,,,16.013937699999587,0.013937699999587494,None,44.36717940000017,44.36717940000017,44.36717940000017,44.36717940000017,44.36717940000017,44.36717940000017,44.36717940000017,44.36717940000017,44.36717940000017,44.36717940000017,,004,P014,2025_Feb_28_1625,ConditionRich,2021.2.3,59.929905981737384,
16.75,17.0,41,0.0,Stimuli/Blank.png,0,0,0.0,0,26,26,26,,,,,,,,,,,,,16.765350099998614,0.015350099998613587,None,45.117843099998936,45.117843099998936,45.117843099998936,45.117843099998936,45.117843099998936,45.117843099998936,45.117843099998936,45.117843099998936,45.117843099998936,45.117843099998936,,004,P014,2025_Feb_28_1625,ConditionRich,2021.2.3,59.929905981737384,
17.0,17.75,4,0.75,Stimuli/P014/sun_afgoiykvchxqotyz.jpg,0,0,0.0,0,27,27,27,,,,,,,,,,,,,17.015657899999496,0.015657899999496294,None,45.38476339999943,45.38476339999943,45.38476339999943,45.38476339999943,45.38476339999943,45.38476339999943,45.38476339999943,45.38476339999943,45.38476339999943,45.38476339999943,,004,P014,2025_Feb_28_1625,ConditionRich,2021.2.3,59.929905981737384,
17.75,18.0,41,0.0,Stimuli/Blank.png,0,0,0.0,0,28,28,28,,,,,,,,,,,,,17.76556729999902,0.015567299999020179,None,46.118731299999126,46.118731299999126,46.118731299999126,46.118731299999126,46.118731299999126,46.118731299999126,46.118731299999126,46.118731299999126,46.118731299999126,46.118731299999126,,004,P014,2025_Feb_28_1625,ConditionRich,2021.2.3,59.929905981737384,
18.0,18.75,4,0.75,Stimuli/P014/sun_afgoiykvchxqotyz.jpg,0,0,0.0,0,29,29,29,,,,,,,,,,,,,18.001260699998966,0.0012606999989657197,None,46.36895919999915,46.36895919999915,46.36895919999915,46.36895919999915,46.36895919999915,46.36895919999915,46.36895919999915,46.36895919999915,46.36895919999915,46.36895919999915,,004,P014,2025_Feb_28_1625,ConditionRich,2021.2.3,59.929905981737384,
18.75,19.0,41,0.0,Stimuli/Blank.png,0,0,0.0,0,30,30,30,,,,,,,,,,,,,18.767169199998534,0.017169199998534168,None,47.11961369999881,47.11961369999881,47.11961369999881,47.11961369999881,47.11961369999881,47.11961369999881,47.11961369999881,47.11961369999881,47.11961369999881,47.11961369999881,,004,P014,2025_Feb_28_1625,ConditionRich,2021.2.3,59.929905981737384,
19.0,19.75,4,0.75,Stimuli/P014/sun_afgoiykvchxqotyz.jpg,0,0,0.0,0,31,31,31,,,,,,,,,,,,,19.000043499998355,4.349999835540075e-05,None,47.353157600000486,47.353157600000486,47.353157600000486,47.353157600000486,47.353157600000486,47.353157600000486,47.353157600000486,47.353157600000486,47.353157600000486,47.353157600000486,,004,P014,2025_Feb_28_1625,ConditionRich,2021.2.3,59.929905981737384,
19.75,20.0,41,0.0,Stimuli/Blank.png,0,0,0.0,0,32,32,32,,,,,,,,,,,,,19.751575299998876,0.0015752999988762895,None,48.10383439999896,48.10383439999896,48.10383439999896,48.10383439999896,48.10383439999896,48.10383439999896,48.10383439999896,48.10383439999896,48.10383439999896,48.10383439999896,,004,P014,2025_Feb_28_1625,ConditionRich,2021.2.3,59.929905981737384,
20.0,20.75,20,0.75,Stimuli/P014/sun_cidodcxikcyrdglc.jpg,0,0,0.0,0,33,33,33,,,,,,,,,,,,,20.00212229999852,0.0021222999985184288,None,48.370729199999914,48.370729199999914,48.370729199999914,48.370729199999914,48.370729199999914,48.370729199999914,48.370729199999914,48.370729199999914,48.370729199999914,48.370729199999914,,004,P014,2025_Feb_28_1625,ConditionRich,2021.2.3,59.929905981737384,
20.75,21.0,41,0.0,Stimuli/Blank.png,0,0,0.0,0,34,34,34,,,,,,,,,,,,,20.769085099998847,0.019085099998847,None,49.121404899999106,49.121404899999106,49.121404899999106,49.121404899999106,49.121404899999106,49.121404899999106,49.121404899999106,49.121404899999106,49.121404899999106,49.121404899999106,,004,P014,2025_Feb_28_1625,ConditionRich,2021.2.3,59.929905981737384,
21.0,21.75,20,0.75,Stimuli/P014/sun_cidodcxikcyrdglc.jpg,0,0,0.0,0,35,35,35,,,,,,,,,,,,,21.00170159999834,0.0017015999983414076,None,49.35493150000002,49.35493150000002,49.35493150000002,49.35493150000002,49.35493150000002,49.35493150000002,49.35493150000002,49.35493150000002,49.35493150000002,49.35493150000002,,004,P014,2025_Feb_28_1625,ConditionRich,2021.2.3,59.929905981737384,
21.75,22.0,41,0.0,Stimuli/Blank.png,0,0,0.0,0,36,36,36,,,,,,,,,,,,,21.752991800000018,0.0029918000000179745,None,50.1056682999988,50.1056682999988,50.1056682999988,50.1056682999988,50.1056682999988,50.1056682999988,50.1056682999988,50.1056682999988,50.1056682999988,50.1056682999988,,004,P014,2025_Feb_28_1625,ConditionRich,2021.2.3,59.929905981737384,
22.0,22.75,20,0.75,Stimuli/P014/sun_cidodcxikcyrdglc.jpg,0,0,0.0,0,37,37,37,,,,,,,,,,,,,22.003235099999074,0.0032350999990740092,None,50.37251429999924,50.37251429999924,50.37251429999924,50.37251429999924,50.37251429999924,50.37251429999924,50.37251429999924,50.37251429999924,50.37251429999924,50.37251429999924,,004,P014,2025_Feb_28_1625,ConditionRich,2021.2.3,59.929905981737384,
22.75,23.0,41,0.0,Stimuli/Blank.png,0,0,0.0,0,38,38,38,,,,,,,,,,,,,22.7705565999986,0.020556599998599268,None,51.12315920000037,51.12315920000037,51.12315920000037,51.12315920000037,51.12315920000037,51.12315920000037,51.12315920000037,51.12315920000037,51.12315920000037,51.12315920000037,,004,P014,2025_Feb_28_1625,ConditionRich,2021.2.3,59.929905981737384,
23.0,23.75,20,0.75,Stimuli/P014/sun_cidodcxikcyrdglc.jpg,0,0,0.0,0,39,39,39,,,,,,,,,,,,,23.00405789999968,0.004057899999679648,None,51.37338559999989,51.37338559999989,51.37338559999989,51.37338559999989,51.37338559999989,51.37338559999989,51.37338559999989,51.37338559999989,51.37338559999989,51.37338559999989,,004,P014,2025_Feb_28_1625,ConditionRich,2021.2.3,59.929905981737384,
23.75,24.0,41,0.0,Stimuli/Blank.png,0,0,0.0,0,40,40,40,,,,,,,,,,,,,23.77144479999879,0.021444799998789676,None,52.12405719999879,52.12405719999879,52.12405719999879,52.12405719999879,52.12405719999879,52.12405719999879,52.12405719999879,52.12405719999879,52.12405719999879,52.12405719999879,,004,P014,2025_Feb_28_1625,ConditionRich,2021.2.3,59.929905981737384,
24.0,24.75,36,0.75,Stimuli/P014/things_seafood_07s.jpg,0,0,0.0,0,41,41,41,,,,,,,,,,,,,24.004350399998657,0.00435039999865694,None,52.37429619999966,52.37429619999966,52.37429619999966,52.37429619999966,52.37429619999966,52.37429619999966,52.37429619999966,52.37429619999966,52.37429619999966,52.37429619999966,,004,P014,2025_Feb_28_1625,ConditionRich,2021.2.3,59.929905981737384,
24.75,25.0,41,0.0,Stimuli/Blank.png,0,0,0.0,0,42,42,42,,,,,,,,,,,,,24.773218699998324,0.023218699998324155,None,53.12494589999915,53.12494589999915,53.12494589999915,53.12494589999915,53.12494589999915,53.12494589999915,53.12494589999915,53.12494589999915,53.12494589999915,53.12494589999915,,004,P014,2025_Feb_28_1625,ConditionRich,2021.2.3,59.929905981737384,
25.0,25.75,36,0.75,Stimuli/P014/things_seafood_07s.jpg,1,0,0.75,0,43,43,43,,,,,,,,,,,,,25.00527779999902,0.0052777999990212265,1,53.375158799999554,53.375158799999554,53.375158799999554,53.375158799999554,53.375158799999554,53.375158799999554,53.375158799999554,54.09245659999942,53.375158799999554,53.375158799999554,0.5504181000014796,004,P014,2025_Feb_28_1625,ConditionRich,2021.2.3,59.929905981737384,
25.75,26.0,41,0.0,Stimuli/Blank.png,0,0,0.0,0,44,44,44,,,,,,,,,,,,,25.773591399998622,0.023591399998622364,None,54.12582289999955,54.12582289999955,54.12582289999955,54.12582289999955,54.12582289999955,54.12582289999955,54.12582289999955,54.12582289999955,54.12582289999955,54.12582289999955,,004,P014,2025_Feb_28_1625,ConditionRich,2021.2.3,59.929905981737384,
26.0,26.75,36,0.75,Stimuli/P014/things_seafood_07s.jpg,0,0,0.0,0,45,45,45,,,,,,,,,,,,,26.00867829999879,0.008678299998791772,None,54.37605319999966,54.37605319999966,54.37605319999966,54.37605319999966,54.37605319999966,54.37605319999966,54.37605319999966,54.37605319999966,54.37605319999966,54.37605319999966,,004,P014,2025_Feb_28_1625,ConditionRich,2021.2.3,59.929905981737384,
26.75,27.0,41,0.0,Stimuli/Blank.png,0,0,0.0,0,46,46,46,,,,,,,,,,,,,26.773394999998345,0.023394999998345156,None,55.12671269999919,55.12671269999919,55.12671269999919,55.12671269999919,55.12671269999919,55.12671269999919,55.12671269999919,55.12671269999919,55.12671269999919,55.12671269999919,,004,P014,2025_Feb_28_1625,ConditionRich,2021.2.3,59.929905981737384,
27.0,27.75,36,0.75,Stimuli/P014/things_seafood_07s.jpg,0,0,0.0,0,47,47,47,,,,,,,,,,,,,27.00733069999842,0.007330699998419732,None,55.36024939999879,55.36024939999879,55.36024939999879,55.36024939999879,55.36024939999879,55.36024939999879,55.36024939999879,55.36024939999879,55.36024939999879,55.36024939999879,,004,P014,2025_Feb_28_1625,ConditionRich,2021.2.3,59.929905981737384,
27.75,28.0,41,0.0,Stimuli/Blank.png,0,0,0.0,0,48,48,48,,,,,,,,,,,,,27.75852659999873,0.008526599998731399,None,56.11090820000027,56.11090820000027,56.11090820000027,56.11090820000027,56.11090820000027,56.11090820000027,56.11090820000027,56.11090820000027,56.11090820000027,56.11090820000027,,004,P014,2025_Feb_28_1625,ConditionRich,2021.2.3,59.929905981737384,
28.0,28.75,30,0.75,Stimuli/P014/things_man_07s.jpg,0,0,0.0,0,49,49,49,,,,,,,,,,,,,28.008241999999882,0.008241999999881955,None,56.36123570000018,56.36123570000018,56.36123570000018,56.36123570000018,56.36123570000018,56.36123570000018,56.36123570000018,56.36123570000018,56.36123570000018,56.36123570000018,,004,P014,2025_Feb_28_1625,ConditionRich,2021.2.3,59.929905981737384,
28.75,29.0,41,0.0,Stimuli/Blank.png,0,0,0.0,0,50,50,50,,,,,,,,,,,,,28.75935869999921,0.00935869999921124,None,57.111808499999825,57.111808499999825,57.111808499999825,57.111808499999825,57.111808499999825,57.111808499999825,57.111808499999825,57.111808499999825,57.111808499999825,57.111808499999825,,004,P014,2025_Feb_28_1625,ConditionRich,2021.2.3,59.929905981737384,
29.0,29.75,30,0.75,Stimuli/P014/things_man_07s.jpg,0,0,0.0,0,51,51,51,,,,,,,,,,,,,29.01059189999978,0.010591899999781162,None,57.37877209999897,57.37877209999897,57.37877209999897,57.37877209999897,57.37877209999897,57.37877209999897,57.37877209999897,57.37877209999897,57.37877209999897,57.37877209999897,,004,P014,2025_Feb_28_1625,ConditionRich,2021.2.3,59.929905981737384,
29.75,30.0,41,0.0,Stimuli/Blank.png,0,0,0.0,0,52,52,52,,,,,,,,,,,,,29.778092399999878,0.02809239999987767,None,58.1460661000001,58.1460661000001,58.1460661000001,58.1460661000001,58.1460661000001,58.1460661000001,58.1460661000001,58.1460661000001,58.1460661000001,58.1460661000001,,004,P014,2025_Feb_28_1625,ConditionRich,2021.2.3,59.929905981737384,
30.0,30.75,30,0.75,Stimuli/P014/things_man_07s.jpg,0,0,0.0,0,53,53,53,,,,,,,,,,,,,30.027228099999775,0.027228099999774713,None,58.39627780000046,58.39627780000046,58.39627780000046,58.39627780000046,58.39627780000046,58.39627780000046,58.39627780000046,58.39627780000046,58.39627780000046,58.39627780000046,,004,P014,2025_Feb_28_1625,ConditionRich,2021.2.3,59.929905981737384,
30.75,31.0,41,0.0,Stimuli/Blank.png,0,0,0.0,0,54,54,54,,,,,,,,,,,,,30.779056199999104,0.029056199999104138,None,59.14695629999915,59.14695629999915,59.14695629999915,59.14695629999915,59.14695629999915,59.14695629999915,59.14695629999915,59.14695629999915,59.14695629999915,59.14695629999915,,004,P014,2025_Feb_28_1625,ConditionRich,2021.2.3,59.929905981737384,
31.0,31.75,30,0.75,Stimuli/P014/things_man_07s.jpg,0,0,0.0,0,55,55,55,,,,,,,,,,,,,31.02931709999939,0.02931709999938903,None,59.39715660000002,59.39715660000002,59.39715660000002,59.39715660000002,59.39715660000002,59.39715660000002,59.39715660000002,59.39715660000002,59.39715660000002,59.39715660000002,,004,P014,2025_Feb_28_1625,ConditionRich,2021.2.3,59.929905981737384,
31.75,32.0,41,0.0,Stimuli/Blank.png,0,0,0.0,0,56,56,56,,,,,,,,,,,,,31.778714000000036,0.02871400000003632,None,60.131145399998786,60.131145399998786,60.131145399998786,60.131145399998786,60.131145399998786,60.131145399998786,60.131145399998786,60.131145399998786,60.131145399998786,60.131145399998786,,004,P014,2025_Feb_28_1625,ConditionRich,2021.2.3,59.929905981737384,
32.0,32.75,7,0.75,Stimuli/P014/sun_aojplsluiikxrfxc.jpg,0,0,0.0,0,57,57,57,,,,,,,,,,,,,32.01133469999877,0.011334699998769793,None,60.38138099999924,60.38138099999924,60.38138099999924,60.38138099999924,60.38138099999924,60.38138099999924,60.38138099999924,60.38138099999924,60.38138099999924,60.38138099999924,,004,P014,2025_Feb_28_1625,ConditionRich,2021.2.3,59.929905981737384,
32.75,33.0,41,0.0,Stimuli/Blank.png,0,0,0.0,0,58,58,58,,,,,,,,,,,,,32.779644299998836,0.029644299998835777,None,61.132017500000075,61.132017500000075,61.132017500000075,61.132017500000075,61.132017500000075,61.132017500000075,61.132017500000075,61.132017500000075,61.132017500000075,61.132017500000075,,004,P014,2025_Feb_28_1625,ConditionRich,2021.2.3,59.929905981737384,
33.0,33.75,7,0.75,Stimuli/P014/sun_aojplsluiikxrfxc.jpg,0,0,0.0,0,59,59,59,,,,,,,,,,,,,33.01494759999878,0.01494759999877715,None,61.382232199999635,61.382232199999635,61.382232199999635,61.382232199999635,61.382232199999635,61.382232199999635,61.382232199999635,61.382232199999635,61.382232199999635,61.382232199999635,,004,P014,2025_Feb_28_1625,ConditionRich,2021.2.3,59.929905981737384,
33.75,34.0,41,0.0,Stimuli/Blank.png,0,0,0.0,0,60,60,60,,,,,,,,,,,,,33.77975309999965,0.029753099999652477,None,62.13291009999921,62.13291009999921,62.13291009999921,62.13291009999921,62.13291009999921,62.13291009999921,62.13291009999921,62.13291009999921,62.13291009999921,62.13291009999921,,004,P014,2025_Feb_28_1625,ConditionRich,2021.2.3,59.929905981737384,
34.0,34.75,7,0.75,Stimuli/P014/sun_aojplsluiikxrfxc.jpg,0,0,0.0,0,61,61,61,,,,,,,,,,,,,34.01373609999973,0.013736099999732687,None,62.36644679999881,62.36644679999881,62.36644679999881,62.36644679999881,62.36644679999881,62.36644679999881,62.36644679999881,62.36644679999881,62.36644679999881,62.36644679999881,,004,P014,2025_Feb_28_1625,ConditionRich,2021.2.3,59.929905981737384,
34.75,35.0,41,0.0,Stimuli/Blank.png,0,0,0.0,0,62,62,62,,,,,,,,,,,,,34.76433589999942,0.014335899999423418,None,63.117113999998764,63.117113999998764,63.117113999998764,63.117113999998764,63.117113999998764,63.117113999998764,63.117113999998764,63.117113999998764,63.117113999998764,63.117113999998764,,004,P014,2025_Feb_28_1625,ConditionRich,2021.2.3,59.929905981737384,
35.0,35.75,7,0.75,Stimuli/P014/sun_aojplsluiikxrfxc.jpg,0,0,0.0,0,63,63,63,,,,,,,,,,,,,35.014144299999316,0.01414429999931599,None,63.36734009999964,63.36734009999964,63.36734009999964,63.36734009999964,63.36734009999964,63.36734009999964,63.36734009999964,63.36734009999964,63.36734009999964,63.36734009999964,,004,P014,2025_Feb_28_1625,ConditionRich,2021.2.3,59.929905981737384,
35.75,36.0,41,0.0,Stimuli/Blank.png,0,0,0.0,0,64,64,64,,,,,,,,,,,,,35.765030299999125,0.015030299999125418,None,64.11801709999963,64.11801709999963,64.11801709999963,64.11801709999963,64.11801709999963,64.11801709999963,64.11801709999963,64.11801709999963,64.11801709999963,64.11801709999963,,004,P014,2025_Feb_28_1625,ConditionRich,2021.2.3,59.929905981737384,
36.0,36.75,32,0.75,Stimuli/P014/things_mistletoe_07s.jpg,0,0,0.0,0,65,65,65,,,,,,,,,,,,,36.01562719999856,0.01562719999856199,None,64.36822149999898,64.36822149999898,64.36822149999898,64.36822149999898,64.36822149999898,64.36822149999898,64.36822149999898,64.36822149999898,64.36822149999898,64.36822149999898,,004,P014,2025_Feb_28_1625,ConditionRich,2021.2.3,59.929905981737384,
36.75,37.0,41,0.0,Stimuli/Blank.png,0,0,0.0,0,66,66,66,,,,,,,,,,,,,36.748928899998646,-0.0010711000013543526,None,65.10220739999932,65.10220739999932,65.10220739999932,65.10220739999932,65.10220739999932,65.10220739999932,65.10220739999932,65.10220739999932,65.10220739999932,65.10220739999932,,004,P014,2025_Feb_28_1625,ConditionRich,2021.2.3,59.929905981737384,
37.0,37.75,32,0.75,Stimuli/P014/things_mistletoe_07s.jpg,0,0,0.0,0,67,67,67,,,,,,,,,,,,,36.9991743999999,-0.0008256000000983477,None,65.35242769999968,65.35242769999968,65.35242769999968,65.35242769999968,65.35242769999968,65.35242769999968,65.35242769999968,65.35242769999968,65.35242769999968,65.35242769999968,,004,P014,2025_Feb_28_1625,ConditionRich,2021.2.3,59.929905981737384,
37.75,38.0,41,0.0,Stimuli/Blank.png,0,0,0.0,0,68,68,68,,,,,,,,,,,,,37.75039749999996,0.0003974999999627471,None,66.10314970000036,66.10314970000036,66.10314970000036,66.10314970000036,66.10314970000036,66.10314970000036,66.10314970000036,66.10314970000036,66.10314970000036,66.10314970000036,,004,P014,2025_Feb_28_1625,ConditionRich,2021.2.3,59.929905981737384,
38.0,38.75,32,0.75,Stimuli/P014/things_mistletoe_07s.jpg,0,0,0.0,0,69,69,69,,,,,,,,,,,,,38.001069499998266,0.0010694999982661102,None,66.35331450000012,66.35331450000012,66.35331450000012,66.35331450000012,66.35331450000012,66.35331450000012,66.35331450000012,66.35331450000012,66.35331450000012,66.35331450000012,,004,P014,2025_Feb_28_1625,ConditionRich,2021.2.3,59.929905981737384,
38.75,39.0,41,0.0,Stimuli/Blank.png,0,0,0.0,0,70,70,70,,,,,,,,,,,,,38.75142209999831,0.0014220999983081128,None,67.10398489999898,67.10398489999898,67.10398489999898,67.10398489999898,67.10398489999898,67.10398489999898,67.10398489999898,67.10398489999898,67.10398489999898,67.10398489999898,,004,P014,2025_Feb_28_1625,ConditionRich,2021.2.3,59.929905981737384,
39.0,39.75,32,0.75,Stimuli/P014/things_mistletoe_07s.jpg,1,0,0.75,0,71,71,71,,,,,,,,,,,,,39.00184259999878,0.0018425999987812247,1,67.37089419999938,67.37089419999938,67.37089419999938,67.37089419999938,67.37089419999938,67.37089419999938,67.37089419999938,68.08827939999901,67.37089419999938,67.37089419999938,0.4088683999998466,004,P014,2025_Feb_28_1625,ConditionRich,2021.2.3,59.929905981737384,
39.75,40.0,41,0.0,Stimuli/Blank.png,0,0,0.0,0,72,72,72,,,,,,,,,,,,,39.76989499999945,0.019894999999451102,None,68.13826289999997,68.13826289999997,68.13826289999997,68.13826289999997,68.13826289999997,68.13826289999997,68.13826289999997,68.13826289999997,68.13826289999997,68.13826289999997,,004,P014,2025_Feb_28_1625,ConditionRich,2021.2.3,59.929905981737384,
40.0,40.75,39,0.75,Stimuli/P014/things_violin_07n.jpg,0,0,0.0,0,73,73,73,,,,,,,,,,,,,40.01865699999871,0.0186569999987114,None,68.37177429999974,68.37177429999974,68.37177429999974,68.37177429999974,68.37177429999974,68.37177429999974,68.37177429999974,68.37177429999974,68.37177429999974,68.37177429999974,,004,P014,2025_Feb_28_1625,ConditionRich,2021.2.3,59.929905981737384,
40.75,41.0,41,0.0,Stimuli/Blank.png,0,0,0.0,0,74,74,74,,,,,,,,,,,,,40.75376479999977,0.0037647999997716397,None,69.10575619999872,69.10575619999872,69.10575619999872,69.10575619999872,69.10575619999872,69.10575619999872,69.10575619999872,69.10575619999872,69.10575619999872,69.10575619999872,,004,P014,2025_Feb_28_1625,ConditionRich,2021.2.3,59.929905981737384,
41.0,41.75,39,0.75,Stimuli/P014/things_violin_07n.jpg,0,0,0.0,0,75,75,75,,,,,,,,,,,,,41.003548699998646,0.0035486999986460432,None,69.35597489999964,69.35597489999964,69.35597489999964,69.35597489999964,69.35597489999964,69.35597489999964,69.35597489999964,69.35597489999964,69.35597489999964,69.35597489999964,,004,P014,2025_Feb_28_1625,ConditionRich,2021.2.3,59.929905981737384,
41.75,42.0,41,0.0,Stimuli/Blank.png,0,0,0.0,0,76,76,76,,,,,,,,,,,,,41.756022499999744,0.006022499999744468,None,70.12334519999968,70.12334519999968,70.12334519999968,70.12334519999968,70.12334519999968,70.12334519999968,70.12334519999968,70.12334519999968,70.12334519999968,70.12334519999968,,004,P014,2025_Feb_28_1625,ConditionRich,2021.2.3,59.929905981737384,
42.0,42.75,39,0.75,Stimuli/P014/things_violin_07n.jpg,0,0,0.0,0,77,77,77,,,,,,,,,,,,,42.020248199998605,0.020248199998604832,None,70.37352139999894,70.37352139999894,70.37352139999894,70.37352139999894,70.37352139999894,70.37352139999894,70.37352139999894,70.37352139999894,70.37352139999894,70.37352139999894,,004,P014,2025_Feb_28_1625,ConditionRich,2021.2.3,59.929905981737384,
42.75,43.0,41,0.0,Stimuli/Blank.png,0,0,0.0,0,78,78,78,,,,,,,,,,,,,42.758340399999724,0.008340399999724468,None,71.12421539999923,71.12421539999923,71.12421539999923,71.12421539999923,71.12421539999923,71.12421539999923,71.12421539999923,71.12421539999923,71.12421539999923,71.12421539999923,,004,P014,2025_Feb_28_1625,ConditionRich,2021.2.3,59.929905981737384,
43.0,43.75,39,0.75,Stimuli/P014/things_violin_07n.jpg,0,0,0.0,0,79,79,79,,,,,,,,,,,,,43.0212305999994,0.02123059999939869,None,71.37443080000048,71.37443080000048,71.37443080000048,71.37443080000048,71.37443080000048,71.37443080000048,71.37443080000048,71.37443080000048,71.37443080000048,71.37443080000048,,004,P014,2025_Feb_28_1625,ConditionRich,2021.2.3,59.929905981737384,
43.75,44.0,41,0.0,Stimuli/Blank.png,0,0,0.0,0,80,80,80,,,,,,,,,,,,,43.755272699998386,0.005272699998386088,None,72.10840819999976,72.10840819999976,72.10840819999976,72.10840819999976,72.10840819999976,72.10840819999976,72.10840819999976,72.10840819999976,72.10840819999976,72.10840819999976,,004,P014,2025_Feb_28_1625,ConditionRich,2021.2.3,59.929905981737384,
44.0,44.75,25,0.75,Stimuli/P014/things_cashew_07s.jpg,0,0,0.0,0,81,81,81,,,,,,,,,,,,,44.00640449999992,0.0064044999999168795,None,72.35863470000004,72.35863470000004,72.35863470000004,72.35863470000004,72.35863470000004,72.35863470000004,72.35863470000004,72.35863470000004,72.35863470000004,72.35863470000004,,004,P014,2025_Feb_28_1625,ConditionRich,2021.2.3,59.929905981737384,
44.75,45.0,41,0.0,Stimuli/Blank.png,0,0,0.0,0,82,82,82,,,,,,,,,,,,,44.75636569999915,0.00636569999915082,None,73.1093026999988,73.1093026999988,73.1093026999988,73.1093026999988,73.1093026999988,73.1093026999988,73.1093026999988,73.1093026999988,73.1093026999988,73.1093026999988,,004,P014,2025_Feb_28_1625,ConditionRich,2021.2.3,59.929905981737384,
45.0,45.75,25,0.75,Stimuli/P014/things_cashew_07s.jpg,0,0,0.0,0,83,83,83,,,,,,,,,,,,,45.00708069999928,0.007080699999278295,None,73.35952290000023,73.35952290000023,73.35952290000023,73.35952290000023,73.35952290000023,73.35952290000023,73.35952290000023,73.35952290000023,73.35952290000023,73.35952290000023,,004,P014,2025_Feb_28_1625,ConditionRich,2021.2.3,59.929905981737384,
45.75,46.0,41,0.0,Stimuli/Blank.png,0,0,0.0,0,84,84,84,,,,,,,,,,,,,45.76003299999866,0.010032999998657033,None,74.12689659999887,74.12689659999887,74.12689659999887,74.12689659999887,74.12689659999887,74.12689659999887,74.12689659999887,74.12689659999887,74.12689659999887,74.12689659999887,,004,P014,2025_Feb_28_1625,ConditionRich,2021.2.3,59.929905981737384,
46.0,46.75,25,0.75,Stimuli/P014/things_cashew_07s.jpg,0,0,0.0,0,85,85,85,,,,,,,,,,,,,46.025289899998825,0.025289899998824694,None,74.39377679999961,74.39377679999961,74.39377679999961,74.39377679999961,74.39377679999961,74.39377679999961,74.39377679999961,74.39377679999961,74.39377679999961,74.39377679999961,,004,P014,2025_Feb_28_1625,ConditionRich,2021.2.3,59.929905981737384,
46.75,47.0,41,0.0,Stimuli/Blank.png,0,0,0.0,0,86,86,86,,,,,,,,,,,,,46.775567099999535,0.025567099999534548,None,75.12776010000016,75.12776010000016,75.12776010000016,75.12776010000016,75.12776010000016,75.12776010000016,75.12776010000016,75.12776010000016,75.12776010000016,75.12776010000016,,004,P014,2025_Feb_28_1625,ConditionRich,2021.2.3,59.929905981737384,
47.0,47.75,25,0.75,Stimuli/P014/things_cashew_07s.jpg,0,0,0.0,0,87,87,87,,,,,,,,,,,,,47.01107289999891,0.011072899998907815,None,75.37815330000012,75.37815330000012,75.37815330000012,75.37815330000012,75.37815330000012,75.37815330000012,75.37815330000012,75.37815330000012,75.37815330000012,75.37815330000012,,004,P014,2025_Feb_28_1625,ConditionRich,2021.2.3,59.929905981737384,
47.75,48.0,41,0.0,Stimuli/Blank.png,0,0,0.0,0,88,88,88,,,,,,,,,,,,,47.775361499998326,0.0253614999983256,None,76.1286411000001,76.1286411000001,76.1286411000001,76.1286411000001,76.1286411000001,76.1286411000001,76.1286411000001,76.1286411000001,76.1286411000001,76.1286411000001,,004,P014,2025_Feb_28_1625,ConditionRich,2021.2.3,59.929905981737384,
48.0,48.75,31,0.75,Stimuli/P014/things_mask_07s.jpg,0,0,0.0,0,89,89,89,,,,,,,,,,,,,48.008974399999715,0.008974399999715388,None,76.3621862,76.3621862,76.3621862,76.3621862,76.3621862,76.3621862,76.3621862,76.3621862,76.3621862,76.3621862,,004,P014,2025_Feb_28_1625,ConditionRich,2021.2.3,59.929905981737384,
48.75,49.0,41,0.0,Stimuli/Blank.png,0,0,0.0,0,90,90,90,,,,,,,,,,,,,48.76022019999982,0.010220199999821489,None,77.1128391000002,77.1128391000002,77.1128391000002,77.1128391000002,77.1128391000002,77.1128391000002,77.1128391000002,77.1128391000002,77.1128391000002,77.1128391000002,,004,P014,2025_Feb_28_1625,ConditionRich,2021.2.3,59.929905981737384,
49.0,49.75,31,0.75,Stimuli/P014/things_mask_07s.jpg,0,0,0.0,0,91,91,91,,,,,,,,,,,,,49.010707499999626,0.010707499999625725,None,77.37973539999984,77.37973539999984,77.37973539999984,77.37973539999984,77.37973539999984,77.37973539999984,77.37973539999984,77.37973539999984,77.37973539999984,77.37973539999984,,004,P014,2025_Feb_28_1625,ConditionRich,2021.2.3,59.929905981737384,
49.75,50.0,41,0.0,Stimuli/Blank.png,0,0,0.0,0,92,92,92,,,,,,,,,,,,,49.77964359999896,0.0296435999989626,None,78.1470991999995,78.1470991999995,78.1470991999995,78.1470991999995,78.1470991999995,78.1470991999995,78.1470991999995,78.1470991999995,78.1470991999995,78.1470991999995,,004,P014,2025_Feb_28_1625,ConditionRich,2021.2.3,59.929905981737384,
50.0,50.75,31,0.75,Stimuli/P014/things_mask_07s.jpg,0,0,0.0,0,93,93,93,,,,,,,,,,,,,50.02753069999926,0.027530699999260833,None,78.38063750000038,78.38063750000038,78.38063750000038,78.38063750000038,78.38063750000038,78.38063750000038,78.38063750000038,78.38063750000038,78.38063750000038,78.38063750000038,,004,P014,2025_Feb_28_1625,ConditionRich,2021.2.3,59.929905981737384,
50.75,51.0,41,0.0,Stimuli/Blank.png,0,0,0.0,0,94,94,94,,,,,,,,,,,,,50.761616499999946,0.011616499999945518,None,79.11461919999965,79.11461919999965,79.11461919999965,79.11461919999965,79.11461919999965,79.11461919999965,79.11461919999965,79.11461919999965,79.11461919999965,79.11461919999965,,004,P014,2025_Feb_28_1625,ConditionRich,2021.2.3,59.929905981737384,
51.0,51.75,31,0.75,Stimuli/P014/things_mask_07s.jpg,0,0,0.0,0,95,95,95,,,,,,,,,,,,,51.011809199999334,0.011809199999333941,None,79.36483399999997,79.36483399999997,79.36483399999997,79.36483399999997,79.36483399999997,79.36483399999997,79.36483399999997,79.36483399999997,79.36483399999997,79.36483399999997,,004,P014,2025_Feb_28_1625,ConditionRich,2021.2.3,59.929905981737384,
51.75,52.0,41,0.0,Stimuli/Blank.png,0,0,0.0,0,96,96,96,,,,,,,,,,,,,51.76226099999985,0.012260999999853084,None,80.11561230000007,80.11561230000007,80.11561230000007,80.11561230000007,80.11561230000007,80.11561230000007,80.11561230000007,80.11561230000007,80.11561230000007,80.11561230000007,,004,P014,2025_Feb_28_1625,ConditionRich,2021.2.3,59.929905981737384,
52.0,52.75,22,0.75,Stimuli/P014/things_banner_07s.jpg,0,0,0.0,0,97,97,97,,,,,,,,,,,,,52.01257149999947,0.01257149999946705,None,80.38244209999903,80.38244209999903,80.38244209999903,80.38244209999903,80.38244209999903,80.38244209999903,80.38244209999903,80.38244209999903,80.38244209999903,80.38244209999903,,004,P014,2025_Feb_28_1625,ConditionRich,2021.2.3,59.929905981737384,
52.75,53.0,41,0.0,Stimuli/Blank.png,0,0,0.0,0,98,98,98,,,,,,,,,,,,,52.780626999998276,0.030626999998276005,None,81.13307390000045,81.13307390000045,81.13307390000045,81.13307390000045,81.13307390000045,81.13307390000045,81.13307390000045,81.13307390000045,81.13307390000045,81.13307390000045,,004,P014,2025_Feb_28_1625,ConditionRich,2021.2.3,59.929905981737384,
53.0,53.75,22,0.75,Stimuli/P014/things_banner_07s.jpg,0,0,0.0,0,99,99,99,,,,,,,,,,,,,53.01407519999884,0.014075199998842436,None,81.38340299999982,81.38340299999982,81.38340299999982,81.38340299999982,81.38340299999982,81.38340299999982,81.38340299999982,81.38340299999982,81.38340299999982,81.38340299999982,,004,P014,2025_Feb_28_1625,ConditionRich,2021.2.3,59.929905981737384,
53.75,54.0,41,0.0,Stimuli/Blank.png,0,0,0.0,0,100,100,100,,,,,,,,,,,,,53.7808847999986,0.03088479999860283,None,82.13395920000039,82.13395920000039,82.13395920000039,82.13395920000039,82.13395920000039,82.13395920000039,82.13395920000039,82.13395920000039,82.13395920000039,82.13395920000039,,004,P014,2025_Feb_28_1625,ConditionRich,2021.2.3,59.929905981737384,
54.0,54.75,22,0.75,Stimuli/P014/things_banner_07s.jpg,0,0,0.0,0,101,101,101,,,,,,,,,,,,,54.014694399998916,0.014694399998916197,None,82.36749229999987,82.36749229999987,82.36749229999987,82.36749229999987,82.36749229999987,82.36749229999987,82.36749229999987,82.36749229999987,82.36749229999987,82.36749229999987,,004,P014,2025_Feb_28_1625,ConditionRich,2021.2.3,59.929905981737384,
54.75,55.0,41,0.0,Stimuli/Blank.png,0,0,0.0,0,102,102,102,,,,,,,,,,,,,54.76704039999822,0.01704039999822271,None,83.11819040000046,83.11819040000046,83.11819040000046,83.11819040000046,83.11819040000046,83.11819040000046,83.11819040000046,83.11819040000046,83.11819040000046,83.11819040000046,,004,P014,2025_Feb_28_1625,ConditionRich,2021.2.3,59.929905981737384,
55.0,55.75,22,0.75,Stimuli/P014/things_banner_07s.jpg,0,0,0.0,0,103,103,103,,,,,,,,,,,,,54.9993773999995,-0.0006226000004971866,None,83.35170160000052,83.35170160000052,83.35170160000052,83.35170160000052,83.35170160000052,83.35170160000052,83.35170160000052,83.35170160000052,83.35170160000052,83.35170160000052,,004,P014,2025_Feb_28_1625,ConditionRich,2021.2.3,59.929905981737384,
55.75,56.0,41,0.0,Stimuli/Blank.png,0,0,0.0,0,104,104,104,,,,,,,,,,,,,55.75126509999973,0.0012650999997276813,None,84.11907659999997,84.11907659999997,84.11907659999997,84.11907659999997,84.11907659999997,84.11907659999997,84.11907659999997,84.11907659999997,84.11907659999997,84.11907659999997,,004,P014,2025_Feb_28_1625,ConditionRich,2021.2.3,59.929905981737384,
56.0,56.75,35,0.75,Stimuli/P014/things_road_sign_07s.jpg,0,0,0.0,0,105,105,105,,,,,,,,,,,,,56.01605859999836,0.01605859999835957,None,84.36927319999995,84.36927319999995,84.36927319999995,84.36927319999995,84.36927319999995,84.36927319999995,84.36927319999995,84.36927319999995,84.36927319999995,84.36927319999995,,004,P014,2025_Feb_28_1625,ConditionRich,2021.2.3,59.929905981737384,
56.75,57.0,41,0.0,Stimuli/Blank.png,0,0,0.0,0,106,106,106,,,,,,,,,,,,,56.751177899999675,0.0011778999996749917,None,85.10325759999978,85.10325759999978,85.10325759999978,85.10325759999978,85.10325759999978,85.10325759999978,85.10325759999978,85.10325759999978,85.10325759999978,85.10325759999978,,004,P014,2025_Feb_28_1625,ConditionRich,2021.2.3,59.929905981737384,
57.0,57.75,35,0.75,Stimuli/P014/things_road_sign_07s.jpg,0,0,0.0,0,107,107,107,,,,,,,,,,,,,57.00100289999864,0.0010028999986388953,None,85.35347279999951,85.35347279999951,85.35347279999951,85.35347279999951,85.35347279999951,85.35347279999951,85.35347279999951,85.35347279999951,85.35347279999951,85.35347279999951,,004,P014,2025_Feb_28_1625,ConditionRich,2021.2.3,59.929905981737384,
57.75,58.0,41,0.0,Stimuli/Blank.png,0,0,0.0,0,108,108,108,,,,,,,,,,,,,57.75155959999938,0.0015595999993820442,None,86.1041497999995,86.1041497999995,86.1041497999995,86.1041497999995,86.1041497999995,86.1041497999995,86.1041497999995,86.1041497999995,86.1041497999995,86.1041497999995,,004,P014,2025_Feb_28_1625,ConditionRich,2021.2.3,59.929905981737384,
58.0,58.75,35,0.75,Stimuli/P014/things_road_sign_07s.jpg,0,0,0.0,0,109,109,109,,,,,,,,,,,,,58.001161899999715,0.0011618999997153878,None,86.37104980000004,86.37104980000004,86.37104980000004,86.37104980000004,86.37104980000004,86.37104980000004,86.37104980000004,86.37104980000004,86.37104980000004,86.37104980000004,,004,P014,2025_Feb_28_1625,ConditionRich,2021.2.3,59.929905981737384,
58.75,59.0,41,0.0,Stimuli/Blank.png,0,0,0.0,0,110,110,110,,,,,,,,,,,,,58.76932709999892,0.01932709999891813,None,87.1217058000002,87.1217058000002,87.1217058000002,87.1217058000002,87.1217058000002,87.1217058000002,87.1217058000002,87.1217058000002,87.1217058000002,87.1217058000002,,004,P014,2025_Feb_28_1625,ConditionRich,2021.2.3,59.929905981737384,
59.0,59.75,35,0.75,Stimuli/P014/things_road_sign_07s.jpg,0,0,0.0,0,111,111,111,,,,,,,,,,,,,59.00464009999996,0.004640099999960512,None,87.37194090000048,87.37194090000048,87.37194090000048,87.37194090000048,87.37194090000048,87.37194090000048,87.37194090000048,87.37194090000048,87.37194090000048,87.37194090000048,,004,P014,2025_Feb_28_1625,ConditionRich,2021.2.3,59.929905981737384,
59.75,60.0,41,0.0,Stimuli/Blank.png,0,0,0.0,0,112,112,112,,,,,,,,,,,,,59.771982399999615,0.021982399999615154,None,88.13929300000018,88.13929300000018,88.13929300000018,88.13929300000018,88.13929300000018,88.13929300000018,88.13929300000018,88.13929300000018,88.13929300000018,88.13929300000018,,004,P014,2025_Feb_28_1625,ConditionRich,2021.2.3,59.929905981737384,
60.0,60.75,12,0.75,Stimuli/P014/sun_bjyrrxiwsnbmkbqs.jpg,0,0,0.0,0,113,113,113,,,,,,,,,,,,,60.02044729999943,0.02044729999943229,None,88.37281669999902,88.37281669999902,88.37281669999902,88.37281669999902,88.37281669999902,88.37281669999902,88.37281669999902,88.37281669999902,88.37281669999902,88.37281669999902,,004,P014,2025_Feb_28_1625,ConditionRich,2021.2.3,59.929905981737384,
60.75,61.0,41,0.0,Stimuli/Blank.png,0,0,0.0,0,114,114,114,,,,,,,,,,,,,60.75359329999992,0.0035932999999204185,None,89.10679840000012,89.10679840000012,89.10679840000012,89.10679840000012,89.10679840000012,89.10679840000012,89.10679840000012,89.10679840000012,89.10679840000012,89.10679840000012,,004,P014,2025_Feb_28_1625,ConditionRich,2021.2.3,59.929905981737384,
61.0,61.75,12,0.75,Stimuli/P014/sun_bjyrrxiwsnbmkbqs.jpg,0,0,0.0,0,115,115,115,,,,,,,,,,,,,61.00446649999867,0.00446649999867077,None,89.37371749999875,89.37371749999875,89.37371749999875,89.37371749999875,89.37371749999875,89.37371749999875,89.37371749999875,89.37371749999875,89.37371749999875,89.37371749999875,,004,P014,2025_Feb_28_1625,ConditionRich,2021.2.3,59.929905981737384,
61.75,62.0,41,0.0,Stimuli/Blank.png,0,0,0.0,0,116,116,116,,,,,,,,,,,,,61.77110629999879,0.021106299998791656,None,90.12437130000035,90.12437130000035,90.12437130000035,90.12437130000035,90.12437130000035,90.12437130000035,90.12437130000035,90.12437130000035,90.12437130000035,90.12437130000035,,004,P014,2025_Feb_28_1625,ConditionRich,2021.2.3,59.929905981737384,
62.0,62.75,12,0.75,Stimuli/P014/sun_bjyrrxiwsnbmkbqs.jpg,0,0,0.0,0,117,117,117,,,,,,,,,,,,,62.00572009999996,0.005720099999962258,None,90.35790520000046,90.35790520000046,90.35790520000046,90.35790520000046,90.35790520000046,90.35790520000046,90.35790520000046,90.35790520000046,90.35790520000046,90.35790520000046,,004,P014,2025_Feb_28_1625,ConditionRich,2021.2.3,59.929905981737384,
62.75,63.0,41,0.0,Stimuli/Blank.png,0,0,0.0,0,118,118,118,,,,,,,,,,,,,62.75535899999886,0.005358999998861691,None,91.10857029999897,91.10857029999897,91.10857029999897,91.10857029999897,91.10857029999897,91.10857029999897,91.10857029999897,91.10857029999897,91.10857029999897,91.10857029999897,,004,P014,2025_Feb_28_1625,ConditionRich,2021.2.3,59.929905981737384,
63.0,63.75,12,0.75,Stimuli/P014/sun_bjyrrxiwsnbmkbqs.jpg,0,0,0.0,0,119,119,119,,,,,,,,,,,,,63.00668299999961,0.0066829999996116385,None,91.35880240000006,91.35880240000006,91.35880240000006,91.35880240000006,91.35880240000006,91.35880240000006,91.35880240000006,91.35880240000006,91.35880240000006,91.35880240000006,,004,P014,2025_Feb_28_1625,ConditionRich,2021.2.3,59.929905981737384,
63.75,64.0,41,0.0,Stimuli/Blank.png,0,0,0.0,0,120,120,120,,,,,,,,,,,,,63.75678169999992,0.0067816999999195104,None,92.10945179999908,92.10945179999908,92.10945179999908,92.10945179999908,92.10945179999908,92.10945179999908,92.10945179999908,92.10945179999908,92.10945179999908,92.10945179999908,,004,P014,2025_Feb_28_1625,ConditionRich,2021.2.3,59.929905981737384,
64.0,64.75,14,0.75,Stimuli/P014/sun_bqhfterhwnqrbnzg.jpg,0,0,0.0,0,121,121,121,,,,,,,,,,,,,64.0066685999991,0.006668599999102298,None,92.35968899999898,92.35968899999898,92.35968899999898,92.35968899999898,92.35968899999898,92.35968899999898,92.35968899999898,92.35968899999898,92.35968899999898,92.35968899999898,,004,P014,2025_Feb_28_1625,ConditionRich,2021.2.3,59.929905981737384,
64.75,65.0,41,0.0,Stimuli/Blank.png,0,0,0.0,0,122,122,122,,,,,,,,,,,,,64.758671399999,0.00867139999900246,None,93.11035789999914,93.11035789999914,93.11035789999914,93.11035789999914,93.11035789999914,93.11035789999914,93.11035789999914,93.11035789999914,93.11035789999914,93.11035789999914,,004,P014,2025_Feb_28_1625,ConditionRich,2021.2.3,59.929905981737384,
65.0,65.75,14,0.75,Stimuli/P014/sun_bqhfterhwnqrbnzg.jpg,0,0,0.0,0,123,123,123,,,,,,,,,,,,,65.00794399999904,0.007943999999042717,None,93.37728409999909,93.37728409999909,93.37728409999909,93.37728409999909,93.37728409999909,93.37728409999909,93.37728409999909,93.37728409999909,93.37728409999909,93.37728409999909,,004,P014,2025_Feb_28_1625,ConditionRich,2021.2.3,59.929905981737384,
65.75,66.0,41,0.0,Stimuli/Blank.png,0,0,0.0,0,124,124,124,,,,,,,,,,,,,65.77474249999977,0.024742499999774736,None,94.12791169999946,94.12791169999946,94.12791169999946,94.12791169999946,94.12791169999946,94.12791169999946,94.12791169999946,94.12791169999946,94.12791169999946,94.12791169999946,,004,P014,2025_Feb_28_1625,ConditionRich,2021.2.3,59.929905981737384,
66.0,66.75,14,0.75,Stimuli/P014/sun_bqhfterhwnqrbnzg.jpg,0,0,0.0,0,125,125,125,,,,,,,,,,,,,66.00823939999827,0.008239399998274166,None,94.36145289999877,94.36145289999877,94.36145289999877,94.36145289999877,94.36145289999877,94.36145289999877,94.36145289999877,94.36145289999877,94.36145289999877,94.36145289999877,,004,P014,2025_Feb_28_1625,ConditionRich,2021.2.3,59.929905981737384,
66.75,67.0,41,0.0,Stimuli/Blank.png,0,0,0.0,0,126,126,126,,,,,,,,,,,,,66.75897809999879,0.008978099998785183,None,95.11211600000024,95.11211600000024,95.11211600000024,95.11211600000024,95.11211600000024,95.11211600000024,95.11211600000024,95.11211600000024,95.11211600000024,95.11211600000024,,004,P014,2025_Feb_28_1625,ConditionRich,2021.2.3,59.929905981737384,
67.0,67.75,14,0.75,Stimuli/P014/sun_bqhfterhwnqrbnzg.jpg,0,0,0.0,0,127,127,127,,,,,,,,,,,,,67.01023919999898,0.01023919999897771,None,95.3790356999998,95.3790356999998,95.3790356999998,95.3790356999998,95.3790356999998,95.3790356999998,95.3790356999998,95.3790356999998,95.3790356999998,95.3790356999998,,004,P014,2025_Feb_28_1625,ConditionRich,2021.2.3,59.929905981737384,
67.75,68.0,41,0.0,Stimuli/Blank.png,0,0,0.0,0,128,128,128,,,,,,,,,,,,,67.77764269999898,0.02764269999897806,None,96.12968650000039,96.12968650000039,96.12968650000039,96.12968650000039,96.12968650000039,96.12968650000039,96.12968650000039,96.12968650000039,96.12968650000039,96.12968650000039,,004,P014,2025_Feb_28_1625,ConditionRich,2021.2.3,59.929905981737384,
68.0,68.75,9,0.75,Stimuli/P014/sun_bdgwqzttihopmpbf.jpg,1,0,0.75,0,129,129,129,,,,,,,,,,,,,68.00990469999851,0.009904699998514843,1,96.37992639999902,96.37992639999902,96.37992639999902,96.37992639999902,96.37992639999902,96.37992639999902,96.37992639999902,97.09725009999966,96.37992639999902,96.37992639999902,0.4229901999988215,004,P014,2025_Feb_28_1625,ConditionRich,2021.2.3,59.929905981737384,
68.75,69.0,41,0.0,Stimuli/Blank.png,0,0,0.0,0,130,130,130,,,,,,,,,,,,,68.77863109999998,0.028631099999984144,None,97.13057189999927,97.13057189999927,97.13057189999927,97.13057189999927,97.13057189999927,97.13057189999927,97.13057189999927,97.13057189999927,97.13057189999927,97.13057189999927,,004,P014,2025_Feb_28_1625,ConditionRich,2021.2.3,59.929905981737384,
69.0,69.75,9,0.75,Stimuli/P014/sun_bdgwqzttihopmpbf.jpg,0,0,0.0,0,131,131,131,,,,,,,,,,,,,69.01326840000002,0.01326840000001539,None,97.38081950000014,97.38081950000014,97.38081950000014,97.38081950000014,97.38081950000014,97.38081950000014,97.38081950000014,97.38081950000014,97.38081950000014,97.38081950000014,,004,P014,2025_Feb_28_1625,ConditionRich,2021.2.3,59.929905981737384,
69.75,70.0,41,0.0,Stimuli/Blank.png,0,0,0.0,0,132,132,132,,,,,,,,,,,,,69.77876799999831,0.02876799999830837,None,98.13145529999929,98.13145529999929,98.13145529999929,98.13145529999929,98.13145529999929,98.13145529999929,98.13145529999929,98.13145529999929,98.13145529999929,98.13145529999929,,004,P014,2025_Feb_28_1625,ConditionRich,2021.2.3,59.929905981737384,
70.0,70.75,9,0.75,Stimuli/P014/sun_bdgwqzttihopmpbf.jpg,0,0,0.0,0,133,133,133,,,,,,,,,,,,,70.01261839999825,0.012618399998245877,None,98.36500100000012,98.36500100000012,98.36500100000012,98.36500100000012,98.36500100000012,98.36500100000012,98.36500100000012,98.36500100000012,98.36500100000012,98.36500100000012,,004,P014,2025_Feb_28_1625,ConditionRich,2021.2.3,59.929905981737384,
70.75,71.0,41,0.0,Stimuli/Blank.png,0,0,0.0,0,134,134,134,,,,,,,,,,,,,70.76359269999921,0.01359269999920798,None,99.11567169999944,99.11567169999944,99.11567169999944,99.11567169999944,99.11567169999944,99.11567169999944,99.11567169999944,99.11567169999944,99.11567169999944,99.11567169999944,,004,P014,2025_Feb_28_1625,ConditionRich,2021.2.3,59.929905981737384,
71.0,71.75,9,0.75,Stimuli/P014/sun_bdgwqzttihopmpbf.jpg,0,0,0.0,0,135,135,135,,,,,,,,,,,,,71.01342799999838,0.013427999998384621,None,99.3825969999998,99.3825969999998,99.3825969999998,99.3825969999998,99.3825969999998,99.3825969999998,99.3825969999998,99.3825969999998,99.3825969999998,99.3825969999998,,004,P014,2025_Feb_28_1625,ConditionRich,2021.2.3,59.929905981737384,
71.75,72.0,41,0.0,Stimuli/Blank.png,0,0,0.0,0,136,136,136,,,,,,,,,,,,,71.78053799999907,0.030537999999069143,None,100.13322759999937,100.13322759999937,100.13322759999937,100.13322759999937,100.13322759999937,100.13322759999937,100.13322759999937,100.13322759999937,100.13322759999937,100.13322759999937,,004,P014,2025_Feb_28_1625,ConditionRich,2021.2.3,59.929905981737384,
72.0,72.75,6,0.75,Stimuli/P014/sun_aoejkkmwkfegacni.jpg,0,0,0.0,0,137,137,137,,,,,,,,,,,,,72.01341169999978,0.013411699999778648,None,100.36676350000016,100.36676350000016,100.36676350000016,100.36676350000016,100.36676350000016,100.36676350000016,100.36676350000016,100.36676350000016,100.36676350000016,100.36676350000016,,004,P014,2025_Feb_28_1625,ConditionRich,2021.2.3,59.929905981737384,
72.75,73.0,41,0.0,Stimuli/Blank.png,0,0,0.0,0,138,138,138,,,,,,,,,,,,,72.76440860000002,0.014408600000024308,None,101.11743399999978,101.11743399999978,101.11743399999978,101.11743399999978,101.11743399999978,101.11743399999978,101.11743399999978,101.11743399999978,101.11743399999978,101.11743399999978,,004,P014,2025_Feb_28_1625,ConditionRich,2021.2.3,59.929905981737384,
73.0,73.75,6,0.75,Stimuli/P014/sun_aoejkkmwkfegacni.jpg,0,0,0.0,0,139,139,139,,,,,,,,,,,,,73.01454779999949,0.014547799999490962,None,101.36766659999921,101.36766659999921,101.36766659999921,101.36766659999921,101.36766659999921,101.36766659999921,101.36766659999921,101.36766659999921,101.36766659999921,101.36766659999921,,004,P014,2025_Feb_28_1625,ConditionRich,2021.2.3,59.929905981737384,
73.75,74.0,41,0.0,Stimuli/Blank.png,0,0,0.0,0,140,140,140,,,,,,,,,,,,,73.7649652,0.014965200000006007,None,102.11831809999967,102.11831809999967,102.11831809999967,102.11831809999967,102.11831809999967,102.11831809999967,102.11831809999967,102.11831809999967,102.11831809999967,102.11831809999967,,004,P014,2025_Feb_28_1625,ConditionRich,2021.2.3,59.929905981737384,
74.0,74.75,6,0.75,Stimuli/P014/sun_aoejkkmwkfegacni.jpg,0,0,0.0,0,141,141,141,,,,,,,,,,,,,74.01556869999877,0.015568699998766533,None,102.36854060000041,102.36854060000041,102.36854060000041,102.36854060000041,102.36854060000041,102.36854060000041,102.36854060000041,102.36854060000041,102.36854060000041,102.36854060000041,,004,P014,2025_Feb_28_1625,ConditionRich,2021.2.3,59.929905981737384,
74.75,75.0,41,0.0,Stimuli/Blank.png,0,0,0.0,0,142,142,142,,,,,,,,,,,,,74.75234299999829,0.0023429999982909067,None,103.10254569999961,103.10254569999961,103.10254569999961,103.10254569999961,103.10254569999961,103.10254569999961,103.10254569999961,103.10254569999961,103.10254569999961,103.10254569999961,,004,P014,2025_Feb_28_1625,ConditionRich,2021.2.3,59.929905981737384,
75.0,75.75,6,0.75,Stimuli/P014/sun_aoejkkmwkfegacni.jpg,0,0,0.0,0,143,143,143,,,,,,,,,,,,,74.99962439999945,-0.0003756000005523674,None,103.35274079999908,103.35274079999908,103.35274079999908,103.35274079999908,103.35274079999908,103.35274079999908,103.35274079999908,103.35274079999908,103.35274079999908,103.35274079999908,,004,P014,2025_Feb_28_1625,ConditionRich,2021.2.3,59.929905981737384,
75.75,76.0,41,0.0,Stimuli/Blank.png,0,0,0.0,0,144,144,144,,,,,,,,,,,,,75.75105129999974,0.001051299999744515,None,104.10341359999984,104.10341359999984,104.10341359999984,104.10341359999984,104.10341359999984,104.10341359999984,104.10341359999984,104.10341359999984,104.10341359999984,104.10341359999984,,004,P014,2025_Feb_28_1625,ConditionRich,2021.2.3,59.929905981737384,
76.0,76.75,29,0.75,Stimuli/P014/things_iguana_07s.jpg,0,0,0.0,0,145,145,145,,,,,,,,,,,,,76.00157579999905,0.0015757999990455573,None,104.37033419999898,104.37033419999898,104.37033419999898,104.37033419999898,104.37033419999898,104.37033419999898,104.37033419999898,104.37033419999898,104.37033419999898,104.37033419999898,,004,P014,2025_Feb_28_1625,ConditionRich,2021.2.3,59.929905981737384,
76.75,77.0,41,0.0,Stimuli/Blank.png,0,0,0.0,0,146,146,146,,,,,,,,,,,,,76.76772769999843,0.01772769999843149,None,105.12095269999918,105.12095269999918,105.12095269999918,105.12095269999918,105.12095269999918,105.12095269999918,105.12095269999918,105.12095269999918,105.12095269999918,105.12095269999918,,004,P014,2025_Feb_28_1625,ConditionRich,2021.2.3,59.929905981737384,
77.0,77.75,29,0.75,Stimuli/P014/things_iguana_07s.jpg,0,0,0.0,0,147,147,147,,,,,,,,,,,,,77.0013001999996,0.0013001999996049562,None,105.35451339999963,105.35451339999963,105.35451339999963,105.35451339999963,105.35451339999963,105.35451339999963,105.35451339999963,105.35451339999963,105.35451339999963,105.35451339999963,,004,P014,2025_Feb_28_1625,ConditionRich,2021.2.3,59.929905981737384,
77.75,78.0,41,0.0,Stimuli/Blank.png,0,0,0.0,0,148,148,148,,,,,,,,,,,,,77.75272199999927,0.0027219999992667,None,106.10518299999967,106.10518299999967,106.10518299999967,106.10518299999967,106.10518299999967,106.10518299999967,106.10518299999967,106.10518299999967,106.10518299999967,106.10518299999967,,004,P014,2025_Feb_28_1625,ConditionRich,2021.2.3,59.929905981737384,
78.0,78.75,29,0.75,Stimuli/P014/things_iguana_07s.jpg,0,0,0.0,0,149,149,149,,,,,,,,,,,,,78.00285769999937,0.002857699999367469,None,106.37209599999915,106.37209599999915,106.37209599999915,106.37209599999915,106.37209599999915,106.37209599999915,106.37209599999915,106.37209599999915,106.37209599999915,106.37209599999915,,004,P014,2025_Feb_28_1625,ConditionRich,2021.2.3,59.929905981737384,
78.75,79.0,41,0.0,Stimuli/Blank.png,0,0,0.0,0,150,150,150,,,,,,,,,,,,,78.77029759999823,0.020297599998229998,None,107.12276629999906,107.12276629999906,107.12276629999906,107.12276629999906,107.12276629999906,107.12276629999906,107.12276629999906,107.12276629999906,107.12276629999906,107.12276629999906,,004,P014,2025_Feb_28_1625,ConditionRich,2021.2.3,59.929905981737384,
79.0,79.75,29,0.75,Stimuli/P014/things_iguana_07s.jpg,0,0,0.0,0,151,151,151,,,,,,,,,,,,,79.00653819999934,0.006538199999340577,None,107.37299469999925,107.37299469999925,107.37299469999925,107.37299469999925,107.37299469999925,107.37299469999925,107.37299469999925,107.37299469999925,107.37299469999925,107.37299469999925,,004,P014,2025_Feb_28_1625,ConditionRich,2021.2.3,59.929905981737384,
79.75,80.0,41,0.0,Stimuli/Blank.png,0,0,0.0,0,152,152,152,,,,,,,,,,,,,79.77073329999985,0.020733299999847077,None,108.12363709999954,108.12363709999954,108.12363709999954,108.12363709999954,108.12363709999954,108.12363709999954,108.12363709999954,108.12363709999954,108.12363709999954,108.12363709999954,,004,P014,2025_Feb_28_1625,ConditionRich,2021.2.3,59.929905981737384,
80.0,80.75,37,0.75,Stimuli/P014/things_slug_07s.jpg,0,0,0.0,0,153,153,153,,,,,,,,,,,,,80.0045644999991,0.004564499999105465,None,108.37386200000037,108.37386200000037,108.37386200000037,108.37386200000037,108.37386200000037,108.37386200000037,108.37386200000037,108.37386200000037,108.37386200000037,108.37386200000037,,004,P014,2025_Feb_28_1625,ConditionRich,2021.2.3,59.929905981737384,
80.75,81.0,41,0.0,Stimuli/Blank.png,0,0,0.0,0,154,154,154,,,,,,,,,,,,,80.77200369999991,0.022003699999913806,None,109.12452379999922,109.12452379999922,109.12452379999922,109.12452379999922,109.12452379999922,109.12452379999922,109.12452379999922,109.12452379999922,109.12452379999922,109.12452379999922,,004,P014,2025_Feb_28_1625,ConditionRich,2021.2.3,59.929905981737384,
81.0,81.75,37,0.75,Stimuli/P014/things_slug_07s.jpg,0,0,0.0,0,155,155,155,,,,,,,,,,,,,81.0047571999985,0.004757199998493888,None,109.35807029999887,109.35807029999887,109.35807029999887,109.35807029999887,109.35807029999887,109.35807029999887,109.35807029999887,109.35807029999887,109.35807029999887,109.35807029999887,,004,P014,2025_Feb_28_1625,ConditionRich,2021.2.3,59.929905981737384,
81.75,82.0,41,0.0,Stimuli/Blank.png,0,0,0.0,0,156,156,156,,,,,,,,,,,,,81.75648629999887,0.006486299998869072,None,110.10872949999975,110.10872949999975,110.10872949999975,110.10872949999975,110.10872949999975,110.10872949999975,110.10872949999975,110.10872949999975,110.10872949999975,110.10872949999975,,004,P014,2025_Feb_28_1625,ConditionRich,2021.2.3,59.929905981737384,
82.0,82.75,37,0.75,Stimuli/P014/things_slug_07s.jpg,0,0,0.0,0,157,157,157,,,,,,,,,,,,,82.00646329999836,0.006463299998358707,None,110.3589480999999,110.3589480999999,110.3589480999999,110.3589480999999,110.3589480999999,110.3589480999999,110.3589480999999,110.3589480999999,110.3589480999999,110.3589480999999,,004,P014,2025_Feb_28_1625,ConditionRich,2021.2.3,59.929905981737384,
82.75,83.0,41,0.0,Stimuli/Blank.png,0,0,0.0,0,158,158,158,,,,,,,,,,,,,82.75904039999841,0.009040399998411885,None,111.12631419999889,111.12631419999889,111.12631419999889,111.12631419999889,111.12631419999889,111.12631419999889,111.12631419999889,111.12631419999889,111.12631419999889,111.12631419999889,,004,P014,2025_Feb_28_1625,ConditionRich,2021.2.3,59.929905981737384,
83.0,83.75,37,0.75,Stimuli/P014/things_slug_07s.jpg,0,0,0.0,0,159,159,159,,,,,,,,,,,,,83.02410749999945,0.02410749999944528,None,111.37651240000014,111.37651240000014,111.37651240000014,111.37651240000014,111.37651240000014,111.37651240000014,111.37651240000014,111.37651240000014,111.37651240000014,111.37651240000014,,004,P014,2025_Feb_28_1625,ConditionRich,2021.2.3,59.929905981737384,
83.75,84.0,41,0.0,Stimuli/Blank.png,0,0,0.0,0,160,160,160,,,,,,,,,,,,,83.75991209999847,0.009912099998473423,None,112.12719680000009,112.12719680000009,112.12719680000009,112.12719680000009,112.12719680000009,112.12719680000009,112.12719680000009,112.12719680000009,112.12719680000009,112.12719680000009,,004,P014,2025_Feb_28_1625,ConditionRich,2021.2.3,59.929905981737384,
84.0,100.0,0,0.0,Stimuli/Blank.png,1,6,6.75,0,161,161,161,,,,,,,,,,,,,84.02476949999982,0.024769499999820255,1,112.37740359999952,112.37740359999952,112.37740359999952,112.37740359999952,112.37740359999952,112.37740359999952,118.3660404000002,119.11671889999889,112.37740359999952,112.37740359999952,6.388209599999755,004,P014,2025_Feb_28_1625,ConditionRich,2021.2.3,59.929905981737384,
100.0,100.75,24,0.75,Stimuli/P014/things_bungee_07s.jpg,0,0,0.0,0,162,162,162,,,,,,,,,,,,,100.00559329999851,0.005593299998508883,None,128.35821889999897,128.35821889999897,128.35821889999897,128.35821889999897,128.35821889999897,128.35821889999897,128.35821889999897,128.35821889999897,128.35821889999897,128.35821889999897,,004,P014,2025_Feb_28_1625,ConditionRich,2021.2.3,59.929905981737384,
100.75,101.0,41,0.0,Stimuli/Blank.png,0,0,0.0,0,163,163,163,,,,,,,,,,,,,100.7562786999988,0.00627869999880204,None,129.10887679999905,129.10887679999905,129.10887679999905,129.10887679999905,129.10887679999905,129.10887679999905,129.10887679999905,129.10887679999905,129.10887679999905,129.10887679999905,,004,P014,2025_Feb_28_1625,ConditionRich,2021.2.3,59.929905981737384,
101.0,101.75,24,0.75,Stimuli/P014/things_bungee_07s.jpg,0,0,0.0,0,164,164,164,,,,,,,,,,,,,101.00677479999831,0.0067747999983112095,None,129.37584799999968,129.37584799999968,129.37584799999968,129.37584799999968,129.37584799999968,129.37584799999968,129.37584799999968,129.37584799999968,129.37584799999968,129.37584799999968,,004,P014,2025_Feb_28_1625,ConditionRich,2021.2.3,59.929905981737384,
101.75,102.0,41,0.0,Stimuli/Blank.png,0,0,0.0,0,165,165,165,,,,,,,,,,,,,101.77320719999989,0.023207199999887962,None,130.12645349999912,130.12645349999912,130.12645349999912,130.12645349999912,130.12645349999912,130.12645349999912,130.12645349999912,130.12645349999912,130.12645349999912,130.12645349999912,,004,P014,2025_Feb_28_1625,ConditionRich,2021.2.3,59.929905981737384,
102.0,102.75,24,0.75,Stimuli/P014/things_bungee_07s.jpg,0,0,0.0,0,166,166,166,,,,,,,,,,,,,102.00678159999916,0.006781599999158061,None,130.35998680000012,130.35998680000012,130.35998680000012,130.35998680000012,130.35998680000012,130.35998680000012,130.35998680000012,130.35998680000012,130.35998680000012,130.35998680000012,,004,P014,2025_Feb_28_1625,ConditionRich,2021.2.3,59.929905981737384,
102.75,103.0,41,0.0,Stimuli/Blank.png,0,0,0.0,0,167,167,167,,,,,,,,,,,,,102.75739859999885,0.007398599998850841,None,131.11066289999872,131.11066289999872,131.11066289999872,131.11066289999872,131.11066289999872,131.11066289999872,131.11066289999872,131.11066289999872,131.11066289999872,131.11066289999872,,004,P014,2025_Feb_28_1625,ConditionRich,2021.2.3,59.929905981737384,
103.0,103.75,24,0.75,Stimuli/P014/things_bungee_07s.jpg,0,0,0.0,0,168,168,168,,,,,,,,,,,,,103.00798880000002,0.007988800000021001,None,131.3775659999992,131.3775659999992,131.3775659999992,131.3775659999992,131.3775659999992,131.3775659999992,131.3775659999992,131.3775659999992,131.3775659999992,131.3775659999992,,004,P014,2025_Feb_28_1625,ConditionRich,2021.2.3,59.929905981737384,
103.75,104.0,41,0.0,Stimuli/Blank.png,0,0,0.0,0,169,169,169,,,,,,,,,,,,,103.77874299999894,0.028742999998939922,None,132.14493629999924,132.14493629999924,132.14493629999924,132.14493629999924,132.14493629999924,132.14493629999924,132.14493629999924,132.14493629999924,132.14493629999924,132.14493629999924,,004,P014,2025_Feb_28_1625,ConditionRich,2021.2.3,59.929905981737384,
104.0,104.75,2,0.75,Stimuli/P014/sun_adotnsaifoooswkf.jpg,0,0,0.0,0,170,170,170,,,,,,,,,,,,,104.02784149999934,0.027841499999340158,None,132.39513249999982,132.39513249999982,132.39513249999982,132.39513249999982,132.39513249999982,132.39513249999982,132.39513249999982,132.39513249999982,132.39513249999982,132.39513249999982,,004,P014,2025_Feb_28_1625,ConditionRich,2021.2.3,59.929905981737384,
104.75,105.0,41,0.0,Stimuli/Blank.png,0,0,0.0,0,171,171,171,,,,,,,,,,,,,104.77662389999932,0.02662389999932202,None,133.12911559999884,133.12911559999884,133.12911559999884,133.12911559999884,133.12911559999884,133.12911559999884,133.12911559999884,133.12911559999884,133.12911559999884,133.12911559999884,,004,P014,2025_Feb_28_1625,ConditionRich,2021.2.3,59.929905981737384,
105.0,105.75,2,0.75,Stimuli/P014/sun_adotnsaifoooswkf.jpg,0,0,0.0,0,172,172,172,,,,,,,,,,,,,105.01197939999838,0.011979399998381268,None,133.3793310000001,133.3793310000001,133.3793310000001,133.3793310000001,133.3793310000001,133.3793310000001,133.3793310000001,133.3793310000001,133.3793310000001,133.3793310000001,,004,P014,2025_Feb_28_1625,ConditionRich,2021.2.3,59.929905981737384,
105.75,106.0,41,0.0,Stimuli/Blank.png,0,0,0.0,0,173,173,173,,,,,,,,,,,,,105.77684679999948,0.02684679999947548,None,134.1299610999995,134.1299610999995,134.1299610999995,134.1299610999995,134.1299610999995,134.1299610999995,134.1299610999995,134.1299610999995,134.1299610999995,134.1299610999995,,004,P014,2025_Feb_28_1625,ConditionRich,2021.2.3,59.929905981737384,
106.0,106.75,2,0.75,Stimuli/P014/sun_adotnsaifoooswkf.jpg,0,0,0.0,0,174,174,174,,,,,,,,,,,,,106.01030529999844,0.010305299998435657,None,134.3635316,134.3635316,134.3635316,134.3635316,134.3635316,134.3635316,134.3635316,134.3635316,134.3635316,134.3635316,,004,P014,2025_Feb_28_1625,ConditionRich,2021.2.3,59.929905981737384,
106.75,107.0,41,0.0,Stimuli/Blank.png,0,0,0.0,0,175,175,175,,,,,,,,,,,,,106.76227069999914,0.012270699999135104,None,135.1142020999996,135.1142020999996,135.1142020999996,135.1142020999996,135.1142020999996,135.1142020999996,135.1142020999996,135.1142020999996,135.1142020999996,135.1142020999996,,004,P014,2025_Feb_28_1625,ConditionRich,2021.2.3,59.929905981737384,
107.0,107.75,2,0.75,Stimuli/P014/sun_adotnsaifoooswkf.jpg,0,0,0.0,0,176,176,176,,,,,,,,,,,,,107.0116608999997,0.011660899999696994,None,135.3644203999993,135.3644203999993,135.3644203999993,135.3644203999993,135.3644203999993,135.3644203999993,135.3644203999993,135.3644203999993,135.3644203999993,135.3644203999993,,004,P014,2025_Feb_28_1625,ConditionRich,2021.2.3,59.929905981737384,
107.75,108.0,41,0.0,Stimuli/Blank.png,0,0,0.0,0,177,177,177,,,,,,,,,,,,,107.76185369999985,0.011853699999846867,None,136.1150935000005,136.1150935000005,136.1150935000005,136.1150935000005,136.1150935000005,136.1150935000005,136.1150935000005,136.1150935000005,136.1150935000005,136.1150935000005,,004,P014,2025_Feb_28_1625,ConditionRich,2021.2.3,59.929905981737384,
108.0,108.75,27,0.75,Stimuli/P014/things_face_07s.jpg,0,0,0.0,0,178,178,178,,,,,,,,,,,,,108.01208919999954,0.012089199999536504,None,136.36530259999927,136.36530259999927,136.36530259999927,136.36530259999927,136.36530259999927,136.36530259999927,136.36530259999927,136.36530259999927,136.36530259999927,136.36530259999927,,004,P014,2025_Feb_28_1625,ConditionRich,2021.2.3,59.929905981737384,
108.75,109.0,41,0.0,Stimuli/Blank.png,0,0,0.0,0,179,179,179,,,,,,,,,,,,,108.76353239999844,0.01353239999843936,None,137.11602270000003,137.11602270000003,137.11602270000003,137.11602270000003,137.11602270000003,137.11602270000003,137.11602270000003,137.11602270000003,137.11602270000003,137.11602270000003,,004,P014,2025_Feb_28_1625,ConditionRich,2021.2.3,59.929905981737384,
109.0,109.75,27,0.75,Stimuli/P014/things_face_07s.jpg,0,0,0.0,0,180,180,180,,,,,,,,,,,,,109.01351969999996,0.013519699999960721,None,137.38288939999984,137.38288939999984,137.38288939999984,137.38288939999984,137.38288939999984,137.38288939999984,137.38288939999984,137.38288939999984,137.38288939999984,137.38288939999984,,004,P014,2025_Feb_28_1625,ConditionRich,2021.2.3,59.929905981737384,
109.75,110.0,41,0.0,Stimuli/Blank.png,0,0,0.0,0,181,181,181,,,,,,,,,,,,,109.78018959999827,0.030189599998266203,None,138.13353459999962,138.13353459999962,138.13353459999962,138.13353459999962,138.13353459999962,138.13353459999962,138.13353459999962,138.13353459999962,138.13353459999962,138.13353459999962,,004,P014,2025_Feb_28_1625,ConditionRich,2021.2.3,59.929905981737384,
110.0,110.75,27,0.75,Stimuli/P014/things_face_07s.jpg,0,0,0.0,0,182,182,182,,,,,,,,,,,,,110.01524099999915,0.015240999999150517,None,138.38377939999918,138.38377939999918,138.38377939999918,138.38377939999918,138.38377939999918,138.38377939999918,138.38377939999918,138.38377939999918,138.38377939999918,138.38377939999918,,004,P014,2025_Feb_28_1625,ConditionRich,2021.2.3,59.929905981737384,
110.75,111.0,41,0.0,Stimuli/Blank.png,0,0,0.0,0,183,183,183,,,,,,,,,,,,,110.76645539999845,0.01645539999844914,None,139.1344664999997,139.1344664999997,139.1344664999997,139.1344664999997,139.1344664999997,139.1344664999997,139.1344664999997,139.1344664999997,139.1344664999997,139.1344664999997,,004,P014,2025_Feb_28_1625,ConditionRich,2021.2.3,59.929905981737384,
111.0,111.75,27,0.75,Stimuli/P014/things_face_07s.jpg,0,0,0.0,0,184,184,184,,,,,,,,,,,,,111.01485329999923,0.01485329999923124,None,139.36796309999954,139.36796309999954,139.36796309999954,139.36796309999954,139.36796309999954,139.36796309999954,139.36796309999954,139.36796309999954,139.36796309999954,139.36796309999954,,004,P014,2025_Feb_28_1625,ConditionRich,2021.2.3,59.929905981737384,
111.75,112.0,41,0.0,Stimuli/Blank.png,0,0,0.0,0,185,185,185,,,,,,,,,,,,,111.76624829999855,0.016248299998551374,None,140.1186428000001,140.1186428000001,140.1186428000001,140.1186428000001,140.1186428000001,140.1186428000001,140.1186428000001,140.1186428000001,140.1186428000001,140.1186428000001,,004,P014,2025_Feb_28_1625,ConditionRich,2021.2.3,59.929905981737384,
112.0,112.75,3,0.75,Stimuli/P014/sun_aengzsmykwchlrdn.jpg,0,0,0.0,0,186,186,186,,,,,,,,,,,,,112.00087199999871,0.0008719999987079063,None,140.36886269999923,140.36886269999923,140.36886269999923,140.36886269999923,140.36886269999923,140.36886269999923,140.36886269999923,140.36886269999923,140.36886269999923,140.36886269999923,,004,P014,2025_Feb_28_1625,ConditionRich,2021.2.3,59.929905981737384,
112.75,113.0,41,0.0,Stimuli/Blank.png,0,0,0.0,0,187,187,187,,,,,,,,,,,,,112.76668999999856,0.01668999999856169,None,141.11953220000032,141.11953220000032,141.11953220000032,141.11953220000032,141.11953220000032,141.11953220000032,141.11953220000032,141.11953220000032,141.11953220000032,141.11953220000032,,004,P014,2025_Feb_28_1625,ConditionRich,2021.2.3,59.929905981737384,
113.0,113.75,3,0.75,Stimuli/P014/sun_aengzsmykwchlrdn.jpg,0,0,0.0,0,188,188,188,,,,,,,,,,,,,113.00046719999955,0.00046719999954802915,None,141.35305270000026,141.35305270000026,141.35305270000026,141.35305270000026,141.35305270000026,141.35305270000026,141.35305270000026,141.35305270000026,141.35305270000026,141.35305270000026,,004,P014,2025_Feb_28_1625,ConditionRich,2021.2.3,59.929905981737384,
113.75,114.0,41,0.0,Stimuli/Blank.png,0,0,0.0,0,189,189,189,,,,,,,,,,,,,113.7509459999983,0.0009459999982937006,None,142.10372540000026,142.10372540000026,142.10372540000026,142.10372540000026,142.10372540000026,142.10372540000026,142.10372540000026,142.10372540000026,142.10372540000026,142.10372540000026,,004,P014,2025_Feb_28_1625,ConditionRich,2021.2.3,59.929905981737384,
114.0,114.75,3,0.75,Stimuli/P014/sun_aengzsmykwchlrdn.jpg,0,0,0.0,0,190,190,190,,,,,,,,,,,,,114.00178789999882,0.0017878999988170108,None,142.37066570000025,142.37066570000025,142.37066570000025,142.37066570000025,142.37066570000025,142.37066570000025,142.37066570000025,142.37066570000025,142.37066570000025,142.37066570000025,,004,P014,2025_Feb_28_1625,ConditionRich,2021.2.3,59.929905981737384,
114.75,115.0,41,0.0,Stimuli/Blank.png,0,0,0.0,0,191,191,191,,,,,,,,,,,,,114.76811579999958,0.018115799999577575,None,143.12129939999977,143.12129939999977,143.12129939999977,143.12129939999977,143.12129939999977,143.12129939999977,143.12129939999977,143.12129939999977,143.12129939999977,143.12129939999977,,004,P014,2025_Feb_28_1625,ConditionRich,2021.2.3,59.929905981737384,
115.0,115.75,3,0.75,Stimuli/P014/sun_aengzsmykwchlrdn.jpg,1,0,0.75,0,192,192,192,,,,,,,,,,,,,115.00248339999962,0.002483399999618996,1,143.371513099999,143.371513099999,143.371513099999,143.371513099999,143.371513099999,143.371513099999,143.371513099999,144.08880359999966,143.371513099999,143.371513099999,0.3782843999997567,004,P014,2025_Feb_28_1625,ConditionRich,2021.2.3,59.929905981737384,
115.75,116.0,41,0.0,Stimuli/Blank.png,0,0,0.0,0,193,193,193,,,,,,,,,,,,,115.77102339999874,0.021023399998739478,None,144.13889910000034,144.13889910000034,144.13889910000034,144.13889910000034,144.13889910000034,144.13889910000034,144.13889910000034,144.13889910000034,144.13889910000034,144.13889910000034,,004,P014,2025_Feb_28_1625,ConditionRich,2021.2.3,59.929905981737384,
116.0,116.75,13,0.75,Stimuli/P014/sun_bpccpwpohfirajtf.jpg,0,0,0.0,0,194,194,194,,,,,,,,,,,,,116.02000969999972,0.020009699999718578,None,144.37239539999973,144.37239539999973,144.37239539999973,144.37239539999973,144.37239539999973,144.37239539999973,144.37239539999973,144.37239539999973,144.37239539999973,144.37239539999973,,004,P014,2025_Feb_28_1625,ConditionRich,2021.2.3,59.929905981737384,
116.75,117.0,41,0.0,Stimuli/Blank.png,0,0,0.0,0,195,195,195,,,,,,,,,,,,,116.7532001999989,0.0032001999989006435,None,145.10647919999974,145.10647919999974,145.10647919999974,145.10647919999974,145.10647919999974,145.10647919999974,145.10647919999974,145.10647919999974,145.10647919999974,145.10647919999974,,004,P014,2025_Feb_28_1625,ConditionRich,2021.2.3,59.929905981737384,
117.0,117.75,13,0.75,Stimuli/P014/sun_bpccpwpohfirajtf.jpg,0,0,0.0,0,196,196,196,,,,,,,,,,,,,117.00333469999896,0.0033346999989589676,None,145.37329370000043,145.37329370000043,145.37329370000043,145.37329370000043,145.37329370000043,145.37329370000043,145.37329370000043,145.37329370000043,145.37329370000043,145.37329370000043,,004,P014,2025_Feb_28_1625,ConditionRich,2021.2.3,59.929905981737384,
117.75,118.0,41,0.0,Stimuli/Blank.png,0,0,0.0,0,197,197,197,,,,,,,,,,,,,117.77105049999955,0.021050499999546446,None,146.12392629999886,146.12392629999886,146.12392629999886,146.12392629999886,146.12392629999886,146.12392629999886,146.12392629999886,146.12392629999886,146.12392629999886,146.12392629999886,,004,P014,2025_Feb_28_1625,ConditionRich,2021.2.3,59.929905981737384,
118.0,118.75,13,0.75,Stimuli/P014/sun_bpccpwpohfirajtf.jpg,1,0,0.75,0,198,198,198,,,,,,,,,,,,,118.00485630000003,0.004856300000028568,1,146.35748729999978,146.35748729999978,146.35748729999978,146.35748729999978,146.35748729999978,146.35748729999978,146.35748729999978,147.09159550000004,146.35748729999978,146.35748729999978,0.43134569999892847,004,P014,2025_Feb_28_1625,ConditionRich,2021.2.3,59.929905981737384,
118.75,119.0,41,0.0,Stimuli/Blank.png,0,0,0.0,0,199,199,199,,,,,,,,,,,,,118.75657759999922,0.006577599999218364,None,147.12489079999978,147.12489079999978,147.12489079999978,147.12489079999978,147.12489079999978,147.12489079999978,147.12489079999978,147.12489079999978,147.12489079999978,147.12489079999978,,004,P014,2025_Feb_28_1625,ConditionRich,2021.2.3,59.929905981737384,
119.0,119.75,13,0.75,Stimuli/P014/sun_bpccpwpohfirajtf.jpg,0,0,0.0,0,200,200,200,,,,,,,,,,,,,119.02205099999992,0.02205099999991944,None,147.37505260000034,147.37505260000034,147.37505260000034,147.37505260000034,147.37505260000034,147.37505260000034,147.37505260000034,147.37505260000034,147.37505260000034,147.37505260000034,,004,P014,2025_Feb_28_1625,ConditionRich,2021.2.3,59.929905981737384,
119.75,120.0,41,0.0,Stimuli/Blank.png,0,0,0.0,0,201,201,201,,,,,,,,,,,,,119.75652359999913,0.0065235999991273275,None,148.1090607999995,148.1090607999995,148.1090607999995,148.1090607999995,148.1090607999995,148.1090607999995,148.1090607999995,148.1090607999995,148.1090607999995,148.1090607999995,,004,P014,2025_Feb_28_1625,ConditionRich,2021.2.3,59.929905981737384,
120.0,120.75,28,0.75,Stimuli/P014/things_girl_07s.jpg,0,0,0.0,0,202,202,202,,,,,,,,,,,,,120.00697129999935,0.006971299999349867,None,148.37595580000016,148.37595580000016,148.37595580000016,148.37595580000016,148.37595580000016,148.37595580000016,148.37595580000016,148.37595580000016,148.37595580000016,148.37595580000016,,004,P014,2025_Feb_28_1625,ConditionRich,2021.2.3,59.929905981737384,
120.75,121.0,41,0.0,Stimuli/Blank.png,0,0,0.0,0,203,203,203,,,,,,,,,,,,,120.77412579999873,0.024125799998728326,None,149.12666890000037,149.12666890000037,149.12666890000037,149.12666890000037,149.12666890000037,149.12666890000037,149.12666890000037,149.12666890000037,149.12666890000037,149.12666890000037,,004,P014,2025_Feb_28_1625,ConditionRich,2021.2.3,59.929905981737384,
121.0,121.75,28,0.75,Stimuli/P014/things_girl_07s.jpg,0,0,0.0,0,204,204,204,,,,,,,,,,,,,121.00794189999942,0.007941899999423185,None,149.37685819999933,149.37685819999933,149.37685819999933,149.37685819999933,149.37685819999933,149.37685819999933,149.37685819999933,149.37685819999933,149.37685819999933,149.37685819999933,,004,P014,2025_Feb_28_1625,ConditionRich,2021.2.3,59.929905981737384,
121.75,122.0,41,0.0,Stimuli/Blank.png,0,0,0.0,0,205,205,205,,,,,,,,,,,,,121.77687269999842,0.026872699998421012,None,150.1441880000002,150.1441880000002,150.1441880000002,150.1441880000002,150.1441880000002,150.1441880000002,150.1441880000002,150.1441880000002,150.1441880000002,150.1441880000002,,004,P014,2025_Feb_28_1625,ConditionRich,2021.2.3,59.929905981737384,
122.0,122.75,28,0.75,Stimuli/P014/things_girl_07s.jpg,0,0,0.0,0,206,206,206,,,,,,,,,,,,,122.0244247999999,0.0244247999999061,None,150.39440900000045,150.39440900000045,150.39440900000045,150.39440900000045,150.39440900000045,150.39440900000045,150.39440900000045,150.39440900000045,150.39440900000045,150.39440900000045,,004,P014,2025_Feb_28_1625,ConditionRich,2021.2.3,59.929905981737384,
122.75,123.0,41,0.0,Stimuli/Blank.png,0,0,0.0,0,207,207,207,,,,,,,,,,,,,122.77707009999904,0.027070099999036756,None,151.1450702000002,151.1450702000002,151.1450702000002,151.1450702000002,151.1450702000002,151.1450702000002,151.1450702000002,151.1450702000002,151.1450702000002,151.1450702000002,,004,P014,2025_Feb_28_1625,ConditionRich,2021.2.3,59.929905981737384,
123.0,123.75,28,0.75,Stimuli/P014/things_girl_07s.jpg,0,0,0.0,0,208,208,208,,,,,,,,,,,,,123.02829979999842,0.028299799998421804,None,151.39532689999942,151.39532689999942,151.39532689999942,151.39532689999942,151.39532689999942,151.39532689999942,151.39532689999942,151.39532689999942,151.39532689999942,151.39532689999942,,004,P014,2025_Feb_28_1625,ConditionRich,2021.2.3,59.929905981737384,
123.75,124.0,41,0.0,Stimuli/Blank.png,0,0,0.0,0,209,209,209,,,,,,,,,,,,,123.77919559999827,0.0291955999982747,None,152.1459718999995,152.1459718999995,152.1459718999995,152.1459718999995,152.1459718999995,152.1459718999995,152.1459718999995,152.1459718999995,152.1459718999995,152.1459718999995,,004,P014,2025_Feb_28_1625,ConditionRich,2021.2.3,59.929905981737384,
124.0,124.75,26,0.75,Stimuli/P014/things_cougar_07s.jpg,0,0,0.0,0,210,210,210,,,,,,,,,,,,,124.02849139999853,0.028491399998529232,None,152.39616829999977,152.39616829999977,152.39616829999977,152.39616829999977,152.39616829999977,152.39616829999977,152.39616829999977,152.39616829999977,152.39616829999977,152.39616829999977,,004,P014,2025_Feb_28_1625,ConditionRich,2021.2.3,59.929905981737384,
124.75,125.0,41,0.0,Stimuli/Blank.png,0,0,0.0,0,211,211,211,,,,,,,,,,,,,124.77759579999838,0.027595799998380244,None,153.1301566000002,153.1301566000002,153.1301566000002,153.1301566000002,153.1301566000002,153.1301566000002,153.1301566000002,153.1301566000002,153.1301566000002,153.1301566000002,,004,P014,2025_Feb_28_1625,ConditionRich,2021.2.3,59.929905981737384,
125.0,125.75,26,0.75,Stimuli/P014/things_cougar_07s.jpg,0,0,0.0,0,212,212,212,,,,,,,,,,,,,125.0105167999991,0.010516799999095383,None,153.36367979999886,153.36367979999886,153.36367979999886,153.36367979999886,153.36367979999886,153.36367979999886,153.36367979999886,153.36367979999886,153.36367979999886,153.36367979999886,,004,P014,2025_Feb_28_1625,ConditionRich,2021.2.3,59.929905981737384,
125.75,126.0,41,0.0,Stimuli/Blank.png,0,0,0.0,0,213,213,213,,,,,,,,,,,,,125.76312509999843,0.013125099998433143,None,154.13104790000034,154.13104790000034,154.13104790000034,154.13104790000034,154.13104790000034,154.13104790000034,154.13104790000034,154.13104790000034,154.13104790000034,154.13104790000034,,004,P014,2025_Feb_28_1625,ConditionRich,2021.2.3,59.929905981737384,
126.0,126.75,26,0.75,Stimuli/P014/things_cougar_07s.jpg,0,0,0.0,0,214,214,214,,,,,,,,,,,,,126.02855929999896,0.02855929999896034,None,154.38127779999922,154.38127779999922,154.38127779999922,154.38127779999922,154.38127779999922,154.38127779999922,154.38127779999922,154.38127779999922,154.38127779999922,154.38127779999922,,004,P014,2025_Feb_28_1625,ConditionRich,2021.2.3,59.929905981737384,
126.75,127.0,41,0.0,Stimuli/Blank.png,0,0,0.0,0,215,215,215,,,,,,,,,,,,,126.7628339999992,0.012833999999202206,None,155.11524559999998,155.11524559999998,155.11524559999998,155.11524559999998,155.11524559999998,155.11524559999998,155.11524559999998,155.11524559999998,155.11524559999998,155.11524559999998,,004,P014,2025_Feb_28_1625,ConditionRich,2021.2.3,59.929905981737384,
127.0,127.75,26,0.75,Stimuli/P014/things_cougar_07s.jpg,0,0,0.0,0,216,216,216,,,,,,,,,,,,,127.01371729999846,0.013717299998461385,None,155.3821422000001,155.3821422000001,155.3821422000001,155.3821422000001,155.3821422000001,155.3821422000001,155.3821422000001,155.3821422000001,155.3821422000001,155.3821422000001,,004,P014,2025_Feb_28_1625,ConditionRich,2021.2.3,59.929905981737384,
127.75,128.0,41,0.0,Stimuli/Blank.png,0,0,0.0,0,217,217,217,,,,,,,,,,,,,127.78039139999964,0.03039139999964391,None,156.13280699999996,156.13280699999996,156.13280699999996,156.13280699999996,156.13280699999996,156.13280699999996,156.13280699999996,156.13280699999996,156.13280699999996,156.13280699999996,,004,P014,2025_Feb_28_1625,ConditionRich,2021.2.3,59.929905981737384,
128.0,128.75,34,0.75,Stimuli/P014/things_radio_07s.jpg,0,0,0.0,0,218,218,218,,,,,,,,,,,,,128.01303029999872,0.013030299998717965,None,156.36634839999897,156.36634839999897,156.36634839999897,156.36634839999897,156.36634839999897,156.36634839999897,156.36634839999897,156.36634839999897,156.36634839999897,156.36634839999897,,004,P014,2025_Feb_28_1625,ConditionRich,2021.2.3,59.929905981737384,
128.75,129.0,41,0.0,Stimuli/Blank.png,0,0,0.0,0,219,219,219,,,,,,,,,,,,,128.76386779999848,0.013867799998479313,None,157.1170304999996,157.1170304999996,157.1170304999996,157.1170304999996,157.1170304999996,157.1170304999996,157.1170304999996,157.1170304999996,157.1170304999996,157.1170304999996,,004,P014,2025_Feb_28_1625,ConditionRich,2021.2.3,59.929905981737384,
129.0,129.75,34,0.75,Stimuli/P014/things_radio_07s.jpg,0,0,0.0,0,220,220,220,,,,,,,,,,,,,129.01464359999954,0.014643599999544676,None,157.36722629999895,157.36722629999895,157.36722629999895,157.36722629999895,157.36722629999895,157.36722629999895,157.36722629999895,157.36722629999895,157.36722629999895,157.36722629999895,,004,P014,2025_Feb_28_1625,ConditionRich,2021.2.3,59.929905981737384,
129.75,130.0,41,0.0,Stimuli/Blank.png,0,0,0.0,0,221,221,221,,,,,,,,,,,,,129.76476249999905,0.014762499999051215,None,158.11791019999873,158.11791019999873,158.11791019999873,158.11791019999873,158.11791019999873,158.11791019999873,158.11791019999873,158.11791019999873,158.11791019999873,158.11791019999873,,004,P014,2025_Feb_28_1625,ConditionRich,2021.2.3,59.929905981737384,
130.0,130.75,34,0.75,Stimuli/P014/things_radio_07s.jpg,0,0,0.0,0,222,222,222,,,,,,,,,,,,,130.01510729999973,0.01510729999972682,None,158.3681333000004,158.3681333000004,158.3681333000004,158.3681333000004,158.3681333000004,158.3681333000004,158.3681333000004,158.3681333000004,158.3681333000004,158.3681333000004,,004,P014,2025_Feb_28_1625,ConditionRich,2021.2.3,59.929905981737384,
130.75,131.0,41,0.0,Stimuli/Blank.png,0,0,0.0,0,223,223,223,,,,,,,,,,,,,130.7495669,-0.00043310000000928994,None,159.10210019999977,159.10210019999977,159.10210019999977,159.10210019999977,159.10210019999977,159.10210019999977,159.10210019999977,159.10210019999977,159.10210019999977,159.10210019999977,,004,P014,2025_Feb_28_1625,ConditionRich,2021.2.3,59.929905981737384,
131.0,131.75,34,0.75,Stimuli/P014/things_radio_07s.jpg,0,0,0.0,0,224,224,224,,,,,,,,,,,,,130.99906529999862,-0.0009347000013804063,None,159.3690112000004,159.3690112000004,159.3690112000004,159.3690112000004,159.3690112000004,159.3690112000004,159.3690112000004,159.3690112000004,159.3690112000004,159.3690112000004,,004,P014,2025_Feb_28_1625,ConditionRich,2021.2.3,59.929905981737384,
131.75,132.0,41,0.0,Stimuli/Blank.png,0,0,0.0,0,225,225,225,,,,,,,,,,,,,131.767486499999,0.017486499998994987,None,160.1196803999992,160.1196803999992,160.1196803999992,160.1196803999992,160.1196803999992,160.1196803999992,160.1196803999992,160.1196803999992,160.1196803999992,160.1196803999992,,004,P014,2025_Feb_28_1625,ConditionRich,2021.2.3,59.929905981737384,
132.0,132.75,10,0.75,Stimuli/P014/sun_bdhxnzyleoiflyak.jpg,0,0,0.0,0,226,226,226,,,,,,,,,,,,,132.00063489999957,0.000634899999568006,None,160.35320729999876,160.35320729999876,160.35320729999876,160.35320729999876,160.35320729999876,160.35320729999876,160.35320729999876,160.35320729999876,160.35320729999876,160.35320729999876,,004,P014,2025_Feb_28_1625,ConditionRich,2021.2.3,59.929905981737384,
132.75,133.0,41,0.0,Stimuli/Blank.png,0,0,0.0,0,227,227,227,,,,,,,,,,,,,132.75236259999838,0.0023625999983778456,None,161.10388239999884,161.10388239999884,161.10388239999884,161.10388239999884,161.10388239999884,161.10388239999884,161.10388239999884,161.10388239999884,161.10388239999884,161.10388239999884,,004,P014,2025_Feb_28_1625,ConditionRich,2021.2.3,59.929905981737384,
133.0,133.75,10,0.75,Stimuli/P014/sun_bdhxnzyleoiflyak.jpg,0,0,0.0,0,228,228,228,,,,,,,,,,,,,133.0010575999986,0.0010575999986031093,None,161.3540933000004,161.3540933000004,161.3540933000004,161.3540933000004,161.3540933000004,161.3540933000004,161.3540933000004,161.3540933000004,161.3540933000004,161.3540933000004,,004,P014,2025_Feb_28_1625,ConditionRich,2021.2.3,59.929905981737384,
133.75,134.0,41,0.0,Stimuli/Blank.png,0,0,0.0,0,229,229,229,,,,,,,,,,,,,133.75253279999924,0.002532799999244162,None,162.1047397000002,162.1047397000002,162.1047397000002,162.1047397000002,162.1047397000002,162.1047397000002,162.1047397000002,162.1047397000002,162.1047397000002,162.1047397000002,,004,P014,2025_Feb_28_1625,ConditionRich,2021.2.3,59.929905981737384,
134.0,134.75,10,0.75,Stimuli/P014/sun_bdhxnzyleoiflyak.jpg,0,0,0.0,0,230,230,230,,,,,,,,,,,,,134.00325409999823,0.003254099998230231,None,162.37166389999948,162.37166389999948,162.37166389999948,162.37166389999948,162.37166389999948,162.37166389999948,162.37166389999948,162.37166389999948,162.37166389999948,162.37166389999948,,004,P014,2025_Feb_28_1625,ConditionRich,2021.2.3,59.929905981737384,
134.75,135.0,41,0.0,Stimuli/Blank.png,0,0,0.0,0,231,231,231,,,,,,,,,,,,,134.77143139999862,0.021431399998618872,None,163.1390234999999,163.1390234999999,163.1390234999999,163.1390234999999,163.1390234999999,163.1390234999999,163.1390234999999,163.1390234999999,163.1390234999999,163.1390234999999,,004,P014,2025_Feb_28_1625,ConditionRich,2021.2.3,59.929905981737384,
135.0,135.75,10,0.75,Stimuli/P014/sun_bdhxnzyleoiflyak.jpg,0,0,0.0,0,232,232,232,,,,,,,,,,,,,135.01941859999897,0.01941859999897133,None,163.38923619999878,163.38923619999878,163.38923619999878,163.38923619999878,163.38923619999878,163.38923619999878,163.38923619999878,163.38923619999878,163.38923619999878,163.38923619999878,,004,P014,2025_Feb_28_1625,ConditionRich,2021.2.3,59.929905981737384,
135.75,136.0,41,0.0,Stimuli/Blank.png,0,0,0.0,0,233,233,233,,,,,,,,,,,,,135.77123289999872,0.021232899998722132,None,164.12322539999877,164.12322539999877,164.12322539999877,164.12322539999877,164.12322539999877,164.12322539999877,164.12322539999877,164.12322539999877,164.12322539999877,164.12322539999877,,004,P014,2025_Feb_28_1625,ConditionRich,2021.2.3,59.929905981737384,
136.0,136.75,17,0.75,Stimuli/P014/sun_bsguftphqnrkbedw.jpg,1,0,0.75,0,234,234,234,,,,,,,,,,,,,136.00472419999824,0.004724199998236145,1,164.3734401999991,164.3734401999991,164.3734401999991,164.3734401999991,164.3734401999991,164.3734401999991,164.3734401999991,165.09077049999905,164.3734401999991,164.3734401999991,0.3942756000014924,004,P014,2025_Feb_28_1625,ConditionRich,2021.2.3,59.929905981737384,
136.75,137.0,41,0.0,Stimuli/Blank.png,0,0,0.0,0,235,235,235,,,,,,,,,,,,,136.77179889999934,0.021798899999339483,None,165.12409389999993,165.12409389999993,165.12409389999993,165.12409389999993,165.12409389999993,165.12409389999993,165.12409389999993,165.12409389999993,165.12409389999993,165.12409389999993,,004,P014,2025_Feb_28_1625,ConditionRich,2021.2.3,59.929905981737384,
137.0,137.75,17,0.75,Stimuli/P014/sun_bsguftphqnrkbedw.jpg,0,0,0.0,0,236,236,236,,,,,,,,,,,,,137.00511759999972,0.0051175999997212784,None,165.37429169999996,165.37429169999996,165.37429169999996,165.37429169999996,165.37429169999996,165.37429169999996,165.37429169999996,165.37429169999996,165.37429169999996,165.37429169999996,,004,P014,2025_Feb_28_1625,ConditionRich,2021.2.3,59.929905981737384,
137.75,138.0,41,0.0,Stimuli/Blank.png,0,0,0.0,0,237,237,237,,,,,,,,,,,,,137.7716862999987,0.02168629999869154,None,166.12509909999972,166.12509909999972,166.12509909999972,166.12509909999972,166.12509909999972,166.12509909999972,166.12509909999972,166.12509909999972,166.12509909999972,166.12509909999972,,004,P014,2025_Feb_28_1625,ConditionRich,2021.2.3,59.929905981737384,
138.0,138.75,17,0.75,Stimuli/P014/sun_bsguftphqnrkbedw.jpg,0,0,0.0,0,238,238,238,,,,,,,,,,,,,138.00561219999872,0.0056121999987226445,None,166.358519899999,166.358519899999,166.358519899999,166.358519899999,166.358519899999,166.358519899999,166.358519899999,166.358519899999,166.358519899999,166.358519899999,,004,P014,2025_Feb_28_1625,ConditionRich,2021.2.3,59.929905981737384,
138.75,139.0,41,0.0,Stimuli/Blank.png,0,0,0.0,0,239,239,239,,,,,,,,,,,,,138.75657519999913,0.006575199999133474,None,167.10918730000049,167.10918730000049,167.10918730000049,167.10918730000049,167.10918730000049,167.10918730000049,167.10918730000049,167.10918730000049,167.10918730000049,167.10918730000049,,004,P014,2025_Feb_28_1625,ConditionRich,2021.2.3,59.929905981737384,
139.0,139.75,17,0.75,Stimuli/P014/sun_bsguftphqnrkbedw.jpg,0,0,0.0,0,240,240,240,,,,,,,,,,,,,139.0066988999988,0.006698899998809793,None,167.35940819999996,167.35940819999996,167.35940819999996,167.35940819999996,167.35940819999996,167.35940819999996,167.35940819999996,167.35940819999996,167.35940819999996,167.35940819999996,,004,P014,2025_Feb_28_1625,ConditionRich,2021.2.3,59.929905981737384,
139.75,140.0,41,0.0,Stimuli/Blank.png,0,0,0.0,0,241,241,241,,,,,,,,,,,,,139.75784119999844,0.007841199998438242,None,168.11008459999903,168.11008459999903,168.11008459999903,168.11008459999903,168.11008459999903,168.11008459999903,168.11008459999903,168.11008459999903,168.11008459999903,168.11008459999903,,004,P014,2025_Feb_28_1625,ConditionRich,2021.2.3,59.929905981737384,
140.0,140.75,15,0.75,Stimuli/P014/sun_brezwczwwllviogu.jpg,0,0,0.0,0,242,242,242,,,,,,,,,,,,,140.00803019999876,0.00803019999875687,None,168.3769814999996,168.3769814999996,168.3769814999996,168.3769814999996,168.3769814999996,168.3769814999996,168.3769814999996,168.3769814999996,168.3769814999996,168.3769814999996,,004,P014,2025_Feb_28_1625,ConditionRich,2021.2.3,59.929905981737384,
140.75,141.0,41,0.0,Stimuli/Blank.png,0,0,0.0,0,243,243,243,,,,,,,,,,,,,140.7744890999984,0.024489099998390884,None,169.12764199999947,169.12764199999947,169.12764199999947,169.12764199999947,169.12764199999947,169.12764199999947,169.12764199999947,169.12764199999947,169.12764199999947,169.12764199999947,,004,P014,2025_Feb_28_1625,ConditionRich,2021.2.3,59.929905981737384,
141.0,141.75,15,0.75,Stimuli/P014/sun_brezwczwwllviogu.jpg,0,0,0.0,0,244,244,244,,,,,,,,,,,,,141.0093425999985,0.009342599998490186,None,169.37788519999958,169.37788519999958,169.37788519999958,169.37788519999958,169.37788519999958,169.37788519999958,169.37788519999958,169.37788519999958,169.37788519999958,169.37788519999958,,004,P014,2025_Feb_28_1625,ConditionRich,2021.2.3,59.929905981737384,
141.75,142.0,41,0.0,Stimuli/Blank.png,0,0,0.0,0,245,245,245,,,,,,,,,,,,,141.77602639999895,0.02602639999895473,None,170.12854770000013,170.12854770000013,170.12854770000013,170.12854770000013,170.12854770000013,170.12854770000013,170.12854770000013,170.12854770000013,170.12854770000013,170.12854770000013,,004,P014,2025_Feb_28_1625,ConditionRich,2021.2.3,59.929905981737384,
142.0,142.75,15,0.75,Stimuli/P014/sun_brezwczwwllviogu.jpg,0,0,0.0,0,246,246,246,,,,,,,,,,,,,142.0097081999993,0.009708199999295175,None,170.36206610000045,170.36206610000045,170.36206610000045,170.36206610000045,170.36206610000045,170.36206610000045,170.36206610000045,170.36206610000045,170.36206610000045,170.36206610000045,,004,P014,2025_Feb_28_1625,ConditionRich,2021.2.3,59.929905981737384,
142.75,143.0,41,0.0,Stimuli/Blank.png,0,0,0.0,0,247,247,247,,,,,,,,,,,,,142.76002699999844,0.010026999998444808,None,171.11272610000015,171.11272610000015,171.11272610000015,171.11272610000015,171.11272610000015,171.11272610000015,171.11272610000015,171.11272610000015,171.11272610000015,171.11272610000015,,004,P014,2025_Feb_28_1625,ConditionRich,2021.2.3,59.929905981737384,
143.0,143.75,15,0.75,Stimuli/P014/sun_brezwczwwllviogu.jpg,0,0,0.0,0,248,248,248,,,,,,,,,,,,,143.00981609999872,0.0098160999987158,None,171.36296299999958,171.36296299999958,171.36296299999958,171.36296299999958,171.36296299999958,171.36296299999958,171.36296299999958,171.36296299999958,171.36296299999958,171.36296299999958,,004,P014,2025_Feb_28_1625,ConditionRich,2021.2.3,59.929905981737384,
143.75,144.0,41,0.0,Stimuli/Blank.png,0,0,0.0,0,249,249,249,,,,,,,,,,,,,143.7604653999988,0.010465399998793146,None,172.11361599999873,172.11361599999873,172.11361599999873,172.11361599999873,172.11361599999873,172.11361599999873,172.11361599999873,172.11361599999873,172.11361599999873,172.11361599999873,,004,P014,2025_Feb_28_1625,ConditionRich,2021.2.3,59.929905981737384,
144.0,144.75,19,0.75,Stimuli/P014/sun_buphlelowxjnoygy.jpg,0,0,0.0,0,250,250,250,,,,,,,,,,,,,144.01053079999838,0.010530799998377915,None,172.3638460000002,172.3638460000002,172.3638460000002,172.3638460000002,172.3638460000002,172.3638460000002,172.3638460000002,172.3638460000002,172.3638460000002,172.3638460000002,,004,P014,2025_Feb_28_1625,ConditionRich,2021.2.3,59.929905981737384,
144.75,145.0,41,0.0,Stimuli/Blank.png,0,0,0.0,0,251,251,251,,,,,,,,,,,,,144.76138059999903,0.011380599999029073,None,173.11462790000041,173.11462790000041,173.11462790000041,173.11462790000041,173.11462790000041,173.11462790000041,173.11462790000041,173.11462790000041,173.11462790000041,173.11462790000041,,004,P014,2025_Feb_28_1625,ConditionRich,2021.2.3,59.929905981737384,
145.0,145.75,19,0.75,Stimuli/P014/sun_buphlelowxjnoygy.jpg,0,0,0.0,0,252,252,252,,,,,,,,,,,,,145.0137734,0.013773399999990943,None,173.3814093000001,173.3814093000001,173.3814093000001,173.3814093000001,173.3814093000001,173.3814093000001,173.3814093000001,173.3814093000001,173.3814093000001,173.3814093000001,,004,P014,2025_Feb_28_1625,ConditionRich,2021.2.3,59.929905981737384,
145.75,146.0,41,0.0,Stimuli/Blank.png,0,0,0.0,0,253,253,253,,,,,,,,,,,,,145.77955459999976,0.029554599999755737,None,174.13207750000038,174.13207750000038,174.13207750000038,174.13207750000038,174.13207750000038,174.13207750000038,174.13207750000038,174.13207750000038,174.13207750000038,174.13207750000038,,004,P014,2025_Feb_28_1625,ConditionRich,2021.2.3,59.929905981737384,
146.0,146.75,19,0.75,Stimuli/P014/sun_buphlelowxjnoygy.jpg,0,0,0.0,0,254,254,254,,,,,,,,,,,,,146.01270320000003,0.012703200000032666,None,174.36560699999973,174.36560699999973,174.36560699999973,174.36560699999973,174.36560699999973,174.36560699999973,174.36560699999973,174.36560699999973,174.36560699999973,174.36560699999973,,004,P014,2025_Feb_28_1625,ConditionRich,2021.2.3,59.929905981737384,
146.75,147.0,41,0.0,Stimuli/Blank.png,0,0,0.0,0,255,255,255,,,,,,,,,,,,,146.7635279999995,0.013527999999496387,None,175.1163235999993,175.1163235999993,175.1163235999993,175.1163235999993,175.1163235999993,175.1163235999993,175.1163235999993,175.1163235999993,175.1163235999993,175.1163235999993,,004,P014,2025_Feb_28_1625,ConditionRich,2021.2.3,59.929905981737384,
147.0,147.75,19,0.75,Stimuli/P014/sun_buphlelowxjnoygy.jpg,0,0,0.0,0,256,256,256,,,,,,,,,,,,,147.0147253999985,0.014725399998496869,None,175.38320469999962,175.38320469999962,175.38320469999962,175.38320469999962,175.38320469999962,175.38320469999962,175.38320469999962,175.38320469999962,175.38320469999962,175.38320469999962,,004,P014,2025_Feb_28_1625,ConditionRich,2021.2.3,59.929905981737384,
147.75,148.0,41,0.0,Stimuli/Blank.png,0,0,0.0,0,257,257,257,,,,,,,,,,,,,147.78145099999892,0.03145099999892409,None,176.1338470999999,176.1338470999999,176.1338470999999,176.1338470999999,176.1338470999999,176.1338470999999,176.1338470999999,176.1338470999999,176.1338470999999,176.1338470999999,,004,P014,2025_Feb_28_1625,ConditionRich,2021.2.3,59.929905981737384,
148.0,148.75,23,0.75,Stimuli/P014/things_bug_07s.jpg,0,0,0.0,0,258,258,258,,,,,,,,,,,,,148.0149308,0.01493080000000191,None,176.36738669999977,176.36738669999977,176.36738669999977,176.36738669999977,176.36738669999977,176.36738669999977,176.36738669999977,176.36738669999977,176.36738669999977,176.36738669999977,,004,P014,2025_Feb_28_1625,ConditionRich,2021.2.3,59.929905981737384,
148.75,149.0,41,0.0,Stimuli/Blank.png,0,0,0.0,0,259,259,259,,,,,,,,,,,,,148.76532739999857,0.01532739999856858,None,177.1180562999998,177.1180562999998,177.1180562999998,177.1180562999998,177.1180562999998,177.1180562999998,177.1180562999998,177.1180562999998,177.1180562999998,177.1180562999998,,004,P014,2025_Feb_28_1625,ConditionRich,2021.2.3,59.929905981737384,
149.0,149.75,23,0.75,Stimuli/P014/things_bug_07s.jpg,0,0,0.0,0,260,260,260,,,,,,,,,,,,,149.01552149999952,0.015521499999522348,None,177.3682633999997,177.3682633999997,177.3682633999997,177.3682633999997,177.3682633999997,177.3682633999997,177.3682633999997,177.3682633999997,177.3682633999997,177.3682633999997,,004,P014,2025_Feb_28_1625,ConditionRich,2021.2.3,59.929905981737384,
149.75,150.0,41,0.0,Stimuli/Blank.png,0,0,0.0,0,261,261,261,,,,,,,,,,,,,149.7499330999999,-6.690000009257346e-05,None,178.11897209999916,178.11897209999916,178.11897209999916,178.11897209999916,178.11897209999916,178.11897209999916,178.11897209999916,178.11897209999916,178.11897209999916,178.11897209999916,,004,P014,2025_Feb_28_1625,ConditionRich,2021.2.3,59.929905981737384,
