eventStartTime,eventEndTime,eventCond,imSize,imFile,responseEvent,fixRespStart,fixRespEnd,Events.thisRepN,Events.thisTrialN,Events.thisN,Events.thisIndex,Instructions.started,Instructions.stopped,participantReadyResponse.keys,participantReadyResponse.rt,participantReadyResponse.started,participantReadyResponse.stopped,startWaitforTrigger,triggerResponse.keys,triggerResponse.rt,triggerResponse.started,triggerResponse.stopped,globalTimer,actualStartTime,startTimingDiff,participantResponse.keys,participantResponse.started,participantResponse.stopped,image.started,image.stopped,fixationOutside.started,fixationOutside.stopped,fixationResponse.started,fixationResponse.stopped,fixationInside.started,fixationInside.stopped,participantResponse.rt,session,participant,date,expName,psychopyVersion,frameRate,
,,,,,,,,,,,,10.712481399999888,None,1,4.171048799998971,10.712481399999888,None,,,,,,,,,,,,,,,,,,,,,006,P014,2025_Feb_28_1640,ConditionRich,2021.2.3,59.966274966493145,
,,,,,,,,,,,,,,,,,,14.899128799999744,5,13.374616299999616,14.911924500000168,None,,,,,,,,,,,,,,,,006,P014,2025_Feb_28_1640,ConditionRich,2021.2.3,59.966274966493145,
0.0,4.0,0,0.0,Stimuli/Blank.png,0,0.0,0.0,0,0,0,0,,,,,,,,,,,,28.293806499999846,0.03709340000023076,0.03709340000023076,None,28.357133699999395,None,28.357133699999395,None,28.357133699999395,None,28.357133699999395,28.357133699999395,28.357133699999395,None,,006,P014,2025_Feb_28_1640,ConditionRich,2021.2.3,59.966274966493145,
4.0,4.75,25,0.75,Stimuli/P014/things_cashew_07s.jpg,0,0.0,0.0,0,1,1,1,,,,,,,,,,,,,4.020051100000273,0.020051100000273436,None,32.344288099999176,32.344288099999176,32.344288099999176,32.344288099999176,32.344288099999176,32.344288099999176,32.344288099999176,32.344288099999176,32.344288099999176,32.344288099999176,,006,P014,2025_Feb_28_1640,ConditionRich,2021.2.3,59.966274966493145,
4.75,8.0,41,0.0,Stimuli/Blank.png,0,0.0,0.0,0,2,2,2,,,,,,,,,,,,,4.771385399999417,0.021385399999417132,None,33.07830869999998,33.07830869999998,33.07830869999998,33.07830869999998,33.07830869999998,33.07830869999998,33.07830869999998,33.07830869999998,33.07830869999998,33.07830869999998,,006,P014,2025_Feb_28_1640,ConditionRich,2021.2.3,59.966274966493145,
8.0,8.75,23,0.75,Stimuli/P014/things_bug_07s.jpg,0,0.0,0.0,0,3,3,3,,,,,,,,,,,,,8.006631500000367,0.006631500000366941,None,36.31417130000045,36.31417130000045,36.31417130000045,36.31417130000045,36.31417130000045,36.31417130000045,36.31417130000045,36.31417130000045,36.31417130000045,36.31417130000045,,006,P014,2025_Feb_28_1640,ConditionRich,2021.2.3,59.966274966493145,
8.75,12.0,41,0.0,Stimuli/Blank.png,0,0.0,0.0,0,4,4,4,,,,,,,,,,,,,8.757893500000137,0.007893500000136555,None,37.06488639999952,37.06488639999952,37.06488639999952,37.06488639999952,37.06488639999952,37.06488639999952,37.06488639999952,37.06488639999952,37.06488639999952,37.06488639999952,,006,P014,2025_Feb_28_1640,ConditionRich,2021.2.3,59.966274966493145,
12.0,12.75,12,0.75,Stimuli/P014/sun_bjyrrxiwsnbmkbqs.jpg,0,0.0,0.0,0,5,5,5,,,,,,,,,,,,,12.00931700000001,0.009317000000010012,None,40.317715999999564,40.317715999999564,40.317715999999564,40.317715999999564,40.317715999999564,40.317715999999564,40.317715999999564,40.317715999999564,40.317715999999564,40.317715999999564,,006,P014,2025_Feb_28_1640,ConditionRich,2021.2.3,59.966274966493145,
12.75,16.0,41,0.0,Stimuli/Blank.png,0,0.0,0.0,0,6,6,6,,,,,,,,,,,,,12.760082700000567,0.010082700000566547,None,41.068395399999645,41.068395399999645,41.068395399999645,41.068395399999645,41.068395399999645,41.068395399999645,41.068395399999645,41.068395399999645,41.068395399999645,41.068395399999645,,006,P014,2025_Feb_28_1640,ConditionRich,2021.2.3,59.966274966493145,
16.0,16.75,28,0.75,Stimuli/P014/things_girl_07s.jpg,1,0.0,0.75,0,7,7,7,,,,,,,,,,,,,16.013349599999856,0.013349599999855855,1,44.32127339999897,44.32127339999897,44.32127339999897,44.32127339999897,44.32127339999897,44.32127339999897,44.32127339999897,45.05524279999918,44.32127339999897,44.32127339999897,0.44619930000044405,006,P014,2025_Feb_28_1640,ConditionRich,2021.2.3,59.966274966493145,
16.75,20.0,41,0.0,Stimuli/Blank.png,0,0.0,0.0,0,8,8,8,,,,,,,,,,,,,16.764025799999217,0.01402579999921727,None,45.072003100000074,45.072003100000074,45.072003100000074,45.072003100000074,45.072003100000074,45.072003100000074,45.072003100000074,45.072003100000074,45.072003100000074,45.072003100000074,,006,P014,2025_Feb_28_1640,ConditionRich,2021.2.3,59.966274966493145,
20.0,20.75,21,0.75,Stimuli/P014/things_baby_07s.jpg,0,0.0,0.0,0,9,9,9,,,,,,,,,,,,,20.0030698999999,0.0030698999999003718,None,48.32481740000003,48.32481740000003,48.32481740000003,48.32481740000003,48.32481740000003,48.32481740000003,48.32481740000003,48.32481740000003,48.32481740000003,48.32481740000003,,006,P014,2025_Feb_28_1640,ConditionRich,2021.2.3,59.966274966493145,
20.75,24.0,41,0.0,Stimuli/Blank.png,0,0.0,0.0,0,10,10,10,,,,,,,,,,,,,20.76749480000035,0.017494800000349642,None,49.0754780999996,49.0754780999996,49.0754780999996,49.0754780999996,49.0754780999996,49.0754780999996,49.0754780999996,49.0754780999996,49.0754780999996,49.0754780999996,,006,P014,2025_Feb_28_1640,ConditionRich,2021.2.3,59.966274966493145,
24.0,24.75,40,0.75,Stimuli/P014/things_woman_07s.jpg,0,0.0,0.0,0,11,11,11,,,,,,,,,,,,,24.003477000000203,0.003477000000202679,None,52.32835840000007,52.32835840000007,52.32835840000007,52.32835840000007,52.32835840000007,52.32835840000007,52.32835840000007,52.32835840000007,52.32835840000007,52.32835840000007,,006,P014,2025_Feb_28_1640,ConditionRich,2021.2.3,59.966274966493145,
24.75,28.0,41,0.0,Stimuli/Blank.png,0,0.0,0.0,0,12,12,12,,,,,,,,,,,,,24.770765299999766,0.020765299999766285,None,53.079072200000155,53.079072200000155,53.079072200000155,53.079072200000155,53.079072200000155,53.079072200000155,53.079072200000155,53.079072200000155,53.079072200000155,53.079072200000155,,006,P014,2025_Feb_28_1640,ConditionRich,2021.2.3,59.966274966493145,
28.0,28.75,39,0.75,Stimuli/P014/things_violin_07n.jpg,0,0.0,0.0,0,13,13,13,,,,,,,,,,,,,28.0076212999993,0.0076212999993003905,None,56.315221900000324,56.315221900000324,56.315221900000324,56.315221900000324,56.315221900000324,56.315221900000324,56.315221900000324,56.315221900000324,56.315221900000324,56.315221900000324,,006,P014,2025_Feb_28_1640,ConditionRich,2021.2.3,59.966274966493145,
28.75,32.0,41,0.0,Stimuli/Blank.png,0,0.0,0.0,0,14,14,14,,,,,,,,,,,,,28.757495100000597,0.007495100000596722,None,57.06588620000002,57.06588620000002,57.06588620000002,57.06588620000002,57.06588620000002,57.06588620000002,57.06588620000002,57.06588620000002,57.06588620000002,57.06588620000002,,006,P014,2025_Feb_28_1640,ConditionRich,2021.2.3,59.966274966493145,
32.0,32.75,27,0.75,Stimuli/P014/things_face_07s.jpg,0,0.0,0.0,0,15,15,15,,,,,,,,,,,,,32.01045820000036,0.010458200000357465,None,60.31876589999956,60.31876589999956,60.31876589999956,60.31876589999956,60.31876589999956,60.31876589999956,60.31876589999956,60.31876589999956,60.31876589999956,60.31876589999956,,006,P014,2025_Feb_28_1640,ConditionRich,2021.2.3,59.966274966493145,
32.75,36.0,41,0.0,Stimuli/Blank.png,0,0.0,0.0,0,16,16,16,,,,,,,,,,,,,32.76098810000076,0.010988100000759005,None,61.06943189999947,61.06943189999947,61.06943189999947,61.06943189999947,61.06943189999947,61.06943189999947,61.06943189999947,61.06943189999947,61.06943189999947,61.06943189999947,,006,P014,2025_Feb_28_1640,ConditionRich,2021.2.3,59.966274966493145,
36.0,36.75,4,0.75,Stimuli/P014/sun_afgoiykvchxqotyz.jpg,0,0.0,0.0,0,17,17,17,,,,,,,,,,,,,36.014654799999335,0.0146547999993345,None,64.32231879999927,64.32231879999927,64.32231879999927,64.32231879999927,64.32231879999927,64.32231879999927,64.32231879999927,64.32231879999927,64.32231879999927,64.32231879999927,,006,P014,2025_Feb_28_1640,ConditionRich,2021.2.3,59.966274966493145,
36.75,40.0,41,0.0,Stimuli/Blank.png,0,0.0,0.0,0,18,18,18,,,,,,,,,,,,,36.7660180999992,0.016018099999200786,None,65.07300709999981,65.07300709999981,65.07300709999981,65.07300709999981,65.07300709999981,65.07300709999981,65.07300709999981,65.07300709999981,65.07300709999981,65.07300709999981,,006,P014,2025_Feb_28_1640,ConditionRich,2021.2.3,59.966274966493145,
40.0,40.75,22,0.75,Stimuli/P014/things_banner_07s.jpg,0,0.0,0.0,0,19,19,19,,,,,,,,,,,,,40.002358300000196,0.002358300000196323,None,68.3258707999994,68.3258707999994,68.3258707999994,68.3258707999994,68.3258707999994,68.3258707999994,68.3258707999994,68.3258707999994,68.3258707999994,68.3258707999994,,006,P014,2025_Feb_28_1640,ConditionRich,2021.2.3,59.966274966493145,
40.75,44.0,41,0.0,Stimuli/Blank.png,1,0.25,1.0,0,20,20,20,,,,,,,,,,,,,40.76837220000016,0.018372200000158045,1,69.07658169999922,69.07658169999922,69.07658169999922,69.07658169999922,69.07658169999922,69.07658169999922,69.31006189999971,70.0607299000003,69.07658169999922,69.07658169999922,0.6139285000008385,006,P014,2025_Feb_28_1640,ConditionRich,2021.2.3,59.966274966493145,
44.0,44.75,7,0.75,Stimuli/P014/sun_aojplsluiikxrfxc.jpg,0,0.0,0.0,0,21,21,21,,,,,,,,,,,,,44.004464600000574,0.004464600000574137,None,72.31273890000011,72.31273890000011,72.31273890000011,72.31273890000011,72.31273890000011,72.31273890000011,72.31273890000011,72.31273890000011,72.31273890000011,72.31273890000011,,006,P014,2025_Feb_28_1640,ConditionRich,2021.2.3,59.966274966493145,
44.75,48.0,41,0.0,Stimuli/Blank.png,0,0.0,0.0,0,22,22,22,,,,,,,,,,,,,44.75604190000013,0.006041900000127498,None,73.06339099999968,73.06339099999968,73.06339099999968,73.06339099999968,73.06339099999968,73.06339099999968,73.06339099999968,73.06339099999968,73.06339099999968,73.06339099999968,,006,P014,2025_Feb_28_1640,ConditionRich,2021.2.3,59.966274966493145,
48.0,48.75,38,0.75,Stimuli/P014/things_spark_plug_07s.jpg,0,0.0,0.0,0,23,23,23,,,,,,,,,,,,,48.00836530000015,0.008365300000150455,None,76.31627389999994,76.31627389999994,76.31627389999994,76.31627389999994,76.31627389999994,76.31627389999994,76.31627389999994,76.31627389999994,76.31627389999994,76.31627389999994,,006,P014,2025_Feb_28_1640,ConditionRich,2021.2.3,59.966274966493145,
48.75,52.0,41,0.0,Stimuli/Blank.png,0,0.0,0.0,0,24,24,24,,,,,,,,,,,,,48.7604965999999,0.010496599999896716,None,77.08362850000049,77.08362850000049,77.08362850000049,77.08362850000049,77.08362850000049,77.08362850000049,77.08362850000049,77.08362850000049,77.08362850000049,77.08362850000049,,006,P014,2025_Feb_28_1640,ConditionRich,2021.2.3,59.966274966493145,
52.0,52.75,10,0.75,Stimuli/P014/sun_bdhxnzyleoiflyak.jpg,0,0.0,0.0,0,25,25,25,,,,,,,,,,,,,52.02909870000076,0.02909870000075898,None,80.35319809999964,80.35319809999964,80.35319809999964,80.35319809999964,80.35319809999964,80.35319809999964,80.35319809999964,80.35319809999964,80.35319809999964,80.35319809999964,,006,P014,2025_Feb_28_1640,ConditionRich,2021.2.3,59.966274966493145,
52.75,56.0,41,0.0,Stimuli/Blank.png,0,0.0,0.0,0,26,26,26,,,,,,,,,,,,,52.781436699999176,0.0314366999991762,None,81.10385870000027,81.10385870000027,81.10385870000027,81.10385870000027,81.10385870000027,81.10385870000027,81.10385870000027,81.10385870000027,81.10385870000027,81.10385870000027,,006,P014,2025_Feb_28_1640,ConditionRich,2021.2.3,59.966274966493145,
56.0,56.75,8,0.75,Stimuli/P014/sun_auqrilekgmdmrncq.jpg,0,0.0,0.0,0,27,27,27,,,,,,,,,,,,,56.017781399999876,0.017781399999876157,None,84.3400658999999,84.3400658999999,84.3400658999999,84.3400658999999,84.3400658999999,84.3400658999999,84.3400658999999,84.3400658999999,84.3400658999999,84.3400658999999,,006,P014,2025_Feb_28_1640,ConditionRich,2021.2.3,59.966274966493145,
56.75,60.0,41,0.0,Stimuli/Blank.png,0,0.0,0.0,0,28,28,28,,,,,,,,,,,,,56.76718810000057,0.01718810000056692,None,85.07404329999918,85.07404329999918,85.07404329999918,85.07404329999918,85.07404329999918,85.07404329999918,85.07404329999918,85.07404329999918,85.07404329999918,85.07404329999918,,006,P014,2025_Feb_28_1640,ConditionRich,2021.2.3,59.966274966493145,
60.0,60.75,36,0.75,Stimuli/P014/things_seafood_07s.jpg,0,0.0,0.0,0,29,29,29,,,,,,,,,,,,,60.002587900000435,0.0025879000004351838,None,88.32691549999981,88.32691549999981,88.32691549999981,88.32691549999981,88.32691549999981,88.32691549999981,88.32691549999981,88.32691549999981,88.32691549999981,88.32691549999981,,006,P014,2025_Feb_28_1640,ConditionRich,2021.2.3,59.966274966493145,
60.75,64.0,41,0.0,Stimuli/Blank.png,0,0.0,0.0,0,30,30,30,,,,,,,,,,,,,60.76994519999971,0.019945199999710894,None,89.07759149999947,89.07759149999947,89.07759149999947,89.07759149999947,89.07759149999947,89.07759149999947,89.07759149999947,89.07759149999947,89.07759149999947,89.07759149999947,,006,P014,2025_Feb_28_1640,ConditionRich,2021.2.3,59.966274966493145,
64.0,64.75,29,0.75,Stimuli/P014/things_iguana_07s.jpg,1,0.0,0.75,0,31,31,31,,,,,,,,,,,,,64.00627619999977,0.00627619999977469,1,92.33046470000045,92.33046470000045,92.33046470000045,92.33046470000045,92.33046470000045,92.33046470000045,92.33046470000045,93.04781849999927,92.33046470000045,92.33046470000045,0.4510420000005979,006,P014,2025_Feb_28_1640,ConditionRich,2021.2.3,59.966274966493145,
64.75,68.0,41,0.0,Stimuli/Blank.png,0,0.0,0.0,0,32,32,32,,,,,,,,,,,,,64.77285429999938,0.0228542999993806,None,93.08112729999993,93.08112729999993,93.08112729999993,93.08112729999993,93.08112729999993,93.08112729999993,93.08112729999993,93.08112729999993,93.08112729999993,93.08112729999993,,006,P014,2025_Feb_28_1640,ConditionRich,2021.2.3,59.966274966493145,
68.0,68.75,33,0.75,Stimuli/P014/things_piglet_07s.jpg,1,0.0,0.75,0,33,33,33,,,,,,,,,,,,,68.01242979999915,0.012429799999154056,1,96.33403009999893,96.33403009999893,96.33403009999893,96.33403009999893,96.33403009999893,96.33403009999893,96.33403009999893,97.0679870999993,96.33403009999893,96.33403009999893,0.4215868999999657,006,P014,2025_Feb_28_1640,ConditionRich,2021.2.3,59.966274966493145,
68.75,72.0,41,0.0,Stimuli/Blank.png,0,0.0,0.0,0,34,34,34,,,,,,,,,,,,,68.77635030000056,0.02635030000055849,None,97.08466950000002,97.08466950000002,97.08466950000002,97.08466950000002,97.08466950000002,97.08466950000002,97.08466950000002,97.08466950000002,97.08466950000002,97.08466950000002,,006,P014,2025_Feb_28_1640,ConditionRich,2021.2.3,59.966274966493145,
72.0,72.75,9,0.75,Stimuli/P014/sun_bdgwqzttihopmpbf.jpg,0,0.0,0.0,0,35,35,35,,,,,,,,,,,,,72.01330000000053,0.01330000000052678,None,100.32087879999926,100.32087879999926,100.32087879999926,100.32087879999926,100.32087879999926,100.32087879999926,100.32087879999926,100.32087879999926,100.32087879999926,100.32087879999926,,006,P014,2025_Feb_28_1640,ConditionRich,2021.2.3,59.966274966493145,
72.75,76.0,41,0.0,Stimuli/Blank.png,0,0.0,0.0,0,36,36,36,,,,,,,,,,,,,72.76382039999953,0.013820399999531219,None,101.07154470000023,101.07154470000023,101.07154470000023,101.07154470000023,101.07154470000023,101.07154470000023,101.07154470000023,101.07154470000023,101.07154470000023,101.07154470000023,,006,P014,2025_Feb_28_1640,ConditionRich,2021.2.3,59.966274966493145,
76.0,76.75,26,0.75,Stimuli/P014/things_cougar_07s.jpg,0,0.0,0.0,0,37,37,37,,,,,,,,,,,,,75.99970829999984,-0.0002917000001616543,None,104.30773649999901,104.30773649999901,104.30773649999901,104.30773649999901,104.30773649999901,104.30773649999901,104.30773649999901,104.30773649999901,104.30773649999901,104.30773649999901,,006,P014,2025_Feb_28_1640,ConditionRich,2021.2.3,59.966274966493145,
76.75,80.0,41,0.0,Stimuli/Blank.png,0,0.0,0.0,0,38,38,38,,,,,,,,,,,,,76.7498983000005,-0.00010169999950448982,None,105.05840559999888,105.05840559999888,105.05840559999888,105.05840559999888,105.05840559999888,105.05840559999888,105.05840559999888,105.05840559999888,105.05840559999888,105.05840559999888,,006,P014,2025_Feb_28_1640,ConditionRich,2021.2.3,59.966274966493145,
80.0,80.75,5,0.75,Stimuli/P014/sun_aidrxvbfhxtsusrf.jpg,0,0.0,0.0,0,39,39,39,,,,,,,,,,,,,80.00399409999955,0.003994099999545142,None,108.31147240000064,108.31147240000064,108.31147240000064,108.31147240000064,108.31147240000064,108.31147240000064,108.31147240000064,108.31147240000064,108.31147240000064,108.31147240000064,,006,P014,2025_Feb_28_1640,ConditionRich,2021.2.3,59.966274966493145,
80.75,84.0,41,0.0,Stimuli/Blank.png,1,1.25,2.0,0,40,40,40,,,,,,,,,,,,,80.75438620000023,0.004386200000226381,1,109.0619499000004,109.0619499000004,109.0619499000004,109.0619499000004,109.0619499000004,109.0619499000004,110.29637530000036,111.0470863999999,109.0619499000004,109.0619499000004,1.5910354999996343,006,P014,2025_Feb_28_1640,ConditionRich,2021.2.3,59.966274966493145,
84.0,100.0,0,0.0,Stimuli/Blank.png,1,1.0,1.75,0,41,41,41,,,,,,,,,,,,,84.00659780000024,0.00659780000023602,1,112.31489329999931,112.31489329999931,112.31489329999931,112.31489329999931,112.31489329999931,112.31489329999931,113.29906859999937,114.04971160000059,112.31489329999931,112.31489329999931,1.3986461000004056,006,P014,2025_Feb_28_1640,ConditionRich,2021.2.3,59.966274966493145,
100.0,100.75,17,0.75,Stimuli/P014/sun_bsguftphqnrkbedw.jpg,0,0.0,0.0,0,42,42,42,,,,,,,,,,,,,100.00448929999948,0.004489299999477225,None,128.31233880000036,128.31233880000036,128.31233880000036,128.31233880000036,128.31233880000036,128.31233880000036,128.31233880000036,128.31233880000036,128.31233880000036,128.31233880000036,,006,P014,2025_Feb_28_1640,ConditionRich,2021.2.3,59.966274966493145,
100.75,104.0,41,0.0,Stimuli/Blank.png,1,1.25,2.0,0,43,43,43,,,,,,,,,,,,,100.7554796000004,0.005479600000398932,1,129.06303099999968,129.06303099999968,129.06303099999968,129.06303099999968,129.06303099999968,129.06303099999968,130.29741549999926,131.0480836000006,129.06303099999968,129.06303099999968,1.6016462999996293,006,P014,2025_Feb_28_1640,ConditionRich,2021.2.3,59.966274966493145,
104.0,104.75,24,0.75,Stimuli/P014/things_bungee_07s.jpg,0,0.0,0.0,0,44,44,44,,,,,,,,,,,,,104.00974900000074,0.009749000000738306,None,132.33256579999943,132.33256579999943,132.33256579999943,132.33256579999943,132.33256579999943,132.33256579999943,132.33256579999943,132.33256579999943,132.33256579999943,132.33256579999943,,006,P014,2025_Feb_28_1640,ConditionRich,2021.2.3,59.966274966493145,
104.75,108.0,41,0.0,Stimuli/Blank.png,0,0.0,0.0,0,45,45,45,,,,,,,,,,,,,104.77561609999975,0.025616099999751896,None,133.08323000000019,133.08323000000019,133.08323000000019,133.08323000000019,133.08323000000019,133.08323000000019,133.08323000000019,133.08323000000019,133.08323000000019,133.08323000000019,,006,P014,2025_Feb_28_1640,ConditionRich,2021.2.3,59.966274966493145,
108.0,108.75,35,0.75,Stimuli/P014/things_road_sign_07s.jpg,1,0.0,0.75,0,46,46,46,,,,,,,,,,,,,108.01132460000008,0.011324600000079954,1,136.33611050000036,136.33611050000036,136.33611050000036,136.33611050000036,136.33611050000036,136.33611050000036,136.33611050000036,137.05339579999963,136.33611050000036,136.33611050000036,0.6124753999993118,006,P014,2025_Feb_28_1640,ConditionRich,2021.2.3,59.966274966493145,
108.75,112.0,41,0.0,Stimuli/Blank.png,0,0.0,0.0,0,47,47,47,,,,,,,,,,,,,108.77924209999946,0.0292420999994647,None,137.0867858999991,137.0867858999991,137.0867858999991,137.0867858999991,137.0867858999991,137.0867858999991,137.0867858999991,137.0867858999991,137.0867858999991,137.0867858999991,,006,P014,2025_Feb_28_1640,ConditionRich,2021.2.3,59.966274966493145,
112.0,112.75,16,0.75,Stimuli/P014/sun_bsgtkqjrnrvttrax.jpg,0,0.0,0.0,0,48,48,48,,,,,,,,,,,,,112.0149934000001,0.01499340000009397,None,140.32297280000057,140.32297280000057,140.32297280000057,140.32297280000057,140.32297280000057,140.32297280000057,140.32297280000057,140.32297280000057,140.32297280000057,140.32297280000057,,006,P014,2025_Feb_28_1640,ConditionRich,2021.2.3,59.966274966493145,
112.75,116.0,41,0.0,Stimuli/Blank.png,0,0.0,0.0,0,49,49,49,,,,,,,,,,,,,112.76528309999958,0.015283099999578553,1,141.07363029999942,141.07363029999942,141.07363029999942,141.07363029999942,141.07363029999942,141.07363029999942,141.07363029999942,141.07363029999942,141.07363029999942,141.07363029999942,2.5619716999990487,006,P014,2025_Feb_28_1640,ConditionRich,2021.2.3,59.966274966493145,
116.0,116.75,11,0.75,Stimuli/P014/sun_bfyxzbjsvqsobbky.jpg,0,0.0,0.0,0,50,50,50,,,,,,,,,,,,,116.0015241000001,0.0015241000000969507,None,144.30986699999994,144.30986699999994,144.30986699999994,144.30986699999994,144.30986699999994,144.30986699999994,144.30986699999994,144.30986699999994,144.30986699999994,144.30986699999994,,006,P014,2025_Feb_28_1640,ConditionRich,2021.2.3,59.966274966493145,
116.75,120.0,41,0.0,Stimuli/Blank.png,0,0.0,0.0,0,51,51,51,,,,,,,,,,,,,116.75222319999921,0.0022231999992072815,None,145.06049910000002,145.06049910000002,145.06049910000002,145.06049910000002,145.06049910000002,145.06049910000002,145.06049910000002,145.06049910000002,145.06049910000002,145.06049910000002,,006,P014,2025_Feb_28_1640,ConditionRich,2021.2.3,59.966274966493145,
120.0,120.75,15,0.75,Stimuli/P014/sun_brezwczwwllviogu.jpg,0,0.0,0.0,0,52,52,52,,,,,,,,,,,,,120.00554220000049,0.005542200000490993,None,148.3133727000004,148.3133727000004,148.3133727000004,148.3133727000004,148.3133727000004,148.3133727000004,148.3133727000004,148.3133727000004,148.3133727000004,148.3133727000004,,006,P014,2025_Feb_28_1640,ConditionRich,2021.2.3,59.966274966493145,
120.75,124.0,41,0.0,Stimuli/Blank.png,0,0.0,0.0,0,53,53,53,,,,,,,,,,,,,120.75633229999949,0.006332299999485258,None,149.06406509999943,149.06406509999943,149.06406509999943,149.06406509999943,149.06406509999943,149.06406509999943,149.06406509999943,149.06406509999943,149.06406509999943,149.06406509999943,,006,P014,2025_Feb_28_1640,ConditionRich,2021.2.3,59.966274966493145,
124.0,124.75,37,0.75,Stimuli/P014/things_slug_07s.jpg,0,0.0,0.0,0,54,54,54,,,,,,,,,,,,,124.00920430000042,0.009204300000419607,None,152.31692230000044,152.31692230000044,152.31692230000044,152.31692230000044,152.31692230000044,152.31692230000044,152.31692230000044,152.31692230000044,152.31692230000044,152.31692230000044,,006,P014,2025_Feb_28_1640,ConditionRich,2021.2.3,59.966274966493145,
124.75,128.0,41,0.0,Stimuli/Blank.png,0,0.0,0.0,0,55,55,55,,,,,,,,,,,,,124.76085400000011,0.010854000000108499,None,153.06759559999955,153.06759559999955,153.06759559999955,153.06759559999955,153.06759559999955,153.06759559999955,153.06759559999955,153.06759559999955,153.06759559999955,153.06759559999955,,006,P014,2025_Feb_28_1640,ConditionRich,2021.2.3,59.966274966493145,
128.0,128.75,30,0.75,Stimuli/P014/things_man_07s.jpg,0,0.0,0.0,0,56,56,56,,,,,,,,,,,,,128.01275089999945,0.01275089999944612,None,156.32047070000044,156.32047070000044,156.32047070000044,156.32047070000044,156.32047070000044,156.32047070000044,156.32047070000044,156.32047070000044,156.32047070000044,156.32047070000044,,006,P014,2025_Feb_28_1640,ConditionRich,2021.2.3,59.966274966493145,
128.75,132.0,41,0.0,Stimuli/Blank.png,0,0.0,0.0,0,57,57,57,,,,,,,,,,,,,128.763508,0.01350800000000163,None,157.0712110000004,157.0712110000004,157.0712110000004,157.0712110000004,157.0712110000004,157.0712110000004,157.0712110000004,157.0712110000004,157.0712110000004,157.0712110000004,,006,P014,2025_Feb_28_1640,ConditionRich,2021.2.3,59.966274966493145,
132.0,132.75,18,0.75,Stimuli/P014/sun_btohwudpiusfvpvl.jpg,0,0.0,0.0,0,58,58,58,,,,,,,,,,,,,131.99955939999927,-0.0004406000007293187,None,160.32401539999955,160.32401539999955,160.32401539999955,160.32401539999955,160.32401539999955,160.32401539999955,160.32401539999955,160.32401539999955,160.32401539999955,160.32401539999955,,006,P014,2025_Feb_28_1640,ConditionRich,2021.2.3,59.966274966493145,
132.75,136.0,41,0.0,Stimuli/Blank.png,0,0.0,0.0,0,59,59,59,,,,,,,,,,,,,132.76671460000034,0.016714600000341306,None,161.07467489999908,161.07467489999908,161.07467489999908,161.07467489999908,161.07467489999908,161.07467489999908,161.07467489999908,161.07467489999908,161.07467489999908,161.07467489999908,,006,P014,2025_Feb_28_1640,ConditionRich,2021.2.3,59.966274966493145,
136.0,136.75,6,0.75,Stimuli/P014/sun_aoejkkmwkfegacni.jpg,0,0.0,0.0,0,60,60,60,,,,,,,,,,,,,136.00336269999934,0.0033626999993430218,None,164.32755910000014,164.32755910000014,164.32755910000014,164.32755910000014,164.32755910000014,164.32755910000014,164.32755910000014,164.32755910000014,164.32755910000014,164.32755910000014,,006,P014,2025_Feb_28_1640,ConditionRich,2021.2.3,59.966274966493145,
136.75,140.0,41,0.0,Stimuli/Blank.png,0,0.0,0.0,0,61,61,61,,,,,,,,,,,,,136.76970919999985,0.01970919999985199,None,165.07827439999892,165.07827439999892,165.07827439999892,165.07827439999892,165.07827439999892,165.07827439999892,165.07827439999892,165.07827439999892,165.07827439999892,165.07827439999892,,006,P014,2025_Feb_28_1640,ConditionRich,2021.2.3,59.966274966493145,
140.0,140.75,34,0.75,Stimuli/P014/things_radio_07s.jpg,0,0.0,0.0,0,62,62,62,,,,,,,,,,,,,140.00660880000032,0.006608800000321935,None,168.3311061000004,168.3311061000004,168.3311061000004,168.3311061000004,168.3311061000004,168.3311061000004,168.3311061000004,168.3311061000004,168.3311061000004,168.3311061000004,,006,P014,2025_Feb_28_1640,ConditionRich,2021.2.3,59.966274966493145,
140.75,144.0,41,0.0,Stimuli/Blank.png,0,0.0,0.0,0,63,63,63,,,,,,,,,,,,,140.77340039999945,0.023400399999445654,None,169.0817666999992,169.0817666999992,169.0817666999992,169.0817666999992,169.0817666999992,169.0817666999992,169.0817666999992,169.0817666999992,169.0817666999992,169.0817666999992,,006,P014,2025_Feb_28_1640,ConditionRich,2021.2.3,59.966274966493145,
144.0,144.75,13,0.75,Stimuli/P014/sun_bpccpwpohfirajtf.jpg,0,0.0,0.0,0,64,64,64,,,,,,,,,,,,,144.01156300000002,0.011563000000023749,None,172.33465669999896,172.33465669999896,172.33465669999896,172.33465669999896,172.33465669999896,172.33465669999896,172.33465669999896,172.33465669999896,172.33465669999896,172.33465669999896,,006,P014,2025_Feb_28_1640,ConditionRich,2021.2.3,59.966274966493145,
144.75,148.0,41,0.0,Stimuli/Blank.png,0,0.0,0.0,0,65,65,65,,,,,,,,,,,,,144.77791919999981,0.027919199999814737,None,173.08536060000006,173.08536060000006,173.08536060000006,173.08536060000006,173.08536060000006,173.08536060000006,173.08536060000006,173.08536060000006,173.08536060000006,173.08536060000006,,006,P014,2025_Feb_28_1640,ConditionRich,2021.2.3,59.966274966493145,
148.0,148.75,19,0.75,Stimuli/P014/sun_buphlelowxjnoygy.jpg,0,0.0,0.0,0,66,66,66,,,,,,,,,,,,,148.0131724999992,0.013172499999200227,None,176.32150809999985,176.32150809999985,176.32150809999985,176.32150809999985,176.32150809999985,176.32150809999985,176.32150809999985,176.32150809999985,176.32150809999985,176.32150809999985,,006,P014,2025_Feb_28_1640,ConditionRich,2021.2.3,59.966274966493145,
148.75,152.0,41,0.0,Stimuli/Blank.png,1,0.25,1.0,0,67,67,67,,,,,,,,,,,,,148.7636562000007,0.013656200000696117,2,177.07218850000027,177.07218850000027,177.07218850000027,177.07218850000027,177.07218850000027,177.07218850000027,177.30571620000046,178.05637539999952,177.07218850000027,177.07218850000027,2.9174602999992203,006,P014,2025_Feb_28_1640,ConditionRich,2021.2.3,59.966274966493145,
152.0,152.75,32,0.75,Stimuli/P014/things_mistletoe_07s.jpg,0,0.0,0.0,0,68,68,68,,,,,,,,,,,,,152.0009599999994,0.0009599999993952224,None,180.32511449999947,180.32511449999947,180.32511449999947,180.32511449999947,180.32511449999947,180.32511449999947,180.32511449999947,180.32511449999947,180.32511449999947,180.32511449999947,,006,P014,2025_Feb_28_1640,ConditionRich,2021.2.3,59.966274966493145,
152.75,156.0,41,0.0,Stimuli/Blank.png,1,0.25,1.0,0,69,69,69,,,,,,,,,,,,,152.7686190000004,0.018619000000398955,1,181.07572149999942,181.07572149999942,181.07572149999942,181.07572149999942,181.07572149999942,181.07572149999942,181.30931599999894,182.05994219999957,181.07572149999942,181.07572149999942,0.7150471000004472,006,P014,2025_Feb_28_1640,ConditionRich,2021.2.3,59.966274966493145,
156.0,156.75,2,0.75,Stimuli/P014/sun_adotnsaifoooswkf.jpg,0,0.0,0.0,0,70,70,70,,,,,,,,,,,,,156.00351919999957,0.003519199999573175,None,184.3119119999992,184.3119119999992,184.3119119999992,184.3119119999992,184.3119119999992,184.3119119999992,184.3119119999992,184.3119119999992,184.3119119999992,184.3119119999992,,006,P014,2025_Feb_28_1640,ConditionRich,2021.2.3,59.966274966493145,
156.75,160.0,41,0.0,Stimuli/Blank.png,0,0.0,0.0,0,71,71,71,,,,,,,,,,,,,156.75428680000005,0.004286800000045332,None,185.06258100000014,185.06258100000014,185.06258100000014,185.06258100000014,185.06258100000014,185.06258100000014,185.06258100000014,185.06258100000014,185.06258100000014,185.06258100000014,,006,P014,2025_Feb_28_1640,ConditionRich,2021.2.3,59.966274966493145,
160.0,160.75,20,0.75,Stimuli/P014/sun_cidodcxikcyrdglc.jpg,0,0.0,0.0,0,72,72,72,,,,,,,,,,,,,160.00702749999982,0.0070274999998218846,None,188.33214640000006,188.33214640000006,188.33214640000006,188.33214640000006,188.33214640000006,188.33214640000006,188.33214640000006,188.33214640000006,188.33214640000006,188.33214640000006,,006,P014,2025_Feb_28_1640,ConditionRich,2021.2.3,59.966274966493145,
160.75,164.0,41,0.0,Stimuli/Blank.png,0,0.0,0.0,0,73,73,73,,,,,,,,,,,,,160.77600229999916,0.02600229999916337,None,189.08283540000048,189.08283540000048,189.08283540000048,189.08283540000048,189.08283540000048,189.08283540000048,189.08283540000048,189.08283540000048,189.08283540000048,189.08283540000048,,006,P014,2025_Feb_28_1640,ConditionRich,2021.2.3,59.966274966493145,
164.0,164.75,1,0.75,Stimuli/P014/sun_adkmgqclfrkhfxbd.jpg,0,0.0,0.0,0,74,74,74,,,,,,,,,,,,,164.01139739999962,0.011397399999623303,None,192.3357159999996,192.3357159999996,192.3357159999996,192.3357159999996,192.3357159999996,192.3357159999996,192.3357159999996,192.3357159999996,192.3357159999996,192.3357159999996,,006,P014,2025_Feb_28_1640,ConditionRich,2021.2.3,59.966274966493145,
164.75,168.0,41,0.0,Stimuli/Blank.png,0,0.0,0.0,0,75,75,75,,,,,,,,,,,,,164.78027769999971,0.03027769999971497,None,193.1030565000001,193.1030565000001,193.1030565000001,193.1030565000001,193.1030565000001,193.1030565000001,193.1030565000001,193.1030565000001,193.1030565000001,193.1030565000001,,006,P014,2025_Feb_28_1640,ConditionRich,2021.2.3,59.966274966493145,
168.0,168.75,31,0.75,Stimuli/P014/things_mask_07s.jpg,0,0.0,0.0,0,76,76,76,,,,,,,,,,,,,168.01616950000061,0.01616950000061479,None,196.33925660000023,196.33925660000023,196.33925660000023,196.33925660000023,196.33925660000023,196.33925660000023,196.33925660000023,196.33925660000023,196.33925660000023,196.33925660000023,,006,P014,2025_Feb_28_1640,ConditionRich,2021.2.3,59.966274966493145,
168.75,172.0,41,0.0,Stimuli/Blank.png,1,0.25,1.0,0,77,77,77,,,,,,,,,,,,,168.76552430000083,0.015524300000834046,1,197.0732095000003,197.0732095000003,197.0732095000003,197.0732095000003,197.0732095000003,197.0732095000003,197.30672909999885,198.05742250000003,197.0732095000003,197.0732095000003,0.6554677999993146,006,P014,2025_Feb_28_1640,ConditionRich,2021.2.3,59.966274966493145,
172.0,172.75,14,0.75,Stimuli/P014/sun_bqhfterhwnqrbnzg.jpg,0,0.0,0.0,0,78,78,78,,,,,,,,,,,,,172.00169959999948,0.0016995999994833255,None,200.3260919000004,200.3260919000004,200.3260919000004,200.3260919000004,200.3260919000004,200.3260919000004,200.3260919000004,200.3260919000004,200.3260919000004,200.3260919000004,,006,P014,2025_Feb_28_1640,ConditionRich,2021.2.3,59.966274966493145,
172.75,176.0,41,0.0,Stimuli/Blank.png,0,0.0,0.0,0,79,79,79,,,,,,,,,,,,,172.76931909999985,0.019319099999847822,None,201.07677820000026,201.07677820000026,201.07677820000026,201.07677820000026,201.07677820000026,201.07677820000026,201.07677820000026,201.07677820000026,201.07677820000026,201.07677820000026,,006,P014,2025_Feb_28_1640,ConditionRich,2021.2.3,59.966274966493145,
176.0,176.75,3,0.75,Stimuli/P014/sun_aengzsmykwchlrdn.jpg,0,0.0,0.0,0,80,80,80,,,,,,,,,,,,,176.00501129999975,0.005011299999750918,None,204.31295689999934,204.31295689999934,204.31295689999934,204.31295689999934,204.31295689999934,204.31295689999934,204.31295689999934,204.31295689999934,204.31295689999934,204.31295689999934,,006,P014,2025_Feb_28_1640,ConditionRich,2021.2.3,59.966274966493145,
176.75,180.0,41,0.0,Stimuli/Blank.png,0,0.0,0.0,0,81,81,81,,,,,,,,,,,,,176.75681950000035,0.006819500000347034,None,205.08033169999908,205.08033169999908,205.08033169999908,205.08033169999908,205.08033169999908,205.08033169999908,205.08033169999908,205.08033169999908,205.08033169999908,205.08033169999908,,006,P014,2025_Feb_28_1640,ConditionRich,2021.2.3,59.966274966493145,
180.0,196.0,0,0.0,Stimuli/Blank.png,1,13.0,13.75,0,82,82,82,,,,,,,,,,,,,180.02587080000012,0.025870800000120653,1,208.3331978999995,208.3331978999995,208.3331978999995,208.3331978999995,208.3331978999995,208.3331978999995,221.32802149999952,222.07868919999964,208.3331978999995,208.3331978999995,13.362506400000711,006,P014,2025_Feb_28_1640,ConditionRich,2021.2.3,59.966274966493145,
196.0,196.75,6,0.75,Stimuli/P014/sun_aoejkkmwkfegacni.jpg,0,0.0,0.0,0,83,83,83,,,,,,,,,,,,,196.00640039999962,0.0064003999996202765,None,224.31401410000035,224.31401410000035,224.31401410000035,224.31401410000035,224.31401410000035,224.31401410000035,224.31401410000035,224.31401410000035,224.31401410000035,224.31401410000035,,006,P014,2025_Feb_28_1640,ConditionRich,2021.2.3,59.966274966493145,
196.75,200.0,41,0.0,Stimuli/Blank.png,0,0.0,0.0,0,84,84,84,,,,,,,,,,,,,196.75688660000014,0.006886600000143517,None,225.08135550000043,225.08135550000043,225.08135550000043,225.08135550000043,225.08135550000043,225.08135550000043,225.08135550000043,225.08135550000043,225.08135550000043,225.08135550000043,,006,P014,2025_Feb_28_1640,ConditionRich,2021.2.3,59.966274966493145,
200.0,200.75,2,0.75,Stimuli/P014/sun_adotnsaifoooswkf.jpg,1,0.0,0.75,0,85,85,85,,,,,,,,,,,,,200.02672019999955,0.026720199999545002,1,228.35094050000043,228.35094050000043,228.35094050000043,228.35094050000043,228.35094050000043,228.35094050000043,228.35094050000043,229.06821889999992,228.35094050000043,228.35094050000043,0.4127791000009893,006,P014,2025_Feb_28_1640,ConditionRich,2021.2.3,59.966274966493145,
200.75,204.0,41,0.0,Stimuli/Blank.png,0,0.0,0.0,0,86,86,86,,,,,,,,,,,,,200.7766388,0.02663880000000063,None,229.0849030999998,229.0849030999998,229.0849030999998,229.0849030999998,229.0849030999998,229.0849030999998,229.0849030999998,229.0849030999998,229.0849030999998,229.0849030999998,,006,P014,2025_Feb_28_1640,ConditionRich,2021.2.3,59.966274966493145,
204.0,204.75,23,0.75,Stimuli/P014/things_bug_07s.jpg,0,0.0,0.0,0,87,87,87,,,,,,,,,,,,,204.01371590000053,0.01371590000053402,None,232.32110250000005,232.32110250000005,232.32110250000005,232.32110250000005,232.32110250000005,232.32110250000005,232.32110250000005,232.32110250000005,232.32110250000005,232.32110250000005,,006,P014,2025_Feb_28_1640,ConditionRich,2021.2.3,59.966274966493145,
204.75,208.0,41,0.0,Stimuli/Blank.png,0,0.0,0.0,0,88,88,88,,,,,,,,,,,,,204.76444049999918,0.014440499999182066,None,233.07177910000064,233.07177910000064,233.07177910000064,233.07177910000064,233.07177910000064,233.07177910000064,233.07177910000064,233.07177910000064,233.07177910000064,233.07177910000064,,006,P014,2025_Feb_28_1640,ConditionRich,2021.2.3,59.966274966493145,
208.0,208.75,12,0.75,Stimuli/P014/sun_bjyrrxiwsnbmkbqs.jpg,0,0.0,0.0,0,89,89,89,,,,,,,,,,,,,208.00020640000002,0.00020640000002458692,None,236.3079486000006,236.3079486000006,236.3079486000006,236.3079486000006,236.3079486000006,236.3079486000006,236.3079486000006,236.3079486000006,236.3079486000006,236.3079486000006,,006,P014,2025_Feb_28_1640,ConditionRich,2021.2.3,59.966274966493145,
208.75,212.0,41,0.0,Stimuli/Blank.png,1,2.25,3.0,0,90,90,90,,,,,,,,,,,,,208.7507213000008,0.0007213000008050585,1,237.05861539999933,237.05861539999933,237.05861539999933,237.05861539999933,237.05861539999933,237.05861539999933,239.29395879999902,240.04465469999923,237.05861539999933,237.05861539999933,2.66699940000035,006,P014,2025_Feb_28_1640,ConditionRich,2021.2.3,59.966274966493145,
212.0,212.75,4,0.75,Stimuli/P014/sun_afgoiykvchxqotyz.jpg,0,0.0,0.0,0,91,91,91,,,,,,,,,,,,,212.00410630000079,0.004106300000785268,None,240.3115013000006,240.3115013000006,240.3115013000006,240.3115013000006,240.3115013000006,240.3115013000006,240.3115013000006,240.3115013000006,240.3115013000006,240.3115013000006,,006,P014,2025_Feb_28_1640,ConditionRich,2021.2.3,59.966274966493145,
212.75,216.0,41,0.0,Stimuli/Blank.png,0,0.0,0.0,0,92,92,92,,,,,,,,,,,,,212.75388999999996,0.003889999999955762,None,241.06217259999903,241.06217259999903,241.06217259999903,241.06217259999903,241.06217259999903,241.06217259999903,241.06217259999903,241.06217259999903,241.06217259999903,241.06217259999903,,006,P014,2025_Feb_28_1640,ConditionRich,2021.2.3,59.966274966493145,
216.0,216.75,8,0.75,Stimuli/P014/sun_auqrilekgmdmrncq.jpg,0,0.0,0.0,0,93,93,93,,,,,,,,,,,,,216.00737619999927,0.0073761999992711935,None,244.33172679999916,244.33172679999916,244.33172679999916,244.33172679999916,244.33172679999916,244.33172679999916,244.33172679999916,244.33172679999916,244.33172679999916,244.33172679999916,,006,P014,2025_Feb_28_1640,ConditionRich,2021.2.3,59.966274966493145,
216.75,220.0,41,0.0,Stimuli/Blank.png,0,0.0,0.0,0,94,94,94,,,,,,,,,,,,,216.77439589999994,0.02439589999994496,None,245.0824018000003,245.0824018000003,245.0824018000003,245.0824018000003,245.0824018000003,245.0824018000003,245.0824018000003,245.0824018000003,245.0824018000003,245.0824018000003,,006,P014,2025_Feb_28_1640,ConditionRich,2021.2.3,59.966274966493145,
220.0,220.75,28,0.75,Stimuli/P014/things_girl_07s.jpg,0,0.0,0.0,0,95,95,95,,,,,,,,,,,,,220.01312730000063,0.013127300000633113,None,248.33527390000017,248.33527390000017,248.33527390000017,248.33527390000017,248.33527390000017,248.33527390000017,248.33527390000017,248.33527390000017,248.33527390000017,248.33527390000017,,006,P014,2025_Feb_28_1640,ConditionRich,2021.2.3,59.966274966493145,
220.75,224.0,41,0.0,Stimuli/Blank.png,0,0.0,0.0,0,96,96,96,,,,,,,,,,,,,220.77904579999995,0.02904579999994894,None,249.10261209999953,249.10261209999953,249.10261209999953,249.10261209999953,249.10261209999953,249.10261209999953,249.10261209999953,249.10261209999953,249.10261209999953,249.10261209999953,,006,P014,2025_Feb_28_1640,ConditionRich,2021.2.3,59.966274966493145,
224.0,224.75,10,0.75,Stimuli/P014/sun_bdhxnzyleoiflyak.jpg,0,0.0,0.0,0,97,97,97,,,,,,,,,,,,,224.0309225000001,0.030922500000087894,None,252.33881970000039,252.33881970000039,252.33881970000039,252.33881970000039,252.33881970000039,252.33881970000039,252.33881970000039,252.33881970000039,252.33881970000039,252.33881970000039,,006,P014,2025_Feb_28_1640,ConditionRich,2021.2.3,59.966274966493145,
224.75,228.0,41,0.0,Stimuli/Blank.png,0,0.0,0.0,0,98,98,98,,,,,,,,,,,,,224.76526489999924,0.015264899999237969,None,253.07286139999997,253.07286139999997,253.07286139999997,253.07286139999997,253.07286139999997,253.07286139999997,253.07286139999997,253.07286139999997,253.07286139999997,253.07286139999997,,006,P014,2025_Feb_28_1640,ConditionRich,2021.2.3,59.966274966493145,
228.0,228.75,18,0.75,Stimuli/P014/sun_btohwudpiusfvpvl.jpg,0,0.0,0.0,0,99,99,99,,,,,,,,,,,,,228.0012311999999,0.0012311999998928513,None,256.32570060000035,256.32570060000035,256.32570060000035,256.32570060000035,256.32570060000035,256.32570060000035,256.32570060000035,256.32570060000035,256.32570060000035,256.32570060000035,,006,P014,2025_Feb_28_1640,ConditionRich,2021.2.3,59.966274966493145,
228.75,232.0,41,0.0,Stimuli/Blank.png,0,0.0,0.0,0,100,100,100,,,,,,,,,,,,,228.7678362000006,0.01783620000060182,None,257.07634920000055,257.07634920000055,257.07634920000055,257.07634920000055,257.07634920000055,257.07634920000055,257.07634920000055,257.07634920000055,257.07634920000055,257.07634920000055,,006,P014,2025_Feb_28_1640,ConditionRich,2021.2.3,59.966274966493145,
232.0,232.75,11,0.75,Stimuli/P014/sun_bfyxzbjsvqsobbky.jpg,0,0.0,0.0,0,101,101,101,,,,,,,,,,,,,232.0068265000009,0.006826500000897795,None,260.3292435000003,260.3292435000003,260.3292435000003,260.3292435000003,260.3292435000003,260.3292435000003,260.3292435000003,260.3292435000003,260.3292435000003,260.3292435000003,,006,P014,2025_Feb_28_1640,ConditionRich,2021.2.3,59.966274966493145,
232.75,236.0,41,0.0,Stimuli/Blank.png,0,0.0,0.0,0,102,102,102,,,,,,,,,,,,,232.77213400000073,0.022134000000733067,None,261.07989110000017,261.07989110000017,261.07989110000017,261.07989110000017,261.07989110000017,261.07989110000017,261.07989110000017,261.07989110000017,261.07989110000017,261.07989110000017,,006,P014,2025_Feb_28_1640,ConditionRich,2021.2.3,59.966274966493145,
236.0,236.75,24,0.75,Stimuli/P014/things_bungee_07s.jpg,0,0.0,0.0,0,103,103,103,,,,,,,,,,,,,236.0115760000008,0.011576000000786735,None,264.33277090000047,264.33277090000047,264.33277090000047,264.33277090000047,264.33277090000047,264.33277090000047,264.33277090000047,264.33277090000047,264.33277090000047,264.33277090000047,,006,P014,2025_Feb_28_1640,ConditionRich,2021.2.3,59.966274966493145,
236.75,240.0,41,0.0,Stimuli/Blank.png,0,0.0,0.0,0,104,104,104,,,,,,,,,,,,,236.77501219999976,0.02501219999976456,None,265.08343590000004,265.08343590000004,265.08343590000004,265.08343590000004,265.08343590000004,265.08343590000004,265.08343590000004,265.08343590000004,265.08343590000004,265.08343590000004,,006,P014,2025_Feb_28_1640,ConditionRich,2021.2.3,59.966274966493145,
240.0,240.75,40,0.75,Stimuli/P014/things_woman_07s.jpg,0,0.0,0.0,0,105,105,105,,,,,,,,,,,,,240.01178029999937,0.0117802999993728,None,268.31962679999924,268.31962679999924,268.31962679999924,268.31962679999924,268.31962679999924,268.31962679999924,268.31962679999924,268.31962679999924,268.31962679999924,268.31962679999924,,006,P014,2025_Feb_28_1640,ConditionRich,2021.2.3,59.966274966493145,
240.75,244.0,41,0.0,Stimuli/Blank.png,0,0.0,0.0,0,106,106,106,,,,,,,,,,,,,240.76349649999975,0.013496499999746447,None,269.0703149000001,269.0703149000001,269.0703149000001,269.0703149000001,269.0703149000001,269.0703149000001,269.0703149000001,269.0703149000001,269.0703149000001,269.0703149000001,,006,P014,2025_Feb_28_1640,ConditionRich,2021.2.3,59.966274966493145,
244.0,244.75,32,0.75,Stimuli/P014/things_mistletoe_07s.jpg,0,0.0,0.0,0,107,107,107,,,,,,,,,,,,,243.99842999999964,-0.0015700000003562309,None,272.32319350000034,272.32319350000034,272.32319350000034,272.32319350000034,272.32319350000034,272.32319350000034,272.32319350000034,272.32319350000034,272.32319350000034,272.32319350000034,,006,P014,2025_Feb_28_1640,ConditionRich,2021.2.3,59.966274966493145,
244.75,248.0,41,0.0,Stimuli/Blank.png,1,2.25,3.0,0,108,108,108,,,,,,,,,,,,,244.76836879999973,0.01836879999973462,1,273.090529699999,273.090529699999,273.090529699999,273.090529699999,273.090529699999,273.090529699999,275.32587740000054,276.07649820000006,273.090529699999,273.090529699999,2.6066770999987057,006,P014,2025_Feb_28_1640,ConditionRich,2021.2.3,59.966274966493145,
248.0,248.75,30,0.75,Stimuli/P014/things_man_07s.jpg,0,0.0,0.0,0,109,109,109,,,,,,,,,,,,,248.01831160000074,0.018311600000743056,None,276.32671630000004,276.32671630000004,276.32671630000004,276.32671630000004,276.32671630000004,276.32671630000004,276.32671630000004,276.32671630000004,276.32671630000004,276.32671630000004,,006,P014,2025_Feb_28_1640,ConditionRich,2021.2.3,59.966274966493145,
248.75,252.0,41,0.0,Stimuli/Blank.png,0,0.0,0.0,0,110,110,110,,,,,,,,,,,,,248.75421939999978,0.004219399999783491,None,277.07739629999924,277.07739629999924,277.07739629999924,277.07739629999924,277.07739629999924,277.07739629999924,277.07739629999924,277.07739629999924,277.07739629999924,277.07739629999924,,006,P014,2025_Feb_28_1640,ConditionRich,2021.2.3,59.966274966493145,
252.0,252.75,37,0.75,Stimuli/P014/things_slug_07s.jpg,0,0.0,0.0,0,111,111,111,,,,,,,,,,,,,252.02200000000084,0.02200000000084401,None,280.34696619999886,280.34696619999886,280.34696619999886,280.34696619999886,280.34696619999886,280.34696619999886,280.34696619999886,280.34696619999886,280.34696619999886,280.34696619999886,,006,P014,2025_Feb_28_1640,ConditionRich,2021.2.3,59.966274966493145,
252.75,256.0,41,0.0,Stimuli/Blank.png,0,0.0,0.0,0,112,112,112,,,,,,,,,,,,,252.77521349999915,0.02521349999915401,None,281.0976207999993,281.0976207999993,281.0976207999993,281.0976207999993,281.0976207999993,281.0976207999993,281.0976207999993,281.0976207999993,281.0976207999993,281.0976207999993,,006,P014,2025_Feb_28_1640,ConditionRich,2021.2.3,59.966274966493145,
256.0,256.75,29,0.75,Stimuli/P014/things_iguana_07s.jpg,0,0.0,0.0,0,113,113,113,,,,,,,,,,,,,256.02642449999985,0.026424499999848194,None,284.3338191999992,284.3338191999992,284.3338191999992,284.3338191999992,284.3338191999992,284.3338191999992,284.3338191999992,284.3338191999992,284.3338191999992,284.3338191999992,,006,P014,2025_Feb_28_1640,ConditionRich,2021.2.3,59.966274966493145,
256.75,260.0,41,0.0,Stimuli/Blank.png,0,0.0,0.0,0,114,114,114,,,,,,,,,,,,,256.75997669999924,0.009976699999242555,None,285.06779429999915,285.06779429999915,285.06779429999915,285.06779429999915,285.06779429999915,285.06779429999915,285.06779429999915,285.06779429999915,285.06779429999915,285.06779429999915,,006,P014,2025_Feb_28_1640,ConditionRich,2021.2.3,59.966274966493145,
260.0,260.75,17,0.75,Stimuli/P014/sun_bsguftphqnrkbedw.jpg,0,0.0,0.0,0,115,115,115,,,,,,,,,,,,,260.01270230000046,0.01270230000045558,None,288.3206706000001,288.3206706000001,288.3206706000001,288.3206706000001,288.3206706000001,288.3206706000001,288.3206706000001,288.3206706000001,288.3206706000001,288.3206706000001,,006,P014,2025_Feb_28_1640,ConditionRich,2021.2.3,59.966274966493145,
260.75,264.0,41,0.0,Stimuli/Blank.png,0,0.0,0.0,0,116,116,116,,,,,,,,,,,,,260.7631516000001,0.013151600000128383,None,289.0713522999995,289.0713522999995,289.0713522999995,289.0713522999995,289.0713522999995,289.0713522999995,289.0713522999995,289.0713522999995,289.0713522999995,289.0713522999995,,006,P014,2025_Feb_28_1640,ConditionRich,2021.2.3,59.966274966493145,
264.0,264.75,5,0.75,Stimuli/P014/sun_aidrxvbfhxtsusrf.jpg,1,0.0,0.75,0,117,117,117,,,,,,,,,,,,,263.99970960000064,-0.00029039999935775995,1,292.307538699999,292.307538699999,292.307538699999,292.307538699999,292.307538699999,292.307538699999,292.307538699999,293.0415207999995,292.307538699999,292.307538699999,0.5076136999996379,006,P014,2025_Feb_28_1640,ConditionRich,2021.2.3,59.966274966493145,
264.75,268.0,41,0.0,Stimuli/Blank.png,0,0.0,0.0,0,118,118,118,,,,,,,,,,,,,264.75038400000085,0.0003840000008494826,None,293.05820329999915,293.05820329999915,293.05820329999915,293.05820329999915,293.05820329999915,293.05820329999915,293.05820329999915,293.05820329999915,293.05820329999915,293.05820329999915,,006,P014,2025_Feb_28_1640,ConditionRich,2021.2.3,59.966274966493145,
268.0,268.75,1,0.75,Stimuli/P014/sun_adkmgqclfrkhfxbd.jpg,1,0.0,0.75,0,119,119,119,,,,,,,,,,,,,268.00283950000085,0.0028395000008458737,1,296.3110729,296.3110729,296.3110729,296.3110729,296.3110729,296.3110729,296.3110729,297.04506609999953,296.3110729,296.3110729,0.3907126000012795,006,P014,2025_Feb_28_1640,ConditionRich,2021.2.3,59.966274966493145,
268.75,272.0,41,0.0,Stimuli/Blank.png,0,0.0,0.0,0,120,120,120,,,,,,,,,,,,,268.75350529999923,0.0035052999992331024,None,297.0617399999992,297.0617399999992,297.0617399999992,297.0617399999992,297.0617399999992,297.0617399999992,297.0617399999992,297.0617399999992,297.0617399999992,297.0617399999992,,006,P014,2025_Feb_28_1640,ConditionRich,2021.2.3,59.966274966493145,
272.0,272.75,9,0.75,Stimuli/P014/sun_bdgwqzttihopmpbf.jpg,0,0.0,0.0,0,121,121,121,,,,,,,,,,,,,272.00702210000054,0.007022100000540377,None,300.3313323000002,300.3313323000002,300.3313323000002,300.3313323000002,300.3313323000002,300.3313323000002,300.3313323000002,300.3313323000002,300.3313323000002,300.3313323000002,,006,P014,2025_Feb_28_1640,ConditionRich,2021.2.3,59.966274966493145,
272.75,276.0,41,0.0,Stimuli/Blank.png,0,0.0,0.0,0,122,122,122,,,,,,,,,,,,,272.7745066000007,0.02450660000067728,None,301.0819797999993,301.0819797999993,301.0819797999993,301.0819797999993,301.0819797999993,301.0819797999993,301.0819797999993,301.0819797999993,301.0819797999993,301.0819797999993,,006,P014,2025_Feb_28_1640,ConditionRich,2021.2.3,59.966274966493145,
276.0,292.0,0,0.0,Stimuli/Blank.png,1,1.0,1.75,0,123,123,123,,,,,,,,,,,,,276.0109381000002,0.010938100000203121,1,304.31816849999996,304.31816849999996,304.31816849999996,304.31816849999996,304.31816849999996,304.31816849999996,305.3023727,306.0530825000005,304.31816849999996,304.31816849999996,1.3236150000011548,006,P014,2025_Feb_28_1640,ConditionRich,2021.2.3,59.966274966493145,
292.0,292.75,21,0.75,Stimuli/P014/things_baby_07s.jpg,0,0.0,0.0,0,124,124,124,,,,,,,,,,,,,292.0088916000004,0.00889160000042466,None,320.33234939999966,320.33234939999966,320.33234939999966,320.33234939999966,320.33234939999966,320.33234939999966,320.33234939999966,320.33234939999966,320.33234939999966,320.33234939999966,,006,P014,2025_Feb_28_1640,ConditionRich,2021.2.3,59.966274966493145,
292.75,296.0,41,0.0,Stimuli/Blank.png,0,0.0,0.0,0,125,125,125,,,,,,,,,,,,,292.7752483999993,0.025248399999327376,None,321.0830206999999,321.0830206999999,321.0830206999999,321.0830206999999,321.0830206999999,321.0830206999999,321.0830206999999,321.0830206999999,321.0830206999999,321.0830206999999,,006,P014,2025_Feb_28_1640,ConditionRich,2021.2.3,59.966274966493145,
296.0,296.75,39,0.75,Stimuli/P014/things_violin_07n.jpg,0,0.0,0.0,0,126,126,126,,,,,,,,,,,,,296.01068040000064,0.010680400000637746,None,324.3191998000002,324.3191998000002,324.3191998000002,324.3191998000002,324.3191998000002,324.3191998000002,324.3191998000002,324.3191998000002,324.3191998000002,324.3191998000002,,006,P014,2025_Feb_28_1640,ConditionRich,2021.2.3,59.966274966493145,
296.75,300.0,41,0.0,Stimuli/Blank.png,0,0.0,0.0,0,127,127,127,,,,,,,,,,,,,296.7621818000007,0.012181800000689691,None,325.06987619999927,325.06987619999927,325.06987619999927,325.06987619999927,325.06987619999927,325.06987619999927,325.06987619999927,325.06987619999927,325.06987619999927,325.06987619999927,,006,P014,2025_Feb_28_1640,ConditionRich,2021.2.3,59.966274966493145,
300.0,300.75,35,0.75,Stimuli/P014/things_road_sign_07s.jpg,0,0.0,0.0,0,128,128,128,,,,,,,,,,,,,300.01486250000016,0.014862500000162981,None,328.32273969999915,328.32273969999915,328.32273969999915,328.32273969999915,328.32273969999915,328.32273969999915,328.32273969999915,328.32273969999915,328.32273969999915,328.32273969999915,,006,P014,2025_Feb_28_1640,ConditionRich,2021.2.3,59.966274966493145,
300.75,304.0,41,0.0,Stimuli/Blank.png,0,0.0,0.0,0,129,129,129,,,,,,,,,,,,,300.7650312000005,0.015031200000521494,None,329.0734097000004,329.0734097000004,329.0734097000004,329.0734097000004,329.0734097000004,329.0734097000004,329.0734097000004,329.0734097000004,329.0734097000004,329.0734097000004,,006,P014,2025_Feb_28_1640,ConditionRich,2021.2.3,59.966274966493145,
304.0,304.75,34,0.75,Stimuli/P014/things_radio_07s.jpg,0,0.0,0.0,0,130,130,130,,,,,,,,,,,,,304.0012282000007,0.0012282000006962335,None,332.32629889999953,332.32629889999953,332.32629889999953,332.32629889999953,332.32629889999953,332.32629889999953,332.32629889999953,332.32629889999953,332.32629889999953,332.32629889999953,,006,P014,2025_Feb_28_1640,ConditionRich,2021.2.3,59.966274966493145,
304.75,308.0,41,0.0,Stimuli/Blank.png,0,0.0,0.0,0,131,131,131,,,,,,,,,,,,,304.7684656000001,0.01846560000012687,None,333.07695179999973,333.07695179999973,333.07695179999973,333.07695179999973,333.07695179999973,333.07695179999973,333.07695179999973,333.07695179999973,333.07695179999973,333.07695179999973,,006,P014,2025_Feb_28_1640,ConditionRich,2021.2.3,59.966274966493145,
308.0,308.75,33,0.75,Stimuli/P014/things_piglet_07s.jpg,0,0.0,0.0,0,132,132,132,,,,,,,,,,,,,308.0055064999997,0.005506499999683001,None,336.3298419999992,336.3298419999992,336.3298419999992,336.3298419999992,336.3298419999992,336.3298419999992,336.3298419999992,336.3298419999992,336.3298419999992,336.3298419999992,,006,P014,2025_Feb_28_1640,ConditionRich,2021.2.3,59.966274966493145,
308.75,312.0,41,0.0,Stimuli/Blank.png,0,0.0,0.0,0,133,133,133,,,,,,,,,,,,,308.7740761999994,0.02407619999939925,None,337.0804988,337.0804988,337.0804988,337.0804988,337.0804988,337.0804988,337.0804988,337.0804988,337.0804988,337.0804988,,006,P014,2025_Feb_28_1640,ConditionRich,2021.2.3,59.966274966493145,
312.0,312.75,36,0.75,Stimuli/P014/things_seafood_07s.jpg,0,0.0,0.0,0,134,134,134,,,,,,,,,,,,,312.00854470000013,0.008544700000129524,None,340.3166901000004,340.3166901000004,340.3166901000004,340.3166901000004,340.3166901000004,340.3166901000004,340.3166901000004,340.3166901000004,340.3166901000004,340.3166901000004,,006,P014,2025_Feb_28_1640,ConditionRich,2021.2.3,59.966274966493145,
312.75,316.0,41,0.0,Stimuli/Blank.png,0,0.0,0.0,0,135,135,135,,,,,,,,,,,,,312.7596149000001,0.0096149000000878,None,341.06736830000045,341.06736830000045,341.06736830000045,341.06736830000045,341.06736830000045,341.06736830000045,341.06736830000045,341.06736830000045,341.06736830000045,341.06736830000045,,006,P014,2025_Feb_28_1640,ConditionRich,2021.2.3,59.966274966493145,
316.0,316.75,22,0.75,Stimuli/P014/things_banner_07s.jpg,0,0.0,0.0,0,136,136,136,,,,,,,,,,,,,316.0149445999996,0.014944599999580532,None,344.336938299999,344.336938299999,344.336938299999,344.336938299999,344.336938299999,344.336938299999,344.336938299999,344.336938299999,344.336938299999,344.336938299999,,006,P014,2025_Feb_28_1640,ConditionRich,2021.2.3,59.966274966493145,
316.75,320.0,41,0.0,Stimuli/Blank.png,0,0.0,0.0,0,137,137,137,,,,,,,,,,,,,316.77978900000016,0.02978900000016438,None,345.08759269999973,345.08759269999973,345.08759269999973,345.08759269999973,345.08759269999973,345.08759269999973,345.08759269999973,345.08759269999973,345.08759269999973,345.08759269999973,,006,P014,2025_Feb_28_1640,ConditionRich,2021.2.3,59.966274966493145,
320.0,320.75,16,0.75,Stimuli/P014/sun_bsgtkqjrnrvttrax.jpg,0,0.0,0.0,0,138,138,138,,,,,,,,,,,,,319.9996377999996,-0.00036220000038156286,None,348.30709229999957,348.30709229999957,348.30709229999957,348.30709229999957,348.30709229999957,348.30709229999957,348.30709229999957,348.30709229999957,348.30709229999957,348.30709229999957,,006,P014,2025_Feb_28_1640,ConditionRich,2021.2.3,59.966274966493145,
320.75,324.0,41,0.0,Stimuli/Blank.png,0,0.0,0.0,0,139,139,139,,,,,,,,,,,,,320.7493212999998,-0.0006787000002077548,None,349.0577680999995,349.0577680999995,349.0577680999995,349.0577680999995,349.0577680999995,349.0577680999995,349.0577680999995,349.0577680999995,349.0577680999995,349.0577680999995,,006,P014,2025_Feb_28_1640,ConditionRich,2021.2.3,59.966274966493145,
324.0,324.75,14,0.75,Stimuli/P014/sun_bqhfterhwnqrbnzg.jpg,0,0.0,0.0,0,140,140,140,,,,,,,,,,,,,324.00227350000023,0.0022735000002285233,None,352.32734789999995,352.32734789999995,352.32734789999995,352.32734789999995,352.32734789999995,352.32734789999995,352.32734789999995,352.32734789999995,352.32734789999995,352.32734789999995,,006,P014,2025_Feb_28_1640,ConditionRich,2021.2.3,59.966274966493145,
324.75,328.0,41,0.0,Stimuli/Blank.png,0,0.0,0.0,0,141,141,141,,,,,,,,,,,,,324.7700155000002,0.020015500000226893,None,353.0779994000004,353.0779994000004,353.0779994000004,353.0779994000004,353.0779994000004,353.0779994000004,353.0779994000004,353.0779994000004,353.0779994000004,353.0779994000004,,006,P014,2025_Feb_28_1640,ConditionRich,2021.2.3,59.966274966493145,
328.0,328.75,25,0.75,Stimuli/P014/things_cashew_07s.jpg,0,0.0,0.0,0,142,142,142,,,,,,,,,,,,,328.00595910000084,0.00595910000083677,None,356.31418459999986,356.31418459999986,356.31418459999986,356.31418459999986,356.31418459999986,356.31418459999986,356.31418459999986,356.31418459999986,356.31418459999986,356.31418459999986,,006,P014,2025_Feb_28_1640,ConditionRich,2021.2.3,59.966274966493145,
328.75,332.0,41,0.0,Stimuli/Blank.png,0,0.0,0.0,0,143,143,143,,,,,,,,,,,,,328.75653729999976,0.006537299999763491,None,357.06485109999994,357.06485109999994,357.06485109999994,357.06485109999994,357.06485109999994,357.06485109999994,357.06485109999994,357.06485109999994,357.06485109999994,357.06485109999994,,006,P014,2025_Feb_28_1640,ConditionRich,2021.2.3,59.966274966493145,
332.0,332.75,26,0.75,Stimuli/P014/things_cougar_07s.jpg,0,0.0,0.0,0,144,144,144,,,,,,,,,,,,,332.01148680000006,0.011486800000056974,None,360.33442119999927,360.33442119999927,360.33442119999927,360.33442119999927,360.33442119999927,360.33442119999927,360.33442119999927,360.33442119999927,360.33442119999927,360.33442119999927,,006,P014,2025_Feb_28_1640,ConditionRich,2021.2.3,59.966274966493145,
332.75,336.0,41,0.0,Stimuli/Blank.png,0,0.0,0.0,0,145,145,145,,,,,,,,,,,,,332.77761760000067,0.027617600000667153,None,361.08507239999926,361.08507239999926,361.08507239999926,361.08507239999926,361.08507239999926,361.08507239999926,361.08507239999926,361.08507239999926,361.08507239999926,361.08507239999926,,006,P014,2025_Feb_28_1640,ConditionRich,2021.2.3,59.966274966493145,
336.0,336.75,38,0.75,Stimuli/P014/things_spark_plug_07s.jpg,0,0.0,0.0,0,146,146,146,,,,,,,,,,,,,336.0159141000004,0.015914100000372855,None,364.3379690999991,364.3379690999991,364.3379690999991,364.3379690999991,364.3379690999991,364.3379690999991,364.3379690999991,364.3379690999991,364.3379690999991,364.3379690999991,,006,P014,2025_Feb_28_1640,ConditionRich,2021.2.3,59.966274966493145,
336.75,340.0,41,0.0,Stimuli/Blank.png,0,0.0,0.0,0,147,147,147,,,,,,,,,,,,,336.7642558999996,0.014255899999625399,None,365.0719522999989,365.0719522999989,365.0719522999989,365.0719522999989,365.0719522999989,365.0719522999989,365.0719522999989,365.0719522999989,365.0719522999989,365.0719522999989,,006,P014,2025_Feb_28_1640,ConditionRich,2021.2.3,59.966274966493145,
340.0,340.75,3,0.75,Stimuli/P014/sun_aengzsmykwchlrdn.jpg,0,0.0,0.0,0,148,148,148,,,,,,,,,,,,,340.0002017000006,0.00020170000061625615,None,368.3081433999996,368.3081433999996,368.3081433999996,368.3081433999996,368.3081433999996,368.3081433999996,368.3081433999996,368.3081433999996,368.3081433999996,368.3081433999996,,006,P014,2025_Feb_28_1640,ConditionRich,2021.2.3,59.966274966493145,
340.75,344.0,41,0.0,Stimuli/Blank.png,1,1.25,2.0,0,149,149,149,,,,,,,,,,,,,340.7512824000005,0.0012824000004911795,1,369.0587730999996,369.0587730999996,369.0587730999996,369.0587730999996,369.0587730999996,369.0587730999996,370.2932829000001,371.0438672,369.0587730999996,369.0587730999996,1.6440782000008767,006,P014,2025_Feb_28_1640,ConditionRich,2021.2.3,59.966274966493145,
344.0,344.75,15,0.75,Stimuli/P014/sun_brezwczwwllviogu.jpg,1,0.0,0.75,0,150,150,150,,,,,,,,,,,,,344.0036517999997,0.0036517999997158768,1,372.3116750999998,372.3116750999998,372.3116750999998,372.3116750999998,372.3116750999998,372.3116750999998,372.3116750999998,373.04572050000024,372.3116750999998,372.3116750999998,0.5822793000006641,006,P014,2025_Feb_28_1640,ConditionRich,2021.2.3,59.966274966493145,
344.75,348.0,41,0.0,Stimuli/Blank.png,0,0.0,0.0,0,151,151,151,,,,,,,,,,,,,344.7565875,0.006587500000023283,None,373.0790374999997,373.0790374999997,373.0790374999997,373.0790374999997,373.0790374999997,373.0790374999997,373.0790374999997,373.0790374999997,373.0790374999997,373.0790374999997,,006,P014,2025_Feb_28_1640,ConditionRich,2021.2.3,59.966274966493145,
348.0,348.75,20,0.75,Stimuli/P014/sun_cidodcxikcyrdglc.jpg,0,0.0,0.0,0,152,152,152,,,,,,,,,,,,,348.02468640000006,0.024686400000064168,None,376.3485896000002,376.3485896000002,376.3485896000002,376.3485896000002,376.3485896000002,376.3485896000002,376.3485896000002,376.3485896000002,376.3485896000002,376.3485896000002,,006,P014,2025_Feb_28_1640,ConditionRich,2021.2.3,59.966274966493145,
348.75,352.0,41,0.0,Stimuli/Blank.png,1,0.25,1.0,0,153,153,153,,,,,,,,,,,,,348.77497629999925,0.02497629999925266,1,377.0825652000003,377.0825652000003,377.0825652000003,377.0825652000003,377.0825652000003,377.0825652000003,377.3161390000005,378.0668019000004,377.0825652000003,377.0825652000003,0.6716644000007364,006,P014,2025_Feb_28_1640,ConditionRich,2021.2.3,59.966274966493145,
352.0,352.75,27,0.75,Stimuli/P014/things_face_07s.jpg,0,0.0,0.0,0,154,154,154,,,,,,,,,,,,,352.0108598000006,0.010859800000616815,None,380.31896589999997,380.31896589999997,380.31896589999997,380.31896589999997,380.31896589999997,380.31896589999997,380.31896589999997,380.31896589999997,380.31896589999997,380.31896589999997,,006,P014,2025_Feb_28_1640,ConditionRich,2021.2.3,59.966274966493145,
352.75,356.0,41,0.0,Stimuli/Blank.png,0,0.0,0.0,0,155,155,155,,,,,,,,,,,,,352.76172679999945,0.011726799999451032,None,381.06944870000007,381.06944870000007,381.06944870000007,381.06944870000007,381.06944870000007,381.06944870000007,381.06944870000007,381.06944870000007,381.06944870000007,381.06944870000007,,006,P014,2025_Feb_28_1640,ConditionRich,2021.2.3,59.966274966493145,
356.0,356.75,7,0.75,Stimuli/P014/sun_aojplsluiikxrfxc.jpg,1,0.0,0.75,0,156,156,156,,,,,,,,,,,,,356.01625969999986,0.016259699999864097,1,384.3390084999992,384.3390084999992,384.3390084999992,384.3390084999992,384.3390084999992,384.3390084999992,384.3390084999992,None,384.3390084999992,384.3390084999992,0.3589303999997355,006,P014,2025_Feb_28_1640,ConditionRich,2021.2.3,59.966274966493145,
356.75,360.0,41,0.0,Stimuli/Blank.png,0,0.0,0.0,0,157,157,157,,,,,,,,,,,,,356.76566119999916,0.01566119999915827,None,385.0729814999995,385.0729814999995,385.0729814999995,385.0729814999995,385.0729814999995,385.0729814999995,385.0729814999995,385.0729814999995,385.0729814999995,385.0729814999995,,006,P014,2025_Feb_28_1640,ConditionRich,2021.2.3,59.966274966493145,
360.0,360.75,31,0.75,Stimuli/P014/things_mask_07s.jpg,0,0.0,0.0,0,158,158,158,,,,,,,,,,,,,360.0021577999996,0.0021577999996225117,None,388.32586450000053,388.32586450000053,388.32586450000053,388.32586450000053,388.32586450000053,388.32586450000053,388.32586450000053,388.32586450000053,388.32586450000053,388.32586450000053,,006,P014,2025_Feb_28_1640,ConditionRich,2021.2.3,59.966274966493145,
360.75,364.0,41,0.0,Stimuli/Blank.png,0,0.0,0.0,0,159,159,159,,,,,,,,,,,,,360.7680588000003,0.01805880000028992,None,389.07651590000023,389.07651590000023,389.07651590000023,389.07651590000023,389.07651590000023,389.07651590000023,389.07651590000023,389.07651590000023,389.07651590000023,389.07651590000023,,006,P014,2025_Feb_28_1640,ConditionRich,2021.2.3,59.966274966493145,
364.0,364.75,19,0.75,Stimuli/P014/sun_buphlelowxjnoygy.jpg,1,0.0,0.75,0,160,160,160,,,,,,,,,,,,,364.00750739999967,0.007507399999667541,1,392.32942899999944,392.32942899999944,392.32942899999944,392.32942899999944,392.32942899999944,392.32942899999944,392.32942899999944,393.06338139999934,392.32942899999944,392.32942899999944,0.4235002999994322,006,P014,2025_Feb_28_1640,ConditionRich,2021.2.3,59.966274966493145,
364.75,368.0,41,0.0,Stimuli/Blank.png,0,0.0,0.0,0,161,161,161,,,,,,,,,,,,,364.77180170000065,0.02180170000065118,None,393.0800643999992,393.0800643999992,393.0800643999992,393.0800643999992,393.0800643999992,393.0800643999992,393.0800643999992,393.0800643999992,393.0800643999992,393.0800643999992,,006,P014,2025_Feb_28_1640,ConditionRich,2021.2.3,59.966274966493145,
368.0,368.75,13,0.75,Stimuli/P014/sun_bpccpwpohfirajtf.jpg,0,0.0,0.0,0,162,162,162,,,,,,,,,,,,,368.00794359999963,0.007943599999634898,None,396.31626789999973,396.31626789999973,396.31626789999973,396.31626789999973,396.31626789999973,396.31626789999973,396.31626789999973,396.31626789999973,396.31626789999973,396.31626789999973,,006,P014,2025_Feb_28_1640,ConditionRich,2021.2.3,59.966274966493145,
368.75,372.0,41,0.0,Stimuli/Blank.png,0,0.0,0.0,0,163,163,163,,,,,,,,,,,,,368.7596040999997,0.009604099999705795,None,397.06692889999977,397.06692889999977,397.06692889999977,397.06692889999977,397.06692889999977,397.06692889999977,397.06692889999977,397.06692889999977,397.06692889999977,397.06692889999977,,006,P014,2025_Feb_28_1640,ConditionRich,2021.2.3,59.966274966493145,
372.0,388.0,0,0.0,Stimuli/Blank.png,1,8.0,8.75,0,164,164,164,,,,,,,,,,,,,372.01163649999944,0.011636499999440275,1,400.31985559999885,400.31985559999885,400.31985559999885,400.31985559999885,400.31985559999885,400.31985559999885,408.31025210000007,409.0609652999992,400.31985559999885,400.31985559999885,8.377057600000626,006,P014,2025_Feb_28_1640,ConditionRich,2021.2.3,59.966274966493145,
