eventStartTime,eventEndTime,eventCond,imSize,imFile,responseEvent,fixRespStart,fixRespEnd,Events.thisRepN,Events.thisTrialN,Events.thisN,Events.thisIndex,Instructions.started,Instructions.stopped,participantReadyResponse.keys,participantReadyResponse.rt,participantReadyResponse.started,participantReadyResponse.stopped,startWaitforTrigger,triggerResponse.keys,triggerResponse.rt,triggerResponse.started,triggerResponse.stopped,globalTimer,actualStartTime,startTimingDiff,participantResponse.keys,participantResponse.started,participantResponse.stopped,image.started,image.stopped,fixationOutside.started,fixationOutside.stopped,fixationResponse.started,fixationResponse.stopped,fixationInside.started,fixationInside.stopped,participantResponse.rt,session,participant,date,expName,psychopyVersion,frameRate,
,,,,,,,,,,,,13.363866099998631,None,1,4.463896699999168,13.363866099998631,None,,,,,,,,,,,,,,,,,,,,,008,P014,2025_Feb_28_1701,ConditionRich,2021.2.3,59.93177366847753,
,,,,,,,,,,,,,,,,,,17.836699499999668,5,16.143662000000404,17.84920559999955,None,,,,,,,,,,,,,,,,008,P014,2025_Feb_28_1701,ConditionRich,2021.2.3,59.93177366847753,
0.0,4.0,0,0.0,Stimuli/Blank.png,0,0,0.0,0,0,0,0,,,,,,,,,,,,34.00022209999952,0.03573300000061863,0.03573300000061863,None,34.063559399999576,None,34.063559399999576,None,34.063559399999576,None,34.063559399999576,34.063559399999576,34.063559399999576,None,,008,P014,2025_Feb_28_1701,ConditionRich,2021.2.3,59.93177366847753,
4.0,7.75,3,0.75,Stimuli/P014/sun_aengzsmykwchlrdn.jpg,1,3,3.75,0,1,1,1,,,,,,,,,,,,,4.0207076000006055,0.020707600000605453,1,38.050704100000075,38.050704100000075,38.050704100000075,38.050704100000075,38.050704100000075,38.050704100000075,41.01972169999863,41.77039100000002,38.050704100000075,38.050704100000075,3.3721273000010115,008,P014,2025_Feb_28_1701,ConditionRich,2021.2.3,59.93177366847753,
7.75,8.0,41,0.0,Stimuli/Blank.png,0,0,0.0,0,2,2,2,,,,,,,,,,,,,7.772480899999209,0.022480899999209214,None,41.787349999998696,41.787349999998696,41.787349999998696,41.787349999998696,41.787349999998696,41.787349999998696,41.787349999998696,41.787349999998696,41.787349999998696,41.787349999998696,,008,P014,2025_Feb_28_1701,ConditionRich,2021.2.3,59.93177366847753,
8.0,11.75,29,0.75,Stimuli/P014/things_iguana_07s.jpg,0,0,0.0,0,3,3,3,,,,,,,,,,,,,8.00632349999978,0.006323499999780324,None,42.02060089999941,42.02060089999941,42.02060089999941,42.02060089999941,42.02060089999941,42.02060089999941,42.02060089999941,42.02060089999941,42.02060089999941,42.02060089999941,,008,P014,2025_Feb_28_1701,ConditionRich,2021.2.3,59.93177366847753,
11.75,12.0,41,0.0,Stimuli/Blank.png,0,0,0.0,0,4,4,4,,,,,,,,,,,,,11.759093000000576,0.009093000000575557,None,45.77392289999989,45.77392289999989,45.77392289999989,45.77392289999989,45.77392289999989,45.77392289999989,45.77392289999989,45.77392289999989,45.77392289999989,45.77392289999989,,008,P014,2025_Feb_28_1701,ConditionRich,2021.2.3,59.93177366847753,
12.0,15.75,39,0.75,Stimuli/P014/things_violin_07n.jpg,0,0,0.0,0,5,5,5,,,,,,,,,,,,,12.009993800000302,0.009993800000302144,None,46.04082869999911,46.04082869999911,46.04082869999911,46.04082869999911,46.04082869999911,46.04082869999911,46.04082869999911,46.04082869999911,46.04082869999911,46.04082869999911,,008,P014,2025_Feb_28_1701,ConditionRich,2021.2.3,59.93177366847753,
15.75,16.0,41,0.0,Stimuli/Blank.png,0,0,0.0,0,6,6,6,,,,,,,,,,,,,15.779287699999259,0.02928769999925862,None,49.79415699999845,49.79415699999845,49.79415699999845,49.79415699999845,49.79415699999845,49.79415699999845,49.79415699999845,49.79415699999845,49.79415699999845,49.79415699999845,,008,P014,2025_Feb_28_1701,ConditionRich,2021.2.3,59.93177366847753,
16.0,19.75,33,0.75,Stimuli/P014/things_piglet_07s.jpg,1,1,1.75,0,7,7,7,,,,,,,,,,,,,16.012878399998954,0.012878399998953682,1,50.0276834999986,50.0276834999986,50.0276834999986,50.0276834999986,50.0276834999986,50.0276834999986,51.01186969999981,51.76257629999964,50.0276834999986,50.0276834999986,1.3404234000008728,008,P014,2025_Feb_28_1701,ConditionRich,2021.2.3,59.93177366847753,
19.75,20.0,41,0.0,Stimuli/Blank.png,0,0,0.0,0,8,8,8,,,,,,,,,,,,,19.74970349999967,-0.0002965000003314344,None,53.76432239999849,53.76432239999849,53.76432239999849,53.76432239999849,53.76432239999849,53.76432239999849,53.76432239999849,53.76432239999849,53.76432239999849,53.76432239999849,,008,P014,2025_Feb_28_1701,ConditionRich,2021.2.3,59.93177366847753,
20.0,23.75,15,0.75,Stimuli/P014/sun_brezwczwwllviogu.jpg,0,0,0.0,0,9,9,9,,,,,,,,,,,,,20.00053630000002,0.0005363000000215834,None,54.031238999999914,54.031238999999914,54.031238999999914,54.031238999999914,54.031238999999914,54.031238999999914,54.031238999999914,54.031238999999914,54.031238999999914,54.031238999999914,,008,P014,2025_Feb_28_1701,ConditionRich,2021.2.3,59.93177366847753,
23.75,24.0,41,0.0,Stimuli/Blank.png,0,0,0.0,0,10,10,10,,,,,,,,,,,,,23.769679900000483,0.01967990000048303,None,57.78455659999963,57.78455659999963,57.78455659999963,57.78455659999963,57.78455659999963,57.78455659999963,57.78455659999963,57.78455659999963,57.78455659999963,57.78455659999963,,008,P014,2025_Feb_28_1701,ConditionRich,2021.2.3,59.93177366847753,
24.0,27.75,4,0.75,Stimuli/P014/sun_afgoiykvchxqotyz.jpg,0,0,0.0,0,11,11,11,,,,,,,,,,,,,24.00400400000035,0.004004000000350061,None,58.0347757999989,58.0347757999989,58.0347757999989,58.0347757999989,58.0347757999989,58.0347757999989,58.0347757999989,58.0347757999989,58.0347757999989,58.0347757999989,,008,P014,2025_Feb_28_1701,ConditionRich,2021.2.3,59.93177366847753,
27.75,28.0,41,0.0,Stimuli/Blank.png,0,0,0.0,0,12,12,12,,,,,,,,,,,,,27.774158599999282,0.02415859999928216,None,61.788130699998874,61.788130699998874,61.788130699998874,61.788130699998874,61.788130699998874,61.788130699998874,61.788130699998874,61.788130699998874,61.788130699998874,61.788130699998874,,008,P014,2025_Feb_28_1701,ConditionRich,2021.2.3,59.93177366847753,
28.0,31.75,26,0.75,Stimuli/P014/things_cougar_07s.jpg,1,2,2.75,0,13,13,13,,,,,,,,,,,,,28.008151199999702,0.00815119999970193,1,62.03879159999997,62.03879159999997,62.03879159999997,62.03879159999997,62.03879159999997,62.03879159999997,64.00667739999881,64.75738180000008,62.03879159999997,62.03879159999997,2.397166799999468,008,P014,2025_Feb_28_1701,ConditionRich,2021.2.3,59.93177366847753,
31.75,32.0,41,0.0,Stimuli/Blank.png,0,0,0.0,0,14,14,14,,,,,,,,,,,,,31.779246000000057,0.029246000000057393,None,65.80832829999963,65.80832829999963,65.80832829999963,65.80832829999963,65.80832829999963,65.80832829999963,65.80832829999963,65.80832829999963,65.80832829999963,65.80832829999963,,008,P014,2025_Feb_28_1701,ConditionRich,2021.2.3,59.93177366847753,
32.0,35.75,18,0.75,Stimuli/P014/sun_btohwudpiusfvpvl.jpg,0,0,0.0,0,15,15,15,,,,,,,,,,,,,32.029056199999104,0.029056199999104138,None,66.05854509999881,66.05854509999881,66.05854509999881,66.05854509999881,66.05854509999881,66.05854509999881,66.05854509999881,66.05854509999881,66.05854509999881,66.05854509999881,,008,P014,2025_Feb_28_1701,ConditionRich,2021.2.3,59.93177366847753,
35.75,36.0,41,0.0,Stimuli/Blank.png,0,0,0.0,0,16,16,16,,,,,,,,,,,,,35.7645962000006,0.014596200000596582,None,69.7785015999998,69.7785015999998,69.7785015999998,69.7785015999998,69.7785015999998,69.7785015999998,69.7785015999998,69.7785015999998,69.7785015999998,69.7785015999998,,008,P014,2025_Feb_28_1701,ConditionRich,2021.2.3,59.93177366847753,
36.0,39.75,1,0.75,Stimuli/P014/sun_adkmgqclfrkhfxbd.jpg,0,0,0.0,0,17,17,17,,,,,,,,,,,,,36.01402009999947,0.014020099999470403,None,70.02873050000017,70.02873050000017,70.02873050000017,70.02873050000017,70.02873050000017,70.02873050000017,70.02873050000017,70.02873050000017,70.02873050000017,70.02873050000017,,008,P014,2025_Feb_28_1701,ConditionRich,2021.2.3,59.93177366847753,
39.75,40.0,41,0.0,Stimuli/Blank.png,0,0,0.0,0,18,18,18,,,,,,,,,,,,,39.75059479999982,0.0005947999998170417,None,73.76540469999964,73.76540469999964,73.76540469999964,73.76540469999964,73.76540469999964,73.76540469999964,73.76540469999964,73.76540469999964,73.76540469999964,73.76540469999964,,008,P014,2025_Feb_28_1701,ConditionRich,2021.2.3,59.93177366847753,
40.0,43.75,38,0.75,Stimuli/P014/things_spark_plug_07s.jpg,1,0,0.75,0,19,19,19,,,,,,,,,,,,,40.00365109999984,0.0036510999998426996,1,74.03227100000004,74.03227100000004,74.03227100000004,74.03227100000004,74.03227100000004,74.03227100000004,74.03227100000004,74.76634789999844,74.03227100000004,74.03227100000004,0.36959419999948295,008,P014,2025_Feb_28_1701,ConditionRich,2021.2.3,59.93177366847753,
43.75,44.0,41,0.0,Stimuli/Blank.png,0,0,0.0,0,20,20,20,,,,,,,,,,,,,43.77080670000032,0.020806700000321143,None,77.78560759999891,77.78560759999891,77.78560759999891,77.78560759999891,77.78560759999891,77.78560759999891,77.78560759999891,77.78560759999891,77.78560759999891,77.78560759999891,,008,P014,2025_Feb_28_1701,ConditionRich,2021.2.3,59.93177366847753,
44.0,47.75,28,0.75,Stimuli/P014/things_girl_07s.jpg,0,0,0.0,0,21,21,21,,,,,,,,,,,,,44.00445149999905,0.004451499999049702,None,78.01908159999948,78.01908159999948,78.01908159999948,78.01908159999948,78.01908159999948,78.01908159999948,78.01908159999948,78.01908159999948,78.01908159999948,78.01908159999948,,008,P014,2025_Feb_28_1701,ConditionRich,2021.2.3,59.93177366847753,
47.75,48.0,41,0.0,Stimuli/Blank.png,0,0,0.0,0,22,22,22,,,,,,,,,,,,,47.758298799999466,0.0082987999994657,None,81.77243189999899,81.77243189999899,81.77243189999899,81.77243189999899,81.77243189999899,81.77243189999899,81.77243189999899,81.77243189999899,81.77243189999899,81.77243189999899,,008,P014,2025_Feb_28_1701,ConditionRich,2021.2.3,59.93177366847753,
48.0,51.75,12,0.75,Stimuli/P014/sun_bjyrrxiwsnbmkbqs.jpg,0,0,0.0,0,23,23,23,,,,,,,,,,,,,48.007927599999675,0.007927599999675294,None,82.02266299999974,82.02266299999974,82.02266299999974,82.02266299999974,82.02266299999974,82.02266299999974,82.02266299999974,82.02266299999974,82.02266299999974,82.02266299999974,,008,P014,2025_Feb_28_1701,ConditionRich,2021.2.3,59.93177366847753,
51.75,52.0,41,0.0,Stimuli/Blank.png,0,0,0.0,0,24,24,24,,,,,,,,,,,,,51.76211030000013,0.012110300000131247,None,85.77600100000018,85.77600100000018,85.77600100000018,85.77600100000018,85.77600100000018,85.77600100000018,85.77600100000018,85.77600100000018,85.77600100000018,85.77600100000018,,008,P014,2025_Feb_28_1701,ConditionRich,2021.2.3,59.93177366847753,
52.0,55.75,37,0.75,Stimuli/P014/things_slug_07s.jpg,0,0,0.0,0,25,25,25,,,,,,,,,,,,,52.01138960000026,0.011389600000256905,None,86.02620409999872,86.02620409999872,86.02620409999872,86.02620409999872,86.02620409999872,86.02620409999872,86.02620409999872,86.02620409999872,86.02620409999872,86.02620409999872,,008,P014,2025_Feb_28_1701,ConditionRich,2021.2.3,59.93177366847753,
55.75,56.0,41,0.0,Stimuli/Blank.png,0,0,0.0,0,26,26,26,,,,,,,,,,,,,55.766958899999736,0.016958899999735877,None,89.79622349999954,89.79622349999954,89.79622349999954,89.79622349999954,89.79622349999954,89.79622349999954,89.79622349999954,89.79622349999954,89.79622349999954,89.79622349999954,,008,P014,2025_Feb_28_1701,ConditionRich,2021.2.3,59.93177366847753,
56.0,59.75,30,0.75,Stimuli/P014/things_man_07s.jpg,0,0,0.0,0,27,27,27,,,,,,,,,,,,,56.017776499998945,0.017776499998944928,None,90.04644670000016,90.04644670000016,90.04644670000016,90.04644670000016,90.04644670000016,90.04644670000016,90.04644670000016,90.04644670000016,90.04644670000016,90.04644670000016,,008,P014,2025_Feb_28_1701,ConditionRich,2021.2.3,59.93177366847753,
59.75,60.0,41,0.0,Stimuli/Blank.png,0,0,0.0,0,28,28,28,,,,,,,,,,,,,59.769085100000666,0.01908510000066599,None,93.78308239999933,93.78308239999933,93.78308239999933,93.78308239999933,93.78308239999933,93.78308239999933,93.78308239999933,93.78308239999933,93.78308239999933,93.78308239999933,,008,P014,2025_Feb_28_1701,ConditionRich,2021.2.3,59.93177366847753,
60.0,63.75,27,0.75,Stimuli/P014/things_face_07s.jpg,0,0,0.0,0,29,29,29,,,,,,,,,,,,,60.00314419999995,0.0031441999999515247,None,94.03331249999974,94.03331249999974,94.03331249999974,94.03331249999974,94.03331249999974,94.03331249999974,94.03331249999974,94.03331249999974,94.03331249999974,94.03331249999974,,008,P014,2025_Feb_28_1701,ConditionRich,2021.2.3,59.93177366847753,
63.75,64.0,41,0.0,Stimuli/Blank.png,0,0,0.0,0,30,30,30,,,,,,,,,,,,,63.77450300000055,0.024503000000549946,None,97.80331509999996,97.80331509999996,97.80331509999996,97.80331509999996,97.80331509999996,97.80331509999996,97.80331509999996,97.80331509999996,97.80331509999996,97.80331509999996,,008,P014,2025_Feb_28_1701,ConditionRich,2021.2.3,59.93177366847753,
64.0,67.75,16,0.75,Stimuli/P014/sun_bsgtkqjrnrvttrax.jpg,0,0,0.0,0,31,31,31,,,,,,,,,,,,,64.02331839999897,0.023318399998970563,None,98.05352379999931,98.05352379999931,98.05352379999931,98.05352379999931,98.05352379999931,98.05352379999931,98.05352379999931,98.05352379999931,98.05352379999931,98.05352379999931,,008,P014,2025_Feb_28_1701,ConditionRich,2021.2.3,59.93177366847753,
67.75,68.0,41,0.0,Stimuli/Blank.png,0,0,0.0,0,32,32,32,,,,,,,,,,,,,67.77540719999888,0.02540719999888097,None,101.79015449999861,101.79015449999861,101.79015449999861,101.79015449999861,101.79015449999861,101.79015449999861,101.79015449999861,101.79015449999861,101.79015449999861,101.79015449999861,,008,P014,2025_Feb_28_1701,ConditionRich,2021.2.3,59.93177366847753,
68.0,71.75,9,0.75,Stimuli/P014/sun_bdgwqzttihopmpbf.jpg,0,0,0.0,0,33,33,33,,,,,,,,,,,,,68.0094036999999,0.009403699999893433,None,102.02369819999876,102.02369819999876,102.02369819999876,102.02369819999876,102.02369819999876,102.02369819999876,102.02369819999876,102.02369819999876,102.02369819999876,102.02369819999876,,008,P014,2025_Feb_28_1701,ConditionRich,2021.2.3,59.93177366847753,
71.75,72.0,41,0.0,Stimuli/Blank.png,0,0,0.0,0,34,34,34,,,,,,,,,,,,,71.76232189999973,0.012321899999733432,None,105.77701739999975,105.77701739999975,105.77701739999975,105.77701739999975,105.77701739999975,105.77701739999975,105.77701739999975,105.77701739999975,105.77701739999975,105.77701739999975,,008,P014,2025_Feb_28_1701,ConditionRich,2021.2.3,59.93177366847753,
72.0,75.75,6,0.75,Stimuli/P014/sun_aoejkkmwkfegacni.jpg,0,0,0.0,0,35,35,35,,,,,,,,,,,,,72.01266659999965,0.012666599999647588,None,106.02724279999893,106.02724279999893,106.02724279999893,106.02724279999893,106.02724279999893,106.02724279999893,106.02724279999893,106.02724279999893,106.02724279999893,106.02724279999893,,008,P014,2025_Feb_28_1701,ConditionRich,2021.2.3,59.93177366847753,
75.75,76.0,41,0.0,Stimuli/Blank.png,0,0,0.0,0,36,36,36,,,,,,,,,,,,,75.75154049999946,0.001540499999464373,None,109.78058579999924,109.78058579999924,109.78058579999924,109.78058579999924,109.78058579999924,109.78058579999924,109.78058579999924,109.78058579999924,109.78058579999924,109.78058579999924,,008,P014,2025_Feb_28_1701,ConditionRich,2021.2.3,59.93177366847753,
76.0,79.75,25,0.75,Stimuli/P014/things_cashew_07s.jpg,1,0,0.75,0,37,37,37,,,,,,,,,,,,,76.01634509999894,0.016345099998943624,1,110.03080249999948,110.03080249999948,110.03080249999948,110.03080249999948,110.03080249999948,110.03080249999948,110.03080249999948,110.76499119999971,110.03080249999948,110.03080249999948,0.39008929999909014,008,P014,2025_Feb_28_1701,ConditionRich,2021.2.3,59.93177366847753,
79.75,80.0,41,0.0,Stimuli/Blank.png,0,0,0.0,0,38,38,38,,,,,,,,,,,,,79.75289539999903,0.0028953999990335433,None,113.76742670000021,113.76742670000021,113.76742670000021,113.76742670000021,113.76742670000021,113.76742670000021,113.76742670000021,113.76742670000021,113.76742670000021,113.76742670000021,,008,P014,2025_Feb_28_1701,ConditionRich,2021.2.3,59.93177366847753,
80.0,83.75,20,0.75,Stimuli/P014/sun_cidodcxikcyrdglc.jpg,0,0,0.0,0,39,39,39,,,,,,,,,,,,,80.00296890000027,0.002968900000269059,None,114.01764550000007,114.01764550000007,114.01764550000007,114.01764550000007,114.01764550000007,114.01764550000007,114.01764550000007,114.01764550000007,114.01764550000007,114.01764550000007,,008,P014,2025_Feb_28_1701,ConditionRich,2021.2.3,59.93177366847753,
83.75,84.0,41,0.0,Stimuli/Blank.png,0,0,0.0,0,40,40,40,,,,,,,,,,,,,83.75692639999943,0.0069263999994291225,None,117.77098339999975,117.77098339999975,117.77098339999975,117.77098339999975,117.77098339999975,117.77098339999975,117.77098339999975,117.77098339999975,117.77098339999975,117.77098339999975,,008,P014,2025_Feb_28_1701,ConditionRich,2021.2.3,59.93177366847753,
84.0,100.0,0,0.0,Stimuli/Blank.png,1,3,3.75,0,41,41,41,,,,,,,,,,,,,84.00696299999981,0.006962999999814201,1,118.02118879999944,118.02118879999944,118.02118879999944,118.02118879999944,118.02118879999944,118.02118879999944,121.00725079999938,121.75782929999878,118.02118879999944,118.02118879999944,3.333662799999729,008,P014,2025_Feb_28_1701,ConditionRich,2021.2.3,59.93177366847753,
100.0,103.75,10,0.75,Stimuli/P014/sun_bdhxnzyleoiflyak.jpg,0,0,0.0,0,42,42,42,,,,,,,,,,,,,100.00568749999911,0.005687499999112333,None,134.03537739999956,134.03537739999956,134.03537739999956,134.03537739999956,134.03537739999956,134.03537739999956,134.03537739999956,134.03537739999956,134.03537739999956,134.03537739999956,,008,P014,2025_Feb_28_1701,ConditionRich,2021.2.3,59.93177366847753,
103.75,104.0,41,0.0,Stimuli/Blank.png,0,0,0.0,0,43,43,43,,,,,,,,,,,,,103.77470999999969,0.02470999999968626,None,137.7886512999994,137.7886512999994,137.7886512999994,137.7886512999994,137.7886512999994,137.7886512999994,137.7886512999994,137.7886512999994,137.7886512999994,137.7886512999994,,008,P014,2025_Feb_28_1701,ConditionRich,2021.2.3,59.93177366847753,
104.0,107.75,22,0.75,Stimuli/P014/things_banner_07s.jpg,0,0,0.0,0,44,44,44,,,,,,,,,,,,,104.00739079999948,0.007390799999484443,None,138.02222829999846,138.02222829999846,138.02222829999846,138.02222829999846,138.02222829999846,138.02222829999846,138.02222829999846,138.02222829999846,138.02222829999846,138.02222829999846,,008,P014,2025_Feb_28_1701,ConditionRich,2021.2.3,59.93177366847753,
107.75,108.0,41,0.0,Stimuli/Blank.png,0,0,0.0,0,45,45,45,,,,,,,,,,,,,107.76266550000037,0.012665500000366592,None,141.79223119999915,141.79223119999915,141.79223119999915,141.79223119999915,141.79223119999915,141.79223119999915,141.79223119999915,141.79223119999915,141.79223119999915,141.79223119999915,,008,P014,2025_Feb_28_1701,ConditionRich,2021.2.3,59.93177366847753,
108.0,111.75,21,0.75,Stimuli/P014/things_baby_07s.jpg,0,0,0.0,0,46,46,46,,,,,,,,,,,,,108.02842419999979,0.02842419999979029,None,142.04246779999994,142.04246779999994,142.04246779999994,142.04246779999994,142.04246779999994,142.04246779999994,142.04246779999994,142.04246779999994,142.04246779999994,142.04246779999994,,008,P014,2025_Feb_28_1701,ConditionRich,2021.2.3,59.93177366847753,
111.75,112.0,41,0.0,Stimuli/Blank.png,0,0,0.0,0,47,47,47,,,,,,,,,,,,,111.76505799999904,0.015057999999044114,None,145.77908620000017,145.77908620000017,145.77908620000017,145.77908620000017,145.77908620000017,145.77908620000017,145.77908620000017,145.77908620000017,145.77908620000017,145.77908620000017,,008,P014,2025_Feb_28_1701,ConditionRich,2021.2.3,59.93177366847753,
112.0,115.75,36,0.75,Stimuli/P014/things_seafood_07s.jpg,0,0,0.0,0,48,48,48,,,,,,,,,,,,,112.0154134000004,0.015413400000397814,None,146.02932340000007,146.02932340000007,146.02932340000007,146.02932340000007,146.02932340000007,146.02932340000007,146.02932340000007,146.02932340000007,146.02932340000007,146.02932340000007,,008,P014,2025_Feb_28_1701,ConditionRich,2021.2.3,59.93177366847753,
115.75,116.0,41,0.0,Stimuli/Blank.png,0,0,0.0,0,49,49,49,,,,,,,,,,,,,115.75170869999965,0.0017086999996536179,None,149.76594849999856,149.76594849999856,149.76594849999856,149.76594849999856,149.76594849999856,149.76594849999856,149.76594849999856,149.76594849999856,149.76594849999856,149.76594849999856,,008,P014,2025_Feb_28_1701,ConditionRich,2021.2.3,59.93177366847753,
116.0,119.75,5,0.75,Stimuli/P014/sun_aidrxvbfhxtsusrf.jpg,1,3,3.75,0,50,50,50,,,,,,,,,,,,,116.00235459999931,0.0023545999993075384,1,150.01617189999888,150.01617189999888,150.01617189999888,150.01617189999888,150.01617189999888,150.01617189999888,153.00215099999878,153.75290239999958,150.01617189999888,150.01617189999888,3.377973700000439,008,P014,2025_Feb_28_1701,ConditionRich,2021.2.3,59.93177366847753,
119.75,120.0,41,0.0,Stimuli/Blank.png,0,0,0.0,0,51,51,51,,,,,,,,,,,,,119.75717939999959,0.007179399999586167,None,153.78620149999915,153.78620149999915,153.78620149999915,153.78620149999915,153.78620149999915,153.78620149999915,153.78620149999915,153.78620149999915,153.78620149999915,153.78620149999915,,008,P014,2025_Feb_28_1701,ConditionRich,2021.2.3,59.93177366847753,
120.0,123.75,11,0.75,Stimuli/P014/sun_bfyxzbjsvqsobbky.jpg,0,0,0.0,0,52,52,52,,,,,,,,,,,,,120.02248089999921,0.022480899999209214,None,154.03638969999884,154.03638969999884,154.03638969999884,154.03638969999884,154.03638969999884,154.03638969999884,154.03638969999884,154.03638969999884,154.03638969999884,154.03638969999884,,008,P014,2025_Feb_28_1701,ConditionRich,2021.2.3,59.93177366847753,
123.75,124.0,41,0.0,Stimuli/Blank.png,0,0,0.0,0,53,53,53,,,,,,,,,,,,,123.75876339999922,0.00876339999922493,None,157.77303129999927,157.77303129999927,157.77303129999927,157.77303129999927,157.77303129999927,157.77303129999927,157.77303129999927,157.77303129999927,157.77303129999927,157.77303129999927,,008,P014,2025_Feb_28_1701,ConditionRich,2021.2.3,59.93177366847753,
124.0,127.75,19,0.75,Stimuli/P014/sun_buphlelowxjnoygy.jpg,0,0,0.0,0,54,54,54,,,,,,,,,,,,,124.0085784999992,0.008578499999202904,None,158.0232621999985,158.0232621999985,158.0232621999985,158.0232621999985,158.0232621999985,158.0232621999985,158.0232621999985,158.0232621999985,158.0232621999985,158.0232621999985,,008,P014,2025_Feb_28_1701,ConditionRich,2021.2.3,59.93177366847753,
127.75,128.0,41,0.0,Stimuli/Blank.png,0,0,0.0,0,55,55,55,,,,,,,,,,,,,127.76236380000046,0.012363800000457559,None,161.7765961999994,161.7765961999994,161.7765961999994,161.7765961999994,161.7765961999994,161.7765961999994,161.7765961999994,161.7765961999994,161.7765961999994,161.7765961999994,,008,P014,2025_Feb_28_1701,ConditionRich,2021.2.3,59.93177366847753,
128.0,131.75,40,0.75,Stimuli/P014/things_woman_07s.jpg,0,0,0.0,0,56,56,56,,,,,,,,,,,,,128.01221369999985,0.01221369999984745,None,162.02679709999938,162.02679709999938,162.02679709999938,162.02679709999938,162.02679709999938,162.02679709999938,162.02679709999938,162.02679709999938,162.02679709999938,162.02679709999938,,008,P014,2025_Feb_28_1701,ConditionRich,2021.2.3,59.93177366847753,
131.75,132.0,41,0.0,Stimuli/Blank.png,0,0,0.0,0,57,57,57,,,,,,,,,,,,,131.7660238999997,0.0160238999997091,None,165.7801256999992,165.7801256999992,165.7801256999992,165.7801256999992,165.7801256999992,165.7801256999992,165.7801256999992,165.7801256999992,165.7801256999992,165.7801256999992,,008,P014,2025_Feb_28_1701,ConditionRich,2021.2.3,59.93177366847753,
132.0,135.75,31,0.75,Stimuli/P014/things_mask_07s.jpg,0,0,0.0,0,58,58,58,,,,,,,,,,,,,132.00195429999985,0.0019542999998520827,None,166.0303428999996,166.0303428999996,166.0303428999996,166.0303428999996,166.0303428999996,166.0303428999996,166.0303428999996,166.0303428999996,166.0303428999996,166.0303428999996,,008,P014,2025_Feb_28_1701,ConditionRich,2021.2.3,59.93177366847753,
135.75,136.0,41,0.0,Stimuli/Blank.png,0,0,0.0,0,59,59,59,,,,,,,,,,,,,135.76875130000008,0.0187513000000763,None,169.78366039999855,169.78366039999855,169.78366039999855,169.78366039999855,169.78366039999855,169.78366039999855,169.78366039999855,169.78366039999855,169.78366039999855,169.78366039999855,,008,P014,2025_Feb_28_1701,ConditionRich,2021.2.3,59.93177366847753,
136.0,139.75,8,0.75,Stimuli/P014/sun_auqrilekgmdmrncq.jpg,0,0,0.0,0,60,60,60,,,,,,,,,,,,,136.00373079999918,0.0037307999991753604,None,170.03388799999993,170.03388799999993,170.03388799999993,170.03388799999993,170.03388799999993,170.03388799999993,170.03388799999993,170.03388799999993,170.03388799999993,170.03388799999993,,008,P014,2025_Feb_28_1701,ConditionRich,2021.2.3,59.93177366847753,
139.75,140.0,41,0.0,Stimuli/Blank.png,0,0,0.0,0,61,61,61,,,,,,,,,,,,,139.77483260000008,0.024832600000081584,None,173.80390420000003,173.80390420000003,173.80390420000003,173.80390420000003,173.80390420000003,173.80390420000003,173.80390420000003,173.80390420000003,173.80390420000003,173.80390420000003,,008,P014,2025_Feb_28_1701,ConditionRich,2021.2.3,59.93177366847753,
140.0,143.75,14,0.75,Stimuli/P014/sun_bqhfterhwnqrbnzg.jpg,1,3,3.75,0,62,62,62,,,,,,,,,,,,,140.02368869999918,0.023688699999183882,1,174.03743329999998,174.03743329999998,174.03743329999998,174.03743329999998,174.03743329999998,174.03743329999998,177.02340379999987,None,174.03743329999998,174.03743329999998,3.529548900000009,008,P014,2025_Feb_28_1701,ConditionRich,2021.2.3,59.93177366847753,
143.75,144.0,41,0.0,Stimuli/Blank.png,0,0,0.0,0,63,63,63,,,,,,,,,,,,,143.76007290000052,0.010072900000523077,None,177.77407080000012,177.77407080000012,177.77407080000012,177.77407080000012,177.77407080000012,177.77407080000012,177.77407080000012,177.77407080000012,177.77407080000012,177.77407080000012,,008,P014,2025_Feb_28_1701,ConditionRich,2021.2.3,59.93177366847753,
144.0,147.75,7,0.75,Stimuli/P014/sun_aojplsluiikxrfxc.jpg,1,1,1.75,0,64,64,64,,,,,,,,,,,,,144.01004359999934,0.010043599999335129,1,178.02429109999866,178.02429109999866,178.02429109999866,178.02429109999866,178.02429109999866,178.02429109999866,179.00849409999864,179.7591674999985,178.02429109999866,178.02429109999866,1.3676500999990822,008,P014,2025_Feb_28_1701,ConditionRich,2021.2.3,59.93177366847753,
147.75,148.0,41,0.0,Stimuli/Blank.png,0,0,0.0,0,65,65,65,,,,,,,,,,,,,147.7631437,0.013143700000000536,None,181.77771119999852,181.77771119999852,181.77771119999852,181.77771119999852,181.77771119999852,181.77771119999852,181.77771119999852,181.77771119999852,181.77771119999852,181.77771119999852,,008,P014,2025_Feb_28_1701,ConditionRich,2021.2.3,59.93177366847753,
148.0,151.75,34,0.75,Stimuli/P014/things_radio_07s.jpg,0,0,0.0,0,66,66,66,,,,,,,,,,,,,148.01382150000063,0.013821500000631204,None,182.02783709999858,182.02783709999858,182.02783709999858,182.02783709999858,182.02783709999858,182.02783709999858,182.02783709999858,182.02783709999858,182.02783709999858,182.02783709999858,,008,P014,2025_Feb_28_1701,ConditionRich,2021.2.3,59.93177366847753,
151.75,152.0,41,0.0,Stimuli/Blank.png,0,0,0.0,0,67,67,67,,,,,,,,,,,,,151.75026330000037,0.00026330000036978163,None,185.7644822000002,185.7644822000002,185.7644822000002,185.7644822000002,185.7644822000002,185.7644822000002,185.7644822000002,185.7644822000002,185.7644822000002,185.7644822000002,,008,P014,2025_Feb_28_1701,ConditionRich,2021.2.3,59.93177366847753,
152.0,155.75,23,0.75,Stimuli/P014/things_bug_07s.jpg,0,0,0.0,0,68,68,68,,,,,,,,,,,,,152.00031990000025,0.00031990000024961773,None,186.0147366000001,186.0147366000001,186.0147366000001,186.0147366000001,186.0147366000001,186.0147366000001,186.0147366000001,186.0147366000001,186.0147366000001,186.0147366000001,,008,P014,2025_Feb_28_1701,ConditionRich,2021.2.3,59.93177366847753,
155.75,156.0,41,0.0,Stimuli/Blank.png,0,0,0.0,0,69,69,69,,,,,,,,,,,,,155.75329339999917,0.0032933999991655583,None,189.76801439999872,189.76801439999872,189.76801439999872,189.76801439999872,189.76801439999872,189.76801439999872,189.76801439999872,189.76801439999872,189.76801439999872,189.76801439999872,,008,P014,2025_Feb_28_1701,ConditionRich,2021.2.3,59.93177366847753,
156.0,159.75,2,0.75,Stimuli/P014/sun_adotnsaifoooswkf.jpg,0,0,0.0,0,70,70,70,,,,,,,,,,,,,156.00441030000002,0.004410300000017742,None,190.01824039999883,190.01824039999883,190.01824039999883,190.01824039999883,190.01824039999883,190.01824039999883,190.01824039999883,190.01824039999883,190.01824039999883,190.01824039999883,,008,P014,2025_Feb_28_1701,ConditionRich,2021.2.3,59.93177366847753,
159.75,160.0,41,0.0,Stimuli/Blank.png,0,0,0.0,0,71,71,71,,,,,,,,,,,,,159.7572393999999,0.007239399999889429,None,193.77155270000003,193.77155270000003,193.77155270000003,193.77155270000003,193.77155270000003,193.77155270000003,193.77155270000003,193.77155270000003,193.77155270000003,193.77155270000003,,008,P014,2025_Feb_28_1701,ConditionRich,2021.2.3,59.93177366847753,
160.0,163.75,17,0.75,Stimuli/P014/sun_bsguftphqnrkbedw.jpg,0,0,0.0,0,72,72,72,,,,,,,,,,,,,160.0076482000004,0.007648200000403449,None,194.02181669999845,194.02181669999845,194.02181669999845,194.02181669999845,194.02181669999845,194.02181669999845,194.02181669999845,194.02181669999845,194.02181669999845,194.02181669999845,,008,P014,2025_Feb_28_1701,ConditionRich,2021.2.3,59.93177366847753,
163.75,164.0,41,0.0,Stimuli/Blank.png,0,0,0.0,0,73,73,73,,,,,,,,,,,,,163.76033780000034,0.010337800000343123,None,197.7751059000002,197.7751059000002,197.7751059000002,197.7751059000002,197.7751059000002,197.7751059000002,197.7751059000002,197.7751059000002,197.7751059000002,197.7751059000002,,008,P014,2025_Feb_28_1701,ConditionRich,2021.2.3,59.93177366847753,
164.0,167.75,13,0.75,Stimuli/P014/sun_bpccpwpohfirajtf.jpg,0,0,0.0,0,74,74,74,,,,,,,,,,,,,164.01190469999892,0.011904699998922297,None,198.04203269999925,198.04203269999925,198.04203269999925,198.04203269999925,198.04203269999925,198.04203269999925,198.04203269999925,198.04203269999925,198.04203269999925,198.04203269999925,,008,P014,2025_Feb_28_1701,ConditionRich,2021.2.3,59.93177366847753,
167.75,168.0,41,0.0,Stimuli/Blank.png,0,0,0.0,0,75,75,75,,,,,,,,,,,,,167.7836157999991,0.03361579999909736,None,201.81202279999889,201.81202279999889,201.81202279999889,201.81202279999889,201.81202279999889,201.81202279999889,201.81202279999889,201.81202279999889,201.81202279999889,201.81202279999889,,008,P014,2025_Feb_28_1701,ConditionRich,2021.2.3,59.93177366847753,
168.0,171.75,32,0.75,Stimuli/P014/things_mistletoe_07s.jpg,0,0,0.0,0,76,76,76,,,,,,,,,,,,,168.01460609999958,0.014606099999582511,None,202.02887129999908,202.02887129999908,202.02887129999908,202.02887129999908,202.02887129999908,202.02887129999908,202.02887129999908,202.02887129999908,202.02887129999908,202.02887129999908,,008,P014,2025_Feb_28_1701,ConditionRich,2021.2.3,59.93177366847753,
171.75,172.0,41,0.0,Stimuli/Blank.png,0,0,0.0,0,77,77,77,,,,,,,,,,,,,171.75380269999914,0.0038026999991416233,None,205.78221659999872,205.78221659999872,205.78221659999872,205.78221659999872,205.78221659999872,205.78221659999872,205.78221659999872,205.78221659999872,205.78221659999872,205.78221659999872,,008,P014,2025_Feb_28_1701,ConditionRich,2021.2.3,59.93177366847753,
172.0,175.75,35,0.75,Stimuli/P014/things_road_sign_07s.jpg,1,3,3.75,0,78,78,78,,,,,,,,,,,,,172.01847679999992,0.018476799999916693,1,206.04909269999916,206.04909269999916,206.04909269999916,206.04909269999916,206.04909269999916,206.04909269999916,209.0183778999999,209.7690765999996,206.04909269999916,206.04909269999916,3.399865299999874,008,P014,2025_Feb_28_1701,ConditionRich,2021.2.3,59.93177366847753,
175.75,176.0,41,0.0,Stimuli/Blank.png,0,0,0.0,0,79,79,79,,,,,,,,,,,,,175.7740720999991,0.024072099999102647,None,209.80242949999956,209.80242949999956,209.80242949999956,209.80242949999956,209.80242949999956,209.80242949999956,209.80242949999956,209.80242949999956,209.80242949999956,209.80242949999956,,008,P014,2025_Feb_28_1701,ConditionRich,2021.2.3,59.93177366847753,
176.0,179.75,24,0.75,Stimuli/P014/things_bungee_07s.jpg,0,0,0.0,0,80,80,80,,,,,,,,,,,,,176.02407739999944,0.024077399999441695,None,210.05264910000005,210.05264910000005,210.05264910000005,210.05264910000005,210.05264910000005,210.05264910000005,210.05264910000005,210.05264910000005,210.05264910000005,210.05264910000005,,008,P014,2025_Feb_28_1701,ConditionRich,2021.2.3,59.93177366847753,
179.75,180.0,41,0.0,Stimuli/Blank.png,0,0,0.0,0,81,81,81,,,,,,,,,,,,,179.7745345000003,0.024534500000299886,None,213.78927629999998,213.78927629999998,213.78927629999998,213.78927629999998,213.78927629999998,213.78927629999998,213.78927629999998,213.78927629999998,213.78927629999998,213.78927629999998,,008,P014,2025_Feb_28_1701,ConditionRich,2021.2.3,59.93177366847753,
180.0,196.0,0,0.0,Stimuli/Blank.png,1,11,11.75,0,82,82,82,,,,,,,,,,,,,180.00867169999947,0.008671699999467819,1,214.02282240000022,214.02282240000022,214.02282240000022,214.02282240000022,214.02282240000022,214.02282240000022,224.99920909999855,225.74986269999863,214.02282240000022,214.02282240000022,11.34719270000096,008,P014,2025_Feb_28_1701,ConditionRich,2021.2.3,59.93177366847753,
196.0,199.75,20,0.75,Stimuli/P014/sun_cidodcxikcyrdglc.jpg,0,0,0.0,0,83,83,83,,,,,,,,,,,,,196.00602020000042,0.006020200000421028,None,230.02030120000018,230.02030120000018,230.02030120000018,230.02030120000018,230.02030120000018,230.02030120000018,230.02030120000018,230.02030120000018,230.02030120000018,230.02030120000018,,008,P014,2025_Feb_28_1701,ConditionRich,2021.2.3,59.93177366847753,
199.75,200.0,41,0.0,Stimuli/Blank.png,0,0,0.0,0,84,84,84,,,,,,,,,,,,,199.75870769999892,0.00870769999892218,None,233.7736277999993,233.7736277999993,233.7736277999993,233.7736277999993,233.7736277999993,233.7736277999993,233.7736277999993,233.7736277999993,233.7736277999993,233.7736277999993,,008,P014,2025_Feb_28_1701,ConditionRich,2021.2.3,59.93177366847753,
200.0,203.75,2,0.75,Stimuli/P014/sun_adotnsaifoooswkf.jpg,0,0,0.0,0,85,85,85,,,,,,,,,,,,,200.0129651999996,0.012965199999598553,None,234.04055890000018,234.04055890000018,234.04055890000018,234.04055890000018,234.04055890000018,234.04055890000018,234.04055890000018,234.04055890000018,234.04055890000018,234.04055890000018,,008,P014,2025_Feb_28_1701,ConditionRich,2021.2.3,59.93177366847753,
203.75,204.0,41,0.0,Stimuli/Blank.png,0,0,0.0,0,86,86,86,,,,,,,,,,,,,203.7625535999996,0.012553599999591825,None,237.77733959999932,237.77733959999932,237.77733959999932,237.77733959999932,237.77733959999932,237.77733959999932,237.77733959999932,237.77733959999932,237.77733959999932,237.77733959999932,,008,P014,2025_Feb_28_1701,ConditionRich,2021.2.3,59.93177366847753,
204.0,207.75,16,0.75,Stimuli/P014/sun_bsgtkqjrnrvttrax.jpg,1,0,0.75,0,87,87,87,,,,,,,,,,,,,204.01268890000028,0.012688900000284775,1,238.02739739999924,238.02739739999924,238.02739739999924,238.02739739999924,238.02739739999924,238.02739739999924,238.02739739999924,238.76137609999932,238.02739739999924,238.02739739999924,0.43664149999858637,008,P014,2025_Feb_28_1701,ConditionRich,2021.2.3,59.93177366847753,
207.75,208.0,41,0.0,Stimuli/Blank.png,0,0,0.0,0,88,88,88,,,,,,,,,,,,,207.75218719999975,0.00218719999975292,None,241.78072099999918,241.78072099999918,241.78072099999918,241.78072099999918,241.78072099999918,241.78072099999918,241.78072099999918,241.78072099999918,241.78072099999918,241.78072099999918,,008,P014,2025_Feb_28_1701,ConditionRich,2021.2.3,59.93177366847753,
208.0,211.75,12,0.75,Stimuli/P014/sun_bjyrrxiwsnbmkbqs.jpg,0,0,0.0,0,89,89,89,,,,,,,,,,,,,208.0173732000003,0.017373200000292854,None,242.04767119999997,242.04767119999997,242.04767119999997,242.04767119999997,242.04767119999997,242.04767119999997,242.04767119999997,242.04767119999997,242.04767119999997,242.04767119999997,,008,P014,2025_Feb_28_1701,ConditionRich,2021.2.3,59.93177366847753,
211.75,212.0,41,0.0,Stimuli/Blank.png,0,0,0.0,0,90,90,90,,,,,,,,,,,,,211.7707559999999,0.020755999999892083,None,245.78427209999973,245.78427209999973,245.78427209999973,245.78427209999973,245.78427209999973,245.78427209999973,245.78427209999973,245.78427209999973,245.78427209999973,245.78427209999973,,008,P014,2025_Feb_28_1701,ConditionRich,2021.2.3,59.93177366847753,
212.0,215.75,8,0.75,Stimuli/P014/sun_auqrilekgmdmrncq.jpg,0,0,0.0,0,91,91,91,,,,,,,,,,,,,212.00573909999912,0.00573909999911848,None,246.03450499999963,246.03450499999963,246.03450499999963,246.03450499999963,246.03450499999963,246.03450499999963,246.03450499999963,246.03450499999963,246.03450499999963,246.03450499999963,,008,P014,2025_Feb_28_1701,ConditionRich,2021.2.3,59.93177366847753,
215.75,216.0,41,0.0,Stimuli/Blank.png,0,0,0.0,0,92,92,92,,,,,,,,,,,,,215.7764033000003,0.026403300000310992,None,249.80450839999867,249.80450839999867,249.80450839999867,249.80450839999867,249.80450839999867,249.80450839999867,249.80450839999867,249.80450839999867,249.80450839999867,249.80450839999867,,008,P014,2025_Feb_28_1701,ConditionRich,2021.2.3,59.93177366847753,
216.0,219.75,32,0.75,Stimuli/P014/things_mistletoe_07s.jpg,0,0,0.0,0,93,93,93,,,,,,,,,,,,,216.02534039999955,0.025340399999549845,None,250.05470499999865,250.05470499999865,250.05470499999865,250.05470499999865,250.05470499999865,250.05470499999865,250.05470499999865,250.05470499999865,250.05470499999865,250.05470499999865,,008,P014,2025_Feb_28_1701,ConditionRich,2021.2.3,59.93177366847753,
219.75,220.0,41,0.0,Stimuli/Blank.png,0,0,0.0,0,94,94,94,,,,,,,,,,,,,219.7773718999997,0.02737189999970724,None,253.7913508999991,253.7913508999991,253.7913508999991,253.7913508999991,253.7913508999991,253.7913508999991,253.7913508999991,253.7913508999991,253.7913508999991,253.7913508999991,,008,P014,2025_Feb_28_1701,ConditionRich,2021.2.3,59.93177366847753,
220.0,223.75,15,0.75,Stimuli/P014/sun_brezwczwwllviogu.jpg,0,0,0.0,0,95,95,95,,,,,,,,,,,,,220.01035760000013,0.01035760000013397,None,254.02488379999886,254.02488379999886,254.02488379999886,254.02488379999886,254.02488379999886,254.02488379999886,254.02488379999886,254.02488379999886,254.02488379999886,254.02488379999886,,008,P014,2025_Feb_28_1701,ConditionRich,2021.2.3,59.93177366847753,
223.75,224.0,41,0.0,Stimuli/Blank.png,0,0,0.0,0,96,96,96,,,,,,,,,,,,,223.7642839,0.014283900000009453,None,257.77829819999897,257.77829819999897,257.77829819999897,257.77829819999897,257.77829819999897,257.77829819999897,257.77829819999897,257.77829819999897,257.77829819999897,257.77829819999897,,008,P014,2025_Feb_28_1701,ConditionRich,2021.2.3,59.93177366847753,
224.0,227.75,4,0.75,Stimuli/P014/sun_afgoiykvchxqotyz.jpg,0,0,0.0,0,97,97,97,,,,,,,,,,,,,224.01423719999912,0.014237199999115546,None,258.0284223999988,258.0284223999988,258.0284223999988,258.0284223999988,258.0284223999988,258.0284223999988,258.0284223999988,258.0284223999988,258.0284223999988,258.0284223999988,,008,P014,2025_Feb_28_1701,ConditionRich,2021.2.3,59.93177366847753,
227.75,228.0,41,0.0,Stimuli/Blank.png,0,0,0.0,0,98,98,98,,,,,,,,,,,,,227.75034099999903,0.0003409999990253709,None,261.7650728999997,261.7650728999997,261.7650728999997,261.7650728999997,261.7650728999997,261.7650728999997,261.7650728999997,261.7650728999997,261.7650728999997,261.7650728999997,,008,P014,2025_Feb_28_1701,ConditionRich,2021.2.3,59.93177366847753,
228.0,231.75,36,0.75,Stimuli/P014/things_seafood_07s.jpg,1,0,0.75,0,99,99,99,,,,,,,,,,,,,228.00277730000016,0.002777300000161631,1,262.0319829,262.0319829,262.0319829,262.0319829,262.0319829,262.0319829,262.0319829,262.76598509999894,262.0319829,262.0319829,0.7272254999988945,008,P014,2025_Feb_28_1701,ConditionRich,2021.2.3,59.93177366847753,
231.75,232.0,41,0.0,Stimuli/Blank.png,0,0,0.0,0,100,100,100,,,,,,,,,,,,,231.77373799999987,0.023737999999866588,None,265.80198199999904,265.80198199999904,265.80198199999904,265.80198199999904,265.80198199999904,265.80198199999904,265.80198199999904,265.80198199999904,265.80198199999904,265.80198199999904,,008,P014,2025_Feb_28_1701,ConditionRich,2021.2.3,59.93177366847753,
232.0,235.75,11,0.75,Stimuli/P014/sun_bfyxzbjsvqsobbky.jpg,0,0,0.0,0,101,101,101,,,,,,,,,,,,,232.02287119999892,0.02287119999891729,None,266.052190299999,266.052190299999,266.052190299999,266.052190299999,266.052190299999,266.052190299999,266.052190299999,266.052190299999,266.052190299999,266.052190299999,,008,P014,2025_Feb_28_1701,ConditionRich,2021.2.3,59.93177366847753,
235.75,236.0,41,0.0,Stimuli/Blank.png,0,0,0.0,0,102,102,102,,,,,,,,,,,,,235.7746659000004,0.024665900000400143,None,269.7888291999989,269.7888291999989,269.7888291999989,269.7888291999989,269.7888291999989,269.7888291999989,269.7888291999989,269.7888291999989,269.7888291999989,269.7888291999989,,008,P014,2025_Feb_28_1701,ConditionRich,2021.2.3,59.93177366847753,
236.0,239.75,6,0.75,Stimuli/P014/sun_aoejkkmwkfegacni.jpg,0,0,0.0,0,103,103,103,,,,,,,,,,,,,236.00752789999933,0.0075278999993315665,None,270.02237049999894,270.02237049999894,270.02237049999894,270.02237049999894,270.02237049999894,270.02237049999894,270.02237049999894,270.02237049999894,270.02237049999894,270.02237049999894,,008,P014,2025_Feb_28_1701,ConditionRich,2021.2.3,59.93177366847753,
239.75,240.0,41,0.0,Stimuli/Blank.png,0,0,0.0,0,104,104,104,,,,,,,,,,,,,239.76318449999962,0.013184499999624677,None,273.7923866000001,273.7923866000001,273.7923866000001,273.7923866000001,273.7923866000001,273.7923866000001,273.7923866000001,273.7923866000001,273.7923866000001,273.7923866000001,,008,P014,2025_Feb_28_1701,ConditionRich,2021.2.3,59.93177366847753,
240.0,243.75,3,0.75,Stimuli/P014/sun_aengzsmykwchlrdn.jpg,1,1,1.75,0,105,105,105,,,,,,,,,,,,,240.0281259000003,0.028125900000304682,1,274.0427667999993,274.0427667999993,274.0427667999993,274.0427667999993,274.0427667999993,274.0427667999993,275.02679329999955,275.77745890000006,274.0427667999993,274.0427667999993,1.3535823000001983,008,P014,2025_Feb_28_1701,ConditionRich,2021.2.3,59.93177366847753,
243.75,244.0,41,0.0,Stimuli/Blank.png,0,0,0.0,0,106,106,106,,,,,,,,,,,,,243.76458400000047,0.014584000000468222,None,277.7792370999996,277.7792370999996,277.7792370999996,277.7792370999996,277.7792370999996,277.7792370999996,277.7792370999996,277.7792370999996,277.7792370999996,277.7792370999996,,008,P014,2025_Feb_28_1701,ConditionRich,2021.2.3,59.93177366847753,
244.0,247.75,1,0.75,Stimuli/P014/sun_adkmgqclfrkhfxbd.jpg,0,0,0.0,0,107,107,107,,,,,,,,,,,,,244.01528529999996,0.015285299999959534,None,278.0294529999992,278.0294529999992,278.0294529999992,278.0294529999992,278.0294529999992,278.0294529999992,278.0294529999992,278.0294529999992,278.0294529999992,278.0294529999992,,008,P014,2025_Feb_28_1701,ConditionRich,2021.2.3,59.93177366847753,
247.75,248.0,41,0.0,Stimuli/Blank.png,0,0,0.0,0,108,108,108,,,,,,,,,,,,,247.75275060000058,0.0027506000005814712,None,281.7661207000001,281.7661207000001,281.7661207000001,281.7661207000001,281.7661207000001,281.7661207000001,281.7661207000001,281.7661207000001,281.7661207000001,281.7661207000001,,008,P014,2025_Feb_28_1701,ConditionRich,2021.2.3,59.93177366847753,
248.0,251.75,39,0.75,Stimuli/P014/things_violin_07n.jpg,0,0,0.0,0,109,109,109,,,,,,,,,,,,,248.00315989999945,0.00315989999944577,None,282.0330011999995,282.0330011999995,282.0330011999995,282.0330011999995,282.0330011999995,282.0330011999995,282.0330011999995,282.0330011999995,282.0330011999995,282.0330011999995,,008,P014,2025_Feb_28_1701,ConditionRich,2021.2.3,59.93177366847753,
251.75,252.0,41,0.0,Stimuli/Blank.png,0,0,0.0,0,110,110,110,,,,,,,,,,,,,251.7723900000001,0.02239000000008673,None,285.7863295999996,285.7863295999996,285.7863295999996,285.7863295999996,285.7863295999996,285.7863295999996,285.7863295999996,285.7863295999996,285.7863295999996,285.7863295999996,,008,P014,2025_Feb_28_1701,ConditionRich,2021.2.3,59.93177366847753,
252.0,255.75,30,0.75,Stimuli/P014/things_man_07s.jpg,0,0,0.0,0,111,111,111,,,,,,,,,,,,,252.00689899999998,0.006898999999975786,None,286.0365521999993,286.0365521999993,286.0365521999993,286.0365521999993,286.0365521999993,286.0365521999993,286.0365521999993,286.0365521999993,286.0365521999993,286.0365521999993,,008,P014,2025_Feb_28_1701,ConditionRich,2021.2.3,59.93177366847753,
255.75,256.0,41,0.0,Stimuli/Blank.png,0,0,0.0,0,112,112,112,,,,,,,,,,,,,255.77614859999994,0.026148599999942235,None,289.78988019999997,289.78988019999997,289.78988019999997,289.78988019999997,289.78988019999997,289.78988019999997,289.78988019999997,289.78988019999997,289.78988019999997,289.78988019999997,,008,P014,2025_Feb_28_1701,ConditionRich,2021.2.3,59.93177366847753,
256.0,259.75,37,0.75,Stimuli/P014/things_slug_07s.jpg,1,0,0.75,0,113,113,113,,,,,,,,,,,,,256.00898570000027,0.008985700000266661,1,290.02341199999864,290.02341199999864,290.02341199999864,290.02341199999864,290.02341199999864,290.02341199999864,290.02341199999864,290.7573778999995,290.02341199999864,290.02341199999864,0.5376576999988174,008,P014,2025_Feb_28_1701,ConditionRich,2021.2.3,59.93177366847753,
259.75,260.0,41,0.0,Stimuli/Blank.png,0,0,0.0,0,114,114,114,,,,,,,,,,,,,259.7647713000006,0.014771300000575138,None,293.79341289999866,293.79341289999866,293.79341289999866,293.79341289999866,293.79341289999866,293.79341289999866,293.79341289999866,293.79341289999866,293.79341289999866,293.79341289999866,,008,P014,2025_Feb_28_1701,ConditionRich,2021.2.3,59.93177366847753,
260.0,263.75,22,0.75,Stimuli/P014/things_banner_07s.jpg,0,0,0.0,0,115,115,115,,,,,,,,,,,,,260.03035420000015,0.030354200000147102,None,294.06033190000016,294.06033190000016,294.06033190000016,294.06033190000016,294.06033190000016,294.06033190000016,294.06033190000016,294.06033190000016,294.06033190000016,294.06033190000016,,008,P014,2025_Feb_28_1701,ConditionRich,2021.2.3,59.93177366847753,
263.75,264.0,41,0.0,Stimuli/Blank.png,0,0,0.0,0,116,116,116,,,,,,,,,,,,,263.7659225999996,0.01592259999961243,None,297.7802697999996,297.7802697999996,297.7802697999996,297.7802697999996,297.7802697999996,297.7802697999996,297.7802697999996,297.7802697999996,297.7802697999996,297.7802697999996,,008,P014,2025_Feb_28_1701,ConditionRich,2021.2.3,59.93177366847753,
264.0,267.75,7,0.75,Stimuli/P014/sun_aojplsluiikxrfxc.jpg,0,0,0.0,0,117,117,117,,,,,,,,,,,,,263.99909359999947,-0.0009064000005309936,None,298.01380959999915,298.01380959999915,298.01380959999915,298.01380959999915,298.01380959999915,298.01380959999915,298.01380959999915,298.01380959999915,298.01380959999915,298.01380959999915,,008,P014,2025_Feb_28_1701,ConditionRich,2021.2.3,59.93177366847753,
267.75,268.0,41,0.0,Stimuli/Blank.png,0,0,0.0,0,118,118,118,,,,,,,,,,,,,267.7547324999996,0.0047324999995908,None,301.7838221000002,301.7838221000002,301.7838221000002,301.7838221000002,301.7838221000002,301.7838221000002,301.7838221000002,301.7838221000002,301.7838221000002,301.7838221000002,,008,P014,2025_Feb_28_1701,ConditionRich,2021.2.3,59.93177366847753,
268.0,271.75,10,0.75,Stimuli/P014/sun_bdhxnzyleoiflyak.jpg,1,0,0.75,0,119,119,119,,,,,,,,,,,,,268.0202188000003,0.020218800000293413,1,302.03404020000016,302.03404020000016,302.03404020000016,302.03404020000016,302.03404020000016,302.03404020000016,302.03404020000016,302.7679895000001,302.03404020000016,302.03404020000016,0.6143176999994466,008,P014,2025_Feb_28_1701,ConditionRich,2021.2.3,59.93177366847753,
271.75,272.0,41,0.0,Stimuli/Blank.png,0,0,0.0,0,120,120,120,,,,,,,,,,,,,271.7559984999989,0.005998499998895568,None,305.7706698999991,305.7706698999991,305.7706698999991,305.7706698999991,305.7706698999991,305.7706698999991,305.7706698999991,305.7706698999991,305.7706698999991,305.7706698999991,,008,P014,2025_Feb_28_1701,ConditionRich,2021.2.3,59.93177366847753,
272.0,275.75,28,0.75,Stimuli/P014/things_girl_07s.jpg,0,0,0.0,0,121,121,121,,,,,,,,,,,,,272.0096945999994,0.009694599999420461,None,306.0375796999997,306.0375796999997,306.0375796999997,306.0375796999997,306.0375796999997,306.0375796999997,306.0375796999997,306.0375796999997,306.0375796999997,306.0375796999997,,008,P014,2025_Feb_28_1701,ConditionRich,2021.2.3,59.93177366847753,
275.75,276.0,41,0.0,Stimuli/Blank.png,0,0,0.0,0,122,122,122,,,,,,,,,,,,,275.77690169999914,0.026901699999143602,None,309.7908876999991,309.7908876999991,309.7908876999991,309.7908876999991,309.7908876999991,309.7908876999991,309.7908876999991,309.7908876999991,309.7908876999991,309.7908876999991,,008,P014,2025_Feb_28_1701,ConditionRich,2021.2.3,59.93177366847753,
276.0,292.0,0,0.0,Stimuli/Blank.png,1,7,7.75,0,123,123,123,,,,,,,,,,,,,276.0111918999992,0.011191899999175803,1,310.04115739999907,310.04115739999907,310.04115739999907,310.04115739999907,310.04115739999907,310.04115739999907,317.01396699999896,317.764662399999,310.04115739999907,310.04115739999907,7.396996000001309,008,P014,2025_Feb_28_1701,ConditionRich,2021.2.3,59.93177366847753,
292.0,295.75,19,0.75,Stimuli/P014/sun_buphlelowxjnoygy.jpg,0,0,0.0,0,124,124,124,,,,,,,,,,,,,292.02513030000046,0.025130300000455463,None,326.05529659999956,326.05529659999956,326.05529659999956,326.05529659999956,326.05529659999956,326.05529659999956,326.05529659999956,326.05529659999956,326.05529659999956,326.05529659999956,,008,P014,2025_Feb_28_1701,ConditionRich,2021.2.3,59.93177366847753,
295.75,296.0,41,0.0,Stimuli/Blank.png,0,0,0.0,0,125,125,125,,,,,,,,,,,,,295.7770648000005,0.027064800000516698,None,329.79197699999895,329.79197699999895,329.79197699999895,329.79197699999895,329.79197699999895,329.79197699999895,329.79197699999895,329.79197699999895,329.79197699999895,329.79197699999895,,008,P014,2025_Feb_28_1701,ConditionRich,2021.2.3,59.93177366847753,
296.0,299.75,5,0.75,Stimuli/P014/sun_aidrxvbfhxtsusrf.jpg,1,0,0.75,0,126,126,126,,,,,,,,,,,,,296.01316439999937,0.01316439999936847,1,330.04216949999864,330.04216949999864,330.04216949999864,330.04216949999864,330.04216949999864,330.04216949999864,330.04216949999864,330.7761367999992,330.04216949999864,330.04216949999864,0.5988623000012012,008,P014,2025_Feb_28_1701,ConditionRich,2021.2.3,59.93177366847753,
299.75,300.0,41,0.0,Stimuli/Blank.png,0,0,0.0,0,127,127,127,,,,,,,,,,,,,299.7641924999989,0.014192499998898711,None,333.7787879999996,333.7787879999996,333.7787879999996,333.7787879999996,333.7787879999996,333.7787879999996,333.7787879999996,333.7787879999996,333.7787879999996,333.7787879999996,,008,P014,2025_Feb_28_1701,ConditionRich,2021.2.3,59.93177366847753,
300.0,303.75,25,0.75,Stimuli/P014/things_cashew_07s.jpg,0,0,0.0,0,128,128,128,,,,,,,,,,,,,300.0151198000003,0.015119800000320538,None,334.04571249999935,334.04571249999935,334.04571249999935,334.04571249999935,334.04571249999935,334.04571249999935,334.04571249999935,334.04571249999935,334.04571249999935,334.04571249999935,,008,P014,2025_Feb_28_1701,ConditionRich,2021.2.3,59.93177366847753,
303.75,304.0,41,0.0,Stimuli/Blank.png,0,0,0.0,0,129,129,129,,,,,,,,,,,,,303.7686692999996,0.018669299999601208,None,337.79904759999954,337.79904759999954,337.79904759999954,337.79904759999954,337.79904759999954,337.79904759999954,337.79904759999954,337.79904759999954,337.79904759999954,337.79904759999954,,008,P014,2025_Feb_28_1701,ConditionRich,2021.2.3,59.93177366847753,
304.0,307.75,27,0.75,Stimuli/P014/things_face_07s.jpg,0,0,0.0,0,130,130,130,,,,,,,,,,,,,304.01840280000033,0.0184028000003309,None,338.0492650999986,338.0492650999986,338.0492650999986,338.0492650999986,338.0492650999986,338.0492650999986,338.0492650999986,338.0492650999986,338.0492650999986,338.0492650999986,,008,P014,2025_Feb_28_1701,ConditionRich,2021.2.3,59.93177366847753,
307.75,308.0,41,0.0,Stimuli/Blank.png,0,0,0.0,0,131,131,131,,,,,,,,,,,,,307.7717042000004,0.021704200000385754,None,341.7858794999993,341.7858794999993,341.7858794999993,341.7858794999993,341.7858794999993,341.7858794999993,341.7858794999993,341.7858794999993,341.7858794999993,341.7858794999993,,008,P014,2025_Feb_28_1701,ConditionRich,2021.2.3,59.93177366847753,
308.0,311.75,9,0.75,Stimuli/P014/sun_bdgwqzttihopmpbf.jpg,1,1,1.75,0,132,132,132,,,,,,,,,,,,,308.0057868999993,0.005786899999293382,1,342.0361133999995,342.0361133999995,342.0361133999995,342.0361133999995,342.0361133999995,342.0361133999995,343.0036636999994,343.7543114,342.0361133999995,342.0361133999995,1.338018299999021,008,P014,2025_Feb_28_1701,ConditionRich,2021.2.3,59.93177366847753,
311.75,312.0,41,0.0,Stimuli/Blank.png,0,0,0.0,0,133,133,133,,,,,,,,,,,,,311.77639219999946,0.026392199999463628,None,345.7894357999994,345.7894357999994,345.7894357999994,345.7894357999994,345.7894357999994,345.7894357999994,345.7894357999994,345.7894357999994,345.7894357999994,345.7894357999994,,008,P014,2025_Feb_28_1701,ConditionRich,2021.2.3,59.93177366847753,
312.0,315.75,38,0.75,Stimuli/P014/things_spark_plug_07s.jpg,0,0,0.0,0,134,134,134,,,,,,,,,,,,,312.00909130000036,0.009091300000363844,None,346.0396652999989,346.0396652999989,346.0396652999989,346.0396652999989,346.0396652999989,346.0396652999989,346.0396652999989,346.0396652999989,346.0396652999989,346.0396652999989,,008,P014,2025_Feb_28_1701,ConditionRich,2021.2.3,59.93177366847753,
315.75,316.0,41,0.0,Stimuli/Blank.png,0,0,0.0,0,135,135,135,,,,,,,,,,,,,315.78109009999935,0.03109009999934642,None,349.80968799999937,349.80968799999937,349.80968799999937,349.80968799999937,349.80968799999937,349.80968799999937,349.80968799999937,349.80968799999937,349.80968799999937,349.80968799999937,,008,P014,2025_Feb_28_1701,ConditionRich,2021.2.3,59.93177366847753,
316.0,319.75,29,0.75,Stimuli/P014/things_iguana_07s.jpg,0,0,0.0,0,136,136,136,,,,,,,,,,,,,316.0312826999998,0.031282699999792385,None,350.05987559999994,350.05987559999994,350.05987559999994,350.05987559999994,350.05987559999994,350.05987559999994,350.05987559999994,350.05987559999994,350.05987559999994,350.05987559999994,,008,P014,2025_Feb_28_1701,ConditionRich,2021.2.3,59.93177366847753,
319.75,320.0,41,0.0,Stimuli/Blank.png,0,0,0.0,0,137,137,137,,,,,,,,,,,,,319.7655672000001,0.015567200000077719,None,353.77990659999887,353.77990659999887,353.77990659999887,353.77990659999887,353.77990659999887,353.77990659999887,353.77990659999887,353.77990659999887,353.77990659999887,353.77990659999887,,008,P014,2025_Feb_28_1701,ConditionRich,2021.2.3,59.93177366847753,
320.0,323.75,21,0.75,Stimuli/P014/things_baby_07s.jpg,0,0,0.0,0,138,138,138,,,,,,,,,,,,,319.9989958999995,-0.0010041000005003298,None,354.01336359999914,354.01336359999914,354.01336359999914,354.01336359999914,354.01336359999914,354.01336359999914,354.01336359999914,354.01336359999914,354.01336359999914,354.01336359999914,,008,P014,2025_Feb_28_1701,ConditionRich,2021.2.3,59.93177366847753,
323.75,324.0,41,0.0,Stimuli/Blank.png,0,0,0.0,0,139,139,139,,,,,,,,,,,,,323.7525731000005,0.002573100000518025,None,357.76668569999856,357.76668569999856,357.76668569999856,357.76668569999856,357.76668569999856,357.76668569999856,357.76668569999856,357.76668569999856,357.76668569999856,357.76668569999856,,008,P014,2025_Feb_28_1701,ConditionRich,2021.2.3,59.93177366847753,
324.0,327.75,18,0.75,Stimuli/P014/sun_btohwudpiusfvpvl.jpg,0,0,0.0,0,140,140,140,,,,,,,,,,,,,324.00291389999984,0.0029138999998394866,None,358.01690719999897,358.01690719999897,358.01690719999897,358.01690719999897,358.01690719999897,358.01690719999897,358.01690719999897,358.01690719999897,358.01690719999897,358.01690719999897,,008,P014,2025_Feb_28_1701,ConditionRich,2021.2.3,59.93177366847753,
327.75,328.0,41,0.0,Stimuli/Blank.png,0,0,0.0,0,141,141,141,,,,,,,,,,,,,327.7561162999991,0.006116299999121111,None,361.7702285999985,361.7702285999985,361.7702285999985,361.7702285999985,361.7702285999985,361.7702285999985,361.7702285999985,361.7702285999985,361.7702285999985,361.7702285999985,,008,P014,2025_Feb_28_1701,ConditionRich,2021.2.3,59.93177366847753,
328.0,331.75,26,0.75,Stimuli/P014/things_cougar_07s.jpg,0,0,0.0,0,142,142,142,,,,,,,,,,,,,328.0067677999996,0.006767799999579438,None,362.0372351999995,362.0372351999995,362.0372351999995,362.0372351999995,362.0372351999995,362.0372351999995,362.0372351999995,362.0372351999995,362.0372351999995,362.0372351999995,,008,P014,2025_Feb_28_1701,ConditionRich,2021.2.3,59.93177366847753,
331.75,332.0,41,0.0,Stimuli/Blank.png,0,0,0.0,0,143,143,143,,,,,,,,,,,,,331.7764936000003,0.02649360000032175,None,365.7904514999991,365.7904514999991,365.7904514999991,365.7904514999991,365.7904514999991,365.7904514999991,365.7904514999991,365.7904514999991,365.7904514999991,365.7904514999991,,008,P014,2025_Feb_28_1701,ConditionRich,2021.2.3,59.93177366847753,
332.0,335.75,13,0.75,Stimuli/P014/sun_bpccpwpohfirajtf.jpg,1,0,0.75,0,144,144,144,,,,,,,,,,,,,332.01121539999986,0.011215399999855435,1,366.0406865999994,366.0406865999994,366.0406865999994,366.0406865999994,366.0406865999994,366.0406865999994,366.0406865999994,366.77465609999854,366.0406865999994,366.0406865999994,0.3547768999997061,008,P014,2025_Feb_28_1701,ConditionRich,2021.2.3,59.93177366847753,
335.75,336.0,41,0.0,Stimuli/Blank.png,0,0,0.0,0,145,145,145,,,,,,,,,,,,,335.7797398999992,0.02973989999918558,None,369.7939723999989,369.7939723999989,369.7939723999989,369.7939723999989,369.7939723999989,369.7939723999989,369.7939723999989,369.7939723999989,369.7939723999989,369.7939723999989,,008,P014,2025_Feb_28_1701,ConditionRich,2021.2.3,59.93177366847753,
336.0,339.75,31,0.75,Stimuli/P014/things_mask_07s.jpg,1,3,3.75,0,146,146,146,,,,,,,,,,,,,336.01325630000065,0.01325630000064848,1,370.04423789999964,370.04423789999964,370.04423789999964,370.04423789999964,370.04423789999964,370.04423789999964,373.01353539999945,373.76423089999844,370.04423789999964,370.04423789999964,3.317880000000514,008,P014,2025_Feb_28_1701,ConditionRich,2021.2.3,59.93177366847753,
339.75,340.0,41,0.0,Stimuli/Blank.png,0,0,0.0,0,147,147,147,,,,,,,,,,,,,339.76773669999966,0.017736699999659322,None,373.7808718999986,373.7808718999986,373.7808718999986,373.7808718999986,373.7808718999986,373.7808718999986,373.7808718999986,373.7808718999986,373.7808718999986,373.7808718999986,,008,P014,2025_Feb_28_1701,ConditionRich,2021.2.3,59.93177366847753,
340.0,343.75,40,0.75,Stimuli/P014/things_woman_07s.jpg,0,0,0.0,0,148,148,148,,,,,,,,,,,,,340.00060569999914,0.0006056999991415069,None,374.03108299999985,374.03108299999985,374.03108299999985,374.03108299999985,374.03108299999985,374.03108299999985,374.03108299999985,374.03108299999985,374.03108299999985,374.03108299999985,,008,P014,2025_Feb_28_1701,ConditionRich,2021.2.3,59.93177366847753,
343.75,344.0,41,0.0,Stimuli/Blank.png,0,0,0.0,0,149,149,149,,,,,,,,,,,,,343.7710413999994,0.021041399999376154,None,377.80108299999847,377.80108299999847,377.80108299999847,377.80108299999847,377.80108299999847,377.80108299999847,377.80108299999847,377.80108299999847,377.80108299999847,377.80108299999847,,008,P014,2025_Feb_28_1701,ConditionRich,2021.2.3,59.93177366847753,
344.0,347.75,33,0.75,Stimuli/P014/things_piglet_07s.jpg,0,0,0.0,0,150,150,150,,,,,,,,,,,,,344.0209990000003,0.02099900000030175,None,378.0513321999988,378.0513321999988,378.0513321999988,378.0513321999988,378.0513321999988,378.0513321999988,378.0513321999988,378.0513321999988,378.0513321999988,378.0513321999988,,008,P014,2025_Feb_28_1701,ConditionRich,2021.2.3,59.93177366847753,
347.75,348.0,41,0.0,Stimuli/Blank.png,0,0,0.0,0,151,151,151,,,,,,,,,,,,,347.77332319999914,0.023323199999140343,None,381.7879512999989,381.7879512999989,381.7879512999989,381.7879512999989,381.7879512999989,381.7879512999989,381.7879512999989,381.7879512999989,381.7879512999989,381.7879512999989,,008,P014,2025_Feb_28_1701,ConditionRich,2021.2.3,59.93177366847753,
348.0,351.75,14,0.75,Stimuli/P014/sun_bqhfterhwnqrbnzg.jpg,0,0,0.0,0,152,152,152,,,,,,,,,,,,,348.0078735999996,0.007873599999584258,None,382.03823310000007,382.03823310000007,382.03823310000007,382.03823310000007,382.03823310000007,382.03823310000007,382.03823310000007,382.03823310000007,382.03823310000007,382.03823310000007,,008,P014,2025_Feb_28_1701,ConditionRich,2021.2.3,59.93177366847753,
351.75,352.0,41,0.0,Stimuli/Blank.png,0,0,0.0,0,153,153,153,,,,,,,,,,,,,351.77793349999956,0.027933499999562628,None,385.80817209999987,385.80817209999987,385.80817209999987,385.80817209999987,385.80817209999987,385.80817209999987,385.80817209999987,385.80817209999987,385.80817209999987,385.80817209999987,,008,P014,2025_Feb_28_1701,ConditionRich,2021.2.3,59.93177366847753,
352.0,355.75,24,0.75,Stimuli/P014/things_bungee_07s.jpg,0,0,0.0,0,154,154,154,,,,,,,,,,,,,352.0283822000001,0.028382200000123703,None,386.0583979999992,386.0583979999992,386.0583979999992,386.0583979999992,386.0583979999992,386.0583979999992,386.0583979999992,386.0583979999992,386.0583979999992,386.0583979999992,,008,P014,2025_Feb_28_1701,ConditionRich,2021.2.3,59.93177366847753,
355.75,356.0,41,0.0,Stimuli/Blank.png,0,0,0.0,0,155,155,155,,,,,,,,,,,,,355.78031829999964,0.0303182999996352,None,389.7950420999987,389.7950420999987,389.7950420999987,389.7950420999987,389.7950420999987,389.7950420999987,389.7950420999987,389.7950420999987,389.7950420999987,389.7950420999987,,008,P014,2025_Feb_28_1701,ConditionRich,2021.2.3,59.93177366847753,
356.0,359.75,35,0.75,Stimuli/P014/things_road_sign_07s.jpg,0,0,0.0,0,156,156,156,,,,,,,,,,,,,356.0138920999998,0.013892099999793572,None,390.0285643999996,390.0285643999996,390.0285643999996,390.0285643999996,390.0285643999996,390.0285643999996,390.0285643999996,390.0285643999996,390.0285643999996,390.0285643999996,,008,P014,2025_Feb_28_1701,ConditionRich,2021.2.3,59.93177366847753,
359.75,360.0,41,0.0,Stimuli/Blank.png,0,0,0.0,0,157,157,157,,,,,,,,,,,,,359.751021099999,0.00102109999897948,None,393.76521649999995,393.76521649999995,393.76521649999995,393.76521649999995,393.76521649999995,393.76521649999995,393.76521649999995,393.76521649999995,393.76521649999995,393.76521649999995,,008,P014,2025_Feb_28_1701,ConditionRich,2021.2.3,59.93177366847753,
360.0,363.75,34,0.75,Stimuli/P014/things_radio_07s.jpg,0,0,0.0,0,158,158,158,,,,,,,,,,,,,360.00143019999996,0.0014301999999588588,None,394.0321506,394.0321506,394.0321506,394.0321506,394.0321506,394.0321506,394.0321506,394.0321506,394.0321506,394.0321506,,008,P014,2025_Feb_28_1701,ConditionRich,2021.2.3,59.93177366847753,
363.75,364.0,41,0.0,Stimuli/Blank.png,0,0,0.0,0,159,159,159,,,,,,,,,,,,,363.7730981000004,0.023098100000424893,None,397.8021239999998,397.8021239999998,397.8021239999998,397.8021239999998,397.8021239999998,397.8021239999998,397.8021239999998,397.8021239999998,397.8021239999998,397.8021239999998,,008,P014,2025_Feb_28_1701,ConditionRich,2021.2.3,59.93177366847753,
364.0,367.75,17,0.75,Stimuli/P014/sun_bsguftphqnrkbedw.jpg,1,1,1.75,0,160,160,160,,,,,,,,,,,,,364.0216651999999,0.021665199999915785,1,398.03566109999883,398.03566109999883,398.03566109999883,398.03566109999883,398.03566109999883,398.03566109999883,399.0198865000002,399.7705420000002,398.03566109999883,398.03566109999883,1.4825108999993972,008,P014,2025_Feb_28_1701,ConditionRich,2021.2.3,59.93177366847753,
367.75,368.0,41,0.0,Stimuli/Blank.png,0,0,0.0,0,161,161,161,,,,,,,,,,,,,367.75833930000044,0.008339300000443473,None,401.77229759999864,401.77229759999864,401.77229759999864,401.77229759999864,401.77229759999864,401.77229759999864,401.77229759999864,401.77229759999864,401.77229759999864,401.77229759999864,,008,P014,2025_Feb_28_1701,ConditionRich,2021.2.3,59.93177366847753,
368.0,371.75,23,0.75,Stimuli/P014/things_bug_07s.jpg,0,0,0.0,0,162,162,162,,,,,,,,,,,,,368.00870960000066,0.008709600000656792,None,402.02251799999976,402.02251799999976,402.02251799999976,402.02251799999976,402.02251799999976,402.02251799999976,402.02251799999976,402.02251799999976,402.02251799999976,402.02251799999976,,008,P014,2025_Feb_28_1701,ConditionRich,2021.2.3,59.93177366847753,
371.75,372.0,41,0.0,Stimuli/Blank.png,0,0,0.0,0,163,163,163,,,,,,,,,,,,,371.7622855999998,0.012285599999813712,None,405.7758439999998,405.7758439999998,405.7758439999998,405.7758439999998,405.7758439999998,405.7758439999998,405.7758439999998,405.7758439999998,405.7758439999998,405.7758439999998,,008,P014,2025_Feb_28_1701,ConditionRich,2021.2.3,59.93177366847753,
372.0,388.0,0,0.0,Stimuli/Blank.png,1,5,5.75,0,164,164,164,,,,,,,,,,,,,372.01314549999915,0.013145499999154708,1,406.04274949999854,406.04274949999854,406.04274949999854,406.04274949999854,406.04274949999854,406.04274949999854,411.0138098999996,411.76449049999974,406.04274949999854,406.04274949999854,5.336581599998681,008,P014,2025_Feb_28_1701,ConditionRich,2021.2.3,59.93177366847753,
