eventStartTime,eventEndTime,eventCond,imSize,imFile,responseEvent,fixRespStart,fixRespEnd,Events.thisRepN,Events.thisTrialN,Events.thisN,Events.thisIndex,Instructions.started,Instructions.stopped,participantReadyResponse.keys,participantReadyResponse.rt,participantReadyResponse.started,participantReadyResponse.stopped,startWaitforTrigger,triggerResponse.keys,triggerResponse.rt,triggerResponse.started,triggerResponse.stopped,globalTimer,actualStartTime,startTimingDiff,participantResponse.keys,participantResponse.started,participantResponse.stopped,image.started,image.stopped,fixationOutside.started,fixationOutside.stopped,fixationResponse.started,fixationResponse.stopped,fixationInside.started,fixationInside.stopped,participantResponse.rt,session,participant,date,expName,psychopyVersion,frameRate,
,,,,,,,,,,,,9.81230289999985,None,1,1.6432342999996763,9.81230289999985,None,,,,,,,,,,,,,,,,,,,,,002,P014,2025_Feb_28_1600,ConditionRich,2021.2.3,59.955560938587176,
,,,,,,,,,,,,,,,,,,11.469373500000074,5,20.85186590000012,11.482661800000642,None,,,,,,,,,,,,,,,,002,P014,2025_Feb_28_1600,ConditionRich,2021.2.3,59.955560938587176,
0.0,4.0,0,0.0,Stimuli/Blank.png,0,0,0.0,0,0,0,0,,,,,,,,,,,,32.339157200000045,0.0184002000005421,0.0184002000005421,None,32.36610870000004,None,32.36610870000004,None,32.36610870000004,None,32.36610870000004,32.36610870000004,32.36610870000004,None,,002,P014,2025_Feb_28_1600,ConditionRich,2021.2.3,59.955560938587176,
4.0,7.75,29,0.75,Stimuli/P014/things_iguana_07s.jpg,0,0,0.0,0,1,1,1,,,,,,,,,,,,,4.0034450000002835,0.0034450000002834713,None,36.35531769999943,36.35531769999943,36.35531769999943,36.35531769999943,36.35531769999943,36.35531769999943,36.35531769999943,36.35531769999943,36.35531769999943,36.35531769999943,,002,P014,2025_Feb_28_1600,ConditionRich,2021.2.3,59.955560938587176,
7.75,8.0,41,0.0,Stimuli/Blank.png,0,0,0.0,0,2,2,2,,,,,,,,,,,,,7.754672600000049,0.004672600000048988,None,40.108503600000404,40.108503600000404,40.108503600000404,40.108503600000404,40.108503600000404,40.108503600000404,40.108503600000404,40.108503600000404,40.108503600000404,40.108503600000404,,002,P014,2025_Feb_28_1600,ConditionRich,2021.2.3,59.955560938587176,
8.0,11.75,1,0.75,Stimuli/P014/sun_adkmgqclfrkhfxbd.jpg,0,0,0.0,0,3,3,3,,,,,,,,,,,,,8.004641300000003,0.004641300000002957,None,40.35833129999992,40.35833129999992,40.35833129999992,40.35833129999992,40.35833129999992,40.35833129999992,40.35833129999992,40.35833129999992,40.35833129999992,40.35833129999992,,002,P014,2025_Feb_28_1600,ConditionRich,2021.2.3,59.955560938587176,
11.75,12.0,41,0.0,Stimuli/Blank.png,0,0,0.0,0,4,4,4,,,,,,,,,,,,,11.75820880000174,0.008208800001739291,None,44.11196899999959,44.11196899999959,44.11196899999959,44.11196899999959,44.11196899999959,44.11196899999959,44.11196899999959,44.11196899999959,44.11196899999959,44.11196899999959,,002,P014,2025_Feb_28_1600,ConditionRich,2021.2.3,59.955560938587176,
12.0,15.75,21,0.75,Stimuli/P014/things_baby_07s.jpg,0,0,0.0,0,5,5,5,,,,,,,,,,,,,12.009904100001222,0.009904100001222105,None,44.362097999999605,44.362097999999605,44.362097999999605,44.362097999999605,44.362097999999605,44.362097999999605,44.362097999999605,44.362097999999605,44.362097999999605,44.362097999999605,,002,P014,2025_Feb_28_1600,ConditionRich,2021.2.3,59.955560938587176,
15.75,16.0,41,0.0,Stimuli/Blank.png,0,0,0.0,0,6,6,6,,,,,,,,,,,,,15.762386300000799,0.012386300000798656,None,48.115630899999815,48.115630899999815,48.115630899999815,48.115630899999815,48.115630899999815,48.115630899999815,48.115630899999815,48.115630899999815,48.115630899999815,48.115630899999815,,002,P014,2025_Feb_28_1600,ConditionRich,2021.2.3,59.955560938587176,
16.0,19.75,40,0.75,Stimuli/P014/things_woman_07s.jpg,0,0,0.0,0,7,7,7,,,,,,,,,,,,,16.012396400001307,0.012396400001307484,None,48.36584249999942,48.36584249999942,48.36584249999942,48.36584249999942,48.36584249999942,48.36584249999942,48.36584249999942,48.36584249999942,48.36584249999942,48.36584249999942,,002,P014,2025_Feb_28_1600,ConditionRich,2021.2.3,59.955560938587176,
19.75,20.0,41,0.0,Stimuli/Blank.png,0,0,0.0,0,8,8,8,,,,,,,,,,,,,19.750451200001407,0.0004512000014074147,None,52.10255479999978,52.10255479999978,52.10255479999978,52.10255479999978,52.10255479999978,52.10255479999978,52.10255479999978,52.10255479999978,52.10255479999978,52.10255479999978,,002,P014,2025_Feb_28_1600,ConditionRich,2021.2.3,59.955560938587176,
20.0,23.75,14,0.75,Stimuli/P014/sun_bqhfterhwnqrbnzg.jpg,0,0,0.0,0,9,9,9,,,,,,,,,,,,,19.998747400000866,-0.0012525999991339631,None,52.35236040000018,52.35236040000018,52.35236040000018,52.35236040000018,52.35236040000018,52.35236040000018,52.35236040000018,52.35236040000018,52.35236040000018,52.35236040000018,,002,P014,2025_Feb_28_1600,ConditionRich,2021.2.3,59.955560938587176,
23.75,24.0,41,0.0,Stimuli/Blank.png,0,0,0.0,0,10,10,10,,,,,,,,,,,,,23.75380750000113,0.0038075000011303928,None,56.10577419999936,56.10577419999936,56.10577419999936,56.10577419999936,56.10577419999936,56.10577419999936,56.10577419999936,56.10577419999936,56.10577419999936,56.10577419999936,,002,P014,2025_Feb_28_1600,ConditionRich,2021.2.3,59.955560938587176,
24.0,27.75,7,0.75,Stimuli/P014/sun_aojplsluiikxrfxc.jpg,1,2,2.75,0,11,11,11,,,,,,,,,,,,,24.00218170000153,0.0021817000015289523,1,56.35603330000049,56.35603330000049,56.35603330000049,56.35603330000049,56.35603330000049,56.35603330000049,58.34121260000029,59.092303400000674,56.35603330000049,56.35603330000049,2.4357118000007176,002,P014,2025_Feb_28_1600,ConditionRich,2021.2.3,59.955560938587176,
27.75,28.0,41,0.0,Stimuli/Blank.png,0,0,0.0,0,12,12,12,,,,,,,,,,,,,27.757153100001233,0.007153100001232815,None,60.10948649999955,60.10948649999955,60.10948649999955,60.10948649999955,60.10948649999955,60.10948649999955,60.10948649999955,60.10948649999955,60.10948649999955,60.10948649999955,,002,P014,2025_Feb_28_1600,ConditionRich,2021.2.3,59.955560938587176,
28.0,31.75,32,0.75,Stimuli/P014/things_mistletoe_07s.jpg,1,3,3.75,0,13,13,13,,,,,,,,,,,,,28.007324100000915,0.007324100000914768,1,60.35992310000074,60.35992310000074,60.35992310000074,60.35992310000074,60.35992310000074,60.35992310000074,63.34577449999961,64.09646199999952,60.35992310000074,60.35992310000074,3.3977454000014404,002,P014,2025_Feb_28_1600,ConditionRich,2021.2.3,59.955560938587176,
31.75,32.0,41,0.0,Stimuli/Blank.png,0,0,0.0,0,14,14,14,,,,,,,,,,,,,31.76130910000029,0.011309100000289618,None,64.11314370000036,64.11314370000036,64.11314370000036,64.11314370000036,64.11314370000036,64.11314370000036,64.11314370000036,64.11314370000036,64.11314370000036,64.11314370000036,,002,P014,2025_Feb_28_1600,ConditionRich,2021.2.3,59.955560938587176,
32.0,35.75,38,0.75,Stimuli/P014/things_spark_plug_07s.jpg,0,0,0.0,0,15,15,15,,,,,,,,,,,,,32.0104648000015,0.010464800001500407,None,64.3632319999997,64.3632319999997,64.3632319999997,64.3632319999997,64.3632319999997,64.3632319999997,64.3632319999997,64.3632319999997,64.3632319999997,64.3632319999997,,002,P014,2025_Feb_28_1600,ConditionRich,2021.2.3,59.955560938587176,
35.75,36.0,41,0.0,Stimuli/Blank.png,0,0,0.0,0,16,16,16,,,,,,,,,,,,,35.764689000001454,0.014689000001453678,None,68.11653990000013,68.11653990000013,68.11653990000013,68.11653990000013,68.11653990000013,68.11653990000013,68.11653990000013,68.11653990000013,68.11653990000013,68.11653990000013,,002,P014,2025_Feb_28_1600,ConditionRich,2021.2.3,59.955560938587176,
36.0,39.75,25,0.75,Stimuli/P014/things_cashew_07s.jpg,0,0,0.0,0,17,17,17,,,,,,,,,,,,,36.013908800001445,0.013908800001445343,None,68.3666663999993,68.3666663999993,68.3666663999993,68.3666663999993,68.3666663999993,68.3666663999993,68.3666663999993,68.3666663999993,68.3666663999993,68.3666663999993,,002,P014,2025_Feb_28_1600,ConditionRich,2021.2.3,59.955560938587176,
39.75,40.0,41,0.0,Stimuli/Blank.png,0,0,0.0,0,18,18,18,,,,,,,,,,,,,39.75157200000103,0.0015720000010333024,None,72.10357599999952,72.10357599999952,72.10357599999952,72.10357599999952,72.10357599999952,72.10357599999952,72.10357599999952,72.10357599999952,72.10357599999952,72.10357599999952,,002,P014,2025_Feb_28_1600,ConditionRich,2021.2.3,59.955560938587176,
40.0,43.75,22,0.75,Stimuli/P014/things_banner_07s.jpg,0,0,0.0,0,19,19,19,,,,,,,,,,,,,40.000587800001085,0.0005878000010852702,None,72.35373450000043,72.35373450000043,72.35373450000043,72.35373450000043,72.35373450000043,72.35373450000043,72.35373450000043,72.35373450000043,72.35373450000043,72.35373450000043,,002,P014,2025_Feb_28_1600,ConditionRich,2021.2.3,59.955560938587176,
43.75,44.0,41,0.0,Stimuli/Blank.png,0,0,0.0,0,20,20,20,,,,,,,,,,,,,43.75332460000027,0.003324600000269129,None,76.10701639999934,76.10701639999934,76.10701639999934,76.10701639999934,76.10701639999934,76.10701639999934,76.10701639999934,76.10701639999934,76.10701639999934,76.10701639999934,,002,P014,2025_Feb_28_1600,ConditionRich,2021.2.3,59.955560938587176,
44.0,47.75,34,0.75,Stimuli/P014/things_radio_07s.jpg,0,0,0.0,0,21,21,21,,,,,,,,,,,,,44.00425220000034,0.004252200000337325,None,76.35722320000059,76.35722320000059,76.35722320000059,76.35722320000059,76.35722320000059,76.35722320000059,76.35722320000059,76.35722320000059,76.35722320000059,76.35722320000059,,002,P014,2025_Feb_28_1600,ConditionRich,2021.2.3,59.955560938587176,
47.75,48.0,41,0.0,Stimuli/Blank.png,0,0,0.0,0,22,22,22,,,,,,,,,,,,,47.758381000001464,0.00838100000146369,None,80.11064070000066,80.11064070000066,80.11064070000066,80.11064070000066,80.11064070000066,80.11064070000066,80.11064070000066,80.11064070000066,80.11064070000066,80.11064070000066,,002,P014,2025_Feb_28_1600,ConditionRich,2021.2.3,59.955560938587176,
48.0,51.75,3,0.75,Stimuli/P014/sun_aengzsmykwchlrdn.jpg,0,0,0.0,0,23,23,23,,,,,,,,,,,,,48.007943100001285,0.00794310000128462,None,80.36053229999925,80.36053229999925,80.36053229999925,80.36053229999925,80.36053229999925,80.36053229999925,80.36053229999925,80.36053229999925,80.36053229999925,80.36053229999925,,002,P014,2025_Feb_28_1600,ConditionRich,2021.2.3,59.955560938587176,
51.75,52.0,41,0.0,Stimuli/Blank.png,0,0,0.0,0,24,24,24,,,,,,,,,,,,,51.761374600000636,0.011374600000635837,None,84.11402459999954,84.11402459999954,84.11402459999954,84.11402459999954,84.11402459999954,84.11402459999954,84.11402459999954,84.11402459999954,84.11402459999954,84.11402459999954,,002,P014,2025_Feb_28_1600,ConditionRich,2021.2.3,59.955560938587176,
52.0,55.75,5,0.75,Stimuli/P014/sun_aidrxvbfhxtsusrf.jpg,0,0,0.0,0,25,25,25,,,,,,,,,,,,,52.01131020000139,0.011310200001389603,None,84.36429870000029,84.36429870000029,84.36429870000029,84.36429870000029,84.36429870000029,84.36429870000029,84.36429870000029,84.36429870000029,84.36429870000029,84.36429870000029,,002,P014,2025_Feb_28_1600,ConditionRich,2021.2.3,59.955560938587176,
55.75,56.0,41,0.0,Stimuli/Blank.png,0,0,0.0,0,26,26,26,,,,,,,,,,,,,55.765140800000154,0.015140800000153831,None,88.11778029999914,88.11778029999914,88.11778029999914,88.11778029999914,88.11778029999914,88.11778029999914,88.11778029999914,88.11778029999914,88.11778029999914,88.11778029999914,,002,P014,2025_Feb_28_1600,ConditionRich,2021.2.3,59.955560938587176,
56.0,59.75,8,0.75,Stimuli/P014/sun_auqrilekgmdmrncq.jpg,0,0,0.0,0,27,27,27,,,,,,,,,,,,,56.015508800001044,0.01550880000104371,None,88.36791690000064,88.36791690000064,88.36791690000064,88.36791690000064,88.36791690000064,88.36791690000064,88.36791690000064,88.36791690000064,88.36791690000064,88.36791690000064,,002,P014,2025_Feb_28_1600,ConditionRich,2021.2.3,59.955560938587176,
59.75,60.0,41,0.0,Stimuli/Blank.png,0,0,0.0,0,28,28,28,,,,,,,,,,,,,59.75269770000159,0.0026977000015904196,None,92.10458339999968,92.10458339999968,92.10458339999968,92.10458339999968,92.10458339999968,92.10458339999968,92.10458339999968,92.10458339999968,92.10458339999968,92.10458339999968,,002,P014,2025_Feb_28_1600,ConditionRich,2021.2.3,59.955560938587176,
60.0,63.75,30,0.75,Stimuli/P014/things_man_07s.jpg,1,1,1.75,0,29,29,29,,,,,,,,,,,,,60.00098770000113,0.0009877000011329073,1,92.35480769999958,92.35480769999958,92.35480769999958,92.35480769999958,92.35480769999958,92.35480769999958,93.3386929999997,94.08968230000028,92.35480769999958,92.35480769999958,1.4224990000002435,002,P014,2025_Feb_28_1600,ConditionRich,2021.2.3,59.955560938587176,
63.75,64.0,41,0.0,Stimuli/Blank.png,0,0,0.0,0,30,30,30,,,,,,,,,,,,,63.755547800001295,0.0055478000012954,None,96.10813219999909,96.10813219999909,96.10813219999909,96.10813219999909,96.10813219999909,96.10813219999909,96.10813219999909,96.10813219999909,96.10813219999909,96.10813219999909,,002,P014,2025_Feb_28_1600,ConditionRich,2021.2.3,59.955560938587176,
64.0,67.75,13,0.75,Stimuli/P014/sun_bpccpwpohfirajtf.jpg,0,0,0.0,0,31,31,31,,,,,,,,,,,,,64.00466870000128,0.004668700001275283,None,96.35784599999897,96.35784599999897,96.35784599999897,96.35784599999897,96.35784599999897,96.35784599999897,96.35784599999897,96.35784599999897,96.35784599999897,96.35784599999897,,002,P014,2025_Feb_28_1600,ConditionRich,2021.2.3,59.955560938587176,
67.75,68.0,41,0.0,Stimuli/Blank.png,0,0,0.0,0,32,32,32,,,,,,,,,,,,,67.76028590000169,0.010285900001690607,None,100.11141549999957,100.11141549999957,100.11141549999957,100.11141549999957,100.11141549999957,100.11141549999957,100.11141549999957,100.11141549999957,100.11141549999957,100.11141549999957,,002,P014,2025_Feb_28_1600,ConditionRich,2021.2.3,59.955560938587176,
68.0,71.75,2,0.75,Stimuli/P014/sun_adotnsaifoooswkf.jpg,1,2,2.75,0,33,33,33,,,,,,,,,,,,,68.00994700000047,0.009947000000465778,1,100.3627235999993,100.3627235999993,100.3627235999993,100.3627235999993,100.3627235999993,100.3627235999993,102.36345719999917,103.11434249999911,100.3627235999993,100.3627235999993,2.3656876999993983,002,P014,2025_Feb_28_1600,ConditionRich,2021.2.3,59.955560938587176,
71.75,72.0,41,0.0,Stimuli/Blank.png,0,0,0.0,0,34,34,34,,,,,,,,,,,,,71.76248200000009,0.01248200000009092,None,104.11536859999978,104.11536859999978,104.11536859999978,104.11536859999978,104.11536859999978,104.11536859999978,104.11536859999978,104.11536859999978,104.11536859999978,104.11536859999978,,002,P014,2025_Feb_28_1600,ConditionRich,2021.2.3,59.955560938587176,
72.0,75.75,20,0.75,Stimuli/P014/sun_cidodcxikcyrdglc.jpg,0,0,0.0,0,35,35,35,,,,,,,,,,,,,72.0125551000001,0.012555100000099628,None,104.36514949999946,104.36514949999946,104.36514949999946,104.36514949999946,104.36514949999946,104.36514949999946,104.36514949999946,104.36514949999946,104.36514949999946,104.36514949999946,,002,P014,2025_Feb_28_1600,ConditionRich,2021.2.3,59.955560938587176,
75.75,76.0,41,0.0,Stimuli/Blank.png,0,0,0.0,0,36,36,36,,,,,,,,,,,,,75.75121180000133,0.001211800001328811,None,108.10348320000048,108.10348320000048,108.10348320000048,108.10348320000048,108.10348320000048,108.10348320000048,108.10348320000048,108.10348320000048,108.10348320000048,108.10348320000048,,002,P014,2025_Feb_28_1600,ConditionRich,2021.2.3,59.955560938587176,
76.0,79.75,19,0.75,Stimuli/P014/sun_buphlelowxjnoygy.jpg,0,0,0.0,0,37,37,37,,,,,,,,,,,,,75.99985350000134,-0.00014649999866378494,None,108.35208959999909,108.35208959999909,108.35208959999909,108.35208959999909,108.35208959999909,108.35208959999909,108.35208959999909,108.35208959999909,108.35208959999909,108.35208959999909,,002,P014,2025_Feb_28_1600,ConditionRich,2021.2.3,59.955560938587176,
79.75,80.0,41,0.0,Stimuli/Blank.png,0,0,0.0,0,38,38,38,,,,,,,,,,,,,79.75308160000168,0.003081600001678453,None,112.10566689999905,112.10566689999905,112.10566689999905,112.10566689999905,112.10566689999905,112.10566689999905,112.10566689999905,112.10566689999905,112.10566689999905,112.10566689999905,,002,P014,2025_Feb_28_1600,ConditionRich,2021.2.3,59.955560938587176,
80.0,83.75,17,0.75,Stimuli/P014/sun_bsguftphqnrkbedw.jpg,0,0,0.0,0,39,39,39,,,,,,,,,,,,,80.00340210000104,0.0034021000010397984,None,112.35548000000017,112.35548000000017,112.35548000000017,112.35548000000017,112.35548000000017,112.35548000000017,112.35548000000017,112.35548000000017,112.35548000000017,112.35548000000017,,002,P014,2025_Feb_28_1600,ConditionRich,2021.2.3,59.955560938587176,
83.75,84.0,41,0.0,Stimuli/Blank.png,0,0,0.0,0,40,40,40,,,,,,,,,,,,,83.75706850000097,0.007068500000968925,None,116.10899900000004,116.10899900000004,116.10899900000004,116.10899900000004,116.10899900000004,116.10899900000004,116.10899900000004,116.10899900000004,116.10899900000004,116.10899900000004,,002,P014,2025_Feb_28_1600,ConditionRich,2021.2.3,59.955560938587176,
84.0,100.0,0,0.0,Stimuli/Blank.png,1,13,13.75,0,41,41,41,,,,,,,,,,,,,84.00552900000002,0.005529000000024098,1,116.35913549999896,116.35913549999896,116.35913549999896,116.35913549999896,116.35913549999896,116.35913549999896,129.33769260000008,130.08836750000046,116.35913549999896,116.35913549999896,13.410628100000395,002,P014,2025_Feb_28_1600,ConditionRich,2021.2.3,59.955560938587176,
100.0,103.75,6,0.75,Stimuli/P014/sun_aoejkkmwkfegacni.jpg,1,1,1.75,0,42,42,42,,,,,,,,,,,,,100.00423680000131,0.004236800001308438,1,132.35653730000013,132.35653730000013,132.35653730000013,132.35653730000013,132.35653730000013,132.35653730000013,133.3410514999996,134.09177099999943,132.35653730000013,132.35653730000013,1.5788525000007212,002,P014,2025_Feb_28_1600,ConditionRich,2021.2.3,59.955560938587176,
103.75,104.0,41,0.0,Stimuli/Blank.png,0,0,0.0,0,43,43,43,,,,,,,,,,,,,103.75718110000162,0.007181100001616869,None,136.10989990000053,136.10989990000053,136.10989990000053,136.10989990000053,136.10989990000053,136.10989990000053,136.10989990000053,136.10989990000053,136.10989990000053,136.10989990000053,,002,P014,2025_Feb_28_1600,ConditionRich,2021.2.3,59.955560938587176,
104.0,107.75,27,0.75,Stimuli/P014/things_face_07s.jpg,0,0,0.0,0,44,44,44,,,,,,,,,,,,,104.00837260000117,0.008372600001166575,None,136.36003449999953,136.36003449999953,136.36003449999953,136.36003449999953,136.36003449999953,136.36003449999953,136.36003449999953,136.36003449999953,136.36003449999953,136.36003449999953,,002,P014,2025_Feb_28_1600,ConditionRich,2021.2.3,59.955560938587176,
107.75,108.0,41,0.0,Stimuli/Blank.png,0,0,0.0,0,45,45,45,,,,,,,,,,,,,107.76017590000083,0.010175900000831462,None,140.1134504999991,140.1134504999991,140.1134504999991,140.1134504999991,140.1134504999991,140.1134504999991,140.1134504999991,140.1134504999991,140.1134504999991,140.1134504999991,,002,P014,2025_Feb_28_1600,ConditionRich,2021.2.3,59.955560938587176,
108.0,111.75,16,0.75,Stimuli/P014/sun_bsgtkqjrnrvttrax.jpg,1,0,0.75,0,46,46,46,,,,,,,,,,,,,108.0124377000011,0.012437700001100893,1,140.36441939999895,140.36441939999895,140.36441939999895,140.36441939999895,140.36441939999895,140.36441939999895,140.36441939999895,141.11438869999984,140.36441939999895,140.36441939999895,0.626315199999226,002,P014,2025_Feb_28_1600,ConditionRich,2021.2.3,59.955560938587176,
111.75,112.0,41,0.0,Stimuli/Blank.png,0,0,0.0,0,47,47,47,,,,,,,,,,,,,111.76494140000068,0.014941400000680005,None,144.11735769999905,144.11735769999905,144.11735769999905,144.11735769999905,144.11735769999905,144.11735769999905,144.11735769999905,144.11735769999905,144.11735769999905,144.11735769999905,,002,P014,2025_Feb_28_1600,ConditionRich,2021.2.3,59.955560938587176,
112.0,115.75,28,0.75,Stimuli/P014/things_girl_07s.jpg,0,0,0.0,0,48,48,48,,,,,,,,,,,,,112.01516670000092,0.015166700000918354,None,144.36753019999924,144.36753019999924,144.36753019999924,144.36753019999924,144.36753019999924,144.36753019999924,144.36753019999924,144.36753019999924,144.36753019999924,144.36753019999924,,002,P014,2025_Feb_28_1600,ConditionRich,2021.2.3,59.955560938587176,
115.75,116.0,41,0.0,Stimuli/Blank.png,0,0,0.0,0,49,49,49,,,,,,,,,,,,,115.75222080000094,0.002220800000941381,None,148.1041929999992,148.1041929999992,148.1041929999992,148.1041929999992,148.1041929999992,148.1041929999992,148.1041929999992,148.1041929999992,148.1041929999992,148.1041929999992,,002,P014,2025_Feb_28_1600,ConditionRich,2021.2.3,59.955560938587176,
116.0,119.75,35,0.75,Stimuli/P014/things_road_sign_07s.jpg,1,3,3.75,0,50,50,50,,,,,,,,,,,,,116.00189640000099,0.0018964000009873416,1,148.3543050999997,148.3543050999997,148.3543050999997,148.3543050999997,148.3543050999997,148.3543050999997,151.34045569999944,152.0910514999996,148.3543050999997,148.3543050999997,3.40823249999994,002,P014,2025_Feb_28_1600,ConditionRich,2021.2.3,59.955560938587176,
119.75,120.0,41,0.0,Stimuli/Blank.png,0,0,0.0,0,51,51,51,,,,,,,,,,,,,119.75537250000161,0.005372500001612934,None,152.1074389000005,152.1074389000005,152.1074389000005,152.1074389000005,152.1074389000005,152.1074389000005,152.1074389000005,152.1074389000005,152.1074389000005,152.1074389000005,,002,P014,2025_Feb_28_1600,ConditionRich,2021.2.3,59.955560938587176,
120.0,123.75,9,0.75,Stimuli/P014/sun_bdgwqzttihopmpbf.jpg,0,0,0.0,0,52,52,52,,,,,,,,,,,,,120.00528840000152,0.005288400001518312,None,152.3578895999999,152.3578895999999,152.3578895999999,152.3578895999999,152.3578895999999,152.3578895999999,152.3578895999999,152.3578895999999,152.3578895999999,152.3578895999999,,002,P014,2025_Feb_28_1600,ConditionRich,2021.2.3,59.955560938587176,
123.75,124.0,41,0.0,Stimuli/Blank.png,0,0,0.0,0,53,53,53,,,,,,,,,,,,,123.75879789999999,0.008797899999990477,None,156.11182829999962,156.11182829999962,156.11182829999962,156.11182829999962,156.11182829999962,156.11182829999962,156.11182829999962,156.11182829999962,156.11182829999962,156.11182829999962,,002,P014,2025_Feb_28_1600,ConditionRich,2021.2.3,59.955560938587176,
124.0,127.75,15,0.75,Stimuli/P014/sun_brezwczwwllviogu.jpg,0,0,0.0,0,54,54,54,,,,,,,,,,,,,124.00741160000143,0.0074116000014328165,None,156.36158169999908,156.36158169999908,156.36158169999908,156.36158169999908,156.36158169999908,156.36158169999908,156.36158169999908,156.36158169999908,156.36158169999908,156.36158169999908,,002,P014,2025_Feb_28_1600,ConditionRich,2021.2.3,59.955560938587176,
127.75,128.0,41,0.0,Stimuli/Blank.png,0,0,0.0,0,55,55,55,,,,,,,,,,,,,127.7622635000007,0.012263500000699423,None,160.11477620000005,160.11477620000005,160.11477620000005,160.11477620000005,160.11477620000005,160.11477620000005,160.11477620000005,160.11477620000005,160.11477620000005,160.11477620000005,,002,P014,2025_Feb_28_1600,ConditionRich,2021.2.3,59.955560938587176,
128.0,131.75,24,0.75,Stimuli/P014/things_bungee_07s.jpg,0,0,0.0,0,56,56,56,,,,,,,,,,,,,128.01223090000167,0.012230900001668488,None,160.36501689999932,160.36501689999932,160.36501689999932,160.36501689999932,160.36501689999932,160.36501689999932,160.36501689999932,160.36501689999932,160.36501689999932,160.36501689999932,,002,P014,2025_Feb_28_1600,ConditionRich,2021.2.3,59.955560938587176,
131.75,132.0,41,0.0,Stimuli/Blank.png,0,0,0.0,0,57,57,57,,,,,,,,,,,,,131.76574830000027,0.0157483000002685,None,164.11817490000067,164.11817490000067,164.11817490000067,164.11817490000067,164.11817490000067,164.11817490000067,164.11817490000067,164.11817490000067,164.11817490000067,164.11817490000067,,002,P014,2025_Feb_28_1600,ConditionRich,2021.2.3,59.955560938587176,
132.0,135.75,36,0.75,Stimuli/P014/things_seafood_07s.jpg,0,0,0.0,0,58,58,58,,,,,,,,,,,,,131.99933210000017,-0.0006678999998257495,None,164.35185160000037,164.35185160000037,164.35185160000037,164.35185160000037,164.35185160000037,164.35185160000037,164.35185160000037,164.35185160000037,164.35185160000037,164.35185160000037,,002,P014,2025_Feb_28_1600,ConditionRich,2021.2.3,59.955560938587176,
135.75,136.0,41,0.0,Stimuli/Blank.png,0,0,0.0,0,59,59,59,,,,,,,,,,,,,135.7524981000006,0.002498100000593695,None,168.1052194999993,168.1052194999993,168.1052194999993,168.1052194999993,168.1052194999993,168.1052194999993,168.1052194999993,168.1052194999993,168.1052194999993,168.1052194999993,,002,P014,2025_Feb_28_1600,ConditionRich,2021.2.3,59.955560938587176,
136.0,139.75,4,0.75,Stimuli/P014/sun_afgoiykvchxqotyz.jpg,1,1,1.75,0,60,60,60,,,,,,,,,,,,,136.00438930000018,0.0043893000001844484,None,168.3574848999997,168.3574848999997,168.3574848999997,168.3574848999997,168.3574848999997,168.3574848999997,169.35635469999943,170.1070691999994,168.3574848999997,168.3574848999997,,002,P014,2025_Feb_28_1600,ConditionRich,2021.2.3,59.955560938587176,
139.75,140.0,41,0.0,Stimuli/Blank.png,0,0,0.0,0,61,61,61,,,,,,,,,,,,,139.75778730000093,0.007787300000927644,None,172.12546040000052,172.12546040000052,172.12546040000052,172.12546040000052,172.12546040000052,172.12546040000052,172.12546040000052,172.12546040000052,172.12546040000052,172.12546040000052,,002,P014,2025_Feb_28_1600,ConditionRich,2021.2.3,59.955560938587176,
140.0,143.75,31,0.75,Stimuli/P014/things_mask_07s.jpg,0,0,0.0,0,62,62,62,,,,,,,,,,,,,140.02297490000092,0.02297490000091784,None,172.37553069999922,172.37553069999922,172.37553069999922,172.37553069999922,172.37553069999922,172.37553069999922,172.37553069999922,172.37553069999922,172.37553069999922,172.37553069999922,,002,P014,2025_Feb_28_1600,ConditionRich,2021.2.3,59.955560938587176,
143.75,144.0,41,0.0,Stimuli/Blank.png,0,0,0.0,0,63,63,63,,,,,,,,,,,,,143.75819990000127,0.008199900001272908,None,176.11187690000042,176.11187690000042,176.11187690000042,176.11187690000042,176.11187690000042,176.11187690000042,176.11187690000042,176.11187690000042,176.11187690000042,176.11187690000042,,002,P014,2025_Feb_28_1600,ConditionRich,2021.2.3,59.955560938587176,
144.0,147.75,10,0.75,Stimuli/P014/sun_bdhxnzyleoiflyak.jpg,0,0,0.0,0,64,64,64,,,,,,,,,,,,,144.00939710000057,0.00939710000056948,None,176.3623931000002,176.3623931000002,176.3623931000002,176.3623931000002,176.3623931000002,176.3623931000002,176.3623931000002,176.3623931000002,176.3623931000002,176.3623931000002,,002,P014,2025_Feb_28_1600,ConditionRich,2021.2.3,59.955560938587176,
147.75,148.0,41,0.0,Stimuli/Blank.png,0,0,0.0,0,65,65,65,,,,,,,,,,,,,147.76207760000034,0.012077600000338862,None,180.11550329999955,180.11550329999955,180.11550329999955,180.11550329999955,180.11550329999955,180.11550329999955,180.11550329999955,180.11550329999955,180.11550329999955,180.11550329999955,,002,P014,2025_Feb_28_1600,ConditionRich,2021.2.3,59.955560938587176,
148.0,151.75,23,0.75,Stimuli/P014/things_bug_07s.jpg,0,0,0.0,0,66,66,66,,,,,,,,,,,,,148.01194390000092,0.011943900000915164,None,180.36575400000038,180.36575400000038,180.36575400000038,180.36575400000038,180.36575400000038,180.36575400000038,180.36575400000038,180.36575400000038,180.36575400000038,180.36575400000038,,002,P014,2025_Feb_28_1600,ConditionRich,2021.2.3,59.955560938587176,
151.75,152.0,41,0.0,Stimuli/Blank.png,0,0,0.0,0,67,67,67,,,,,,,,,,,,,151.76682880000044,0.016828800000439514,None,184.11898210000072,184.11898210000072,184.11898210000072,184.11898210000072,184.11898210000072,184.11898210000072,184.11898210000072,184.11898210000072,184.11898210000072,184.11898210000072,,002,P014,2025_Feb_28_1600,ConditionRich,2021.2.3,59.955560938587176,
152.0,155.75,33,0.75,Stimuli/P014/things_piglet_07s.jpg,1,1,1.75,0,68,68,68,,,,,,,,,,,,,152.00085330000002,0.0008533000000170432,1,184.35282209999968,184.35282209999968,184.35282209999968,184.35282209999968,184.35282209999968,184.35282209999968,185.35391440000058,186.10455829999955,184.35282209999968,184.35282209999968,1.3566633999998885,002,P014,2025_Feb_28_1600,ConditionRich,2021.2.3,59.955560938587176,
155.75,156.0,41,0.0,Stimuli/Blank.png,0,0,0.0,0,69,69,69,,,,,,,,,,,,,155.75460060000114,0.004600600001140265,None,188.1063181999998,188.1063181999998,188.1063181999998,188.1063181999998,188.1063181999998,188.1063181999998,188.1063181999998,188.1063181999998,188.1063181999998,188.1063181999998,,002,P014,2025_Feb_28_1600,ConditionRich,2021.2.3,59.955560938587176,
156.0,159.75,11,0.75,Stimuli/P014/sun_bfyxzbjsvqsobbky.jpg,0,0,0.0,0,70,70,70,,,,,,,,,,,,,156.00267950000125,0.002679500001249835,None,188.35615899999902,188.35615899999902,188.35615899999902,188.35615899999902,188.35615899999902,188.35615899999902,188.35615899999902,188.35615899999902,188.35615899999902,188.35615899999902,,002,P014,2025_Feb_28_1600,ConditionRich,2021.2.3,59.955560938587176,
159.75,160.0,41,0.0,Stimuli/Blank.png,0,0,0.0,0,71,71,71,,,,,,,,,,,,,159.7576495000012,0.007649500001207343,None,192.10972050000055,192.10972050000055,192.10972050000055,192.10972050000055,192.10972050000055,192.10972050000055,192.10972050000055,192.10972050000055,192.10972050000055,192.10972050000055,,002,P014,2025_Feb_28_1600,ConditionRich,2021.2.3,59.955560938587176,
160.0,163.75,39,0.75,Stimuli/P014/things_violin_07n.jpg,0,0,0.0,0,72,72,72,,,,,,,,,,,,,160.0058867000007,0.005886700000701239,None,192.35998169999948,192.35998169999948,192.35998169999948,192.35998169999948,192.35998169999948,192.35998169999948,192.35998169999948,192.35998169999948,192.35998169999948,192.35998169999948,,002,P014,2025_Feb_28_1600,ConditionRich,2021.2.3,59.955560938587176,
163.75,164.0,41,0.0,Stimuli/Blank.png,0,0,0.0,0,73,73,73,,,,,,,,,,,,,163.76023320000058,0.010233200000584475,None,196.11329699999987,196.11329699999987,196.11329699999987,196.11329699999987,196.11329699999987,196.11329699999987,196.11329699999987,196.11329699999987,196.11329699999987,196.11329699999987,,002,P014,2025_Feb_28_1600,ConditionRich,2021.2.3,59.955560938587176,
164.0,167.75,18,0.75,Stimuli/P014/sun_btohwudpiusfvpvl.jpg,0,0,0.0,0,74,74,74,,,,,,,,,,,,,164.0111104000007,0.01111040000068897,1,196.36327250000068,196.36327250000068,196.36327250000068,196.36327250000068,196.36327250000068,196.36327250000068,196.36327250000068,196.36327250000068,196.36327250000068,196.36327250000068,2.621515400000135,002,P014,2025_Feb_28_1600,ConditionRich,2021.2.3,59.955560938587176,
167.75,168.0,41,0.0,Stimuli/Blank.png,0,0,0.0,0,75,75,75,,,,,,,,,,,,,167.7647988000008,0.014798800000789925,None,200.11698260000048,200.11698260000048,200.11698260000048,200.11698260000048,200.11698260000048,200.11698260000048,200.11698260000048,200.11698260000048,200.11698260000048,200.11698260000048,,002,P014,2025_Feb_28_1600,ConditionRich,2021.2.3,59.955560938587176,
168.0,171.75,37,0.75,Stimuli/P014/things_slug_07s.jpg,0,0,0.0,0,76,76,76,,,,,,,,,,,,,168.01456600000165,0.014566000001650536,None,200.3668959000006,200.3668959000006,200.3668959000006,200.3668959000006,200.3668959000006,200.3668959000006,200.3668959000006,200.3668959000006,200.3668959000006,200.3668959000006,,002,P014,2025_Feb_28_1600,ConditionRich,2021.2.3,59.955560938587176,
171.75,172.0,41,0.0,Stimuli/Blank.png,0,0,0.0,0,77,77,77,,,,,,,,,,,,,171.75073610000072,0.0007361000007222174,None,204.1039464000005,204.1039464000005,204.1039464000005,204.1039464000005,204.1039464000005,204.1039464000005,204.1039464000005,204.1039464000005,204.1039464000005,204.1039464000005,,002,P014,2025_Feb_28_1600,ConditionRich,2021.2.3,59.955560938587176,
172.0,175.75,12,0.75,Stimuli/P014/sun_bjyrrxiwsnbmkbqs.jpg,0,0,0.0,0,78,78,78,,,,,,,,,,,,,172.00116780000099,0.001167800000985153,None,204.3539180000007,204.3539180000007,204.3539180000007,204.3539180000007,204.3539180000007,204.3539180000007,204.3539180000007,204.3539180000007,204.3539180000007,204.3539180000007,,002,P014,2025_Feb_28_1600,ConditionRich,2021.2.3,59.955560938587176,
175.75,176.0,41,0.0,Stimuli/Blank.png,0,0,0.0,0,79,79,79,,,,,,,,,,,,,175.755157900001,0.0051579000009951415,None,208.1073923999993,208.1073923999993,208.1073923999993,208.1073923999993,208.1073923999993,208.1073923999993,208.1073923999993,208.1073923999993,208.1073923999993,208.1073923999993,,002,P014,2025_Feb_28_1600,ConditionRich,2021.2.3,59.955560938587176,
176.0,179.75,26,0.75,Stimuli/P014/things_cougar_07s.jpg,0,0,0.0,0,80,80,80,,,,,,,,,,,,,176.00349000000097,0.003490000000965665,None,208.35752110000067,208.35752110000067,208.35752110000067,208.35752110000067,208.35752110000067,208.35752110000067,208.35752110000067,208.35752110000067,208.35752110000067,208.35752110000067,,002,P014,2025_Feb_28_1600,ConditionRich,2021.2.3,59.955560938587176,
179.75,180.0,41,0.0,Stimuli/Blank.png,0,0,0.0,0,81,81,81,,,,,,,,,,,,,179.75895930000115,0.00895930000115186,None,212.11103679999906,212.11103679999906,212.11103679999906,212.11103679999906,212.11103679999906,212.11103679999906,212.11103679999906,212.11103679999906,212.11103679999906,212.11103679999906,,002,P014,2025_Feb_28_1600,ConditionRich,2021.2.3,59.955560938587176,
180.0,196.0,0,0.0,Stimuli/Blank.png,1,12,12.75,0,82,82,82,,,,,,,,,,,,,180.00809570000092,0.00809570000092208,None,212.36096270000053,212.36096270000053,212.36096270000053,212.36096270000053,212.36096270000053,212.36096270000053,224.35507270000016,225.08923689999938,212.36096270000053,212.36096270000053,,002,P014,2025_Feb_28_1600,ConditionRich,2021.2.3,59.955560938587176,
196.0,199.75,14,0.75,Stimuli/P014/sun_bqhfterhwnqrbnzg.jpg,0,0,0.0,0,83,83,83,,,,,,,,,,,,,196.00651490000018,0.006514900000183843,None,228.3585192999999,228.3585192999999,228.3585192999999,228.3585192999999,228.3585192999999,228.3585192999999,228.3585192999999,228.3585192999999,228.3585192999999,228.3585192999999,,002,P014,2025_Feb_28_1600,ConditionRich,2021.2.3,59.955560938587176,
199.75,200.0,41,0.0,Stimuli/Blank.png,0,0,0.0,0,84,84,84,,,,,,,,,,,,,199.75937910000175,0.009379100001751794,None,232.11162069999955,232.11162069999955,232.11162069999955,232.11162069999955,232.11162069999955,232.11162069999955,232.11162069999955,232.11162069999955,232.11162069999955,232.11162069999955,,002,P014,2025_Feb_28_1600,ConditionRich,2021.2.3,59.955560938587176,
200.0,203.75,36,0.75,Stimuli/P014/things_seafood_07s.jpg,0,0,0.0,0,85,85,85,,,,,,,,,,,,,200.00916770000003,0.009167700000034529,None,232.36216969999987,232.36216969999987,232.36216969999987,232.36216969999987,232.36216969999987,232.36216969999987,232.36216969999987,232.36216969999987,232.36216969999987,232.36216969999987,,002,P014,2025_Feb_28_1600,ConditionRich,2021.2.3,59.955560938587176,
203.75,204.0,41,0.0,Stimuli/Blank.png,0,0,0.0,0,86,86,86,,,,,,,,,,,,,203.76306600000134,0.013066000001344946,None,236.1154915999996,236.1154915999996,236.1154915999996,236.1154915999996,236.1154915999996,236.1154915999996,236.1154915999996,236.1154915999996,236.1154915999996,236.1154915999996,,002,P014,2025_Feb_28_1600,ConditionRich,2021.2.3,59.955560938587176,
204.0,207.75,20,0.75,Stimuli/P014/sun_cidodcxikcyrdglc.jpg,0,0,0.0,0,87,87,87,,,,,,,,,,,,,204.01258790000065,0.012587900000653462,None,236.36537999999928,236.36537999999928,236.36537999999928,236.36537999999928,236.36537999999928,236.36537999999928,236.36537999999928,236.36537999999928,236.36537999999928,236.36537999999928,,002,P014,2025_Feb_28_1600,ConditionRich,2021.2.3,59.955560938587176,
207.75,208.0,41,0.0,Stimuli/Blank.png,0,0,0.0,0,88,88,88,,,,,,,,,,,,,207.7495770000005,-0.00042299999950046185,None,240.10213099999964,240.10213099999964,240.10213099999964,240.10213099999964,240.10213099999964,240.10213099999964,240.10213099999964,240.10213099999964,240.10213099999964,240.10213099999964,,002,P014,2025_Feb_28_1600,ConditionRich,2021.2.3,59.955560938587176,
208.0,211.75,38,0.75,Stimuli/P014/things_spark_plug_07s.jpg,0,0,0.0,0,89,89,89,,,,,,,,,,,,,207.9997583000004,-0.00024169999960577115,None,240.35252589999982,240.35252589999982,240.35252589999982,240.35252589999982,240.35252589999982,240.35252589999982,240.35252589999982,240.35252589999982,240.35252589999982,240.35252589999982,,002,P014,2025_Feb_28_1600,ConditionRich,2021.2.3,59.955560938587176,
211.75,212.0,41,0.0,Stimuli/Blank.png,0,0,0.0,0,90,90,90,,,,,,,,,,,,,211.7533097000014,0.00330970000140951,None,244.1055835999996,244.1055835999996,244.1055835999996,244.1055835999996,244.1055835999996,244.1055835999996,244.1055835999996,244.1055835999996,244.1055835999996,244.1055835999996,,002,P014,2025_Feb_28_1600,ConditionRich,2021.2.3,59.955560938587176,
212.0,215.75,40,0.75,Stimuli/P014/things_woman_07s.jpg,0,0,0.0,0,91,91,91,,,,,,,,,,,,,212.00291170000128,0.002911700001277495,None,244.35590199999933,244.35590199999933,244.35590199999933,244.35590199999933,244.35590199999933,244.35590199999933,244.35590199999933,244.35590199999933,244.35590199999933,244.35590199999933,,002,P014,2025_Feb_28_1600,ConditionRich,2021.2.3,59.955560938587176,
215.75,216.0,41,0.0,Stimuli/Blank.png,0,0,0.0,0,92,92,92,,,,,,,,,,,,,215.75739539999995,0.007395399999950314,None,248.1105160999996,248.1105160999996,248.1105160999996,248.1105160999996,248.1105160999996,248.1105160999996,248.1105160999996,248.1105160999996,248.1105160999996,248.1105160999996,,002,P014,2025_Feb_28_1600,ConditionRich,2021.2.3,59.955560938587176,
216.0,219.75,11,0.75,Stimuli/P014/sun_bfyxzbjsvqsobbky.jpg,0,0,0.0,0,93,93,93,,,,,,,,,,,,,216.00625290000062,0.006252900000617956,None,248.3596576,248.3596576,248.3596576,248.3596576,248.3596576,248.3596576,248.3596576,248.3596576,248.3596576,248.3596576,,002,P014,2025_Feb_28_1600,ConditionRich,2021.2.3,59.955560938587176,
219.75,220.0,41,0.0,Stimuli/Blank.png,0,0,0.0,0,94,94,94,,,,,,,,,,,,,219.76079820000086,0.01079820000086329,None,252.1130864000006,252.1130864000006,252.1130864000006,252.1130864000006,252.1130864000006,252.1130864000006,252.1130864000006,252.1130864000006,252.1130864000006,252.1130864000006,,002,P014,2025_Feb_28_1600,ConditionRich,2021.2.3,59.955560938587176,
220.0,223.75,19,0.75,Stimuli/P014/sun_buphlelowxjnoygy.jpg,1,3,3.75,0,95,95,95,,,,,,,,,,,,,220.0104291000007,0.010429100000692415,1,252.36331969999992,252.36331969999992,252.36331969999992,252.36331969999992,252.36331969999992,252.36331969999992,255.34939420000046,256.10002729999906,252.36331969999992,252.36331969999992,3.3994880999998713,002,P014,2025_Feb_28_1600,ConditionRich,2021.2.3,59.955560938587176,
223.75,224.0,41,0.0,Stimuli/Blank.png,0,0,0.0,0,96,96,96,,,,,,,,,,,,,223.7645220000013,0.014522000001306878,None,256.11660069999925,256.11660069999925,256.11660069999925,256.11660069999925,256.11660069999925,256.11660069999925,256.11660069999925,256.11660069999925,256.11660069999925,256.11660069999925,,002,P014,2025_Feb_28_1600,ConditionRich,2021.2.3,59.955560938587176,
224.0,227.75,21,0.75,Stimuli/P014/things_baby_07s.jpg,0,0,0.0,0,97,97,97,,,,,,,,,,,,,224.0133007000004,0.013300700000399956,None,256.36670310000045,256.36670310000045,256.36670310000045,256.36670310000045,256.36670310000045,256.36670310000045,256.36670310000045,256.36670310000045,256.36670310000045,256.36670310000045,,002,P014,2025_Feb_28_1600,ConditionRich,2021.2.3,59.955560938587176,
227.75,228.0,41,0.0,Stimuli/Blank.png,0,0,0.0,0,98,98,98,,,,,,,,,,,,,227.75154230000044,0.0015423000004375353,None,260.10337900000013,260.10337900000013,260.10337900000013,260.10337900000013,260.10337900000013,260.10337900000013,260.10337900000013,260.10337900000013,260.10337900000013,260.10337900000013,,002,P014,2025_Feb_28_1600,ConditionRich,2021.2.3,59.955560938587176,
228.0,231.75,23,0.75,Stimuli/P014/things_bug_07s.jpg,0,0,0.0,0,99,99,99,,,,,,,,,,,,,228.0014710000014,0.0014710000014019897,None,260.3535329999995,260.3535329999995,260.3535329999995,260.3535329999995,260.3535329999995,260.3535329999995,260.3535329999995,260.3535329999995,260.3535329999995,260.3535329999995,,002,P014,2025_Feb_28_1600,ConditionRich,2021.2.3,59.955560938587176,
231.75,232.0,41,0.0,Stimuli/Blank.png,0,0,0.0,0,100,100,100,,,,,,,,,,,,,231.7548093000005,0.004809300000488292,None,264.1070810000001,264.1070810000001,264.1070810000001,264.1070810000001,264.1070810000001,264.1070810000001,264.1070810000001,264.1070810000001,264.1070810000001,264.1070810000001,,002,P014,2025_Feb_28_1600,ConditionRich,2021.2.3,59.955560938587176,
232.0,235.75,31,0.75,Stimuli/P014/things_mask_07s.jpg,0,0,0.0,0,101,101,101,,,,,,,,,,,,,232.00365090000014,0.0036509000001387903,None,264.3572509000005,264.3572509000005,264.3572509000005,264.3572509000005,264.3572509000005,264.3572509000005,264.3572509000005,264.3572509000005,264.3572509000005,264.3572509000005,,002,P014,2025_Feb_28_1600,ConditionRich,2021.2.3,59.955560938587176,
235.75,236.0,41,0.0,Stimuli/Blank.png,0,0,0.0,0,102,102,102,,,,,,,,,,,,,235.75779430000148,0.007794300001478405,None,268.1105325999997,268.1105325999997,268.1105325999997,268.1105325999997,268.1105325999997,268.1105325999997,268.1105325999997,268.1105325999997,268.1105325999997,268.1105325999997,,002,P014,2025_Feb_28_1600,ConditionRich,2021.2.3,59.955560938587176,
236.0,239.75,5,0.75,Stimuli/P014/sun_aidrxvbfhxtsusrf.jpg,1,1,1.75,0,103,103,103,,,,,,,,,,,,,236.0073048000013,0.007304800001293188,None,268.3604395000002,268.3604395000002,268.3604395000002,268.3604395000002,268.3604395000002,268.3604395000002,269.34523959999933,270.09569270000065,268.3604395000002,268.3604395000002,,002,P014,2025_Feb_28_1600,ConditionRich,2021.2.3,59.955560938587176,
239.75,240.0,41,0.0,Stimuli/Blank.png,0,0,0.0,0,104,104,104,,,,,,,,,,,,,239.76257010000154,0.012570100001539686,None,272.1144772000007,272.1144772000007,272.1144772000007,272.1144772000007,272.1144772000007,272.1144772000007,272.1144772000007,272.1144772000007,272.1144772000007,272.1144772000007,,002,P014,2025_Feb_28_1600,ConditionRich,2021.2.3,59.955560938587176,
240.0,243.75,26,0.75,Stimuli/P014/things_cougar_07s.jpg,1,0,0.75,0,105,105,105,,,,,,,,,,,,,240.0116104000008,0.011610400000790833,1,272.364287299999,272.364287299999,272.364287299999,272.364287299999,272.364287299999,272.364287299999,272.364287299999,273.09859529999994,272.364287299999,272.364287299999,0.9265426000001753,002,P014,2025_Feb_28_1600,ConditionRich,2021.2.3,59.955560938587176,
243.75,244.0,41,0.0,Stimuli/Blank.png,0,0,0.0,0,106,106,106,,,,,,,,,,,,,243.7657401000015,0.015740100001494284,None,276.1177360999991,276.1177360999991,276.1177360999991,276.1177360999991,276.1177360999991,276.1177360999991,276.1177360999991,276.1177360999991,276.1177360999991,276.1177360999991,,002,P014,2025_Feb_28_1600,ConditionRich,2021.2.3,59.955560938587176,
244.0,247.75,7,0.75,Stimuli/P014/sun_aojplsluiikxrfxc.jpg,1,1,1.75,0,107,107,107,,,,,,,,,,,,,243.99938720000137,-0.0006127999986347277,None,276.3511460999998,276.3511460999998,276.3511460999998,276.3511460999998,276.3511460999998,276.3511460999998,277.3355427000006,278.08585780000067,276.3511460999998,276.3511460999998,,002,P014,2025_Feb_28_1600,ConditionRich,2021.2.3,59.955560938587176,
247.75,248.0,41,0.0,Stimuli/Blank.png,0,0,0.0,0,108,108,108,,,,,,,,,,,,,247.75266380000176,0.0026638000017555896,None,280.10459450000053,280.10459450000053,280.10459450000053,280.10459450000053,280.10459450000053,280.10459450000053,280.10459450000053,280.10459450000053,280.10459450000053,280.10459450000053,,002,P014,2025_Feb_28_1600,ConditionRich,2021.2.3,59.955560938587176,
248.0,251.75,29,0.75,Stimuli/P014/things_iguana_07s.jpg,1,2,2.75,0,109,109,109,,,,,,,,,,,,,248.00258700000086,0.0025870000008580973,1,280.3546867999994,280.3546867999994,280.3546867999994,280.3546867999994,280.3546867999994,280.3546867999994,282.33947330000046,283.0900975000004,280.3546867999994,280.3546867999994,2.3409295000001293,002,P014,2025_Feb_28_1600,ConditionRich,2021.2.3,59.955560938587176,
251.75,252.0,41,0.0,Stimuli/Blank.png,0,0,0.0,0,110,110,110,,,,,,,,,,,,,251.75521590000062,0.005215900000621332,None,284.1077556,284.1077556,284.1077556,284.1077556,284.1077556,284.1077556,284.1077556,284.1077556,284.1077556,284.1077556,,002,P014,2025_Feb_28_1600,ConditionRich,2021.2.3,59.955560938587176,
252.0,255.75,9,0.75,Stimuli/P014/sun_bdgwqzttihopmpbf.jpg,0,0,0.0,0,111,111,111,,,,,,,,,,,,,252.0056878000014,0.005687800001396681,None,284.3580722000006,284.3580722000006,284.3580722000006,284.3580722000006,284.3580722000006,284.3580722000006,284.3580722000006,284.3580722000006,284.3580722000006,284.3580722000006,,002,P014,2025_Feb_28_1600,ConditionRich,2021.2.3,59.955560938587176,
255.75,256.0,41,0.0,Stimuli/Blank.png,0,0,0.0,0,112,112,112,,,,,,,,,,,,,255.76036420000128,0.010364200001276913,None,288.1131218999999,288.1131218999999,288.1131218999999,288.1131218999999,288.1131218999999,288.1131218999999,288.1131218999999,288.1131218999999,288.1131218999999,288.1131218999999,,002,P014,2025_Feb_28_1600,ConditionRich,2021.2.3,59.955560938587176,
256.0,259.75,37,0.75,Stimuli/P014/things_slug_07s.jpg,0,0,0.0,0,113,113,113,,,,,,,,,,,,,256.0085327000015,0.008532700001524063,None,288.3618678999992,288.3618678999992,288.3618678999992,288.3618678999992,288.3618678999992,288.3618678999992,288.3618678999992,288.3618678999992,288.3618678999992,288.3618678999992,,002,P014,2025_Feb_28_1600,ConditionRich,2021.2.3,59.955560938587176,
259.75,260.0,41,0.0,Stimuli/Blank.png,0,0,0.0,0,114,114,114,,,,,,,,,,,,,259.76286830000026,0.012868300000263844,None,292.1151993000003,292.1151993000003,292.1151993000003,292.1151993000003,292.1151993000003,292.1151993000003,292.1151993000003,292.1151993000003,292.1151993000003,292.1151993000003,,002,P014,2025_Feb_28_1600,ConditionRich,2021.2.3,59.955560938587176,
260.0,263.75,10,0.75,Stimuli/P014/sun_bdhxnzyleoiflyak.jpg,0,0,0.0,0,115,115,115,,,,,,,,,,,,,260.01248340000166,0.012483400001656264,None,292.3650054999998,292.3650054999998,292.3650054999998,292.3650054999998,292.3650054999998,292.3650054999998,292.3650054999998,292.3650054999998,292.3650054999998,292.3650054999998,,002,P014,2025_Feb_28_1600,ConditionRich,2021.2.3,59.955560938587176,
263.75,264.0,41,0.0,Stimuli/Blank.png,0,0,0.0,0,116,116,116,,,,,,,,,,,,,263.74947820000125,-0.0005217999987507937,None,296.1020807999994,296.1020807999994,296.1020807999994,296.1020807999994,296.1020807999994,296.1020807999994,296.1020807999994,296.1020807999994,296.1020807999994,296.1020807999994,,002,P014,2025_Feb_28_1600,ConditionRich,2021.2.3,59.955560938587176,
264.0,267.75,2,0.75,Stimuli/P014/sun_adotnsaifoooswkf.jpg,0,0,0.0,0,117,117,117,,,,,,,,,,,,,263.99868890000107,-0.0013110999989294214,None,296.35192780000034,296.35192780000034,296.35192780000034,296.35192780000034,296.35192780000034,296.35192780000034,296.35192780000034,296.35192780000034,296.35192780000034,296.35192780000034,,002,P014,2025_Feb_28_1600,ConditionRich,2021.2.3,59.955560938587176,
267.75,268.0,41,0.0,Stimuli/Blank.png,0,0,0.0,0,118,118,118,,,,,,,,,,,,,267.75279709999995,0.0027970999999524793,None,300.1056267999993,300.1056267999993,300.1056267999993,300.1056267999993,300.1056267999993,300.1056267999993,300.1056267999993,300.1056267999993,300.1056267999993,300.1056267999993,,002,P014,2025_Feb_28_1600,ConditionRich,2021.2.3,59.955560938587176,
268.0,271.75,24,0.75,Stimuli/P014/things_bungee_07s.jpg,0,0,0.0,0,119,119,119,,,,,,,,,,,,,268.00290120000136,0.0029012000013608485,1,300.35557300000073,300.35557300000073,300.35557300000073,300.35557300000073,300.35557300000073,300.35557300000073,300.35557300000073,300.35557300000073,300.35557300000073,300.35557300000073,3.521380099999078,002,P014,2025_Feb_28_1600,ConditionRich,2021.2.3,59.955560938587176,
271.75,272.0,41,0.0,Stimuli/Blank.png,0,0,0.0,0,120,120,120,,,,,,,,,,,,,271.75683110000136,0.006831100001363666,None,304.1091928000005,304.1091928000005,304.1091928000005,304.1091928000005,304.1091928000005,304.1091928000005,304.1091928000005,304.1091928000005,304.1091928000005,304.1091928000005,,002,P014,2025_Feb_28_1600,ConditionRich,2021.2.3,59.955560938587176,
272.0,275.75,30,0.75,Stimuli/P014/things_man_07s.jpg,0,0,0.0,0,121,121,121,,,,,,,,,,,,,272.0054114000013,0.005411400001321454,None,304.3590179999992,304.3590179999992,304.3590179999992,304.3590179999992,304.3590179999992,304.3590179999992,304.3590179999992,304.3590179999992,304.3590179999992,304.3590179999992,,002,P014,2025_Feb_28_1600,ConditionRich,2021.2.3,59.955560938587176,
275.75,276.0,41,0.0,Stimuli/Blank.png,0,0,0.0,0,122,122,122,,,,,,,,,,,,,275.75983690000066,0.009836900000664173,None,308.1126905000001,308.1126905000001,308.1126905000001,308.1126905000001,308.1126905000001,308.1126905000001,308.1126905000001,308.1126905000001,308.1126905000001,308.1126905000001,,002,P014,2025_Feb_28_1600,ConditionRich,2021.2.3,59.955560938587176,
276.0,292.0,0,0.0,Stimuli/Blank.png,1,13,13.75,0,123,123,123,,,,,,,,,,,,,276.01004960000137,0.010049600001366343,1,308.3628814999993,308.3628814999993,308.3628814999993,308.3628814999993,308.3628814999993,308.3628814999993,321.3409613999993,322.0918187999996,308.3628814999993,308.3628814999993,0.05000560000007681,002,P014,2025_Feb_28_1600,ConditionRich,2021.2.3,59.955560938587176,
292.0,295.75,35,0.75,Stimuli/P014/things_road_sign_07s.jpg,0,0,0.0,0,124,124,124,,,,,,,,,,,,,292.00869070000044,0.00869070000044303,None,324.36031009999897,324.36031009999897,324.36031009999897,324.36031009999897,324.36031009999897,324.36031009999897,324.36031009999897,324.36031009999897,324.36031009999897,324.36031009999897,,002,P014,2025_Feb_28_1600,ConditionRich,2021.2.3,59.955560938587176,
295.75,296.0,41,0.0,Stimuli/Blank.png,0,0,0.0,0,125,125,125,,,,,,,,,,,,,295.7621134000001,0.012113400000089314,None,328.1136738999994,328.1136738999994,328.1136738999994,328.1136738999994,328.1136738999994,328.1136738999994,328.1136738999994,328.1136738999994,328.1136738999994,328.1136738999994,,002,P014,2025_Feb_28_1600,ConditionRich,2021.2.3,59.955560938587176,
296.0,299.75,3,0.75,Stimuli/P014/sun_aengzsmykwchlrdn.jpg,1,2,2.75,0,126,126,126,,,,,,,,,,,,,296.01136380000025,0.011363800000253832,1,328.3639643000006,328.3639643000006,328.3639643000006,328.3639643000006,328.3639643000006,328.3639643000006,330.3491608000004,331.09977210000034,328.3639643000006,328.3639643000006,2.3907268999992084,002,P014,2025_Feb_28_1600,ConditionRich,2021.2.3,59.955560938587176,
299.75,300.0,41,0.0,Stimuli/Blank.png,0,0,0.0,0,127,127,127,,,,,,,,,,,,,299.7652603000006,0.015260300000591087,None,332.1174038999998,332.1174038999998,332.1174038999998,332.1174038999998,332.1174038999998,332.1174038999998,332.1174038999998,332.1174038999998,332.1174038999998,332.1174038999998,,002,P014,2025_Feb_28_1600,ConditionRich,2021.2.3,59.955560938587176,
300.0,303.75,13,0.75,Stimuli/P014/sun_bpccpwpohfirajtf.jpg,1,2,2.75,0,128,128,128,,,,,,,,,,,,,300.0158313000011,0.015831300001082127,None,332.3674245000002,332.3674245000002,332.3674245000002,332.3674245000002,332.3674245000002,332.3674245000002,334.36949749999985,335.11996,332.3674245000002,332.3674245000002,,002,P014,2025_Feb_28_1600,ConditionRich,2021.2.3,59.955560938587176,
303.75,304.0,41,0.0,Stimuli/Blank.png,0,0,0.0,0,129,129,129,,,,,,,,,,,,,303.7523093,0.0023092999999789754,None,336.10385829999905,336.10385829999905,336.10385829999905,336.10385829999905,336.10385829999905,336.10385829999905,336.10385829999905,336.10385829999905,336.10385829999905,336.10385829999905,,002,P014,2025_Feb_28_1600,ConditionRich,2021.2.3,59.955560938587176,
304.0,307.75,8,0.75,Stimuli/P014/sun_auqrilekgmdmrncq.jpg,0,0,0.0,0,130,130,130,,,,,,,,,,,,,304.00199970000176,0.0019997000017610844,None,336.35430710000037,336.35430710000037,336.35430710000037,336.35430710000037,336.35430710000037,336.35430710000037,336.35430710000037,336.35430710000037,336.35430710000037,336.35430710000037,,002,P014,2025_Feb_28_1600,ConditionRich,2021.2.3,59.955560938587176,
307.75,308.0,41,0.0,Stimuli/Blank.png,0,0,0.0,0,131,131,131,,,,,,,,,,,,,307.756049900001,0.006049900001016795,None,340.10744049999994,340.10744049999994,340.10744049999994,340.10744049999994,340.10744049999994,340.10744049999994,340.10744049999994,340.10744049999994,340.10744049999994,340.10744049999994,,002,P014,2025_Feb_28_1600,ConditionRich,2021.2.3,59.955560938587176,
308.0,311.75,32,0.75,Stimuli/P014/things_mistletoe_07s.jpg,0,0,0.0,0,132,132,132,,,,,,,,,,,,,308.0060727,0.006072700000004261,None,340.3576092000003,340.3576092000003,340.3576092000003,340.3576092000003,340.3576092000003,340.3576092000003,340.3576092000003,340.3576092000003,340.3576092000003,340.3576092000003,,002,P014,2025_Feb_28_1600,ConditionRich,2021.2.3,59.955560938587176,
311.75,312.0,41,0.0,Stimuli/Blank.png,0,0,0.0,0,133,133,133,,,,,,,,,,,,,311.7604364000017,0.010436400001708535,None,344.1280093000005,344.1280093000005,344.1280093000005,344.1280093000005,344.1280093000005,344.1280093000005,344.1280093000005,344.1280093000005,344.1280093000005,344.1280093000005,,002,P014,2025_Feb_28_1600,ConditionRich,2021.2.3,59.955560938587176,
312.0,315.75,16,0.75,Stimuli/P014/sun_bsgtkqjrnrvttrax.jpg,0,0,0.0,0,134,134,134,,,,,,,,,,,,,312.0264356000007,0.026435600000695558,None,344.37815319999936,344.37815319999936,344.37815319999936,344.37815319999936,344.37815319999936,344.37815319999936,344.37815319999936,344.37815319999936,344.37815319999936,344.37815319999936,,002,P014,2025_Feb_28_1600,ConditionRich,2021.2.3,59.955560938587176,
315.75,316.0,41,0.0,Stimuli/Blank.png,0,0,0.0,0,135,135,135,,,,,,,,,,,,,315.76242600000114,0.012426000001141801,None,348.11491469999964,348.11491469999964,348.11491469999964,348.11491469999964,348.11491469999964,348.11491469999964,348.11491469999964,348.11491469999964,348.11491469999964,348.11491469999964,,002,P014,2025_Feb_28_1600,ConditionRich,2021.2.3,59.955560938587176,
316.0,319.75,39,0.75,Stimuli/P014/things_violin_07n.jpg,1,1,1.75,0,136,136,136,,,,,,,,,,,,,316.01343799999995,0.01343799999995099,1,348.3649540000006,348.3649540000006,348.3649540000006,348.3649540000006,348.3649540000006,348.3649540000006,349.3660925999993,350.11679449999974,348.3649540000006,348.3649540000006,1.3799448999998276,002,P014,2025_Feb_28_1600,ConditionRich,2021.2.3,59.955560938587176,
319.75,320.0,41,0.0,Stimuli/Blank.png,0,0,0.0,0,137,137,137,,,,,,,,,,,,,319.74987070000134,-0.00012929999866173603,None,352.11835640000027,352.11835640000027,352.11835640000027,352.11835640000027,352.11835640000027,352.11835640000027,352.11835640000027,352.11835640000027,352.11835640000027,352.11835640000027,,002,P014,2025_Feb_28_1600,ConditionRich,2021.2.3,59.955560938587176,
320.0,323.75,17,0.75,Stimuli/P014/sun_bsguftphqnrkbedw.jpg,0,0,0.0,0,138,138,138,,,,,,,,,,,,,320.01619200000096,0.016192000000955886,None,352.3685848999994,352.3685848999994,352.3685848999994,352.3685848999994,352.3685848999994,352.3685848999994,352.3685848999994,352.3685848999994,352.3685848999994,352.3685848999994,,002,P014,2025_Feb_28_1600,ConditionRich,2021.2.3,59.955560938587176,
323.75,324.0,41,0.0,Stimuli/Blank.png,0,0,0.0,0,139,139,139,,,,,,,,,,,,,323.75212180000017,0.0021218000001681503,None,356.1052481000006,356.1052481000006,356.1052481000006,356.1052481000006,356.1052481000006,356.1052481000006,356.1052481000006,356.1052481000006,356.1052481000006,356.1052481000006,,002,P014,2025_Feb_28_1600,ConditionRich,2021.2.3,59.955560938587176,
324.0,327.75,34,0.75,Stimuli/P014/things_radio_07s.jpg,0,0,0.0,0,140,140,140,,,,,,,,,,,,,324.00227110000014,0.0022711000001436332,None,356.35525620000044,356.35525620000044,356.35525620000044,356.35525620000044,356.35525620000044,356.35525620000044,356.35525620000044,356.35525620000044,356.35525620000044,356.35525620000044,,002,P014,2025_Feb_28_1600,ConditionRich,2021.2.3,59.955560938587176,
327.75,328.0,41,0.0,Stimuli/Blank.png,0,0,0.0,0,141,141,141,,,,,,,,,,,,,327.7567187000004,0.006718700000419631,None,360.12542349999967,360.12542349999967,360.12542349999967,360.12542349999967,360.12542349999967,360.12542349999967,360.12542349999967,360.12542349999967,360.12542349999967,360.12542349999967,,002,P014,2025_Feb_28_1600,ConditionRich,2021.2.3,59.955560938587176,
328.0,331.75,25,0.75,Stimuli/P014/things_cashew_07s.jpg,0,0,0.0,0,142,142,142,,,,,,,,,,,,,328.02380820000144,0.023808200001440127,None,360.37528329999986,360.37528329999986,360.37528329999986,360.37528329999986,360.37528329999986,360.37528329999986,360.37528329999986,360.37528329999986,360.37528329999986,360.37528329999986,,002,P014,2025_Feb_28_1600,ConditionRich,2021.2.3,59.955560938587176,
331.75,332.0,41,0.0,Stimuli/Blank.png,0,0,0.0,0,143,143,143,,,,,,,,,,,,,331.7603385000002,0.0103385000002163,None,364.12937050000073,364.12937050000073,364.12937050000073,364.12937050000073,364.12937050000073,364.12937050000073,364.12937050000073,364.12937050000073,364.12937050000073,364.12937050000073,,002,P014,2025_Feb_28_1600,ConditionRich,2021.2.3,59.955560938587176,
332.0,335.75,1,0.75,Stimuli/P014/sun_adkmgqclfrkhfxbd.jpg,0,0,0.0,0,144,144,144,,,,,,,,,,,,,332.02743570000166,0.027435700001660734,None,364.37926250000055,364.37926250000055,364.37926250000055,364.37926250000055,364.37926250000055,364.37926250000055,364.37926250000055,364.37926250000055,364.37926250000055,364.37926250000055,,002,P014,2025_Feb_28_1600,ConditionRich,2021.2.3,59.955560938587176,
335.75,336.0,41,0.0,Stimuli/Blank.png,0,0,0.0,0,145,145,145,,,,,,,,,,,,,335.7637089,0.01370889999998326,None,368.1157751999999,368.1157751999999,368.1157751999999,368.1157751999999,368.1157751999999,368.1157751999999,368.1157751999999,368.1157751999999,368.1157751999999,368.1157751999999,,002,P014,2025_Feb_28_1600,ConditionRich,2021.2.3,59.955560938587176,
336.0,339.75,6,0.75,Stimuli/P014/sun_aoejkkmwkfegacni.jpg,0,0,0.0,0,146,146,146,,,,,,,,,,,,,336.012405200001,0.012405200001012417,None,368.3661465999994,368.3661465999994,368.3661465999994,368.3661465999994,368.3661465999994,368.3661465999994,368.3661465999994,368.3661465999994,368.3661465999994,368.3661465999994,,002,P014,2025_Feb_28_1600,ConditionRich,2021.2.3,59.955560938587176,
339.75,340.0,41,0.0,Stimuli/Blank.png,0,0,0.0,0,147,147,147,,,,,,,,,,,,,339.7510645000002,0.0010645000002114102,None,372.1026034000006,372.1026034000006,372.1026034000006,372.1026034000006,372.1026034000006,372.1026034000006,372.1026034000006,372.1026034000006,372.1026034000006,372.1026034000006,,002,P014,2025_Feb_28_1600,ConditionRich,2021.2.3,59.955560938587176,
340.0,343.75,15,0.75,Stimuli/P014/sun_brezwczwwllviogu.jpg,1,2,2.75,0,148,148,148,,,,,,,,,,,,,340.00188210000124,0.0018821000012394506,1,372.3530797000003,372.3530797000003,372.3530797000003,372.3530797000003,372.3530797000003,372.3530797000003,374.35491340000044,375.1055715000002,372.3530797000003,372.3530797000003,2.3526332000001275,002,P014,2025_Feb_28_1600,ConditionRich,2021.2.3,59.955560938587176,
343.75,344.0,41,0.0,Stimuli/Blank.png,0,0,0.0,0,149,149,149,,,,,,,,,,,,,343.7545106000016,0.004510600001594867,None,376.1064989000006,376.1064989000006,376.1064989000006,376.1064989000006,376.1064989000006,376.1064989000006,376.1064989000006,376.1064989000006,376.1064989000006,376.1064989000006,,002,P014,2025_Feb_28_1600,ConditionRich,2021.2.3,59.955560938587176,
344.0,347.75,33,0.75,Stimuli/P014/things_piglet_07s.jpg,0,0,0.0,0,150,150,150,,,,,,,,,,,,,344.0045430000009,0.004543000000921893,None,376.35619509999924,376.35619509999924,376.35619509999924,376.35619509999924,376.35619509999924,376.35619509999924,376.35619509999924,376.35619509999924,376.35619509999924,376.35619509999924,,002,P014,2025_Feb_28_1600,ConditionRich,2021.2.3,59.955560938587176,
347.75,348.0,41,0.0,Stimuli/Blank.png,0,0,0.0,0,151,151,151,,,,,,,,,,,,,347.7575005000017,0.007500500001697219,None,380.1099725999993,380.1099725999993,380.1099725999993,380.1099725999993,380.1099725999993,380.1099725999993,380.1099725999993,380.1099725999993,380.1099725999993,380.1099725999993,,002,P014,2025_Feb_28_1600,ConditionRich,2021.2.3,59.955560938587176,
348.0,351.75,18,0.75,Stimuli/P014/sun_btohwudpiusfvpvl.jpg,0,0,0.0,0,152,152,152,,,,,,,,,,,,,348.00828550000006,0.008285500000056345,None,380.36003039999923,380.36003039999923,380.36003039999923,380.36003039999923,380.36003039999923,380.36003039999923,380.36003039999923,380.36003039999923,380.36003039999923,380.36003039999923,,002,P014,2025_Feb_28_1600,ConditionRich,2021.2.3,59.955560938587176,
351.75,352.0,41,0.0,Stimuli/Blank.png,0,0,0.0,0,153,153,153,,,,,,,,,,,,,351.76176750000013,0.011767500000132713,None,384.1303766000001,384.1303766000001,384.1303766000001,384.1303766000001,384.1303766000001,384.1303766000001,384.1303766000001,384.1303766000001,384.1303766000001,384.1303766000001,,002,P014,2025_Feb_28_1600,ConditionRich,2021.2.3,59.955560938587176,
352.0,355.75,27,0.75,Stimuli/P014/things_face_07s.jpg,0,0,0.0,0,154,154,154,,,,,,,,,,,,,352.02845810000144,0.02845810000144411,None,384.380256299999,384.380256299999,384.380256299999,384.380256299999,384.380256299999,384.380256299999,384.380256299999,384.380256299999,384.380256299999,384.380256299999,,002,P014,2025_Feb_28_1600,ConditionRich,2021.2.3,59.955560938587176,
355.75,356.0,41,0.0,Stimuli/Blank.png,0,0,0.0,0,155,155,155,,,,,,,,,,,,,355.76521890000004,0.015218900000036228,None,388.1170497999992,388.1170497999992,388.1170497999992,388.1170497999992,388.1170497999992,388.1170497999992,388.1170497999992,388.1170497999992,388.1170497999992,388.1170497999992,,002,P014,2025_Feb_28_1600,ConditionRich,2021.2.3,59.955560938587176,
356.0,359.75,12,0.75,Stimuli/P014/sun_bjyrrxiwsnbmkbqs.jpg,0,0,0.0,0,156,156,156,,,,,,,,,,,,,356.01532860000043,0.015328600000430015,None,388.38407879999977,388.38407879999977,388.38407879999977,388.38407879999977,388.38407879999977,388.38407879999977,388.38407879999977,388.38407879999977,388.38407879999977,388.38407879999977,,002,P014,2025_Feb_28_1600,ConditionRich,2021.2.3,59.955560938587176,
359.75,360.0,41,0.0,Stimuli/Blank.png,0,0,0.0,0,157,157,157,,,,,,,,,,,,,359.7690096000006,0.01900960000057239,None,392.1374601000007,392.1374601000007,392.1374601000007,392.1374601000007,392.1374601000007,392.1374601000007,392.1374601000007,392.1374601000007,392.1374601000007,392.1374601000007,,002,P014,2025_Feb_28_1600,ConditionRich,2021.2.3,59.955560938587176,
360.0,363.75,28,0.75,Stimuli/P014/things_girl_07s.jpg,0,0,0.0,0,158,158,158,,,,,,,,,,,,,360.0186507000017,0.018650700001671794,None,392.37044810000043,392.37044810000043,392.37044810000043,392.37044810000043,392.37044810000043,392.37044810000043,392.37044810000043,392.37044810000043,392.37044810000043,392.37044810000043,,002,P014,2025_Feb_28_1600,ConditionRich,2021.2.3,59.955560938587176,
363.75,364.0,41,0.0,Stimuli/Blank.png,0,0,0.0,0,159,159,159,,,,,,,,,,,,,363.7550047000004,0.005004700000426965,None,396.10747549999905,396.10747549999905,396.10747549999905,396.10747549999905,396.10747549999905,396.10747549999905,396.10747549999905,396.10747549999905,396.10747549999905,396.10747549999905,,002,P014,2025_Feb_28_1600,ConditionRich,2021.2.3,59.955560938587176,
364.0,367.75,22,0.75,Stimuli/P014/things_banner_07s.jpg,0,0,0.0,0,160,160,160,,,,,,,,,,,,,364.0056686000007,0.005668600000717561,None,396.3576295999992,396.3576295999992,396.3576295999992,396.3576295999992,396.3576295999992,396.3576295999992,396.3576295999992,396.3576295999992,396.3576295999992,396.3576295999992,,002,P014,2025_Feb_28_1600,ConditionRich,2021.2.3,59.955560938587176,
367.75,368.0,41,0.0,Stimuli/Blank.png,0,0,0.0,0,161,161,161,,,,,,,,,,,,,367.75823800000035,0.008238000000346801,None,400.1116492000001,400.1116492000001,400.1116492000001,400.1116492000001,400.1116492000001,400.1116492000001,400.1116492000001,400.1116492000001,400.1116492000001,400.1116492000001,,002,P014,2025_Feb_28_1600,ConditionRich,2021.2.3,59.955560938587176,
368.0,371.75,4,0.75,Stimuli/P014/sun_afgoiykvchxqotyz.jpg,0,0,0.0,0,162,162,162,,,,,,,,,,,,,368.00962660000005,0.009626600000046892,None,400.3635618999997,400.3635618999997,400.3635618999997,400.3635618999997,400.3635618999997,400.3635618999997,400.3635618999997,400.3635618999997,400.3635618999997,400.3635618999997,,002,P014,2025_Feb_28_1600,ConditionRich,2021.2.3,59.955560938587176,
371.75,372.0,41,0.0,Stimuli/Blank.png,0,0,0.0,0,163,163,163,,,,,,,,,,,,,371.7629848000015,0.012984800001504482,None,404.11499000000003,404.11499000000003,404.11499000000003,404.11499000000003,404.11499000000003,404.11499000000003,404.11499000000003,404.11499000000003,404.11499000000003,404.11499000000003,,002,P014,2025_Feb_28_1600,ConditionRich,2021.2.3,59.955560938587176,
372.0,388.0,0,0.0,Stimuli/Blank.png,1,2,2.75,0,164,164,164,,,,,,,,,,,,,372.012474000001,0.012474000001020613,None,404.3649384,404.3649384,404.3649384,404.3649384,404.3649384,404.3649384,406.3498956000003,407.1006636000002,404.3649384,404.3649384,,002,P014,2025_Feb_28_1600,ConditionRich,2021.2.3,59.955560938587176,
