eventStartTime,eventEndTime,eventCond,imSize,imFile,responseEvent,fixRespStart,fixRespEnd,Events.thisRepN,Events.thisTrialN,Events.thisN,Events.thisIndex,Instructions.started,Instructions.stopped,participantReadyResponse.keys,participantReadyResponse.rt,participantReadyResponse.started,participantReadyResponse.stopped,startWaitforTrigger,triggerResponse.keys,triggerResponse.rt,triggerResponse.started,triggerResponse.stopped,globalTimer,actualStartTime,startTimingDiff,participantResponse.keys,participantResponse.started,participantResponse.stopped,image.started,image.stopped,fixationOutside.started,fixationOutside.stopped,fixationResponse.started,fixationResponse.stopped,fixationInside.started,fixationInside.stopped,participantResponse.rt,session,participant,date,expName,psychopyVersion,frameRate,
,,,,,,,,,,,,17.357227100001182,None,1,5.997965900000054,17.357227100001182,None,,,,,,,,,,,,,,,,,,,,,005,P014,2025_Feb_28_1632,ConditionRich,2021.2.3,59.926709633723895,
,,,,,,,,,,,,,,,,,,23.36591110000154,5,14.375445300000138,23.379221500001222,None,,,,,,,,,,,,,,,,005,P014,2025_Feb_28_1632,ConditionRich,2021.2.3,59.926709633723895,
0.0,4.0,0,0.0,Stimuli/Blank.png,0,0,0.0,0,0,0,0,,,,,,,,,,,,37.76246320000064,0.030936600000131875,0.030936600000131875,None,37.808634100001655,None,37.808634100001655,None,37.808634100001655,None,37.808634100001655,37.808634100001655,37.808634100001655,None,,005,P014,2025_Feb_28_1632,ConditionRich,2021.2.3,59.926709633723895,
4.0,7.75,26,0.75,Stimuli/P014/things_cougar_07s.jpg,0,0,0.0,0,1,1,1,,,,,,,,,,,,,4.002964100000099,0.002964100000099279,None,41.779127300000255,41.779127300000255,41.779127300000255,41.779127300000255,41.779127300000255,41.779127300000255,41.779127300000255,41.779127300000255,41.779127300000255,41.779127300000255,,005,P014,2025_Feb_28_1632,ConditionRich,2021.2.3,59.926709633723895,
7.75,8.0,41,0.0,Stimuli/Blank.png,0,0,0.0,0,2,2,2,,,,,,,,,,,,,7.755181799999264,0.005181799999263603,None,45.5324569000004,45.5324569000004,45.5324569000004,45.5324569000004,45.5324569000004,45.5324569000004,45.5324569000004,45.5324569000004,45.5324569000004,45.5324569000004,,005,P014,2025_Feb_28_1632,ConditionRich,2021.2.3,59.926709633723895,
8.0,11.75,24,0.75,Stimuli/P014/things_bungee_07s.jpg,0,0,0.0,0,3,3,3,,,,,,,,,,,,,8.00559819999944,0.005598199999440112,None,45.7823522000017,45.7823522000017,45.7823522000017,45.7823522000017,45.7823522000017,45.7823522000017,45.7823522000017,45.7823522000017,45.7823522000017,45.7823522000017,,005,P014,2025_Feb_28_1632,ConditionRich,2021.2.3,59.926709633723895,
11.75,12.0,41,0.0,Stimuli/Blank.png,0,0,0.0,0,4,4,4,,,,,,,,,,,,,11.75906550000036,0.009065500000360771,None,49.53570360000049,49.53570360000049,49.53570360000049,49.53570360000049,49.53570360000049,49.53570360000049,49.53570360000049,49.53570360000049,49.53570360000049,49.53570360000049,,005,P014,2025_Feb_28_1632,ConditionRich,2021.2.3,59.926709633723895,
12.0,15.75,40,0.75,Stimuli/P014/things_woman_07s.jpg,0,0,0.0,0,5,5,5,,,,,,,,,,,,,12.00933140000052,0.009331400000519352,None,49.78593220000039,49.78593220000039,49.78593220000039,49.78593220000039,49.78593220000039,49.78593220000039,49.78593220000039,49.78593220000039,49.78593220000039,49.78593220000039,,005,P014,2025_Feb_28_1632,ConditionRich,2021.2.3,59.926709633723895,
15.75,16.0,41,0.0,Stimuli/Blank.png,0,0,0.0,0,6,6,6,,,,,,,,,,,,,15.762663100000282,0.012663100000281702,None,53.53924030000053,53.53924030000053,53.53924030000053,53.53924030000053,53.53924030000053,53.53924030000053,53.53924030000053,53.53924030000053,53.53924030000053,53.53924030000053,,005,P014,2025_Feb_28_1632,ConditionRich,2021.2.3,59.926709633723895,
16.0,19.75,13,0.75,Stimuli/P014/sun_bpccpwpohfirajtf.jpg,0,0,0.0,0,7,7,7,,,,,,,,,,,,,16.013348500000575,0.013348500000574859,None,53.806153300000005,53.806153300000005,53.806153300000005,53.806153300000005,53.806153300000005,53.806153300000005,53.806153300000005,53.806153300000005,53.806153300000005,53.806153300000005,,005,P014,2025_Feb_28_1632,ConditionRich,2021.2.3,59.926709633723895,
19.75,20.0,41,0.0,Stimuli/Blank.png,0,0,0.0,0,8,8,8,,,,,,,,,,,,,19.765982000000804,0.015982000000803964,None,57.542791700001544,57.542791700001544,57.542791700001544,57.542791700001544,57.542791700001544,57.542791700001544,57.542791700001544,57.542791700001544,57.542791700001544,57.542791700001544,,005,P014,2025_Feb_28_1632,ConditionRich,2021.2.3,59.926709633723895,
20.0,23.75,15,0.75,Stimuli/P014/sun_brezwczwwllviogu.jpg,0,0,0.0,0,9,9,9,,,,,,,,,,,,,20.000144100000398,0.0001441000003978843,None,57.793011800000386,57.793011800000386,57.793011800000386,57.793011800000386,57.793011800000386,57.793011800000386,57.793011800000386,57.793011800000386,57.793011800000386,57.793011800000386,,005,P014,2025_Feb_28_1632,ConditionRich,2021.2.3,59.926709633723895,
23.75,24.0,41,0.0,Stimuli/Blank.png,0,0,0.0,0,10,10,10,,,,,,,,,,,,,23.770150399999693,0.020150399999693036,None,61.54634560000159,61.54634560000159,61.54634560000159,61.54634560000159,61.54634560000159,61.54634560000159,61.54634560000159,61.54634560000159,61.54634560000159,61.54634560000159,,005,P014,2025_Feb_28_1632,ConditionRich,2021.2.3,59.926709633723895,
24.0,27.75,9,0.75,Stimuli/P014/sun_bdgwqzttihopmpbf.jpg,0,0,0.0,0,11,11,11,,,,,,,,,,,,,24.004384899999422,0.004384899999422487,None,61.79655530000127,61.79655530000127,61.79655530000127,61.79655530000127,61.79655530000127,61.79655530000127,61.79655530000127,61.79655530000127,61.79655530000127,61.79655530000127,,005,P014,2025_Feb_28_1632,ConditionRich,2021.2.3,59.926709633723895,
27.75,28.0,41,0.0,Stimuli/Blank.png,0,0,0.0,0,12,12,12,,,,,,,,,,,,,27.77626170000076,0.026261700000759447,None,65.56658290000087,65.56658290000087,65.56658290000087,65.56658290000087,65.56658290000087,65.56658290000087,65.56658290000087,65.56658290000087,65.56658290000087,65.56658290000087,,005,P014,2025_Feb_28_1632,ConditionRich,2021.2.3,59.926709633723895,
28.0,31.75,6,0.75,Stimuli/P014/sun_aoejkkmwkfegacni.jpg,0,0,0.0,0,13,13,13,,,,,,,,,,,,,28.02312659999916,0.023126599999159225,None,65.81680420000157,65.81680420000157,65.81680420000157,65.81680420000157,65.81680420000157,65.81680420000157,65.81680420000157,65.81680420000157,65.81680420000157,65.81680420000157,,005,P014,2025_Feb_28_1632,ConditionRich,2021.2.3,59.926709633723895,
31.75,32.0,41,0.0,Stimuli/Blank.png,0,0,0.0,0,14,14,14,,,,,,,,,,,,,31.777001700000255,0.02700170000025537,None,69.55343230000108,69.55343230000108,69.55343230000108,69.55343230000108,69.55343230000108,69.55343230000108,69.55343230000108,69.55343230000108,69.55343230000108,69.55343230000108,,005,P014,2025_Feb_28_1632,ConditionRich,2021.2.3,59.926709633723895,
32.0,35.75,28,0.75,Stimuli/P014/things_girl_07s.jpg,0,0,0.0,0,15,15,15,,,,,,,,,,,,,32.01112789999934,0.011127899999337387,None,69.80364780000127,69.80364780000127,69.80364780000127,69.80364780000127,69.80364780000127,69.80364780000127,69.80364780000127,69.80364780000127,69.80364780000127,69.80364780000127,,005,P014,2025_Feb_28_1632,ConditionRich,2021.2.3,59.926709633723895,
35.75,36.0,41,0.0,Stimuli/Blank.png,0,0,0.0,0,16,16,16,,,,,,,,,,,,,35.77988499999992,0.029884999999922,None,73.55696720000014,73.55696720000014,73.55696720000014,73.55696720000014,73.55696720000014,73.55696720000014,73.55696720000014,73.55696720000014,73.55696720000014,73.55696720000014,,005,P014,2025_Feb_28_1632,ConditionRich,2021.2.3,59.926709633723895,
36.0,39.75,5,0.75,Stimuli/P014/sun_aidrxvbfhxtsusrf.jpg,0,0,0.0,0,17,17,17,,,,,,,,,,,,,36.01339100000041,0.013391000000410713,None,73.79050450000068,73.79050450000068,73.79050450000068,73.79050450000068,73.79050450000068,73.79050450000068,73.79050450000068,73.79050450000068,73.79050450000068,73.79050450000068,,005,P014,2025_Feb_28_1632,ConditionRich,2021.2.3,59.926709633723895,
39.75,40.0,41,0.0,Stimuli/Blank.png,0,0,0.0,0,18,18,18,,,,,,,,,,,,,39.750200599999516,0.00020059999951627105,None,77.52714980000019,77.52714980000019,77.52714980000019,77.52714980000019,77.52714980000019,77.52714980000019,77.52714980000019,77.52714980000019,77.52714980000019,77.52714980000019,,005,P014,2025_Feb_28_1632,ConditionRich,2021.2.3,59.926709633723895,
40.0,43.75,11,0.75,Stimuli/P014/sun_bfyxzbjsvqsobbky.jpg,0,0,0.0,0,19,19,19,,,,,,,,,,,,,40.00073639999937,0.0007363999993685866,None,77.79407400000127,77.79407400000127,77.79407400000127,77.79407400000127,77.79407400000127,77.79407400000127,77.79407400000127,77.79407400000127,77.79407400000127,77.79407400000127,,005,P014,2025_Feb_28_1632,ConditionRich,2021.2.3,59.926709633723895,
43.75,44.0,41,0.0,Stimuli/Blank.png,0,0,0.0,0,20,20,20,,,,,,,,,,,,,43.770447400000194,0.02044740000019374,None,81.5473703000007,81.5473703000007,81.5473703000007,81.5473703000007,81.5473703000007,81.5473703000007,81.5473703000007,81.5473703000007,81.5473703000007,81.5473703000007,,005,P014,2025_Feb_28_1632,ConditionRich,2021.2.3,59.926709633723895,
44.0,47.75,33,0.75,Stimuli/P014/things_piglet_07s.jpg,0,0,0.0,0,21,21,21,,,,,,,,,,,,,44.003845100000035,0.0038451000000350177,None,81.79760760000136,81.79760760000136,81.79760760000136,81.79760760000136,81.79760760000136,81.79760760000136,81.79760760000136,81.79760760000136,81.79760760000136,81.79760760000136,,005,P014,2025_Feb_28_1632,ConditionRich,2021.2.3,59.926709633723895,
47.75,48.0,41,0.0,Stimuli/Blank.png,0,0,0.0,0,22,22,22,,,,,,,,,,,,,47.773752299999614,0.02375229999961448,None,85.55091710000124,85.55091710000124,85.55091710000124,85.55091710000124,85.55091710000124,85.55091710000124,85.55091710000124,85.55091710000124,85.55091710000124,85.55091710000124,,005,P014,2025_Feb_28_1632,ConditionRich,2021.2.3,59.926709633723895,
48.0,51.75,4,0.75,Stimuli/P014/sun_afgoiykvchxqotyz.jpg,0,0,0.0,0,23,23,23,,,,,,,,,,,,,48.00725330000023,0.007253300000229501,None,85.78445170000123,85.78445170000123,85.78445170000123,85.78445170000123,85.78445170000123,85.78445170000123,85.78445170000123,85.78445170000123,85.78445170000123,85.78445170000123,,005,P014,2025_Feb_28_1632,ConditionRich,2021.2.3,59.926709633723895,
51.75,52.0,41,0.0,Stimuli/Blank.png,0,0,0.0,0,24,24,24,,,,,,,,,,,,,51.76296619999994,0.01296619999993709,None,89.55446380000103,89.55446380000103,89.55446380000103,89.55446380000103,89.55446380000103,89.55446380000103,89.55446380000103,89.55446380000103,89.55446380000103,89.55446380000103,,005,P014,2025_Feb_28_1632,ConditionRich,2021.2.3,59.926709633723895,
52.0,55.75,37,0.75,Stimuli/P014/things_slug_07s.jpg,0,0,0.0,0,25,25,25,,,,,,,,,,,,,52.02765229999932,0.02765229999931762,None,89.80467470000076,89.80467470000076,89.80467470000076,89.80467470000076,89.80467470000076,89.80467470000076,89.80467470000076,89.80467470000076,89.80467470000076,89.80467470000076,,005,P014,2025_Feb_28_1632,ConditionRich,2021.2.3,59.926709633723895,
55.75,56.0,41,0.0,Stimuli/Blank.png,0,0,0.0,0,26,26,26,,,,,,,,,,,,,55.76520750000054,0.015207500000542495,None,93.541396300001,93.541396300001,93.541396300001,93.541396300001,93.541396300001,93.541396300001,93.541396300001,93.541396300001,93.541396300001,93.541396300001,,005,P014,2025_Feb_28_1632,ConditionRich,2021.2.3,59.926709633723895,
56.0,59.75,35,0.75,Stimuli/P014/things_road_sign_07s.jpg,1,3,3.75,0,27,27,27,,,,,,,,,,,,,56.01472130000002,0.014721300000019255,1,93.79153570000017,93.79153570000017,93.79153570000017,93.79153570000017,93.79153570000017,93.79153570000017,96.77757250000104,None,93.79153570000017,93.79153570000017,3.4297519000010652,005,P014,2025_Feb_28_1632,ConditionRich,2021.2.3,59.926709633723895,
59.75,60.0,41,0.0,Stimuli/Blank.png,0,0,0.0,0,28,28,28,,,,,,,,,,,,,59.75674380000055,0.006743800000549527,None,97.5318739000013,97.5318739000013,97.5318739000013,97.5318739000013,97.5318739000013,97.5318739000013,97.5318739000013,97.5318739000013,97.5318739000013,97.5318739000013,,005,P014,2025_Feb_28_1632,ConditionRich,2021.2.3,59.926709633723895,
60.0,63.75,34,0.75,Stimuli/P014/things_radio_07s.jpg,0,0,0.0,0,29,29,29,,,,,,,,,,,,,60.00435440000001,0.004354400000011083,None,97.7793967000016,97.7793967000016,97.7793967000016,97.7793967000016,97.7793967000016,97.7793967000016,97.7793967000016,97.7793967000016,97.7793967000016,97.7793967000016,,005,P014,2025_Feb_28_1632,ConditionRich,2021.2.3,59.926709633723895,
63.75,64.0,41,0.0,Stimuli/Blank.png,0,0,0.0,0,30,30,30,,,,,,,,,,,,,63.75655750000078,0.006557500000781147,None,101.53199380000115,101.53199380000115,101.53199380000115,101.53199380000115,101.53199380000115,101.53199380000115,101.53199380000115,101.53199380000115,101.53199380000115,101.53199380000115,,005,P014,2025_Feb_28_1632,ConditionRich,2021.2.3,59.926709633723895,
64.0,67.75,8,0.75,Stimuli/P014/sun_auqrilekgmdmrncq.jpg,1,1,1.75,0,31,31,31,,,,,,,,,,,,,64.00607370000034,0.0060737000003427966,1,101.78251110000019,101.78251110000019,101.78251110000019,101.78251110000019,101.78251110000019,101.78251110000019,102.76649530000032,103.51717660000031,101.78251110000019,101.78251110000019,1.3828192000000854,005,P014,2025_Feb_28_1632,ConditionRich,2021.2.3,59.926709633723895,
67.75,68.0,41,0.0,Stimuli/Blank.png,0,0,0.0,0,32,32,32,,,,,,,,,,,,,67.76050480000049,0.010504800000489922,None,105.53588100000161,105.53588100000161,105.53588100000161,105.53588100000161,105.53588100000161,105.53588100000161,105.53588100000161,105.53588100000161,105.53588100000161,105.53588100000161,,005,P014,2025_Feb_28_1632,ConditionRich,2021.2.3,59.926709633723895,
68.0,71.75,29,0.75,Stimuli/P014/things_iguana_07s.jpg,1,0,0.75,0,33,33,33,,,,,,,,,,,,,68.01032250000026,0.010322500000256696,1,105.78569500000049,105.78569500000049,105.78569500000049,105.78569500000049,105.78569500000049,105.78569500000049,105.78569500000049,106.5202844000014,105.78569500000049,105.78569500000049,0.5965919999998732,005,P014,2025_Feb_28_1632,ConditionRich,2021.2.3,59.926709633723895,
71.75,72.0,41,0.0,Stimuli/Blank.png,0,0,0.0,0,34,34,34,,,,,,,,,,,,,71.76403039999968,0.01403039999968314,None,109.53936500000054,109.53936500000054,109.53936500000054,109.53936500000054,109.53936500000054,109.53936500000054,109.53936500000054,109.53936500000054,109.53936500000054,109.53936500000054,,005,P014,2025_Feb_28_1632,ConditionRich,2021.2.3,59.926709633723895,
72.0,75.75,30,0.75,Stimuli/P014/things_man_07s.jpg,0,0,0.0,0,35,35,35,,,,,,,,,,,,,72.01421330000085,0.014213300000847084,None,109.78927790000125,109.78927790000125,109.78927790000125,109.78927790000125,109.78927790000125,109.78927790000125,109.78927790000125,109.78927790000125,109.78927790000125,109.78927790000125,,005,P014,2025_Feb_28_1632,ConditionRich,2021.2.3,59.926709633723895,
75.75,76.0,41,0.0,Stimuli/Blank.png,0,0,0.0,0,36,36,36,,,,,,,,,,,,,75.7500985000006,9.850000060396269e-05,None,113.52616510000007,113.52616510000007,113.52616510000007,113.52616510000007,113.52616510000007,113.52616510000007,113.52616510000007,113.52616510000007,113.52616510000007,113.52616510000007,,005,P014,2025_Feb_28_1632,ConditionRich,2021.2.3,59.926709633723895,
76.0,79.75,17,0.75,Stimuli/P014/sun_bsguftphqnrkbedw.jpg,0,0,0.0,0,37,37,37,,,,,,,,,,,,,76.00056980000045,0.0005698000004485948,None,113.77613370000108,113.77613370000108,113.77613370000108,113.77613370000108,113.77613370000108,113.77613370000108,113.77613370000108,113.77613370000108,113.77613370000108,113.77613370000108,,005,P014,2025_Feb_28_1632,ConditionRich,2021.2.3,59.926709633723895,
79.75,80.0,41,0.0,Stimuli/Blank.png,0,0,0.0,0,38,38,38,,,,,,,,,,,,,79.75377470000058,0.0037747000005765585,None,117.52978970000004,117.52978970000004,117.52978970000004,117.52978970000004,117.52978970000004,117.52978970000004,117.52978970000004,117.52978970000004,117.52978970000004,117.52978970000004,,005,P014,2025_Feb_28_1632,ConditionRich,2021.2.3,59.926709633723895,
80.0,83.75,21,0.75,Stimuli/P014/things_baby_07s.jpg,1,3,3.75,0,39,39,39,,,,,,,,,,,,,80.00434209999912,0.004342099999121274,1,117.77973870000096,117.77973870000096,117.77973870000096,117.77973870000096,117.77973870000096,117.77973870000096,120.76615579999998,121.51631010000165,117.77973870000096,117.77973870000096,3.3846001000001706,005,P014,2025_Feb_28_1632,ConditionRich,2021.2.3,59.926709633723895,
83.75,84.0,41,0.0,Stimuli/Blank.png,0,0,0.0,0,40,40,40,,,,,,,,,,,,,83.75665479999952,0.006654799999523675,None,121.53319570000167,121.53319570000167,121.53319570000167,121.53319570000167,121.53319570000167,121.53319570000167,121.53319570000167,121.53319570000167,121.53319570000167,121.53319570000167,,005,P014,2025_Feb_28_1632,ConditionRich,2021.2.3,59.926709633723895,
84.0,100.0,0,0.0,Stimuli/Blank.png,1,13,13.75,0,41,41,41,,,,,,,,,,,,,84.00743630000034,0.007436300000335905,1,121.78332070000033,121.78332070000033,121.78332070000033,121.78332070000033,121.78332070000033,121.78332070000033,134.77829320000092,135.52896880000117,121.78332070000033,121.78332070000033,13.406347600001027,005,P014,2025_Feb_28_1632,ConditionRich,2021.2.3,59.926709633723895,
100.0,103.75,31,0.75,Stimuli/P014/things_mask_07s.jpg,0,0,0.0,0,42,42,42,,,,,,,,,,,,,100.00564499999928,0.005644999999276479,None,137.78055120000136,137.78055120000136,137.78055120000136,137.78055120000136,137.78055120000136,137.78055120000136,137.78055120000136,137.78055120000136,137.78055120000136,137.78055120000136,,005,P014,2025_Feb_28_1632,ConditionRich,2021.2.3,59.926709633723895,
103.75,104.0,41,0.0,Stimuli/Blank.png,0,0,0.0,0,43,43,43,,,,,,,,,,,,,103.75753040000018,0.007530400000177906,None,141.53486500000145,141.53486500000145,141.53486500000145,141.53486500000145,141.53486500000145,141.53486500000145,141.53486500000145,141.53486500000145,141.53486500000145,141.53486500000145,,005,P014,2025_Feb_28_1632,ConditionRich,2021.2.3,59.926709633723895,
104.0,107.75,10,0.75,Stimuli/P014/sun_bdhxnzyleoiflyak.jpg,0,0,0.0,0,44,44,44,,,,,,,,,,,,,104.00780350000059,0.007803500000591157,None,141.78415590000077,141.78415590000077,141.78415590000077,141.78415590000077,141.78415590000077,141.78415590000077,141.78415590000077,141.78415590000077,141.78415590000077,141.78415590000077,,005,P014,2025_Feb_28_1632,ConditionRich,2021.2.3,59.926709633723895,
107.75,108.0,41,0.0,Stimuli/Blank.png,0,0,0.0,0,45,45,45,,,,,,,,,,,,,107.76025719999961,0.010257199999614386,None,145.5381111000006,145.5381111000006,145.5381111000006,145.5381111000006,145.5381111000006,145.5381111000006,145.5381111000006,145.5381111000006,145.5381111000006,145.5381111000006,,005,P014,2025_Feb_28_1632,ConditionRich,2021.2.3,59.926709633723895,
108.0,111.75,3,0.75,Stimuli/P014/sun_aengzsmykwchlrdn.jpg,1,3,3.75,0,46,46,46,,,,,,,,,,,,,108.01157199999943,0.011571999999432592,1,145.7876905000012,145.7876905000012,145.7876905000012,145.7876905000012,145.7876905000012,145.7876905000012,148.7743257000002,149.5245063000002,145.7876905000012,145.7876905000012,3.370890700000018,005,P014,2025_Feb_28_1632,ConditionRich,2021.2.3,59.926709633723895,
111.75,112.0,41,0.0,Stimuli/Blank.png,0,0,0.0,0,47,47,47,,,,,,,,,,,,,111.76488240000072,0.014882400000715279,None,149.54119460000038,149.54119460000038,149.54119460000038,149.54119460000038,149.54119460000038,149.54119460000038,149.54119460000038,149.54119460000038,149.54119460000038,149.54119460000038,,005,P014,2025_Feb_28_1632,ConditionRich,2021.2.3,59.926709633723895,
112.0,115.75,22,0.75,Stimuli/P014/things_banner_07s.jpg,1,3,3.75,0,48,48,48,,,,,,,,,,,,,112.01620879999973,0.016208799999731127,1,149.79138590000002,149.79138590000002,149.79138590000002,149.79138590000002,149.79138590000002,149.79138590000002,152.77777810000043,None,149.79138590000002,149.79138590000002,3.385089200000948,005,P014,2025_Feb_28_1632,ConditionRich,2021.2.3,59.926709633723895,
115.75,116.0,41,0.0,Stimuli/Blank.png,0,0,0.0,0,49,49,49,,,,,,,,,,,,,115.75274039999931,0.002740399999311194,None,153.5282171000017,153.5282171000017,153.5282171000017,153.5282171000017,153.5282171000017,153.5282171000017,153.5282171000017,153.5282171000017,153.5282171000017,153.5282171000017,,005,P014,2025_Feb_28_1632,ConditionRich,2021.2.3,59.926709633723895,
116.0,119.75,12,0.75,Stimuli/P014/sun_bjyrrxiwsnbmkbqs.jpg,0,0,0.0,0,50,50,50,,,,,,,,,,,,,116.00136999999995,0.0013699999999516876,None,153.77835030000097,153.77835030000097,153.77835030000097,153.77835030000097,153.77835030000097,153.77835030000097,153.77835030000097,153.77835030000097,153.77835030000097,153.77835030000097,,005,P014,2025_Feb_28_1632,ConditionRich,2021.2.3,59.926709633723895,
119.75,120.0,41,0.0,Stimuli/Blank.png,0,0,0.0,0,51,51,51,,,,,,,,,,,,,119.75567340000089,0.005673400000887341,None,157.5318593000011,157.5318593000011,157.5318593000011,157.5318593000011,157.5318593000011,157.5318593000011,157.5318593000011,157.5318593000011,157.5318593000011,157.5318593000011,,005,P014,2025_Feb_28_1632,ConditionRich,2021.2.3,59.926709633723895,
120.0,123.75,32,0.75,Stimuli/P014/things_mistletoe_07s.jpg,1,3,3.75,0,52,52,52,,,,,,,,,,,,,120.00623529999939,0.006235299999389099,1,157.78175880000163,157.78175880000163,157.78175880000163,157.78175880000163,157.78175880000163,157.78175880000163,160.76791860000048,161.51866210000117,157.78175880000163,157.78175880000163,3.3076036000002205,005,P014,2025_Feb_28_1632,ConditionRich,2021.2.3,59.926709633723895,
123.75,124.0,41,0.0,Stimuli/Blank.png,0,0,0.0,0,53,53,53,,,,,,,,,,,,,123.75960959999975,0.009609599999748752,None,161.53535440000087,161.53535440000087,161.53535440000087,161.53535440000087,161.53535440000087,161.53535440000087,161.53535440000087,161.53535440000087,161.53535440000087,161.53535440000087,,005,P014,2025_Feb_28_1632,ConditionRich,2021.2.3,59.926709633723895,
124.0,127.75,36,0.75,Stimuli/P014/things_seafood_07s.jpg,0,0,0.0,0,54,54,54,,,,,,,,,,,,,124.00944920000074,0.009449200000744895,None,161.78549910000038,161.78549910000038,161.78549910000038,161.78549910000038,161.78549910000038,161.78549910000038,161.78549910000038,161.78549910000038,161.78549910000038,161.78549910000038,,005,P014,2025_Feb_28_1632,ConditionRich,2021.2.3,59.926709633723895,
127.75,128.0,41,0.0,Stimuli/Blank.png,0,0,0.0,0,55,55,55,,,,,,,,,,,,,127.76287760000014,0.012877600000138045,None,165.5388877000005,165.5388877000005,165.5388877000005,165.5388877000005,165.5388877000005,165.5388877000005,165.5388877000005,165.5388877000005,165.5388877000005,165.5388877000005,,005,P014,2025_Feb_28_1632,ConditionRich,2021.2.3,59.926709633723895,
128.0,131.75,7,0.75,Stimuli/P014/sun_aojplsluiikxrfxc.jpg,0,0,0.0,0,56,56,56,,,,,,,,,,,,,128.01360419999946,0.013604199999463162,4,165.78913340000145,165.78913340000145,165.78913340000145,165.78913340000145,165.78913340000145,165.78913340000145,165.78913340000145,165.78913340000145,165.78913340000145,165.78913340000145,3.369543500000873,005,P014,2025_Feb_28_1632,ConditionRich,2021.2.3,59.926709633723895,
131.75,132.0,41,0.0,Stimuli/Blank.png,0,0,0.0,0,57,57,57,,,,,,,,,,,,,131.75005600000077,5.6000000768108293e-05,None,169.52582650000113,169.52582650000113,169.52582650000113,169.52582650000113,169.52582650000113,169.52582650000113,169.52582650000113,169.52582650000113,169.52582650000113,169.52582650000113,,005,P014,2025_Feb_28_1632,ConditionRich,2021.2.3,59.926709633723895,
132.0,135.75,18,0.75,Stimuli/P014/sun_btohwudpiusfvpvl.jpg,0,0,0.0,0,58,58,58,,,,,,,,,,,,,131.9998553000005,-0.0001446999995096121,None,169.77559420000034,169.77559420000034,169.77559420000034,169.77559420000034,169.77559420000034,169.77559420000034,169.77559420000034,169.77559420000034,169.77559420000034,169.77559420000034,,005,P014,2025_Feb_28_1632,ConditionRich,2021.2.3,59.926709633723895,
135.75,136.0,41,0.0,Stimuli/Blank.png,0,0,0.0,0,59,59,59,,,,,,,,,,,,,135.75299020000057,0.002990200000567711,None,173.5290268000008,173.5290268000008,173.5290268000008,173.5290268000008,173.5290268000008,173.5290268000008,173.5290268000008,173.5290268000008,173.5290268000008,173.5290268000008,,005,P014,2025_Feb_28_1632,ConditionRich,2021.2.3,59.926709633723895,
136.0,139.75,14,0.75,Stimuli/P014/sun_bqhfterhwnqrbnzg.jpg,1,2,2.75,0,60,60,60,,,,,,,,,,,,,136.0043108000009,0.004310800000894233,1,173.77958840000065,173.77958840000065,173.77958840000065,173.77958840000065,173.77958840000065,173.77958840000065,175.7808485000005,176.53186210000058,173.77958840000065,173.77958840000065,2.3441170000005513,005,P014,2025_Feb_28_1632,ConditionRich,2021.2.3,59.926709633723895,
139.75,140.0,41,0.0,Stimuli/Blank.png,0,0,0.0,0,61,61,61,,,,,,,,,,,,,139.75777729999936,0.007777299999361276,None,177.54923280000003,177.54923280000003,177.54923280000003,177.54923280000003,177.54923280000003,177.54923280000003,177.54923280000003,177.54923280000003,177.54923280000003,177.54923280000003,,005,P014,2025_Feb_28_1632,ConditionRich,2021.2.3,59.926709633723895,
140.0,143.75,20,0.75,Stimuli/P014/sun_cidodcxikcyrdglc.jpg,0,0,0.0,0,62,62,62,,,,,,,,,,,,,140.0231958000004,0.02319580000039423,None,177.79940410000017,177.79940410000017,177.79940410000017,177.79940410000017,177.79940410000017,177.79940410000017,177.79940410000017,177.79940410000017,177.79940410000017,177.79940410000017,,005,P014,2025_Feb_28_1632,ConditionRich,2021.2.3,59.926709633723895,
143.75,144.0,41,0.0,Stimuli/Blank.png,0,0,0.0,0,63,63,63,,,,,,,,,,,,,143.76067909999983,0.010679099999833852,None,181.5363840000009,181.5363840000009,181.5363840000009,181.5363840000009,181.5363840000009,181.5363840000009,181.5363840000009,181.5363840000009,181.5363840000009,181.5363840000009,,005,P014,2025_Feb_28_1632,ConditionRich,2021.2.3,59.926709633723895,
144.0,147.75,38,0.75,Stimuli/P014/things_spark_plug_07s.jpg,1,2,2.75,0,64,64,64,,,,,,,,,,,,,144.0100156999997,0.010015699999712524,1,181.78661009999996,181.78661009999996,181.78661009999996,181.78661009999996,181.78661009999996,181.78661009999996,183.77168920000076,184.5224330000001,181.78661009999996,181.78661009999996,2.3087658999993437,005,P014,2025_Feb_28_1632,ConditionRich,2021.2.3,59.926709633723895,
147.75,148.0,41,0.0,Stimuli/Blank.png,0,0,0.0,0,65,65,65,,,,,,,,,,,,,147.76422559999992,0.014225599999917904,None,185.54002440000113,185.54002440000113,185.54002440000113,185.54002440000113,185.54002440000113,185.54002440000113,185.54002440000113,185.54002440000113,185.54002440000113,185.54002440000113,,005,P014,2025_Feb_28_1632,ConditionRich,2021.2.3,59.926709633723895,
148.0,151.75,2,0.75,Stimuli/P014/sun_adotnsaifoooswkf.jpg,0,0,0.0,0,66,66,66,,,,,,,,,,,,,148.01391250000052,0.013912500000515138,None,185.79015920000165,185.79015920000165,185.79015920000165,185.79015920000165,185.79015920000165,185.79015920000165,185.79015920000165,185.79015920000165,185.79015920000165,185.79015920000165,,005,P014,2025_Feb_28_1632,ConditionRich,2021.2.3,59.926709633723895,
151.75,152.0,41,0.0,Stimuli/Blank.png,0,0,0.0,0,67,67,67,,,,,,,,,,,,,151.75078070000018,0.0007807000001776032,None,189.52659180000046,189.52659180000046,189.52659180000046,189.52659180000046,189.52659180000046,189.52659180000046,189.52659180000046,189.52659180000046,189.52659180000046,189.52659180000046,,005,P014,2025_Feb_28_1632,ConditionRich,2021.2.3,59.926709633723895,
152.0,155.75,23,0.75,Stimuli/P014/things_bug_07s.jpg,0,0,0.0,0,68,68,68,,,,,,,,,,,,,152.00058549999994,0.0005854999999428401,None,189.7769289000007,189.7769289000007,189.7769289000007,189.7769289000007,189.7769289000007,189.7769289000007,189.7769289000007,189.7769289000007,189.7769289000007,189.7769289000007,,005,P014,2025_Feb_28_1632,ConditionRich,2021.2.3,59.926709633723895,
155.75,156.0,41,0.0,Stimuli/Blank.png,0,0,0.0,0,69,69,69,,,,,,,,,,,,,155.75533949999954,0.005339499999536201,None,193.53059910000047,193.53059910000047,193.53059910000047,193.53059910000047,193.53059910000047,193.53059910000047,193.53059910000047,193.53059910000047,193.53059910000047,193.53059910000047,,005,P014,2025_Feb_28_1632,ConditionRich,2021.2.3,59.926709633723895,
156.0,159.75,25,0.75,Stimuli/P014/things_cashew_07s.jpg,0,0,0.0,0,70,70,70,,,,,,,,,,,,,156.0036471000003,0.003647100000307546,None,193.78019330000097,193.78019330000097,193.78019330000097,193.78019330000097,193.78019330000097,193.78019330000097,193.78019330000097,193.78019330000097,193.78019330000097,193.78019330000097,,005,P014,2025_Feb_28_1632,ConditionRich,2021.2.3,59.926709633723895,
159.75,160.0,41,0.0,Stimuli/Blank.png,0,0,0.0,0,71,71,71,,,,,,,,,,,,,159.7586950999994,0.008695099999386002,None,197.5346408000005,197.5346408000005,197.5346408000005,197.5346408000005,197.5346408000005,197.5346408000005,197.5346408000005,197.5346408000005,197.5346408000005,197.5346408000005,,005,P014,2025_Feb_28_1632,ConditionRich,2021.2.3,59.926709633723895,
160.0,163.75,1,0.75,Stimuli/P014/sun_adkmgqclfrkhfxbd.jpg,0,0,0.0,0,72,72,72,,,,,,,,,,,,,160.0079495000009,0.007949500000904663,None,197.7864225000012,197.7864225000012,197.7864225000012,197.7864225000012,197.7864225000012,197.7864225000012,197.7864225000012,197.7864225000012,197.7864225000012,197.7864225000012,,005,P014,2025_Feb_28_1632,ConditionRich,2021.2.3,59.926709633723895,
163.75,164.0,41,0.0,Stimuli/Blank.png,0,0,0.0,0,73,73,73,,,,,,,,,,,,,163.76195220000045,0.01195220000045083,None,201.5539957000001,201.5539957000001,201.5539957000001,201.5539957000001,201.5539957000001,201.5539957000001,201.5539957000001,201.5539957000001,201.5539957000001,201.5539957000001,,005,P014,2025_Feb_28_1632,ConditionRich,2021.2.3,59.926709633723895,
164.0,167.75,27,0.75,Stimuli/P014/things_face_07s.jpg,0,0,0.0,0,74,74,74,,,,,,,,,,,,,164.0283462999996,0.0283462999996118,None,201.80424660000062,201.80424660000062,201.80424660000062,201.80424660000062,201.80424660000062,201.80424660000062,201.80424660000062,201.80424660000062,201.80424660000062,201.80424660000062,,005,P014,2025_Feb_28_1632,ConditionRich,2021.2.3,59.926709633723895,
167.75,168.0,41,0.0,Stimuli/Blank.png,0,0,0.0,0,75,75,75,,,,,,,,,,,,,167.7644794000007,0.014479400000709575,None,205.5407524000002,205.5407524000002,205.5407524000002,205.5407524000002,205.5407524000002,205.5407524000002,205.5407524000002,205.5407524000002,205.5407524000002,205.5407524000002,,005,P014,2025_Feb_28_1632,ConditionRich,2021.2.3,59.926709633723895,
168.0,171.75,16,0.75,Stimuli/P014/sun_bsgtkqjrnrvttrax.jpg,0,0,0.0,0,76,76,76,,,,,,,,,,,,,168.01458099999945,0.014580999999452615,None,205.79118820000076,205.79118820000076,205.79118820000076,205.79118820000076,205.79118820000076,205.79118820000076,205.79118820000076,205.79118820000076,205.79118820000076,205.79118820000076,,005,P014,2025_Feb_28_1632,ConditionRich,2021.2.3,59.926709633723895,
171.75,172.0,41,0.0,Stimuli/Blank.png,0,0,0.0,0,77,77,77,,,,,,,,,,,,,171.7528966000009,0.0028966000008949777,None,209.52923069999997,209.52923069999997,209.52923069999997,209.52923069999997,209.52923069999997,209.52923069999997,209.52923069999997,209.52923069999997,209.52923069999997,209.52923069999997,,005,P014,2025_Feb_28_1632,ConditionRich,2021.2.3,59.926709633723895,
172.0,175.75,19,0.75,Stimuli/P014/sun_buphlelowxjnoygy.jpg,0,0,0.0,0,78,78,78,,,,,,,,,,,,,172.0006742000005,0.0006742000005033333,None,209.77785030000086,209.77785030000086,209.77785030000086,209.77785030000086,209.77785030000086,209.77785030000086,209.77785030000086,209.77785030000086,209.77785030000086,209.77785030000086,,005,P014,2025_Feb_28_1632,ConditionRich,2021.2.3,59.926709633723895,
175.75,176.0,41,0.0,Stimuli/Blank.png,0,0,0.0,0,79,79,79,,,,,,,,,,,,,175.75582779999968,0.005827799999678973,None,213.5316743000003,213.5316743000003,213.5316743000003,213.5316743000003,213.5316743000003,213.5316743000003,213.5316743000003,213.5316743000003,213.5316743000003,213.5316743000003,,005,P014,2025_Feb_28_1632,ConditionRich,2021.2.3,59.926709633723895,
176.0,179.75,39,0.75,Stimuli/P014/things_violin_07n.jpg,0,0,0.0,0,80,80,80,,,,,,,,,,,,,176.00483639999948,0.004836399999476271,None,213.78153460000067,213.78153460000067,213.78153460000067,213.78153460000067,213.78153460000067,213.78153460000067,213.78153460000067,213.78153460000067,213.78153460000067,213.78153460000067,,005,P014,2025_Feb_28_1632,ConditionRich,2021.2.3,59.926709633723895,
179.75,180.0,41,0.0,Stimuli/Blank.png,0,0,0.0,0,81,81,81,,,,,,,,,,,,,179.7590521000002,0.009052100000189967,None,217.53495720000137,217.53495720000137,217.53495720000137,217.53495720000137,217.53495720000137,217.53495720000137,217.53495720000137,217.53495720000137,217.53495720000137,217.53495720000137,,005,P014,2025_Feb_28_1632,ConditionRich,2021.2.3,59.926709633723895,
180.0,196.0,0,0.0,Stimuli/Blank.png,1,9,9.75,0,82,82,82,,,,,,,,,,,,,180.00922779999928,0.00922779999928025,1,217.7851653000016,217.7851653000016,217.7851653000016,217.7851653000016,217.7851653000016,217.7851653000016,226.77651680000054,227.5271642000007,217.7851653000016,217.7851653000016,9.581372500000725,005,P014,2025_Feb_28_1632,ConditionRich,2021.2.3,59.926709633723895,
196.0,199.75,24,0.75,Stimuli/P014/things_bungee_07s.jpg,0,0,0.0,0,83,83,83,,,,,,,,,,,,,196.00614300000052,0.00614300000052026,None,233.7830131999999,233.7830131999999,233.7830131999999,233.7830131999999,233.7830131999999,233.7830131999999,233.7830131999999,233.7830131999999,233.7830131999999,233.7830131999999,,005,P014,2025_Feb_28_1632,ConditionRich,2021.2.3,59.926709633723895,
199.75,200.0,41,0.0,Stimuli/Blank.png,0,0,0.0,0,84,84,84,,,,,,,,,,,,,199.7611061000007,0.011106100000688457,None,237.53605340000104,237.53605340000104,237.53605340000104,237.53605340000104,237.53605340000104,237.53605340000104,237.53605340000104,237.53605340000104,237.53605340000104,237.53605340000104,,005,P014,2025_Feb_28_1632,ConditionRich,2021.2.3,59.926709633723895,
200.0,203.75,36,0.75,Stimuli/P014/things_seafood_07s.jpg,0,0,0.0,0,85,85,85,,,,,,,,,,,,,200.01044999999976,0.010449999999764259,None,237.78623890000017,237.78623890000017,237.78623890000017,237.78623890000017,237.78623890000017,237.78623890000017,237.78623890000017,237.78623890000017,237.78623890000017,237.78623890000017,,005,P014,2025_Feb_28_1632,ConditionRich,2021.2.3,59.926709633723895,
203.75,204.0,41,0.0,Stimuli/Blank.png,0,0,0.0,0,86,86,86,,,,,,,,,,,,,203.76434870000048,0.014348700000482495,None,241.53965850000168,241.53965850000168,241.53965850000168,241.53965850000168,241.53965850000168,241.53965850000168,241.53965850000168,241.53965850000168,241.53965850000168,241.53965850000168,,005,P014,2025_Feb_28_1632,ConditionRich,2021.2.3,59.926709633723895,
204.0,207.75,25,0.75,Stimuli/P014/things_cashew_07s.jpg,1,1,1.75,0,87,87,87,,,,,,,,,,,,,204.01430240000082,0.014302400000815396,1,241.79002390000096,241.79002390000096,241.79002390000096,241.79002390000096,241.79002390000096,241.79002390000096,242.77398770000036,243.52469510000083,241.79002390000096,241.79002390000096,1.4054424999994808,005,P014,2025_Feb_28_1632,ConditionRich,2021.2.3,59.926709633723895,
207.75,208.0,41,0.0,Stimuli/Blank.png,0,0,0.0,0,88,88,88,,,,,,,,,,,,,207.7507026000003,0.000702600000295206,None,245.52662520000013,245.52662520000013,245.52662520000013,245.52662520000013,245.52662520000013,245.52662520000013,245.52662520000013,245.52662520000013,245.52662520000013,245.52662520000013,,005,P014,2025_Feb_28_1632,ConditionRich,2021.2.3,59.926709633723895,
208.0,211.75,28,0.75,Stimuli/P014/things_girl_07s.jpg,1,0,0.75,0,89,89,89,,,,,,,,,,,,,208.00128360000053,0.0012836000005336246,1,245.7774083000004,245.7774083000004,245.7774083000004,245.7774083000004,245.7774083000004,245.7774083000004,245.7774083000004,246.51045290000002,245.7774083000004,245.7774083000004,0.48519990000022517,005,P014,2025_Feb_28_1632,ConditionRich,2021.2.3,59.926709633723895,
211.75,212.0,41,0.0,Stimuli/Blank.png,0,0,0.0,0,90,90,90,,,,,,,,,,,,,211.75458849999995,0.004588499999954365,None,249.52989200000047,249.52989200000047,249.52989200000047,249.52989200000047,249.52989200000047,249.52989200000047,249.52989200000047,249.52989200000047,249.52989200000047,249.52989200000047,,005,P014,2025_Feb_28_1632,ConditionRich,2021.2.3,59.926709633723895,
212.0,215.75,32,0.75,Stimuli/P014/things_mistletoe_07s.jpg,0,0,0.0,0,91,91,91,,,,,,,,,,,,,212.00362680000035,0.00362680000034743,None,249.78046750000067,249.78046750000067,249.78046750000067,249.78046750000067,249.78046750000067,249.78046750000067,249.78046750000067,249.78046750000067,249.78046750000067,249.78046750000067,,005,P014,2025_Feb_28_1632,ConditionRich,2021.2.3,59.926709633723895,
215.75,216.0,41,0.0,Stimuli/Blank.png,0,0,0.0,0,92,92,92,,,,,,,,,,,,,215.7574368000005,0.007436800000505173,None,253.53334800000084,253.53334800000084,253.53334800000084,253.53334800000084,253.53334800000084,253.53334800000084,253.53334800000084,253.53334800000084,253.53334800000084,253.53334800000084,,005,P014,2025_Feb_28_1632,ConditionRich,2021.2.3,59.926709633723895,
216.0,219.75,10,0.75,Stimuli/P014/sun_bdhxnzyleoiflyak.jpg,0,0,0.0,0,93,93,93,,,,,,,,,,,,,216.00694140000087,0.00694140000086918,None,253.78431130000172,253.78431130000172,253.78431130000172,253.78431130000172,253.78431130000172,253.78431130000172,253.78431130000172,253.78431130000172,253.78431130000172,253.78431130000172,,005,P014,2025_Feb_28_1632,ConditionRich,2021.2.3,59.926709633723895,
219.75,220.0,41,0.0,Stimuli/Blank.png,0,0,0.0,0,94,94,94,,,,,,,,,,,,,219.7611551000009,0.011155100000905804,None,257.5369515000002,257.5369515000002,257.5369515000002,257.5369515000002,257.5369515000002,257.5369515000002,257.5369515000002,257.5369515000002,257.5369515000002,257.5369515000002,,005,P014,2025_Feb_28_1632,ConditionRich,2021.2.3,59.926709633723895,
220.0,223.75,35,0.75,Stimuli/P014/things_road_sign_07s.jpg,1,2,2.75,0,95,95,95,,,,,,,,,,,,,220.01076169999942,0.01076169999942067,1,257.7874431,257.7874431,257.7874431,257.7874431,257.7874431,257.7874431,259.77253160000146,260.52325680000104,257.7874431,257.7874431,2.9374526999999944,005,P014,2025_Feb_28_1632,ConditionRich,2021.2.3,59.926709633723895,
223.75,224.0,41,0.0,Stimuli/Blank.png,0,0,0.0,0,96,96,96,,,,,,,,,,,,,223.76498899999933,0.014988999999332009,None,261.54053569999996,261.54053569999996,261.54053569999996,261.54053569999996,261.54053569999996,261.54053569999996,261.54053569999996,261.54053569999996,261.54053569999996,261.54053569999996,,005,P014,2025_Feb_28_1632,ConditionRich,2021.2.3,59.926709633723895,
224.0,227.75,18,0.75,Stimuli/P014/sun_btohwudpiusfvpvl.jpg,0,0,0.0,0,97,97,97,,,,,,,,,,,,,224.01535780000086,0.015357800000856514,None,261.79192140000123,261.79192140000123,261.79192140000123,261.79192140000123,261.79192140000123,261.79192140000123,261.79192140000123,261.79192140000123,261.79192140000123,261.79192140000123,,005,P014,2025_Feb_28_1632,ConditionRich,2021.2.3,59.926709633723895,
227.75,228.0,41,0.0,Stimuli/Blank.png,0,0,0.0,0,98,98,98,,,,,,,,,,,,,227.75088890000006,0.000888900000063586,None,265.5277081000004,265.5277081000004,265.5277081000004,265.5277081000004,265.5277081000004,265.5277081000004,265.5277081000004,265.5277081000004,265.5277081000004,265.5277081000004,,005,P014,2025_Feb_28_1632,ConditionRich,2021.2.3,59.926709633723895,
228.0,231.75,39,0.75,Stimuli/P014/things_violin_07n.jpg,0,0,0.0,0,99,99,99,,,,,,,,,,,,,228.00135740000042,0.0013574000004155096,None,265.7777631000008,265.7777631000008,265.7777631000008,265.7777631000008,265.7777631000008,265.7777631000008,265.7777631000008,265.7777631000008,265.7777631000008,265.7777631000008,,005,P014,2025_Feb_28_1632,ConditionRich,2021.2.3,59.926709633723895,
231.75,232.0,41,0.0,Stimuli/Blank.png,0,0,0.0,0,100,100,100,,,,,,,,,,,,,231.75495950000004,0.004959500000040862,None,269.5314444000014,269.5314444000014,269.5314444000014,269.5314444000014,269.5314444000014,269.5314444000014,269.5314444000014,269.5314444000014,269.5314444000014,269.5314444000014,,005,P014,2025_Feb_28_1632,ConditionRich,2021.2.3,59.926709633723895,
232.0,235.75,17,0.75,Stimuli/P014/sun_bsguftphqnrkbedw.jpg,0,0,0.0,0,101,101,101,,,,,,,,,,,,,232.00431349999963,0.004313499999625492,None,269.7834651000012,269.7834651000012,269.7834651000012,269.7834651000012,269.7834651000012,269.7834651000012,269.7834651000012,269.7834651000012,269.7834651000012,269.7834651000012,,005,P014,2025_Feb_28_1632,ConditionRich,2021.2.3,59.926709633723895,
235.75,236.0,41,0.0,Stimuli/Blank.png,0,0,0.0,0,102,102,102,,,,,,,,,,,,,235.75842999999986,0.008429999999862048,None,273.5347608000011,273.5347608000011,273.5347608000011,273.5347608000011,273.5347608000011,273.5347608000011,273.5347608000011,273.5347608000011,273.5347608000011,273.5347608000011,,005,P014,2025_Feb_28_1632,ConditionRich,2021.2.3,59.926709633723895,
236.0,239.75,14,0.75,Stimuli/P014/sun_bqhfterhwnqrbnzg.jpg,0,0,0.0,0,103,103,103,,,,,,,,,,,,,236.0081300999991,0.008130099999107188,None,273.7849159000016,273.7849159000016,273.7849159000016,273.7849159000016,273.7849159000016,273.7849159000016,273.7849159000016,273.7849159000016,273.7849159000016,273.7849159000016,,005,P014,2025_Feb_28_1632,ConditionRich,2021.2.3,59.926709633723895,
239.75,240.0,41,0.0,Stimuli/Blank.png,0,0,0.0,0,104,104,104,,,,,,,,,,,,,239.76238170000033,0.012381700000332785,None,277.5383789000007,277.5383789000007,277.5383789000007,277.5383789000007,277.5383789000007,277.5383789000007,277.5383789000007,277.5383789000007,277.5383789000007,277.5383789000007,,005,P014,2025_Feb_28_1632,ConditionRich,2021.2.3,59.926709633723895,
240.0,243.75,31,0.75,Stimuli/P014/things_mask_07s.jpg,0,0,0.0,0,105,105,105,,,,,,,,,,,,,240.01271319999978,0.012713199999780045,None,277.7885253000004,277.7885253000004,277.7885253000004,277.7885253000004,277.7885253000004,277.7885253000004,277.7885253000004,277.7885253000004,277.7885253000004,277.7885253000004,,005,P014,2025_Feb_28_1632,ConditionRich,2021.2.3,59.926709633723895,
243.75,244.0,41,0.0,Stimuli/Blank.png,0,0,0.0,0,106,106,106,,,,,,,,,,,,,243.74926849999974,-0.0007315000002563465,None,281.5249085000014,281.5249085000014,281.5249085000014,281.5249085000014,281.5249085000014,281.5249085000014,281.5249085000014,281.5249085000014,281.5249085000014,281.5249085000014,,005,P014,2025_Feb_28_1632,ConditionRich,2021.2.3,59.926709633723895,
244.0,247.75,5,0.75,Stimuli/P014/sun_aidrxvbfhxtsusrf.jpg,0,0,0.0,0,107,107,107,,,,,,,,,,,,,243.99932219999937,-0.0006778000006306684,None,281.7773495000001,281.7773495000001,281.7773495000001,281.7773495000001,281.7773495000001,281.7773495000001,281.7773495000001,281.7773495000001,281.7773495000001,281.7773495000001,,005,P014,2025_Feb_28_1632,ConditionRich,2021.2.3,59.926709633723895,
247.75,248.0,41,0.0,Stimuli/Blank.png,0,0,0.0,0,108,108,108,,,,,,,,,,,,,247.7525843000003,0.0025843000003078487,None,285.5287146999999,285.5287146999999,285.5287146999999,285.5287146999999,285.5287146999999,285.5287146999999,285.5287146999999,285.5287146999999,285.5287146999999,285.5287146999999,,005,P014,2025_Feb_28_1632,ConditionRich,2021.2.3,59.926709633723895,
248.0,251.75,7,0.75,Stimuli/P014/sun_aojplsluiikxrfxc.jpg,0,0,0.0,0,109,109,109,,,,,,,,,,,,,248.0032616999997,0.003261699999711709,None,285.7803666,285.7803666,285.7803666,285.7803666,285.7803666,285.7803666,285.7803666,285.7803666,285.7803666,285.7803666,,005,P014,2025_Feb_28_1632,ConditionRich,2021.2.3,59.926709633723895,
251.75,252.0,41,0.0,Stimuli/Blank.png,0,0,0.0,0,110,110,110,,,,,,,,,,,,,251.75605349999933,0.00605349999932514,None,289.53230970000004,289.53230970000004,289.53230970000004,289.53230970000004,289.53230970000004,289.53230970000004,289.53230970000004,289.53230970000004,289.53230970000004,289.53230970000004,,005,P014,2025_Feb_28_1632,ConditionRich,2021.2.3,59.926709633723895,
252.0,255.75,4,0.75,Stimuli/P014/sun_afgoiykvchxqotyz.jpg,1,1,1.75,0,111,111,111,,,,,,,,,,,,,252.00525340000058,0.005253400000583497,1,289.7829582000013,289.7829582000013,289.7829582000013,289.7829582000013,289.7829582000013,289.7829582000013,290.7668816000005,291.5175684000005,289.7829582000013,289.7829582000013,2.374582200000077,005,P014,2025_Feb_28_1632,ConditionRich,2021.2.3,59.926709633723895,
255.75,256.0,41,0.0,Stimuli/Blank.png,0,0,0.0,0,112,112,112,,,,,,,,,,,,,255.76026810000076,0.01026810000075784,None,293.53601470000103,293.53601470000103,293.53601470000103,293.53601470000103,293.53601470000103,293.53601470000103,293.53601470000103,293.53601470000103,293.53601470000103,293.53601470000103,,005,P014,2025_Feb_28_1632,ConditionRich,2021.2.3,59.926709633723895,
256.0,259.75,40,0.75,Stimuli/P014/things_woman_07s.jpg,0,0,0.0,0,113,113,113,,,,,,,,,,,,,256.00927729999967,0.009277299999666866,None,293.7859369000016,293.7859369000016,293.7859369000016,293.7859369000016,293.7859369000016,293.7859369000016,293.7859369000016,293.7859369000016,293.7859369000016,293.7859369000016,,005,P014,2025_Feb_28_1632,ConditionRich,2021.2.3,59.926709633723895,
259.75,260.0,41,0.0,Stimuli/Blank.png,0,0,0.0,0,114,114,114,,,,,,,,,,,,,259.7632066999995,0.013206699999500415,None,297.53944050000064,297.53944050000064,297.53944050000064,297.53944050000064,297.53944050000064,297.53944050000064,297.53944050000064,297.53944050000064,297.53944050000064,297.53944050000064,,005,P014,2025_Feb_28_1632,ConditionRich,2021.2.3,59.926709633723895,
260.0,263.75,12,0.75,Stimuli/P014/sun_bjyrrxiwsnbmkbqs.jpg,1,0,0.75,0,115,115,115,,,,,,,,,,,,,260.01383220000025,0.01383220000025176,1,297.7911148000003,297.7911148000003,297.7911148000003,297.7911148000003,297.7911148000003,297.7911148000003,297.7911148000003,298.5234999000004,297.7911148000003,297.7911148000003,0.3744933000016317,005,P014,2025_Feb_28_1632,ConditionRich,2021.2.3,59.926709633723895,
263.75,264.0,41,0.0,Stimuli/Blank.png,0,0,0.0,0,116,116,116,,,,,,,,,,,,,263.76687160000074,0.016871600000740727,None,301.5429399000004,301.5429399000004,301.5429399000004,301.5429399000004,301.5429399000004,301.5429399000004,301.5429399000004,301.5429399000004,301.5429399000004,301.5429399000004,,005,P014,2025_Feb_28_1632,ConditionRich,2021.2.3,59.926709633723895,
264.0,267.75,2,0.75,Stimuli/P014/sun_adotnsaifoooswkf.jpg,0,0,0.0,0,117,117,117,,,,,,,,,,,,,264.0020017000006,0.0020017000006191665,None,301.7765872,301.7765872,301.7765872,301.7765872,301.7765872,301.7765872,301.7765872,301.7765872,301.7765872,301.7765872,,005,P014,2025_Feb_28_1632,ConditionRich,2021.2.3,59.926709633723895,
267.75,268.0,41,0.0,Stimuli/Blank.png,0,0,0.0,0,118,118,118,,,,,,,,,,,,,267.7532558999992,0.0032558999992033932,None,305.5300874000004,305.5300874000004,305.5300874000004,305.5300874000004,305.5300874000004,305.5300874000004,305.5300874000004,305.5300874000004,305.5300874000004,305.5300874000004,,005,P014,2025_Feb_28_1632,ConditionRich,2021.2.3,59.926709633723895,
268.0,271.75,34,0.75,Stimuli/P014/things_radio_07s.jpg,0,0,0.0,0,119,119,119,,,,,,,,,,,,,268.0031921000009,0.0031921000008878764,None,305.7823152000001,305.7823152000001,305.7823152000001,305.7823152000001,305.7823152000001,305.7823152000001,305.7823152000001,305.7823152000001,305.7823152000001,305.7823152000001,,005,P014,2025_Feb_28_1632,ConditionRich,2021.2.3,59.926709633723895,
271.75,272.0,41,0.0,Stimuli/Blank.png,0,0,0.0,0,120,120,120,,,,,,,,,,,,,271.7564284,0.006428400000004331,None,309.5334853000004,309.5334853000004,309.5334853000004,309.5334853000004,309.5334853000004,309.5334853000004,309.5334853000004,309.5334853000004,309.5334853000004,309.5334853000004,,005,P014,2025_Feb_28_1632,ConditionRich,2021.2.3,59.926709633723895,
272.0,275.75,26,0.75,Stimuli/P014/things_cougar_07s.jpg,0,0,0.0,0,121,121,121,,,,,,,,,,,,,272.0067220000001,0.006722000000081607,None,309.7839277000003,309.7839277000003,309.7839277000003,309.7839277000003,309.7839277000003,309.7839277000003,309.7839277000003,309.7839277000003,309.7839277000003,309.7839277000003,,005,P014,2025_Feb_28_1632,ConditionRich,2021.2.3,59.926709633723895,
275.75,276.0,41,0.0,Stimuli/Blank.png,0,0,0.0,0,122,122,122,,,,,,,,,,,,,275.76070470000013,0.010704700000133016,None,313.53683320000164,313.53683320000164,313.53683320000164,313.53683320000164,313.53683320000164,313.53683320000164,313.53683320000164,313.53683320000164,313.53683320000164,313.53683320000164,,005,P014,2025_Feb_28_1632,ConditionRich,2021.2.3,59.926709633723895,
276.0,292.0,0,0.0,Stimuli/Blank.png,1,12,12.75,0,123,123,123,,,,,,,,,,,,,276.00994829999945,0.009948299999450683,1,313.7867914000017,313.7867914000017,313.7867914000017,313.7867914000017,313.7867914000017,313.7867914000017,325.7813105000005,326.515104600001,313.7867914000017,313.7867914000017,12.420005500000116,005,P014,2025_Feb_28_1632,ConditionRich,2021.2.3,59.926709633723895,
292.0,295.75,38,0.75,Stimuli/P014/things_spark_plug_07s.jpg,1,0,0.75,0,124,124,124,,,,,,,,,,,,,292.00855299999967,0.00855299999966519,1,329.7850481000005,329.7850481000005,329.7850481000005,329.7850481000005,329.7850481000005,329.7850481000005,329.7850481000005,330.51879800000097,329.7850481000005,329.7850481000005,0.7006414999996196,005,P014,2025_Feb_28_1632,ConditionRich,2021.2.3,59.926709633723895,
295.75,296.0,41,0.0,Stimuli/Blank.png,0,0,0.0,0,125,125,125,,,,,,,,,,,,,295.76175049999983,0.011750499999834574,None,333.5379061000003,333.5379061000003,333.5379061000003,333.5379061000003,333.5379061000003,333.5379061000003,333.5379061000003,333.5379061000003,333.5379061000003,333.5379061000003,,005,P014,2025_Feb_28_1632,ConditionRich,2021.2.3,59.926709633723895,
296.0,299.75,22,0.75,Stimuli/P014/things_banner_07s.jpg,0,0,0.0,0,126,126,126,,,,,,,,,,,,,296.0122866999991,0.012286699999094708,None,333.78910500000165,333.78910500000165,333.78910500000165,333.78910500000165,333.78910500000165,333.78910500000165,333.78910500000165,333.78910500000165,333.78910500000165,333.78910500000165,,005,P014,2025_Feb_28_1632,ConditionRich,2021.2.3,59.926709633723895,
299.75,300.0,41,0.0,Stimuli/Blank.png,0,0,0.0,0,127,127,127,,,,,,,,,,,,,299.7667982999992,0.01679829999920912,None,337.5444600999999,337.5444600999999,337.5444600999999,337.5444600999999,337.5444600999999,337.5444600999999,337.5444600999999,337.5444600999999,337.5444600999999,337.5444600999999,,005,P014,2025_Feb_28_1632,ConditionRich,2021.2.3,59.926709633723895,
300.0,303.75,1,0.75,Stimuli/P014/sun_adkmgqclfrkhfxbd.jpg,0,0,0.0,0,128,128,128,,,,,,,,,,,,,300.01596210000025,0.015962100000251667,None,337.79377550000027,337.79377550000027,337.79377550000027,337.79377550000027,337.79377550000027,337.79377550000027,337.79377550000027,337.79377550000027,337.79377550000027,337.79377550000027,,005,P014,2025_Feb_28_1632,ConditionRich,2021.2.3,59.926709633723895,
303.75,304.0,41,0.0,Stimuli/Blank.png,0,0,0.0,0,129,129,129,,,,,,,,,,,,,303.75188589999925,0.0018858999992517056,None,341.5290343000015,341.5290343000015,341.5290343000015,341.5290343000015,341.5290343000015,341.5290343000015,341.5290343000015,341.5290343000015,341.5290343000015,341.5290343000015,,005,P014,2025_Feb_28_1632,ConditionRich,2021.2.3,59.926709633723895,
304.0,307.75,3,0.75,Stimuli/P014/sun_aengzsmykwchlrdn.jpg,0,0,0.0,0,130,130,130,,,,,,,,,,,,,304.0023724999992,0.0023724999991827644,None,341.780725300001,341.780725300001,341.780725300001,341.780725300001,341.780725300001,341.780725300001,341.780725300001,341.780725300001,341.780725300001,341.780725300001,,005,P014,2025_Feb_28_1632,ConditionRich,2021.2.3,59.926709633723895,
307.75,308.0,41,0.0,Stimuli/Blank.png,0,0,0.0,0,131,131,131,,,,,,,,,,,,,307.75625949999994,0.006259499999941909,None,345.5317509000015,345.5317509000015,345.5317509000015,345.5317509000015,345.5317509000015,345.5317509000015,345.5317509000015,345.5317509000015,345.5317509000015,345.5317509000015,,005,P014,2025_Feb_28_1632,ConditionRich,2021.2.3,59.926709633723895,
308.0,311.75,20,0.75,Stimuli/P014/sun_cidodcxikcyrdglc.jpg,0,0,0.0,0,132,132,132,,,,,,,,,,,,,308.0065102000008,0.006510200000775512,None,345.78414260000136,345.78414260000136,345.78414260000136,345.78414260000136,345.78414260000136,345.78414260000136,345.78414260000136,345.78414260000136,345.78414260000136,345.78414260000136,,005,P014,2025_Feb_28_1632,ConditionRich,2021.2.3,59.926709633723895,
311.75,312.0,41,0.0,Stimuli/Blank.png,0,0,0.0,0,133,133,133,,,,,,,,,,,,,311.7599773000002,0.009977300000173273,None,349.5355505000007,349.5355505000007,349.5355505000007,349.5355505000007,349.5355505000007,349.5355505000007,349.5355505000007,349.5355505000007,349.5355505000007,349.5355505000007,,005,P014,2025_Feb_28_1632,ConditionRich,2021.2.3,59.926709633723895,
312.0,315.75,30,0.75,Stimuli/P014/things_man_07s.jpg,0,0,0.0,0,134,134,134,,,,,,,,,,,,,312.0092076000001,0.009207600000081584,None,349.78533750000133,349.78533750000133,349.78533750000133,349.78533750000133,349.78533750000133,349.78533750000133,349.78533750000133,349.78533750000133,349.78533750000133,349.78533750000133,,005,P014,2025_Feb_28_1632,ConditionRich,2021.2.3,59.926709633723895,
315.75,316.0,41,0.0,Stimuli/Blank.png,0,0,0.0,0,135,135,135,,,,,,,,,,,,,315.7628377000001,0.01283770000009099,None,353.53905620000114,353.53905620000114,353.53905620000114,353.53905620000114,353.53905620000114,353.53905620000114,353.53905620000114,353.53905620000114,353.53905620000114,353.53905620000114,,005,P014,2025_Feb_28_1632,ConditionRich,2021.2.3,59.926709633723895,
316.0,319.75,13,0.75,Stimuli/P014/sun_bpccpwpohfirajtf.jpg,0,0,0.0,0,136,136,136,,,,,,,,,,,,,316.0116550999992,0.011655099999188678,None,353.788755900001,353.788755900001,353.788755900001,353.788755900001,353.788755900001,353.788755900001,353.788755900001,353.788755900001,353.788755900001,353.788755900001,,005,P014,2025_Feb_28_1632,ConditionRich,2021.2.3,59.926709633723895,
319.75,320.0,41,0.0,Stimuli/Blank.png,0,0,0.0,0,137,137,137,,,,,,,,,,,,,319.76696359999914,0.016963599999144208,None,357.54353420000007,357.54353420000007,357.54353420000007,357.54353420000007,357.54353420000007,357.54353420000007,357.54353420000007,357.54353420000007,357.54353420000007,357.54353420000007,,005,P014,2025_Feb_28_1632,ConditionRich,2021.2.3,59.926709633723895,
320.0,323.75,27,0.75,Stimuli/P014/things_face_07s.jpg,1,1,1.75,0,138,138,138,,,,,,,,,,,,,319.9990687999998,-0.0009312000001955312,1,357.7765296000016,357.7765296000016,357.7765296000016,357.7765296000016,357.7765296000016,357.7765296000016,358.7604925000014,359.5118500000008,357.7765296000016,357.7765296000016,1.4571249000000535,005,P014,2025_Feb_28_1632,ConditionRich,2021.2.3,59.926709633723895,
323.75,324.0,41,0.0,Stimuli/Blank.png,0,0,0.0,0,139,139,139,,,,,,,,,,,,,323.7529878999994,0.002987899999425281,None,361.52941420000025,361.52941420000025,361.52941420000025,361.52941420000025,361.52941420000025,361.52941420000025,361.52941420000025,361.52941420000025,361.52941420000025,361.52941420000025,,005,P014,2025_Feb_28_1632,ConditionRich,2021.2.3,59.926709633723895,
324.0,327.75,15,0.75,Stimuli/P014/sun_brezwczwwllviogu.jpg,0,0,0.0,0,140,140,140,,,,,,,,,,,,,324.00393749999967,0.003937499999665306,None,361.78166880000026,361.78166880000026,361.78166880000026,361.78166880000026,361.78166880000026,361.78166880000026,361.78166880000026,361.78166880000026,361.78166880000026,361.78166880000026,,005,P014,2025_Feb_28_1632,ConditionRich,2021.2.3,59.926709633723895,
327.75,328.0,41,0.0,Stimuli/Blank.png,0,0,0.0,0,141,141,141,,,,,,,,,,,,,327.7563527000002,0.0063527000002068235,None,365.5330303999999,365.5330303999999,365.5330303999999,365.5330303999999,365.5330303999999,365.5330303999999,365.5330303999999,365.5330303999999,365.5330303999999,365.5330303999999,,005,P014,2025_Feb_28_1632,ConditionRich,2021.2.3,59.926709633723895,
328.0,331.75,19,0.75,Stimuli/P014/sun_buphlelowxjnoygy.jpg,0,0,0.0,0,142,142,142,,,,,,,,,,,,,328.00723710000057,0.007237100000565988,None,365.78360450000037,365.78360450000037,365.78360450000037,365.78360450000037,365.78360450000037,365.78360450000037,365.78360450000037,365.78360450000037,365.78360450000037,365.78360450000037,,005,P014,2025_Feb_28_1632,ConditionRich,2021.2.3,59.926709633723895,
331.75,332.0,41,0.0,Stimuli/Blank.png,0,0,0.0,0,143,143,143,,,,,,,,,,,,,331.7604379000004,0.010437900000397349,None,369.5365483000005,369.5365483000005,369.5365483000005,369.5365483000005,369.5365483000005,369.5365483000005,369.5365483000005,369.5365483000005,369.5365483000005,369.5365483000005,,005,P014,2025_Feb_28_1632,ConditionRich,2021.2.3,59.926709633723895,
332.0,335.75,33,0.75,Stimuli/P014/things_piglet_07s.jpg,1,0,0.75,0,144,144,144,,,,,,,,,,,,,332.0104491000002,0.010449100000187173,1,369.78673120000167,369.78673120000167,369.78673120000167,369.78673120000167,369.78673120000167,369.78673120000167,369.78673120000167,370.5205457000011,369.78673120000167,369.78673120000167,0.4029657999999472,005,P014,2025_Feb_28_1632,ConditionRich,2021.2.3,59.926709633723895,
335.75,336.0,41,0.0,Stimuli/Blank.png,0,0,0.0,0,145,145,145,,,,,,,,,,,,,335.76369820000036,0.013698200000362704,None,373.5400402000014,373.5400402000014,373.5400402000014,373.5400402000014,373.5400402000014,373.5400402000014,373.5400402000014,373.5400402000014,373.5400402000014,373.5400402000014,,005,P014,2025_Feb_28_1632,ConditionRich,2021.2.3,59.926709633723895,
336.0,339.75,37,0.75,Stimuli/P014/things_slug_07s.jpg,0,0,0.0,0,146,146,146,,,,,,,,,,,,,336.0150104000004,0.01501040000039211,None,373.7941871000003,373.7941871000003,373.7941871000003,373.7941871000003,373.7941871000003,373.7941871000003,373.7941871000003,373.7941871000003,373.7941871000003,373.7941871000003,,005,P014,2025_Feb_28_1632,ConditionRich,2021.2.3,59.926709633723895,
339.75,340.0,41,0.0,Stimuli/Blank.png,0,0,0.0,0,147,147,147,,,,,,,,,,,,,339.76787909999985,0.017879099999845494,None,377.5442404000005,377.5442404000005,377.5442404000005,377.5442404000005,377.5442404000005,377.5442404000005,377.5442404000005,377.5442404000005,377.5442404000005,377.5442404000005,,005,P014,2025_Feb_28_1632,ConditionRich,2021.2.3,59.926709633723895,
340.0,343.75,23,0.75,Stimuli/P014/things_bug_07s.jpg,0,0,0.0,0,148,148,148,,,,,,,,,,,,,340.00116999999955,0.0011699999995471444,None,377.77703850000034,377.77703850000034,377.77703850000034,377.77703850000034,377.77703850000034,377.77703850000034,377.77703850000034,377.77703850000034,377.77703850000034,377.77703850000034,,005,P014,2025_Feb_28_1632,ConditionRich,2021.2.3,59.926709633723895,
343.75,344.0,41,0.0,Stimuli/Blank.png,0,0,0.0,0,149,149,149,,,,,,,,,,,,,343.7552393999995,0.005239399999481975,None,381.53021080000144,381.53021080000144,381.53021080000144,381.53021080000144,381.53021080000144,381.53021080000144,381.53021080000144,381.53021080000144,381.53021080000144,381.53021080000144,,005,P014,2025_Feb_28_1632,ConditionRich,2021.2.3,59.926709633723895,
344.0,347.75,8,0.75,Stimuli/P014/sun_auqrilekgmdmrncq.jpg,1,2,2.75,0,150,150,150,,,,,,,,,,,,,344.0039852000009,0.003985200000897748,1,381.78041570000096,381.78041570000096,381.78041570000096,381.78041570000096,381.78041570000096,381.78041570000096,383.7654953000001,384.5166022000012,381.78041570000096,381.78041570000096,2.3856336000008014,005,P014,2025_Feb_28_1632,ConditionRich,2021.2.3,59.926709633723895,
347.75,348.0,41,0.0,Stimuli/Blank.png,0,0,0.0,0,151,151,151,,,,,,,,,,,,,347.7577093,0.0077092999999877065,None,385.533926600001,385.533926600001,385.533926600001,385.533926600001,385.533926600001,385.533926600001,385.533926600001,385.533926600001,385.533926600001,385.533926600001,,005,P014,2025_Feb_28_1632,ConditionRich,2021.2.3,59.926709633723895,
348.0,351.75,29,0.75,Stimuli/P014/things_iguana_07s.jpg,0,0,0.0,0,152,152,152,,,,,,,,,,,,,348.0089836999996,0.00898369999958959,None,385.7917081000014,385.7917081000014,385.7917081000014,385.7917081000014,385.7917081000014,385.7917081000014,385.7917081000014,385.7917081000014,385.7917081000014,385.7917081000014,,005,P014,2025_Feb_28_1632,ConditionRich,2021.2.3,59.926709633723895,
351.75,352.0,41,0.0,Stimuli/Blank.png,0,0,0.0,0,153,153,153,,,,,,,,,,,,,351.76132569999936,0.01132569999936095,None,389.5374008000017,389.5374008000017,389.5374008000017,389.5374008000017,389.5374008000017,389.5374008000017,389.5374008000017,389.5374008000017,389.5374008000017,389.5374008000017,,005,P014,2025_Feb_28_1632,ConditionRich,2021.2.3,59.926709633723895,
352.0,355.75,16,0.75,Stimuli/P014/sun_bsgtkqjrnrvttrax.jpg,0,0,0.0,0,154,154,154,,,,,,,,,,,,,352.01104959999975,0.01104959999975108,None,389.787096,389.787096,389.787096,389.787096,389.787096,389.787096,389.787096,389.787096,389.787096,389.787096,,005,P014,2025_Feb_28_1632,ConditionRich,2021.2.3,59.926709633723895,
355.75,356.0,41,0.0,Stimuli/Blank.png,0,0,0.0,0,155,155,155,,,,,,,,,,,,,355.76485259999936,0.014852599999358063,None,393.5408013000015,393.5408013000015,393.5408013000015,393.5408013000015,393.5408013000015,393.5408013000015,393.5408013000015,393.5408013000015,393.5408013000015,393.5408013000015,,005,P014,2025_Feb_28_1632,ConditionRich,2021.2.3,59.926709633723895,
356.0,359.75,21,0.75,Stimuli/P014/things_baby_07s.jpg,0,0,0.0,0,156,156,156,,,,,,,,,,,,,356.0147959999995,0.014795999999478227,None,393.7908516000007,393.7908516000007,393.7908516000007,393.7908516000007,393.7908516000007,393.7908516000007,393.7908516000007,393.7908516000007,393.7908516000007,393.7908516000007,,005,P014,2025_Feb_28_1632,ConditionRich,2021.2.3,59.926709633723895,
359.75,360.0,41,0.0,Stimuli/Blank.png,0,0,0.0,0,157,157,157,,,,,,,,,,,,,359.751585,0.001584999999977299,None,397.5278472000009,397.5278472000009,397.5278472000009,397.5278472000009,397.5278472000009,397.5278472000009,397.5278472000009,397.5278472000009,397.5278472000009,397.5278472000009,,005,P014,2025_Feb_28_1632,ConditionRich,2021.2.3,59.926709633723895,
360.0,363.75,11,0.75,Stimuli/P014/sun_bfyxzbjsvqsobbky.jpg,0,0,0.0,0,158,158,158,,,,,,,,,,,,,360.00201820000075,0.0020182000007480383,None,397.7777621000005,397.7777621000005,397.7777621000005,397.7777621000005,397.7777621000005,397.7777621000005,397.7777621000005,397.7777621000005,397.7777621000005,397.7777621000005,,005,P014,2025_Feb_28_1632,ConditionRich,2021.2.3,59.926709633723895,
363.75,364.0,41,0.0,Stimuli/Blank.png,0,0,0.0,0,159,159,159,,,,,,,,,,,,,363.7566076000003,0.00660760000027949,None,401.5309425000014,401.5309425000014,401.5309425000014,401.5309425000014,401.5309425000014,401.5309425000014,401.5309425000014,401.5309425000014,401.5309425000014,401.5309425000014,,005,P014,2025_Feb_28_1632,ConditionRich,2021.2.3,59.926709633723895,
364.0,367.75,9,0.75,Stimuli/P014/sun_bdgwqzttihopmpbf.jpg,0,0,0.0,0,160,160,160,,,,,,,,,,,,,364.00681000000077,0.006810000000768923,None,401.7827264000007,401.7827264000007,401.7827264000007,401.7827264000007,401.7827264000007,401.7827264000007,401.7827264000007,401.7827264000007,401.7827264000007,401.7827264000007,,005,P014,2025_Feb_28_1632,ConditionRich,2021.2.3,59.926709633723895,
367.75,368.0,41,0.0,Stimuli/Blank.png,0,0,0.0,0,161,161,161,,,,,,,,,,,,,367.7595199999996,0.009519999999611173,None,405.55171530000007,405.55171530000007,405.55171530000007,405.55171530000007,405.55171530000007,405.55171530000007,405.55171530000007,405.55171530000007,405.55171530000007,405.55171530000007,,005,P014,2025_Feb_28_1632,ConditionRich,2021.2.3,59.926709633723895,
368.0,371.75,6,0.75,Stimuli/P014/sun_aoejkkmwkfegacni.jpg,0,0,0.0,0,162,162,162,,,,,,,,,,,,,368.0264379,0.026437900000019,None,405.8015864000008,405.8015864000008,405.8015864000008,405.8015864000008,405.8015864000008,405.8015864000008,405.8015864000008,405.8015864000008,405.8015864000008,405.8015864000008,,005,P014,2025_Feb_28_1632,ConditionRich,2021.2.3,59.926709633723895,
371.75,372.0,41,0.0,Stimuli/Blank.png,0,0,0.0,0,163,163,163,,,,,,,,,,,,,371.7629314000005,0.012931400000525173,None,409.5385047,409.5385047,409.5385047,409.5385047,409.5385047,409.5385047,409.5385047,409.5385047,409.5385047,409.5385047,,005,P014,2025_Feb_28_1632,ConditionRich,2021.2.3,59.926709633723895,
372.0,388.0,0,0.0,Stimuli/Blank.png,1,9,9.75,0,164,164,164,,,,,,,,,,,,,372.0138552999997,0.013855299999704584,1,409.788755900001,409.788755900001,409.788755900001,409.788755900001,409.788755900001,409.788755900001,418.7800349000008,419.53035940000154,409.788755900001,409.788755900001,9.432043999999223,005,P014,2025_Feb_28_1632,ConditionRich,2021.2.3,59.926709633723895,
