eventStartTime,eventEndTime,eventCond,imSize,imFile,responseEvent,fixRespStart,fixRespEnd,Events.thisRepN,Events.thisTrialN,Events.thisN,Events.thisIndex,Instructions.started,Instructions.stopped,participantReadyResponse.keys,participantReadyResponse.rt,participantReadyResponse.started,participantReadyResponse.stopped,startWaitforTrigger,triggerResponse.keys,triggerResponse.rt,triggerResponse.started,triggerResponse.stopped,globalTimer,actualStartTime,startTimingDiff,participantResponse.keys,participantResponse.started,participantResponse.stopped,image.started,image.stopped,fixationOutside.started,fixationOutside.stopped,fixationResponse.started,fixationResponse.stopped,fixationInside.started,fixationInside.stopped,participantResponse.rt,session,participant,date,expName,psychopyVersion,frameRate,
,,,,,,,,,,,,15.207697400001052,None,1,7.585633900000175,15.207697400001052,None,,,,,,,,,,,,,,,,,,,,,007,P014,2025_Feb_28_1654,ConditionRich,2021.2.3,59.94700684589121,
,,,,,,,,,,,,,,,,,,22.806632499999978,5,19.411535900000672,22.82090000000062,None,,,,,,,,,,,,,,,,007,P014,2025_Feb_28_1654,ConditionRich,2021.2.3,59.94700684589121,
0.0,4.0,0,0.0,Stimuli/Blank.png,0,0,0.0,0,0,0,0,,,,,,,,,,,,42.24129949999951,0.03956509999989066,0.03956509999989066,None,42.304790800000774,None,42.304790800000774,None,42.304790800000774,None,42.304790800000774,42.304790800000774,42.304790800000774,None,,007,P014,2025_Feb_28_1654,ConditionRich,2021.2.3,59.94700684589121,
4.0,4.75,25,0.75,Stimuli/P014/things_cashew_07s.jpg,1,0,0.75,0,1,1,1,,,,,,,,,,,,,4.02095670000017,0.020956700000169803,1,46.291918500000975,46.291918500000975,46.291918500000975,46.291918500000975,46.291918500000975,46.291918500000975,46.291918500000975,47.0089638999998,46.291918500000975,46.291918500000975,0.6404415999986668,007,P014,2025_Feb_28_1654,ConditionRich,2021.2.3,59.94700684589121,
4.75,5.0,41,0.0,Stimuli/Blank.png,0,0,0.0,0,2,2,2,,,,,,,,,,,,,4.771124500000951,0.02112450000095123,None,47.02589799999987,47.02589799999987,47.02589799999987,47.02589799999987,47.02589799999987,47.02589799999987,47.02589799999987,47.02589799999987,47.02589799999987,47.02589799999987,,007,P014,2025_Feb_28_1654,ConditionRich,2021.2.3,59.94700684589121,
5.0,5.75,25,0.75,Stimuli/P014/things_cashew_07s.jpg,0,0,0.0,0,3,3,3,,,,,,,,,,,,,5.004092799999853,0.004092799999853014,None,47.25914990000092,47.25914990000092,47.25914990000092,47.25914990000092,47.25914990000092,47.25914990000092,47.25914990000092,47.25914990000092,47.25914990000092,47.25914990000092,,007,P014,2025_Feb_28_1654,ConditionRich,2021.2.3,59.94700684589121,
5.75,6.0,41,0.0,Stimuli/Blank.png,0,0,0.0,0,4,4,4,,,,,,,,,,,,,5.753906199999619,0.0039061999996192753,None,48.00983290000113,48.00983290000113,48.00983290000113,48.00983290000113,48.00983290000113,48.00983290000113,48.00983290000113,48.00983290000113,48.00983290000113,48.00983290000113,,007,P014,2025_Feb_28_1654,ConditionRich,2021.2.3,59.94700684589121,
6.0,6.75,25,0.75,Stimuli/P014/things_cashew_07s.jpg,0,0,0.0,0,5,5,5,,,,,,,,,,,,,6.004489599999943,0.004489599999942584,None,48.26003049999963,48.26003049999963,48.26003049999963,48.26003049999963,48.26003049999963,48.26003049999963,48.26003049999963,48.26003049999963,48.26003049999963,48.26003049999963,,007,P014,2025_Feb_28_1654,ConditionRich,2021.2.3,59.94700684589121,
6.75,7.0,41,0.0,Stimuli/Blank.png,0,0,0.0,0,6,6,6,,,,,,,,,,,,,6.757524500000727,0.00752450000072713,None,49.02740100000119,49.02740100000119,49.02740100000119,49.02740100000119,49.02740100000119,49.02740100000119,49.02740100000119,49.02740100000119,49.02740100000119,49.02740100000119,,007,P014,2025_Feb_28_1654,ConditionRich,2021.2.3,59.94700684589121,
7.0,7.75,25,0.75,Stimuli/P014/things_cashew_07s.jpg,0,0,0.0,0,7,7,7,,,,,,,,,,,,,7.022652999999991,0.022652999999991152,None,49.27760269999999,49.27760269999999,49.27760269999999,49.27760269999999,49.27760269999999,49.27760269999999,49.27760269999999,49.27760269999999,49.27760269999999,49.27760269999999,,007,P014,2025_Feb_28_1654,ConditionRich,2021.2.3,59.94700684589121,
7.75,8.0,41,0.0,Stimuli/Blank.png,0,0,0.0,0,8,8,8,,,,,,,,,,,,,7.756072300000596,0.006072300000596442,None,50.01160019999952,50.01160019999952,50.01160019999952,50.01160019999952,50.01160019999952,50.01160019999952,50.01160019999952,50.01160019999952,50.01160019999952,50.01160019999952,,007,P014,2025_Feb_28_1654,ConditionRich,2021.2.3,59.94700684589121,
8.0,8.75,28,0.75,Stimuli/P014/things_girl_07s.jpg,0,0,0.0,0,9,9,9,,,,,,,,,,,,,8.006762299999536,0.006762299999536481,None,50.278487499999756,50.278487499999756,50.278487499999756,50.278487499999756,50.278487499999756,50.278487499999756,50.278487499999756,50.278487499999756,50.278487499999756,50.278487499999756,,007,P014,2025_Feb_28_1654,ConditionRich,2021.2.3,59.94700684589121,
8.75,9.0,41,0.0,Stimuli/Blank.png,0,0,0.0,0,10,10,10,,,,,,,,,,,,,8.7734674000003,0.023467400000299676,None,51.02916550000009,51.02916550000009,51.02916550000009,51.02916550000009,51.02916550000009,51.02916550000009,51.02916550000009,51.02916550000009,51.02916550000009,51.02916550000009,,007,P014,2025_Feb_28_1654,ConditionRich,2021.2.3,59.94700684589121,
9.0,9.75,28,0.75,Stimuli/P014/things_girl_07s.jpg,0,0,0.0,0,11,11,11,,,,,,,,,,,,,9.007696200000282,0.007696200000282261,None,51.27937539999948,51.27937539999948,51.27937539999948,51.27937539999948,51.27937539999948,51.27937539999948,51.27937539999948,51.27937539999948,51.27937539999948,51.27937539999948,,007,P014,2025_Feb_28_1654,ConditionRich,2021.2.3,59.94700684589121,
9.75,10.0,41,0.0,Stimuli/Blank.png,0,0,0.0,0,12,12,12,,,,,,,,,,,,,9.774043400000664,0.024043400000664406,None,52.030036800000744,52.030036800000744,52.030036800000744,52.030036800000744,52.030036800000744,52.030036800000744,52.030036800000744,52.030036800000744,52.030036800000744,52.030036800000744,,007,P014,2025_Feb_28_1654,ConditionRich,2021.2.3,59.94700684589121,
10.0,10.75,28,0.75,Stimuli/P014/things_girl_07s.jpg,0,0,0.0,0,13,13,13,,,,,,,,,,,,,10.0083338000004,0.008333800000400515,None,52.28028210000048,52.28028210000048,52.28028210000048,52.28028210000048,52.28028210000048,52.28028210000048,52.28028210000048,52.28028210000048,52.28028210000048,52.28028210000048,,007,P014,2025_Feb_28_1654,ConditionRich,2021.2.3,59.94700684589121,
10.75,11.0,41,0.0,Stimuli/Blank.png,0,0,0.0,0,14,14,14,,,,,,,,,,,,,10.775061000000278,0.025061000000278,None,53.03091940000013,53.03091940000013,53.03091940000013,53.03091940000013,53.03091940000013,53.03091940000013,53.03091940000013,53.03091940000013,53.03091940000013,53.03091940000013,,007,P014,2025_Feb_28_1654,ConditionRich,2021.2.3,59.94700684589121,
11.0,11.75,28,0.75,Stimuli/P014/things_girl_07s.jpg,0,0,0.0,0,15,15,15,,,,,,,,,,,,,11.008564899999328,0.00856489999932819,None,53.26443029999973,53.26443029999973,53.26443029999973,53.26443029999973,53.26443029999973,53.26443029999973,53.26443029999973,53.26443029999973,53.26443029999973,53.26443029999973,,007,P014,2025_Feb_28_1654,ConditionRich,2021.2.3,59.94700684589121,
11.75,12.0,41,0.0,Stimuli/Blank.png,0,0,0.0,0,16,16,16,,,,,,,,,,,,,11.759802799999306,0.009802799999306444,None,54.01513139999952,54.01513139999952,54.01513139999952,54.01513139999952,54.01513139999952,54.01513139999952,54.01513139999952,54.01513139999952,54.01513139999952,54.01513139999952,,007,P014,2025_Feb_28_1654,ConditionRich,2021.2.3,59.94700684589121,
12.0,12.75,32,0.75,Stimuli/P014/things_mistletoe_07s.jpg,0,0,0.0,0,17,17,17,,,,,,,,,,,,,12.009517099999357,0.009517099999357015,None,54.26534470000115,54.26534470000115,54.26534470000115,54.26534470000115,54.26534470000115,54.26534470000115,54.26534470000115,54.26534470000115,54.26534470000115,54.26534470000115,,007,P014,2025_Feb_28_1654,ConditionRich,2021.2.3,59.94700684589121,
12.75,13.0,41,0.0,Stimuli/Blank.png,0,0,0.0,0,18,18,18,,,,,,,,,,,,,12.760039799999504,0.010039799999503884,None,55.016016699999454,55.016016699999454,55.016016699999454,55.016016699999454,55.016016699999454,55.016016699999454,55.016016699999454,55.016016699999454,55.016016699999454,55.016016699999454,,007,P014,2025_Feb_28_1654,ConditionRich,2021.2.3,59.94700684589121,
13.0,13.75,32,0.75,Stimuli/P014/things_mistletoe_07s.jpg,0,0,0.0,0,19,19,19,,,,,,,,,,,,,13.010765099999844,0.010765099999844097,None,55.282951900000626,55.282951900000626,55.282951900000626,55.282951900000626,55.282951900000626,55.282951900000626,55.282951900000626,55.282951900000626,55.282951900000626,55.282951900000626,,007,P014,2025_Feb_28_1654,ConditionRich,2021.2.3,59.94700684589121,
13.75,14.0,41,0.0,Stimuli/Blank.png,0,0,0.0,0,20,20,20,,,,,,,,,,,,,13.778464000000895,0.028464000000894885,None,56.033592699999645,56.033592699999645,56.033592699999645,56.033592699999645,56.033592699999645,56.033592699999645,56.033592699999645,56.033592699999645,56.033592699999645,56.033592699999645,,007,P014,2025_Feb_28_1654,ConditionRich,2021.2.3,59.94700684589121,
14.0,14.75,32,0.75,Stimuli/P014/things_mistletoe_07s.jpg,0,0,0.0,0,21,21,21,,,,,,,,,,,,,14.011217100000067,0.011217100000067148,None,56.26711780000005,56.26711780000005,56.26711780000005,56.26711780000005,56.26711780000005,56.26711780000005,56.26711780000005,56.26711780000005,56.26711780000005,56.26711780000005,,007,P014,2025_Feb_28_1654,ConditionRich,2021.2.3,59.94700684589121,
14.75,15.0,41,0.0,Stimuli/Blank.png,0,0,0.0,0,22,22,22,,,,,,,,,,,,,14.764493500000754,0.014493500000753556,None,57.03447580000102,57.03447580000102,57.03447580000102,57.03447580000102,57.03447580000102,57.03447580000102,57.03447580000102,57.03447580000102,57.03447580000102,57.03447580000102,,007,P014,2025_Feb_28_1654,ConditionRich,2021.2.3,59.94700684589121,
15.0,15.75,32,0.75,Stimuli/P014/things_mistletoe_07s.jpg,0,0,0.0,0,23,23,23,,,,,,,,,,,,,15.030280400000265,0.030280400000265217,None,57.30139020000024,57.30139020000024,57.30139020000024,57.30139020000024,57.30139020000024,57.30139020000024,57.30139020000024,57.30139020000024,57.30139020000024,57.30139020000024,,007,P014,2025_Feb_28_1654,ConditionRich,2021.2.3,59.94700684589121,
15.75,16.0,41,0.0,Stimuli/Blank.png,0,0,0.0,0,24,24,24,,,,,,,,,,,,,15.779409400000077,0.029409400000076857,None,58.03535379999994,58.03535379999994,58.03535379999994,58.03535379999994,58.03535379999994,58.03535379999994,58.03535379999994,58.03535379999994,58.03535379999994,58.03535379999994,,007,P014,2025_Feb_28_1654,ConditionRich,2021.2.3,59.94700684589121,
16.0,16.75,34,0.75,Stimuli/P014/things_radio_07s.jpg,0,0,0.0,0,25,25,25,,,,,,,,,,,,,16.013373499999943,0.013373499999943306,None,58.26888510000026,58.26888510000026,58.26888510000026,58.26888510000026,58.26888510000026,58.26888510000026,58.26888510000026,58.26888510000026,58.26888510000026,58.26888510000026,,007,P014,2025_Feb_28_1654,ConditionRich,2021.2.3,59.94700684589121,
16.75,17.0,41,0.0,Stimuli/Blank.png,0,0,0.0,0,26,26,26,,,,,,,,,,,,,16.763945500000773,0.013945500000772881,None,59.01956369999971,59.01956369999971,59.01956369999971,59.01956369999971,59.01956369999971,59.01956369999971,59.01956369999971,59.01956369999971,59.01956369999971,59.01956369999971,,007,P014,2025_Feb_28_1654,ConditionRich,2021.2.3,59.94700684589121,
17.0,17.75,34,0.75,Stimuli/P014/things_radio_07s.jpg,0,0,0.0,0,27,27,27,,,,,,,,,,,,,17.014559100000042,0.014559100000042235,None,59.269786799999565,59.269786799999565,59.269786799999565,59.269786799999565,59.269786799999565,59.269786799999565,59.269786799999565,59.269786799999565,59.269786799999565,59.269786799999565,,007,P014,2025_Feb_28_1654,ConditionRich,2021.2.3,59.94700684589121,
17.75,18.0,41,0.0,Stimuli/Blank.png,0,0,0.0,0,28,28,28,,,,,,,,,,,,,17.765603800000463,0.015603800000462797,None,60.02045139999973,60.02045139999973,60.02045139999973,60.02045139999973,60.02045139999973,60.02045139999973,60.02045139999973,60.02045139999973,60.02045139999973,60.02045139999973,,007,P014,2025_Feb_28_1654,ConditionRich,2021.2.3,59.94700684589121,
18.0,18.75,34,0.75,Stimuli/P014/things_radio_07s.jpg,0,0,0.0,0,29,29,29,,,,,,,,,,,,,17.99879300000066,-0.0012069999993400415,None,60.27068230000077,60.27068230000077,60.27068230000077,60.27068230000077,60.27068230000077,60.27068230000077,60.27068230000077,60.27068230000077,60.27068230000077,60.27068230000077,,007,P014,2025_Feb_28_1654,ConditionRich,2021.2.3,59.94700684589121,
18.75,19.0,41,0.0,Stimuli/Blank.png,0,0,0.0,0,30,30,30,,,,,,,,,,,,,18.766372100000808,0.016372100000808132,None,61.02132800000072,61.02132800000072,61.02132800000072,61.02132800000072,61.02132800000072,61.02132800000072,61.02132800000072,61.02132800000072,61.02132800000072,61.02132800000072,,007,P014,2025_Feb_28_1654,ConditionRich,2021.2.3,59.94700684589121,
19.0,19.75,34,0.75,Stimuli/P014/things_radio_07s.jpg,0,0,0.0,0,31,31,31,,,,,,,,,,,,,18.999661500000002,-0.00033849999999802094,None,61.27155180000045,61.27155180000045,61.27155180000045,61.27155180000045,61.27155180000045,61.27155180000045,61.27155180000045,61.27155180000045,61.27155180000045,61.27155180000045,,007,P014,2025_Feb_28_1654,ConditionRich,2021.2.3,59.94700684589121,
19.75,20.0,41,0.0,Stimuli/Blank.png,0,0,0.0,0,32,32,32,,,,,,,,,,,,,19.769097399999737,0.019097399999736808,None,62.03894089999994,62.03894089999994,62.03894089999994,62.03894089999994,62.03894089999994,62.03894089999994,62.03894089999994,62.03894089999994,62.03894089999994,62.03894089999994,,007,P014,2025_Feb_28_1654,ConditionRich,2021.2.3,59.94700684589121,
20.0,20.75,18,0.75,Stimuli/P014/sun_btohwudpiusfvpvl.jpg,0,0,0.0,0,33,33,33,,,,,,,,,,,,,20.016921500000535,0.01692150000053516,None,62.27248189999955,62.27248189999955,62.27248189999955,62.27248189999955,62.27248189999955,62.27248189999955,62.27248189999955,62.27248189999955,62.27248189999955,62.27248189999955,,007,P014,2025_Feb_28_1654,ConditionRich,2021.2.3,59.94700684589121,
20.75,21.0,41,0.0,Stimuli/Blank.png,0,0,0.0,0,34,34,34,,,,,,,,,,,,,20.750565199999983,0.000565199999982724,None,63.00647340000069,63.00647340000069,63.00647340000069,63.00647340000069,63.00647340000069,63.00647340000069,63.00647340000069,63.00647340000069,63.00647340000069,63.00647340000069,,007,P014,2025_Feb_28_1654,ConditionRich,2021.2.3,59.94700684589121,
21.0,21.75,18,0.75,Stimuli/P014/sun_btohwudpiusfvpvl.jpg,1,0,0.75,0,35,35,35,,,,,,,,,,,,,21.0007456000003,0.0007456000003003282,1,63.27333800000088,63.27333800000088,63.27333800000088,63.27333800000088,63.27333800000088,63.27333800000088,63.27333800000088,63.99062100000083,63.27333800000088,63.27333800000088,0.4080234000011842,007,P014,2025_Feb_28_1654,ConditionRich,2021.2.3,59.94700684589121,
21.75,22.0,41,0.0,Stimuli/Blank.png,0,0,0.0,0,36,36,36,,,,,,,,,,,,,21.768080499999996,0.01808049999999639,None,64.02397759999985,64.02397759999985,64.02397759999985,64.02397759999985,64.02397759999985,64.02397759999985,64.02397759999985,64.02397759999985,64.02397759999985,64.02397759999985,,007,P014,2025_Feb_28_1654,ConditionRich,2021.2.3,59.94700684589121,
22.0,22.75,18,0.75,Stimuli/P014/sun_btohwudpiusfvpvl.jpg,0,0,0.0,0,37,37,37,,,,,,,,,,,,,22.001765799999703,0.0017657999997027218,None,64.25752980000107,64.25752980000107,64.25752980000107,64.25752980000107,64.25752980000107,64.25752980000107,64.25752980000107,64.25752980000107,64.25752980000107,64.25752980000107,,007,P014,2025_Feb_28_1654,ConditionRich,2021.2.3,59.94700684589121,
22.75,23.0,41,0.0,Stimuli/Blank.png,0,0,0.0,0,38,38,38,,,,,,,,,,,,,22.75508330000048,0.00508330000047863,None,65.02487959999962,65.02487959999962,65.02487959999962,65.02487959999962,65.02487959999962,65.02487959999962,65.02487959999962,65.02487959999962,65.02487959999962,65.02487959999962,,007,P014,2025_Feb_28_1654,ConditionRich,2021.2.3,59.94700684589121,
23.0,23.75,18,0.75,Stimuli/P014/sun_btohwudpiusfvpvl.jpg,0,0,0.0,0,39,39,39,,,,,,,,,,,,,23.019870599999194,0.019870599999194383,None,65.27509400000054,65.27509400000054,65.27509400000054,65.27509400000054,65.27509400000054,65.27509400000054,65.27509400000054,65.27509400000054,65.27509400000054,65.27509400000054,,007,P014,2025_Feb_28_1654,ConditionRich,2021.2.3,59.94700684589121,
23.75,24.0,41,0.0,Stimuli/Blank.png,0,0,0.0,0,40,40,40,,,,,,,,,,,,,23.75368619999972,0.0036861999997199746,None,66.00908209999943,66.00908209999943,66.00908209999943,66.00908209999943,66.00908209999943,66.00908209999943,66.00908209999943,66.00908209999943,66.00908209999943,66.00908209999943,,007,P014,2025_Feb_28_1654,ConditionRich,2021.2.3,59.94700684589121,
24.0,24.75,19,0.75,Stimuli/P014/sun_buphlelowxjnoygy.jpg,0,0,0.0,0,41,41,41,,,,,,,,,,,,,24.004531799999313,0.00453179999931308,None,66.25931049999963,66.25931049999963,66.25931049999963,66.25931049999963,66.25931049999963,66.25931049999963,66.25931049999963,66.25931049999963,66.25931049999963,66.25931049999963,,007,P014,2025_Feb_28_1654,ConditionRich,2021.2.3,59.94700684589121,
24.75,25.0,41,0.0,Stimuli/Blank.png,0,0,0.0,0,42,42,42,,,,,,,,,,,,,24.755977599999824,0.005977599999823724,None,67.0266786000011,67.0266786000011,67.0266786000011,67.0266786000011,67.0266786000011,67.0266786000011,67.0266786000011,67.0266786000011,67.0266786000011,67.0266786000011,,007,P014,2025_Feb_28_1654,ConditionRich,2021.2.3,59.94700684589121,
25.0,25.75,19,0.75,Stimuli/P014/sun_buphlelowxjnoygy.jpg,0,0,0.0,0,43,43,43,,,,,,,,,,,,,25.023881499999334,0.023881499999333755,None,67.29354700000113,67.29354700000113,67.29354700000113,67.29354700000113,67.29354700000113,67.29354700000113,67.29354700000113,67.29354700000113,67.29354700000113,67.29354700000113,,007,P014,2025_Feb_28_1654,ConditionRich,2021.2.3,59.94700684589121,
25.75,26.0,41,0.0,Stimuli/Blank.png,0,0,0.0,0,44,44,44,,,,,,,,,,,,,25.77453190000051,0.024531900000511087,None,68.0442294000004,68.0442294000004,68.0442294000004,68.0442294000004,68.0442294000004,68.0442294000004,68.0442294000004,68.0442294000004,68.0442294000004,68.0442294000004,,007,P014,2025_Feb_28_1654,ConditionRich,2021.2.3,59.94700684589121,
26.0,26.75,19,0.75,Stimuli/P014/sun_buphlelowxjnoygy.jpg,0,0,0.0,0,45,45,45,,,,,,,,,,,,,26.023352300000624,0.023352300000624382,None,68.29443160000119,68.29443160000119,68.29443160000119,68.29443160000119,68.29443160000119,68.29443160000119,68.29443160000119,68.29443160000119,68.29443160000119,68.29443160000119,,007,P014,2025_Feb_28_1654,ConditionRich,2021.2.3,59.94700684589121,
26.75,27.0,41,0.0,Stimuli/Blank.png,0,0,0.0,0,46,46,46,,,,,,,,,,,,,26.773479800000132,0.023479800000131945,None,69.0283956000003,69.0283956000003,69.0283956000003,69.0283956000003,69.0283956000003,69.0283956000003,69.0283956000003,69.0283956000003,69.0283956000003,69.0283956000003,,007,P014,2025_Feb_28_1654,ConditionRich,2021.2.3,59.94700684589121,
27.0,27.75,19,0.75,Stimuli/P014/sun_buphlelowxjnoygy.jpg,0,0,0.0,0,47,47,47,,,,,,,,,,,,,27.009152700000413,0.00915270000041346,None,69.27864799999952,69.27864799999952,69.27864799999952,69.27864799999952,69.27864799999952,69.27864799999952,69.27864799999952,69.27864799999952,69.27864799999952,69.27864799999952,,007,P014,2025_Feb_28_1654,ConditionRich,2021.2.3,59.94700684589121,
27.75,28.0,41,0.0,Stimuli/Blank.png,0,0,0.0,0,48,48,48,,,,,,,,,,,,,27.773640900000828,0.02364090000082797,None,70.02929919999951,70.02929919999951,70.02929919999951,70.02929919999951,70.02929919999951,70.02929919999951,70.02929919999951,70.02929919999951,70.02929919999951,70.02929919999951,,007,P014,2025_Feb_28_1654,ConditionRich,2021.2.3,59.94700684589121,
28.0,28.75,12,0.75,Stimuli/P014/sun_bjyrrxiwsnbmkbqs.jpg,0,0,0.0,0,49,49,49,,,,,,,,,,,,,28.00725819999934,0.007258199999341741,None,70.26284699999997,70.26284699999997,70.26284699999997,70.26284699999997,70.26284699999997,70.26284699999997,70.26284699999997,70.26284699999997,70.26284699999997,70.26284699999997,,007,P014,2025_Feb_28_1654,ConditionRich,2021.2.3,59.94700684589121,
28.75,29.0,41,0.0,Stimuli/Blank.png,0,0,0.0,0,50,50,50,,,,,,,,,,,,,28.758962699999756,0.008962699999756296,None,71.01351410000098,71.01351410000098,71.01351410000098,71.01351410000098,71.01351410000098,71.01351410000098,71.01351410000098,71.01351410000098,71.01351410000098,71.01351410000098,,007,P014,2025_Feb_28_1654,ConditionRich,2021.2.3,59.94700684589121,
29.0,29.75,12,0.75,Stimuli/P014/sun_bjyrrxiwsnbmkbqs.jpg,0,0,0.0,0,51,51,51,,,,,,,,,,,,,29.008561500000724,0.008561500000723754,None,71.28041160000066,71.28041160000066,71.28041160000066,71.28041160000066,71.28041160000066,71.28041160000066,71.28041160000066,71.28041160000066,71.28041160000066,71.28041160000066,,007,P014,2025_Feb_28_1654,ConditionRich,2021.2.3,59.94700684589121,
29.75,30.0,41,0.0,Stimuli/Blank.png,0,0,0.0,0,52,52,52,,,,,,,,,,,,,29.775329599999168,0.02532959999916784,None,72.03107350000028,72.03107350000028,72.03107350000028,72.03107350000028,72.03107350000028,72.03107350000028,72.03107350000028,72.03107350000028,72.03107350000028,72.03107350000028,,007,P014,2025_Feb_28_1654,ConditionRich,2021.2.3,59.94700684589121,
30.0,30.75,12,0.75,Stimuli/P014/sun_bjyrrxiwsnbmkbqs.jpg,0,0,0.0,0,53,53,53,,,,,,,,,,,,,30.009339800000816,0.009339800000816467,None,72.26460770000085,72.26460770000085,72.26460770000085,72.26460770000085,72.26460770000085,72.26460770000085,72.26460770000085,72.26460770000085,72.26460770000085,72.26460770000085,,007,P014,2025_Feb_28_1654,ConditionRich,2021.2.3,59.94700684589121,
30.75,31.0,41,0.0,Stimuli/Blank.png,0,0,0.0,0,54,54,54,,,,,,,,,,,,,30.75933629999963,0.009336299999631592,None,73.01527119999992,73.01527119999992,73.01527119999992,73.01527119999992,73.01527119999992,73.01527119999992,73.01527119999992,73.01527119999992,73.01527119999992,73.01527119999992,,007,P014,2025_Feb_28_1654,ConditionRich,2021.2.3,59.94700684589121,
31.0,31.75,12,0.75,Stimuli/P014/sun_bjyrrxiwsnbmkbqs.jpg,0,0,0.0,0,55,55,55,,,,,,,,,,,,,31.009721399999762,0.00972139999976207,None,73.26549960000011,73.26549960000011,73.26549960000011,73.26549960000011,73.26549960000011,73.26549960000011,73.26549960000011,73.26549960000011,73.26549960000011,73.26549960000011,,007,P014,2025_Feb_28_1654,ConditionRich,2021.2.3,59.94700684589121,
31.75,32.0,41,0.0,Stimuli/Blank.png,0,0,0.0,0,56,56,56,,,,,,,,,,,,,31.760228499999357,0.010228499999357155,None,74.01615570000104,74.01615570000104,74.01615570000104,74.01615570000104,74.01615570000104,74.01615570000104,74.01615570000104,74.01615570000104,74.01615570000104,74.01615570000104,,007,P014,2025_Feb_28_1654,ConditionRich,2021.2.3,59.94700684589121,
32.0,32.75,5,0.75,Stimuli/P014/sun_aidrxvbfhxtsusrf.jpg,0,0,0.0,0,57,57,57,,,,,,,,,,,,,32.01049609999973,0.010496099999727448,None,74.28308680000009,74.28308680000009,74.28308680000009,74.28308680000009,74.28308680000009,74.28308680000009,74.28308680000009,74.28308680000009,74.28308680000009,74.28308680000009,,007,P014,2025_Feb_28_1654,ConditionRich,2021.2.3,59.94700684589121,
32.75,33.0,41,0.0,Stimuli/Blank.png,0,0,0.0,0,58,58,58,,,,,,,,,,,,,32.7780187999997,0.028018799999699695,None,75.03373170000123,75.03373170000123,75.03373170000123,75.03373170000123,75.03373170000123,75.03373170000123,75.03373170000123,75.03373170000123,75.03373170000123,75.03373170000123,,007,P014,2025_Feb_28_1654,ConditionRich,2021.2.3,59.94700684589121,
33.0,33.75,5,0.75,Stimuli/P014/sun_aidrxvbfhxtsusrf.jpg,0,0,0.0,0,59,59,59,,,,,,,,,,,,,33.01129840000067,0.011298400000669062,None,75.2672820000007,75.2672820000007,75.2672820000007,75.2672820000007,75.2672820000007,75.2672820000007,75.2672820000007,75.2672820000007,75.2672820000007,75.2672820000007,,007,P014,2025_Feb_28_1654,ConditionRich,2021.2.3,59.94700684589121,
33.75,34.0,41,0.0,Stimuli/Blank.png,0,0,0.0,0,60,60,60,,,,,,,,,,,,,33.76205850000042,0.01205850000042119,None,76.01793290000023,76.01793290000023,76.01793290000023,76.01793290000023,76.01793290000023,76.01793290000023,76.01793290000023,76.01793290000023,76.01793290000023,76.01793290000023,,007,P014,2025_Feb_28_1654,ConditionRich,2021.2.3,59.94700684589121,
34.0,34.75,5,0.75,Stimuli/P014/sun_aidrxvbfhxtsusrf.jpg,0,0,0.0,0,61,61,61,,,,,,,,,,,,,34.01292330000069,0.012923300000693416,None,76.2848414,76.2848414,76.2848414,76.2848414,76.2848414,76.2848414,76.2848414,76.2848414,76.2848414,76.2848414,,007,P014,2025_Feb_28_1654,ConditionRich,2021.2.3,59.94700684589121,
34.75,35.0,41,0.0,Stimuli/Blank.png,0,0,0.0,0,62,62,62,,,,,,,,,,,,,34.780172500000845,0.030172500000844593,None,77.03550890000042,77.03550890000042,77.03550890000042,77.03550890000042,77.03550890000042,77.03550890000042,77.03550890000042,77.03550890000042,77.03550890000042,77.03550890000042,,007,P014,2025_Feb_28_1654,ConditionRich,2021.2.3,59.94700684589121,
35.0,35.75,5,0.75,Stimuli/P014/sun_aidrxvbfhxtsusrf.jpg,0,0,0.0,0,63,63,63,,,,,,,,,,,,,35.013657199999216,0.013657199999215663,None,77.26903940000011,77.26903940000011,77.26903940000011,77.26903940000011,77.26903940000011,77.26903940000011,77.26903940000011,77.26903940000011,77.26903940000011,77.26903940000011,,007,P014,2025_Feb_28_1654,ConditionRich,2021.2.3,59.94700684589121,
35.75,36.0,41,0.0,Stimuli/Blank.png,0,0,0.0,0,64,64,64,,,,,,,,,,,,,35.76636150000013,0.016361500000130036,None,78.03639750000002,78.03639750000002,78.03639750000002,78.03639750000002,78.03639750000002,78.03639750000002,78.03639750000002,78.03639750000002,78.03639750000002,78.03639750000002,,007,P014,2025_Feb_28_1654,ConditionRich,2021.2.3,59.94700684589121,
36.0,36.75,6,0.75,Stimuli/P014/sun_aoejkkmwkfegacni.jpg,1,0,0.75,0,65,65,65,,,,,,,,,,,,,36.016168399999515,0.016168399999514804,1,78.28661070000089,78.28661070000089,78.28661070000089,78.28661070000089,78.28661070000089,78.28661070000089,78.28661070000089,None,78.28661070000089,78.28661070000089,0.44678320000093663,007,P014,2025_Feb_28_1654,ConditionRich,2021.2.3,59.94700684589121,
36.75,37.0,41,0.0,Stimuli/Blank.png,0,0,0.0,0,66,66,66,,,,,,,,,,,,,36.76616110000032,0.016161100000317674,None,79.02060449999954,79.02060449999954,79.02060449999954,79.02060449999954,79.02060449999954,79.02060449999954,79.02060449999954,79.02060449999954,79.02060449999954,79.02060449999954,,007,P014,2025_Feb_28_1654,ConditionRich,2021.2.3,59.94700684589121,
37.0,37.75,6,0.75,Stimuli/P014/sun_aoejkkmwkfegacni.jpg,0,0,0.0,0,67,67,67,,,,,,,,,,,,,37.00091330000032,0.0009133000003203051,None,79.2708290999999,79.2708290999999,79.2708290999999,79.2708290999999,79.2708290999999,79.2708290999999,79.2708290999999,79.2708290999999,79.2708290999999,79.2708290999999,,007,P014,2025_Feb_28_1654,ConditionRich,2021.2.3,59.94700684589121,
37.75,38.0,41,0.0,Stimuli/Blank.png,0,0,0.0,0,68,68,68,,,,,,,,,,,,,37.76669410000068,0.01669410000067728,None,80.02148850000049,80.02148850000049,80.02148850000049,80.02148850000049,80.02148850000049,80.02148850000049,80.02148850000049,80.02148850000049,80.02148850000049,80.02148850000049,,007,P014,2025_Feb_28_1654,ConditionRich,2021.2.3,59.94700684589121,
38.0,38.75,6,0.75,Stimuli/P014/sun_aoejkkmwkfegacni.jpg,0,0,0.0,0,69,69,69,,,,,,,,,,,,,38.00196580000011,0.001965800000107265,None,80.2717090999995,80.2717090999995,80.2717090999995,80.2717090999995,80.2717090999995,80.2717090999995,80.2717090999995,80.2717090999995,80.2717090999995,80.2717090999995,,007,P014,2025_Feb_28_1654,ConditionRich,2021.2.3,59.94700684589121,
38.75,39.0,41,0.0,Stimuli/Blank.png,0,0,0.0,0,70,70,70,,,,,,,,,,,,,38.76709710000068,0.017097100000682985,None,81.02250850000019,81.02250850000019,81.02250850000019,81.02250850000019,81.02250850000019,81.02250850000019,81.02250850000019,81.02250850000019,81.02250850000019,81.02250850000019,,007,P014,2025_Feb_28_1654,ConditionRich,2021.2.3,59.94700684589121,
39.0,39.75,6,0.75,Stimuli/P014/sun_aoejkkmwkfegacni.jpg,0,0,0.0,0,71,71,71,,,,,,,,,,,,,39.00001449999945,1.449999945180025e-05,None,81.25590300000113,81.25590300000113,81.25590300000113,81.25590300000113,81.25590300000113,81.25590300000113,81.25590300000113,81.25590300000113,81.25590300000113,81.25590300000113,,007,P014,2025_Feb_28_1654,ConditionRich,2021.2.3,59.94700684589121,
39.75,40.0,41,0.0,Stimuli/Blank.png,0,0,0.0,0,72,72,72,,,,,,,,,,,,,39.75168699999995,0.0016869999999471474,None,82.00656999999956,82.00656999999956,82.00656999999956,82.00656999999956,82.00656999999956,82.00656999999956,82.00656999999956,82.00656999999956,82.00656999999956,82.00656999999956,,007,P014,2025_Feb_28_1654,ConditionRich,2021.2.3,59.94700684589121,
40.0,40.75,38,0.75,Stimuli/P014/things_spark_plug_07s.jpg,0,0,0.0,0,73,73,73,,,,,,,,,,,,,40.0014558999992,0.0014558999992004829,None,82.25678320000043,82.25678320000043,82.25678320000043,82.25678320000043,82.25678320000043,82.25678320000043,82.25678320000043,82.25678320000043,82.25678320000043,82.25678320000043,,007,P014,2025_Feb_28_1654,ConditionRich,2021.2.3,59.94700684589121,
40.75,41.0,41,0.0,Stimuli/Blank.png,0,0,0.0,0,74,74,74,,,,,,,,,,,,,40.75169479999931,0.0016947999993135454,None,83.00745459999962,83.00745459999962,83.00745459999962,83.00745459999962,83.00745459999962,83.00745459999962,83.00745459999962,83.00745459999962,83.00745459999962,83.00745459999962,,007,P014,2025_Feb_28_1654,ConditionRich,2021.2.3,59.94700684589121,
41.0,41.75,38,0.75,Stimuli/P014/things_spark_plug_07s.jpg,0,0,0.0,0,75,75,75,,,,,,,,,,,,,41.00315919999957,0.003159199999572593,None,83.27435780000087,83.27435780000087,83.27435780000087,83.27435780000087,83.27435780000087,83.27435780000087,83.27435780000087,83.27435780000087,83.27435780000087,83.27435780000087,,007,P014,2025_Feb_28_1654,ConditionRich,2021.2.3,59.94700684589121,
41.75,42.0,41,0.0,Stimuli/Blank.png,0,0,0.0,0,76,76,76,,,,,,,,,,,,,41.77122579999923,0.02122579999922891,None,84.04170890000023,84.04170890000023,84.04170890000023,84.04170890000023,84.04170890000023,84.04170890000023,84.04170890000023,84.04170890000023,84.04170890000023,84.04170890000023,,007,P014,2025_Feb_28_1654,ConditionRich,2021.2.3,59.94700684589121,
42.0,42.75,38,0.75,Stimuli/P014/things_spark_plug_07s.jpg,0,0,0.0,0,77,77,77,,,,,,,,,,,,,42.019774500000494,0.0197745000004943,None,84.27524799999992,84.27524799999992,84.27524799999992,84.27524799999992,84.27524799999992,84.27524799999992,84.27524799999992,84.27524799999992,84.27524799999992,84.27524799999992,,007,P014,2025_Feb_28_1654,ConditionRich,2021.2.3,59.94700684589121,
42.75,43.0,41,0.0,Stimuli/Blank.png,0,0,0.0,0,78,78,78,,,,,,,,,,,,,42.75427440000021,0.004274400000213063,None,85.00922100000025,85.00922100000025,85.00922100000025,85.00922100000025,85.00922100000025,85.00922100000025,85.00922100000025,85.00922100000025,85.00922100000025,85.00922100000025,,007,P014,2025_Feb_28_1654,ConditionRich,2021.2.3,59.94700684589121,
43.0,43.75,38,0.75,Stimuli/P014/things_spark_plug_07s.jpg,0,0,0.0,0,79,79,79,,,,,,,,,,,,,43.00451350000003,0.004513500000030035,None,85.27614080000058,85.27614080000058,85.27614080000058,85.27614080000058,85.27614080000058,85.27614080000058,85.27614080000058,85.27614080000058,85.27614080000058,85.27614080000058,,007,P014,2025_Feb_28_1654,ConditionRich,2021.2.3,59.94700684589121,
43.75,44.0,41,0.0,Stimuli/Blank.png,0,0,0.0,0,80,80,80,,,,,,,,,,,,,43.77157690000058,0.0215769000005821,None,86.02679499999977,86.02679499999977,86.02679499999977,86.02679499999977,86.02679499999977,86.02679499999977,86.02679499999977,86.02679499999977,86.02679499999977,86.02679499999977,,007,P014,2025_Feb_28_1654,ConditionRich,2021.2.3,59.94700684589121,
44.0,44.75,11,0.75,Stimuli/P014/sun_bfyxzbjsvqsobbky.jpg,0,0,0.0,0,81,81,81,,,,,,,,,,,,,44.00442979999934,0.004429799999343231,None,86.26032300000043,86.26032300000043,86.26032300000043,86.26032300000043,86.26032300000043,86.26032300000043,86.26032300000043,86.26032300000043,86.26032300000043,86.26032300000043,,007,P014,2025_Feb_28_1654,ConditionRich,2021.2.3,59.94700684589121,
44.75,45.0,41,0.0,Stimuli/Blank.png,0,0,0.0,0,82,82,82,,,,,,,,,,,,,44.7568468999998,0.006846899999800371,None,87.01101569999992,87.01101569999992,87.01101569999992,87.01101569999992,87.01101569999992,87.01101569999992,87.01101569999992,87.01101569999992,87.01101569999992,87.01101569999992,,007,P014,2025_Feb_28_1654,ConditionRich,2021.2.3,59.94700684589121,
45.0,45.75,11,0.75,Stimuli/P014/sun_bfyxzbjsvqsobbky.jpg,0,0,0.0,0,83,83,83,,,,,,,,,,,,,45.0072782999996,0.007278299999597948,None,87.27790839999943,87.27790839999943,87.27790839999943,87.27790839999943,87.27790839999943,87.27790839999943,87.27790839999943,87.27790839999943,87.27790839999943,87.27790839999943,,007,P014,2025_Feb_28_1654,ConditionRich,2021.2.3,59.94700684589121,
45.75,46.0,41,0.0,Stimuli/Blank.png,0,0,0.0,0,84,84,84,,,,,,,,,,,,,45.7733774999997,0.023377499999696738,None,88.02857080000103,88.02857080000103,88.02857080000103,88.02857080000103,88.02857080000103,88.02857080000103,88.02857080000103,88.02857080000103,88.02857080000103,88.02857080000103,,007,P014,2025_Feb_28_1654,ConditionRich,2021.2.3,59.94700684589121,
46.0,46.75,11,0.75,Stimuli/P014/sun_bfyxzbjsvqsobbky.jpg,0,0,0.0,0,85,85,85,,,,,,,,,,,,,46.00665459999982,0.006654599999819766,None,88.26209650000055,88.26209650000055,88.26209650000055,88.26209650000055,88.26209650000055,88.26209650000055,88.26209650000055,88.26209650000055,88.26209650000055,88.26209650000055,,007,P014,2025_Feb_28_1654,ConditionRich,2021.2.3,59.94700684589121,
46.75,47.0,41,0.0,Stimuli/Blank.png,0,0,0.0,0,86,86,86,,,,,,,,,,,,,46.75744610000038,0.007446100000379374,None,89.01276580000012,89.01276580000012,89.01276580000012,89.01276580000012,89.01276580000012,89.01276580000012,89.01276580000012,89.01276580000012,89.01276580000012,89.01276580000012,,007,P014,2025_Feb_28_1654,ConditionRich,2021.2.3,59.94700684589121,
47.0,47.75,11,0.75,Stimuli/P014/sun_bfyxzbjsvqsobbky.jpg,0,0,0.0,0,87,87,87,,,,,,,,,,,,,47.007715100000496,0.007715100000496022,None,89.27968689999943,89.27968689999943,89.27968689999943,89.27968689999943,89.27968689999943,89.27968689999943,89.27968689999943,89.27968689999943,89.27968689999943,89.27968689999943,,007,P014,2025_Feb_28_1654,ConditionRich,2021.2.3,59.94700684589121,
47.75,48.0,41,0.0,Stimuli/Blank.png,0,0,0.0,0,88,88,88,,,,,,,,,,,,,47.77750659999947,0.027506599999469472,None,90.04703999999947,90.04703999999947,90.04703999999947,90.04703999999947,90.04703999999947,90.04703999999947,90.04703999999947,90.04703999999947,90.04703999999947,90.04703999999947,,007,P014,2025_Feb_28_1654,ConditionRich,2021.2.3,59.94700684589121,
48.0,48.75,21,0.75,Stimuli/P014/things_baby_07s.jpg,0,0,0.0,0,89,89,89,,,,,,,,,,,,,48.02724379999927,0.02724379999926896,None,90.2972619000011,90.2972619000011,90.2972619000011,90.2972619000011,90.2972619000011,90.2972619000011,90.2972619000011,90.2972619000011,90.2972619000011,90.2972619000011,,007,P014,2025_Feb_28_1654,ConditionRich,2021.2.3,59.94700684589121,
48.75,49.0,41,0.0,Stimuli/Blank.png,0,0,0.0,0,90,90,90,,,,,,,,,,,,,48.77723540000079,0.027235400000790833,None,91.04794050000055,91.04794050000055,91.04794050000055,91.04794050000055,91.04794050000055,91.04794050000055,91.04794050000055,91.04794050000055,91.04794050000055,91.04794050000055,,007,P014,2025_Feb_28_1654,ConditionRich,2021.2.3,59.94700684589121,
49.0,49.75,21,0.75,Stimuli/P014/things_baby_07s.jpg,0,0,0.0,0,91,91,91,,,,,,,,,,,,,49.02668289999929,0.026682899999286747,None,91.29812669999956,91.29812669999956,91.29812669999956,91.29812669999956,91.29812669999956,91.29812669999956,91.29812669999956,91.29812669999956,91.29812669999956,91.29812669999956,,007,P014,2025_Feb_28_1654,ConditionRich,2021.2.3,59.94700684589121,
49.75,50.0,41,0.0,Stimuli/Blank.png,0,0,0.0,0,92,92,92,,,,,,,,,,,,,49.777739200000724,0.02773920000072394,None,92.03211290000036,92.03211290000036,92.03211290000036,92.03211290000036,92.03211290000036,92.03211290000036,92.03211290000036,92.03211290000036,92.03211290000036,92.03211290000036,,007,P014,2025_Feb_28_1654,ConditionRich,2021.2.3,59.94700684589121,
50.0,50.75,21,0.75,Stimuli/P014/things_baby_07s.jpg,0,0,0.0,0,93,93,93,,,,,,,,,,,,,50.01042469999993,0.010424699999930453,None,92.28233240000009,92.28233240000009,92.28233240000009,92.28233240000009,92.28233240000009,92.28233240000009,92.28233240000009,92.28233240000009,92.28233240000009,92.28233240000009,,007,P014,2025_Feb_28_1654,ConditionRich,2021.2.3,59.94700684589121,
50.75,51.0,41,0.0,Stimuli/Blank.png,0,0,0.0,0,94,94,94,,,,,,,,,,,,,50.77809540000089,0.028095400000893278,None,93.0329995000011,93.0329995000011,93.0329995000011,93.0329995000011,93.0329995000011,93.0329995000011,93.0329995000011,93.0329995000011,93.0329995000011,93.0329995000011,,007,P014,2025_Feb_28_1654,ConditionRich,2021.2.3,59.94700684589121,
51.0,51.75,21,0.75,Stimuli/P014/things_baby_07s.jpg,0,0,0.0,0,95,95,95,,,,,,,,,,,,,51.010840000000826,0.010840000000825967,None,93.26657710000109,93.26657710000109,93.26657710000109,93.26657710000109,93.26657710000109,93.26657710000109,93.26657710000109,93.26657710000109,93.26657710000109,93.26657710000109,,007,P014,2025_Feb_28_1654,ConditionRich,2021.2.3,59.94700684589121,
51.75,52.0,41,0.0,Stimuli/Blank.png,0,0,0.0,0,96,96,96,,,,,,,,,,,,,51.761254400000325,0.011254400000325404,None,94.01719510000112,94.01719510000112,94.01719510000112,94.01719510000112,94.01719510000112,94.01719510000112,94.01719510000112,94.01719510000112,94.01719510000112,94.01719510000112,,007,P014,2025_Feb_28_1654,ConditionRich,2021.2.3,59.94700684589121,
52.0,52.75,13,0.75,Stimuli/P014/sun_bpccpwpohfirajtf.jpg,0,0,0.0,0,97,97,97,,,,,,,,,,,,,52.012376399999994,0.012376399999993737,None,94.26741349999975,94.26741349999975,94.26741349999975,94.26741349999975,94.26741349999975,94.26741349999975,94.26741349999975,94.26741349999975,94.26741349999975,94.26741349999975,,007,P014,2025_Feb_28_1654,ConditionRich,2021.2.3,59.94700684589121,
52.75,53.0,41,0.0,Stimuli/Blank.png,0,0,0.0,0,98,98,98,,,,,,,,,,,,,52.76277300000038,0.012773000000379398,None,95.01808280000114,95.01808280000114,95.01808280000114,95.01808280000114,95.01808280000114,95.01808280000114,95.01808280000114,95.01808280000114,95.01808280000114,95.01808280000114,,007,P014,2025_Feb_28_1654,ConditionRich,2021.2.3,59.94700684589121,
53.0,53.75,13,0.75,Stimuli/P014/sun_bpccpwpohfirajtf.jpg,0,0,0.0,0,99,99,99,,,,,,,,,,,,,53.013007699999434,0.013007699999434408,None,95.26830210000116,95.26830210000116,95.26830210000116,95.26830210000116,95.26830210000116,95.26830210000116,95.26830210000116,95.26830210000116,95.26830210000116,95.26830210000116,,007,P014,2025_Feb_28_1654,ConditionRich,2021.2.3,59.94700684589121,
53.75,54.0,41,0.0,Stimuli/Blank.png,0,0,0.0,0,100,100,100,,,,,,,,,,,,,53.76594110000042,0.015941100000418373,None,96.03565830000116,96.03565830000116,96.03565830000116,96.03565830000116,96.03565830000116,96.03565830000116,96.03565830000116,96.03565830000116,96.03565830000116,96.03565830000116,,007,P014,2025_Feb_28_1654,ConditionRich,2021.2.3,59.94700684589121,
54.0,54.75,13,0.75,Stimuli/P014/sun_bpccpwpohfirajtf.jpg,0,0,0.0,0,101,101,101,,,,,,,,,,,,,54.013515700000426,0.013515700000425568,None,96.28587479999987,96.28587479999987,96.28587479999987,96.28587479999987,96.28587479999987,96.28587479999987,96.28587479999987,96.28587479999987,96.28587479999987,96.28587479999987,,007,P014,2025_Feb_28_1654,ConditionRich,2021.2.3,59.94700684589121,
54.75,55.0,41,0.0,Stimuli/Blank.png,0,0,0.0,0,102,102,102,,,,,,,,,,,,,54.782211100000495,0.03221110000049521,None,97.03654900000038,97.03654900000038,97.03654900000038,97.03654900000038,97.03654900000038,97.03654900000038,97.03654900000038,97.03654900000038,97.03654900000038,97.03654900000038,,007,P014,2025_Feb_28_1654,ConditionRich,2021.2.3,59.94700684589121,
55.0,55.75,13,0.75,Stimuli/P014/sun_bpccpwpohfirajtf.jpg,0,0,0.0,0,103,103,103,,,,,,,,,,,,,54.99855320000097,-0.0014467999990301905,None,97.27010789999986,97.27010789999986,97.27010789999986,97.27010789999986,97.27010789999986,97.27010789999986,97.27010789999986,97.27010789999986,97.27010789999986,97.27010789999986,,007,P014,2025_Feb_28_1654,ConditionRich,2021.2.3,59.94700684589121,
55.75,56.0,41,0.0,Stimuli/Blank.png,0,0,0.0,0,104,104,104,,,,,,,,,,,,,55.765539800000624,0.015539800000624382,None,98.02074110000103,98.02074110000103,98.02074110000103,98.02074110000103,98.02074110000103,98.02074110000103,98.02074110000103,98.02074110000103,98.02074110000103,98.02074110000103,,007,P014,2025_Feb_28_1654,ConditionRich,2021.2.3,59.94700684589121,
56.0,56.75,35,0.75,Stimuli/P014/things_road_sign_07s.jpg,0,0,0.0,0,105,105,105,,,,,,,,,,,,,55.99845119999918,-0.0015488000008190284,None,98.27096920000076,98.27096920000076,98.27096920000076,98.27096920000076,98.27096920000076,98.27096920000076,98.27096920000076,98.27096920000076,98.27096920000076,98.27096920000076,,007,P014,2025_Feb_28_1654,ConditionRich,2021.2.3,59.94700684589121,
56.75,57.0,41,0.0,Stimuli/Blank.png,0,0,0.0,0,106,106,106,,,,,,,,,,,,,56.76616769999964,0.016167699999641627,None,99.02254499999981,99.02254499999981,99.02254499999981,99.02254499999981,99.02254499999981,99.02254499999981,99.02254499999981,99.02254499999981,99.02254499999981,99.02254499999981,,007,P014,2025_Feb_28_1654,ConditionRich,2021.2.3,59.94700684589121,
57.0,57.75,35,0.75,Stimuli/P014/things_road_sign_07s.jpg,1,0,0.75,0,107,107,107,,,,,,,,,,,,,57.01642720000018,0.016427200000180164,1,99.2719087000005,99.2719087000005,99.2719087000005,99.2719087000005,99.2719087000005,99.2719087000005,99.2719087000005,None,99.2719087000005,99.2719087000005,0.41445199999907345,007,P014,2025_Feb_28_1654,ConditionRich,2021.2.3,59.94700684589121,
57.75,58.0,41,0.0,Stimuli/Blank.png,0,0,0.0,0,108,108,108,,,,,,,,,,,,,57.75121279999985,0.0012127999998483574,None,100.0058484000001,100.0058484000001,100.0058484000001,100.0058484000001,100.0058484000001,100.0058484000001,100.0058484000001,100.0058484000001,100.0058484000001,100.0058484000001,,007,P014,2025_Feb_28_1654,ConditionRich,2021.2.3,59.94700684589121,
58.0,58.75,35,0.75,Stimuli/P014/things_road_sign_07s.jpg,0,0,0.0,0,109,109,109,,,,,,,,,,,,,58.00381969999944,0.003819699999439763,None,100.27271099999962,100.27271099999962,100.27271099999962,100.27271099999962,100.27271099999962,100.27271099999962,100.27271099999962,100.27271099999962,100.27271099999962,100.27271099999962,,007,P014,2025_Feb_28_1654,ConditionRich,2021.2.3,59.94700684589121,
58.75,59.0,41,0.0,Stimuli/Blank.png,0,0,0.0,0,110,110,110,,,,,,,,,,,,,58.768557900000815,0.018557900000814698,None,101.02339390000088,101.02339390000088,101.02339390000088,101.02339390000088,101.02339390000088,101.02339390000088,101.02339390000088,101.02339390000088,101.02339390000088,101.02339390000088,,007,P014,2025_Feb_28_1654,ConditionRich,2021.2.3,59.94700684589121,
59.0,59.75,35,0.75,Stimuli/P014/things_road_sign_07s.jpg,0,0,0.0,0,111,111,111,,,,,,,,,,,,,59.00118839999959,0.0011883999995916383,None,101.25693570000112,101.25693570000112,101.25693570000112,101.25693570000112,101.25693570000112,101.25693570000112,101.25693570000112,101.25693570000112,101.25693570000112,101.25693570000112,,007,P014,2025_Feb_28_1654,ConditionRich,2021.2.3,59.94700684589121,
59.75,60.0,41,0.0,Stimuli/Blank.png,0,0,0.0,0,112,112,112,,,,,,,,,,,,,59.75245340000038,0.0024534000003768597,None,102.00760489999993,102.00760489999993,102.00760489999993,102.00760489999993,102.00760489999993,102.00760489999993,102.00760489999993,102.00760489999993,102.00760489999993,102.00760489999993,,007,P014,2025_Feb_28_1654,ConditionRich,2021.2.3,59.94700684589121,
60.0,60.75,24,0.75,Stimuli/P014/things_bungee_07s.jpg,0,0,0.0,0,113,113,113,,,,,,,,,,,,,60.00249880000047,0.002498800000466872,None,102.25783589999992,102.25783589999992,102.25783589999992,102.25783589999992,102.25783589999992,102.25783589999992,102.25783589999992,102.25783589999992,102.25783589999992,102.25783589999992,,007,P014,2025_Feb_28_1654,ConditionRich,2021.2.3,59.94700684589121,
60.75,61.0,41,0.0,Stimuli/Blank.png,0,0,0.0,0,114,114,114,,,,,,,,,,,,,60.75283979999949,0.002839799999492243,None,103.00849320000088,103.00849320000088,103.00849320000088,103.00849320000088,103.00849320000088,103.00849320000088,103.00849320000088,103.00849320000088,103.00849320000088,103.00849320000088,,007,P014,2025_Feb_28_1654,ConditionRich,2021.2.3,59.94700684589121,
61.0,61.75,24,0.75,Stimuli/P014/things_bungee_07s.jpg,0,0,0.0,0,115,115,115,,,,,,,,,,,,,61.00295039999946,0.002950399999463116,None,103.25870120000036,103.25870120000036,103.25870120000036,103.25870120000036,103.25870120000036,103.25870120000036,103.25870120000036,103.25870120000036,103.25870120000036,103.25870120000036,,007,P014,2025_Feb_28_1654,ConditionRich,2021.2.3,59.94700684589121,
61.75,62.0,41,0.0,Stimuli/Blank.png,0,0,0.0,0,116,116,116,,,,,,,,,,,,,61.75409740000032,0.004097400000318885,None,104.00936929999989,104.00936929999989,104.00936929999989,104.00936929999989,104.00936929999989,104.00936929999989,104.00936929999989,104.00936929999989,104.00936929999989,104.00936929999989,,007,P014,2025_Feb_28_1654,ConditionRich,2021.2.3,59.94700684589121,
62.0,62.75,24,0.75,Stimuli/P014/things_bungee_07s.jpg,0,0,0.0,0,117,117,117,,,,,,,,,,,,,62.004315100000895,0.004315100000894745,None,104.27627949999987,104.27627949999987,104.27627949999987,104.27627949999987,104.27627949999987,104.27627949999987,104.27627949999987,104.27627949999987,104.27627949999987,104.27627949999987,,007,P014,2025_Feb_28_1654,ConditionRich,2021.2.3,59.94700684589121,
62.75,63.0,41,0.0,Stimuli/Blank.png,0,0,0.0,0,118,118,118,,,,,,,,,,,,,62.77176529999997,0.02176529999997001,None,105.02694630000042,105.02694630000042,105.02694630000042,105.02694630000042,105.02694630000042,105.02694630000042,105.02694630000042,105.02694630000042,105.02694630000042,105.02694630000042,,007,P014,2025_Feb_28_1654,ConditionRich,2021.2.3,59.94700684589121,
63.0,63.75,24,0.75,Stimuli/P014/things_bungee_07s.jpg,0,0,0.0,0,119,119,119,,,,,,,,,,,,,63.00458880000042,0.004588800000419724,None,105.2771759999996,105.2771759999996,105.2771759999996,105.2771759999996,105.2771759999996,105.2771759999996,105.2771759999996,105.2771759999996,105.2771759999996,105.2771759999996,,007,P014,2025_Feb_28_1654,ConditionRich,2021.2.3,59.94700684589121,
63.75,64.0,41,0.0,Stimuli/Blank.png,0,0,0.0,0,120,120,120,,,,,,,,,,,,,63.7732761999996,0.023276199999600067,None,106.0278285000004,106.0278285000004,106.0278285000004,106.0278285000004,106.0278285000004,106.0278285000004,106.0278285000004,106.0278285000004,106.0278285000004,106.0278285000004,,007,P014,2025_Feb_28_1654,ConditionRich,2021.2.3,59.94700684589121,
64.0,64.75,27,0.75,Stimuli/P014/things_face_07s.jpg,0,0,0.0,0,121,121,121,,,,,,,,,,,,,64.0065482000009,0.006548200000906945,None,106.27805090000038,106.27805090000038,106.27805090000038,106.27805090000038,106.27805090000038,106.27805090000038,106.27805090000038,106.27805090000038,106.27805090000038,106.27805090000038,,007,P014,2025_Feb_28_1654,ConditionRich,2021.2.3,59.94700684589121,
64.75,65.0,41,0.0,Stimuli/Blank.png,0,0,0.0,0,122,122,122,,,,,,,,,,,,,64.77418810000017,0.024188100000174018,None,107.02871050000067,107.02871050000067,107.02871050000067,107.02871050000067,107.02871050000067,107.02871050000067,107.02871050000067,107.02871050000067,107.02871050000067,107.02871050000067,,007,P014,2025_Feb_28_1654,ConditionRich,2021.2.3,59.94700684589121,
65.0,65.75,27,0.75,Stimuli/P014/things_face_07s.jpg,0,0,0.0,0,123,123,123,,,,,,,,,,,,,65.00700010000037,0.007000100000368548,None,107.2789356000012,107.2789356000012,107.2789356000012,107.2789356000012,107.2789356000012,107.2789356000012,107.2789356000012,107.2789356000012,107.2789356000012,107.2789356000012,,007,P014,2025_Feb_28_1654,ConditionRich,2021.2.3,59.94700684589121,
65.75,66.0,41,0.0,Stimuli/Blank.png,0,0,0.0,0,124,124,124,,,,,,,,,,,,,65.77373140000054,0.023731400000542635,None,108.02956810000069,108.02956810000069,108.02956810000069,108.02956810000069,108.02956810000069,108.02956810000069,108.02956810000069,108.02956810000069,108.02956810000069,108.02956810000069,,007,P014,2025_Feb_28_1654,ConditionRich,2021.2.3,59.94700684589121,
66.0,66.75,27,0.75,Stimuli/P014/things_face_07s.jpg,0,0,0.0,0,125,125,125,,,,,,,,,,,,,66.00726749999922,0.007267499999215943,None,108.26313430000118,108.26313430000118,108.26313430000118,108.26313430000118,108.26313430000118,108.26313430000118,108.26313430000118,108.26313430000118,108.26313430000118,108.26313430000118,,007,P014,2025_Feb_28_1654,ConditionRich,2021.2.3,59.94700684589121,
66.75,67.0,41,0.0,Stimuli/Blank.png,0,0,0.0,0,126,126,126,,,,,,,,,,,,,66.75785729999916,0.007857299999159295,None,109.01379769999949,109.01379769999949,109.01379769999949,109.01379769999949,109.01379769999949,109.01379769999949,109.01379769999949,109.01379769999949,109.01379769999949,109.01379769999949,,007,P014,2025_Feb_28_1654,ConditionRich,2021.2.3,59.94700684589121,
67.0,67.75,27,0.75,Stimuli/P014/things_face_07s.jpg,0,0,0.0,0,127,127,127,,,,,,,,,,,,,67.00816289999966,0.008162899999661022,None,109.26403120000032,109.26403120000032,109.26403120000032,109.26403120000032,109.26403120000032,109.26403120000032,109.26403120000032,109.26403120000032,109.26403120000032,109.26403120000032,,007,P014,2025_Feb_28_1654,ConditionRich,2021.2.3,59.94700684589121,
67.75,68.0,41,0.0,Stimuli/Blank.png,0,0,0.0,0,128,128,128,,,,,,,,,,,,,67.75930209999933,0.009302099999331404,None,110.01469080000061,110.01469080000061,110.01469080000061,110.01469080000061,110.01469080000061,110.01469080000061,110.01469080000061,110.01469080000061,110.01469080000061,110.01469080000061,,007,P014,2025_Feb_28_1654,ConditionRich,2021.2.3,59.94700684589121,
68.0,68.75,26,0.75,Stimuli/P014/things_cougar_07s.jpg,0,0,0.0,0,129,129,129,,,,,,,,,,,,,68.00956009999936,0.009560099999362137,None,110.28162730000076,110.28162730000076,110.28162730000076,110.28162730000076,110.28162730000076,110.28162730000076,110.28162730000076,110.28162730000076,110.28162730000076,110.28162730000076,,007,P014,2025_Feb_28_1654,ConditionRich,2021.2.3,59.94700684589121,
68.75,69.0,41,0.0,Stimuli/Blank.png,0,0,0.0,0,130,130,130,,,,,,,,,,,,,68.77628019999975,0.0262801999997464,None,111.03226340000037,111.03226340000037,111.03226340000037,111.03226340000037,111.03226340000037,111.03226340000037,111.03226340000037,111.03226340000037,111.03226340000037,111.03226340000037,,007,P014,2025_Feb_28_1654,ConditionRich,2021.2.3,59.94700684589121,
69.0,69.75,26,0.75,Stimuli/P014/things_cougar_07s.jpg,0,0,0.0,0,131,131,131,,,,,,,,,,,,,69.00981540000066,0.009815400000661612,None,111.265794500001,111.265794500001,111.265794500001,111.265794500001,111.265794500001,111.265794500001,111.265794500001,111.265794500001,111.265794500001,111.265794500001,,007,P014,2025_Feb_28_1654,ConditionRich,2021.2.3,59.94700684589121,
69.75,70.0,41,0.0,Stimuli/Blank.png,0,0,0.0,0,132,132,132,,,,,,,,,,,,,69.76067250000051,0.010672500000509899,None,112.01646220000111,112.01646220000111,112.01646220000111,112.01646220000111,112.01646220000111,112.01646220000111,112.01646220000111,112.01646220000111,112.01646220000111,112.01646220000111,,007,P014,2025_Feb_28_1654,ConditionRich,2021.2.3,59.94700684589121,
70.0,70.75,26,0.75,Stimuli/P014/things_cougar_07s.jpg,0,0,0.0,0,133,133,133,,,,,,,,,,,,,70.01132490000055,0.011324900000545313,None,112.26668240000072,112.26668240000072,112.26668240000072,112.26668240000072,112.26668240000072,112.26668240000072,112.26668240000072,112.26668240000072,112.26668240000072,112.26668240000072,,007,P014,2025_Feb_28_1654,ConditionRich,2021.2.3,59.94700684589121,
70.75,71.0,41,0.0,Stimuli/Blank.png,0,0,0.0,0,134,134,134,,,,,,,,,,,,,70.76248520000081,0.012485200000810437,None,113.01734370000122,113.01734370000122,113.01734370000122,113.01734370000122,113.01734370000122,113.01734370000122,113.01734370000122,113.01734370000122,113.01734370000122,113.01734370000122,,007,P014,2025_Feb_28_1654,ConditionRich,2021.2.3,59.94700684589121,
71.0,71.75,26,0.75,Stimuli/P014/things_cougar_07s.jpg,0,0,0.0,0,135,135,135,,,,,,,,,,,,,71.01189309999972,0.011893099999724654,None,113.26758030000019,113.26758030000019,113.26758030000019,113.26758030000019,113.26758030000019,113.26758030000019,113.26758030000019,113.26758030000019,113.26758030000019,113.26758030000019,,007,P014,2025_Feb_28_1654,ConditionRich,2021.2.3,59.94700684589121,
71.75,72.0,41,0.0,Stimuli/Blank.png,0,0,0.0,0,136,136,136,,,,,,,,,,,,,71.7627496999994,0.012749699999403674,None,114.01823599999989,114.01823599999989,114.01823599999989,114.01823599999989,114.01823599999989,114.01823599999989,114.01823599999989,114.01823599999989,114.01823599999989,114.01823599999989,,007,P014,2025_Feb_28_1654,ConditionRich,2021.2.3,59.94700684589121,
72.0,72.75,39,0.75,Stimuli/P014/things_violin_07n.jpg,0,0,0.0,0,137,137,137,,,,,,,,,,,,,72.01364739999917,0.013647399999172194,None,114.26845210000101,114.26845210000101,114.26845210000101,114.26845210000101,114.26845210000101,114.26845210000101,114.26845210000101,114.26845210000101,114.26845210000101,114.26845210000101,,007,P014,2025_Feb_28_1654,ConditionRich,2021.2.3,59.94700684589121,
72.75,73.0,41,0.0,Stimuli/Blank.png,0,0,0.0,0,138,138,138,,,,,,,,,,,,,72.76331489999939,0.013314899999386398,None,115.01912939999966,115.01912939999966,115.01912939999966,115.01912939999966,115.01912939999966,115.01912939999966,115.01912939999966,115.01912939999966,115.01912939999966,115.01912939999966,,007,P014,2025_Feb_28_1654,ConditionRich,2021.2.3,59.94700684589121,
73.0,73.75,39,0.75,Stimuli/P014/things_violin_07n.jpg,0,0,0.0,0,139,139,139,,,,,,,,,,,,,73.01429680000001,0.01429680000001099,None,115.28603529999964,115.28603529999964,115.28603529999964,115.28603529999964,115.28603529999964,115.28603529999964,115.28603529999964,115.28603529999964,115.28603529999964,115.28603529999964,,007,P014,2025_Feb_28_1654,ConditionRich,2021.2.3,59.94700684589121,
73.75,74.0,41,0.0,Stimuli/Blank.png,0,0,0.0,0,140,140,140,,,,,,,,,,,,,73.78158249999979,0.031582499999785796,None,116.0366666000009,116.0366666000009,116.0366666000009,116.0366666000009,116.0366666000009,116.0366666000009,116.0366666000009,116.0366666000009,116.0366666000009,116.0366666000009,,007,P014,2025_Feb_28_1654,ConditionRich,2021.2.3,59.94700684589121,
74.0,74.75,39,0.75,Stimuli/P014/things_violin_07n.jpg,0,0,0.0,0,141,141,141,,,,,,,,,,,,,74.01447449999978,0.014474499999778345,None,116.27022290000059,116.27022290000059,116.27022290000059,116.27022290000059,116.27022290000059,116.27022290000059,116.27022290000059,116.27022290000059,116.27022290000059,116.27022290000059,,007,P014,2025_Feb_28_1654,ConditionRich,2021.2.3,59.94700684589121,
74.75,75.0,41,0.0,Stimuli/Blank.png,0,0,0.0,0,142,142,142,,,,,,,,,,,,,74.76569589999963,0.015695899999627727,None,117.02096770000026,117.02096770000026,117.02096770000026,117.02096770000026,117.02096770000026,117.02096770000026,117.02096770000026,117.02096770000026,117.02096770000026,117.02096770000026,,007,P014,2025_Feb_28_1654,ConditionRich,2021.2.3,59.94700684589121,
75.0,75.75,39,0.75,Stimuli/P014/things_violin_07n.jpg,0,0,0.0,0,143,143,143,,,,,,,,,,,,,74.99872770000002,-0.0012722999999823514,None,117.25461580000047,117.25461580000047,117.25461580000047,117.25461580000047,117.25461580000047,117.25461580000047,117.25461580000047,117.25461580000047,117.25461580000047,117.25461580000047,,007,P014,2025_Feb_28_1654,ConditionRich,2021.2.3,59.94700684589121,
75.75,76.0,41,0.0,Stimuli/Blank.png,0,0,0.0,0,144,144,144,,,,,,,,,,,,,75.75042059999942,0.0004205999994155718,None,118.0051067000004,118.0051067000004,118.0051067000004,118.0051067000004,118.0051067000004,118.0051067000004,118.0051067000004,118.0051067000004,118.0051067000004,118.0051067000004,,007,P014,2025_Feb_28_1654,ConditionRich,2021.2.3,59.94700684589121,
76.0,76.75,8,0.75,Stimuli/P014/sun_auqrilekgmdmrncq.jpg,0,0,0.0,0,145,145,145,,,,,,,,,,,,,76.00293249999959,0.0029324999995878898,None,118.27198979999957,118.27198979999957,118.27198979999957,118.27198979999957,118.27198979999957,118.27198979999957,118.27198979999957,118.27198979999957,118.27198979999957,118.27198979999957,,007,P014,2025_Feb_28_1654,ConditionRich,2021.2.3,59.94700684589121,
76.75,77.0,41,0.0,Stimuli/Blank.png,0,0,0.0,0,146,146,146,,,,,,,,,,,,,76.76690430000053,0.016904300000533112,None,119.0226672000008,119.0226672000008,119.0226672000008,119.0226672000008,119.0226672000008,119.0226672000008,119.0226672000008,119.0226672000008,119.0226672000008,119.0226672000008,,007,P014,2025_Feb_28_1654,ConditionRich,2021.2.3,59.94700684589121,
77.0,77.75,8,0.75,Stimuli/P014/sun_auqrilekgmdmrncq.jpg,0,0,0.0,0,147,147,147,,,,,,,,,,,,,77.00081470000077,0.0008147000007738825,None,119.25619999999981,119.25619999999981,119.25619999999981,119.25619999999981,119.25619999999981,119.25619999999981,119.25619999999981,119.25619999999981,119.25619999999981,119.25619999999981,,007,P014,2025_Feb_28_1654,ConditionRich,2021.2.3,59.94700684589121,
77.75,78.0,41,0.0,Stimuli/Blank.png,0,0,0.0,0,148,148,148,,,,,,,,,,,,,77.7515970000004,0.0015970000004017493,None,120.00687920000018,120.00687920000018,120.00687920000018,120.00687920000018,120.00687920000018,120.00687920000018,120.00687920000018,120.00687920000018,120.00687920000018,120.00687920000018,,007,P014,2025_Feb_28_1654,ConditionRich,2021.2.3,59.94700684589121,
78.0,78.75,8,0.75,Stimuli/P014/sun_auqrilekgmdmrncq.jpg,0,0,0.0,0,149,149,149,,,,,,,,,,,,,78.00124030000006,0.0012403000000631437,None,120.25709070000084,120.25709070000084,120.25709070000084,120.25709070000084,120.25709070000084,120.25709070000084,120.25709070000084,120.25709070000084,120.25709070000084,120.25709070000084,,007,P014,2025_Feb_28_1654,ConditionRich,2021.2.3,59.94700684589121,
78.75,79.0,41,0.0,Stimuli/Blank.png,0,0,0.0,0,150,150,150,,,,,,,,,,,,,78.75274809999974,0.002748099999735132,None,121.00774799999999,121.00774799999999,121.00774799999999,121.00774799999999,121.00774799999999,121.00774799999999,121.00774799999999,121.00774799999999,121.00774799999999,121.00774799999999,,007,P014,2025_Feb_28_1654,ConditionRich,2021.2.3,59.94700684589121,
79.0,79.75,8,0.75,Stimuli/P014/sun_auqrilekgmdmrncq.jpg,0,0,0.0,0,151,151,151,,,,,,,,,,,,,79.00232730000062,0.002327300000615651,None,121.25797059999968,121.25797059999968,121.25797059999968,121.25797059999968,121.25797059999968,121.25797059999968,121.25797059999968,121.25797059999968,121.25797059999968,121.25797059999968,,007,P014,2025_Feb_28_1654,ConditionRich,2021.2.3,59.94700684589121,
79.75,80.0,41,0.0,Stimuli/Blank.png,0,0,0.0,0,152,152,152,,,,,,,,,,,,,79.75265779999972,0.002657799999724375,None,122.00863500000014,122.00863500000014,122.00863500000014,122.00863500000014,122.00863500000014,122.00863500000014,122.00863500000014,122.00863500000014,122.00863500000014,122.00863500000014,,007,P014,2025_Feb_28_1654,ConditionRich,2021.2.3,59.94700684589121,
80.0,80.75,31,0.75,Stimuli/P014/things_mask_07s.jpg,0,0,0.0,0,153,153,153,,,,,,,,,,,,,80.00425720000021,0.004257200000211014,None,122.27554520000012,122.27554520000012,122.27554520000012,122.27554520000012,122.27554520000012,122.27554520000012,122.27554520000012,122.27554520000012,122.27554520000012,122.27554520000012,,007,P014,2025_Feb_28_1654,ConditionRich,2021.2.3,59.94700684589121,
80.75,81.0,41,0.0,Stimuli/Blank.png,0,0,0.0,0,154,154,154,,,,,,,,,,,,,80.77186120000079,0.021861200000785175,None,123.02621030000046,123.02621030000046,123.02621030000046,123.02621030000046,123.02621030000046,123.02621030000046,123.02621030000046,123.02621030000046,123.02621030000046,123.02621030000046,,007,P014,2025_Feb_28_1654,ConditionRich,2021.2.3,59.94700684589121,
81.0,81.75,31,0.75,Stimuli/P014/things_mask_07s.jpg,0,0,0.0,0,155,155,155,,,,,,,,,,,,,81.00639079999928,0.006390799999280716,None,123.27643429999989,123.27643429999989,123.27643429999989,123.27643429999989,123.27643429999989,123.27643429999989,123.27643429999989,123.27643429999989,123.27643429999989,123.27643429999989,,007,P014,2025_Feb_28_1654,ConditionRich,2021.2.3,59.94700684589121,
81.75,82.0,41,0.0,Stimuli/Blank.png,0,0,0.0,0,156,156,156,,,,,,,,,,,,,81.77187159999994,0.021871599999940372,None,124.02708460000031,124.02708460000031,124.02708460000031,124.02708460000031,124.02708460000031,124.02708460000031,124.02708460000031,124.02708460000031,124.02708460000031,124.02708460000031,,007,P014,2025_Feb_28_1654,ConditionRich,2021.2.3,59.94700684589121,
82.0,82.75,31,0.75,Stimuli/P014/things_mask_07s.jpg,0,0,0.0,0,157,157,157,,,,,,,,,,,,,82.00519469999927,0.00519469999926514,None,124.26063199999953,124.26063199999953,124.26063199999953,124.26063199999953,124.26063199999953,124.26063199999953,124.26063199999953,124.26063199999953,124.26063199999953,124.26063199999953,,007,P014,2025_Feb_28_1654,ConditionRich,2021.2.3,59.94700684589121,
82.75,83.0,41,0.0,Stimuli/Blank.png,0,0,0.0,0,158,158,158,,,,,,,,,,,,,82.75598639999953,0.005986399999528658,None,125.01134339999953,125.01134339999953,125.01134339999953,125.01134339999953,125.01134339999953,125.01134339999953,125.01134339999953,125.01134339999953,125.01134339999953,125.01134339999953,,007,P014,2025_Feb_28_1654,ConditionRich,2021.2.3,59.94700684589121,
83.0,83.75,31,0.75,Stimuli/P014/things_mask_07s.jpg,0,0,0.0,0,159,159,159,,,,,,,,,,,,,83.00662340000054,0.0066234000005351845,None,125.27820170000086,125.27820170000086,125.27820170000086,125.27820170000086,125.27820170000086,125.27820170000086,125.27820170000086,125.27820170000086,125.27820170000086,125.27820170000086,,007,P014,2025_Feb_28_1654,ConditionRich,2021.2.3,59.94700684589121,
83.75,84.0,41,0.0,Stimuli/Blank.png,0,0,0.0,0,160,160,160,,,,,,,,,,,,,83.77602540000044,0.026025400000435184,None,126.0455505000009,126.0455505000009,126.0455505000009,126.0455505000009,126.0455505000009,126.0455505000009,126.0455505000009,126.0455505000009,126.0455505000009,126.0455505000009,,007,P014,2025_Feb_28_1654,ConditionRich,2021.2.3,59.94700684589121,
84.0,100.0,0,0.0,Stimuli/Blank.png,1,13,13.75,0,161,161,161,,,,,,,,,,,,,84.02702680000039,0.027026800000385265,1,126.29579850000118,126.29579850000118,126.29579850000118,126.29579850000118,126.29579850000118,126.29579850000118,139.27392750000035,140.02457570000115,126.29579850000118,126.29579850000118,13.378652999999758,007,P014,2025_Feb_28_1654,ConditionRich,2021.2.3,59.94700684589121,
100.0,100.75,36,0.75,Stimuli/P014/things_seafood_07s.jpg,0,0,0.0,0,162,162,162,,,,,,,,,,,,,100.0207405000001,0.020740500000101747,None,142.27657080000063,142.27657080000063,142.27657080000063,142.27657080000063,142.27657080000063,142.27657080000063,142.27657080000063,142.27657080000063,142.27657080000063,142.27657080000063,,007,P014,2025_Feb_28_1654,ConditionRich,2021.2.3,59.94700684589121,
100.75,101.0,41,0.0,Stimuli/Blank.png,0,0,0.0,0,163,163,163,,,,,,,,,,,,,100.75529160000042,0.005291600000418839,None,143.01055989999986,143.01055989999986,143.01055989999986,143.01055989999986,143.01055989999986,143.01055989999986,143.01055989999986,143.01055989999986,143.01055989999986,143.01055989999986,,007,P014,2025_Feb_28_1654,ConditionRich,2021.2.3,59.94700684589121,
101.0,101.75,36,0.75,Stimuli/P014/things_seafood_07s.jpg,0,0,0.0,0,164,164,164,,,,,,,,,,,,,101.00501000000077,0.005010000000766013,None,143.27747090000048,143.27747090000048,143.27747090000048,143.27747090000048,143.27747090000048,143.27747090000048,143.27747090000048,143.27747090000048,143.27747090000048,143.27747090000048,,007,P014,2025_Feb_28_1654,ConditionRich,2021.2.3,59.94700684589121,
101.75,102.0,41,0.0,Stimuli/Blank.png,0,0,0.0,0,165,165,165,,,,,,,,,,,,,101.77291549999973,0.022915499999726308,None,144.02812240000094,144.02812240000094,144.02812240000094,144.02812240000094,144.02812240000094,144.02812240000094,144.02812240000094,144.02812240000094,144.02812240000094,144.02812240000094,,007,P014,2025_Feb_28_1654,ConditionRich,2021.2.3,59.94700684589121,
102.0,102.75,36,0.75,Stimuli/P014/things_seafood_07s.jpg,0,0,0.0,0,166,166,166,,,,,,,,,,,,,102.0057326999995,0.005732699999498436,None,144.2783571,144.2783571,144.2783571,144.2783571,144.2783571,144.2783571,144.2783571,144.2783571,144.2783571,144.2783571,,007,P014,2025_Feb_28_1654,ConditionRich,2021.2.3,59.94700684589121,
102.75,103.0,41,0.0,Stimuli/Blank.png,0,0,0.0,0,167,167,167,,,,,,,,,,,,,102.77392650000002,0.02392650000001595,None,145.02900810000028,145.02900810000028,145.02900810000028,145.02900810000028,145.02900810000028,145.02900810000028,145.02900810000028,145.02900810000028,145.02900810000028,145.02900810000028,,007,P014,2025_Feb_28_1654,ConditionRich,2021.2.3,59.94700684589121,
103.0,103.75,36,0.75,Stimuli/P014/things_seafood_07s.jpg,0,0,0.0,0,168,168,168,,,,,,,,,,,,,103.00939579999977,0.009395799999765586,None,145.27924520000124,145.27924520000124,145.27924520000124,145.27924520000124,145.27924520000124,145.27924520000124,145.27924520000124,145.27924520000124,145.27924520000124,145.27924520000124,,007,P014,2025_Feb_28_1654,ConditionRich,2021.2.3,59.94700684589121,
103.75,104.0,41,0.0,Stimuli/Blank.png,0,0,0.0,0,169,169,169,,,,,,,,,,,,,103.7751614000008,0.025161400000797585,None,146.02990800000043,146.02990800000043,146.02990800000043,146.02990800000043,146.02990800000043,146.02990800000043,146.02990800000043,146.02990800000043,146.02990800000043,146.02990800000043,,007,P014,2025_Feb_28_1654,ConditionRich,2021.2.3,59.94700684589121,
104.0,104.75,20,0.75,Stimuli/P014/sun_cidodcxikcyrdglc.jpg,0,0,0.0,0,170,170,170,,,,,,,,,,,,,104.01039270000001,0.010392700000011246,None,146.28014149999944,146.28014149999944,146.28014149999944,146.28014149999944,146.28014149999944,146.28014149999944,146.28014149999944,146.28014149999944,146.28014149999944,146.28014149999944,,007,P014,2025_Feb_28_1654,ConditionRich,2021.2.3,59.94700684589121,
104.75,105.0,41,0.0,Stimuli/Blank.png,0,0,0.0,0,171,171,171,,,,,,,,,,,,,104.77586829999927,0.025868299999274313,None,147.03078020000066,147.03078020000066,147.03078020000066,147.03078020000066,147.03078020000066,147.03078020000066,147.03078020000066,147.03078020000066,147.03078020000066,147.03078020000066,,007,P014,2025_Feb_28_1654,ConditionRich,2021.2.3,59.94700684589121,
105.0,105.75,20,0.75,Stimuli/P014/sun_cidodcxikcyrdglc.jpg,0,0,0.0,0,172,172,172,,,,,,,,,,,,,105.00978820000091,0.009788200000912184,None,147.28103069999997,147.28103069999997,147.28103069999997,147.28103069999997,147.28103069999997,147.28103069999997,147.28103069999997,147.28103069999997,147.28103069999997,147.28103069999997,,007,P014,2025_Feb_28_1654,ConditionRich,2021.2.3,59.94700684589121,
105.75,106.0,41,0.0,Stimuli/Blank.png,0,0,0.0,0,173,173,173,,,,,,,,,,,,,105.77647280000019,0.026472800000192365,None,148.03166200000123,148.03166200000123,148.03166200000123,148.03166200000123,148.03166200000123,148.03166200000123,148.03166200000123,148.03166200000123,148.03166200000123,148.03166200000123,,007,P014,2025_Feb_28_1654,ConditionRich,2021.2.3,59.94700684589121,
106.0,106.75,20,0.75,Stimuli/P014/sun_cidodcxikcyrdglc.jpg,0,0,0.0,0,174,174,174,,,,,,,,,,,,,106.01022480000029,0.01022480000028736,None,148.28192020000097,148.28192020000097,148.28192020000097,148.28192020000097,148.28192020000097,148.28192020000097,148.28192020000097,148.28192020000097,148.28192020000097,148.28192020000097,,007,P014,2025_Feb_28_1654,ConditionRich,2021.2.3,59.94700684589121,
106.75,107.0,41,0.0,Stimuli/Blank.png,0,0,0.0,0,175,175,175,,,,,,,,,,,,,106.7766931999995,0.026693199999499484,None,149.03255340000032,149.03255340000032,149.03255340000032,149.03255340000032,149.03255340000032,149.03255340000032,149.03255340000032,149.03255340000032,149.03255340000032,149.03255340000032,,007,P014,2025_Feb_28_1654,ConditionRich,2021.2.3,59.94700684589121,
107.0,107.75,20,0.75,Stimuli/P014/sun_cidodcxikcyrdglc.jpg,0,0,0.0,0,176,176,176,,,,,,,,,,,,,107.01074850000077,0.010748500000772765,None,149.28277379999963,149.28277379999963,149.28277379999963,149.28277379999963,149.28277379999963,149.28277379999963,149.28277379999963,149.28277379999963,149.28277379999963,149.28277379999963,,007,P014,2025_Feb_28_1654,ConditionRich,2021.2.3,59.94700684589121,
107.75,108.0,41,0.0,Stimuli/Blank.png,0,0,0.0,0,177,177,177,,,,,,,,,,,,,107.77841670000089,0.02841670000088925,None,150.0334423000004,150.0334423000004,150.0334423000004,150.0334423000004,150.0334423000004,150.0334423000004,150.0334423000004,150.0334423000004,150.0334423000004,150.0334423000004,,007,P014,2025_Feb_28_1654,ConditionRich,2021.2.3,59.94700684589121,
108.0,108.75,30,0.75,Stimuli/P014/things_man_07s.jpg,0,0,0.0,0,178,178,178,,,,,,,,,,,,,108.01116700000057,0.011167000000568805,None,150.2669807000002,150.2669807000002,150.2669807000002,150.2669807000002,150.2669807000002,150.2669807000002,150.2669807000002,150.2669807000002,150.2669807000002,150.2669807000002,,007,P014,2025_Feb_28_1654,ConditionRich,2021.2.3,59.94700684589121,
108.75,109.0,41,0.0,Stimuli/Blank.png,0,0,0.0,0,179,179,179,,,,,,,,,,,,,108.76271199999974,0.0127119999997376,None,151.01764430000003,151.01764430000003,151.01764430000003,151.01764430000003,151.01764430000003,151.01764430000003,151.01764430000003,151.01764430000003,151.01764430000003,151.01764430000003,,007,P014,2025_Feb_28_1654,ConditionRich,2021.2.3,59.94700684589121,
109.0,109.75,30,0.75,Stimuli/P014/things_man_07s.jpg,0,0,0.0,0,180,180,180,,,,,,,,,,,,,109.01346489999924,0.013464899999235058,None,151.28454820000115,151.28454820000115,151.28454820000115,151.28454820000115,151.28454820000115,151.28454820000115,151.28454820000115,151.28454820000115,151.28454820000115,151.28454820000115,,007,P014,2025_Feb_28_1654,ConditionRich,2021.2.3,59.94700684589121,
109.75,110.0,41,0.0,Stimuli/Blank.png,0,0,0.0,0,181,181,181,,,,,,,,,,,,,109.77984990000004,0.029849900000044727,None,152.03521480000018,152.03521480000018,152.03521480000018,152.03521480000018,152.03521480000018,152.03521480000018,152.03521480000018,152.03521480000018,152.03521480000018,152.03521480000018,,007,P014,2025_Feb_28_1654,ConditionRich,2021.2.3,59.94700684589121,
110.0,110.75,30,0.75,Stimuli/P014/things_man_07s.jpg,0,0,0.0,0,182,182,182,,,,,,,,,,,,,110.01353829999971,0.013538299999709125,None,152.26874839999982,152.26874839999982,152.26874839999982,152.26874839999982,152.26874839999982,152.26874839999982,152.26874839999982,152.26874839999982,152.26874839999982,152.26874839999982,,007,P014,2025_Feb_28_1654,ConditionRich,2021.2.3,59.94700684589121,
110.75,111.0,41,0.0,Stimuli/Blank.png,0,0,0.0,0,183,183,183,,,,,,,,,,,,,110.76377610000054,0.013776100000541192,None,153.01945879999948,153.01945879999948,153.01945879999948,153.01945879999948,153.01945879999948,153.01945879999948,153.01945879999948,153.01945879999948,153.01945879999948,153.01945879999948,,007,P014,2025_Feb_28_1654,ConditionRich,2021.2.3,59.94700684589121,
111.0,111.75,30,0.75,Stimuli/P014/things_man_07s.jpg,0,0,0.0,0,184,184,184,,,,,,,,,,,,,111.01476510000066,0.014765100000659004,None,153.26963330000035,153.26963330000035,153.26963330000035,153.26963330000035,153.26963330000035,153.26963330000035,153.26963330000035,153.26963330000035,153.26963330000035,153.26963330000035,,007,P014,2025_Feb_28_1654,ConditionRich,2021.2.3,59.94700684589121,
111.75,112.0,41,0.0,Stimuli/Blank.png,0,0,0.0,0,185,185,185,,,,,,,,,,,,,111.76467799999955,0.014677999999548774,None,154.02029589999984,154.02029589999984,154.02029589999984,154.02029589999984,154.02029589999984,154.02029589999984,154.02029589999984,154.02029589999984,154.02029589999984,154.02029589999984,,007,P014,2025_Feb_28_1654,ConditionRich,2021.2.3,59.94700684589121,
112.0,112.75,10,0.75,Stimuli/P014/sun_bdhxnzyleoiflyak.jpg,0,0,0.0,0,186,186,186,,,,,,,,,,,,,112.01507999999922,0.015079999999215943,None,154.27052600000025,154.27052600000025,154.27052600000025,154.27052600000025,154.27052600000025,154.27052600000025,154.27052600000025,154.27052600000025,154.27052600000025,154.27052600000025,,007,P014,2025_Feb_28_1654,ConditionRich,2021.2.3,59.94700684589121,
112.75,113.0,41,0.0,Stimuli/Blank.png,0,0,0.0,0,187,187,187,,,,,,,,,,,,,112.7487473000001,-0.0012526999998954125,None,155.00449900000058,155.00449900000058,155.00449900000058,155.00449900000058,155.00449900000058,155.00449900000058,155.00449900000058,155.00449900000058,155.00449900000058,155.00449900000058,,007,P014,2025_Feb_28_1654,ConditionRich,2021.2.3,59.94700684589121,
113.0,113.75,10,0.75,Stimuli/P014/sun_bdhxnzyleoiflyak.jpg,1,0,0.75,0,188,188,188,,,,,,,,,,,,,113.0162390000005,0.016239000000496162,1,155.2880827000008,155.2880827000008,155.2880827000008,155.2880827000008,155.2880827000008,155.2880827000008,155.2880827000008,156.0054387,155.2880827000008,155.2880827000008,0.5896383999988757,007,P014,2025_Feb_28_1654,ConditionRich,2021.2.3,59.94700684589121,
113.75,114.0,41,0.0,Stimuli/Blank.png,0,0,0.0,0,189,189,189,,,,,,,,,,,,,113.76706650000051,0.017066500000510132,None,156.02208790000077,156.02208790000077,156.02208790000077,156.02208790000077,156.02208790000077,156.02208790000077,156.02208790000077,156.02208790000077,156.02208790000077,156.02208790000077,,007,P014,2025_Feb_28_1654,ConditionRich,2021.2.3,59.94700684589121,
114.0,114.75,10,0.75,Stimuli/P014/sun_bdhxnzyleoiflyak.jpg,0,0,0.0,0,190,190,190,,,,,,,,,,,,,114.00033520000034,0.00033520000033604447,None,156.25557590000062,156.25557590000062,156.25557590000062,156.25557590000062,156.25557590000062,156.25557590000062,156.25557590000062,156.25557590000062,156.25557590000062,156.25557590000062,,007,P014,2025_Feb_28_1654,ConditionRich,2021.2.3,59.94700684589121,
114.75,115.0,41,0.0,Stimuli/Blank.png,0,0,0.0,0,191,191,191,,,,,,,,,,,,,114.75041899999997,0.00041899999996530823,None,157.00628180000058,157.00628180000058,157.00628180000058,157.00628180000058,157.00628180000058,157.00628180000058,157.00628180000058,157.00628180000058,157.00628180000058,157.00628180000058,,007,P014,2025_Feb_28_1654,ConditionRich,2021.2.3,59.94700684589121,
115.0,115.75,10,0.75,Stimuli/P014/sun_bdhxnzyleoiflyak.jpg,0,0,0.0,0,192,192,192,,,,,,,,,,,,,115.00100980000025,0.0010098000002471963,None,157.27318100000048,157.27318100000048,157.27318100000048,157.27318100000048,157.27318100000048,157.27318100000048,157.27318100000048,157.27318100000048,157.27318100000048,157.27318100000048,,007,P014,2025_Feb_28_1654,ConditionRich,2021.2.3,59.94700684589121,
115.75,116.0,41,0.0,Stimuli/Blank.png,0,0,0.0,0,193,193,193,,,,,,,,,,,,,115.7696147000006,0.01961470000060217,None,158.0238504000008,158.0238504000008,158.0238504000008,158.0238504000008,158.0238504000008,158.0238504000008,158.0238504000008,158.0238504000008,158.0238504000008,158.0238504000008,,007,P014,2025_Feb_28_1654,ConditionRich,2021.2.3,59.94700684589121,
116.0,116.75,16,0.75,Stimuli/P014/sun_bsgtkqjrnrvttrax.jpg,0,0,0.0,0,194,194,194,,,,,,,,,,,,,116.00232099999994,0.002320999999938067,None,158.25738620000084,158.25738620000084,158.25738620000084,158.25738620000084,158.25738620000084,158.25738620000084,158.25738620000084,158.25738620000084,158.25738620000084,158.25738620000084,,007,P014,2025_Feb_28_1654,ConditionRich,2021.2.3,59.94700684589121,
116.75,117.0,41,0.0,Stimuli/Blank.png,0,0,0.0,0,195,195,195,,,,,,,,,,,,,116.7550943999995,0.005094399999507004,None,159.02473520000058,159.02473520000058,159.02473520000058,159.02473520000058,159.02473520000058,159.02473520000058,159.02473520000058,159.02473520000058,159.02473520000058,159.02473520000058,,007,P014,2025_Feb_28_1654,ConditionRich,2021.2.3,59.94700684589121,
117.0,117.75,16,0.75,Stimuli/P014/sun_bsgtkqjrnrvttrax.jpg,1,0,0.75,0,196,196,196,,,,,,,,,,,,,117.02016949999961,0.020169499999610707,1,159.2916320000004,159.2916320000004,159.2916320000004,159.2916320000004,159.2916320000004,159.2916320000004,159.2916320000004,160.0089366000011,159.2916320000004,159.2916320000004,0.4809258999994199,007,P014,2025_Feb_28_1654,ConditionRich,2021.2.3,59.94700684589121,
117.75,118.0,41,0.0,Stimuli/Blank.png,0,0,0.0,0,197,197,197,,,,,,,,,,,,,117.77031940000052,0.020319400000516907,None,160.02563530000043,160.02563530000043,160.02563530000043,160.02563530000043,160.02563530000043,160.02563530000043,160.02563530000043,160.02563530000043,160.02563530000043,160.02563530000043,,007,P014,2025_Feb_28_1654,ConditionRich,2021.2.3,59.94700684589121,
118.0,118.75,16,0.75,Stimuli/P014/sun_bsgtkqjrnrvttrax.jpg,0,0,0.0,0,198,198,198,,,,,,,,,,,,,118.00539779999963,0.00539779999962775,None,160.27583770000092,160.27583770000092,160.27583770000092,160.27583770000092,160.27583770000092,160.27583770000092,160.27583770000092,160.27583770000092,160.27583770000092,160.27583770000092,,007,P014,2025_Feb_28_1654,ConditionRich,2021.2.3,59.94700684589121,
118.75,119.0,41,0.0,Stimuli/Blank.png,0,0,0.0,0,199,199,199,,,,,,,,,,,,,118.77064009999958,0.020640099999582162,None,161.02650150000045,161.02650150000045,161.02650150000045,161.02650150000045,161.02650150000045,161.02650150000045,161.02650150000045,161.02650150000045,161.02650150000045,161.02650150000045,,007,P014,2025_Feb_28_1654,ConditionRich,2021.2.3,59.94700684589121,
119.0,119.75,16,0.75,Stimuli/P014/sun_bsgtkqjrnrvttrax.jpg,0,0,0.0,0,200,200,200,,,,,,,,,,,,,119.00422219999928,0.004222199999276199,None,161.26003459999993,161.26003459999993,161.26003459999993,161.26003459999993,161.26003459999993,161.26003459999993,161.26003459999993,161.26003459999993,161.26003459999993,161.26003459999993,,007,P014,2025_Feb_28_1654,ConditionRich,2021.2.3,59.94700684589121,
119.75,120.0,41,0.0,Stimuli/Blank.png,0,0,0.0,0,201,201,201,,,,,,,,,,,,,119.75547650000044,0.005476500000440865,None,162.01074830000107,162.01074830000107,162.01074830000107,162.01074830000107,162.01074830000107,162.01074830000107,162.01074830000107,162.01074830000107,162.01074830000107,162.01074830000107,,007,P014,2025_Feb_28_1654,ConditionRich,2021.2.3,59.94700684589121,
120.0,120.75,29,0.75,Stimuli/P014/things_iguana_07s.jpg,0,0,0.0,0,202,202,202,,,,,,,,,,,,,120.0060295000003,0.006029500000295229,None,162.26095710000118,162.26095710000118,162.26095710000118,162.26095710000118,162.26095710000118,162.26095710000118,162.26095710000118,162.26095710000118,162.26095710000118,162.26095710000118,,007,P014,2025_Feb_28_1654,ConditionRich,2021.2.3,59.94700684589121,
120.75,121.0,41,0.0,Stimuli/Blank.png,0,0,0.0,0,203,203,203,,,,,,,,,,,,,120.75626159999956,0.00626159999956144,None,163.01159240000015,163.01159240000015,163.01159240000015,163.01159240000015,163.01159240000015,163.01159240000015,163.01159240000015,163.01159240000015,163.01159240000015,163.01159240000015,,007,P014,2025_Feb_28_1654,ConditionRich,2021.2.3,59.94700684589121,
121.0,121.75,29,0.75,Stimuli/P014/things_iguana_07s.jpg,0,0,0.0,0,204,204,204,,,,,,,,,,,,,121.0064696999998,0.00646969999979774,None,163.26181440000073,163.26181440000073,163.26181440000073,163.26181440000073,163.26181440000073,163.26181440000073,163.26181440000073,163.26181440000073,163.26181440000073,163.26181440000073,,007,P014,2025_Feb_28_1654,ConditionRich,2021.2.3,59.94700684589121,
121.75,122.0,41,0.0,Stimuli/Blank.png,0,0,0.0,0,205,205,205,,,,,,,,,,,,,121.75717079999959,0.007170799999585142,None,164.01248040000064,164.01248040000064,164.01248040000064,164.01248040000064,164.01248040000064,164.01248040000064,164.01248040000064,164.01248040000064,164.01248040000064,164.01248040000064,,007,P014,2025_Feb_28_1654,ConditionRich,2021.2.3,59.94700684589121,
122.0,122.75,29,0.75,Stimuli/P014/things_iguana_07s.jpg,0,0,0.0,0,206,206,206,,,,,,,,,,,,,122.00698740000007,0.00698740000007092,None,164.2626975000003,164.2626975000003,164.2626975000003,164.2626975000003,164.2626975000003,164.2626975000003,164.2626975000003,164.2626975000003,164.2626975000003,164.2626975000003,,007,P014,2025_Feb_28_1654,ConditionRich,2021.2.3,59.94700684589121,
122.75,123.0,41,0.0,Stimuli/Blank.png,0,0,0.0,0,207,207,207,,,,,,,,,,,,,122.7575381000006,0.007538100000601844,None,165.01335520000066,165.01335520000066,165.01335520000066,165.01335520000066,165.01335520000066,165.01335520000066,165.01335520000066,165.01335520000066,165.01335520000066,165.01335520000066,,007,P014,2025_Feb_28_1654,ConditionRich,2021.2.3,59.94700684589121,
123.0,123.75,29,0.75,Stimuli/P014/things_iguana_07s.jpg,0,0,0.0,0,208,208,208,,,,,,,,,,,,,123.0077956999994,0.00779569999940577,None,165.2802797000004,165.2802797000004,165.2802797000004,165.2802797000004,165.2802797000004,165.2802797000004,165.2802797000004,165.2802797000004,165.2802797000004,165.2802797000004,,007,P014,2025_Feb_28_1654,ConditionRich,2021.2.3,59.94700684589121,
123.75,124.0,41,0.0,Stimuli/Blank.png,0,0,0.0,0,209,209,209,,,,,,,,,,,,,123.77631470000051,0.026314700000511948,None,166.03093810000064,166.03093810000064,166.03093810000064,166.03093810000064,166.03093810000064,166.03093810000064,166.03093810000064,166.03093810000064,166.03093810000064,166.03093810000064,,007,P014,2025_Feb_28_1654,ConditionRich,2021.2.3,59.94700684589121,
124.0,124.75,3,0.75,Stimuli/P014/sun_aengzsmykwchlrdn.jpg,0,0,0.0,0,210,210,210,,,,,,,,,,,,,124.00990350000029,0.009903500000291388,None,166.28116880000016,166.28116880000016,166.28116880000016,166.28116880000016,166.28116880000016,166.28116880000016,166.28116880000016,166.28116880000016,166.28116880000016,166.28116880000016,,007,P014,2025_Feb_28_1654,ConditionRich,2021.2.3,59.94700684589121,
124.75,125.0,41,0.0,Stimuli/Blank.png,0,0,0.0,0,211,211,211,,,,,,,,,,,,,124.77676470000006,0.026764700000057928,None,167.03182259999994,167.03182259999994,167.03182259999994,167.03182259999994,167.03182259999994,167.03182259999994,167.03182259999994,167.03182259999994,167.03182259999994,167.03182259999994,,007,P014,2025_Feb_28_1654,ConditionRich,2021.2.3,59.94700684589121,
125.0,125.75,3,0.75,Stimuli/P014/sun_aengzsmykwchlrdn.jpg,0,0,0.0,0,212,212,212,,,,,,,,,,,,,125.01201390000097,0.012013900000965805,None,167.2820408000007,167.2820408000007,167.2820408000007,167.2820408000007,167.2820408000007,167.2820408000007,167.2820408000007,167.2820408000007,167.2820408000007,167.2820408000007,,007,P014,2025_Feb_28_1654,ConditionRich,2021.2.3,59.94700684589121,
125.75,126.0,41,0.0,Stimuli/Blank.png,0,0,0.0,0,213,213,213,,,,,,,,,,,,,125.77761060000012,0.027610600000116392,None,168.03270030000022,168.03270030000022,168.03270030000022,168.03270030000022,168.03270030000022,168.03270030000022,168.03270030000022,168.03270030000022,168.03270030000022,168.03270030000022,,007,P014,2025_Feb_28_1654,ConditionRich,2021.2.3,59.94700684589121,
126.0,126.75,3,0.75,Stimuli/P014/sun_aengzsmykwchlrdn.jpg,0,0,0.0,0,214,214,214,,,,,,,,,,,,,126.01267530000041,0.012675300000410061,None,168.282964,168.282964,168.282964,168.282964,168.282964,168.282964,168.282964,168.282964,168.282964,168.282964,,007,P014,2025_Feb_28_1654,ConditionRich,2021.2.3,59.94700684589121,
126.75,127.0,41,0.0,Stimuli/Blank.png,0,0,0.0,0,215,215,215,,,,,,,,,,,,,126.77830419999918,0.028304199999183766,None,169.03358040000057,169.03358040000057,169.03358040000057,169.03358040000057,169.03358040000057,169.03358040000057,169.03358040000057,169.03358040000057,169.03358040000057,169.03358040000057,,007,P014,2025_Feb_28_1654,ConditionRich,2021.2.3,59.94700684589121,
127.0,127.75,3,0.75,Stimuli/P014/sun_aengzsmykwchlrdn.jpg,0,0,0.0,0,216,216,216,,,,,,,,,,,,,127.01197329999923,0.011973299999226583,None,169.26712530000077,169.26712530000077,169.26712530000077,169.26712530000077,169.26712530000077,169.26712530000077,169.26712530000077,169.26712530000077,169.26712530000077,169.26712530000077,,007,P014,2025_Feb_28_1654,ConditionRich,2021.2.3,59.94700684589121,
127.75,128.0,41,0.0,Stimuli/Blank.png,0,0,0.0,0,217,217,217,,,,,,,,,,,,,127.76176210000085,0.011762100000851206,None,170.0177885000012,170.0177885000012,170.0177885000012,170.0177885000012,170.0177885000012,170.0177885000012,170.0177885000012,170.0177885000012,170.0177885000012,170.0177885000012,,007,P014,2025_Feb_28_1654,ConditionRich,2021.2.3,59.94700684589121,
128.0,128.75,33,0.75,Stimuli/P014/things_piglet_07s.jpg,0,0,0.0,0,218,218,218,,,,,,,,,,,,,128.01271989999987,0.012719899999865447,None,170.26802090000092,170.26802090000092,170.26802090000092,170.26802090000092,170.26802090000092,170.26802090000092,170.26802090000092,170.26802090000092,170.26802090000092,170.26802090000092,,007,P014,2025_Feb_28_1654,ConditionRich,2021.2.3,59.94700684589121,
128.75,129.0,41,0.0,Stimuli/Blank.png,0,0,0.0,0,219,219,219,,,,,,,,,,,,,128.7626794000007,0.012679400000706664,None,171.01868439999998,171.01868439999998,171.01868439999998,171.01868439999998,171.01868439999998,171.01868439999998,171.01868439999998,171.01868439999998,171.01868439999998,171.01868439999998,,007,P014,2025_Feb_28_1654,ConditionRich,2021.2.3,59.94700684589121,
129.0,129.75,33,0.75,Stimuli/P014/things_piglet_07s.jpg,0,0,0.0,0,220,220,220,,,,,,,,,,,,,129.01377999999931,0.013779999999314896,None,171.28556820000085,171.28556820000085,171.28556820000085,171.28556820000085,171.28556820000085,171.28556820000085,171.28556820000085,171.28556820000085,171.28556820000085,171.28556820000085,,007,P014,2025_Feb_28_1654,ConditionRich,2021.2.3,59.94700684589121,
129.75,130.0,41,0.0,Stimuli/Blank.png,0,0,0.0,0,221,221,221,,,,,,,,,,,,,129.78117790000033,0.031177900000329828,None,172.0362376000012,172.0362376000012,172.0362376000012,172.0362376000012,172.0362376000012,172.0362376000012,172.0362376000012,172.0362376000012,172.0362376000012,172.0362376000012,,007,P014,2025_Feb_28_1654,ConditionRich,2021.2.3,59.94700684589121,
130.0,130.75,33,0.75,Stimuli/P014/things_piglet_07s.jpg,0,0,0.0,0,222,222,222,,,,,,,,,,,,,130.01412250000067,0.01412250000066706,None,172.26978670000062,172.26978670000062,172.26978670000062,172.26978670000062,172.26978670000062,172.26978670000062,172.26978670000062,172.26978670000062,172.26978670000062,172.26978670000062,,007,P014,2025_Feb_28_1654,ConditionRich,2021.2.3,59.94700684589121,
130.75,131.0,41,0.0,Stimuli/Blank.png,0,0,0.0,0,223,223,223,,,,,,,,,,,,,130.76549039999918,0.015490399999180227,None,173.0204708000001,173.0204708000001,173.0204708000001,173.0204708000001,173.0204708000001,173.0204708000001,173.0204708000001,173.0204708000001,173.0204708000001,173.0204708000001,,007,P014,2025_Feb_28_1654,ConditionRich,2021.2.3,59.94700684589121,
131.0,131.75,33,0.75,Stimuli/P014/things_piglet_07s.jpg,0,0,0.0,0,224,224,224,,,,,,,,,,,,,130.99923090000084,-0.0007690999991609715,None,173.27067759999954,173.27067759999954,173.27067759999954,173.27067759999954,173.27067759999954,173.27067759999954,173.27067759999954,173.27067759999954,173.27067759999954,173.27067759999954,,007,P014,2025_Feb_28_1654,ConditionRich,2021.2.3,59.94700684589121,
131.75,132.0,41,0.0,Stimuli/Blank.png,0,0,0.0,0,225,225,225,,,,,,,,,,,,,131.7661379000001,0.0161379000001034,None,174.02133700000013,174.02133700000013,174.02133700000013,174.02133700000013,174.02133700000013,174.02133700000013,174.02133700000013,174.02133700000013,174.02133700000013,174.02133700000013,,007,P014,2025_Feb_28_1654,ConditionRich,2021.2.3,59.94700684589121,
132.0,132.75,15,0.75,Stimuli/P014/sun_brezwczwwllviogu.jpg,0,0,0.0,0,226,226,226,,,,,,,,,,,,,131.9998254000002,-0.00017459999980928842,None,174.25486310000088,174.25486310000088,174.25486310000088,174.25486310000088,174.25486310000088,174.25486310000088,174.25486310000088,174.25486310000088,174.25486310000088,174.25486310000088,,007,P014,2025_Feb_28_1654,ConditionRich,2021.2.3,59.94700684589121,
132.75,133.0,41,0.0,Stimuli/Blank.png,0,0,0.0,0,227,227,227,,,,,,,,,,,,,132.75025749999986,0.00025749999986146577,None,175.00553870000113,175.00553870000113,175.00553870000113,175.00553870000113,175.00553870000113,175.00553870000113,175.00553870000113,175.00553870000113,175.00553870000113,175.00553870000113,,007,P014,2025_Feb_28_1654,ConditionRich,2021.2.3,59.94700684589121,
133.0,133.75,15,0.75,Stimuli/P014/sun_brezwczwwllviogu.jpg,0,0,0.0,0,228,228,228,,,,,,,,,,,,,133.0005454000002,0.0005454000001918757,None,175.27246340000056,175.27246340000056,175.27246340000056,175.27246340000056,175.27246340000056,175.27246340000056,175.27246340000056,175.27246340000056,175.27246340000056,175.27246340000056,,007,P014,2025_Feb_28_1654,ConditionRich,2021.2.3,59.94700684589121,
133.75,134.0,41,0.0,Stimuli/Blank.png,0,0,0.0,0,229,229,229,,,,,,,,,,,,,133.76777349999975,0.01777349999974831,None,176.0231402999998,176.0231402999998,176.0231402999998,176.0231402999998,176.0231402999998,176.0231402999998,176.0231402999998,176.0231402999998,176.0231402999998,176.0231402999998,,007,P014,2025_Feb_28_1654,ConditionRich,2021.2.3,59.94700684589121,
134.0,134.75,15,0.75,Stimuli/P014/sun_brezwczwwllviogu.jpg,1,0,0.75,0,230,230,230,,,,,,,,,,,,,134.00073920000068,0.0007392000006802846,1,176.27333420000105,176.27333420000105,176.27333420000105,176.27333420000105,176.27333420000105,176.27333420000105,176.27333420000105,176.99069039999995,176.27333420000105,176.27333420000105,0.36929740000050515,007,P014,2025_Feb_28_1654,ConditionRich,2021.2.3,59.94700684589121,
134.75,135.0,41,0.0,Stimuli/Blank.png,0,0,0.0,0,231,231,231,,,,,,,,,,,,,134.76889429999937,0.018894299999374198,None,177.0239873999999,177.0239873999999,177.0239873999999,177.0239873999999,177.0239873999999,177.0239873999999,177.0239873999999,177.0239873999999,177.0239873999999,177.0239873999999,,007,P014,2025_Feb_28_1654,ConditionRich,2021.2.3,59.94700684589121,
135.0,135.75,15,0.75,Stimuli/P014/sun_brezwczwwllviogu.jpg,0,0,0.0,0,232,232,232,,,,,,,,,,,,,135.00163659999998,0.0016365999999834457,None,177.2742288999998,177.2742288999998,177.2742288999998,177.2742288999998,177.2742288999998,177.2742288999998,177.2742288999998,177.2742288999998,177.2742288999998,177.2742288999998,,007,P014,2025_Feb_28_1654,ConditionRich,2021.2.3,59.94700684589121,
135.75,136.0,41,0.0,Stimuli/Blank.png,0,0,0.0,0,233,233,233,,,,,,,,,,,,,135.7696180999992,0.019618099999206606,None,178.0248900000006,178.0248900000006,178.0248900000006,178.0248900000006,178.0248900000006,178.0248900000006,178.0248900000006,178.0248900000006,178.0248900000006,178.0248900000006,,007,P014,2025_Feb_28_1654,ConditionRich,2021.2.3,59.94700684589121,
136.0,136.75,9,0.75,Stimuli/P014/sun_bdgwqzttihopmpbf.jpg,0,0,0.0,0,234,234,234,,,,,,,,,,,,,136.00615839999955,0.006158399999549147,None,178.27512220000062,178.27512220000062,178.27512220000062,178.27512220000062,178.27512220000062,178.27512220000062,178.27512220000062,178.27512220000062,178.27512220000062,178.27512220000062,,007,P014,2025_Feb_28_1654,ConditionRich,2021.2.3,59.94700684589121,
136.75,137.0,41,0.0,Stimuli/Blank.png,0,0,0.0,0,235,235,235,,,,,,,,,,,,,136.77072899999985,0.020728999999846565,None,179.02576050000062,179.02576050000062,179.02576050000062,179.02576050000062,179.02576050000062,179.02576050000062,179.02576050000062,179.02576050000062,179.02576050000062,179.02576050000062,,007,P014,2025_Feb_28_1654,ConditionRich,2021.2.3,59.94700684589121,
137.0,137.75,9,0.75,Stimuli/P014/sun_bdgwqzttihopmpbf.jpg,0,0,0.0,0,236,236,236,,,,,,,,,,,,,137.0034689999993,0.0034689999993133824,None,179.25930010000047,179.25930010000047,179.25930010000047,179.25930010000047,179.25930010000047,179.25930010000047,179.25930010000047,179.25930010000047,179.25930010000047,179.25930010000047,,007,P014,2025_Feb_28_1654,ConditionRich,2021.2.3,59.94700684589121,
137.75,138.0,41,0.0,Stimuli/Blank.png,0,0,0.0,0,237,237,237,,,,,,,,,,,,,137.75500529999954,0.005005299999538693,None,180.0099783000005,180.0099783000005,180.0099783000005,180.0099783000005,180.0099783000005,180.0099783000005,180.0099783000005,180.0099783000005,180.0099783000005,180.0099783000005,,007,P014,2025_Feb_28_1654,ConditionRich,2021.2.3,59.94700684589121,
138.0,138.75,9,0.75,Stimuli/P014/sun_bdgwqzttihopmpbf.jpg,0,0,0.0,0,238,238,238,,,,,,,,,,,,,138.00432510000064,0.004325100000642124,None,180.2601794000002,180.2601794000002,180.2601794000002,180.2601794000002,180.2601794000002,180.2601794000002,180.2601794000002,180.2601794000002,180.2601794000002,180.2601794000002,,007,P014,2025_Feb_28_1654,ConditionRich,2021.2.3,59.94700684589121,
138.75,139.0,41,0.0,Stimuli/Blank.png,0,0,0.0,0,239,239,239,,,,,,,,,,,,,138.75565110000025,0.005651100000250153,None,181.01084450000053,181.01084450000053,181.01084450000053,181.01084450000053,181.01084450000053,181.01084450000053,181.01084450000053,181.01084450000053,181.01084450000053,181.01084450000053,,007,P014,2025_Feb_28_1654,ConditionRich,2021.2.3,59.94700684589121,
139.0,139.75,9,0.75,Stimuli/P014/sun_bdgwqzttihopmpbf.jpg,0,0,0.0,0,240,240,240,,,,,,,,,,,,,139.00520789999973,0.005207899999732035,None,181.2610767999995,181.2610767999995,181.2610767999995,181.2610767999995,181.2610767999995,181.2610767999995,181.2610767999995,181.2610767999995,181.2610767999995,181.2610767999995,,007,P014,2025_Feb_28_1654,ConditionRich,2021.2.3,59.94700684589121,
139.75,140.0,41,0.0,Stimuli/Blank.png,0,0,0.0,0,241,241,241,,,,,,,,,,,,,139.75632659999974,0.0063265999997383915,None,182.01173740000013,182.01173740000013,182.01173740000013,182.01173740000013,182.01173740000013,182.01173740000013,182.01173740000013,182.01173740000013,182.01173740000013,182.01173740000013,,007,P014,2025_Feb_28_1654,ConditionRich,2021.2.3,59.94700684589121,
140.0,140.75,14,0.75,Stimuli/P014/sun_bqhfterhwnqrbnzg.jpg,0,0,0.0,0,242,242,242,,,,,,,,,,,,,140.00697319999927,0.006973199999265489,None,182.26195390000066,182.26195390000066,182.26195390000066,182.26195390000066,182.26195390000066,182.26195390000066,182.26195390000066,182.26195390000066,182.26195390000066,182.26195390000066,,007,P014,2025_Feb_28_1654,ConditionRich,2021.2.3,59.94700684589121,
140.75,141.0,41,0.0,Stimuli/Blank.png,0,0,0.0,0,243,243,243,,,,,,,,,,,,,140.7573367999994,0.007336799999393406,None,183.01261280000108,183.01261280000108,183.01261280000108,183.01261280000108,183.01261280000108,183.01261280000108,183.01261280000108,183.01261280000108,183.01261280000108,183.01261280000108,,007,P014,2025_Feb_28_1654,ConditionRich,2021.2.3,59.94700684589121,
141.0,141.75,14,0.75,Stimuli/P014/sun_bqhfterhwnqrbnzg.jpg,0,0,0.0,0,244,244,244,,,,,,,,,,,,,141.00700049999978,0.007000499999776366,None,183.26284000000123,183.26284000000123,183.26284000000123,183.26284000000123,183.26284000000123,183.26284000000123,183.26284000000123,183.26284000000123,183.26284000000123,183.26284000000123,,007,P014,2025_Feb_28_1654,ConditionRich,2021.2.3,59.94700684589121,
141.75,142.0,41,0.0,Stimuli/Blank.png,0,0,0.0,0,245,245,245,,,,,,,,,,,,,141.7577352999997,0.007735299999694689,None,184.01350830000047,184.01350830000047,184.01350830000047,184.01350830000047,184.01350830000047,184.01350830000047,184.01350830000047,184.01350830000047,184.01350830000047,184.01350830000047,,007,P014,2025_Feb_28_1654,ConditionRich,2021.2.3,59.94700684589121,
142.0,142.75,14,0.75,Stimuli/P014/sun_bqhfterhwnqrbnzg.jpg,0,0,0.0,0,246,246,246,,,,,,,,,,,,,142.0078078000006,0.007807800000591669,None,184.2804312999997,184.2804312999997,184.2804312999997,184.2804312999997,184.2804312999997,184.2804312999997,184.2804312999997,184.2804312999997,184.2804312999997,184.2804312999997,,007,P014,2025_Feb_28_1654,ConditionRich,2021.2.3,59.94700684589121,
142.75,143.0,41,0.0,Stimuli/Blank.png,0,0,0.0,0,247,247,247,,,,,,,,,,,,,142.7772471999997,0.027247199999692384,None,185.04777640000066,185.04777640000066,185.04777640000066,185.04777640000066,185.04777640000066,185.04777640000066,185.04777640000066,185.04777640000066,185.04777640000066,185.04777640000066,,007,P014,2025_Feb_28_1654,ConditionRich,2021.2.3,59.94700684589121,
143.0,143.75,14,0.75,Stimuli/P014/sun_bqhfterhwnqrbnzg.jpg,0,0,0.0,0,248,248,248,,,,,,,,,,,,,143.0275345000009,0.027534500000911066,None,185.29798180000034,185.29798180000034,185.29798180000034,185.29798180000034,185.29798180000034,185.29798180000034,185.29798180000034,185.29798180000034,185.29798180000034,185.29798180000034,,007,P014,2025_Feb_28_1654,ConditionRich,2021.2.3,59.94700684589121,
143.75,144.0,41,0.0,Stimuli/Blank.png,0,0,0.0,0,249,249,249,,,,,,,,,,,,,143.77725060000012,0.02725060000011581,None,186.03196460000072,186.03196460000072,186.03196460000072,186.03196460000072,186.03196460000072,186.03196460000072,186.03196460000072,186.03196460000072,186.03196460000072,186.03196460000072,,007,P014,2025_Feb_28_1654,ConditionRich,2021.2.3,59.94700684589121,
144.0,144.75,1,0.75,Stimuli/P014/sun_adkmgqclfrkhfxbd.jpg,0,0,0.0,0,250,250,250,,,,,,,,,,,,,144.01258830000006,0.012588300000061281,None,186.28218259999994,186.28218259999994,186.28218259999994,186.28218259999994,186.28218259999994,186.28218259999994,186.28218259999994,186.28218259999994,186.28218259999994,186.28218259999994,,007,P014,2025_Feb_28_1654,ConditionRich,2021.2.3,59.94700684589121,
144.75,145.0,41,0.0,Stimuli/Blank.png,0,0,0.0,0,251,251,251,,,,,,,,,,,,,144.77696880000076,0.026968800000759074,None,187.03284900000108,187.03284900000108,187.03284900000108,187.03284900000108,187.03284900000108,187.03284900000108,187.03284900000108,187.03284900000108,187.03284900000108,187.03284900000108,,007,P014,2025_Feb_28_1654,ConditionRich,2021.2.3,59.94700684589121,
145.0,145.75,1,0.75,Stimuli/P014/sun_adkmgqclfrkhfxbd.jpg,1,0,0.75,0,252,252,252,,,,,,,,,,,,,145.01057989999936,0.010579899999356712,1,187.26639310000064,187.26639310000064,187.26639310000064,187.26639310000064,187.26639310000064,187.26639310000064,187.26639310000064,188.0003680000009,187.26639310000064,187.26639310000064,0.4413825999999972,007,P014,2025_Feb_28_1654,ConditionRich,2021.2.3,59.94700684589121,
145.75,146.0,41,0.0,Stimuli/Blank.png,0,0,0.0,0,253,253,253,,,,,,,,,,,,,145.76224589999947,0.012245899999470566,None,188.01705390000097,188.01705390000097,188.01705390000097,188.01705390000097,188.01705390000097,188.01705390000097,188.01705390000097,188.01705390000097,188.01705390000097,188.01705390000097,,007,P014,2025_Feb_28_1654,ConditionRich,2021.2.3,59.94700684589121,
146.0,146.75,1,0.75,Stimuli/P014/sun_adkmgqclfrkhfxbd.jpg,0,0,0.0,0,254,254,254,,,,,,,,,,,,,146.0123352999999,0.012335299999904237,None,188.2672763999999,188.2672763999999,188.2672763999999,188.2672763999999,188.2672763999999,188.2672763999999,188.2672763999999,188.2672763999999,188.2672763999999,188.2672763999999,,007,P014,2025_Feb_28_1654,ConditionRich,2021.2.3,59.94700684589121,
146.75,147.0,41,0.0,Stimuli/Blank.png,0,0,0.0,0,255,255,255,,,,,,,,,,,,,146.76210419999916,0.012104199999157572,None,189.0179549000004,189.0179549000004,189.0179549000004,189.0179549000004,189.0179549000004,189.0179549000004,189.0179549000004,189.0179549000004,189.0179549000004,189.0179549000004,,007,P014,2025_Feb_28_1654,ConditionRich,2021.2.3,59.94700684589121,
147.0,147.75,1,0.75,Stimuli/P014/sun_adkmgqclfrkhfxbd.jpg,0,0,0.0,0,256,256,256,,,,,,,,,,,,,147.01327590000074,0.013275900000735419,None,189.28484910000043,189.28484910000043,189.28484910000043,189.28484910000043,189.28484910000043,189.28484910000043,189.28484910000043,189.28484910000043,189.28484910000043,189.28484910000043,,007,P014,2025_Feb_28_1654,ConditionRich,2021.2.3,59.94700684589121,
147.75,148.0,41,0.0,Stimuli/Blank.png,0,0,0.0,0,257,257,257,,,,,,,,,,,,,147.78019789999962,0.03019789999962086,None,190.0355080999998,190.0355080999998,190.0355080999998,190.0355080999998,190.0355080999998,190.0355080999998,190.0355080999998,190.0355080999998,190.0355080999998,190.0355080999998,,007,P014,2025_Feb_28_1654,ConditionRich,2021.2.3,59.94700684589121,
148.0,148.75,23,0.75,Stimuli/P014/things_bug_07s.jpg,0,0,0.0,0,258,258,258,,,,,,,,,,,,,148.01385160000063,0.01385160000063479,None,190.26903830000083,190.26903830000083,190.26903830000083,190.26903830000083,190.26903830000083,190.26903830000083,190.26903830000083,190.26903830000083,190.26903830000083,190.26903830000083,,007,P014,2025_Feb_28_1654,ConditionRich,2021.2.3,59.94700684589121,
148.75,149.0,41,0.0,Stimuli/Blank.png,0,0,0.0,0,259,259,259,,,,,,,,,,,,,148.76458549999916,0.014585499999157037,None,191.0197100000005,191.0197100000005,191.0197100000005,191.0197100000005,191.0197100000005,191.0197100000005,191.0197100000005,191.0197100000005,191.0197100000005,191.0197100000005,,007,P014,2025_Feb_28_1654,ConditionRich,2021.2.3,59.94700684589121,
149.0,149.75,23,0.75,Stimuli/P014/things_bug_07s.jpg,0,0,0.0,0,260,260,260,,,,,,,,,,,,,149.01486459999978,0.014864599999782513,None,191.28661199999988,191.28661199999988,191.28661199999988,191.28661199999988,191.28661199999988,191.28661199999988,191.28661199999988,191.28661199999988,191.28661199999988,191.28661199999988,,007,P014,2025_Feb_28_1654,ConditionRich,2021.2.3,59.94700684589121,
149.75,150.0,41,0.0,Stimuli/Blank.png,0,0,0.0,0,261,261,261,,,,,,,,,,,,,149.7813427000001,0.03134270000009565,None,192.03726450000067,192.03726450000067,192.03726450000067,192.03726450000067,192.03726450000067,192.03726450000067,192.03726450000067,192.03726450000067,192.03726450000067,192.03726450000067,,007,P014,2025_Feb_28_1654,ConditionRich,2021.2.3,59.94700684589121,
