eventStartTime,eventEndTime,eventCond,imSize,imFile,responseEvent,fixRespStart,fixRespEnd,Events.thisRepN,Events.thisTrialN,Events.thisN,Events.thisIndex,Instructions.started,Instructions.stopped,participantReadyResponse.keys,participantReadyResponse.rt,participantReadyResponse.started,participantReadyResponse.stopped,startWaitforTrigger,triggerResponse.keys,triggerResponse.rt,triggerResponse.started,triggerResponse.stopped,globalTimer,actualStartTime,startTimingDiff,participantResponse.keys,participantResponse.started,participantResponse.stopped,image.started,image.stopped,fixationOutside.started,fixationOutside.stopped,fixationResponse.started,fixationResponse.stopped,fixationInside.started,fixationInside.stopped,participantResponse.rt,session,participant,date,expName,psychopyVersion,frameRate,
,,,,,,,,,,,,12.299158300000272,None,1,7.1071457999969425,12.299158300000272,None,,,,,,,,,,,,,,,,,,,,,005,P015,2025_Feb_28_1826,ConditionRich,2021.2.3,59.93317451090929,
,,,,,,,,,,,,,,,,,,19.412252300000546,5,15.543837000001076,19.426422000000457,None,,,,,,,,,,,,,,,,005,P015,2025_Feb_28_1826,ConditionRich,2021.2.3,59.93317451090929,
0.0,4.0,0,0.0,Stimuli/Blank.png,0,0.0,0.0,0,0,0,0,,,,,,,,,,,,34.976969300001656,0.041040799998881994,0.041040799998881994,None,35.04023470000175,None,35.04023470000175,None,35.04023470000175,None,35.04023470000175,35.04023470000175,35.04023470000175,None,,005,P015,2025_Feb_28_1826,ConditionRich,2021.2.3,59.93317451090929,
4.0,4.75,12,0.75,Stimuli/P015/sun_boffixsnbbloarty.jpg,0,0.0,0.0,0,1,1,1,,,,,,,,,,,,,4.019468899998174,0.019468899998173583,None,39.02742230000149,39.02742230000149,39.02742230000149,39.02742230000149,39.02742230000149,39.02742230000149,39.02742230000149,39.02742230000149,39.02742230000149,39.02742230000149,,005,P015,2025_Feb_28_1826,ConditionRich,2021.2.3,59.93317451090929,
4.75,8.0,41,0.0,Stimuli/Blank.png,1,2.25,3.0,0,2,2,2,,,,,,,,,,,,,4.770190100000036,0.020190100000036182,1,39.76134290000118,39.76134290000118,39.76134290000118,39.76134290000118,39.76134290000118,39.76134290000118,41.99648190000153,42.74709419999999,39.76134290000118,39.76134290000118,2.621032999999443,005,P015,2025_Feb_28_1826,ConditionRich,2021.2.3,59.93317451090929,
8.0,8.75,37,0.75,Stimuli/P015/things_swizzle_stick_08s.jpg,0,0.0,0.0,0,3,3,3,,,,,,,,,,,,,8.006058899998607,0.006058899998606648,None,43.013958899999125,43.013958899999125,43.013958899999125,43.013958899999125,43.013958899999125,43.013958899999125,43.013958899999125,43.013958899999125,43.013958899999125,43.013958899999125,,005,P015,2025_Feb_28_1826,ConditionRich,2021.2.3,59.93317451090929,
8.75,12.0,41,0.0,Stimuli/Blank.png,0,0.0,0.0,0,4,4,4,,,,,,,,,,,,,8.773726200000965,0.023726200000965036,None,43.764633499999036,43.764633499999036,43.764633499999036,43.764633499999036,43.764633499999036,43.764633499999036,43.764633499999036,43.764633499999036,43.764633499999036,43.764633499999036,,005,P015,2025_Feb_28_1826,ConditionRich,2021.2.3,59.93317451090929,
12.0,12.75,16,0.75,Stimuli/P015/sun_bwhuwxazfqwuqhik.jpg,0,0.0,0.0,0,5,5,5,,,,,,,,,,,,,12.009296299998823,0.009296299998823088,None,47.00081570000111,47.00081570000111,47.00081570000111,47.00081570000111,47.00081570000111,47.00081570000111,47.00081570000111,47.00081570000111,47.00081570000111,47.00081570000111,,005,P015,2025_Feb_28_1826,ConditionRich,2021.2.3,59.93317451090929,
12.75,16.0,41,0.0,Stimuli/Blank.png,0,0.0,0.0,0,6,6,6,,,,,,,,,,,,,12.761216300001252,0.011216300001251511,None,47.75148999999874,47.75148999999874,47.75148999999874,47.75148999999874,47.75148999999874,47.75148999999874,47.75148999999874,47.75148999999874,47.75148999999874,47.75148999999874,,005,P015,2025_Feb_28_1826,ConditionRich,2021.2.3,59.93317451090929,
16.0,16.75,23,0.75,Stimuli/P015/things_boy_08s.jpg,0,0.0,0.0,0,7,7,7,,,,,,,,,,,,,16.012793999998394,0.012793999998393701,None,51.004356699999335,51.004356699999335,51.004356699999335,51.004356699999335,51.004356699999335,51.004356699999335,51.004356699999335,51.004356699999335,51.004356699999335,51.004356699999335,,005,P015,2025_Feb_28_1826,ConditionRich,2021.2.3,59.93317451090929,
16.75,20.0,41,0.0,Stimuli/Blank.png,1,1.25,2.0,0,8,8,8,,,,,,,,,,,,,16.764267800001107,0.014267800001107389,1,51.75502620000043,51.75502620000043,51.75502620000043,51.75502620000043,51.75502620000043,51.75502620000043,52.989424499999586,53.74020659999951,51.75502620000043,51.75502620000043,1.6303597000005539,005,P015,2025_Feb_28_1826,ConditionRich,2021.2.3,59.93317451090929,
20.0,20.75,19,0.75,Stimuli/P015/sun_bzhwvgrzvttqoexa.jpg,0,0.0,0.0,0,9,9,9,,,,,,,,,,,,,20.00348160000067,0.00348160000066855,None,55.00791609999942,55.00791609999942,55.00791609999942,55.00791609999942,55.00791609999942,55.00791609999942,55.00791609999942,55.00791609999942,55.00791609999942,55.00791609999942,,005,P015,2025_Feb_28_1826,ConditionRich,2021.2.3,59.93317451090929,
20.75,24.0,41,0.0,Stimuli/Blank.png,0,0.0,0.0,0,10,10,10,,,,,,,,,,,,,20.768030799998087,0.018030799998086877,None,55.75857879999967,55.75857879999967,55.75857879999967,55.75857879999967,55.75857879999967,55.75857879999967,55.75857879999967,55.75857879999967,55.75857879999967,55.75857879999967,,005,P015,2025_Feb_28_1826,ConditionRich,2021.2.3,59.93317451090929,
24.0,24.75,39,0.75,Stimuli/P015/things_window_08s.jpg,0,0.0,0.0,0,11,11,11,,,,,,,,,,,,,24.00325249999878,0.0032524999987799674,None,58.99475969999912,58.99475969999912,58.99475969999912,58.99475969999912,58.99475969999912,58.99475969999912,58.99475969999912,58.99475969999912,58.99475969999912,58.99475969999912,,005,P015,2025_Feb_28_1826,ConditionRich,2021.2.3,59.93317451090929,
24.75,28.0,41,0.0,Stimuli/Blank.png,1,2.25,3.0,0,12,12,12,,,,,,,,,,,,,24.754521300001215,0.0045213000012154225,1,59.74552480000057,59.74552480000057,59.74552480000057,59.74552480000057,59.74552480000057,59.74552480000057,61.98077919999923,62.731459700000414,59.74552480000057,59.74552480000057,2.6768727999988187,005,P015,2025_Feb_28_1826,ConditionRich,2021.2.3,59.93317451090929,
28.0,28.75,26,0.75,Stimuli/P015/things_face_08s.jpg,0,0.0,0.0,0,13,13,13,,,,,,,,,,,,,28.007815900000423,0.007815900000423426,None,62.99830440000005,62.99830440000005,62.99830440000005,62.99830440000005,62.99830440000005,62.99830440000005,62.99830440000005,62.99830440000005,62.99830440000005,62.99830440000005,,005,P015,2025_Feb_28_1826,ConditionRich,2021.2.3,59.93317451090929,
28.75,32.0,41,0.0,Stimuli/Blank.png,0,0.0,0.0,0,14,14,14,,,,,,,,,,,,,28.759604399998352,0.009604399998352164,None,63.74899709999954,63.74899709999954,63.74899709999954,63.74899709999954,63.74899709999954,63.74899709999954,63.74899709999954,63.74899709999954,63.74899709999954,63.74899709999954,,005,P015,2025_Feb_28_1826,ConditionRich,2021.2.3,59.93317451090929,
32.0,32.75,5,0.75,Stimuli/P015/sun_ajgmxbrxdpmsaext.jpg,0,0.0,0.0,0,15,15,15,,,,,,,,,,,,,32.01264589999846,0.012645899998460663,None,67.01854549999916,67.01854549999916,67.01854549999916,67.01854549999916,67.01854549999916,67.01854549999916,67.01854549999916,67.01854549999916,67.01854549999916,67.01854549999916,,005,P015,2025_Feb_28_1826,ConditionRich,2021.2.3,59.93317451090929,
32.75,36.0,41,0.0,Stimuli/Blank.png,0,0.0,0.0,0,16,16,16,,,,,,,,,,,,,32.77823239999998,0.028232399999978952,None,67.76919160000034,67.76919160000034,67.76919160000034,67.76919160000034,67.76919160000034,67.76919160000034,67.76919160000034,67.76919160000034,67.76919160000034,67.76919160000034,,005,P015,2025_Feb_28_1826,ConditionRich,2021.2.3,59.93317451090929,
36.0,36.75,9,0.75,Stimuli/P015/sun_bbdgftzhpkaklkll.jpg,0,0.0,0.0,0,17,17,17,,,,,,,,,,,,,36.0143207000001,0.01432070000009844,None,71.00539650000064,71.00539650000064,71.00539650000064,71.00539650000064,71.00539650000064,71.00539650000064,71.00539650000064,71.00539650000064,71.00539650000064,71.00539650000064,,005,P015,2025_Feb_28_1826,ConditionRich,2021.2.3,59.93317451090929,
36.75,40.0,41,0.0,Stimuli/Blank.png,0,0.0,0.0,0,18,18,18,,,,,,,,,,,,,36.76599630000055,0.015996300000551855,None,71.75607830000081,71.75607830000081,71.75607830000081,71.75607830000081,71.75607830000081,71.75607830000081,71.75607830000081,71.75607830000081,71.75607830000081,71.75607830000081,,005,P015,2025_Feb_28_1826,ConditionRich,2021.2.3,59.93317451090929,
40.0,40.75,27,0.75,Stimuli/P015/things_girl_08s.jpg,0,0.0,0.0,0,19,19,19,,,,,,,,,,,,,40.00280289999864,0.0028028999986418057,None,75.00894730000073,75.00894730000073,75.00894730000073,75.00894730000073,75.00894730000073,75.00894730000073,75.00894730000073,75.00894730000073,75.00894730000073,75.00894730000073,,005,P015,2025_Feb_28_1826,ConditionRich,2021.2.3,59.93317451090929,
40.75,44.0,41,0.0,Stimuli/Blank.png,1,1.25,2.0,0,20,20,20,,,,,,,,,,,,,40.76843630000076,0.01843630000075791,1,75.75957019999987,75.75957019999987,75.75957019999987,75.75957019999987,75.75957019999987,75.75957019999987,76.99404950000098,77.74473410000064,75.75957019999987,75.75957019999987,1.6636985999975877,005,P015,2025_Feb_28_1826,ConditionRich,2021.2.3,59.93317451090929,
44.0,44.75,24,0.75,Stimuli/P015/things_bunkbed_08s.jpg,0,0.0,0.0,0,21,21,21,,,,,,,,,,,,,44.00477959999989,0.004779599999892525,None,78.99579939999967,78.99579939999967,78.99579939999967,78.99579939999967,78.99579939999967,78.99579939999967,78.99579939999967,78.99579939999967,78.99579939999967,78.99579939999967,,005,P015,2025_Feb_28_1826,ConditionRich,2021.2.3,59.93317451090929,
44.75,48.0,41,0.0,Stimuli/Blank.png,0,0.0,0.0,0,22,22,22,,,,,,,,,,,,,44.75779490000059,0.0077949000005901325,None,79.76315120000072,79.76315120000072,79.76315120000072,79.76315120000072,79.76315120000072,79.76315120000072,79.76315120000072,79.76315120000072,79.76315120000072,79.76315120000072,,005,P015,2025_Feb_28_1826,ConditionRich,2021.2.3,59.93317451090929,
48.0,48.75,11,0.75,Stimuli/P015/sun_bnwmcjuinqbdsbho.jpg,0,0.0,0.0,0,23,23,23,,,,,,,,,,,,,48.025040000000445,0.025040000000444707,None,83.01602160000039,83.01602160000039,83.01602160000039,83.01602160000039,83.01602160000039,83.01602160000039,83.01602160000039,83.01602160000039,83.01602160000039,83.01602160000039,,005,P015,2025_Feb_28_1826,ConditionRich,2021.2.3,59.93317451090929,
48.75,52.0,41,0.0,Stimuli/Blank.png,0,0.0,0.0,0,24,24,24,,,,,,,,,,,,,48.75910269999804,0.009102699998038588,None,83.75001229999907,83.75001229999907,83.75001229999907,83.75001229999907,83.75001229999907,83.75001229999907,83.75001229999907,83.75001229999907,83.75001229999907,83.75001229999907,,005,P015,2025_Feb_28_1826,ConditionRich,2021.2.3,59.93317451090929,
52.0,52.75,10,0.75,Stimuli/P015/sun_bfojpvrlsrtfyzio.jpg,0,0.0,0.0,0,25,25,25,,,,,,,,,,,,,52.01207829999839,0.01207829999839305,None,87.00289110000085,87.00289110000085,87.00289110000085,87.00289110000085,87.00289110000085,87.00289110000085,87.00289110000085,87.00289110000085,87.00289110000085,87.00289110000085,,005,P015,2025_Feb_28_1826,ConditionRich,2021.2.3,59.93317451090929,
52.75,56.0,41,0.0,Stimuli/Blank.png,0,0.0,0.0,0,26,26,26,,,,,,,,,,,,,52.76280469999983,0.012804699999833247,None,87.75355330000093,87.75355330000093,87.75355330000093,87.75355330000093,87.75355330000093,87.75355330000093,87.75355330000093,87.75355330000093,87.75355330000093,87.75355330000093,,005,P015,2025_Feb_28_1826,ConditionRich,2021.2.3,59.93317451090929,
56.0,56.75,33,0.75,Stimuli/P015/things_raccoon_08n.jpg,0,0.0,0.0,0,27,27,27,,,,,,,,,,,,,55.99877170000036,-0.0012282999996386934,None,90.98974539999836,90.98974539999836,90.98974539999836,90.98974539999836,90.98974539999836,90.98974539999836,90.98974539999836,90.98974539999836,90.98974539999836,90.98974539999836,,005,P015,2025_Feb_28_1826,ConditionRich,2021.2.3,59.93317451090929,
56.75,60.0,41,0.0,Stimuli/Blank.png,0,0.0,0.0,0,28,28,28,,,,,,,,,,,,,56.749114800000825,-0.0008851999991748016,None,91.74041600000055,91.74041600000055,91.74041600000055,91.74041600000055,91.74041600000055,91.74041600000055,91.74041600000055,91.74041600000055,91.74041600000055,91.74041600000055,,005,P015,2025_Feb_28_1826,ConditionRich,2021.2.3,59.93317451090929,
60.0,60.75,25,0.75,Stimuli/P015/things_deer_08s.jpg,0,0.0,0.0,0,29,29,29,,,,,,,,,,,,,60.00300689999858,0.0030068999985815026,None,95.00997609999831,95.00997609999831,95.00997609999831,95.00997609999831,95.00997609999831,95.00997609999831,95.00997609999831,95.00997609999831,95.00997609999831,95.00997609999831,,005,P015,2025_Feb_28_1826,ConditionRich,2021.2.3,59.93317451090929,
60.75,64.0,41,0.0,Stimuli/Blank.png,0,0.0,0.0,0,30,30,30,,,,,,,,,,,,,60.76905859999897,0.01905859999897075,None,95.76063680000152,95.76063680000152,95.76063680000152,95.76063680000152,95.76063680000152,95.76063680000152,95.76063680000152,95.76063680000152,95.76063680000152,95.76063680000152,,005,P015,2025_Feb_28_1826,ConditionRich,2021.2.3,59.93317451090929,
64.0,64.75,14,0.75,Stimuli/P015/sun_bpvmkbyglkraoxhh.jpg,0,0.0,0.0,0,31,31,31,,,,,,,,,,,,,64.00588150000112,0.005881500001123641,None,98.99684060000072,98.99684060000072,98.99684060000072,98.99684060000072,98.99684060000072,98.99684060000072,98.99684060000072,98.99684060000072,98.99684060000072,98.99684060000072,,005,P015,2025_Feb_28_1826,ConditionRich,2021.2.3,59.93317451090929,
64.75,68.0,41,0.0,Stimuli/Blank.png,0,0.0,0.0,0,32,32,32,,,,,,,,,,,,,64.75686209999913,0.006862099999125348,None,99.74752399999852,99.74752399999852,99.74752399999852,99.74752399999852,99.74752399999852,99.74752399999852,99.74752399999852,99.74752399999852,99.74752399999852,99.74752399999852,,005,P015,2025_Feb_28_1826,ConditionRich,2021.2.3,59.93317451090929,
68.0,68.75,22,0.75,Stimuli/P015/things_baby_08s.jpg,1,0.0,0.75,0,33,33,33,,,,,,,,,,,,,68.00883519999843,0.008835199998429744,1,103.00036159999945,103.00036159999945,103.00036159999945,103.00036159999945,103.00036159999945,103.00036159999945,103.00036159999945,103.73442200000136,103.00036159999945,103.00036159999945,0.5221337000002677,005,P015,2025_Feb_28_1826,ConditionRich,2021.2.3,59.93317451090929,
68.75,72.0,41,0.0,Stimuli/Blank.png,0,0.0,0.0,0,34,34,34,,,,,,,,,,,,,68.75950139999986,0.00950139999986277,None,103.75109059999886,103.75109059999886,103.75109059999886,103.75109059999886,103.75109059999886,103.75109059999886,103.75109059999886,103.75109059999886,103.75109059999886,103.75109059999886,,005,P015,2025_Feb_28_1826,ConditionRich,2021.2.3,59.93317451090929,
72.0,72.75,18,0.75,Stimuli/P015/sun_byavixgfuhzioilz.jpg,0,0.0,0.0,0,35,35,35,,,,,,,,,,,,,72.01238929999818,0.012389299998176284,None,107.0039308000014,107.0039308000014,107.0039308000014,107.0039308000014,107.0039308000014,107.0039308000014,107.0039308000014,107.0039308000014,107.0039308000014,107.0039308000014,,005,P015,2025_Feb_28_1826,ConditionRich,2021.2.3,59.93317451090929,
72.75,76.0,41,0.0,Stimuli/Blank.png,0,0.0,0.0,0,36,36,36,,,,,,,,,,,,,72.76385680000021,0.013856800000212388,None,107.75460150000072,107.75460150000072,107.75460150000072,107.75460150000072,107.75460150000072,107.75460150000072,107.75460150000072,107.75460150000072,107.75460150000072,107.75460150000072,,005,P015,2025_Feb_28_1826,ConditionRich,2021.2.3,59.93317451090929,
76.0,76.75,6,0.75,Stimuli/P015/sun_akecfasimgpbqcnt.jpg,0,0.0,0.0,0,37,37,37,,,,,,,,,,,,,76.00059219999821,0.000592199998209253,None,110.99078889999873,110.99078889999873,110.99078889999873,110.99078889999873,110.99078889999873,110.99078889999873,110.99078889999873,110.99078889999873,110.99078889999873,110.99078889999873,,005,P015,2025_Feb_28_1826,ConditionRich,2021.2.3,59.93317451090929,
76.75,80.0,41,0.0,Stimuli/Blank.png,0,0.0,0.0,0,38,38,38,,,,,,,,,,,,,76.74988310000117,-0.00011689999882946722,None,111.74144330000127,111.74144330000127,111.74144330000127,111.74144330000127,111.74144330000127,111.74144330000127,111.74144330000127,111.74144330000127,111.74144330000127,111.74144330000127,,005,P015,2025_Feb_28_1826,ConditionRich,2021.2.3,59.93317451090929,
80.0,80.75,4,0.75,Stimuli/P015/sun_aiwuqxdqzftsfyeg.jpg,0,0.0,0.0,0,39,39,39,,,,,,,,,,,,,80.00557169999956,0.005571699999563862,None,115.01101120000021,115.01101120000021,115.01101120000021,115.01101120000021,115.01101120000021,115.01101120000021,115.01101120000021,115.01101120000021,115.01101120000021,115.01101120000021,,005,P015,2025_Feb_28_1826,ConditionRich,2021.2.3,59.93317451090929,
80.75,84.0,41,0.0,Stimuli/Blank.png,0,0.0,0.0,0,40,40,40,,,,,,,,,,,,,80.770119599998,0.020119599997997284,None,115.76167160000114,115.76167160000114,115.76167160000114,115.76167160000114,115.76167160000114,115.76167160000114,115.76167160000114,115.76167160000114,115.76167160000114,115.76167160000114,,005,P015,2025_Feb_28_1826,ConditionRich,2021.2.3,59.93317451090929,
84.0,100.0,0,0.0,Stimuli/Blank.png,1,3.0,3.75,0,41,41,41,,,,,,,,,,,,,84.00645150000128,0.006451500001276145,1,118.99787500000093,118.99787500000093,118.99787500000093,118.99787500000093,118.99787500000093,118.99787500000093,121.9838794999996,122.73450769999909,118.99787500000093,118.99787500000093,3.4865753000012774,005,P015,2025_Feb_28_1826,ConditionRich,2021.2.3,59.93317451090929,
100.0,100.75,17,0.75,Stimuli/P015/sun_bxhbltvqnpaciuzt.jpg,0,0.0,0.0,0,42,42,42,,,,,,,,,,,,,100.00395279999793,0.003952799997932743,None,135.01204900000084,135.01204900000084,135.01204900000084,135.01204900000084,135.01204900000084,135.01204900000084,135.01204900000084,135.01204900000084,135.01204900000084,135.01204900000084,,005,P015,2025_Feb_28_1826,ConditionRich,2021.2.3,59.93317451090929,
100.75,104.0,41,0.0,Stimuli/Blank.png,0,0.0,0.0,0,43,43,43,,,,,,,,,,,,,100.77191149999999,0.021911499999987427,None,135.762705000001,135.762705000001,135.762705000001,135.762705000001,135.762705000001,135.762705000001,135.762705000001,135.762705000001,135.762705000001,135.762705000001,,005,P015,2025_Feb_28_1826,ConditionRich,2021.2.3,59.93317451090929,
104.0,104.75,30,0.75,Stimuli/P015/things_ottoman_08s.jpg,0,0.0,0.0,0,44,44,44,,,,,,,,,,,,,104.00762200000099,0.007622000000992557,None,138.99887820000004,138.99887820000004,138.99887820000004,138.99887820000004,138.99887820000004,138.99887820000004,138.99887820000004,138.99887820000004,138.99887820000004,138.99887820000004,,005,P015,2025_Feb_28_1826,ConditionRich,2021.2.3,59.93317451090929,
104.75,108.0,41,0.0,Stimuli/Blank.png,0,0.0,0.0,0,45,45,45,,,,,,,,,,,,,104.76118359999964,0.011183599999640137,None,139.76642070000162,139.76642070000162,139.76642070000162,139.76642070000162,139.76642070000162,139.76642070000162,139.76642070000162,139.76642070000162,139.76642070000162,139.76642070000162,,005,P015,2025_Feb_28_1826,ConditionRich,2021.2.3,59.93317451090929,
108.0,108.75,8,0.75,Stimuli/P015/sun_arldxotvfucvuudk.jpg,0,0.0,0.0,0,46,46,46,,,,,,,,,,,,,108.0281716999998,0.028171699999802513,None,143.0191206999989,143.0191206999989,143.0191206999989,143.0191206999989,143.0191206999989,143.0191206999989,143.0191206999989,143.0191206999989,143.0191206999989,143.0191206999989,,005,P015,2025_Feb_28_1826,ConditionRich,2021.2.3,59.93317451090929,
108.75,112.0,41,0.0,Stimuli/Blank.png,0,0.0,0.0,0,47,47,47,,,,,,,,,,,,,108.76217479999832,0.01217479999831994,None,143.75310890000037,143.75310890000037,143.75310890000037,143.75310890000037,143.75310890000037,143.75310890000037,143.75310890000037,143.75310890000037,143.75310890000037,143.75310890000037,,005,P015,2025_Feb_28_1826,ConditionRich,2021.2.3,59.93317451090929,
112.0,112.75,1,0.75,Stimuli/P015/sun_aacpzgqrortyhyss.jpg,0,0.0,0.0,0,48,48,48,,,,,,,,,,,,,112.0146077999998,0.014607799999794224,None,147.02269289999822,147.02269289999822,147.02269289999822,147.02269289999822,147.02269289999822,147.02269289999822,147.02269289999822,147.02269289999822,147.02269289999822,147.02269289999822,,005,P015,2025_Feb_28_1826,ConditionRich,2021.2.3,59.93317451090929,
112.75,116.0,41,0.0,Stimuli/Blank.png,0,0.0,0.0,0,49,49,49,,,,,,,,,,,,,112.78226979999818,0.032269799998175586,None,147.7733315000005,147.7733315000005,147.7733315000005,147.7733315000005,147.7733315000005,147.7733315000005,147.7733315000005,147.7733315000005,147.7733315000005,147.7733315000005,,005,P015,2025_Feb_28_1826,ConditionRich,2021.2.3,59.93317451090929,
116.0,116.75,34,0.75,Stimuli/P015/things_shower_cap_08s.jpg,0,0.0,0.0,0,50,50,50,,,,,,,,,,,,,116.00126839999939,0.0012683999993896578,None,150.9928566000017,150.9928566000017,150.9928566000017,150.9928566000017,150.9928566000017,150.9928566000017,150.9928566000017,150.9928566000017,150.9928566000017,150.9928566000017,,005,P015,2025_Feb_28_1826,ConditionRich,2021.2.3,59.93317451090929,
116.75,120.0,41,0.0,Stimuli/Blank.png,0,0.0,0.0,0,51,51,51,,,,,,,,,,,,,116.75258190000022,0.0025819000002229586,None,151.7435203999994,151.7435203999994,151.7435203999994,151.7435203999994,151.7435203999994,151.7435203999994,151.7435203999994,151.7435203999994,151.7435203999994,151.7435203999994,,005,P015,2025_Feb_28_1826,ConditionRich,2021.2.3,59.93317451090929,
120.0,120.75,20,0.75,Stimuli/P015/sun_bzmxulijbnmshodq.jpg,0,0.0,0.0,0,52,52,52,,,,,,,,,,,,,120.00519490000079,0.005194900000788039,None,154.9963917999994,154.9963917999994,154.9963917999994,154.9963917999994,154.9963917999994,154.9963917999994,154.9963917999994,154.9963917999994,154.9963917999994,154.9963917999994,,005,P015,2025_Feb_28_1826,ConditionRich,2021.2.3,59.93317451090929,
120.75,124.0,41,0.0,Stimuli/Blank.png,0,0.0,0.0,0,53,53,53,,,,,,,,,,,,,120.7565700999985,0.0065700999984983355,None,155.74706620000143,155.74706620000143,155.74706620000143,155.74706620000143,155.74706620000143,155.74706620000143,155.74706620000143,155.74706620000143,155.74706620000143,155.74706620000143,,005,P015,2025_Feb_28_1826,ConditionRich,2021.2.3,59.93317451090929,
124.0,124.75,35,0.75,Stimuli/P015/things_squid_08s.jpg,0,0.0,0.0,0,54,54,54,,,,,,,,,,,,,124.00895550000132,0.008955500001320615,None,158.99992740000016,158.99992740000016,158.99992740000016,158.99992740000016,158.99992740000016,158.99992740000016,158.99992740000016,158.99992740000016,158.99992740000016,158.99992740000016,,005,P015,2025_Feb_28_1826,ConditionRich,2021.2.3,59.93317451090929,
124.75,128.0,41,0.0,Stimuli/Blank.png,1,2.25,3.0,0,55,55,55,,,,,,,,,,,,,124.75925479999933,0.009254799999325769,1,159.75059279999914,159.75059279999914,159.75059279999914,159.75059279999914,159.75059279999914,159.75059279999914,161.98590680000052,162.7365733000006,159.75059279999914,159.75059279999914,2.842987500000163,005,P015,2025_Feb_28_1826,ConditionRich,2021.2.3,59.93317451090929,
128.0,128.75,38,0.75,Stimuli/P015/things_trumpet_08s.jpg,0,0.0,0.0,0,56,56,56,,,,,,,,,,,,,128.0118184999992,0.011818499999208143,None,163.02017479999995,163.02017479999995,163.02017479999995,163.02017479999995,163.02017479999995,163.02017479999995,163.02017479999995,163.02017479999995,163.02017479999995,163.02017479999995,,005,P015,2025_Feb_28_1826,ConditionRich,2021.2.3,59.93317451090929,
128.75,132.0,41,0.0,Stimuli/Blank.png,0,0.0,0.0,0,57,57,57,,,,,,,,,,,,,128.7792449999979,0.029244999997899868,None,163.77082410000003,163.77082410000003,163.77082410000003,163.77082410000003,163.77082410000003,163.77082410000003,163.77082410000003,163.77082410000003,163.77082410000003,163.77082410000003,,005,P015,2025_Feb_28_1826,ConditionRich,2021.2.3,59.93317451090929,
132.0,132.75,28,0.75,Stimuli/P015/things_latte_08s.jpg,1,0.0,0.75,0,58,58,58,,,,,,,,,,,,,132.01603579999937,0.016035799999372102,1,167.00702639999872,167.00702639999872,167.00702639999872,167.00702639999872,167.00702639999872,167.00702639999872,167.00702639999872,None,167.00702639999872,167.00702639999872,0.5495131999996374,005,P015,2025_Feb_28_1826,ConditionRich,2021.2.3,59.93317451090929,
132.75,136.0,41,0.0,Stimuli/Blank.png,0,0.0,0.0,0,59,59,59,,,,,,,,,,,,,132.74971730000107,-0.0002826999989338219,None,167.74104520000037,167.74104520000037,167.74104520000037,167.74104520000037,167.74104520000037,167.74104520000037,167.74104520000037,167.74104520000037,167.74104520000037,167.74104520000037,,005,P015,2025_Feb_28_1826,ConditionRich,2021.2.3,59.93317451090929,
136.0,136.75,21,0.75,Stimuli/P015/things_arch_08s.jpg,0,0.0,0.0,0,60,60,60,,,,,,,,,,,,,136.0030255999991,0.003025599999091355,None,170.99389549999978,170.99389549999978,170.99389549999978,170.99389549999978,170.99389549999978,170.99389549999978,170.99389549999978,170.99389549999978,170.99389549999978,170.99389549999978,,005,P015,2025_Feb_28_1826,ConditionRich,2021.2.3,59.93317451090929,
136.75,140.0,41,0.0,Stimuli/Blank.png,0,0.0,0.0,0,61,61,61,,,,,,,,,,,,,136.75390870000047,0.003908700000465615,None,171.76126099999965,171.76126099999965,171.76126099999965,171.76126099999965,171.76126099999965,171.76126099999965,171.76126099999965,171.76126099999965,171.76126099999965,171.76126099999965,,005,P015,2025_Feb_28_1826,ConditionRich,2021.2.3,59.93317451090929,
140.0,140.75,3,0.75,Stimuli/P015/sun_aiogwnavezqxkzfg.jpg,0,0.0,0.0,0,62,62,62,,,,,,,,,,,,,140.02266379999855,0.02266379999855417,None,175.01410540000143,175.01410540000143,175.01410540000143,175.01410540000143,175.01410540000143,175.01410540000143,175.01410540000143,175.01410540000143,175.01410540000143,175.01410540000143,,005,P015,2025_Feb_28_1826,ConditionRich,2021.2.3,59.93317451090929,
140.75,144.0,41,0.0,Stimuli/Blank.png,0,0.0,0.0,0,63,63,63,,,,,,,,,,,,,140.7570897000005,0.007089700000506127,None,175.74812999999995,175.74812999999995,175.74812999999995,175.74812999999995,175.74812999999995,175.74812999999995,175.74812999999995,175.74812999999995,175.74812999999995,175.74812999999995,,005,P015,2025_Feb_28_1826,ConditionRich,2021.2.3,59.93317451090929,
144.0,144.75,32,0.75,Stimuli/P015/things_pheasant_08s.jpg,0,0.0,0.0,0,64,64,64,,,,,,,,,,,,,144.0104007000009,0.010400700000900542,None,179.00096320000011,179.00096320000011,179.00096320000011,179.00096320000011,179.00096320000011,179.00096320000011,179.00096320000011,179.00096320000011,179.00096320000011,179.00096320000011,,005,P015,2025_Feb_28_1826,ConditionRich,2021.2.3,59.93317451090929,
144.75,148.0,41,0.0,Stimuli/Blank.png,1,0.25,1.0,0,65,65,65,,,,,,,,,,,,,144.76083300000028,0.010833000000275206,1,179.75163320000138,179.75163320000138,179.75163320000138,179.75163320000138,179.75163320000138,179.75163320000138,179.98622940000132,180.73594650000086,179.75163320000138,179.75163320000138,0.640752600000269,005,P015,2025_Feb_28_1826,ConditionRich,2021.2.3,59.93317451090929,
148.0,148.75,29,0.75,Stimuli/P015/things_mouse1_08s.jpg,0,0.0,0.0,0,66,66,66,,,,,,,,,,,,,148.01371129999825,0.01371129999824916,None,183.00451410000096,183.00451410000096,183.00451410000096,183.00451410000096,183.00451410000096,183.00451410000096,183.00451410000096,183.00451410000096,183.00451410000096,183.00451410000096,,005,P015,2025_Feb_28_1826,ConditionRich,2021.2.3,59.93317451090929,
148.75,152.0,41,0.0,Stimuli/Blank.png,0,0.0,0.0,0,67,67,67,,,,,,,,,,,,,148.76375159999952,0.013751599999523023,None,183.75517369999943,183.75517369999943,183.75517369999943,183.75517369999943,183.75517369999943,183.75517369999943,183.75517369999943,183.75517369999943,183.75517369999943,183.75517369999943,,005,P015,2025_Feb_28_1826,ConditionRich,2021.2.3,59.93317451090929,
152.0,152.75,31,0.75,Stimuli/P015/things_outlet_08s.jpg,0,0.0,0.0,0,68,68,68,,,,,,,,,,,,,152.00022289999833,0.00022289999833446927,None,186.9913787000005,186.9913787000005,186.9913787000005,186.9913787000005,186.9913787000005,186.9913787000005,186.9913787000005,186.9913787000005,186.9913787000005,186.9913787000005,,005,P015,2025_Feb_28_1826,ConditionRich,2021.2.3,59.93317451090929,
152.75,156.0,41,0.0,Stimuli/Blank.png,0,0.0,0.0,0,69,69,69,,,,,,,,,,,,,152.7533928999983,0.0033928999982890673,None,187.75872510000045,187.75872510000045,187.75872510000045,187.75872510000045,187.75872510000045,187.75872510000045,187.75872510000045,187.75872510000045,187.75872510000045,187.75872510000045,,005,P015,2025_Feb_28_1826,ConditionRich,2021.2.3,59.93317451090929,
156.0,156.75,36,0.75,Stimuli/P015/things_streetlight_08s.jpg,0,0.0,0.0,0,70,70,70,,,,,,,,,,,,,156.02000169999883,0.02000169999882928,None,191.01159059999918,191.01159059999918,191.01159059999918,191.01159059999918,191.01159059999918,191.01159059999918,191.01159059999918,191.01159059999918,191.01159059999918,191.01159059999918,,005,P015,2025_Feb_28_1826,ConditionRich,2021.2.3,59.93317451090929,
156.75,160.0,41,0.0,Stimuli/Blank.png,0,0.0,0.0,0,71,71,71,,,,,,,,,,,,,156.75443649999943,0.004436499999428634,None,191.74558180000167,191.74558180000167,191.74558180000167,191.74558180000167,191.74558180000167,191.74558180000167,191.74558180000167,191.74558180000167,191.74558180000167,191.74558180000167,,005,P015,2025_Feb_28_1826,ConditionRich,2021.2.3,59.93317451090929,
160.0,160.75,13,0.75,Stimuli/P015/sun_bphvjnowixlryxot.jpg,0,0.0,0.0,0,72,72,72,,,,,,,,,,,,,160.0073368000012,0.007336800001212396,None,195.01520080000046,195.01520080000046,195.01520080000046,195.01520080000046,195.01520080000046,195.01520080000046,195.01520080000046,195.01520080000046,195.01520080000046,195.01520080000046,,005,P015,2025_Feb_28_1826,ConditionRich,2021.2.3,59.93317451090929,
160.75,164.0,41,0.0,Stimuli/Blank.png,1,0.25,1.0,0,73,73,73,,,,,,,,,,,,,160.77424320000137,0.02424320000136504,1,195.7657924999985,195.7657924999985,195.7657924999985,195.7657924999985,195.7657924999985,195.7657924999985,195.99939559999984,196.75001189999966,195.7657924999985,195.7657924999985,0.7936305000002903,005,P015,2025_Feb_28_1826,ConditionRich,2021.2.3,59.93317451090929,
164.0,164.75,40,0.75,Stimuli/P015/things_woman_08s.jpg,0,0.0,0.0,0,74,74,74,,,,,,,,,,,,,164.0103057999986,0.010305799998604925,None,199.0019941999999,199.0019941999999,199.0019941999999,199.0019941999999,199.0019941999999,199.0019941999999,199.0019941999999,199.0019941999999,199.0019941999999,199.0019941999999,,005,P015,2025_Feb_28_1826,ConditionRich,2021.2.3,59.93317451090929,
164.75,168.0,41,0.0,Stimuli/Blank.png,0,0.0,0.0,0,75,75,75,,,,,,,,,,,,,164.7621978999996,0.012197899999591755,None,199.75265950000176,199.75265950000176,199.75265950000176,199.75265950000176,199.75265950000176,199.75265950000176,199.75265950000176,199.75265950000176,199.75265950000176,199.75265950000176,,005,P015,2025_Feb_28_1826,ConditionRich,2021.2.3,59.93317451090929,
168.0,168.75,2,0.75,Stimuli/P015/sun_agzfkftryitnqpxc.jpg,0,0.0,0.0,0,76,76,76,,,,,,,,,,,,,168.0170384999983,0.01703849999830709,None,203.02222260000053,203.02222260000053,203.02222260000053,203.02222260000053,203.02222260000053,203.02222260000053,203.02222260000053,203.02222260000053,203.02222260000053,203.02222260000053,,005,P015,2025_Feb_28_1826,ConditionRich,2021.2.3,59.93317451090929,
168.75,172.0,41,0.0,Stimuli/Blank.png,0,0.0,0.0,0,77,77,77,,,,,,,,,,,,,168.76460149999912,0.01460149999911664,None,203.7562050000015,203.7562050000015,203.7562050000015,203.7562050000015,203.7562050000015,203.7562050000015,203.7562050000015,203.7562050000015,203.7562050000015,203.7562050000015,,005,P015,2025_Feb_28_1826,ConditionRich,2021.2.3,59.93317451090929,
172.0,172.75,15,0.75,Stimuli/P015/sun_bvfcijehgdsndfbg.jpg,0,0.0,0.0,0,78,78,78,,,,,,,,,,,,,172.00137929999983,0.0013792999998258892,None,206.99237459999858,206.99237459999858,206.99237459999858,206.99237459999858,206.99237459999858,206.99237459999858,206.99237459999858,206.99237459999858,206.99237459999858,206.99237459999858,,005,P015,2025_Feb_28_1826,ConditionRich,2021.2.3,59.93317451090929,
172.75,176.0,41,0.0,Stimuli/Blank.png,0,0.0,0.0,0,79,79,79,,,,,,,,,,,,,172.75138040000093,0.0013804000009258743,None,207.7430714000002,207.7430714000002,207.7430714000002,207.7430714000002,207.7430714000002,207.7430714000002,207.7430714000002,207.7430714000002,207.7430714000002,207.7430714000002,,005,P015,2025_Feb_28_1826,ConditionRich,2021.2.3,59.93317451090929,
176.0,176.75,7,0.75,Stimuli/P015/sun_aqdfrmtvewaapuqs.jpg,0,0.0,0.0,0,80,80,80,,,,,,,,,,,,,176.00453339999876,0.004533399998763343,None,210.99595110000155,210.99595110000155,210.99595110000155,210.99595110000155,210.99595110000155,210.99595110000155,210.99595110000155,210.99595110000155,210.99595110000155,210.99595110000155,,005,P015,2025_Feb_28_1826,ConditionRich,2021.2.3,59.93317451090929,
176.75,180.0,41,0.0,Stimuli/Blank.png,1,2.25,3.0,0,81,81,81,,,,,,,,,,,,,176.75517499999842,0.005174999998416752,1,211.74667979999867,211.74667979999867,211.74667979999867,211.74667979999867,211.74667979999867,211.74667979999867,213.98203009999997,214.73258129999886,211.74667979999867,211.74667979999867,2.8568297999991046,005,P015,2025_Feb_28_1826,ConditionRich,2021.2.3,59.93317451090929,
180.0,196.0,0,0.0,Stimuli/Blank.png,1,13.0,13.75,0,82,82,82,,,,,,,,,,,,,180.00937479999993,0.009374799999932293,1,214.9994915999996,214.9994915999996,214.9994915999996,214.9994915999996,214.9994915999996,214.9994915999996,227.9943286000016,228.74503209999966,214.9994915999996,214.9994915999996,13.690971200001513,005,P015,2025_Feb_28_1826,ConditionRich,2021.2.3,59.93317451090929,
196.0,196.75,5,0.75,Stimuli/P015/sun_ajgmxbrxdpmsaext.jpg,0,0.0,0.0,0,83,83,83,,,,,,,,,,,,,196.00785180000094,0.007851800000935327,None,231.01366540000163,231.01366540000163,231.01366540000163,231.01366540000163,231.01366540000163,231.01366540000163,231.01366540000163,231.01366540000163,231.01366540000163,231.01366540000163,,005,P015,2025_Feb_28_1826,ConditionRich,2021.2.3,59.93317451090929,
196.75,200.0,41,0.0,Stimuli/Blank.png,0,0.0,0.0,0,84,84,84,,,,,,,,,,,,,196.7730373000013,0.023037300001305994,None,231.76433410000027,231.76433410000027,231.76433410000027,231.76433410000027,231.76433410000027,231.76433410000027,231.76433410000027,231.76433410000027,231.76433410000027,231.76433410000027,,005,P015,2025_Feb_28_1826,ConditionRich,2021.2.3,59.93317451090929,
200.0,200.75,19,0.75,Stimuli/P015/sun_bzhwvgrzvttqoexa.jpg,0,0.0,0.0,0,85,85,85,,,,,,,,,,,,,200.00962000000072,0.00962000000072294,None,235.0005142000009,235.0005142000009,235.0005142000009,235.0005142000009,235.0005142000009,235.0005142000009,235.0005142000009,235.0005142000009,235.0005142000009,235.0005142000009,,005,P015,2025_Feb_28_1826,ConditionRich,2021.2.3,59.93317451090929,
200.75,204.0,41,0.0,Stimuli/Blank.png,0,0.0,0.0,0,86,86,86,,,,,,,,,,,,,200.75972700000057,0.009727000000566477,None,235.75118350000048,235.75118350000048,235.75118350000048,235.75118350000048,235.75118350000048,235.75118350000048,235.75118350000048,235.75118350000048,235.75118350000048,235.75118350000048,,005,P015,2025_Feb_28_1826,ConditionRich,2021.2.3,59.93317451090929,
204.0,204.75,11,0.75,Stimuli/P015/sun_bnwmcjuinqbdsbho.jpg,0,0.0,0.0,0,87,87,87,,,,,,,,,,,,,204.0146941999992,0.014694199999212287,None,239.0207494999995,239.0207494999995,239.0207494999995,239.0207494999995,239.0207494999995,239.0207494999995,239.0207494999995,239.0207494999995,239.0207494999995,239.0207494999995,,005,P015,2025_Feb_28_1826,ConditionRich,2021.2.3,59.93317451090929,
204.75,208.0,41,0.0,Stimuli/Blank.png,0,0.0,0.0,0,88,88,88,,,,,,,,,,,,,204.78033470000082,0.030334700000821613,None,239.7713995999984,239.7713995999984,239.7713995999984,239.7713995999984,239.7713995999984,239.7713995999984,239.7713995999984,239.7713995999984,239.7713995999984,239.7713995999984,,005,P015,2025_Feb_28_1826,ConditionRich,2021.2.3,59.93317451090929,
208.0,208.75,23,0.75,Stimuli/P015/things_boy_08s.jpg,0,0.0,0.0,0,89,89,89,,,,,,,,,,,,,208.000082999999,8.299999899463728e-05,None,242.99092810000002,242.99092810000002,242.99092810000002,242.99092810000002,242.99092810000002,242.99092810000002,242.99092810000002,242.99092810000002,242.99092810000002,242.99092810000002,,005,P015,2025_Feb_28_1826,ConditionRich,2021.2.3,59.93317451090929,
208.75,212.0,41,0.0,Stimuli/Blank.png,1,2.25,3.0,0,90,90,90,,,,,,,,,,,,,208.74995900000067,-4.099999932805076e-05,1,243.74159579999832,243.74159579999832,243.74159579999832,243.74159579999832,243.74159579999832,243.74159579999832,245.97687510000105,246.72755219999817,243.74159579999832,243.74159579999832,2.6769024999994144,005,P015,2025_Feb_28_1826,ConditionRich,2021.2.3,59.93317451090929,
212.0,212.75,13,0.75,Stimuli/P015/sun_bphvjnowixlryxot.jpg,0,0.0,0.0,0,91,91,91,,,,,,,,,,,,,212.00285069999882,0.002850699998816708,None,246.9944620999995,246.9944620999995,246.9944620999995,246.9944620999995,246.9944620999995,246.9944620999995,246.9944620999995,246.9944620999995,246.9944620999995,246.9944620999995,,005,P015,2025_Feb_28_1826,ConditionRich,2021.2.3,59.93317451090929,
212.75,216.0,41,0.0,Stimuli/Blank.png,0,0.0,0.0,0,92,92,92,,,,,,,,,,,,,212.75655410000036,0.006554100000357721,None,247.76183220000166,247.76183220000166,247.76183220000166,247.76183220000166,247.76183220000166,247.76183220000166,247.76183220000166,247.76183220000166,247.76183220000166,247.76183220000166,,005,P015,2025_Feb_28_1826,ConditionRich,2021.2.3,59.93317451090929,
216.0,216.75,22,0.75,Stimuli/P015/things_baby_08s.jpg,0,0.0,0.0,0,93,93,93,,,,,,,,,,,,,216.02314789999946,0.023147899999457877,None,251.01468569999997,251.01468569999997,251.01468569999997,251.01468569999997,251.01468569999997,251.01468569999997,251.01468569999997,251.01468569999997,251.01468569999997,251.01468569999997,,005,P015,2025_Feb_28_1826,ConditionRich,2021.2.3,59.93317451090929,
216.75,220.0,41,0.0,Stimuli/Blank.png,0,0.0,0.0,0,94,94,94,,,,,,,,,,,,,216.757708000001,0.007708000001002802,None,251.74867900000027,251.74867900000027,251.74867900000027,251.74867900000027,251.74867900000027,251.74867900000027,251.74867900000027,251.74867900000027,251.74867900000027,251.74867900000027,,005,P015,2025_Feb_28_1826,ConditionRich,2021.2.3,59.93317451090929,
220.0,220.75,30,0.75,Stimuli/P015/things_ottoman_08s.jpg,0,0.0,0.0,0,95,95,95,,,,,,,,,,,,,220.00992119999864,0.009921199998643715,None,255.0015467000012,255.0015467000012,255.0015467000012,255.0015467000012,255.0015467000012,255.0015467000012,255.0015467000012,255.0015467000012,255.0015467000012,255.0015467000012,,005,P015,2025_Feb_28_1826,ConditionRich,2021.2.3,59.93317451090929,
220.75,224.0,41,0.0,Stimuli/Blank.png,1,0.25,1.0,0,96,96,96,,,,,,,,,,,,,220.7626511999988,0.012651199998799711,1,255.7689008999987,255.7689008999987,255.7689008999987,255.7689008999987,255.7689008999987,255.7689008999987,256.00248959999954,256.7531347000004,255.7689008999987,255.7689008999987,0.8697049000002153,005,P015,2025_Feb_28_1826,ConditionRich,2021.2.3,59.93317451090929,
224.0,224.75,39,0.75,Stimuli/P015/things_window_08s.jpg,0,0.0,0.0,0,97,97,97,,,,,,,,,,,,,224.03022480000072,0.030224800000723917,None,259.038498599999,259.038498599999,259.038498599999,259.038498599999,259.038498599999,259.038498599999,259.038498599999,259.038498599999,259.038498599999,259.038498599999,,005,P015,2025_Feb_28_1826,ConditionRich,2021.2.3,59.93317451090929,
224.75,228.0,41,0.0,Stimuli/Blank.png,0,0.0,0.0,0,98,98,98,,,,,,,,,,,,,224.78173369999786,0.03173369999785791,None,259.77245050000056,259.77245050000056,259.77245050000056,259.77245050000056,259.77245050000056,259.77245050000056,259.77245050000056,259.77245050000056,259.77245050000056,259.77245050000056,,005,P015,2025_Feb_28_1826,ConditionRich,2021.2.3,59.93317451090929,
228.0,228.75,21,0.75,Stimuli/P015/things_arch_08s.jpg,0,0.0,0.0,0,99,99,99,,,,,,,,,,,,,228.00240829999893,0.0024082999989332166,None,263.0086435000012,263.0086435000012,263.0086435000012,263.0086435000012,263.0086435000012,263.0086435000012,263.0086435000012,263.0086435000012,263.0086435000012,263.0086435000012,,005,P015,2025_Feb_28_1826,ConditionRich,2021.2.3,59.93317451090929,
228.75,232.0,41,0.0,Stimuli/Blank.png,0,0.0,0.0,0,100,100,100,,,,,,,,,,,,,228.76762589999998,0.01762589999998454,None,263.7593099000005,263.7593099000005,263.7593099000005,263.7593099000005,263.7593099000005,263.7593099000005,263.7593099000005,263.7593099000005,263.7593099000005,263.7593099000005,,005,P015,2025_Feb_28_1826,ConditionRich,2021.2.3,59.93317451090929,
232.0,232.75,24,0.75,Stimuli/P015/things_bunkbed_08s.jpg,0,0.0,0.0,0,101,101,101,,,,,,,,,,,,,232.0050401999979,0.005040199997893069,None,266.9955192000016,266.9955192000016,266.9955192000016,266.9955192000016,266.9955192000016,266.9955192000016,266.9955192000016,266.9955192000016,266.9955192000016,266.9955192000016,,005,P015,2025_Feb_28_1826,ConditionRich,2021.2.3,59.93317451090929,
232.75,236.0,41,0.0,Stimuli/Blank.png,1,2.25,3.0,0,102,102,102,,,,,,,,,,,,,232.7560870999987,0.006087099998694612,1,267.7461661999987,267.7461661999987,267.7461661999987,267.7461661999987,267.7461661999987,267.7461661999987,269.9814735,270.7321658000001,267.7461661999987,267.7461661999987,2.6984330999985104,005,P015,2025_Feb_28_1826,ConditionRich,2021.2.3,59.93317451090929,
236.0,236.75,15,0.75,Stimuli/P015/sun_bvfcijehgdsndfbg.jpg,0,0.0,0.0,0,103,103,103,,,,,,,,,,,,,236.00978079999913,0.009780799999134615,None,271.01572509999824,271.01572509999824,271.01572509999824,271.01572509999824,271.01572509999824,271.01572509999824,271.01572509999824,271.01572509999824,271.01572509999824,271.01572509999824,,005,P015,2025_Feb_28_1826,ConditionRich,2021.2.3,59.93317451090929,
236.75,240.0,41,0.0,Stimuli/Blank.png,0,0.0,0.0,0,104,104,104,,,,,,,,,,,,,236.77534599999854,0.025345999998535262,None,271.76638639999874,271.76638639999874,271.76638639999874,271.76638639999874,271.76638639999874,271.76638639999874,271.76638639999874,271.76638639999874,271.76638639999874,271.76638639999874,,005,P015,2025_Feb_28_1826,ConditionRich,2021.2.3,59.93317451090929,
240.0,240.75,4,0.75,Stimuli/P015/sun_aiwuqxdqzftsfyeg.jpg,0,0.0,0.0,0,105,105,105,,,,,,,,,,,,,240.01169730000038,0.011697300000378164,None,275.0192720999985,275.0192720999985,275.0192720999985,275.0192720999985,275.0192720999985,275.0192720999985,275.0192720999985,275.0192720999985,275.0192720999985,275.0192720999985,,005,P015,2025_Feb_28_1826,ConditionRich,2021.2.3,59.93317451090929,
240.75,244.0,41,0.0,Stimuli/Blank.png,1,2.25,3.0,0,106,106,106,,,,,,,,,,,,,240.77904339999805,0.02904339999804506,1,275.7699361999985,275.7699361999985,275.7699361999985,275.7699361999985,275.7699361999985,275.7699361999985,278.0052262999998,278.7559015000006,275.7699361999985,275.7699361999985,2.718623299999308,005,P015,2025_Feb_28_1826,ConditionRich,2021.2.3,59.93317451090929,
244.0,244.75,27,0.75,Stimuli/P015/things_girl_08s.jpg,0,0.0,0.0,0,107,107,107,,,,,,,,,,,,,244.01455910000004,0.014559100000042235,None,279.00612529999853,279.00612529999853,279.00612529999853,279.00612529999853,279.00612529999853,279.00612529999853,279.00612529999853,279.00612529999853,279.00612529999853,279.00612529999853,,005,P015,2025_Feb_28_1826,ConditionRich,2021.2.3,59.93317451090929,
244.75,248.0,41,0.0,Stimuli/Blank.png,0,0.0,0.0,0,108,108,108,,,,,,,,,,,,,244.76574899999832,0.015748999998322688,None,279.7567654000013,279.7567654000013,279.7567654000013,279.7567654000013,279.7567654000013,279.7567654000013,279.7567654000013,279.7567654000013,279.7567654000013,279.7567654000013,,005,P015,2025_Feb_28_1826,ConditionRich,2021.2.3,59.93317451090929,
248.0,248.75,12,0.75,Stimuli/P015/sun_boffixsnbbloarty.jpg,0,0.0,0.0,0,109,109,109,,,,,,,,,,,,,248.0020528999994,0.0020528999993985053,None,283.00968009999997,283.00968009999997,283.00968009999997,283.00968009999997,283.00968009999997,283.00968009999997,283.00968009999997,283.00968009999997,283.00968009999997,283.00968009999997,,005,P015,2025_Feb_28_1826,ConditionRich,2021.2.3,59.93317451090929,
248.75,252.0,41,0.0,Stimuli/Blank.png,0,0.0,0.0,0,110,110,110,,,,,,,,,,,,,248.7702376999987,0.020237699998688186,None,283.7603592999985,283.7603592999985,283.7603592999985,283.7603592999985,283.7603592999985,283.7603592999985,283.7603592999985,283.7603592999985,283.7603592999985,283.7603592999985,,005,P015,2025_Feb_28_1826,ConditionRich,2021.2.3,59.93317451090929,
252.0,252.75,40,0.75,Stimuli/P015/things_woman_08s.jpg,0,0.0,0.0,0,111,111,111,,,,,,,,,,,,,252.00511349999942,0.0051134999994246755,None,286.9965338000002,286.9965338000002,286.9965338000002,286.9965338000002,286.9965338000002,286.9965338000002,286.9965338000002,286.9965338000002,286.9965338000002,286.9965338000002,,005,P015,2025_Feb_28_1826,ConditionRich,2021.2.3,59.93317451090929,
252.75,256.0,41,0.0,Stimuli/Blank.png,0,0.0,0.0,0,112,112,112,,,,,,,,,,,,,252.75552640000024,0.005526400000235299,None,287.747187500001,287.747187500001,287.747187500001,287.747187500001,287.747187500001,287.747187500001,287.747187500001,287.747187500001,287.747187500001,287.747187500001,,005,P015,2025_Feb_28_1826,ConditionRich,2021.2.3,59.93317451090929,
256.0,256.75,8,0.75,Stimuli/P015/sun_arldxotvfucvuudk.jpg,0,0.0,0.0,0,113,113,113,,,,,,,,,,,,,256.00988040000084,0.009880400000838563,None,291.0167866999982,291.0167866999982,291.0167866999982,291.0167866999982,291.0167866999982,291.0167866999982,291.0167866999982,291.0167866999982,291.0167866999982,291.0167866999982,,005,P015,2025_Feb_28_1826,ConditionRich,2021.2.3,59.93317451090929,
256.75,260.0,41,0.0,Stimuli/Blank.png,0,0.0,0.0,0,114,114,114,,,,,,,,,,,,,256.77668020000056,0.026680200000555487,None,291.76741200000106,291.76741200000106,291.76741200000106,291.76741200000106,291.76741200000106,291.76741200000106,291.76741200000106,291.76741200000106,291.76741200000106,291.76741200000106,,005,P015,2025_Feb_28_1826,ConditionRich,2021.2.3,59.93317451090929,
260.0,260.75,36,0.75,Stimuli/P015/things_streetlight_08s.jpg,0,0.0,0.0,0,115,115,115,,,,,,,,,,,,,260.0131533999993,0.013153399999282556,None,295.0036304999994,295.0036304999994,295.0036304999994,295.0036304999994,295.0036304999994,295.0036304999994,295.0036304999994,295.0036304999994,295.0036304999994,295.0036304999994,,005,P015,2025_Feb_28_1826,ConditionRich,2021.2.3,59.93317451090929,
260.75,264.0,41,0.0,Stimuli/Blank.png,1,1.25,2.0,0,116,116,116,,,,,,,,,,,,,260.76266939999914,0.012669399999140296,1,295.7543422000017,295.7543422000017,295.7543422000017,295.7543422000017,295.7543422000017,295.7543422000017,296.988710900001,297.7393701000001,295.7543422000017,295.7543422000017,1.8791801999977906,005,P015,2025_Feb_28_1826,ConditionRich,2021.2.3,59.93317451090929,
264.0,264.75,25,0.75,Stimuli/P015/things_deer_08s.jpg,0,0.0,0.0,0,117,117,117,,,,,,,,,,,,,264.0174216000014,0.017421600001398474,None,299.02385960000174,299.02385960000174,299.02385960000174,299.02385960000174,299.02385960000174,299.02385960000174,299.02385960000174,299.02385960000174,299.02385960000174,299.02385960000174,,005,P015,2025_Feb_28_1826,ConditionRich,2021.2.3,59.93317451090929,
264.75,268.0,41,0.0,Stimuli/Blank.png,0,0.0,0.0,0,118,118,118,,,,,,,,,,,,,264.7661779000009,0.016177900000911904,None,299.7578156999989,299.7578156999989,299.7578156999989,299.7578156999989,299.7578156999989,299.7578156999989,299.7578156999989,299.7578156999989,299.7578156999989,299.7578156999989,,005,P015,2025_Feb_28_1826,ConditionRich,2021.2.3,59.93317451090929,
268.0,268.75,28,0.75,Stimuli/P015/things_latte_08s.jpg,0,0.0,0.0,0,119,119,119,,,,,,,,,,,,,268.0038964999985,0.003896499998518266,None,303.01079050000044,303.01079050000044,303.01079050000044,303.01079050000044,303.01079050000044,303.01079050000044,303.01079050000044,303.01079050000044,303.01079050000044,303.01079050000044,,005,P015,2025_Feb_28_1826,ConditionRich,2021.2.3,59.93317451090929,
268.75,272.0,41,0.0,Stimuli/Blank.png,0,0.0,0.0,0,120,120,120,,,,,,,,,,,,,268.76991199999975,0.01991199999974924,None,303.76136150000093,303.76136150000093,303.76136150000093,303.76136150000093,303.76136150000093,303.76136150000093,303.76136150000093,303.76136150000093,303.76136150000093,303.76136150000093,,005,P015,2025_Feb_28_1826,ConditionRich,2021.2.3,59.93317451090929,
272.0,272.75,1,0.75,Stimuli/P015/sun_aacpzgqrortyhyss.jpg,0,0.0,0.0,0,121,121,121,,,,,,,,,,,,,272.007016399999,0.007016399998974521,None,306.99756360000174,306.99756360000174,306.99756360000174,306.99756360000174,306.99756360000174,306.99756360000174,306.99756360000174,306.99756360000174,306.99756360000174,306.99756360000174,,005,P015,2025_Feb_28_1826,ConditionRich,2021.2.3,59.93317451090929,
272.75,276.0,41,0.0,Stimuli/Blank.png,0,0.0,0.0,0,122,122,122,,,,,,,,,,,,,272.75749689999793,0.007496899997931905,None,307.74821919999886,307.74821919999886,307.74821919999886,307.74821919999886,307.74821919999886,307.74821919999886,307.74821919999886,307.74821919999886,307.74821919999886,307.74821919999886,,005,P015,2025_Feb_28_1826,ConditionRich,2021.2.3,59.93317451090929,
276.0,292.0,0,0.0,Stimuli/Blank.png,1,6.0,6.75,0,123,123,123,,,,,,,,,,,,,276.0107691999983,0.01076919999832171,1,311.00111689999903,311.00111689999903,311.00111689999903,311.00111689999903,311.00111689999903,311.00111689999903,316.9897372000014,317.74040479999894,311.00111689999903,311.00111689999903,6.83351390000098,005,P015,2025_Feb_28_1826,ConditionRich,2021.2.3,59.93317451090929,
292.0,292.75,34,0.75,Stimuli/P015/things_shower_cap_08s.jpg,0,0.0,0.0,0,124,124,124,,,,,,,,,,,,,292.00788589999866,0.007885899998655077,None,326.99858889999814,326.99858889999814,326.99858889999814,326.99858889999814,326.99858889999814,326.99858889999814,326.99858889999814,326.99858889999814,326.99858889999814,326.99858889999814,,005,P015,2025_Feb_28_1826,ConditionRich,2021.2.3,59.93317451090929,
292.75,296.0,41,0.0,Stimuli/Blank.png,0,0.0,0.0,0,125,125,125,,,,,,,,,,,,,292.75823429999946,0.008234299999458017,None,327.7492525000016,327.7492525000016,327.7492525000016,327.7492525000016,327.7492525000016,327.7492525000016,327.7492525000016,327.7492525000016,327.7492525000016,327.7492525000016,,005,P015,2025_Feb_28_1826,ConditionRich,2021.2.3,59.93317451090929,
296.0,296.75,6,0.75,Stimuli/P015/sun_akecfasimgpbqcnt.jpg,0,0.0,0.0,0,126,126,126,,,,,,,,,,,,,296.0111517000005,0.011151700000482379,None,331.0021338000006,331.0021338000006,331.0021338000006,331.0021338000006,331.0021338000006,331.0021338000006,331.0021338000006,331.0021338000006,331.0021338000006,331.0021338000006,,005,P015,2025_Feb_28_1826,ConditionRich,2021.2.3,59.93317451090929,
296.75,300.0,41,0.0,Stimuli/Blank.png,0,0.0,0.0,0,127,127,127,,,,,,,,,,,,,296.7616999999991,0.011699999999109423,None,331.7527990000017,331.7527990000017,331.7527990000017,331.7527990000017,331.7527990000017,331.7527990000017,331.7527990000017,331.7527990000017,331.7527990000017,331.7527990000017,,005,P015,2025_Feb_28_1826,ConditionRich,2021.2.3,59.93317451090929,
300.0,300.75,7,0.75,Stimuli/P015/sun_aqdfrmtvewaapuqs.jpg,0,0.0,0.0,0,128,128,128,,,,,,,,,,,,,300.01447859999826,0.014478599998255959,None,335.005681300001,335.005681300001,335.005681300001,335.005681300001,335.005681300001,335.005681300001,335.005681300001,335.005681300001,335.005681300001,335.005681300001,,005,P015,2025_Feb_28_1826,ConditionRich,2021.2.3,59.93317451090929,
300.75,304.0,41,0.0,Stimuli/Blank.png,0,0.0,0.0,0,129,129,129,,,,,,,,,,,,,300.76519539999936,0.015195399999356596,None,335.7563494999995,335.7563494999995,335.7563494999995,335.7563494999995,335.7563494999995,335.7563494999995,335.7563494999995,335.7563494999995,335.7563494999995,335.7563494999995,,005,P015,2025_Feb_28_1826,ConditionRich,2021.2.3,59.93317451090929,
304.0,304.75,37,0.75,Stimuli/P015/things_swizzle_stick_08s.jpg,0,0.0,0.0,0,130,130,130,,,,,,,,,,,,,304.0012887999983,0.0012887999982922338,None,338.99253580000004,338.99253580000004,338.99253580000004,338.99253580000004,338.99253580000004,338.99253580000004,338.99253580000004,338.99253580000004,338.99253580000004,338.99253580000004,,005,P015,2025_Feb_28_1826,ConditionRich,2021.2.3,59.93317451090929,
304.75,308.0,41,0.0,Stimuli/Blank.png,0,0.0,0.0,0,131,131,131,,,,,,,,,,,,,304.7531257999981,0.0031257999980880413,None,339.7432125000014,339.7432125000014,339.7432125000014,339.7432125000014,339.7432125000014,339.7432125000014,339.7432125000014,339.7432125000014,339.7432125000014,339.7432125000014,,005,P015,2025_Feb_28_1826,ConditionRich,2021.2.3,59.93317451090929,
308.0,308.75,35,0.75,Stimuli/P015/things_squid_08s.jpg,1,0.0,0.75,0,132,132,132,,,,,,,,,,,,,308.00446870000087,0.00446870000087074,1,342.99607679999826,342.99607679999826,342.99607679999826,342.99607679999826,342.99607679999826,342.99607679999826,342.99607679999826,343.73005489999923,342.99607679999826,342.99607679999826,0.5216203999989375,005,P015,2025_Feb_28_1826,ConditionRich,2021.2.3,59.93317451090929,
308.75,312.0,41,0.0,Stimuli/Blank.png,0,0.0,0.0,0,133,133,133,,,,,,,,,,,,,308.75588570000036,0.005885700000362704,None,343.74674589999995,343.74674589999995,343.74674589999995,343.74674589999995,343.74674589999995,343.74674589999995,343.74674589999995,343.74674589999995,343.74674589999995,343.74674589999995,,005,P015,2025_Feb_28_1826,ConditionRich,2021.2.3,59.93317451090929,
312.0,312.75,17,0.75,Stimuli/P015/sun_bxhbltvqnpaciuzt.jpg,0,0.0,0.0,0,134,134,134,,,,,,,,,,,,,312.0093519000002,0.009351900000183377,None,346.99963019999996,346.99963019999996,346.99963019999996,346.99963019999996,346.99963019999996,346.99963019999996,346.99963019999996,346.99963019999996,346.99963019999996,346.99963019999996,,005,P015,2025_Feb_28_1826,ConditionRich,2021.2.3,59.93317451090929,
312.75,316.0,41,0.0,Stimuli/Blank.png,0,0.0,0.0,0,135,135,135,,,,,,,,,,,,,312.7602302000014,0.010230200001387857,None,347.75032849999843,347.75032849999843,347.75032849999843,347.75032849999843,347.75032849999843,347.75032849999843,347.75032849999843,347.75032849999843,347.75032849999843,347.75032849999843,,005,P015,2025_Feb_28_1826,ConditionRich,2021.2.3,59.93317451090929,
316.0,316.75,3,0.75,Stimuli/P015/sun_aiogwnavezqxkzfg.jpg,0,0.0,0.0,0,136,136,136,,,,,,,,,,,,,316.0138063000013,0.013806300001306226,None,351.01987050000025,351.01987050000025,351.01987050000025,351.01987050000025,351.01987050000025,351.01987050000025,351.01987050000025,351.01987050000025,351.01987050000025,351.01987050000025,,005,P015,2025_Feb_28_1826,ConditionRich,2021.2.3,59.93317451090929,
316.75,320.0,41,0.0,Stimuli/Blank.png,0,0.0,0.0,0,137,137,137,,,,,,,,,,,,,316.77890689999913,0.028906899999128655,None,351.77051700000084,351.77051700000084,351.77051700000084,351.77051700000084,351.77051700000084,351.77051700000084,351.77051700000084,351.77051700000084,351.77051700000084,351.77051700000084,,005,P015,2025_Feb_28_1826,ConditionRich,2021.2.3,59.93317451090929,
320.0,320.75,16,0.75,Stimuli/P015/sun_bwhuwxazfqwuqhik.jpg,0,0.0,0.0,0,138,138,138,,,,,,,,,,,,,320.01564829999916,0.015648299999156734,None,355.00671819999843,355.00671819999843,355.00671819999843,355.00671819999843,355.00671819999843,355.00671819999843,355.00671819999843,355.00671819999843,355.00671819999843,355.00671819999843,,005,P015,2025_Feb_28_1826,ConditionRich,2021.2.3,59.93317451090929,
320.75,324.0,41,0.0,Stimuli/Blank.png,0,0.0,0.0,0,139,139,139,,,,,,,,,,,,,320.749351399998,-0.0006486000020231586,None,355.7406910999998,355.7406910999998,355.7406910999998,355.7406910999998,355.7406910999998,355.7406910999998,355.7406910999998,355.7406910999998,355.7406910999998,355.7406910999998,,005,P015,2025_Feb_28_1826,ConditionRich,2021.2.3,59.93317451090929,
324.0,324.75,33,0.75,Stimuli/P015/things_raccoon_08n.jpg,1,0.0,0.75,0,140,140,140,,,,,,,,,,,,,324.0049359000004,0.004935900000418769,1,359.0102584999986,359.0102584999986,359.0102584999986,359.0102584999986,359.0102584999986,359.0102584999986,359.0102584999986,359.74423540000134,359.0102584999986,359.0102584999986,0.6093532000013511,005,P015,2025_Feb_28_1826,ConditionRich,2021.2.3,59.93317451090929,
324.75,328.0,41,0.0,Stimuli/Blank.png,0,0.0,0.0,0,141,141,141,,,,,,,,,,,,,324.7696738000013,0.019673800001328345,None,359.7609154999991,359.7609154999991,359.7609154999991,359.7609154999991,359.7609154999991,359.7609154999991,359.7609154999991,359.7609154999991,359.7609154999991,359.7609154999991,,005,P015,2025_Feb_28_1826,ConditionRich,2021.2.3,59.93317451090929,
328.0,328.75,9,0.75,Stimuli/P015/sun_bbdgftzhpkaklkll.jpg,0,0.0,0.0,0,142,142,142,,,,,,,,,,,,,328.0071151999982,0.007115199998224853,None,363.0138001000014,363.0138001000014,363.0138001000014,363.0138001000014,363.0138001000014,363.0138001000014,363.0138001000014,363.0138001000014,363.0138001000014,363.0138001000014,,005,P015,2025_Feb_28_1826,ConditionRich,2021.2.3,59.93317451090929,
328.75,332.0,41,0.0,Stimuli/Blank.png,1,2.25,3.0,0,143,143,143,,,,,,,,,,,,,328.7728853999979,0.022885399997903733,1,363.7644532000013,363.7644532000013,363.7644532000013,363.7644532000013,363.7644532000013,363.7644532000013,365.99980819999837,366.7505378999995,363.7644532000013,363.7644532000013,2.886384800000087,005,P015,2025_Feb_28_1826,ConditionRich,2021.2.3,59.93317451090929,
332.0,332.75,38,0.75,Stimuli/P015/things_trumpet_08s.jpg,0,0.0,0.0,0,144,144,144,,,,,,,,,,,,,332.0105930999998,0.010593099999823608,None,367.0173422000007,367.0173422000007,367.0173422000007,367.0173422000007,367.0173422000007,367.0173422000007,367.0173422000007,367.0173422000007,367.0173422000007,367.0173422000007,,005,P015,2025_Feb_28_1826,ConditionRich,2021.2.3,59.93317451090929,
332.75,336.0,41,0.0,Stimuli/Blank.png,0,0.0,0.0,0,145,145,145,,,,,,,,,,,,,332.7770089000005,0.02700890000051004,None,367.7680110000001,367.7680110000001,367.7680110000001,367.7680110000001,367.7680110000001,367.7680110000001,367.7680110000001,367.7680110000001,367.7680110000001,367.7680110000001,,005,P015,2025_Feb_28_1826,ConditionRich,2021.2.3,59.93317451090929,
336.0,336.75,2,0.75,Stimuli/P015/sun_agzfkftryitnqpxc.jpg,0,0.0,0.0,0,146,146,146,,,,,,,,,,,,,336.0130691999984,0.013069199998426484,None,371.0041998000015,371.0041998000015,371.0041998000015,371.0041998000015,371.0041998000015,371.0041998000015,371.0041998000015,371.0041998000015,371.0041998000015,371.0041998000015,,005,P015,2025_Feb_28_1826,ConditionRich,2021.2.3,59.93317451090929,
336.75,340.0,41,0.0,Stimuli/Blank.png,0,0.0,0.0,0,147,147,147,,,,,,,,,,,,,336.7641411000004,0.014141100000415463,None,371.75486739999906,371.75486739999906,371.75486739999906,371.75486739999906,371.75486739999906,371.75486739999906,371.75486739999906,371.75486739999906,371.75486739999906,371.75486739999906,,005,P015,2025_Feb_28_1826,ConditionRich,2021.2.3,59.93317451090929,
340.0,340.75,31,0.75,Stimuli/P015/things_outlet_08s.jpg,0,0.0,0.0,0,148,148,148,,,,,,,,,,,,,340.0015421999997,0.001542199999676086,None,375.00775090000025,375.00775090000025,375.00775090000025,375.00775090000025,375.00775090000025,375.00775090000025,375.00775090000025,375.00775090000025,375.00775090000025,375.00775090000025,,005,P015,2025_Feb_28_1826,ConditionRich,2021.2.3,59.93317451090929,
340.75,344.0,41,0.0,Stimuli/Blank.png,0,0.0,0.0,0,149,149,149,,,,,,,,,,,,,340.7681789999988,0.018178999998781364,None,375.7584629000012,375.7584629000012,375.7584629000012,375.7584629000012,375.7584629000012,375.7584629000012,375.7584629000012,375.7584629000012,375.7584629000012,375.7584629000012,,005,P015,2025_Feb_28_1826,ConditionRich,2021.2.3,59.93317451090929,
344.0,344.75,14,0.75,Stimuli/P015/sun_bpvmkbyglkraoxhh.jpg,0,0.0,0.0,0,150,150,150,,,,,,,,,,,,,344.00415749999956,0.004157499999564607,None,378.9946019000017,378.9946019000017,378.9946019000017,378.9946019000017,378.9946019000017,378.9946019000017,378.9946019000017,378.9946019000017,378.9946019000017,378.9946019000017,,005,P015,2025_Feb_28_1826,ConditionRich,2021.2.3,59.93317451090929,
344.75,348.0,41,0.0,Stimuli/Blank.png,1,0.25,1.0,0,151,151,151,,,,,,,,,,,,,344.75362849999874,0.0036284999987401534,1,379.74526010000045,379.74526010000045,379.74526010000045,379.74526010000045,379.74526010000045,379.74526010000045,379.9788664000007,380.7295286000008,379.74526010000045,379.74526010000045,1.0004903000008198,005,P015,2025_Feb_28_1826,ConditionRich,2021.2.3,59.93317451090929,
348.0,348.75,26,0.75,Stimuli/P015/things_face_08s.jpg,0,0.0,0.0,0,152,152,152,,,,,,,,,,,,,348.00746549999894,0.0074654999989434145,None,382.99814200000037,382.99814200000037,382.99814200000037,382.99814200000037,382.99814200000037,382.99814200000037,382.99814200000037,382.99814200000037,382.99814200000037,382.99814200000037,,005,P015,2025_Feb_28_1826,ConditionRich,2021.2.3,59.93317451090929,
348.75,352.0,41,0.0,Stimuli/Blank.png,0,0.0,0.0,0,153,153,153,,,,,,,,,,,,,348.75791540000137,0.007915400001365924,None,383.74880439999833,383.74880439999833,383.74880439999833,383.74880439999833,383.74880439999833,383.74880439999833,383.74880439999833,383.74880439999833,383.74880439999833,383.74880439999833,,005,P015,2025_Feb_28_1826,ConditionRich,2021.2.3,59.93317451090929,
352.0,352.75,29,0.75,Stimuli/P015/things_mouse1_08s.jpg,1,0.0,0.75,0,154,154,154,,,,,,,,,,,,,352.0128626000005,0.012862600000516977,1,387.01839779999864,387.01839779999864,387.01839779999864,387.01839779999864,387.01839779999864,387.01839779999864,387.01839779999864,387.75234569999884,387.01839779999864,387.01839779999864,0.6743782000012288,005,P015,2025_Feb_28_1826,ConditionRich,2021.2.3,59.93317451090929,
352.75,356.0,41,0.0,Stimuli/Blank.png,0,0.0,0.0,0,155,155,155,,,,,,,,,,,,,352.7774361999982,0.027436199998192023,None,387.7690251999993,387.7690251999993,387.7690251999993,387.7690251999993,387.7690251999993,387.7690251999993,387.7690251999993,387.7690251999993,387.7690251999993,387.7690251999993,,005,P015,2025_Feb_28_1826,ConditionRich,2021.2.3,59.93317451090929,
356.0,356.75,18,0.75,Stimuli/P015/sun_byavixgfuhzioilz.jpg,0,0.0,0.0,0,156,156,156,,,,,,,,,,,,,356.01370269999825,0.013702699998248136,None,391.00523279999834,391.00523279999834,391.00523279999834,391.00523279999834,391.00523279999834,391.00523279999834,391.00523279999834,391.00523279999834,391.00523279999834,391.00523279999834,,005,P015,2025_Feb_28_1826,ConditionRich,2021.2.3,59.93317451090929,
356.75,360.0,41,0.0,Stimuli/Blank.png,0,0.0,0.0,0,157,157,157,,,,,,,,,,,,,356.7641951000005,0.0141951000005065,None,391.7558934000008,391.7558934000008,391.7558934000008,391.7558934000008,391.7558934000008,391.7558934000008,391.7558934000008,391.7558934000008,391.7558934000008,391.7558934000008,,005,P015,2025_Feb_28_1826,ConditionRich,2021.2.3,59.93317451090929,
360.0,360.75,10,0.75,Stimuli/P015/sun_bfojpvrlsrtfyzio.jpg,0,0.0,0.0,0,158,158,158,,,,,,,,,,,,,360.0020306000006,0.002030600000580307,None,395.00877559999935,395.00877559999935,395.00877559999935,395.00877559999935,395.00877559999935,395.00877559999935,395.00877559999935,395.00877559999935,395.00877559999935,395.00877559999935,,005,P015,2025_Feb_28_1826,ConditionRich,2021.2.3,59.93317451090929,
360.75,364.0,41,0.0,Stimuli/Blank.png,0,0.0,0.0,0,159,159,159,,,,,,,,,,,,,360.76845390000017,0.018453900000167778,None,395.75943130000087,395.75943130000087,395.75943130000087,395.75943130000087,395.75943130000087,395.75943130000087,395.75943130000087,395.75943130000087,395.75943130000087,395.75943130000087,,005,P015,2025_Feb_28_1826,ConditionRich,2021.2.3,59.93317451090929,
364.0,364.75,20,0.75,Stimuli/P015/sun_bzmxulijbnmshodq.jpg,0,0.0,0.0,0,160,160,160,,,,,,,,,,,,,364.0048529000014,0.004852900001424132,None,398.99564810000084,398.99564810000084,398.99564810000084,398.99564810000084,398.99564810000084,398.99564810000084,398.99564810000084,398.99564810000084,398.99564810000084,398.99564810000084,,005,P015,2025_Feb_28_1826,ConditionRich,2021.2.3,59.93317451090929,
364.75,368.0,41,0.0,Stimuli/Blank.png,0,0.0,0.0,0,161,161,161,,,,,,,,,,,,,364.7568231000005,0.006823100000474369,None,399.7629854000006,399.7629854000006,399.7629854000006,399.7629854000006,399.7629854000006,399.7629854000006,399.7629854000006,399.7629854000006,399.7629854000006,399.7629854000006,,005,P015,2025_Feb_28_1826,ConditionRich,2021.2.3,59.93317451090929,
368.0,368.75,32,0.75,Stimuli/P015/things_pheasant_08s.jpg,0,0.0,0.0,0,162,162,162,,,,,,,,,,,,,368.0264642000002,0.02646420000019134,None,403.0325567,403.0325567,403.0325567,403.0325567,403.0325567,403.0325567,403.0325567,403.0325567,403.0325567,403.0325567,,005,P015,2025_Feb_28_1826,ConditionRich,2021.2.3,59.93317451090929,
368.75,372.0,41,0.0,Stimuli/Blank.png,0,0.0,0.0,0,163,163,163,,,,,,,,,,,,,368.7768871999979,0.026887199997872813,None,403.78321309999956,403.78321309999956,403.78321309999956,403.78321309999956,403.78321309999956,403.78321309999956,403.78321309999956,403.78321309999956,403.78321309999956,403.78321309999956,,005,P015,2025_Feb_28_1826,ConditionRich,2021.2.3,59.93317451090929,
372.0,388.0,0,0.0,Stimuli/Blank.png,1,1.0,1.75,0,164,164,164,,,,,,,,,,,,,372.0286167000013,0.028616700001293793,1,407.0194053999985,407.0194053999985,407.0194053999985,407.0194053999985,407.0194053999985,407.0194053999985,408.00358929999857,408.75426549999975,407.0194053999985,407.0194053999985,1.5164020999982313,005,P015,2025_Feb_28_1826,ConditionRich,2021.2.3,59.93317451090929,
