eventStartTime,eventEndTime,eventCond,imSize,imFile,responseEvent,fixRespStart,fixRespEnd,Events.thisRepN,Events.thisTrialN,Events.thisN,Events.thisIndex,Instructions.started,Instructions.stopped,participantReadyResponse.keys,participantReadyResponse.rt,participantReadyResponse.started,participantReadyResponse.stopped,startWaitforTrigger,triggerResponse.keys,triggerResponse.rt,triggerResponse.started,triggerResponse.stopped,globalTimer,actualStartTime,startTimingDiff,participantResponse.keys,participantResponse.started,participantResponse.stopped,image.started,image.stopped,fixationOutside.started,fixationOutside.stopped,fixationResponse.started,fixationResponse.stopped,fixationInside.started,fixationInside.stopped,participantResponse.rt,session,participant,date,expName,psychopyVersion,frameRate,
,,,,,,,,,,,,10.907275600002322,None,1,6.082615999999689,10.907275600002322,None,,,,,,,,,,,,,,,,,,,,,007,P015,2025_Feb_28_1846,ConditionRich,2021.2.3,59.94190430534635,
,,,,,,,,,,,,,,,,,,16.99554960000023,5,27.793136099997355,17.0098304000021,None,,,,,,,,,,,,,,,,007,P015,2025_Feb_28_1846,ConditionRich,2021.2.3,59.94190430534635,
0.0,4.0,0,0.0,Stimuli/Blank.png,0,0,0.0,0,0,0,0,,,,,,,,,,,,44.82035449999967,0.05368060000182595,0.05368060000182595,None,44.901123200001166,None,44.901123200001166,None,44.901123200001166,None,44.901123200001166,44.901123200001166,44.901123200001166,None,,007,P015,2025_Feb_28_1846,ConditionRich,2021.2.3,59.94190430534635,
4.0,7.75,16,0.75,Stimuli/P015/sun_bwhuwxazfqwuqhik.jpg,0,0,0.0,0,1,1,1,,,,,,,,,,,,,4.02374140000029,0.023741400000290014,None,48.871613700001035,48.871613700001035,48.871613700001035,48.871613700001035,48.871613700001035,48.871613700001035,48.871613700001035,48.871613700001035,48.871613700001035,48.871613700001035,,007,P015,2025_Feb_28_1846,ConditionRich,2021.2.3,59.94190430534635,
7.75,8.0,41,0.0,Stimuli/Blank.png,0,0,0.0,0,2,2,2,,,,,,,,,,,,,7.77309729999979,0.023097299999790266,None,52.60827280000012,52.60827280000012,52.60827280000012,52.60827280000012,52.60827280000012,52.60827280000012,52.60827280000012,52.60827280000012,52.60827280000012,52.60827280000012,,007,P015,2025_Feb_28_1846,ConditionRich,2021.2.3,59.94190430534635,
8.0,11.75,11,0.75,Stimuli/P015/sun_bnwmcjuinqbdsbho.jpg,0,0,0.0,0,3,3,3,,,,,,,,,,,,,8.007136000000173,0.007136000000173226,None,52.841484700002184,52.841484700002184,52.841484700002184,52.841484700002184,52.841484700002184,52.841484700002184,52.841484700002184,52.841484700002184,52.841484700002184,52.841484700002184,,007,P015,2025_Feb_28_1846,ConditionRich,2021.2.3,59.94190430534635,
11.75,12.0,41,0.0,Stimuli/Blank.png,0,0,0.0,0,4,4,4,,,,,,,,,,,,,11.760445200001413,0.010445200001413468,None,56.594848299999285,56.594848299999285,56.594848299999285,56.594848299999285,56.594848299999285,56.594848299999285,56.594848299999285,56.594848299999285,56.594848299999285,56.594848299999285,,007,P015,2025_Feb_28_1846,ConditionRich,2021.2.3,59.94190430534635,
12.0,15.75,21,0.75,Stimuli/P015/things_arch_08s.jpg,0,0,0.0,0,5,5,5,,,,,,,,,,,,,12.01085890000104,0.010858900001039729,None,56.84500630000184,56.84500630000184,56.84500630000184,56.84500630000184,56.84500630000184,56.84500630000184,56.84500630000184,56.84500630000184,56.84500630000184,56.84500630000184,,007,P015,2025_Feb_28_1846,ConditionRich,2021.2.3,59.94190430534635,
15.75,16.0,41,0.0,Stimuli/Blank.png,0,0,0.0,0,6,6,6,,,,,,,,,,,,,15.765372100002423,0.015372100002423394,None,60.61503430000084,60.61503430000084,60.61503430000084,60.61503430000084,60.61503430000084,60.61503430000084,60.61503430000084,60.61503430000084,60.61503430000084,60.61503430000084,,007,P015,2025_Feb_28_1846,ConditionRich,2021.2.3,59.94190430534635,
16.0,19.75,25,0.75,Stimuli/P015/things_deer_08s.jpg,0,0,0.0,0,7,7,7,,,,,,,,,,,,,16.0166461000008,0.01664610000079847,None,60.86527090000163,60.86527090000163,60.86527090000163,60.86527090000163,60.86527090000163,60.86527090000163,60.86527090000163,60.86527090000163,60.86527090000163,60.86527090000163,,007,P015,2025_Feb_28_1846,ConditionRich,2021.2.3,59.94190430534635,
19.75,20.0,41,0.0,Stimuli/Blank.png,0,0,0.0,0,8,8,8,,,,,,,,,,,,,19.768048600002658,0.018048600002657622,None,64.60187930000029,64.60187930000029,64.60187930000029,64.60187930000029,64.60187930000029,64.60187930000029,64.60187930000029,64.60187930000029,64.60187930000029,64.60187930000029,,007,P015,2025_Feb_28_1846,ConditionRich,2021.2.3,59.94190430534635,
20.0,23.75,10,0.75,Stimuli/P015/sun_bfojpvrlsrtfyzio.jpg,0,0,0.0,0,9,9,9,,,,,,,,,,,,,20.0005747000032,0.0005747000031988136,None,64.83542610000222,64.83542610000222,64.83542610000222,64.83542610000222,64.83542610000222,64.83542610000222,64.83542610000222,64.83542610000222,64.83542610000222,64.83542610000222,,007,P015,2025_Feb_28_1846,ConditionRich,2021.2.3,59.94190430534635,
23.75,24.0,41,0.0,Stimuli/Blank.png,0,0,0.0,0,10,10,10,,,,,,,,,,,,,23.75659120000273,0.006591200002731057,None,68.60547570000199,68.60547570000199,68.60547570000199,68.60547570000199,68.60547570000199,68.60547570000199,68.60547570000199,68.60547570000199,68.60547570000199,68.60547570000199,,007,P015,2025_Feb_28_1846,ConditionRich,2021.2.3,59.94190430534635,
24.0,27.75,3,0.75,Stimuli/P015/sun_aiogwnavezqxkzfg.jpg,0,0,0.0,0,11,11,11,,,,,,,,,,,,,24.02125520000118,0.02125520000117831,None,68.85564920000252,68.85564920000252,68.85564920000252,68.85564920000252,68.85564920000252,68.85564920000252,68.85564920000252,68.85564920000252,68.85564920000252,68.85564920000252,,007,P015,2025_Feb_28_1846,ConditionRich,2021.2.3,59.94190430534635,
27.75,28.0,41,0.0,Stimuli/Blank.png,0,0,0.0,0,12,12,12,,,,,,,,,,,,,27.757236400000693,0.007236400000692811,None,72.59233830000085,72.59233830000085,72.59233830000085,72.59233830000085,72.59233830000085,72.59233830000085,72.59233830000085,72.59233830000085,72.59233830000085,72.59233830000085,,007,P015,2025_Feb_28_1846,ConditionRich,2021.2.3,59.94190430534635,
28.0,31.75,31,0.75,Stimuli/P015/things_outlet_08s.jpg,0,0,0.0,0,13,13,13,,,,,,,,,,,,,28.010127600002306,0.01012760000230628,None,72.85922200000277,72.85922200000277,72.85922200000277,72.85922200000277,72.85922200000277,72.85922200000277,72.85922200000277,72.85922200000277,72.85922200000277,72.85922200000277,,007,P015,2025_Feb_28_1846,ConditionRich,2021.2.3,59.94190430534635,
31.75,32.0,41,0.0,Stimuli/Blank.png,0,0,0.0,0,14,14,14,,,,,,,,,,,,,31.77885800000149,0.028858000001491746,None,76.61253370000122,76.61253370000122,76.61253370000122,76.61253370000122,76.61253370000122,76.61253370000122,76.61253370000122,76.61253370000122,76.61253370000122,76.61253370000122,,007,P015,2025_Feb_28_1846,ConditionRich,2021.2.3,59.94190430534635,
32.0,35.75,29,0.75,Stimuli/P015/things_mouse1_08s.jpg,0,0,0.0,0,15,15,15,,,,,,,,,,,,,32.011637400002655,0.01163740000265534,None,76.86275400000159,76.86275400000159,76.86275400000159,76.86275400000159,76.86275400000159,76.86275400000159,76.86275400000159,76.86275400000159,76.86275400000159,76.86275400000159,,007,P015,2025_Feb_28_1846,ConditionRich,2021.2.3,59.94190430534635,
35.75,36.0,41,0.0,Stimuli/Blank.png,0,0,0.0,0,16,16,16,,,,,,,,,,,,,35.78188470000168,0.031884700001683086,None,80.61605939999936,80.61605939999936,80.61605939999936,80.61605939999936,80.61605939999936,80.61605939999936,80.61605939999936,80.61605939999936,80.61605939999936,80.61605939999936,,007,P015,2025_Feb_28_1846,ConditionRich,2021.2.3,59.94190430534635,
36.0,39.75,5,0.75,Stimuli/P015/sun_ajgmxbrxdpmsaext.jpg,1,3,3.75,0,17,17,17,,,,,,,,,,,,,36.01543670000319,0.015436700003192527,1,80.84960870000214,80.84960870000214,80.84960870000214,80.84960870000214,80.84960870000214,80.84960870000214,83.83561800000098,None,80.84960870000214,80.84960870000214,3.4906381000000692,007,P015,2025_Feb_28_1846,ConditionRich,2021.2.3,59.94190430534635,
39.75,40.0,41,0.0,Stimuli/Blank.png,0,0,0.0,0,18,18,18,,,,,,,,,,,,,39.751576300001034,0.0015763000010338146,None,84.5862374999997,84.5862374999997,84.5862374999997,84.5862374999997,84.5862374999997,84.5862374999997,84.5862374999997,84.5862374999997,84.5862374999997,84.5862374999997,,007,P015,2025_Feb_28_1846,ConditionRich,2021.2.3,59.94190430534635,
40.0,43.75,35,0.75,Stimuli/P015/things_squid_08s.jpg,0,0,0.0,0,19,19,19,,,,,,,,,,,,,40.00157540000146,0.0015754000014567282,None,84.85315420000188,84.85315420000188,84.85315420000188,84.85315420000188,84.85315420000188,84.85315420000188,84.85315420000188,84.85315420000188,84.85315420000188,84.85315420000188,,007,P015,2025_Feb_28_1846,ConditionRich,2021.2.3,59.94190430534635,
43.75,44.0,41,0.0,Stimuli/Blank.png,0,0,0.0,0,20,20,20,,,,,,,,,,,,,43.772794300002715,0.022794300002715318,None,88.60648969999966,88.60648969999966,88.60648969999966,88.60648969999966,88.60648969999966,88.60648969999966,88.60648969999966,88.60648969999966,88.60648969999966,88.60648969999966,,007,P015,2025_Feb_28_1846,ConditionRich,2021.2.3,59.94190430534635,
44.0,47.75,22,0.75,Stimuli/P015/things_baby_08s.jpg,1,3,3.75,0,21,21,21,,,,,,,,,,,,,44.00506700000187,0.005067000001872657,1,88.8400008000026,88.8400008000026,88.8400008000026,88.8400008000026,88.8400008000026,88.8400008000026,91.82602840000254,92.57664010000008,88.8400008000026,88.8400008000026,3.40801300000021,007,P015,2025_Feb_28_1846,ConditionRich,2021.2.3,59.94190430534635,
47.75,48.0,41,0.0,Stimuli/Blank.png,0,0,0.0,0,22,22,22,,,,,,,,,,,,,47.758325100003276,0.00832510000327602,None,92.5933941000003,92.5933941000003,92.5933941000003,92.5933941000003,92.5933941000003,92.5933941000003,92.5933941000003,92.5933941000003,92.5933941000003,92.5933941000003,,007,P015,2025_Feb_28_1846,ConditionRich,2021.2.3,59.94190430534635,
48.0,51.75,27,0.75,Stimuli/P015/things_girl_08s.jpg,0,0,0.0,0,23,23,23,,,,,,,,,,,,,48.00950310000189,0.009503100001893472,None,92.84354820000226,92.84354820000226,92.84354820000226,92.84354820000226,92.84354820000226,92.84354820000226,92.84354820000226,92.84354820000226,92.84354820000226,92.84354820000226,,007,P015,2025_Feb_28_1846,ConditionRich,2021.2.3,59.94190430534635,
51.75,52.0,41,0.0,Stimuli/Blank.png,0,0,0.0,0,24,24,24,,,,,,,,,,,,,51.76298940000197,0.012989400001970353,None,96.59683399999994,96.59683399999994,96.59683399999994,96.59683399999994,96.59683399999994,96.59683399999994,96.59683399999994,96.59683399999994,96.59683399999994,96.59683399999994,,007,P015,2025_Feb_28_1846,ConditionRich,2021.2.3,59.94190430534635,
52.0,55.75,2,0.75,Stimuli/P015/sun_agzfkftryitnqpxc.jpg,0,0,0.0,0,25,25,25,,,,,,,,,,,,,52.012584200001584,0.012584200001583667,None,96.84709520000251,96.84709520000251,96.84709520000251,96.84709520000251,96.84709520000251,96.84709520000251,96.84709520000251,96.84709520000251,96.84709520000251,96.84709520000251,,007,P015,2025_Feb_28_1846,ConditionRich,2021.2.3,59.94190430534635,
55.75,56.0,41,0.0,Stimuli/Blank.png,0,0,0.0,0,26,26,26,,,,,,,,,,,,,55.75069950000034,0.0006995000003371388,None,100.6004219000024,100.6004219000024,100.6004219000024,100.6004219000024,100.6004219000024,100.6004219000024,100.6004219000024,100.6004219000024,100.6004219000024,100.6004219000024,,007,P015,2025_Feb_28_1846,ConditionRich,2021.2.3,59.94190430534635,
56.0,59.75,17,0.75,Stimuli/P015/sun_bxhbltvqnpaciuzt.jpg,1,1,1.75,0,27,27,27,,,,,,,,,,,,,56.01747340000293,0.01747340000292752,1,100.86731630000213,100.86731630000213,100.86731630000213,100.86731630000213,100.86731630000213,100.86731630000213,101.83483630000046,102.58549690000291,100.86731630000213,100.86731630000213,1.5968001000001095,007,P015,2025_Feb_28_1846,ConditionRich,2021.2.3,59.94190430534635,
59.75,60.0,41,0.0,Stimuli/Blank.png,0,0,0.0,0,28,28,28,,,,,,,,,,,,,59.77123490000304,0.021234900003037183,None,104.62065110000185,104.62065110000185,104.62065110000185,104.62065110000185,104.62065110000185,104.62065110000185,104.62065110000185,104.62065110000185,104.62065110000185,104.62065110000185,,007,P015,2025_Feb_28_1846,ConditionRich,2021.2.3,59.94190430534635,
60.0,63.75,7,0.75,Stimuli/P015/sun_aqdfrmtvewaapuqs.jpg,0,0,0.0,0,29,29,29,,,,,,,,,,,,,60.019223900002544,0.019223900002543814,None,104.8541937000009,104.8541937000009,104.8541937000009,104.8541937000009,104.8541937000009,104.8541937000009,104.8541937000009,104.8541937000009,104.8541937000009,104.8541937000009,,007,P015,2025_Feb_28_1846,ConditionRich,2021.2.3,59.94190430534635,
63.75,64.0,41,0.0,Stimuli/Blank.png,0,0,0.0,0,30,30,30,,,,,,,,,,,,,63.755849500001204,0.005849500001204433,None,108.5908144999994,108.5908144999994,108.5908144999994,108.5908144999994,108.5908144999994,108.5908144999994,108.5908144999994,108.5908144999994,108.5908144999994,108.5908144999994,,007,P015,2025_Feb_28_1846,ConditionRich,2021.2.3,59.94190430534635,
64.0,67.75,38,0.75,Stimuli/P015/things_trumpet_08s.jpg,0,0,0.0,0,31,31,31,,,,,,,,,,,,,64.00645950000035,0.006459500000346452,None,108.84104640000078,108.84104640000078,108.84104640000078,108.84104640000078,108.84104640000078,108.84104640000078,108.84104640000078,108.84104640000078,108.84104640000078,108.84104640000078,,007,P015,2025_Feb_28_1846,ConditionRich,2021.2.3,59.94190430534635,
67.75,68.0,41,0.0,Stimuli/Blank.png,0,0,0.0,0,32,32,32,,,,,,,,,,,,,67.76166660000308,0.01166660000308184,None,112.61111820000224,112.61111820000224,112.61111820000224,112.61111820000224,112.61111820000224,112.61111820000224,112.61111820000224,112.61111820000224,112.61111820000224,112.61111820000224,,007,P015,2025_Feb_28_1846,ConditionRich,2021.2.3,59.94190430534635,
68.0,71.75,33,0.75,Stimuli/P015/things_raccoon_08n.jpg,0,0,0.0,0,33,33,33,,,,,,,,,,,,,68.02703560000009,0.0270356000000902,None,112.86125920000268,112.86125920000268,112.86125920000268,112.86125920000268,112.86125920000268,112.86125920000268,112.86125920000268,112.86125920000268,112.86125920000268,112.86125920000268,,007,P015,2025_Feb_28_1846,ConditionRich,2021.2.3,59.94190430534635,
71.75,72.0,41,0.0,Stimuli/Blank.png,0,0,0.0,0,34,34,34,,,,,,,,,,,,,71.76374250000299,0.01374250000299071,None,116.59790939999948,116.59790939999948,116.59790939999948,116.59790939999948,116.59790939999948,116.59790939999948,116.59790939999948,116.59790939999948,116.59790939999948,116.59790939999948,,007,P015,2025_Feb_28_1846,ConditionRich,2021.2.3,59.94190430534635,
72.0,75.75,28,0.75,Stimuli/P015/things_latte_08s.jpg,0,0,0.0,0,35,35,35,,,,,,,,,,,,,72.01413610000236,0.014136100002360763,None,116.84812420000162,116.84812420000162,116.84812420000162,116.84812420000162,116.84812420000162,116.84812420000162,116.84812420000162,116.84812420000162,116.84812420000162,116.84812420000162,,007,P015,2025_Feb_28_1846,ConditionRich,2021.2.3,59.94190430534635,
75.75,76.0,41,0.0,Stimuli/Blank.png,0,0,0.0,0,36,36,36,,,,,,,,,,,,,75.75245880000148,0.002458800001477357,None,120.6014897999994,120.6014897999994,120.6014897999994,120.6014897999994,120.6014897999994,120.6014897999994,120.6014897999994,120.6014897999994,120.6014897999994,120.6014897999994,,007,P015,2025_Feb_28_1846,ConditionRich,2021.2.3,59.94190430534635,
76.0,79.75,26,0.75,Stimuli/P015/things_face_08s.jpg,1,3,3.75,0,37,37,37,,,,,,,,,,,,,76.01686110000082,0.01686110000082408,1,120.85166279999976,120.85166279999976,120.85166279999976,120.85166279999976,120.85166279999976,120.85166279999976,123.83764160000283,None,120.85166279999976,120.85166279999976,3.455656699999963,007,P015,2025_Feb_28_1846,ConditionRich,2021.2.3,59.94190430534635,
79.75,80.0,41,0.0,Stimuli/Blank.png,0,0,0.0,0,38,38,38,,,,,,,,,,,,,79.75475379999989,0.004753799999889452,None,124.60501850000219,124.60501850000219,124.60501850000219,124.60501850000219,124.60501850000219,124.60501850000219,124.60501850000219,124.60501850000219,124.60501850000219,124.60501850000219,,007,P015,2025_Feb_28_1846,ConditionRich,2021.2.3,59.94190430534635,
80.0,83.75,9,0.75,Stimuli/P015/sun_bbdgftzhpkaklkll.jpg,0,0,0.0,0,39,39,39,,,,,,,,,,,,,80.02099760000056,0.020997600000555394,None,124.85521309999967,124.85521309999967,124.85521309999967,124.85521309999967,124.85521309999967,124.85521309999967,124.85521309999967,124.85521309999967,124.85521309999967,124.85521309999967,,007,P015,2025_Feb_28_1846,ConditionRich,2021.2.3,59.94190430534635,
83.75,84.0,41,0.0,Stimuli/Blank.png,0,0,0.0,0,40,40,40,,,,,,,,,,,,,83.75687960000141,0.006879600001411745,None,128.59185360000265,128.59185360000265,128.59185360000265,128.59185360000265,128.59185360000265,128.59185360000265,128.59185360000265,128.59185360000265,128.59185360000265,128.59185360000265,,007,P015,2025_Feb_28_1846,ConditionRich,2021.2.3,59.94190430534635,
84.0,100.0,0,0.0,Stimuli/Blank.png,1,4,4.75,0,41,41,41,,,,,,,,,,,,,84.00770170000033,0.007701700000325218,1,128.8420815999998,128.8420815999998,128.8420815999998,128.8420815999998,128.8420815999998,128.8420815999998,132.82896080000137,133.57959960000153,128.8420815999998,128.8420815999998,4.434887499999604,007,P015,2025_Feb_28_1846,ConditionRich,2021.2.3,59.94190430534635,
100.0,103.75,14,0.75,Stimuli/P015/sun_bpvmkbyglkraoxhh.jpg,0,0,0.0,0,42,42,42,,,,,,,,,,,,,100.00543260000268,0.0054326000026776455,None,144.83956799999942,144.83956799999942,144.83956799999942,144.83956799999942,144.83956799999942,144.83956799999942,144.83956799999942,144.83956799999942,144.83956799999942,144.83956799999942,,007,P015,2025_Feb_28_1846,ConditionRich,2021.2.3,59.94190430534635,
103.75,104.0,41,0.0,Stimuli/Blank.png,0,0,0.0,0,43,43,43,,,,,,,,,,,,,103.7579962000018,0.00799620000179857,None,148.59288519999973,148.59288519999973,148.59288519999973,148.59288519999973,148.59288519999973,148.59288519999973,148.59288519999973,148.59288519999973,148.59288519999973,148.59288519999973,,007,P015,2025_Feb_28_1846,ConditionRich,2021.2.3,59.94190430534635,
104.0,107.75,18,0.75,Stimuli/P015/sun_byavixgfuhzioilz.jpg,0,0,0.0,0,44,44,44,,,,,,,,,,,,,104.00938959999985,0.009389599999849452,None,148.859937600002,148.859937600002,148.859937600002,148.859937600002,148.859937600002,148.859937600002,148.859937600002,148.859937600002,148.859937600002,148.859937600002,,007,P015,2025_Feb_28_1846,ConditionRich,2021.2.3,59.94190430534635,
107.75,108.0,41,0.0,Stimuli/Blank.png,0,0,0.0,0,45,45,45,,,,,,,,,,,,,107.7781071999998,0.02810719999979483,None,152.61318700000265,152.61318700000265,152.61318700000265,152.61318700000265,152.61318700000265,152.61318700000265,152.61318700000265,152.61318700000265,152.61318700000265,152.61318700000265,,007,P015,2025_Feb_28_1846,ConditionRich,2021.2.3,59.94190430534635,
108.0,111.75,13,0.75,Stimuli/P015/sun_bphvjnowixlryxot.jpg,0,0,0.0,0,46,46,46,,,,,,,,,,,,,108.01233420000062,0.012334200000623241,None,152.8633387000009,152.8633387000009,152.8633387000009,152.8633387000009,152.8633387000009,152.8633387000009,152.8633387000009,152.8633387000009,152.8633387000009,152.8633387000009,,007,P015,2025_Feb_28_1846,ConditionRich,2021.2.3,59.94190430534635,
111.75,112.0,41,0.0,Stimuli/Blank.png,0,0,0.0,0,47,47,47,,,,,,,,,,,,,111.78165660000013,0.03165660000013304,None,156.61666040000273,156.61666040000273,156.61666040000273,156.61666040000273,156.61666040000273,156.61666040000273,156.61666040000273,156.61666040000273,156.61666040000273,156.61666040000273,,007,P015,2025_Feb_28_1846,ConditionRich,2021.2.3,59.94190430534635,
112.0,115.75,6,0.75,Stimuli/P015/sun_akecfasimgpbqcnt.jpg,0,0,0.0,0,48,48,48,,,,,,,,,,,,,112.01582560000315,0.01582560000315425,None,156.85018800000034,156.85018800000034,156.85018800000034,156.85018800000034,156.85018800000034,156.85018800000034,156.85018800000034,156.85018800000034,156.85018800000034,156.85018800000034,,007,P015,2025_Feb_28_1846,ConditionRich,2021.2.3,59.94190430534635,
115.75,116.0,41,0.0,Stimuli/Blank.png,0,0,0.0,0,49,49,49,,,,,,,,,,,,,115.75215110000136,0.002151100001356099,None,160.58683880000171,160.58683880000171,160.58683880000171,160.58683880000171,160.58683880000171,160.58683880000171,160.58683880000171,160.58683880000171,160.58683880000171,160.58683880000171,,007,P015,2025_Feb_28_1846,ConditionRich,2021.2.3,59.94190430534635,
116.0,119.75,32,0.75,Stimuli/P015/things_pheasant_08s.jpg,0,0,0.0,0,50,50,50,,,,,,,,,,,,,116.00202510000236,0.0020251000023563392,None,160.83705380000174,160.83705380000174,160.83705380000174,160.83705380000174,160.83705380000174,160.83705380000174,160.83705380000174,160.83705380000174,160.83705380000174,160.83705380000174,,007,P015,2025_Feb_28_1846,ConditionRich,2021.2.3,59.94190430534635,
119.75,120.0,41,0.0,Stimuli/Blank.png,0,0,0.0,0,51,51,51,,,,,,,,,,,,,119.75649340000018,0.006493400000181282,None,164.5903739000023,164.5903739000023,164.5903739000023,164.5903739000023,164.5903739000023,164.5903739000023,164.5903739000023,164.5903739000023,164.5903739000023,164.5903739000023,,007,P015,2025_Feb_28_1846,ConditionRich,2021.2.3,59.94190430534635,
120.0,123.75,34,0.75,Stimuli/P015/things_shower_cap_08s.jpg,0,0,0.0,0,52,52,52,,,,,,,,,,,,,120.00572330000068,0.005723300000681775,None,164.84059700000216,164.84059700000216,164.84059700000216,164.84059700000216,164.84059700000216,164.84059700000216,164.84059700000216,164.84059700000216,164.84059700000216,164.84059700000216,,007,P015,2025_Feb_28_1846,ConditionRich,2021.2.3,59.94190430534635,
123.75,124.0,41,0.0,Stimuli/Blank.png,0,0,0.0,0,53,53,53,,,,,,,,,,,,,123.76100470000165,0.011004700001649326,None,168.61060700000235,168.61060700000235,168.61060700000235,168.61060700000235,168.61060700000235,168.61060700000235,168.61060700000235,168.61060700000235,168.61060700000235,168.61060700000235,,007,P015,2025_Feb_28_1846,ConditionRich,2021.2.3,59.94190430534635,
124.0,127.75,12,0.75,Stimuli/P015/sun_boffixsnbbloarty.jpg,0,0,0.0,0,54,54,54,,,,,,,,,,,,,124.02695900000253,0.026959000002534594,None,168.8608208000005,168.8608208000005,168.8608208000005,168.8608208000005,168.8608208000005,168.8608208000005,168.8608208000005,168.8608208000005,168.8608208000005,168.8608208000005,,007,P015,2025_Feb_28_1846,ConditionRich,2021.2.3,59.94190430534635,
127.75,128.0,41,0.0,Stimuli/Blank.png,0,0,0.0,0,55,55,55,,,,,,,,,,,,,127.76303940000071,0.013039400000707246,None,172.59746280000036,172.59746280000036,172.59746280000036,172.59746280000036,172.59746280000036,172.59746280000036,172.59746280000036,172.59746280000036,172.59746280000036,172.59746280000036,,007,P015,2025_Feb_28_1846,ConditionRich,2021.2.3,59.94190430534635,
128.0,131.75,36,0.75,Stimuli/P015/things_streetlight_08s.jpg,1,0,0.75,0,56,56,56,,,,,,,,,,,,,128.01343190000262,0.013431900002615293,1,172.86440140000195,172.86440140000195,172.86440140000195,172.86440140000195,172.86440140000195,172.86440140000195,172.86440140000195,173.5816279000028,172.86440140000195,172.86440140000195,0.5487342000014905,007,P015,2025_Feb_28_1846,ConditionRich,2021.2.3,59.94190430534635,
131.75,132.0,41,0.0,Stimuli/Blank.png,0,0,0.0,0,57,57,57,,,,,,,,,,,,,131.7664775000012,0.016477500001201406,None,176.60100890000103,176.60100890000103,176.60100890000103,176.60100890000103,176.60100890000103,176.60100890000103,176.60100890000103,176.60100890000103,176.60100890000103,176.60100890000103,,007,P015,2025_Feb_28_1846,ConditionRich,2021.2.3,59.94190430534635,
132.0,135.75,30,0.75,Stimuli/P015/things_ottoman_08s.jpg,0,0,0.0,0,58,58,58,,,,,,,,,,,,,131.99972909999997,-0.00027090000003227033,None,176.8345397000012,176.8345397000012,176.8345397000012,176.8345397000012,176.8345397000012,176.8345397000012,176.8345397000012,176.8345397000012,176.8345397000012,176.8345397000012,,007,P015,2025_Feb_28_1846,ConditionRich,2021.2.3,59.94190430534635,
135.75,136.0,41,0.0,Stimuli/Blank.png,0,0,0.0,0,59,59,59,,,,,,,,,,,,,135.75300170000264,0.0030017000026418827,None,180.5878642000025,180.5878642000025,180.5878642000025,180.5878642000025,180.5878642000025,180.5878642000025,180.5878642000025,180.5878642000025,180.5878642000025,180.5878642000025,,007,P015,2025_Feb_28_1846,ConditionRich,2021.2.3,59.94190430534635,
136.0,139.75,15,0.75,Stimuli/P015/sun_bvfcijehgdsndfbg.jpg,1,3,3.75,0,60,60,60,,,,,,,,,,,,,136.00390360000165,0.0039036000016494654,1,180.83810230000017,180.83810230000017,180.83810230000017,180.83810230000017,180.83810230000017,180.83810230000017,183.82407629999943,184.57473510000273,180.83810230000017,180.83810230000017,3.6092848000007507,007,P015,2025_Feb_28_1846,ConditionRich,2021.2.3,59.94190430534635,
139.75,140.0,41,0.0,Stimuli/Blank.png,0,0,0.0,0,61,61,61,,,,,,,,,,,,,139.7573508000023,0.0073508000023139175,None,184.5913685000014,184.5913685000014,184.5913685000014,184.5913685000014,184.5913685000014,184.5913685000014,184.5913685000014,184.5913685000014,184.5913685000014,184.5913685000014,,007,P015,2025_Feb_28_1846,ConditionRich,2021.2.3,59.94190430534635,
140.0,143.75,23,0.75,Stimuli/P015/things_boy_08s.jpg,0,0,0.0,0,62,62,62,,,,,,,,,,,,,140.0071379000001,0.007137900000088848,None,184.84163550000085,184.84163550000085,184.84163550000085,184.84163550000085,184.84163550000085,184.84163550000085,184.84163550000085,184.84163550000085,184.84163550000085,184.84163550000085,,007,P015,2025_Feb_28_1846,ConditionRich,2021.2.3,59.94190430534635,
143.75,144.0,41,0.0,Stimuli/Blank.png,0,0,0.0,0,63,63,63,,,,,,,,,,,,,143.76061420000042,0.01061420000041835,None,188.594933700002,188.594933700002,188.594933700002,188.594933700002,188.594933700002,188.594933700002,188.594933700002,188.594933700002,188.594933700002,188.594933700002,,007,P015,2025_Feb_28_1846,ConditionRich,2021.2.3,59.94190430534635,
144.0,147.75,19,0.75,Stimuli/P015/sun_bzhwvgrzvttqoexa.jpg,1,2,2.75,0,64,64,64,,,,,,,,,,,,,144.01023910000004,0.01023910000003525,1,188.84515459999966,188.84515459999966,188.84515459999966,188.84515459999966,188.84515459999966,188.84515459999966,190.83024210000076,191.58088850000058,188.84515459999966,188.84515459999966,2.3789144000002125,007,P015,2025_Feb_28_1846,ConditionRich,2021.2.3,59.94190430534635,
147.75,148.0,41,0.0,Stimuli/Blank.png,0,0,0.0,0,65,65,65,,,,,,,,,,,,,147.7642885000023,0.014288500002294313,None,192.59849730000133,192.59849730000133,192.59849730000133,192.59849730000133,192.59849730000133,192.59849730000133,192.59849730000133,192.59849730000133,192.59849730000133,192.59849730000133,,007,P015,2025_Feb_28_1846,ConditionRich,2021.2.3,59.94190430534635,
148.0,151.75,37,0.75,Stimuli/P015/things_swizzle_stick_08s.jpg,0,0,0.0,0,66,66,66,,,,,,,,,,,,,148.0147156000021,0.014715600002091378,None,192.84872000000178,192.84872000000178,192.84872000000178,192.84872000000178,192.84872000000178,192.84872000000178,192.84872000000178,192.84872000000178,192.84872000000178,192.84872000000178,,007,P015,2025_Feb_28_1846,ConditionRich,2021.2.3,59.94190430534635,
151.75,152.0,41,0.0,Stimuli/Blank.png,0,0,0.0,0,67,67,67,,,,,,,,,,,,,151.75029130000257,0.0002913000025728252,None,196.58535610000035,196.58535610000035,196.58535610000035,196.58535610000035,196.58535610000035,196.58535610000035,196.58535610000035,196.58535610000035,196.58535610000035,196.58535610000035,,007,P015,2025_Feb_28_1846,ConditionRich,2021.2.3,59.94190430534635,
152.0,155.75,4,0.75,Stimuli/P015/sun_aiwuqxdqzftsfyeg.jpg,0,0,0.0,0,68,68,68,,,,,,,,,,,,,152.00125160000243,0.0012516000024334062,None,196.85225960000025,196.85225960000025,196.85225960000025,196.85225960000025,196.85225960000025,196.85225960000025,196.85225960000025,196.85225960000025,196.85225960000025,196.85225960000025,,007,P015,2025_Feb_28_1846,ConditionRich,2021.2.3,59.94190430534635,
155.75,156.0,41,0.0,Stimuli/Blank.png,0,0,0.0,0,69,69,69,,,,,,,,,,,,,155.77170000000115,0.02170000000114669,None,200.60558550000133,200.60558550000133,200.60558550000133,200.60558550000133,200.60558550000133,200.60558550000133,200.60558550000133,200.60558550000133,200.60558550000133,200.60558550000133,,007,P015,2025_Feb_28_1846,ConditionRich,2021.2.3,59.94190430534635,
156.0,159.75,39,0.75,Stimuli/P015/things_window_08s.jpg,0,0,0.0,0,70,70,70,,,,,,,,,,,,,156.0047891000031,0.004789100003108615,None,200.85581960000127,200.85581960000127,200.85581960000127,200.85581960000127,200.85581960000127,200.85581960000127,200.85581960000127,200.85581960000127,200.85581960000127,200.85581960000127,,007,P015,2025_Feb_28_1846,ConditionRich,2021.2.3,59.94190430534635,
159.75,160.0,41,0.0,Stimuli/Blank.png,0,0,0.0,0,71,71,71,,,,,,,,,,,,,159.77477280000312,0.02477280000312021,None,204.60911920000217,204.60911920000217,204.60911920000217,204.60911920000217,204.60911920000217,204.60911920000217,204.60911920000217,204.60911920000217,204.60911920000217,204.60911920000217,,007,P015,2025_Feb_28_1846,ConditionRich,2021.2.3,59.94190430534635,
160.0,163.75,8,0.75,Stimuli/P015/sun_arldxotvfucvuudk.jpg,0,0,0.0,0,72,72,72,,,,,,,,,,,,,160.00854310000068,0.00854310000067926,None,204.84265900000173,204.84265900000173,204.84265900000173,204.84265900000173,204.84265900000173,204.84265900000173,204.84265900000173,204.84265900000173,204.84265900000173,204.84265900000173,,007,P015,2025_Feb_28_1846,ConditionRich,2021.2.3,59.94190430534635,
163.75,164.0,41,0.0,Stimuli/Blank.png,0,0,0.0,0,73,73,73,,,,,,,,,,,,,163.76099140000224,0.01099140000223997,None,208.59595489999992,208.59595489999992,208.59595489999992,208.59595489999992,208.59595489999992,208.59595489999992,208.59595489999992,208.59595489999992,208.59595489999992,208.59595489999992,,007,P015,2025_Feb_28_1846,ConditionRich,2021.2.3,59.94190430534635,
164.0,167.75,40,0.75,Stimuli/P015/things_woman_08s.jpg,1,2,2.75,0,74,74,74,,,,,,,,,,,,,164.01517330000206,0.015173300002061296,1,208.86291560000245,208.86291560000245,208.86291560000245,208.86291560000245,208.86291560000245,208.86291560000245,210.84796909999932,211.59864050000033,208.86291560000245,208.86291560000245,2.4363262000006216,007,P015,2025_Feb_28_1846,ConditionRich,2021.2.3,59.94190430534635,
167.75,168.0,41,0.0,Stimuli/Blank.png,0,0,0.0,0,75,75,75,,,,,,,,,,,,,167.76472860000285,0.014728600002854364,None,212.59952340000018,212.59952340000018,212.59952340000018,212.59952340000018,212.59952340000018,212.59952340000018,212.59952340000018,212.59952340000018,212.59952340000018,212.59952340000018,,007,P015,2025_Feb_28_1846,ConditionRich,2021.2.3,59.94190430534635,
168.0,171.75,24,0.75,Stimuli/P015/things_bunkbed_08s.jpg,0,0,0.0,0,76,76,76,,,,,,,,,,,,,168.015447400001,0.015447400000994094,None,212.86643940000067,212.86643940000067,212.86643940000067,212.86643940000067,212.86643940000067,212.86643940000067,212.86643940000067,212.86643940000067,212.86643940000067,212.86643940000067,,007,P015,2025_Feb_28_1846,ConditionRich,2021.2.3,59.94190430534635,
171.75,172.0,41,0.0,Stimuli/Blank.png,0,0,0.0,0,77,77,77,,,,,,,,,,,,,171.77011180000045,0.020111800000449875,None,216.61976090000098,216.61976090000098,216.61976090000098,216.61976090000098,216.61976090000098,216.61976090000098,216.61976090000098,216.61976090000098,216.61976090000098,216.61976090000098,,007,P015,2025_Feb_28_1846,ConditionRich,2021.2.3,59.94190430534635,
172.0,175.75,20,0.75,Stimuli/P015/sun_bzmxulijbnmshodq.jpg,0,0,0.0,0,78,78,78,,,,,,,,,,,,,172.01831870000024,0.018318700000236277,None,216.85328780000054,216.85328780000054,216.85328780000054,216.85328780000054,216.85328780000054,216.85328780000054,216.85328780000054,216.85328780000054,216.85328780000054,216.85328780000054,,007,P015,2025_Feb_28_1846,ConditionRich,2021.2.3,59.94190430534635,
175.75,176.0,41,0.0,Stimuli/Blank.png,0,0,0.0,0,79,79,79,,,,,,,,,,,,,175.75573710000026,0.005737100000260398,None,220.5899500000014,220.5899500000014,220.5899500000014,220.5899500000014,220.5899500000014,220.5899500000014,220.5899500000014,220.5899500000014,220.5899500000014,220.5899500000014,,007,P015,2025_Feb_28_1846,ConditionRich,2021.2.3,59.94190430534635,
176.0,179.75,1,0.75,Stimuli/P015/sun_aacpzgqrortyhyss.jpg,1,1,1.75,0,80,80,80,,,,,,,,,,,,,176.00593660000231,0.0059366000023146626,1,220.85678589999952,220.85678589999952,220.85678589999952,220.85678589999952,220.85678589999952,220.85678589999952,221.82435439999972,222.57502100000056,220.85678589999952,220.85678589999952,1.4073026000005484,007,P015,2025_Feb_28_1846,ConditionRich,2021.2.3,59.94190430534635,
179.75,180.0,41,0.0,Stimuli/Blank.png,0,0,0.0,0,81,81,81,,,,,,,,,,,,,179.77687119999973,0.026871199999732198,None,224.6101603999996,224.6101603999996,224.6101603999996,224.6101603999996,224.6101603999996,224.6101603999996,224.6101603999996,224.6101603999996,224.6101603999996,224.6101603999996,,007,P015,2025_Feb_28_1846,ConditionRich,2021.2.3,59.94190430534635,
180.0,196.0,0,0.0,Stimuli/Blank.png,1,10,10.75,0,82,82,82,,,,,,,,,,,,,180.009448300003,0.009448300002986798,1,224.84369110000262,224.84369110000262,224.84369110000262,224.84369110000262,224.84369110000262,224.84369110000262,234.83587270000135,235.56989370000156,224.84369110000262,224.84369110000262,10.44671770000059,007,P015,2025_Feb_28_1846,ConditionRich,2021.2.3,59.94190430534635,
196.0,199.75,17,0.75,Stimuli/P015/sun_bxhbltvqnpaciuzt.jpg,1,1,1.75,0,83,83,83,,,,,,,,,,,,,196.00726850000137,0.007268500001373468,1,240.85786870000084,240.85786870000084,240.85786870000084,240.85786870000084,240.85786870000084,240.85786870000084,241.8253912,242.57608869999967,240.85786870000084,240.85786870000084,1.4193215999985114,007,P015,2025_Feb_28_1846,ConditionRich,2021.2.3,59.94190430534635,
199.75,200.0,41,0.0,Stimuli/Blank.png,0,0,0.0,0,84,84,84,,,,,,,,,,,,,199.77762020000227,0.02762020000227494,None,244.61120040000242,244.61120040000242,244.61120040000242,244.61120040000242,244.61120040000242,244.61120040000242,244.61120040000242,244.61120040000242,244.61120040000242,244.61120040000242,,007,P015,2025_Feb_28_1846,ConditionRich,2021.2.3,59.94190430534635,
200.0,203.75,2,0.75,Stimuli/P015/sun_agzfkftryitnqpxc.jpg,0,0,0.0,0,85,85,85,,,,,,,,,,,,,200.01063350000186,0.01063350000185892,None,244.86141860000134,244.86141860000134,244.86141860000134,244.86141860000134,244.86141860000134,244.86141860000134,244.86141860000134,244.86141860000134,244.86141860000134,244.86141860000134,,007,P015,2025_Feb_28_1846,ConditionRich,2021.2.3,59.94190430534635,
203.75,204.0,41,0.0,Stimuli/Blank.png,0,0,0.0,0,86,86,86,,,,,,,,,,,,,203.78002600000036,0.03002600000036182,None,248.61473370000022,248.61473370000022,248.61473370000022,248.61473370000022,248.61473370000022,248.61473370000022,248.61473370000022,248.61473370000022,248.61473370000022,248.61473370000022,,007,P015,2025_Feb_28_1846,ConditionRich,2021.2.3,59.94190430534635,
204.0,207.75,6,0.75,Stimuli/P015/sun_akecfasimgpbqcnt.jpg,0,0,0.0,0,87,87,87,,,,,,,,,,,,,204.0144919000013,0.014491900001303293,None,248.864991800001,248.864991800001,248.864991800001,248.864991800001,248.864991800001,248.864991800001,248.864991800001,248.864991800001,248.864991800001,248.864991800001,,007,P015,2025_Feb_28_1846,ConditionRich,2021.2.3,59.94190430534635,
207.75,208.0,41,0.0,Stimuli/Blank.png,0,0,0.0,0,88,88,88,,,,,,,,,,,,,207.76706940000076,0.01706940000076429,None,252.60156370000186,252.60156370000186,252.60156370000186,252.60156370000186,252.60156370000186,252.60156370000186,252.60156370000186,252.60156370000186,252.60156370000186,252.60156370000186,,007,P015,2025_Feb_28_1846,ConditionRich,2021.2.3,59.94190430534635,
208.0,211.75,11,0.75,Stimuli/P015/sun_bnwmcjuinqbdsbho.jpg,0,0,0.0,0,89,89,89,,,,,,,,,,,,,208.00205370000185,0.002053700001852121,None,252.8518206000008,252.8518206000008,252.8518206000008,252.8518206000008,252.8518206000008,252.8518206000008,252.8518206000008,252.8518206000008,252.8518206000008,252.8518206000008,,007,P015,2025_Feb_28_1846,ConditionRich,2021.2.3,59.94190430534635,
211.75,212.0,41,0.0,Stimuli/Blank.png,0,0,0.0,0,90,90,90,,,,,,,,,,,,,211.77029400000174,0.020294000001740642,None,256.60518220000085,256.60518220000085,256.60518220000085,256.60518220000085,256.60518220000085,256.60518220000085,256.60518220000085,256.60518220000085,256.60518220000085,256.60518220000085,,007,P015,2025_Feb_28_1846,ConditionRich,2021.2.3,59.94190430534635,
212.0,215.75,40,0.75,Stimuli/P015/things_woman_08s.jpg,0,0,0.0,0,91,91,91,,,,,,,,,,,,,212.00434430000314,0.0043443000031402335,None,256.8386805000009,256.8386805000009,256.8386805000009,256.8386805000009,256.8386805000009,256.8386805000009,256.8386805000009,256.8386805000009,256.8386805000009,256.8386805000009,,007,P015,2025_Feb_28_1846,ConditionRich,2021.2.3,59.94190430534635,
215.75,216.0,41,0.0,Stimuli/Blank.png,0,0,0.0,0,92,92,92,,,,,,,,,,,,,215.75862419999976,0.008624199999758275,None,260.59201680000115,260.59201680000115,260.59201680000115,260.59201680000115,260.59201680000115,260.59201680000115,260.59201680000115,260.59201680000115,260.59201680000115,260.59201680000115,,007,P015,2025_Feb_28_1846,ConditionRich,2021.2.3,59.94190430534635,
216.0,219.75,20,0.75,Stimuli/P015/sun_bzmxulijbnmshodq.jpg,0,0,0.0,0,93,93,93,,,,,,,,,,,,,216.0074409000008,0.007440900000801776,None,260.8422234999998,260.8422234999998,260.8422234999998,260.8422234999998,260.8422234999998,260.8422234999998,260.8422234999998,260.8422234999998,260.8422234999998,260.8422234999998,,007,P015,2025_Feb_28_1846,ConditionRich,2021.2.3,59.94190430534635,
219.75,220.0,41,0.0,Stimuli/Blank.png,0,0,0.0,0,94,94,94,,,,,,,,,,,,,219.76065400000152,0.010654000001522945,None,264.5955412000003,264.5955412000003,264.5955412000003,264.5955412000003,264.5955412000003,264.5955412000003,264.5955412000003,264.5955412000003,264.5955412000003,264.5955412000003,,007,P015,2025_Feb_28_1846,ConditionRich,2021.2.3,59.94190430534635,
220.0,223.75,3,0.75,Stimuli/P015/sun_aiogwnavezqxkzfg.jpg,0,0,0.0,0,95,95,95,,,,,,,,,,,,,220.01127590000033,0.011275900000327965,None,264.8624603999997,264.8624603999997,264.8624603999997,264.8624603999997,264.8624603999997,264.8624603999997,264.8624603999997,264.8624603999997,264.8624603999997,264.8624603999997,,007,P015,2025_Feb_28_1846,ConditionRich,2021.2.3,59.94190430534635,
223.75,224.0,41,0.0,Stimuli/Blank.png,0,0,0.0,0,96,96,96,,,,,,,,,,,,,223.7817955999999,0.031795599999895785,None,268.63245330000063,268.63245330000063,268.63245330000063,268.63245330000063,268.63245330000063,268.63245330000063,268.63245330000063,268.63245330000063,268.63245330000063,268.63245330000063,,007,P015,2025_Feb_28_1846,ConditionRich,2021.2.3,59.94190430534635,
224.0,227.75,7,0.75,Stimuli/P015/sun_aqdfrmtvewaapuqs.jpg,0,0,0.0,0,97,97,97,,,,,,,,,,,,,224.03171060000022,0.031710600000224076,None,268.8659931000002,268.8659931000002,268.8659931000002,268.8659931000002,268.8659931000002,268.8659931000002,268.8659931000002,268.8659931000002,268.8659931000002,268.8659931000002,,007,P015,2025_Feb_28_1846,ConditionRich,2021.2.3,59.94190430534635,
227.75,228.0,41,0.0,Stimuli/Blank.png,0,0,0.0,0,98,98,98,,,,,,,,,,,,,227.75157150000086,0.0015715000008640345,None,272.58595290000085,272.58595290000085,272.58595290000085,272.58595290000085,272.58595290000085,272.58595290000085,272.58595290000085,272.58595290000085,272.58595290000085,272.58595290000085,,007,P015,2025_Feb_28_1846,ConditionRich,2021.2.3,59.94190430534635,
228.0,231.75,34,0.75,Stimuli/P015/things_shower_cap_08s.jpg,0,0,0.0,0,99,99,99,,,,,,,,,,,,,228.00141220000296,0.0014122000029601622,None,272.8361683000003,272.8361683000003,272.8361683000003,272.8361683000003,272.8361683000003,272.8361683000003,272.8361683000003,272.8361683000003,272.8361683000003,272.8361683000003,,007,P015,2025_Feb_28_1846,ConditionRich,2021.2.3,59.94190430534635,
231.75,232.0,41,0.0,Stimuli/Blank.png,0,0,0.0,0,100,100,100,,,,,,,,,,,,,231.75527800000054,0.005278000000544125,None,276.5894979000004,276.5894979000004,276.5894979000004,276.5894979000004,276.5894979000004,276.5894979000004,276.5894979000004,276.5894979000004,276.5894979000004,276.5894979000004,,007,P015,2025_Feb_28_1846,ConditionRich,2021.2.3,59.94190430534635,
232.0,235.75,16,0.75,Stimuli/P015/sun_bwhuwxazfqwuqhik.jpg,1,2,2.75,0,101,101,101,,,,,,,,,,,,,232.00477390000015,0.004773900000145659,1,276.8397040000018,276.8397040000018,276.8397040000018,276.8397040000018,276.8397040000018,276.8397040000018,278.8248072999995,279.57546300000104,276.8397040000018,276.8397040000018,2.4496875000004366,007,P015,2025_Feb_28_1846,ConditionRich,2021.2.3,59.94190430534635,
235.75,236.0,41,0.0,Stimuli/Blank.png,0,0,0.0,0,102,102,102,,,,,,,,,,,,,235.75808260000122,0.008082600001216633,None,280.59303170000203,280.59303170000203,280.59303170000203,280.59303170000203,280.59303170000203,280.59303170000203,280.59303170000203,280.59303170000203,280.59303170000203,280.59303170000203,,007,P015,2025_Feb_28_1846,ConditionRich,2021.2.3,59.94190430534635,
236.0,239.75,33,0.75,Stimuli/P015/things_raccoon_08n.jpg,1,1,1.75,0,103,103,103,,,,,,,,,,,,,236.009086500002,0.009086500002013054,1,280.8599377000028,280.8599377000028,280.8599377000028,280.8599377000028,280.8599377000028,280.8599377000028,281.827459600001,282.57813180000085,280.8599377000028,280.8599377000028,1.4117838000020129,007,P015,2025_Feb_28_1846,ConditionRich,2021.2.3,59.94190430534635,
239.75,240.0,41,0.0,Stimuli/Blank.png,0,0,0.0,0,104,104,104,,,,,,,,,,,,,239.7790722000027,0.02907220000270172,None,284.6132448999997,284.6132448999997,284.6132448999997,284.6132448999997,284.6132448999997,284.6132448999997,284.6132448999997,284.6132448999997,284.6132448999997,284.6132448999997,,007,P015,2025_Feb_28_1846,ConditionRich,2021.2.3,59.94190430534635,
240.0,243.75,27,0.75,Stimuli/P015/things_girl_08s.jpg,1,0,0.75,0,105,105,105,,,,,,,,,,,,,240.01286670000263,0.01286670000263257,1,284.8635042999995,284.8635042999995,284.8635042999995,284.8635042999995,284.8635042999995,284.8635042999995,284.8635042999995,285.58078650000243,284.8635042999995,284.8635042999995,0.5527499000017997,007,P015,2025_Feb_28_1846,ConditionRich,2021.2.3,59.94190430534635,
243.75,244.0,41,0.0,Stimuli/Blank.png,0,0,0.0,0,106,106,106,,,,,,,,,,,,,243.76592900000105,0.015929000001051463,None,288.6001209999995,288.6001209999995,288.6001209999995,288.6001209999995,288.6001209999995,288.6001209999995,288.6001209999995,288.6001209999995,288.6001209999995,288.6001209999995,,007,P015,2025_Feb_28_1846,ConditionRich,2021.2.3,59.94190430534635,
244.0,247.75,19,0.75,Stimuli/P015/sun_bzhwvgrzvttqoexa.jpg,0,0,0.0,0,107,107,107,,,,,,,,,,,,,243.999725200003,-0.0002747999969869852,None,288.8503101999995,288.8503101999995,288.8503101999995,288.8503101999995,288.8503101999995,288.8503101999995,288.8503101999995,288.8503101999995,288.8503101999995,288.8503101999995,,007,P015,2025_Feb_28_1846,ConditionRich,2021.2.3,59.94190430534635,
247.75,248.0,41,0.0,Stimuli/Blank.png,0,0,0.0,0,108,108,108,,,,,,,,,,,,,247.7689582000021,0.018958200002089143,None,292.6036674999996,292.6036674999996,292.6036674999996,292.6036674999996,292.6036674999996,292.6036674999996,292.6036674999996,292.6036674999996,292.6036674999996,292.6036674999996,,007,P015,2025_Feb_28_1846,ConditionRich,2021.2.3,59.94190430534635,
248.0,251.75,32,0.75,Stimuli/P015/things_pheasant_08s.jpg,1,3,3.75,0,109,109,109,,,,,,,,,,,,,248.0030450000013,0.0030450000012933742,1,292.85385600000154,292.85385600000154,292.85385600000154,292.85385600000154,292.85385600000154,292.85385600000154,295.8231811000005,296.57383990000017,292.85385600000154,292.85385600000154,3.4173511999979382,007,P015,2025_Feb_28_1846,ConditionRich,2021.2.3,59.94190430534635,
251.75,252.0,41,0.0,Stimuli/Blank.png,0,0,0.0,0,110,110,110,,,,,,,,,,,,,251.77452110000013,0.02452110000012908,None,296.62389520000215,296.62389520000215,296.62389520000215,296.62389520000215,296.62389520000215,296.62389520000215,296.62389520000215,296.62389520000215,296.62389520000215,296.62389520000215,,007,P015,2025_Feb_28_1846,ConditionRich,2021.2.3,59.94190430534635,
252.0,255.75,1,0.75,Stimuli/P015/sun_aacpzgqrortyhyss.jpg,0,0,0.0,0,111,111,111,,,,,,,,,,,,,252.023176900002,0.023176900001999456,None,296.87413070000184,296.87413070000184,296.87413070000184,296.87413070000184,296.87413070000184,296.87413070000184,296.87413070000184,296.87413070000184,296.87413070000184,296.87413070000184,,007,P015,2025_Feb_28_1846,ConditionRich,2021.2.3,59.94190430534635,
255.75,256.0,41,0.0,Stimuli/Blank.png,0,0,0.0,0,112,112,112,,,,,,,,,,,,,255.77604030000293,0.02604030000293278,None,300.62752570000157,300.62752570000157,300.62752570000157,300.62752570000157,300.62752570000157,300.62752570000157,300.62752570000157,300.62752570000157,300.62752570000157,300.62752570000157,,007,P015,2025_Feb_28_1846,ConditionRich,2021.2.3,59.94190430534635,
256.0,259.75,12,0.75,Stimuli/P015/sun_boffixsnbbloarty.jpg,0,0,0.0,0,113,113,113,,,,,,,,,,,,,256.0287062000025,0.028706200002488913,None,300.87765539999964,300.87765539999964,300.87765539999964,300.87765539999964,300.87765539999964,300.87765539999964,300.87765539999964,300.87765539999964,300.87765539999964,300.87765539999964,,007,P015,2025_Feb_28_1846,ConditionRich,2021.2.3,59.94190430534635,
259.75,260.0,41,0.0,Stimuli/Blank.png,0,0,0.0,0,114,114,114,,,,,,,,,,,,,259.7801180000024,0.030118000002403278,None,304.6143109000004,304.6143109000004,304.6143109000004,304.6143109000004,304.6143109000004,304.6143109000004,304.6143109000004,304.6143109000004,304.6143109000004,304.6143109000004,,007,P015,2025_Feb_28_1846,ConditionRich,2021.2.3,59.94190430534635,
260.0,263.75,25,0.75,Stimuli/P015/things_deer_08s.jpg,0,0,0.0,0,115,115,115,,,,,,,,,,,,,260.01348270000017,0.013482700000167824,None,304.86453370000163,304.86453370000163,304.86453370000163,304.86453370000163,304.86453370000163,304.86453370000163,304.86453370000163,304.86453370000163,304.86453370000163,304.86453370000163,,007,P015,2025_Feb_28_1846,ConditionRich,2021.2.3,59.94190430534635,
263.75,264.0,41,0.0,Stimuli/Blank.png,0,0,0.0,0,116,116,116,,,,,,,,,,,,,263.76719480000247,0.01719480000247131,None,308.6011660000004,308.6011660000004,308.6011660000004,308.6011660000004,308.6011660000004,308.6011660000004,308.6011660000004,308.6011660000004,308.6011660000004,308.6011660000004,,007,P015,2025_Feb_28_1846,ConditionRich,2021.2.3,59.94190430534635,
264.0,267.75,22,0.75,Stimuli/P015/things_baby_08s.jpg,0,0,0.0,0,117,117,117,,,,,,,,,,,,,264.0005001000027,0.0005001000026823021,None,308.8514071000027,308.8514071000027,308.8514071000027,308.8514071000027,308.8514071000027,308.8514071000027,308.8514071000027,308.8514071000027,308.8514071000027,308.8514071000027,,007,P015,2025_Feb_28_1846,ConditionRich,2021.2.3,59.94190430534635,
267.75,268.0,41,0.0,Stimuli/Blank.png,0,0,0.0,0,118,118,118,,,,,,,,,,,,,267.7708143000018,0.02081430000180262,None,312.60471040000266,312.60471040000266,312.60471040000266,312.60471040000266,312.60471040000266,312.60471040000266,312.60471040000266,312.60471040000266,312.60471040000266,312.60471040000266,,007,P015,2025_Feb_28_1846,ConditionRich,2021.2.3,59.94190430534635,
268.0,271.75,4,0.75,Stimuli/P015/sun_aiwuqxdqzftsfyeg.jpg,0,0,0.0,0,119,119,119,,,,,,,,,,,,,268.0042598,0.004259799999999814,None,312.8382393000029,312.8382393000029,312.8382393000029,312.8382393000029,312.8382393000029,312.8382393000029,312.8382393000029,312.8382393000029,312.8382393000029,312.8382393000029,,007,P015,2025_Feb_28_1846,ConditionRich,2021.2.3,59.94190430534635,
271.75,272.0,41,0.0,Stimuli/Blank.png,0,0,0.0,0,120,120,120,,,,,,,,,,,,,271.75733220000257,0.007332200002565514,None,316.59155250000185,316.59155250000185,316.59155250000185,316.59155250000185,316.59155250000185,316.59155250000185,316.59155250000185,316.59155250000185,316.59155250000185,316.59155250000185,,007,P015,2025_Feb_28_1846,ConditionRich,2021.2.3,59.94190430534635,
272.0,275.75,24,0.75,Stimuli/P015/things_bunkbed_08s.jpg,0,0,0.0,0,121,121,121,,,,,,,,,,,,,272.0080846000019,0.008084600001893705,None,316.8584609999998,316.8584609999998,316.8584609999998,316.8584609999998,316.8584609999998,316.8584609999998,316.8584609999998,316.8584609999998,316.8584609999998,316.8584609999998,,007,P015,2025_Feb_28_1846,ConditionRich,2021.2.3,59.94190430534635,
275.75,276.0,41,0.0,Stimuli/Blank.png,0,0,0.0,0,122,122,122,,,,,,,,,,,,,275.77751790000184,0.027517900001839735,None,320.61177840000164,320.61177840000164,320.61177840000164,320.61177840000164,320.61177840000164,320.61177840000164,320.61177840000164,320.61177840000164,320.61177840000164,320.61177840000164,,007,P015,2025_Feb_28_1846,ConditionRich,2021.2.3,59.94190430534635,
276.0,292.0,0,0.0,Stimuli/Blank.png,1,8,8.75,0,123,123,123,,,,,,,,,,,,,276.01107440000123,0.011074400001234608,1,320.84532089999993,320.84532089999993,320.84532089999993,320.84532089999993,320.84532089999993,320.84532089999993,328.83571980000124,329.5863938000002,320.84532089999993,320.84532089999993,8.506100700000388,007,P015,2025_Feb_28_1846,ConditionRich,2021.2.3,59.94190430534635,
292.0,295.75,23,0.75,Stimuli/P015/things_boy_08s.jpg,0,0,0.0,0,124,124,124,,,,,,,,,,,,,292.0091988000022,0.00919880000219564,None,336.8595196999995,336.8595196999995,336.8595196999995,336.8595196999995,336.8595196999995,336.8595196999995,336.8595196999995,336.8595196999995,336.8595196999995,336.8595196999995,,007,P015,2025_Feb_28_1846,ConditionRich,2021.2.3,59.94190430534635,
295.75,296.0,41,0.0,Stimuli/Blank.png,0,0,0.0,0,125,125,125,,,,,,,,,,,,,295.77886630000285,0.0288663000028464,None,340.6128205999994,340.6128205999994,340.6128205999994,340.6128205999994,340.6128205999994,340.6128205999994,340.6128205999994,340.6128205999994,340.6128205999994,340.6128205999994,,007,P015,2025_Feb_28_1846,ConditionRich,2021.2.3,59.94190430534635,
296.0,299.75,21,0.75,Stimuli/P015/things_arch_08s.jpg,1,2,2.75,0,126,126,126,,,,,,,,,,,,,296.0118992000025,0.011899200002517318,1,340.8463451000025,340.8463451000025,340.8463451000025,340.8463451000025,340.8463451000025,340.8463451000025,342.8314355000002,343.58209780000107,340.8463451000025,340.8463451000025,2.5082504999991215,007,P015,2025_Feb_28_1846,ConditionRich,2021.2.3,59.94190430534635,
299.75,300.0,41,0.0,Stimuli/Blank.png,0,0,0.0,0,127,127,127,,,,,,,,,,,,,299.7672713000029,0.017271300002903445,None,344.6163704999999,344.6163704999999,344.6163704999999,344.6163704999999,344.6163704999999,344.6163704999999,344.6163704999999,344.6163704999999,344.6163704999999,344.6163704999999,,007,P015,2025_Feb_28_1846,ConditionRich,2021.2.3,59.94190430534635,
300.0,303.75,9,0.75,Stimuli/P015/sun_bbdgftzhpkaklkll.jpg,0,0,0.0,0,128,128,128,,,,,,,,,,,,,300.01723889999994,0.01723889999993844,None,344.8665820000024,344.8665820000024,344.8665820000024,344.8665820000024,344.8665820000024,344.8665820000024,344.8665820000024,344.8665820000024,344.8665820000024,344.8665820000024,,007,P015,2025_Feb_28_1846,ConditionRich,2021.2.3,59.94190430534635,
303.75,304.0,41,0.0,Stimuli/Blank.png,0,0,0.0,0,129,129,129,,,,,,,,,,,,,303.76894110000285,0.018941100002848543,None,348.6032159999995,348.6032159999995,348.6032159999995,348.6032159999995,348.6032159999995,348.6032159999995,348.6032159999995,348.6032159999995,348.6032159999995,348.6032159999995,,007,P015,2025_Feb_28_1846,ConditionRich,2021.2.3,59.94190430534635,
304.0,307.75,15,0.75,Stimuli/P015/sun_bvfcijehgdsndfbg.jpg,0,0,0.0,0,130,130,130,,,,,,,,,,,,,304.0017603000015,0.001760300001478754,None,348.83675720000247,348.83675720000247,348.83675720000247,348.83675720000247,348.83675720000247,348.83675720000247,348.83675720000247,348.83675720000247,348.83675720000247,348.83675720000247,,007,P015,2025_Feb_28_1846,ConditionRich,2021.2.3,59.94190430534635,
307.75,308.0,41,0.0,Stimuli/Blank.png,0,0,0.0,0,131,131,131,,,,,,,,,,,,,307.75810230000207,0.008102300002065022,None,352.60677670000223,352.60677670000223,352.60677670000223,352.60677670000223,352.60677670000223,352.60677670000223,352.60677670000223,352.60677670000223,352.60677670000223,352.60677670000223,,007,P015,2025_Feb_28_1846,ConditionRich,2021.2.3,59.94190430534635,
308.0,311.75,5,0.75,Stimuli/P015/sun_ajgmxbrxdpmsaext.jpg,0,0,0.0,0,132,132,132,,,,,,,,,,,,,308.0227059000026,0.022705900002620183,None,352.8569821000019,352.8569821000019,352.8569821000019,352.8569821000019,352.8569821000019,352.8569821000019,352.8569821000019,352.8569821000019,352.8569821000019,352.8569821000019,,007,P015,2025_Feb_28_1846,ConditionRich,2021.2.3,59.94190430534635,
311.75,312.0,41,0.0,Stimuli/Blank.png,0,0,0.0,0,133,133,133,,,,,,,,,,,,,311.7591170000014,0.009117000001424458,None,356.5936131000017,356.5936131000017,356.5936131000017,356.5936131000017,356.5936131000017,356.5936131000017,356.5936131000017,356.5936131000017,356.5936131000017,356.5936131000017,,007,P015,2025_Feb_28_1846,ConditionRich,2021.2.3,59.94190430534635,
312.0,315.75,39,0.75,Stimuli/P015/things_window_08s.jpg,0,0,0.0,0,134,134,134,,,,,,,,,,,,,312.00963950000005,0.009639500000048429,None,356.8438462000013,356.8438462000013,356.8438462000013,356.8438462000013,356.8438462000013,356.8438462000013,356.8438462000013,356.8438462000013,356.8438462000013,356.8438462000013,,007,P015,2025_Feb_28_1846,ConditionRich,2021.2.3,59.94190430534635,
315.75,316.0,41,0.0,Stimuli/Blank.png,0,0,0.0,0,135,135,135,,,,,,,,,,,,,315.7631298000015,0.013129800001479452,None,360.5971737,360.5971737,360.5971737,360.5971737,360.5971737,360.5971737,360.5971737,360.5971737,360.5971737,360.5971737,,007,P015,2025_Feb_28_1846,ConditionRich,2021.2.3,59.94190430534635,
316.0,319.75,8,0.75,Stimuli/P015/sun_arldxotvfucvuudk.jpg,0,0,0.0,0,136,136,136,,,,,,,,,,,,,316.0132314000002,0.013231400000222493,None,360.8640627999994,360.8640627999994,360.8640627999994,360.8640627999994,360.8640627999994,360.8640627999994,360.8640627999994,360.8640627999994,360.8640627999994,360.8640627999994,,007,P015,2025_Feb_28_1846,ConditionRich,2021.2.3,59.94190430534635,
319.75,320.0,41,0.0,Stimuli/Blank.png,0,0,0.0,0,137,137,137,,,,,,,,,,,,,319.76663570000164,0.016635700001643272,None,364.60071940000125,364.60071940000125,364.60071940000125,364.60071940000125,364.60071940000125,364.60071940000125,364.60071940000125,364.60071940000125,364.60071940000125,364.60071940000125,,007,P015,2025_Feb_28_1846,ConditionRich,2021.2.3,59.94190430534635,
320.0,323.75,31,0.75,Stimuli/P015/things_outlet_08s.jpg,1,1,1.75,0,138,138,138,,,,,,,,,,,,,320.00001070000144,1.0700001439545304e-05,1,364.8342522000021,364.8342522000021,364.8342522000021,364.8342522000021,364.8342522000021,364.8342522000021,365.81846770000266,366.56920540000283,364.8342522000021,364.8342522000021,1.4660703000008652,007,P015,2025_Feb_28_1846,ConditionRich,2021.2.3,59.94190430534635,
323.75,324.0,41,0.0,Stimuli/Blank.png,0,0,0.0,0,139,139,139,,,,,,,,,,,,,323.7538413000002,0.0038413000002037734,None,368.5875749000006,368.5875749000006,368.5875749000006,368.5875749000006,368.5875749000006,368.5875749000006,368.5875749000006,368.5875749000006,368.5875749000006,368.5875749000006,,007,P015,2025_Feb_28_1846,ConditionRich,2021.2.3,59.94190430534635,
324.0,327.75,13,0.75,Stimuli/P015/sun_bphvjnowixlryxot.jpg,0,0,0.0,0,140,140,140,,,,,,,,,,,,,324.0035796000011,0.0035796000011032447,None,368.85447190000195,368.85447190000195,368.85447190000195,368.85447190000195,368.85447190000195,368.85447190000195,368.85447190000195,368.85447190000195,368.85447190000195,368.85447190000195,,007,P015,2025_Feb_28_1846,ConditionRich,2021.2.3,59.94190430534635,
327.75,328.0,41,0.0,Stimuli/Blank.png,0,0,0.0,0,141,141,141,,,,,,,,,,,,,327.77351930000077,0.02351930000077118,None,372.6077992000028,372.6077992000028,372.6077992000028,372.6077992000028,372.6077992000028,372.6077992000028,372.6077992000028,372.6077992000028,372.6077992000028,372.6077992000028,,007,P015,2025_Feb_28_1846,ConditionRich,2021.2.3,59.94190430534635,
328.0,331.75,26,0.75,Stimuli/P015/things_face_08s.jpg,1,3,3.75,0,142,142,142,,,,,,,,,,,,,328.00637930000084,0.006379300000844523,1,372.8580425,372.8580425,372.8580425,372.8580425,372.8580425,372.8580425,375.8273012999998,376.5779930000026,372.8580425,372.8580425,3.397428199998103,007,P015,2025_Feb_28_1846,ConditionRich,2021.2.3,59.94190430534635,
331.75,332.0,41,0.0,Stimuli/Blank.png,0,0,0.0,0,143,143,143,,,,,,,,,,,,,331.7792057000006,0.02920570000060252,None,376.62798720000137,376.62798720000137,376.62798720000137,376.62798720000137,376.62798720000137,376.62798720000137,376.62798720000137,376.62798720000137,376.62798720000137,376.62798720000137,,007,P015,2025_Feb_28_1846,ConditionRich,2021.2.3,59.94190430534635,
332.0,335.75,36,0.75,Stimuli/P015/things_streetlight_08s.jpg,0,0,0.0,0,144,144,144,,,,,,,,,,,,,332.0271584000002,0.02715840000018943,None,376.8615635999995,376.8615635999995,376.8615635999995,376.8615635999995,376.8615635999995,376.8615635999995,376.8615635999995,376.8615635999995,376.8615635999995,376.8615635999995,,007,P015,2025_Feb_28_1846,ConditionRich,2021.2.3,59.94190430534635,
335.75,336.0,41,0.0,Stimuli/Blank.png,0,0,0.0,0,145,145,145,,,,,,,,,,,,,335.7637284000011,0.013728400001127739,None,380.5982040000017,380.5982040000017,380.5982040000017,380.5982040000017,380.5982040000017,380.5982040000017,380.5982040000017,380.5982040000017,380.5982040000017,380.5982040000017,,007,P015,2025_Feb_28_1846,ConditionRich,2021.2.3,59.94190430534635,
336.0,339.75,18,0.75,Stimuli/P015/sun_byavixgfuhzioilz.jpg,0,0,0.0,0,146,146,146,,,,,,,,,,,,,336.01406770000176,0.014067700001760386,None,380.848427500001,380.848427500001,380.848427500001,380.848427500001,380.848427500001,380.848427500001,380.848427500001,380.848427500001,380.848427500001,380.848427500001,,007,P015,2025_Feb_28_1846,ConditionRich,2021.2.3,59.94190430534635,
339.75,340.0,41,0.0,Stimuli/Blank.png,0,0,0.0,0,147,147,147,,,,,,,,,,,,,339.75069590000203,0.0006959000020287931,None,384.5852593000018,384.5852593000018,384.5852593000018,384.5852593000018,384.5852593000018,384.5852593000018,384.5852593000018,384.5852593000018,384.5852593000018,384.5852593000018,,007,P015,2025_Feb_28_1846,ConditionRich,2021.2.3,59.94190430534635,
340.0,343.75,10,0.75,Stimuli/P015/sun_bfojpvrlsrtfyzio.jpg,1,1,1.75,0,148,148,148,,,,,,,,,,,,,340.00076320000153,0.0007632000015291851,1,384.8352874000011,384.8352874000011,384.8352874000011,384.8352874000011,384.8352874000011,384.8352874000011,385.81949069999973,386.5701990000016,384.8352874000011,384.8352874000011,1.4119688999999198,007,P015,2025_Feb_28_1846,ConditionRich,2021.2.3,59.94190430534635,
343.75,344.0,41,0.0,Stimuli/Blank.png,0,0,0.0,0,149,149,149,,,,,,,,,,,,,343.75504920000094,0.005049200000939891,None,388.6052896000001,388.6052896000001,388.6052896000001,388.6052896000001,388.6052896000001,388.6052896000001,388.6052896000001,388.6052896000001,388.6052896000001,388.6052896000001,,007,P015,2025_Feb_28_1846,ConditionRich,2021.2.3,59.94190430534635,
344.0,347.75,14,0.75,Stimuli/P015/sun_bpvmkbyglkraoxhh.jpg,0,0,0.0,0,150,150,150,,,,,,,,,,,,,344.0207773000002,0.020777300000190735,None,388.8721891000023,388.8721891000023,388.8721891000023,388.8721891000023,388.8721891000023,388.8721891000023,388.8721891000023,388.8721891000023,388.8721891000023,388.8721891000023,,007,P015,2025_Feb_28_1846,ConditionRich,2021.2.3,59.94190430534635,
347.75,348.0,41,0.0,Stimuli/Blank.png,0,0,0.0,0,151,151,151,,,,,,,,,,,,,347.7746091000008,0.024609100000816397,None,392.6088340000024,392.6088340000024,392.6088340000024,392.6088340000024,392.6088340000024,392.6088340000024,392.6088340000024,392.6088340000024,392.6088340000024,392.6088340000024,,007,P015,2025_Feb_28_1846,ConditionRich,2021.2.3,59.94190430534635,
348.0,351.75,29,0.75,Stimuli/P015/things_mouse1_08s.jpg,0,0,0.0,0,152,152,152,,,,,,,,,,,,,348.0105936,0.010593599999992875,None,392.85906500000056,392.85906500000056,392.85906500000056,392.85906500000056,392.85906500000056,392.85906500000056,392.85906500000056,392.85906500000056,392.85906500000056,392.85906500000056,,007,P015,2025_Feb_28_1846,ConditionRich,2021.2.3,59.94190430534635,
351.75,352.0,41,0.0,Stimuli/Blank.png,0,0,0.0,0,153,153,153,,,,,,,,,,,,,351.7782279000021,0.02822790000209352,None,396.6123733000022,396.6123733000022,396.6123733000022,396.6123733000022,396.6123733000022,396.6123733000022,396.6123733000022,396.6123733000022,396.6123733000022,396.6123733000022,,007,P015,2025_Feb_28_1846,ConditionRich,2021.2.3,59.94190430534635,
352.0,355.75,30,0.75,Stimuli/P015/things_ottoman_08s.jpg,0,0,0.0,0,154,154,154,,,,,,,,,,,,,352.0114773000023,0.011477300002297852,None,396.86259600000267,396.86259600000267,396.86259600000267,396.86259600000267,396.86259600000267,396.86259600000267,396.86259600000267,396.86259600000267,396.86259600000267,396.86259600000267,,007,P015,2025_Feb_28_1846,ConditionRich,2021.2.3,59.94190430534635,
355.75,356.0,41,0.0,Stimuli/Blank.png,0,0,0.0,0,155,155,155,,,,,,,,,,,,,355.78182620000007,0.03182620000006864,None,400.6159152,400.6159152,400.6159152,400.6159152,400.6159152,400.6159152,400.6159152,400.6159152,400.6159152,400.6159152,,007,P015,2025_Feb_28_1846,ConditionRich,2021.2.3,59.94190430534635,
356.0,359.75,38,0.75,Stimuli/P015/things_trumpet_08s.jpg,1,3,3.75,0,156,156,156,,,,,,,,,,,,,356.01564820000203,0.015648200002033263,1,400.8494511000026,400.8494511000026,400.8494511000026,400.8494511000026,400.8494511000026,400.8494511000026,403.8354322000014,None,400.8494511000026,400.8494511000026,3.5408910000005562,007,P015,2025_Feb_28_1846,ConditionRich,2021.2.3,59.94190430534635,
359.75,360.0,41,0.0,Stimuli/Blank.png,0,0,0.0,0,157,157,157,,,,,,,,,,,,,359.75232049999977,0.002320499999768799,None,404.60281190000023,404.60281190000023,404.60281190000023,404.60281190000023,404.60281190000023,404.60281190000023,404.60281190000023,404.60281190000023,404.60281190000023,404.60281190000023,,007,P015,2025_Feb_28_1846,ConditionRich,2021.2.3,59.94190430534635,
360.0,363.75,37,0.75,Stimuli/P015/things_swizzle_stick_08s.jpg,0,0,0.0,0,158,158,158,,,,,,,,,,,,,360.01804430000266,0.01804430000265711,None,404.8530036000011,404.8530036000011,404.8530036000011,404.8530036000011,404.8530036000011,404.8530036000011,404.8530036000011,404.8530036000011,404.8530036000011,404.8530036000011,,007,P015,2025_Feb_28_1846,ConditionRich,2021.2.3,59.94190430534635,
363.75,364.0,41,0.0,Stimuli/Blank.png,0,0,0.0,0,159,159,159,,,,,,,,,,,,,363.7552962000009,0.00529620000088471,None,408.5896367999994,408.5896367999994,408.5896367999994,408.5896367999994,408.5896367999994,408.5896367999994,408.5896367999994,408.5896367999994,408.5896367999994,408.5896367999994,,007,P015,2025_Feb_28_1846,ConditionRich,2021.2.3,59.94190430534635,
364.0,367.75,35,0.75,Stimuli/P015/things_squid_08s.jpg,0,0,0.0,0,160,160,160,,,,,,,,,,,,,364.0058515000019,0.005851500001881504,None,408.8565430000017,408.8565430000017,408.8565430000017,408.8565430000017,408.8565430000017,408.8565430000017,408.8565430000017,408.8565430000017,408.8565430000017,408.8565430000017,,007,P015,2025_Feb_28_1846,ConditionRich,2021.2.3,59.94190430534635,
367.75,368.0,41,0.0,Stimuli/Blank.png,0,0,0.0,0,161,161,161,,,,,,,,,,,,,367.7770950000013,0.027095000001281733,None,412.6265491000013,412.6265491000013,412.6265491000013,412.6265491000013,412.6265491000013,412.6265491000013,412.6265491000013,412.6265491000013,412.6265491000013,412.6265491000013,,007,P015,2025_Feb_28_1846,ConditionRich,2021.2.3,59.94190430534635,
368.0,371.75,28,0.75,Stimuli/P015/things_latte_08s.jpg,0,0,0.0,0,162,162,162,,,,,,,,,,,,,368.0272186000002,0.027218600000196602,None,412.8767685000021,412.8767685000021,412.8767685000021,412.8767685000021,412.8767685000021,412.8767685000021,412.8767685000021,412.8767685000021,412.8767685000021,412.8767685000021,,007,P015,2025_Feb_28_1846,ConditionRich,2021.2.3,59.94190430534635,
371.75,372.0,41,0.0,Stimuli/Blank.png,0,0,0.0,0,163,163,163,,,,,,,,,,,,,371.7789767000031,0.028976700003113365,None,416.61341190000167,416.61341190000167,416.61341190000167,416.61341190000167,416.61341190000167,416.61341190000167,416.61341190000167,416.61341190000167,416.61341190000167,416.61341190000167,,007,P015,2025_Feb_28_1846,ConditionRich,2021.2.3,59.94190430534635,
372.0,388.0,0,0.0,Stimuli/Blank.png,1,9,9.75,0,164,164,164,,,,,,,,,,,,,372.0129201000018,0.012920100001792889,1,416.8469514999997,416.8469514999997,416.8469514999997,416.8469514999997,416.8469514999997,416.8469514999997,425.8382939000003,426.5888648,416.8469514999997,416.8469514999997,9.503430300002947,007,P015,2025_Feb_28_1846,ConditionRich,2021.2.3,59.94190430534635,
