eventStartTime,eventEndTime,eventCond,imSize,imFile,responseEvent,fixRespStart,fixRespEnd,Events.thisRepN,Events.thisTrialN,Events.thisN,Events.thisIndex,Instructions.started,Instructions.stopped,participantReadyResponse.keys,participantReadyResponse.rt,participantReadyResponse.started,participantReadyResponse.stopped,startWaitforTrigger,triggerResponse.keys,triggerResponse.rt,triggerResponse.started,triggerResponse.stopped,globalTimer,actualStartTime,startTimingDiff,participantResponse.keys,participantResponse.started,participantResponse.stopped,image.started,image.stopped,fixationOutside.started,fixationOutside.stopped,fixationResponse.started,fixationResponse.stopped,fixationInside.started,fixationInside.stopped,participantResponse.rt,session,participant,date,expName,psychopyVersion,frameRate,
,,,,,,,,,,,,12.20474159999867,None,1,13.479265199999645,12.20474159999867,None,,,,,,,,,,,,,,,,,,,,,008,P015,2025_Feb_28_1854,ConditionRich,2021.2.3,59.89501601577316,
,,,,,,,,,,,,,,,,,,25.69602490000034,5,14.510976099998516,25.70906599999944,None,,,,,,,,,,,,,,,,008,P015,2025_Feb_28_1854,ConditionRich,2021.2.3,59.89501601577316,
0.0,4.0,0,0.0,Stimuli/Blank.png,0,0.0,0.0,0,0,0,0,,,,,,,,,,,,40.22476820000156,0.03934260000096401,0.03934260000096401,None,40.2886354000002,None,40.2886354000002,None,40.2886354000002,None,40.2886354000002,40.2886354000002,40.2886354000002,None,,008,P015,2025_Feb_28_1854,ConditionRich,2021.2.3,59.89501601577316,
4.0,4.75,25,0.75,Stimuli/P015/things_deer_08s.jpg,0,0.0,0.0,0,1,1,1,,,,,,,,,,,,,4.024234799999249,0.024234799999248935,None,44.27586689999953,44.27586689999953,44.27586689999953,44.27586689999953,44.27586689999953,44.27586689999953,44.27586689999953,44.27586689999953,44.27586689999953,44.27586689999953,,008,P015,2025_Feb_28_1854,ConditionRich,2021.2.3,59.89501601577316,
4.75,8.0,41,0.0,Stimuli/Blank.png,0,0.0,0.0,0,2,2,2,,,,,,,,,,,,,4.771367299999838,0.021367299999837996,None,45.00979430000007,45.00979430000007,45.00979430000007,45.00979430000007,45.00979430000007,45.00979430000007,45.00979430000007,45.00979430000007,45.00979430000007,45.00979430000007,,008,P015,2025_Feb_28_1854,ConditionRich,2021.2.3,59.89501601577316,
8.0,8.75,31,0.75,Stimuli/P015/things_outlet_08s.jpg,0,0.0,0.0,0,3,3,3,,,,,,,,,,,,,8.006768999999622,0.006768999999621883,None,48.245666200000414,48.245666200000414,48.245666200000414,48.245666200000414,48.245666200000414,48.245666200000414,48.245666200000414,48.245666200000414,48.245666200000414,48.245666200000414,,008,P015,2025_Feb_28_1854,ConditionRich,2021.2.3,59.89501601577316,
8.75,12.0,41,0.0,Stimuli/Blank.png,0,0.0,0.0,0,4,4,4,,,,,,,,,,,,,8.756927899998118,0.006927899998117937,None,48.99636029999965,48.99636029999965,48.99636029999965,48.99636029999965,48.99636029999965,48.99636029999965,48.99636029999965,48.99636029999965,48.99636029999965,48.99636029999965,,008,P015,2025_Feb_28_1854,ConditionRich,2021.2.3,59.89501601577316,
12.0,12.75,4,0.75,Stimuli/P015/sun_aiwuqxdqzftsfyeg.jpg,0,0.0,0.0,0,5,5,5,,,,,,,,,,,,,12.011784800000896,0.011784800000896212,None,52.26590149999902,52.26590149999902,52.26590149999902,52.26590149999902,52.26590149999902,52.26590149999902,52.26590149999902,52.26590149999902,52.26590149999902,52.26590149999902,,008,P015,2025_Feb_28_1854,ConditionRich,2021.2.3,59.89501601577316,
12.75,16.0,41,0.0,Stimuli/Blank.png,1,2.25,3.0,0,6,6,6,,,,,,,,,,,,,12.77749269999913,0.0274926999991294,1,53.01658540000062,53.01658540000062,53.01658540000062,53.01658540000062,53.01658540000062,53.01658540000062,55.251927799999976,56.00257319999946,53.01658540000062,53.01658540000062,2.65530569999828,008,P015,2025_Feb_28_1854,ConditionRich,2021.2.3,59.89501601577316,
16.0,16.75,27,0.75,Stimuli/P015/things_girl_08s.jpg,0,0.0,0.0,0,7,7,7,,,,,,,,,,,,,16.013542799999414,0.013542799999413546,None,56.2694436999991,56.2694436999991,56.2694436999991,56.2694436999991,56.2694436999991,56.2694436999991,56.2694436999991,56.2694436999991,56.2694436999991,56.2694436999991,,008,P015,2025_Feb_28_1854,ConditionRich,2021.2.3,59.89501601577316,
16.75,20.0,41,0.0,Stimuli/Blank.png,0,0.0,0.0,0,8,8,8,,,,,,,,,,,,,16.782169499998417,0.03216949999841745,None,57.02011660000062,57.02011660000062,57.02011660000062,57.02011660000062,57.02011660000062,57.02011660000062,57.02011660000062,57.02011660000062,57.02011660000062,57.02011660000062,,008,P015,2025_Feb_28_1854,ConditionRich,2021.2.3,59.89501601577316,
20.0,20.75,35,0.75,Stimuli/P015/things_squid_08s.jpg,0,0.0,0.0,0,9,9,9,,,,,,,,,,,,,20.000447700000223,0.00044770000022253953,None,60.239621000000625,60.239621000000625,60.239621000000625,60.239621000000625,60.239621000000625,60.239621000000625,60.239621000000625,60.239621000000625,60.239621000000625,60.239621000000625,,008,P015,2025_Feb_28_1854,ConditionRich,2021.2.3,59.89501601577316,
20.75,24.0,41,0.0,Stimuli/Blank.png,0,0.0,0.0,0,10,10,10,,,,,,,,,,,,,20.75202260000151,0.00202260000151,None,60.99029309999969,60.99029309999969,60.99029309999969,60.99029309999969,60.99029309999969,60.99029309999969,60.99029309999969,60.99029309999969,60.99029309999969,60.99029309999969,,008,P015,2025_Feb_28_1854,ConditionRich,2021.2.3,59.89501601577316,
24.0,24.75,26,0.75,Stimuli/P015/things_face_08s.jpg,0,0.0,0.0,0,11,11,11,,,,,,,,,,,,,24.00446119999833,0.004461199998331722,None,64.24315760000172,64.24315760000172,64.24315760000172,64.24315760000172,64.24315760000172,64.24315760000172,64.24315760000172,64.24315760000172,64.24315760000172,64.24315760000172,,008,P015,2025_Feb_28_1854,ConditionRich,2021.2.3,59.89501601577316,
24.75,28.0,41,0.0,Stimuli/Blank.png,0,0.0,0.0,0,12,12,12,,,,,,,,,,,,,24.75567619999856,0.00567619999856106,None,64.99383790000138,64.99383790000138,64.99383790000138,64.99383790000138,64.99383790000138,64.99383790000138,64.99383790000138,64.99383790000138,64.99383790000138,64.99383790000138,,008,P015,2025_Feb_28_1854,ConditionRich,2021.2.3,59.89501601577316,
28.0,28.75,24,0.75,Stimuli/P015/things_bunkbed_08s.jpg,0,0.0,0.0,0,13,13,13,,,,,,,,,,,,,28.007619399999385,0.007619399999384768,None,68.24670619999961,68.24670619999961,68.24670619999961,68.24670619999961,68.24670619999961,68.24670619999961,68.24670619999961,68.24670619999961,68.24670619999961,68.24670619999961,,008,P015,2025_Feb_28_1854,ConditionRich,2021.2.3,59.89501601577316,
28.75,32.0,41,0.0,Stimuli/Blank.png,1,2.25,3.0,0,14,14,14,,,,,,,,,,,,,28.758484999998473,0.008484999998472631,1,68.99738090000028,68.99738090000028,68.99738090000028,68.99738090000028,68.99738090000028,68.99738090000028,71.23273369999879,71.98333590000038,68.99738090000028,68.99738090000028,2.659566000002087,008,P015,2025_Feb_28_1854,ConditionRich,2021.2.3,59.89501601577316,
32.0,32.75,15,0.75,Stimuli/P015/sun_bvfcijehgdsndfbg.jpg,0,0.0,0.0,0,15,15,15,,,,,,,,,,,,,32.01178989999971,0.011789899999712361,None,72.25024420000045,72.25024420000045,72.25024420000045,72.25024420000045,72.25024420000045,72.25024420000045,72.25024420000045,72.25024420000045,72.25024420000045,72.25024420000045,,008,P015,2025_Feb_28_1854,ConditionRich,2021.2.3,59.89501601577316,
32.75,36.0,41,0.0,Stimuli/Blank.png,0,0.0,0.0,0,16,16,16,,,,,,,,,,,,,32.764054999999644,0.014054999999643769,None,73.01759590000074,73.01759590000074,73.01759590000074,73.01759590000074,73.01759590000074,73.01759590000074,73.01759590000074,73.01759590000074,73.01759590000074,73.01759590000074,,008,P015,2025_Feb_28_1854,ConditionRich,2021.2.3,59.89501601577316,
36.0,36.75,19,0.75,Stimuli/P015/sun_bzhwvgrzvttqoexa.jpg,0,0.0,0.0,0,17,17,17,,,,,,,,,,,,,36.01438970000163,0.014389700001629535,None,76.25378640000054,76.25378640000054,76.25378640000054,76.25378640000054,76.25378640000054,76.25378640000054,76.25378640000054,76.25378640000054,76.25378640000054,76.25378640000054,,008,P015,2025_Feb_28_1854,ConditionRich,2021.2.3,59.89501601577316,
36.75,40.0,41,0.0,Stimuli/Blank.png,1,1.25,2.0,0,18,18,18,,,,,,,,,,,,,36.76551800000016,0.015518000000156462,1,77.00446809999994,77.00446809999994,77.00446809999994,77.00446809999994,77.00446809999994,77.00446809999994,78.23889229999986,78.98960019999868,77.00446809999994,77.00446809999994,1.6437563999970735,008,P015,2025_Feb_28_1854,ConditionRich,2021.2.3,59.89501601577316,
40.0,40.75,14,0.75,Stimuli/P015/sun_bpvmkbyglkraoxhh.jpg,0,0.0,0.0,0,19,19,19,,,,,,,,,,,,,40.004547399999865,0.004547399999864865,None,80.25735580000037,80.25735580000037,80.25735580000037,80.25735580000037,80.25735580000037,80.25735580000037,80.25735580000037,80.25735580000037,80.25735580000037,80.25735580000037,,008,P015,2025_Feb_28_1854,ConditionRich,2021.2.3,59.89501601577316,
40.75,44.0,41,0.0,Stimuli/Blank.png,1,0.25,1.0,0,20,20,20,,,,,,,,,,,,,40.76900519999981,0.01900519999981043,1,81.00799220000044,81.00799220000044,81.00799220000044,81.00799220000044,81.00799220000044,81.00799220000044,81.24154590000035,81.99220019999848,81.00799220000044,81.00799220000044,0.6552588999984437,008,P015,2025_Feb_28_1854,ConditionRich,2021.2.3,59.89501601577316,
44.0,44.75,38,0.75,Stimuli/P015/things_trumpet_08s.jpg,0,0.0,0.0,0,21,21,21,,,,,,,,,,,,,44.00581249999959,0.005812499999592546,None,84.26099439999962,84.26099439999962,84.26099439999962,84.26099439999962,84.26099439999962,84.26099439999962,84.26099439999962,84.26099439999962,84.26099439999962,84.26099439999962,,008,P015,2025_Feb_28_1854,ConditionRich,2021.2.3,59.89501601577316,
44.75,48.0,41,0.0,Stimuli/Blank.png,0,0.0,0.0,0,22,22,22,,,,,,,,,,,,,44.77328689999922,0.023286899999220623,None,85.01154269999824,85.01154269999824,85.01154269999824,85.01154269999824,85.01154269999824,85.01154269999824,85.01154269999824,85.01154269999824,85.01154269999824,85.01154269999824,,008,P015,2025_Feb_28_1854,ConditionRich,2021.2.3,59.89501601577316,
48.0,48.75,36,0.75,Stimuli/P015/things_streetlight_08s.jpg,0,0.0,0.0,0,23,23,23,,,,,,,,,,,,,48.00941479999892,0.009414799998921808,None,88.26442659999884,88.26442659999884,88.26442659999884,88.26442659999884,88.26442659999884,88.26442659999884,88.26442659999884,88.26442659999884,88.26442659999884,88.26442659999884,,008,P015,2025_Feb_28_1854,ConditionRich,2021.2.3,59.89501601577316,
48.75,52.0,41,0.0,Stimuli/Blank.png,0,0.0,0.0,0,24,24,24,,,,,,,,,,,,,48.77681830000074,0.026818300000741147,None,89.01508939999985,89.01508939999985,89.01508939999985,89.01508939999985,89.01508939999985,89.01508939999985,89.01508939999985,89.01508939999985,89.01508939999985,89.01508939999985,,008,P015,2025_Feb_28_1854,ConditionRich,2021.2.3,59.89501601577316,
52.0,52.75,39,0.75,Stimuli/P015/things_window_08s.jpg,0,0.0,0.0,0,25,25,25,,,,,,,,,,,,,52.01253649999853,0.012536499998532236,None,92.26796639999884,92.26796639999884,92.26796639999884,92.26796639999884,92.26796639999884,92.26796639999884,92.26796639999884,92.26796639999884,92.26796639999884,92.26796639999884,,008,P015,2025_Feb_28_1854,ConditionRich,2021.2.3,59.89501601577316,
52.75,56.0,41,0.0,Stimuli/Blank.png,0,0.0,0.0,0,26,26,26,,,,,,,,,,,,,52.78032660000099,0.030326600000989856,None,93.01864679999926,93.01864679999926,93.01864679999926,93.01864679999926,93.01864679999926,93.01864679999926,93.01864679999926,93.01864679999926,93.01864679999926,93.01864679999926,,008,P015,2025_Feb_28_1854,ConditionRich,2021.2.3,59.89501601577316,
56.0,56.75,17,0.75,Stimuli/P015/sun_bxhbltvqnpaciuzt.jpg,1,0.0,0.75,0,27,27,27,,,,,,,,,,,,,55.999337000001105,-0.0006629999988945201,1,96.23814439999842,96.23814439999842,96.23814439999842,96.23814439999842,96.23814439999842,96.23814439999842,96.23814439999842,96.9721772999983,96.23814439999842,96.23814439999842,0.43787280000105966,008,P015,2025_Feb_28_1854,ConditionRich,2021.2.3,59.89501601577316,
56.75,60.0,41,0.0,Stimuli/Blank.png,0,0.0,0.0,0,28,28,28,,,,,,,,,,,,,56.75109689999954,0.0010968999995384365,None,97.00552279999829,97.00552279999829,97.00552279999829,97.00552279999829,97.00552279999829,97.00552279999829,97.00552279999829,97.00552279999829,97.00552279999829,97.00552279999829,,008,P015,2025_Feb_28_1854,ConditionRich,2021.2.3,59.89501601577316,
60.0,60.75,29,0.75,Stimuli/P015/things_mouse1_08s.jpg,0,0.0,0.0,0,29,29,29,,,,,,,,,,,,,60.02114459999939,0.021144599999388447,None,100.27506240000002,100.27506240000002,100.27506240000002,100.27506240000002,100.27506240000002,100.27506240000002,100.27506240000002,100.27506240000002,100.27506240000002,100.27506240000002,,008,P015,2025_Feb_28_1854,ConditionRich,2021.2.3,59.89501601577316,
60.75,64.0,41,0.0,Stimuli/Blank.png,0,0.0,0.0,0,30,30,30,,,,,,,,,,,,,60.769712599998456,0.019712599998456426,None,101.00907590000133,101.00907590000133,101.00907590000133,101.00907590000133,101.00907590000133,101.00907590000133,101.00907590000133,101.00907590000133,101.00907590000133,101.00907590000133,,008,P015,2025_Feb_28_1854,ConditionRich,2021.2.3,59.89501601577316,
64.0,64.75,37,0.75,Stimuli/P015/things_swizzle_stick_08s.jpg,0,0.0,0.0,0,31,31,31,,,,,,,,,,,,,64.00688359999913,0.0068835999991279095,None,104.24522559999969,104.24522559999969,104.24522559999969,104.24522559999969,104.24522559999969,104.24522559999969,104.24522559999969,104.24522559999969,104.24522559999969,104.24522559999969,,008,P015,2025_Feb_28_1854,ConditionRich,2021.2.3,59.89501601577316,
64.75,68.0,41,0.0,Stimuli/Blank.png,0,0.0,0.0,0,32,32,32,,,,,,,,,,,,,64.7566227999996,0.006622799999604467,None,104.99590149999858,104.99590149999858,104.99590149999858,104.99590149999858,104.99590149999858,104.99590149999858,104.99590149999858,104.99590149999858,104.99590149999858,104.99590149999858,,008,P015,2025_Feb_28_1854,ConditionRich,2021.2.3,59.89501601577316,
68.0,68.75,33,0.75,Stimuli/P015/things_raccoon_08n.jpg,0,0.0,0.0,0,33,33,33,,,,,,,,,,,,,68.00934419999976,0.00934419999975944,None,108.24877529999867,108.24877529999867,108.24877529999867,108.24877529999867,108.24877529999867,108.24877529999867,108.24877529999867,108.24877529999867,108.24877529999867,108.24877529999867,,008,P015,2025_Feb_28_1854,ConditionRich,2021.2.3,59.89501601577316,
68.75,72.0,41,0.0,Stimuli/Blank.png,0,0.0,0.0,0,34,34,34,,,,,,,,,,,,,68.76224039999943,0.01224039999942761,None,109.01612989999921,109.01612989999921,109.01612989999921,109.01612989999921,109.01612989999921,109.01612989999921,109.01612989999921,109.01612989999921,109.01612989999921,109.01612989999921,,008,P015,2025_Feb_28_1854,ConditionRich,2021.2.3,59.89501601577316,
72.0,72.75,16,0.75,Stimuli/P015/sun_bwhuwxazfqwuqhik.jpg,0,0.0,0.0,0,35,35,35,,,,,,,,,,,,,72.02972679999948,0.029726799999480136,None,112.26899409999896,112.26899409999896,112.26899409999896,112.26899409999896,112.26899409999896,112.26899409999896,112.26899409999896,112.26899409999896,112.26899409999896,112.26899409999896,,008,P015,2025_Feb_28_1854,ConditionRich,2021.2.3,59.89501601577316,
72.75,76.0,41,0.0,Stimuli/Blank.png,0,0.0,0.0,0,36,36,36,,,,,,,,,,,,,72.76430729999993,0.014307299999927636,None,113.00299639999866,113.00299639999866,113.00299639999866,113.00299639999866,113.00299639999866,113.00299639999866,113.00299639999866,113.00299639999866,113.00299639999866,113.00299639999866,,008,P015,2025_Feb_28_1854,ConditionRich,2021.2.3,59.89501601577316,
76.0,76.75,40,0.75,Stimuli/P015/things_woman_08s.jpg,0,0.0,0.0,0,37,37,37,,,,,,,,,,,,,76.00055000000066,0.0005500000006577466,None,116.25589279999986,116.25589279999986,116.25589279999986,116.25589279999986,116.25589279999986,116.25589279999986,116.25589279999986,116.25589279999986,116.25589279999986,116.25589279999986,,008,P015,2025_Feb_28_1854,ConditionRich,2021.2.3,59.89501601577316,
76.75,80.0,41,0.0,Stimuli/Blank.png,0,0.0,0.0,0,38,38,38,,,,,,,,,,,,,76.76775529999941,0.017755299999407725,None,117.00652469999841,117.00652469999841,117.00652469999841,117.00652469999841,117.00652469999841,117.00652469999841,117.00652469999841,117.00652469999841,117.00652469999841,117.00652469999841,,008,P015,2025_Feb_28_1854,ConditionRich,2021.2.3,59.89501601577316,
80.0,80.75,22,0.75,Stimuli/P015/things_baby_08s.jpg,0,0.0,0.0,0,39,39,39,,,,,,,,,,,,,80.00334600000133,0.00334600000132923,None,120.24273510000057,120.24273510000057,120.24273510000057,120.24273510000057,120.24273510000057,120.24273510000057,120.24273510000057,120.24273510000057,120.24273510000057,120.24273510000057,,008,P015,2025_Feb_28_1854,ConditionRich,2021.2.3,59.89501601577316,
80.75,84.0,41,0.0,Stimuli/Blank.png,0,0.0,0.0,0,40,40,40,,,,,,,,,,,,,80.75400609999997,0.004006099999969592,None,120.9933749999982,120.9933749999982,120.9933749999982,120.9933749999982,120.9933749999982,120.9933749999982,120.9933749999982,120.9933749999982,120.9933749999982,120.9933749999982,,008,P015,2025_Feb_28_1854,ConditionRich,2021.2.3,59.89501601577316,
84.0,100.0,0,0.0,Stimuli/Blank.png,1,10.0,10.75,0,41,41,41,,,,,,,,,,,,,84.00936580000052,0.00936580000052345,1,124.26295250000112,124.26295250000112,124.26295250000112,124.26295250000112,124.26295250000112,124.26295250000112,134.2384333000009,134.98910579999938,124.26295250000112,124.26295250000112,10.447051700000884,008,P015,2025_Feb_28_1854,ConditionRich,2021.2.3,59.89501601577316,
100.0,100.75,13,0.75,Stimuli/P015/sun_bphvjnowixlryxot.jpg,1,0.0,0.75,0,42,42,42,,,,,,,,,,,,,100.02197270000033,0.021972700000333134,1,140.27715149999858,140.27715149999858,140.27715149999858,140.27715149999858,140.27715149999858,140.27715149999858,140.27715149999858,140.9943815000006,140.27715149999858,140.27715149999858,0.50889079999979,008,P015,2025_Feb_28_1854,ConditionRich,2021.2.3,59.89501601577316,
100.75,104.0,41,0.0,Stimuli/Blank.png,0,0.0,0.0,0,43,43,43,,,,,,,,,,,,,100.77248809999946,0.022488099999463884,None,141.01109580000048,141.01109580000048,141.01109580000048,141.01109580000048,141.01109580000048,141.01109580000048,141.01109580000048,141.01109580000048,141.01109580000048,141.01109580000048,,008,P015,2025_Feb_28_1854,ConditionRich,2021.2.3,59.89501601577316,
104.0,104.75,11,0.75,Stimuli/P015/sun_bnwmcjuinqbdsbho.jpg,0,0.0,0.0,0,44,44,44,,,,,,,,,,,,,104.00856230000136,0.00856230000135838,None,144.24731339999926,144.24731339999926,144.24731339999926,144.24731339999926,144.24731339999926,144.24731339999926,144.24731339999926,144.24731339999926,144.24731339999926,144.24731339999926,,008,P015,2025_Feb_28_1854,ConditionRich,2021.2.3,59.89501601577316,
104.75,108.0,41,0.0,Stimuli/Blank.png,0,0.0,0.0,0,45,45,45,,,,,,,,,,,,,104.76144829999976,0.011448299999756273,None,145.01465019999887,145.01465019999887,145.01465019999887,145.01465019999887,145.01465019999887,145.01465019999887,145.01465019999887,145.01465019999887,145.01465019999887,145.01465019999887,,008,P015,2025_Feb_28_1854,ConditionRich,2021.2.3,59.89501601577316,
108.0,108.75,2,0.75,Stimuli/P015/sun_agzfkftryitnqpxc.jpg,0,0.0,0.0,0,46,46,46,,,,,,,,,,,,,108.0287356000008,0.028735600000800332,None,148.2675491000009,148.2675491000009,148.2675491000009,148.2675491000009,148.2675491000009,148.2675491000009,148.2675491000009,148.2675491000009,148.2675491000009,148.2675491000009,,008,P015,2025_Feb_28_1854,ConditionRich,2021.2.3,59.89501601577316,
108.75,112.0,41,0.0,Stimuli/Blank.png,0,0.0,0.0,0,47,47,47,,,,,,,,,,,,,108.76236680000147,0.012366800001473166,None,149.00151299999925,149.00151299999925,149.00151299999925,149.00151299999925,149.00151299999925,149.00151299999925,149.00151299999925,149.00151299999925,149.00151299999925,149.00151299999925,,008,P015,2025_Feb_28_1854,ConditionRich,2021.2.3,59.89501601577316,
112.0,112.75,12,0.75,Stimuli/P015/sun_boffixsnbbloarty.jpg,0,0.0,0.0,0,48,48,48,,,,,,,,,,,,,112.01524849999987,0.015248499999870546,None,152.2543786999995,152.2543786999995,152.2543786999995,152.2543786999995,152.2543786999995,152.2543786999995,152.2543786999995,152.2543786999995,152.2543786999995,152.2543786999995,,008,P015,2025_Feb_28_1854,ConditionRich,2021.2.3,59.89501601577316,
112.75,116.0,41,0.0,Stimuli/Blank.png,0,0.0,0.0,0,49,49,49,,,,,,,,,,,,,112.75029039999936,0.00029039999935775995,None,152.98836980000124,152.98836980000124,152.98836980000124,152.98836980000124,152.98836980000124,152.98836980000124,152.98836980000124,152.98836980000124,152.98836980000124,152.98836980000124,,008,P015,2025_Feb_28_1854,ConditionRich,2021.2.3,59.89501601577316,
116.0,116.75,8,0.75,Stimuli/P015/sun_arldxotvfucvuudk.jpg,0,0.0,0.0,0,50,50,50,,,,,,,,,,,,,116.00188849999904,0.001888499999040505,None,156.25795020000078,156.25795020000078,156.25795020000078,156.25795020000078,156.25795020000078,156.25795020000078,156.25795020000078,156.25795020000078,156.25795020000078,156.25795020000078,,008,P015,2025_Feb_28_1854,ConditionRich,2021.2.3,59.89501601577316,
116.75,120.0,41,0.0,Stimuli/Blank.png,0,0.0,0.0,0,51,51,51,,,,,,,,,,,,,116.77060469999924,0.02060469999923953,None,157.00860280000052,157.00860280000052,157.00860280000052,157.00860280000052,157.00860280000052,157.00860280000052,157.00860280000052,157.00860280000052,157.00860280000052,157.00860280000052,,008,P015,2025_Feb_28_1854,ConditionRich,2021.2.3,59.89501601577316,
120.0,120.75,34,0.75,Stimuli/P015/things_shower_cap_08s.jpg,0,0.0,0.0,0,52,52,52,,,,,,,,,,,,,120.00626239999838,0.006262399998377077,None,160.24474220000047,160.24474220000047,160.24474220000047,160.24474220000047,160.24474220000047,160.24474220000047,160.24474220000047,160.24474220000047,160.24474220000047,160.24474220000047,,008,P015,2025_Feb_28_1854,ConditionRich,2021.2.3,59.89501601577316,
120.75,124.0,41,0.0,Stimuli/Blank.png,0,0.0,0.0,0,53,53,53,,,,,,,,,,,,,120.75709110000025,0.0070911000002524815,None,160.9954633999987,160.9954633999987,160.9954633999987,160.9954633999987,160.9954633999987,160.9954633999987,160.9954633999987,160.9954633999987,160.9954633999987,160.9954633999987,,008,P015,2025_Feb_28_1854,ConditionRich,2021.2.3,59.89501601577316,
124.0,124.75,1,0.75,Stimuli/P015/sun_aacpzgqrortyhyss.jpg,0,0.0,0.0,0,54,54,54,,,,,,,,,,,,,124.00995839999814,0.009958399998140521,None,164.26501439999993,164.26501439999993,164.26501439999993,164.26501439999993,164.26501439999993,164.26501439999993,164.26501439999993,164.26501439999993,164.26501439999993,164.26501439999993,,008,P015,2025_Feb_28_1854,ConditionRich,2021.2.3,59.89501601577316,
124.75,128.0,41,0.0,Stimuli/Blank.png,0,0.0,0.0,0,55,55,55,,,,,,,,,,,,,124.77704259999882,0.02704259999882197,None,165.01567530000102,165.01567530000102,165.01567530000102,165.01567530000102,165.01567530000102,165.01567530000102,165.01567530000102,165.01567530000102,165.01567530000102,165.01567530000102,,008,P015,2025_Feb_28_1854,ConditionRich,2021.2.3,59.89501601577316,
128.0,128.75,9,0.75,Stimuli/P015/sun_bbdgftzhpkaklkll.jpg,0,0.0,0.0,0,56,56,56,,,,,,,,,,,,,128.0125380999998,0.012538099999801489,None,168.26859790000162,168.26859790000162,168.26859790000162,168.26859790000162,168.26859790000162,168.26859790000162,168.26859790000162,168.26859790000162,168.26859790000162,168.26859790000162,,008,P015,2025_Feb_28_1854,ConditionRich,2021.2.3,59.89501601577316,
128.75,132.0,41,0.0,Stimuli/Blank.png,0,0.0,0.0,0,57,57,57,,,,,,,,,,,,,128.7809630999982,0.030963099998189136,None,169.0192218000011,169.0192218000011,169.0192218000011,169.0192218000011,169.0192218000011,169.0192218000011,169.0192218000011,169.0192218000011,169.0192218000011,169.0192218000011,,008,P015,2025_Feb_28_1854,ConditionRich,2021.2.3,59.89501601577316,
132.0,132.75,21,0.75,Stimuli/P015/things_arch_08s.jpg,1,0.0,0.75,0,58,58,58,,,,,,,,,,,,,132.0026429999998,0.0026429999998072162,1,172.25541330000124,172.25541330000124,172.25541330000124,172.25541330000124,172.25541330000124,172.25541330000124,172.25541330000124,172.98938350000026,172.25541330000124,172.25541330000124,0.4587798000029579,008,P015,2025_Feb_28_1854,ConditionRich,2021.2.3,59.89501601577316,
132.75,136.0,41,0.0,Stimuli/Blank.png,0,0.0,0.0,0,59,59,59,,,,,,,,,,,,,132.76753630000167,0.01753630000166595,None,173.00607759999912,173.00607759999912,173.00607759999912,173.00607759999912,173.00607759999912,173.00607759999912,173.00607759999912,173.00607759999912,173.00607759999912,173.00607759999912,,008,P015,2025_Feb_28_1854,ConditionRich,2021.2.3,59.89501601577316,
136.0,136.75,10,0.75,Stimuli/P015/sun_bfojpvrlsrtfyzio.jpg,0,0.0,0.0,0,60,60,60,,,,,,,,,,,,,136.0049575999983,0.00495759999830625,None,176.25896719999946,176.25896719999946,176.25896719999946,176.25896719999946,176.25896719999946,176.25896719999946,176.25896719999946,176.25896719999946,176.25896719999946,176.25896719999946,,008,P015,2025_Feb_28_1854,ConditionRich,2021.2.3,59.89501601577316,
136.75,140.0,41,0.0,Stimuli/Blank.png,1,2.25,3.0,0,61,61,61,,,,,,,,,,,,,136.77097829999911,0.020978299999114824,1,177.00962300000174,177.00962300000174,177.00962300000174,177.00962300000174,177.00962300000174,177.00962300000174,179.2449263999988,179.99560700000075,177.00962300000174,177.00962300000174,2.7304078999986814,008,P015,2025_Feb_28_1854,ConditionRich,2021.2.3,59.89501601577316,
140.0,140.75,5,0.75,Stimuli/P015/sun_ajgmxbrxdpmsaext.jpg,0,0.0,0.0,0,62,62,62,,,,,,,,,,,,,140.00735119999808,0.007351199998083757,None,180.26251830000183,180.26251830000183,180.26251830000183,180.26251830000183,180.26251830000183,180.26251830000183,180.26251830000183,180.26251830000183,180.26251830000183,180.26251830000183,,008,P015,2025_Feb_28_1854,ConditionRich,2021.2.3,59.89501601577316,
140.75,144.0,41,0.0,Stimuli/Blank.png,0,0.0,0.0,0,63,63,63,,,,,,,,,,,,,140.77379289999953,0.02379289999953471,None,181.01322430000073,181.01322430000073,181.01322430000073,181.01322430000073,181.01322430000073,181.01322430000073,181.01322430000073,181.01322430000073,181.01322430000073,181.01322430000073,,008,P015,2025_Feb_28_1854,ConditionRich,2021.2.3,59.89501601577316,
144.0,144.75,32,0.75,Stimuli/P015/things_pheasant_08s.jpg,0,0.0,0.0,0,64,64,64,,,,,,,,,,,,,144.0112577,0.01125769999998738,None,184.24935280000136,184.24935280000136,184.24935280000136,184.24935280000136,184.24935280000136,184.24935280000136,184.24935280000136,184.24935280000136,184.24935280000136,184.24935280000136,,008,P015,2025_Feb_28_1854,ConditionRich,2021.2.3,59.89501601577316,
144.75,148.0,41,0.0,Stimuli/Blank.png,0,0.0,0.0,0,65,65,65,,,,,,,,,,,,,144.76082840000163,0.010828400001628324,None,185.00003640000068,185.00003640000068,185.00003640000068,185.00003640000068,185.00003640000068,185.00003640000068,185.00003640000068,185.00003640000068,185.00003640000068,185.00003640000068,,008,P015,2025_Feb_28_1854,ConditionRich,2021.2.3,59.89501601577316,
148.0,148.75,6,0.75,Stimuli/P015/sun_akecfasimgpbqcnt.jpg,0,0.0,0.0,0,66,66,66,,,,,,,,,,,,,148.01629479999974,0.01629479999974137,None,188.26959550000174,188.26959550000174,188.26959550000174,188.26959550000174,188.26959550000174,188.26959550000174,188.26959550000174,188.26959550000174,188.26959550000174,188.26959550000174,,008,P015,2025_Feb_28_1854,ConditionRich,2021.2.3,59.89501601577316,
148.75,152.0,41,0.0,Stimuli/Blank.png,0,0.0,0.0,0,67,67,67,,,,,,,,,,,,,148.76564439999856,0.01564439999856404,None,189.00353650000034,189.00353650000034,189.00353650000034,189.00353650000034,189.00353650000034,189.00353650000034,189.00353650000034,189.00353650000034,189.00353650000034,189.00353650000034,,008,P015,2025_Feb_28_1854,ConditionRich,2021.2.3,59.89501601577316,
152.0,152.75,28,0.75,Stimuli/P015/things_latte_08s.jpg,0,0.0,0.0,0,68,68,68,,,,,,,,,,,,,152.00178249999954,0.0017824999995355029,None,192.23979319999853,192.23979319999853,192.23979319999853,192.23979319999853,192.23979319999853,192.23979319999853,192.23979319999853,192.23979319999853,192.23979319999853,192.23979319999853,,008,P015,2025_Feb_28_1854,ConditionRich,2021.2.3,59.89501601577316,
152.75,156.0,41,0.0,Stimuli/Blank.png,0,0.0,0.0,0,69,69,69,,,,,,,,,,,,,152.7525386999987,0.0025386999986949377,None,192.99125880000065,192.99125880000065,192.99125880000065,192.99125880000065,192.99125880000065,192.99125880000065,192.99125880000065,192.99125880000065,192.99125880000065,192.99125880000065,,008,P015,2025_Feb_28_1854,ConditionRich,2021.2.3,59.89501601577316,
156.0,156.75,20,0.75,Stimuli/P015/sun_bzmxulijbnmshodq.jpg,0,0.0,0.0,0,70,70,70,,,,,,,,,,,,,156.00623270000142,0.006232700001419289,None,196.25999070000034,196.25999070000034,196.25999070000034,196.25999070000034,196.25999070000034,196.25999070000034,196.25999070000034,196.25999070000034,196.25999070000034,196.25999070000034,,008,P015,2025_Feb_28_1854,ConditionRich,2021.2.3,59.89501601577316,
156.75,160.0,41,0.0,Stimuli/Blank.png,0,0.0,0.0,0,71,71,71,,,,,,,,,,,,,156.7713444000001,0.02134440000008908,None,197.01064509999924,197.01064509999924,197.01064509999924,197.01064509999924,197.01064509999924,197.01064509999924,197.01064509999924,197.01064509999924,197.01064509999924,197.01064509999924,,008,P015,2025_Feb_28_1854,ConditionRich,2021.2.3,59.89501601577316,
160.0,160.75,3,0.75,Stimuli/P015/sun_aiogwnavezqxkzfg.jpg,0,0.0,0.0,0,72,72,72,,,,,,,,,,,,,160.00806889999876,0.00806889999876148,None,200.24684790000174,200.24684790000174,200.24684790000174,200.24684790000174,200.24684790000174,200.24684790000174,200.24684790000174,200.24684790000174,200.24684790000174,200.24684790000174,,008,P015,2025_Feb_28_1854,ConditionRich,2021.2.3,59.89501601577316,
160.75,164.0,41,0.0,Stimuli/Blank.png,0,0.0,0.0,0,73,73,73,,,,,,,,,,,,,160.75812569999835,0.008125699998345226,None,200.99751440000182,200.99751440000182,200.99751440000182,200.99751440000182,200.99751440000182,200.99751440000182,200.99751440000182,200.99751440000182,200.99751440000182,200.99751440000182,,008,P015,2025_Feb_28_1854,ConditionRich,2021.2.3,59.89501601577316,
164.0,164.75,7,0.75,Stimuli/P015/sun_aqdfrmtvewaapuqs.jpg,0,0.0,0.0,0,74,74,74,,,,,,,,,,,,,164.0111450000004,0.011145000000396976,None,204.2504239000009,204.2504239000009,204.2504239000009,204.2504239000009,204.2504239000009,204.2504239000009,204.2504239000009,204.2504239000009,204.2504239000009,204.2504239000009,,008,P015,2025_Feb_28_1854,ConditionRich,2021.2.3,59.89501601577316,
164.75,168.0,41,0.0,Stimuli/Blank.png,1,1.25,2.0,0,75,75,75,,,,,,,,,,,,,164.7646085999986,0.014608599998609861,1,205.0177533999995,205.0177533999995,205.0177533999995,205.0177533999995,205.0177533999995,205.0177533999995,206.25216269999873,207.00282700000025,205.0177533999995,205.0177533999995,1.6575536000018474,008,P015,2025_Feb_28_1854,ConditionRich,2021.2.3,59.89501601577316,
168.0,168.75,18,0.75,Stimuli/P015/sun_byavixgfuhzioilz.jpg,0,0.0,0.0,0,76,76,76,,,,,,,,,,,,,168.01499429999967,0.014994299999671057,None,208.27062510000178,208.27062510000178,208.27062510000178,208.27062510000178,208.27062510000178,208.27062510000178,208.27062510000178,208.27062510000178,208.27062510000178,208.27062510000178,,008,P015,2025_Feb_28_1854,ConditionRich,2021.2.3,59.89501601577316,
168.75,172.0,41,0.0,Stimuli/Blank.png,0,0.0,0.0,0,77,77,77,,,,,,,,,,,,,168.78193570000076,0.031935700000758516,None,209.02134920000026,209.02134920000026,209.02134920000026,209.02134920000026,209.02134920000026,209.02134920000026,209.02134920000026,209.02134920000026,209.02134920000026,209.02134920000026,,008,P015,2025_Feb_28_1854,ConditionRich,2021.2.3,59.89501601577316,
172.0,172.75,30,0.75,Stimuli/P015/things_ottoman_08s.jpg,0,0.0,0.0,0,78,78,78,,,,,,,,,,,,,172.00454360000003,0.004543600000033621,None,212.25748329999988,212.25748329999988,212.25748329999988,212.25748329999988,212.25748329999988,212.25748329999988,212.25748329999988,212.25748329999988,212.25748329999988,212.25748329999988,,008,P015,2025_Feb_28_1854,ConditionRich,2021.2.3,59.89501601577316,
172.75,176.0,41,0.0,Stimuli/Blank.png,0,0.0,0.0,0,79,79,79,,,,,,,,,,,,,172.76887590000115,0.018875900001148693,None,213.00813389999894,213.00813389999894,213.00813389999894,213.00813389999894,213.00813389999894,213.00813389999894,213.00813389999894,213.00813389999894,213.00813389999894,213.00813389999894,,008,P015,2025_Feb_28_1854,ConditionRich,2021.2.3,59.89501601577316,
176.0,176.75,23,0.75,Stimuli/P015/things_boy_08s.jpg,0,0.0,0.0,0,80,80,80,,,,,,,,,,,,,176.0050623999996,0.005062399999587797,None,216.24433480000152,216.24433480000152,216.24433480000152,216.24433480000152,216.24433480000152,216.24433480000152,216.24433480000152,216.24433480000152,216.24433480000152,216.24433480000152,,008,P015,2025_Feb_28_1854,ConditionRich,2021.2.3,59.89501601577316,
176.75,180.0,41,0.0,Stimuli/Blank.png,0,0.0,0.0,0,81,81,81,,,,,,,,,,,,,176.75669969999944,0.0066996999994444195,None,216.99502249999932,216.99502249999932,216.99502249999932,216.99502249999932,216.99502249999932,216.99502249999932,216.99502249999932,216.99502249999932,216.99502249999932,216.99502249999932,,008,P015,2025_Feb_28_1854,ConditionRich,2021.2.3,59.89501601577316,
180.0,196.0,0,0.0,Stimuli/Blank.png,1,9.0,9.75,0,82,82,82,,,,,,,,,,,,,180.0085020000006,0.00850200000058976,1,220.24787750000178,220.24787750000178,220.24787750000178,220.24787750000178,220.24787750000178,220.24787750000178,229.22329230000105,229.97319609999977,220.24787750000178,220.24787750000178,9.487398000001122,008,P015,2025_Feb_28_1854,ConditionRich,2021.2.3,59.89501601577316,
196.0,196.75,20,0.75,Stimuli/P015/sun_bzmxulijbnmshodq.jpg,0,0.0,0.0,0,83,83,83,,,,,,,,,,,,,196.00756719999845,0.007567199998447904,None,236.26205209999898,236.26205209999898,236.26205209999898,236.26205209999898,236.26205209999898,236.26205209999898,236.26205209999898,236.26205209999898,236.26205209999898,236.26205209999898,,008,P015,2025_Feb_28_1854,ConditionRich,2021.2.3,59.89501601577316,
196.75,200.0,41,0.0,Stimuli/Blank.png,0,0.0,0.0,0,84,84,84,,,,,,,,,,,,,196.77401839999948,0.02401839999947697,None,237.01271700000143,237.01271700000143,237.01271700000143,237.01271700000143,237.01271700000143,237.01271700000143,237.01271700000143,237.01271700000143,237.01271700000143,237.01271700000143,,008,P015,2025_Feb_28_1854,ConditionRich,2021.2.3,59.89501601577316,
200.0,200.75,11,0.75,Stimuli/P015/sun_bnwmcjuinqbdsbho.jpg,0,0.0,0.0,0,85,85,85,,,,,,,,,,,,,200.00980189999973,0.009801899999729358,None,240.24890669999877,240.24890669999877,240.24890669999877,240.24890669999877,240.24890669999877,240.24890669999877,240.24890669999877,240.24890669999877,240.24890669999877,240.24890669999877,,008,P015,2025_Feb_28_1854,ConditionRich,2021.2.3,59.89501601577316,
200.75,204.0,41,0.0,Stimuli/Blank.png,0,0.0,0.0,0,86,86,86,,,,,,,,,,,,,200.76078530000086,0.010785300000861753,None,240.99966380000114,240.99966380000114,240.99966380000114,240.99966380000114,240.99966380000114,240.99966380000114,240.99966380000114,240.99966380000114,240.99966380000114,240.99966380000114,,008,P015,2025_Feb_28_1854,ConditionRich,2021.2.3,59.89501601577316,
204.0,204.75,9,0.75,Stimuli/P015/sun_bbdgftzhpkaklkll.jpg,0,0.0,0.0,0,87,87,87,,,,,,,,,,,,,204.01363570000103,0.013635700001032092,None,244.25242459999936,244.25242459999936,244.25242459999936,244.25242459999936,244.25242459999936,244.25242459999936,244.25242459999936,244.25242459999936,244.25242459999936,244.25242459999936,,008,P015,2025_Feb_28_1854,ConditionRich,2021.2.3,59.89501601577316,
204.75,208.0,41,0.0,Stimuli/Blank.png,0,0.0,0.0,0,88,88,88,,,,,,,,,,,,,204.7642922999985,0.014292299998487579,None,245.00311299999885,245.00311299999885,245.00311299999885,245.00311299999885,245.00311299999885,245.00311299999885,245.00311299999885,245.00311299999885,245.00311299999885,245.00311299999885,,008,P015,2025_Feb_28_1854,ConditionRich,2021.2.3,59.89501601577316,
208.0,208.75,40,0.75,Stimuli/P015/things_woman_08s.jpg,0,0.0,0.0,0,89,89,89,,,,,,,,,,,,,208.0010825999998,0.0010825999997905456,None,248.25602580000123,248.25602580000123,248.25602580000123,248.25602580000123,248.25602580000123,248.25602580000123,248.25602580000123,248.25602580000123,248.25602580000123,248.25602580000123,,008,P015,2025_Feb_28_1854,ConditionRich,2021.2.3,59.89501601577316,
208.75,212.0,41,0.0,Stimuli/Blank.png,0,0.0,0.0,0,90,90,90,,,,,,,,,,,,,208.76789289999942,0.017892899999424117,None,249.0066723000018,249.0066723000018,249.0066723000018,249.0066723000018,249.0066723000018,249.0066723000018,249.0066723000018,249.0066723000018,249.0066723000018,249.0066723000018,,008,P015,2025_Feb_28_1854,ConditionRich,2021.2.3,59.89501601577316,
212.0,212.75,13,0.75,Stimuli/P015/sun_bphvjnowixlryxot.jpg,0,0.0,0.0,0,91,91,91,,,,,,,,,,,,,212.00342140000066,0.0034214000006613787,None,252.24284750000152,252.24284750000152,252.24284750000152,252.24284750000152,252.24284750000152,252.24284750000152,252.24284750000152,252.24284750000152,252.24284750000152,252.24284750000152,,008,P015,2025_Feb_28_1854,ConditionRich,2021.2.3,59.89501601577316,
212.75,216.0,41,0.0,Stimuli/Blank.png,0,0.0,0.0,0,92,92,92,,,,,,,,,,,,,212.75576939999883,0.005769399998825975,None,252.99352649999855,252.99352649999855,252.99352649999855,252.99352649999855,252.99352649999855,252.99352649999855,252.99352649999855,252.99352649999855,252.99352649999855,252.99352649999855,,008,P015,2025_Feb_28_1854,ConditionRich,2021.2.3,59.89501601577316,
216.0,216.75,1,0.75,Stimuli/P015/sun_aacpzgqrortyhyss.jpg,0,0.0,0.0,0,93,93,93,,,,,,,,,,,,,216.00775680000152,0.00775680000151624,None,256.24640210000143,256.24640210000143,256.24640210000143,256.24640210000143,256.24640210000143,256.24640210000143,256.24640210000143,256.24640210000143,256.24640210000143,256.24640210000143,,008,P015,2025_Feb_28_1854,ConditionRich,2021.2.3,59.89501601577316,
216.75,220.0,41,0.0,Stimuli/Blank.png,0,0.0,0.0,0,94,94,94,,,,,,,,,,,,,216.7576216999987,0.007621699998708209,None,256.99707359999957,256.99707359999957,256.99707359999957,256.99707359999957,256.99707359999957,256.99707359999957,256.99707359999957,256.99707359999957,256.99707359999957,256.99707359999957,,008,P015,2025_Feb_28_1854,ConditionRich,2021.2.3,59.89501601577316,
220.0,220.75,29,0.75,Stimuli/P015/things_mouse1_08s.jpg,0,0.0,0.0,0,95,95,95,,,,,,,,,,,,,220.01355329999933,0.013553299999330193,None,260.2666352999986,260.2666352999986,260.2666352999986,260.2666352999986,260.2666352999986,260.2666352999986,260.2666352999986,260.2666352999986,260.2666352999986,260.2666352999986,,008,P015,2025_Feb_28_1854,ConditionRich,2021.2.3,59.89501601577316,
220.75,224.0,41,0.0,Stimuli/Blank.png,0,0.0,0.0,0,96,96,96,,,,,,,,,,,,,220.77838079999856,0.02838079999855836,None,261.0173743999985,261.0173743999985,261.0173743999985,261.0173743999985,261.0173743999985,261.0173743999985,261.0173743999985,261.0173743999985,261.0173743999985,261.0173743999985,,008,P015,2025_Feb_28_1854,ConditionRich,2021.2.3,59.89501601577316,
224.0,224.75,22,0.75,Stimuli/P015/things_baby_08s.jpg,0,0.0,0.0,0,97,97,97,,,,,,,,,,,,,224.0141087000011,0.014108700001088437,None,264.2534651999995,264.2534651999995,264.2534651999995,264.2534651999995,264.2534651999995,264.2534651999995,264.2534651999995,264.2534651999995,264.2534651999995,264.2534651999995,,008,P015,2025_Feb_28_1854,ConditionRich,2021.2.3,59.89501601577316,
224.75,228.0,41,0.0,Stimuli/Blank.png,0,0.0,0.0,0,98,98,98,,,,,,,,,,,,,224.7653066999992,0.015306699999200646,None,265.0041550999995,265.0041550999995,265.0041550999995,265.0041550999995,265.0041550999995,265.0041550999995,265.0041550999995,265.0041550999995,265.0041550999995,265.0041550999995,,008,P015,2025_Feb_28_1854,ConditionRich,2021.2.3,59.89501601577316,
228.0,228.75,28,0.75,Stimuli/P015/things_latte_08s.jpg,0,0.0,0.0,0,99,99,99,,,,,,,,,,,,,228.00188740000158,0.0018874000015784986,None,268.24035359999834,268.24035359999834,268.24035359999834,268.24035359999834,268.24035359999834,268.24035359999834,268.24035359999834,268.24035359999834,268.24035359999834,268.24035359999834,,008,P015,2025_Feb_28_1854,ConditionRich,2021.2.3,59.89501601577316,
228.75,232.0,41,0.0,Stimuli/Blank.png,0,0.0,0.0,0,100,100,100,,,,,,,,,,,,,228.75311149999834,0.0031114999983401503,None,268.9910229999987,268.9910229999987,268.9910229999987,268.9910229999987,268.9910229999987,268.9910229999987,268.9910229999987,268.9910229999987,268.9910229999987,268.9910229999987,,008,P015,2025_Feb_28_1854,ConditionRich,2021.2.3,59.89501601577316,
232.0,232.75,10,0.75,Stimuli/P015/sun_bfojpvrlsrtfyzio.jpg,0,0.0,0.0,0,101,101,101,,,,,,,,,,,,,232.0049567999995,0.004956799999490613,None,272.2605715999998,272.2605715999998,272.2605715999998,272.2605715999998,272.2605715999998,272.2605715999998,272.2605715999998,272.2605715999998,272.2605715999998,272.2605715999998,,008,P015,2025_Feb_28_1854,ConditionRich,2021.2.3,59.89501601577316,
232.75,236.0,41,0.0,Stimuli/Blank.png,1,0.25,1.0,0,102,102,102,,,,,,,,,,,,,232.77308059999996,0.023080599999957485,1,273.01123519999965,273.01123519999965,273.01123519999965,273.01123519999965,273.01123519999965,273.01123519999965,273.24477679999836,273.9954097000009,273.01123519999965,273.01123519999965,0.6899045999998634,008,P015,2025_Feb_28_1854,ConditionRich,2021.2.3,59.89501601577316,
236.0,236.75,15,0.75,Stimuli/P015/sun_bvfcijehgdsndfbg.jpg,0,0.0,0.0,0,103,103,103,,,,,,,,,,,,,236.0091098999983,0.009109899998293258,None,276.2641436999984,276.2641436999984,276.2641436999984,276.2641436999984,276.2641436999984,276.2641436999984,276.2641436999984,276.2641436999984,276.2641436999984,276.2641436999984,,008,P015,2025_Feb_28_1854,ConditionRich,2021.2.3,59.89501601577316,
236.75,240.0,41,0.0,Stimuli/Blank.png,0,0.0,0.0,0,104,104,104,,,,,,,,,,,,,236.77542299999914,0.025422999999136664,None,277.01476900000125,277.01476900000125,277.01476900000125,277.01476900000125,277.01476900000125,277.01476900000125,277.01476900000125,277.01476900000125,277.01476900000125,277.01476900000125,,008,P015,2025_Feb_28_1854,ConditionRich,2021.2.3,59.89501601577316,
240.0,240.75,38,0.75,Stimuli/P015/things_trumpet_08s.jpg,1,0.0,0.75,0,105,105,105,,,,,,,,,,,,,240.01453449999826,0.014534499998262618,1,280.2676949000015,280.2676949000015,280.2676949000015,280.2676949000015,280.2676949000015,280.2676949000015,280.2676949000015,281.0016747000009,280.2676949000015,280.2676949000015,0.4833911000023363,008,P015,2025_Feb_28_1854,ConditionRich,2021.2.3,59.89501601577316,
240.75,244.0,41,0.0,Stimuli/Blank.png,0,0.0,0.0,0,106,106,106,,,,,,,,,,,,,240.7790137999982,0.029013799998210743,None,281.0183275999989,281.0183275999989,281.0183275999989,281.0183275999989,281.0183275999989,281.0183275999989,281.0183275999989,281.0183275999989,281.0183275999989,281.0183275999989,,008,P015,2025_Feb_28_1854,ConditionRich,2021.2.3,59.89501601577316,
244.0,244.75,32,0.75,Stimuli/P015/things_pheasant_08s.jpg,0,0.0,0.0,0,107,107,107,,,,,,,,,,,,,244.0152906000003,0.015290600000298582,None,284.2711992000004,284.2711992000004,284.2711992000004,284.2711992000004,284.2711992000004,284.2711992000004,284.2711992000004,284.2711992000004,284.2711992000004,284.2711992000004,,008,P015,2025_Feb_28_1854,ConditionRich,2021.2.3,59.89501601577316,
244.75,248.0,41,0.0,Stimuli/Blank.png,0,0.0,0.0,0,108,108,108,,,,,,,,,,,,,244.76584939999884,0.015849399998842273,None,285.0051855999991,285.0051855999991,285.0051855999991,285.0051855999991,285.0051855999991,285.0051855999991,285.0051855999991,285.0051855999991,285.0051855999991,285.0051855999991,,008,P015,2025_Feb_28_1854,ConditionRich,2021.2.3,59.89501601577316,
248.0,248.75,16,0.75,Stimuli/P015/sun_bwhuwxazfqwuqhik.jpg,0,0.0,0.0,0,109,109,109,,,,,,,,,,,,,248.0028514000005,0.0028514000005088747,None,288.2580584999996,288.2580584999996,288.2580584999996,288.2580584999996,288.2580584999996,288.2580584999996,288.2580584999996,288.2580584999996,288.2580584999996,288.2580584999996,,008,P015,2025_Feb_28_1854,ConditionRich,2021.2.3,59.89501601577316,
248.75,252.0,41,0.0,Stimuli/Blank.png,1,2.25,3.0,0,110,110,110,,,,,,,,,,,,,248.76931989999866,0.01931989999866346,1,289.0087323000007,289.0087323000007,289.0087323000007,289.0087323000007,289.0087323000007,289.0087323000007,291.2440806000013,291.99472940000123,289.0087323000007,289.0087323000007,2.7266412999997556,008,P015,2025_Feb_28_1854,ConditionRich,2021.2.3,59.89501601577316,
252.0,252.75,21,0.75,Stimuli/P015/things_arch_08s.jpg,0,0.0,0.0,0,111,111,111,,,,,,,,,,,,,252.0056098999994,0.005609899999399204,None,292.26163670000096,292.26163670000096,292.26163670000096,292.26163670000096,292.26163670000096,292.26163670000096,292.26163670000096,292.26163670000096,292.26163670000096,292.26163670000096,,008,P015,2025_Feb_28_1854,ConditionRich,2021.2.3,59.89501601577316,
252.75,256.0,41,0.0,Stimuli/Blank.png,0,0.0,0.0,0,112,112,112,,,,,,,,,,,,,252.7739877999993,0.023987799999304116,None,293.0122768000001,293.0122768000001,293.0122768000001,293.0122768000001,293.0122768000001,293.0122768000001,293.0122768000001,293.0122768000001,293.0122768000001,293.0122768000001,,008,P015,2025_Feb_28_1854,ConditionRich,2021.2.3,59.89501601577316,
256.0,256.75,8,0.75,Stimuli/P015/sun_arldxotvfucvuudk.jpg,0,0.0,0.0,0,113,113,113,,,,,,,,,,,,,256.00937500000146,0.009375000001455192,None,296.24847489999956,296.24847489999956,296.24847489999956,296.24847489999956,296.24847489999956,296.24847489999956,296.24847489999956,296.24847489999956,296.24847489999956,296.24847489999956,,008,P015,2025_Feb_28_1854,ConditionRich,2021.2.3,59.89501601577316,
256.75,260.0,41,0.0,Stimuli/Blank.png,0,0.0,0.0,0,114,114,114,,,,,,,,,,,,,256.7628138,0.012813800000003539,None,297.0158158999984,297.0158158999984,297.0158158999984,297.0158158999984,297.0158158999984,297.0158158999984,297.0158158999984,297.0158158999984,297.0158158999984,297.0158158999984,,008,P015,2025_Feb_28_1854,ConditionRich,2021.2.3,59.89501601577316,
260.0,260.75,7,0.75,Stimuli/P015/sun_aqdfrmtvewaapuqs.jpg,0,0.0,0.0,0,115,115,115,,,,,,,,,,,,,260.02998690000095,0.02998690000094939,None,300.28538019999905,300.28538019999905,300.28538019999905,300.28538019999905,300.28538019999905,300.28538019999905,300.28538019999905,300.28538019999905,300.28538019999905,300.28538019999905,,008,P015,2025_Feb_28_1854,ConditionRich,2021.2.3,59.89501601577316,
260.75,264.0,41,0.0,Stimuli/Blank.png,0,0.0,0.0,0,116,116,116,,,,,,,,,,,,,260.78269419999924,0.03269419999924139,None,301.0360514999993,301.0360514999993,301.0360514999993,301.0360514999993,301.0360514999993,301.0360514999993,301.0360514999993,301.0360514999993,301.0360514999993,301.0360514999993,,008,P015,2025_Feb_28_1854,ConditionRich,2021.2.3,59.89501601577316,
264.0,264.75,12,0.75,Stimuli/P015/sun_boffixsnbbloarty.jpg,1,0.0,0.75,0,117,117,117,,,,,,,,,,,,,264.0161628999995,0.016162899999471847,None,304.25554310000007,304.25554310000007,304.25554310000007,304.25554310000007,304.25554310000007,304.25554310000007,304.25554310000007,None,304.25554310000007,304.25554310000007,,008,P015,2025_Feb_28_1854,ConditionRich,2021.2.3,59.89501601577316,
264.75,268.0,41,0.0,Stimuli/Blank.png,0,0.0,0.0,0,118,118,118,,,,,,,,,,,,,264.75112680000166,0.0011268000016571023,None,304.9895370999984,304.9895370999984,304.9895370999984,304.9895370999984,304.9895370999984,304.9895370999984,304.9895370999984,304.9895370999984,304.9895370999984,304.9895370999984,,008,P015,2025_Feb_28_1854,ConditionRich,2021.2.3,59.89501601577316,
268.0,268.75,19,0.75,Stimuli/P015/sun_bzhwvgrzvttqoexa.jpg,0,0.0,0.0,0,119,119,119,,,,,,,,,,,,,268.0046489999986,0.004648999998607906,None,308.25910529999965,308.25910529999965,308.25910529999965,308.25910529999965,308.25910529999965,308.25910529999965,308.25910529999965,308.25910529999965,308.25910529999965,308.25910529999965,,008,P015,2025_Feb_28_1854,ConditionRich,2021.2.3,59.89501601577316,
268.75,272.0,41,0.0,Stimuli/Blank.png,0,0.0,0.0,0,120,120,120,,,,,,,,,,,,,268.77127539999856,0.021275399998557987,None,309.0097609000004,309.0097609000004,309.0097609000004,309.0097609000004,309.0097609000004,309.0097609000004,309.0097609000004,309.0097609000004,309.0097609000004,309.0097609000004,,008,P015,2025_Feb_28_1854,ConditionRich,2021.2.3,59.89501601577316,
272.0,272.75,26,0.75,Stimuli/P015/things_face_08s.jpg,0,0.0,0.0,0,121,121,121,,,,,,,,,,,,,272.00740009999936,0.007400099999358645,None,312.2626402999995,312.2626402999995,312.2626402999995,312.2626402999995,312.2626402999995,312.2626402999995,312.2626402999995,312.2626402999995,312.2626402999995,312.2626402999995,,008,P015,2025_Feb_28_1854,ConditionRich,2021.2.3,59.89501601577316,
272.75,276.0,41,0.0,Stimuli/Blank.png,0,0.0,0.0,0,122,122,122,,,,,,,,,,,,,272.7739112999989,0.023911299998871982,None,313.01338079999914,313.01338079999914,313.01338079999914,313.01338079999914,313.01338079999914,313.01338079999914,313.01338079999914,313.01338079999914,313.01338079999914,313.01338079999914,,008,P015,2025_Feb_28_1854,ConditionRich,2021.2.3,59.89501601577316,
276.0,292.0,0,0.0,Stimuli/Blank.png,1,9.0,9.75,0,123,123,123,,,,,,,,,,,,,276.0101164000007,0.010116400000697467,1,316.2494985000012,316.2494985000012,316.2494985000012,316.2494985000012,316.2494985000012,316.2494985000012,325.240763400001,325.9914892000015,316.2494985000012,316.2494985000012,9.544817499998317,008,P015,2025_Feb_28_1854,ConditionRich,2021.2.3,59.89501601577316,
292.0,292.75,6,0.75,Stimuli/P015/sun_akecfasimgpbqcnt.jpg,0,0.0,0.0,0,124,124,124,,,,,,,,,,,,,292.0082618999986,0.008261899998615263,None,332.2469867,332.2469867,332.2469867,332.2469867,332.2469867,332.2469867,332.2469867,332.2469867,332.2469867,332.2469867,,008,P015,2025_Feb_28_1854,ConditionRich,2021.2.3,59.89501601577316,
292.75,296.0,41,0.0,Stimuli/Blank.png,0,0.0,0.0,0,125,125,125,,,,,,,,,,,,,292.7583216999992,0.008321699999214616,None,332.99764869999854,332.99764869999854,332.99764869999854,332.99764869999854,332.99764869999854,332.99764869999854,332.99764869999854,332.99764869999854,332.99764869999854,332.99764869999854,,008,P015,2025_Feb_28_1854,ConditionRich,2021.2.3,59.89501601577316,
296.0,296.75,27,0.75,Stimuli/P015/things_girl_08s.jpg,0,0.0,0.0,0,126,126,126,,,,,,,,,,,,,296.0127280000015,0.012728000001516193,None,336.2672270000003,336.2672270000003,336.2672270000003,336.2672270000003,336.2672270000003,336.2672270000003,336.2672270000003,336.2672270000003,336.2672270000003,336.2672270000003,,008,P015,2025_Feb_28_1854,ConditionRich,2021.2.3,59.89501601577316,
296.75,300.0,41,0.0,Stimuli/Blank.png,1,2.25,3.0,0,127,127,127,,,,,,,,,,,,,296.7790524000011,0.029052400001091883,1,337.01785129999917,337.01785129999917,337.01785129999917,337.01785129999917,337.01785129999917,337.01785129999917,339.2531764999985,340.00384420000046,337.01785129999917,337.01785129999917,2.6894130000000587,008,P015,2025_Feb_28_1854,ConditionRich,2021.2.3,59.89501601577316,
300.0,300.75,23,0.75,Stimuli/P015/things_boy_08s.jpg,0,0.0,0.0,0,128,128,128,,,,,,,,,,,,,300.01480359999914,0.014803599999140715,None,340.2540592000005,340.2540592000005,340.2540592000005,340.2540592000005,340.2540592000005,340.2540592000005,340.2540592000005,340.2540592000005,340.2540592000005,340.2540592000005,,008,P015,2025_Feb_28_1854,ConditionRich,2021.2.3,59.89501601577316,
300.75,304.0,41,0.0,Stimuli/Blank.png,1,2.25,3.0,0,129,129,129,,,,,,,,,,,,,300.7663536,0.01635360000000219,1,341.0047510000004,341.0047510000004,341.0047510000004,341.0047510000004,341.0047510000004,341.0047510000004,343.24009300000034,343.9907830000011,341.0047510000004,341.0047510000004,2.678780399997777,008,P015,2025_Feb_28_1854,ConditionRich,2021.2.3,59.89501601577316,
304.0,304.75,25,0.75,Stimuli/P015/things_deer_08s.jpg,0,0.0,0.0,0,130,130,130,,,,,,,,,,,,,304.0027980999985,0.0027980999984720256,None,344.25760770000124,344.25760770000124,344.25760770000124,344.25760770000124,344.25760770000124,344.25760770000124,344.25760770000124,344.25760770000124,344.25760770000124,344.25760770000124,,008,P015,2025_Feb_28_1854,ConditionRich,2021.2.3,59.89501601577316,
304.75,308.0,41,0.0,Stimuli/Blank.png,0,0.0,0.0,0,131,131,131,,,,,,,,,,,,,304.76880750000055,0.018807500000548316,None,345.0082614999992,345.0082614999992,345.0082614999992,345.0082614999992,345.0082614999992,345.0082614999992,345.0082614999992,345.0082614999992,345.0082614999992,345.0082614999992,,008,P015,2025_Feb_28_1854,ConditionRich,2021.2.3,59.89501601577316,
308.0,308.75,4,0.75,Stimuli/P015/sun_aiwuqxdqzftsfyeg.jpg,0,0.0,0.0,0,132,132,132,,,,,,,,,,,,,308.0053819999994,0.005381999999372056,None,348.2444667000018,348.2444667000018,348.2444667000018,348.2444667000018,348.2444667000018,348.2444667000018,348.2444667000018,348.2444667000018,348.2444667000018,348.2444667000018,,008,P015,2025_Feb_28_1854,ConditionRich,2021.2.3,59.89501601577316,
308.75,312.0,41,0.0,Stimuli/Blank.png,0,0.0,0.0,0,133,133,133,,,,,,,,,,,,,308.7563373000012,0.006337300001177937,None,348.9951371999996,348.9951371999996,348.9951371999996,348.9951371999996,348.9951371999996,348.9951371999996,348.9951371999996,348.9951371999996,348.9951371999996,348.9951371999996,,008,P015,2025_Feb_28_1854,ConditionRich,2021.2.3,59.89501601577316,
312.0,312.75,14,0.75,Stimuli/P015/sun_bpvmkbyglkraoxhh.jpg,0,0.0,0.0,0,134,134,134,,,,,,,,,,,,,312.0108070999995,0.010807099999510683,None,352.26469500000167,352.26469500000167,352.26469500000167,352.26469500000167,352.26469500000167,352.26469500000167,352.26469500000167,352.26469500000167,352.26469500000167,352.26469500000167,,008,P015,2025_Feb_28_1854,ConditionRich,2021.2.3,59.89501601577316,
312.75,316.0,41,0.0,Stimuli/Blank.png,0,0.0,0.0,0,135,135,135,,,,,,,,,,,,,312.77610060000006,0.026100600000063423,None,353.01536979999946,353.01536979999946,353.01536979999946,353.01536979999946,353.01536979999946,353.01536979999946,353.01536979999946,353.01536979999946,353.01536979999946,353.01536979999946,,008,P015,2025_Feb_28_1854,ConditionRich,2021.2.3,59.89501601577316,
316.0,316.75,5,0.75,Stimuli/P015/sun_ajgmxbrxdpmsaext.jpg,0,0.0,0.0,0,136,136,136,,,,,,,,,,,,,316.0129511000014,0.012951100001373561,None,356.2519006000002,356.2519006000002,356.2519006000002,356.2519006000002,356.2519006000002,356.2519006000002,356.2519006000002,356.2519006000002,356.2519006000002,356.2519006000002,,008,P015,2025_Feb_28_1854,ConditionRich,2021.2.3,59.89501601577316,
316.75,320.0,41,0.0,Stimuli/Blank.png,0,0.0,0.0,0,137,137,137,,,,,,,,,,,,,316.7636108000006,0.013610800000606105,None,357.0022209999988,357.0022209999988,357.0022209999988,357.0022209999988,357.0022209999988,357.0022209999988,357.0022209999988,357.0022209999988,357.0022209999988,357.0022209999988,,008,P015,2025_Feb_28_1854,ConditionRich,2021.2.3,59.89501601577316,
320.0,320.75,36,0.75,Stimuli/P015/things_streetlight_08s.jpg,0,0.0,0.0,0,138,138,138,,,,,,,,,,,,,319.9996538999985,-0.00034610000147949904,None,360.2384086999991,360.2384086999991,360.2384086999991,360.2384086999991,360.2384086999991,360.2384086999991,360.2384086999991,360.2384086999991,360.2384086999991,360.2384086999991,,008,P015,2025_Feb_28_1854,ConditionRich,2021.2.3,59.89501601577316,
320.75,324.0,41,0.0,Stimuli/Blank.png,1,0.25,1.0,0,139,139,139,,,,,,,,,,,,,320.75249840000106,0.0024984000010590535,1,361.0057798000016,361.0057798000016,361.0057798000016,361.0057798000016,361.0057798000016,361.0057798000016,361.2393325999983,361.98999449999974,361.0057798000016,361.0057798000016,0.7695997999981046,008,P015,2025_Feb_28_1854,ConditionRich,2021.2.3,59.89501601577316,
324.0,324.75,2,0.75,Stimuli/P015/sun_agzfkftryitnqpxc.jpg,0,0.0,0.0,0,140,140,140,,,,,,,,,,,,,324.0226107999988,0.022610799998801667,None,364.27533459999904,364.27533459999904,364.27533459999904,364.27533459999904,364.27533459999904,364.27533459999904,364.27533459999904,364.27533459999904,364.27533459999904,364.27533459999904,,008,P015,2025_Feb_28_1854,ConditionRich,2021.2.3,59.89501601577316,
324.75,328.0,41,0.0,Stimuli/Blank.png,0,0.0,0.0,0,141,141,141,,,,,,,,,,,,,324.77153330000147,0.02153330000146525,None,365.00932739999917,365.00932739999917,365.00932739999917,365.00932739999917,365.00932739999917,365.00932739999917,365.00932739999917,365.00932739999917,365.00932739999917,365.00932739999917,,008,P015,2025_Feb_28_1854,ConditionRich,2021.2.3,59.89501601577316,
328.0,328.75,39,0.75,Stimuli/P015/things_window_08s.jpg,0,0.0,0.0,0,142,142,142,,,,,,,,,,,,,328.00624869999956,0.0062486999995599035,None,368.26221090000035,368.26221090000035,368.26221090000035,368.26221090000035,368.26221090000035,368.26221090000035,368.26221090000035,368.26221090000035,368.26221090000035,368.26221090000035,,008,P015,2025_Feb_28_1854,ConditionRich,2021.2.3,59.89501601577316,
328.75,332.0,41,0.0,Stimuli/Blank.png,0,0.0,0.0,0,143,143,143,,,,,,,,,,,,,328.77572529999816,0.025725299998157425,None,369.0295412000014,369.0295412000014,369.0295412000014,369.0295412000014,369.0295412000014,369.0295412000014,369.0295412000014,369.0295412000014,369.0295412000014,369.0295412000014,,008,P015,2025_Feb_28_1854,ConditionRich,2021.2.3,59.89501601577316,
332.0,332.75,30,0.75,Stimuli/P015/things_ottoman_08s.jpg,0,0.0,0.0,0,144,144,144,,,,,,,,,,,,,332.02738110000064,0.02738110000063898,None,372.28251929999897,372.28251929999897,372.28251929999897,372.28251929999897,372.28251929999897,372.28251929999897,372.28251929999897,372.28251929999897,372.28251929999897,372.28251929999897,,008,P015,2025_Feb_28_1854,ConditionRich,2021.2.3,59.89501601577316,
332.75,336.0,41,0.0,Stimuli/Blank.png,0,0.0,0.0,0,145,145,145,,,,,,,,,,,,,332.7776991999999,0.027699199999915436,None,373.01638860000094,373.01638860000094,373.01638860000094,373.01638860000094,373.01638860000094,373.01638860000094,373.01638860000094,373.01638860000094,373.01638860000094,373.01638860000094,,008,P015,2025_Feb_28_1854,ConditionRich,2021.2.3,59.89501601577316,
336.0,336.75,37,0.75,Stimuli/P015/things_swizzle_stick_08s.jpg,0,0.0,0.0,0,146,146,146,,,,,,,,,,,,,336.01333729999897,0.013337299998966046,None,376.25258889999895,376.25258889999895,376.25258889999895,376.25258889999895,376.25258889999895,376.25258889999895,376.25258889999895,376.25258889999895,376.25258889999895,376.25258889999895,,008,P015,2025_Feb_28_1854,ConditionRich,2021.2.3,59.89501601577316,
336.75,340.0,41,0.0,Stimuli/Blank.png,0,0.0,0.0,0,147,147,147,,,,,,,,,,,,,336.76475460000074,0.014754600000742357,None,377.0032480000009,377.0032480000009,377.0032480000009,377.0032480000009,377.0032480000009,377.0032480000009,377.0032480000009,377.0032480000009,377.0032480000009,377.0032480000009,,008,P015,2025_Feb_28_1854,ConditionRich,2021.2.3,59.89501601577316,
340.0,340.75,33,0.75,Stimuli/P015/things_raccoon_08n.jpg,0,0.0,0.0,0,148,148,148,,,,,,,,,,,,,340.00253599999996,0.0025359999999636784,None,380.25615330000073,380.25615330000073,380.25615330000073,380.25615330000073,380.25615330000073,380.25615330000073,380.25615330000073,380.25615330000073,380.25615330000073,380.25615330000073,,008,P015,2025_Feb_28_1854,ConditionRich,2021.2.3,59.89501601577316,
340.75,344.0,41,0.0,Stimuli/Blank.png,0,0.0,0.0,0,149,149,149,,,,,,,,,,,,,340.7682031000004,0.018203100000391714,None,381.0067947999996,381.0067947999996,381.0067947999996,381.0067947999996,381.0067947999996,381.0067947999996,381.0067947999996,381.0067947999996,381.0067947999996,381.0067947999996,,008,P015,2025_Feb_28_1854,ConditionRich,2021.2.3,59.89501601577316,
344.0,344.75,35,0.75,Stimuli/P015/things_squid_08s.jpg,0,0.0,0.0,0,150,150,150,,,,,,,,,,,,,344.0041190999982,0.004119099998206366,None,384.2429888000006,384.2429888000006,384.2429888000006,384.2429888000006,384.2429888000006,384.2429888000006,384.2429888000006,384.2429888000006,384.2429888000006,384.2429888000006,,008,P015,2025_Feb_28_1854,ConditionRich,2021.2.3,59.89501601577316,
344.75,348.0,41,0.0,Stimuli/Blank.png,0,0.0,0.0,0,151,151,151,,,,,,,,,,,,,344.7555702999998,0.005570299999817507,None,384.99371039999824,384.99371039999824,384.99371039999824,384.99371039999824,384.99371039999824,384.99371039999824,384.99371039999824,384.99371039999824,384.99371039999824,384.99371039999824,,008,P015,2025_Feb_28_1854,ConditionRich,2021.2.3,59.89501601577316,
348.0,348.75,31,0.75,Stimuli/P015/things_outlet_08s.jpg,0,0.0,0.0,0,152,152,152,,,,,,,,,,,,,348.0086881999996,0.00868819999959669,None,388.26321760000064,388.26321760000064,388.26321760000064,388.26321760000064,388.26321760000064,388.26321760000064,388.26321760000064,388.26321760000064,388.26321760000064,388.26321760000064,,008,P015,2025_Feb_28_1854,ConditionRich,2021.2.3,59.89501601577316,
348.75,352.0,41,0.0,Stimuli/Blank.png,0,0.0,0.0,0,153,153,153,,,,,,,,,,,,,348.7744922999991,0.0244922999991104,None,389.01397930000167,389.01397930000167,389.01397930000167,389.01397930000167,389.01397930000167,389.01397930000167,389.01397930000167,389.01397930000167,389.01397930000167,389.01397930000167,,008,P015,2025_Feb_28_1854,ConditionRich,2021.2.3,59.89501601577316,
352.0,352.75,3,0.75,Stimuli/P015/sun_aiogwnavezqxkzfg.jpg,0,0.0,0.0,0,154,154,154,,,,,,,,,,,,,352.0128932000007,0.01289320000068983,None,392.2667576999993,392.2667576999993,392.2667576999993,392.2667576999993,392.2667576999993,392.2667576999993,392.2667576999993,392.2667576999993,392.2667576999993,392.2667576999993,,008,P015,2025_Feb_28_1854,ConditionRich,2021.2.3,59.89501601577316,
352.75,356.0,41,0.0,Stimuli/Blank.png,0,0.0,0.0,0,155,155,155,,,,,,,,,,,,,352.7787634000015,0.028763400001480477,None,393.01742119999835,393.01742119999835,393.01742119999835,393.01742119999835,393.01742119999835,393.01742119999835,393.01742119999835,393.01742119999835,393.01742119999835,393.01742119999835,,008,P015,2025_Feb_28_1854,ConditionRich,2021.2.3,59.89501601577316,
356.0,356.75,24,0.75,Stimuli/P015/things_bunkbed_08s.jpg,0,0.0,0.0,0,156,156,156,,,,,,,,,,,,,356.0150837000001,0.015083700000104727,None,396.270328300001,396.270328300001,396.270328300001,396.270328300001,396.270328300001,396.270328300001,396.270328300001,396.270328300001,396.270328300001,396.270328300001,,008,P015,2025_Feb_28_1854,ConditionRich,2021.2.3,59.89501601577316,
356.75,360.0,41,0.0,Stimuli/Blank.png,0,0.0,0.0,0,157,157,157,,,,,,,,,,,,,356.7662844000006,0.016284400000586174,None,397.00430419999975,397.00430419999975,397.00430419999975,397.00430419999975,397.00430419999975,397.00430419999975,397.00430419999975,397.00430419999975,397.00430419999975,397.00430419999975,,008,P015,2025_Feb_28_1854,ConditionRich,2021.2.3,59.89501601577316,
360.0,360.75,34,0.75,Stimuli/P015/things_shower_cap_08s.jpg,0,0.0,0.0,0,158,158,158,,,,,,,,,,,,,360.00233780000053,0.0023378000005322974,None,400.2571610999985,400.2571610999985,400.2571610999985,400.2571610999985,400.2571610999985,400.2571610999985,400.2571610999985,400.2571610999985,400.2571610999985,400.2571610999985,,008,P015,2025_Feb_28_1854,ConditionRich,2021.2.3,59.89501601577316,
360.75,364.0,41,0.0,Stimuli/Blank.png,1,1.25,2.0,0,159,159,159,,,,,,,,,,,,,360.76841250000143,0.01841250000143191,1,401.0078262999996,401.0078262999996,401.0078262999996,401.0078262999996,401.0078262999996,401.0078262999996,402.2423028999983,402.9929531000016,401.0078262999996,401.0078262999996,1.6375795999992988,008,P015,2025_Feb_28_1854,ConditionRich,2021.2.3,59.89501601577316,
364.0,364.75,18,0.75,Stimuli/P015/sun_byavixgfuhzioilz.jpg,0,0.0,0.0,0,160,160,160,,,,,,,,,,,,,364.00589430000036,0.005894300000363728,None,404.2607014999994,404.2607014999994,404.2607014999994,404.2607014999994,404.2607014999994,404.2607014999994,404.2607014999994,404.2607014999994,404.2607014999994,404.2607014999994,,008,P015,2025_Feb_28_1854,ConditionRich,2021.2.3,59.89501601577316,
364.75,368.0,41,0.0,Stimuli/Blank.png,0,0.0,0.0,0,161,161,161,,,,,,,,,,,,,364.7727397999988,0.022739799998817034,None,405.0113859000012,405.0113859000012,405.0113859000012,405.0113859000012,405.0113859000012,405.0113859000012,405.0113859000012,405.0113859000012,405.0113859000012,405.0113859000012,,008,P015,2025_Feb_28_1854,ConditionRich,2021.2.3,59.89501601577316,
368.0,368.75,17,0.75,Stimuli/P015/sun_bxhbltvqnpaciuzt.jpg,0,0.0,0.0,0,162,162,162,,,,,,,,,,,,,368.0088801999991,0.008880199999111937,None,408.26427559999865,408.26427559999865,408.26427559999865,408.26427559999865,408.26427559999865,408.26427559999865,408.26427559999865,408.26427559999865,408.26427559999865,408.26427559999865,,008,P015,2025_Feb_28_1854,ConditionRich,2021.2.3,59.89501601577316,
368.75,372.0,41,0.0,Stimuli/Blank.png,0,0.0,0.0,0,163,163,163,,,,,,,,,,,,,368.77543270000024,0.025432700000237674,None,409.01491069999975,409.01491069999975,409.01491069999975,409.01491069999975,409.01491069999975,409.01491069999975,409.01491069999975,409.01491069999975,409.01491069999975,409.01491069999975,,008,P015,2025_Feb_28_1854,ConditionRich,2021.2.3,59.89501601577316,
372.0,388.0,0,0.0,Stimuli/Blank.png,1,4.0,4.75,0,164,164,164,,,,,,,,,,,,,372.0139874999986,0.013987499998620478,1,412.2677909000013,412.2677909000013,412.2677909000013,412.2677909000013,412.2677909000013,412.2677909000013,416.25471670000115,417.00534980000157,412.2677909000013,412.2677909000013,4.461579400001938,008,P015,2025_Feb_28_1854,ConditionRich,2021.2.3,59.89501601577316,
