eventStartTime,eventEndTime,eventCond,imSize,imFile,responseEvent,fixRespStart,fixRespEnd,Events.thisRepN,Events.thisTrialN,Events.thisN,Events.thisIndex,Instructions.started,Instructions.stopped,participantReadyResponse.keys,participantReadyResponse.rt,participantReadyResponse.started,participantReadyResponse.stopped,startWaitforTrigger,triggerResponse.keys,triggerResponse.rt,triggerResponse.started,triggerResponse.stopped,globalTimer,actualStartTime,startTimingDiff,participantResponse.keys,participantResponse.started,participantResponse.stopped,image.started,image.stopped,fixationOutside.started,fixationOutside.stopped,fixationResponse.started,fixationResponse.stopped,fixationInside.started,fixationInside.stopped,participantResponse.rt,session,participant,date,expName,psychopyVersion,frameRate,
,,,,,,,,,,,,10.633260899998277,None,1,14.410420600001089,10.633260899998277,None,,,,,,,,,,,,,,,,,,,,,004,P015,2025_Feb_28_1818,ConditionRich,2021.2.3,59.94754589746534,
,,,,,,,,,,,,,,,,,,25.049861200001033,5,14.11256869999852,25.06309599999804,None,,,,,,,,,,,,,,,,004,P015,2025_Feb_28_1818,ConditionRich,2021.2.3,59.94754589746534,
0.0,4.0,0,0.0,Stimuli/Blank.png,0,0,0.0,0,0,0,0,,,,,,,,,,,,39.17867240000123,0.0256706000000122,0.0256706000000122,None,39.225720499998715,None,39.225720499998715,None,39.225720499998715,None,39.225720499998715,39.225720499998715,39.225720499998715,None,,004,P015,2025_Feb_28_1818,ConditionRich,2021.2.3,59.94754589746534,
4.0,7.75,1,0.75,Stimuli/P015/sun_aacpzgqrortyhyss.jpg,0,0,0.0,0,1,1,1,,,,,,,,,,,,,4.020885400001134,0.020885400001134258,None,43.22955379999985,43.22955379999985,43.22955379999985,43.22955379999985,43.22955379999985,43.22955379999985,43.22955379999985,43.22955379999985,43.22955379999985,43.22955379999985,,004,P015,2025_Feb_28_1818,ConditionRich,2021.2.3,59.94754589746534,
7.75,8.0,41,0.0,Stimuli/Blank.png,0,0,0.0,0,2,2,2,,,,,,,,,,,,,7.774511600000551,0.02451160000055097,None,46.966270000000804,46.966270000000804,46.966270000000804,46.966270000000804,46.966270000000804,46.966270000000804,46.966270000000804,46.966270000000804,46.966270000000804,46.966270000000804,,004,P015,2025_Feb_28_1818,ConditionRich,2021.2.3,59.94754589746534,
8.0,11.75,11,0.75,Stimuli/P015/sun_bnwmcjuinqbdsbho.jpg,0,0,0.0,0,3,3,3,,,,,,,,,,,,,8.008967600002507,0.008967600002506515,None,47.2161300000007,47.2161300000007,47.2161300000007,47.2161300000007,47.2161300000007,47.2161300000007,47.2161300000007,47.2161300000007,47.2161300000007,47.2161300000007,,004,P015,2025_Feb_28_1818,ConditionRich,2021.2.3,59.94754589746534,
11.75,12.0,41,0.0,Stimuli/Blank.png,0,0,0.0,0,4,4,4,,,,,,,,,,,,,11.776957600002788,0.02695760000278824,None,50.969458999999915,50.969458999999915,50.969458999999915,50.969458999999915,50.969458999999915,50.969458999999915,50.969458999999915,50.969458999999915,50.969458999999915,50.969458999999915,,004,P015,2025_Feb_28_1818,ConditionRich,2021.2.3,59.94754589746534,
12.0,15.75,5,0.75,Stimuli/P015/sun_ajgmxbrxdpmsaext.jpg,0,0,0.0,0,5,5,5,,,,,,,,,,,,,12.009696200002509,0.009696200002508704,None,51.20298199999888,51.20298199999888,51.20298199999888,51.20298199999888,51.20298199999888,51.20298199999888,51.20298199999888,51.20298199999888,51.20298199999888,51.20298199999888,,004,P015,2025_Feb_28_1818,ConditionRich,2021.2.3,59.94754589746534,
15.75,16.0,41,0.0,Stimuli/Blank.png,0,0,0.0,0,6,6,6,,,,,,,,,,,,,15.76516679999986,0.015166799999860814,None,54.97300669999822,54.97300669999822,54.97300669999822,54.97300669999822,54.97300669999822,54.97300669999822,54.97300669999822,54.97300669999822,54.97300669999822,54.97300669999822,,004,P015,2025_Feb_28_1818,ConditionRich,2021.2.3,59.94754589746534,
16.0,19.75,3,0.75,Stimuli/P015/sun_aiogwnavezqxkzfg.jpg,1,0,0.75,0,7,7,7,,,,,,,,,,,,,16.03084360000139,0.03084360000138986,1,55.239892900000996,55.239892900000996,55.239892900000996,55.239892900000996,55.239892900000996,55.239892900000996,55.239892900000996,55.95723459999863,55.239892900000996,55.239892900000996,0.5108924999985902,004,P015,2025_Feb_28_1818,ConditionRich,2021.2.3,59.94754589746534,
19.75,20.0,41,0.0,Stimuli/Blank.png,0,0,0.0,0,8,8,8,,,,,,,,,,,,,19.76670170000216,0.01670170000215876,None,58.95985600000131,58.95985600000131,58.95985600000131,58.95985600000131,58.95985600000131,58.95985600000131,58.95985600000131,58.95985600000131,58.95985600000131,58.95985600000131,,004,P015,2025_Feb_28_1818,ConditionRich,2021.2.3,59.94754589746534,
20.0,23.75,28,0.75,Stimuli/P015/things_latte_08s.jpg,1,3,3.75,0,9,9,9,,,,,,,,,,,,,20.00092399999994,0.000923999999940861,1,59.193399200001295,59.193399200001295,59.193399200001295,59.193399200001295,59.193399200001295,59.193399200001295,62.179366799999116,62.93009280000115,59.193399200001295,59.193399200001295,3.5113761000029626,004,P015,2025_Feb_28_1818,ConditionRich,2021.2.3,59.94754589746534,
23.75,24.0,41,0.0,Stimuli/Blank.png,0,0,0.0,0,10,10,10,,,,,,,,,,,,,23.754250000001775,0.004250000001775334,None,62.94673089999924,62.94673089999924,62.94673089999924,62.94673089999924,62.94673089999924,62.94673089999924,62.94673089999924,62.94673089999924,62.94673089999924,62.94673089999924,,004,P015,2025_Feb_28_1818,ConditionRich,2021.2.3,59.94754589746534,
24.0,27.75,16,0.75,Stimuli/P015/sun_bwhuwxazfqwuqhik.jpg,0,0,0.0,0,11,11,11,,,,,,,,,,,,,24.005883199999516,0.005883199999516364,None,63.21359070000108,63.21359070000108,63.21359070000108,63.21359070000108,63.21359070000108,63.21359070000108,63.21359070000108,63.21359070000108,63.21359070000108,63.21359070000108,,004,P015,2025_Feb_28_1818,ConditionRich,2021.2.3,59.94754589746534,
27.75,28.0,41,0.0,Stimuli/Blank.png,0,0,0.0,0,12,12,12,,,,,,,,,,,,,27.775775400001294,0.025775400001293747,None,66.9836327999983,66.9836327999983,66.9836327999983,66.9836327999983,66.9836327999983,66.9836327999983,66.9836327999983,66.9836327999983,66.9836327999983,66.9836327999983,,004,P015,2025_Feb_28_1818,ConditionRich,2021.2.3,59.94754589746534,
28.0,31.75,22,0.75,Stimuli/P015/things_baby_08s.jpg,0,0,0.0,0,13,13,13,,,,,,,,,,,,,28.025253700001485,0.025253700001485413,None,67.23383620000095,67.23383620000095,67.23383620000095,67.23383620000095,67.23383620000095,67.23383620000095,67.23383620000095,67.23383620000095,67.23383620000095,67.23383620000095,,004,P015,2025_Feb_28_1818,ConditionRich,2021.2.3,59.94754589746534,
31.75,32.0,41,0.0,Stimuli/Blank.png,0,0,0.0,0,14,14,14,,,,,,,,,,,,,31.777456600000733,0.02745660000073258,None,70.97049029999835,70.97049029999835,70.97049029999835,70.97049029999835,70.97049029999835,70.97049029999835,70.97049029999835,70.97049029999835,70.97049029999835,70.97049029999835,,004,P015,2025_Feb_28_1818,ConditionRich,2021.2.3,59.94754589746534,
32.0,35.75,19,0.75,Stimuli/P015/sun_bzhwvgrzvttqoexa.jpg,0,0,0.0,0,15,15,15,,,,,,,,,,,,,32.01133200000186,0.011332000001857523,None,71.20402090000061,71.20402090000061,71.20402090000061,71.20402090000061,71.20402090000061,71.20402090000061,71.20402090000061,71.20402090000061,71.20402090000061,71.20402090000061,,004,P015,2025_Feb_28_1818,ConditionRich,2021.2.3,59.94754589746534,
35.75,36.0,41,0.0,Stimuli/Blank.png,0,0,0.0,0,16,16,16,,,,,,,,,,,,,35.76553799999965,0.01553799999965122,None,74.97405439999784,74.97405439999784,74.97405439999784,74.97405439999784,74.97405439999784,74.97405439999784,74.97405439999784,74.97405439999784,74.97405439999784,74.97405439999784,,004,P015,2025_Feb_28_1818,ConditionRich,2021.2.3,59.94754589746534,
36.0,39.75,6,0.75,Stimuli/P015/sun_akecfasimgpbqcnt.jpg,1,0,0.75,0,17,17,17,,,,,,,,,,,,,36.0151059000018,0.015105900001799455,1,75.20756679999977,75.20756679999977,75.20756679999977,75.20756679999977,75.20756679999977,75.20756679999977,75.20756679999977,75.94155099999989,75.20756679999977,75.20756679999977,0.4894949999979872,004,P015,2025_Feb_28_1818,ConditionRich,2021.2.3,59.94754589746534,
39.75,40.0,41,0.0,Stimuli/Blank.png,0,0,0.0,0,18,18,18,,,,,,,,,,,,,39.751732900000206,0.0017329000002064276,None,78.94428799999878,78.94428799999878,78.94428799999878,78.94428799999878,78.94428799999878,78.94428799999878,78.94428799999878,78.94428799999878,78.94428799999878,78.94428799999878,,004,P015,2025_Feb_28_1818,ConditionRich,2021.2.3,59.94754589746534,
40.0,43.75,21,0.75,Stimuli/P015/things_arch_08s.jpg,0,0,0.0,0,19,19,19,,,,,,,,,,,,,40.001083400002244,0.0010834000022441614,None,79.19442759999947,79.19442759999947,79.19442759999947,79.19442759999947,79.19442759999947,79.19442759999947,79.19442759999947,79.19442759999947,79.19442759999947,79.19442759999947,,004,P015,2025_Feb_28_1818,ConditionRich,2021.2.3,59.94754589746534,
43.75,44.0,41,0.0,Stimuli/Blank.png,0,0,0.0,0,20,20,20,,,,,,,,,,,,,43.75480670000252,0.0048067000025184825,None,82.94784059999802,82.94784059999802,82.94784059999802,82.94784059999802,82.94784059999802,82.94784059999802,82.94784059999802,82.94784059999802,82.94784059999802,82.94784059999802,,004,P015,2025_Feb_28_1818,ConditionRich,2021.2.3,59.94754589746534,
44.0,47.75,10,0.75,Stimuli/P015/sun_bfojpvrlsrtfyzio.jpg,0,0,0.0,0,21,21,21,,,,,,,,,,,,,44.00563340000008,0.0056334000000788365,None,83.21465719999833,83.21465719999833,83.21465719999833,83.21465719999833,83.21465719999833,83.21465719999833,83.21465719999833,83.21465719999833,83.21465719999833,83.21465719999833,,004,P015,2025_Feb_28_1818,ConditionRich,2021.2.3,59.94754589746534,
47.75,48.0,41,0.0,Stimuli/Blank.png,0,0,0.0,0,22,22,22,,,,,,,,,,,,,47.775199200001225,0.02519920000122511,None,86.96798370000033,86.96798370000033,86.96798370000033,86.96798370000033,86.96798370000033,86.96798370000033,86.96798370000033,86.96798370000033,86.96798370000033,86.96798370000033,,004,P015,2025_Feb_28_1818,ConditionRich,2021.2.3,59.94754589746534,
48.0,51.75,4,0.75,Stimuli/P015/sun_aiwuqxdqzftsfyeg.jpg,0,0,0.0,0,23,23,23,,,,,,,,,,,,,48.00880490000054,0.008804900000541238,None,87.20151579999947,87.20151579999947,87.20151579999947,87.20151579999947,87.20151579999947,87.20151579999947,87.20151579999947,87.20151579999947,87.20151579999947,87.20151579999947,,004,P015,2025_Feb_28_1818,ConditionRich,2021.2.3,59.94754589746534,
51.75,52.0,41,0.0,Stimuli/Blank.png,0,0,0.0,0,24,24,24,,,,,,,,,,,,,51.761723900002835,0.011723900002834853,None,90.95491250000123,90.95491250000123,90.95491250000123,90.95491250000123,90.95491250000123,90.95491250000123,90.95491250000123,90.95491250000123,90.95491250000123,90.95491250000123,,004,P015,2025_Feb_28_1818,ConditionRich,2021.2.3,59.94754589746534,
52.0,55.75,29,0.75,Stimuli/P015/things_mouse1_08s.jpg,0,0,0.0,0,25,25,25,,,,,,,,,,,,,52.012247300001036,0.01224730000103591,None,91.20506039999964,91.20506039999964,91.20506039999964,91.20506039999964,91.20506039999964,91.20506039999964,91.20506039999964,91.20506039999964,91.20506039999964,91.20506039999964,,004,P015,2025_Feb_28_1818,ConditionRich,2021.2.3,59.94754589746534,
55.75,56.0,41,0.0,Stimuli/Blank.png,0,0,0.0,0,26,26,26,,,,,,,,,,,,,55.76548980000007,0.015489800000068499,None,94.95838899999944,94.95838899999944,94.95838899999944,94.95838899999944,94.95838899999944,94.95838899999944,94.95838899999944,94.95838899999944,94.95838899999944,94.95838899999944,,004,P015,2025_Feb_28_1818,ConditionRich,2021.2.3,59.94754589746534,
56.0,59.75,23,0.75,Stimuli/P015/things_boy_08s.jpg,0,0,0.0,0,27,27,27,,,,,,,,,,,,,55.999823600002856,-0.00017639999714447185,None,95.20860510000057,95.20860510000057,95.20860510000057,95.20860510000057,95.20860510000057,95.20860510000057,95.20860510000057,95.20860510000057,95.20860510000057,95.20860510000057,,004,P015,2025_Feb_28_1818,ConditionRich,2021.2.3,59.94754589746534,
59.75,60.0,41,0.0,Stimuli/Blank.png,0,0,0.0,0,28,28,28,,,,,,,,,,,,,59.76879410000038,0.01879410000037751,None,98.96192429999792,98.96192429999792,98.96192429999792,98.96192429999792,98.96192429999792,98.96192429999792,98.96192429999792,98.96192429999792,98.96192429999792,98.96192429999792,,004,P015,2025_Feb_28_1818,ConditionRich,2021.2.3,59.94754589746534,
60.0,63.75,15,0.75,Stimuli/P015/sun_bvfcijehgdsndfbg.jpg,0,0,0.0,0,29,29,29,,,,,,,,,,,,,60.00294140000187,0.0029414000018732622,None,99.19547579999926,99.19547579999926,99.19547579999926,99.19547579999926,99.19547579999926,99.19547579999926,99.19547579999926,99.19547579999926,99.19547579999926,99.19547579999926,,004,P015,2025_Feb_28_1818,ConditionRich,2021.2.3,59.94754589746534,
63.75,64.0,41,0.0,Stimuli/Blank.png,0,0,0.0,0,30,30,30,,,,,,,,,,,,,63.75569920000271,0.005699200002709404,None,102.94880660000126,102.94880660000126,102.94880660000126,102.94880660000126,102.94880660000126,102.94880660000126,102.94880660000126,102.94880660000126,102.94880660000126,102.94880660000126,,004,P015,2025_Feb_28_1818,ConditionRich,2021.2.3,59.94754589746534,
64.0,67.75,24,0.75,Stimuli/P015/things_bunkbed_08s.jpg,0,0,0.0,0,31,31,31,,,,,,,,,,,,,64.00752439999997,0.007524399999965681,None,103.21569499999896,103.21569499999896,103.21569499999896,103.21569499999896,103.21569499999896,103.21569499999896,103.21569499999896,103.21569499999896,103.21569499999896,103.21569499999896,,004,P015,2025_Feb_28_1818,ConditionRich,2021.2.3,59.94754589746534,
67.75,68.0,41,0.0,Stimuli/Blank.png,0,0,0.0,0,32,32,32,,,,,,,,,,,,,67.77581230000214,0.025812300002144184,None,106.96901849999995,106.96901849999995,106.96901849999995,106.96901849999995,106.96901849999995,106.96901849999995,106.96901849999995,106.96901849999995,106.96901849999995,106.96901849999995,,004,P015,2025_Feb_28_1818,ConditionRich,2021.2.3,59.94754589746534,
68.0,71.75,32,0.75,Stimuli/P015/things_pheasant_08s.jpg,1,3,3.75,0,33,33,33,,,,,,,,,,,,,68.01244030000089,0.012440300000889692,1,107.21926610000082,107.21926610000082,107.21926610000082,107.21926610000082,107.21926610000082,107.21926610000082,110.20521409999856,110.9392001999986,107.21926610000082,107.21926610000082,3.5254950000016834,004,P015,2025_Feb_28_1818,ConditionRich,2021.2.3,59.94754589746534,
71.75,72.0,41,0.0,Stimuli/Blank.png,0,0,0.0,0,34,34,34,,,,,,,,,,,,,71.76257530000294,0.012575300002936274,None,110.955887600001,110.955887600001,110.955887600001,110.955887600001,110.955887600001,110.955887600001,110.955887600001,110.955887600001,110.955887600001,110.955887600001,,004,P015,2025_Feb_28_1818,ConditionRich,2021.2.3,59.94754589746534,
72.0,75.75,40,0.75,Stimuli/P015/things_woman_08s.jpg,0,0,0.0,0,35,35,35,,,,,,,,,,,,,72.01387389999945,0.013873899999452988,None,111.20609849999892,111.20609849999892,111.20609849999892,111.20609849999892,111.20609849999892,111.20609849999892,111.20609849999892,111.20609849999892,111.20609849999892,111.20609849999892,,004,P015,2025_Feb_28_1818,ConditionRich,2021.2.3,59.94754589746534,
75.75,76.0,41,0.0,Stimuli/Blank.png,0,0,0.0,0,36,36,36,,,,,,,,,,,,,75.74993670000185,-6.329999814624898e-05,None,114.94271849999859,114.94271849999859,114.94271849999859,114.94271849999859,114.94271849999859,114.94271849999859,114.94271849999859,114.94271849999859,114.94271849999859,114.94271849999859,,004,P015,2025_Feb_28_1818,ConditionRich,2021.2.3,59.94754589746534,
76.0,79.75,2,0.75,Stimuli/P015/sun_agzfkftryitnqpxc.jpg,0,0,0.0,0,37,37,37,,,,,,,,,,,,,75.99996800000008,-3.199999991920777e-05,None,115.20964960000128,115.20964960000128,115.20964960000128,115.20964960000128,115.20964960000128,115.20964960000128,115.20964960000128,115.20964960000128,115.20964960000128,115.20964960000128,,004,P015,2025_Feb_28_1818,ConditionRich,2021.2.3,59.94754589746534,
79.75,80.0,41,0.0,Stimuli/Blank.png,0,0,0.0,0,38,38,38,,,,,,,,,,,,,79.76966440000251,0.019664400002511684,None,118.96296789999906,118.96296789999906,118.96296789999906,118.96296789999906,118.96296789999906,118.96296789999906,118.96296789999906,118.96296789999906,118.96296789999906,118.96296789999906,,004,P015,2025_Feb_28_1818,ConditionRich,2021.2.3,59.94754589746534,
80.0,83.75,27,0.75,Stimuli/P015/things_girl_08s.jpg,0,0,0.0,0,39,39,39,,,,,,,,,,,,,80.00334320000184,0.0033432000018365216,None,119.19650550000006,119.19650550000006,119.19650550000006,119.19650550000006,119.19650550000006,119.19650550000006,119.19650550000006,119.19650550000006,119.19650550000006,119.19650550000006,,004,P015,2025_Feb_28_1818,ConditionRich,2021.2.3,59.94754589746534,
83.75,84.0,41,0.0,Stimuli/Blank.png,0,0,0.0,0,40,40,40,,,,,,,,,,,,,83.75651339999968,0.0065133999996760394,None,122.94982890000028,122.94982890000028,122.94982890000028,122.94982890000028,122.94982890000028,122.94982890000028,122.94982890000028,122.94982890000028,122.94982890000028,122.94982890000028,,004,P015,2025_Feb_28_1818,ConditionRich,2021.2.3,59.94754589746534,
84.0,100.0,0,0.0,Stimuli/Blank.png,1,5,5.75,0,41,41,41,,,,,,,,,,,,,84.00697489999948,0.006974899999477202,1,123.20005780000065,123.20005780000065,123.20005780000065,123.20005780000065,123.20005780000065,123.20005780000065,128.18783709999843,128.93846219999978,123.20005780000065,123.20005780000065,5.477755200001411,004,P015,2025_Feb_28_1818,ConditionRich,2021.2.3,59.94754589746534,
100.0,103.75,7,0.75,Stimuli/P015/sun_aqdfrmtvewaapuqs.jpg,0,0,0.0,0,42,42,42,,,,,,,,,,,,,100.00730980000299,0.007309800002985867,None,139.21423839999989,139.21423839999989,139.21423839999989,139.21423839999989,139.21423839999989,139.21423839999989,139.21423839999989,139.21423839999989,139.21423839999989,139.21423839999989,,004,P015,2025_Feb_28_1818,ConditionRich,2021.2.3,59.94754589746534,
103.75,104.0,41,0.0,Stimuli/Blank.png,0,0,0.0,0,43,43,43,,,,,,,,,,,,,103.7773640000014,0.02736400000139838,None,142.984244700001,142.984244700001,142.984244700001,142.984244700001,142.984244700001,142.984244700001,142.984244700001,142.984244700001,142.984244700001,142.984244700001,,004,P015,2025_Feb_28_1818,ConditionRich,2021.2.3,59.94754589746534,
104.0,107.75,35,0.75,Stimuli/P015/things_squid_08s.jpg,0,0,0.0,0,44,44,44,,,,,,,,,,,,,104.02593130000241,0.025931300002412172,None,143.23445830000128,143.23445830000128,143.23445830000128,143.23445830000128,143.23445830000128,143.23445830000128,143.23445830000128,143.23445830000128,143.23445830000128,143.23445830000128,,004,P015,2025_Feb_28_1818,ConditionRich,2021.2.3,59.94754589746534,
107.75,108.0,41,0.0,Stimuli/Blank.png,0,0,0.0,0,45,45,45,,,,,,,,,,,,,107.77809790000174,0.028097900001739617,None,146.971096199999,146.971096199999,146.971096199999,146.971096199999,146.971096199999,146.971096199999,146.971096199999,146.971096199999,146.971096199999,146.971096199999,,004,P015,2025_Feb_28_1818,ConditionRich,2021.2.3,59.94754589746534,
108.0,111.75,20,0.75,Stimuli/P015/sun_bzmxulijbnmshodq.jpg,0,0,0.0,0,46,46,46,,,,,,,,,,,,,108.01222680000137,0.012226800001371885,None,147.22131779999836,147.22131779999836,147.22131779999836,147.22131779999836,147.22131779999836,147.22131779999836,147.22131779999836,147.22131779999836,147.22131779999836,147.22131779999836,,004,P015,2025_Feb_28_1818,ConditionRich,2021.2.3,59.94754589746534,
111.75,112.0,41,0.0,Stimuli/Blank.png,0,0,0.0,0,47,47,47,,,,,,,,,,,,,111.7813341000001,0.03133410000009462,None,150.97464240000045,150.97464240000045,150.97464240000045,150.97464240000045,150.97464240000045,150.97464240000045,150.97464240000045,150.97464240000045,150.97464240000045,150.97464240000045,,004,P015,2025_Feb_28_1818,ConditionRich,2021.2.3,59.94754589746534,
112.0,115.75,39,0.75,Stimuli/P015/things_window_08s.jpg,0,0,0.0,0,48,48,48,,,,,,,,,,,,,112.01486020000084,0.01486020000083954,None,151.20818359999976,151.20818359999976,151.20818359999976,151.20818359999976,151.20818359999976,151.20818359999976,151.20818359999976,151.20818359999976,151.20818359999976,151.20818359999976,,004,P015,2025_Feb_28_1818,ConditionRich,2021.2.3,59.94754589746534,
115.75,116.0,41,0.0,Stimuli/Blank.png,0,0,0.0,0,49,49,49,,,,,,,,,,,,,115.75220070000069,0.002200700000685174,None,154.9448166000002,154.9448166000002,154.9448166000002,154.9448166000002,154.9448166000002,154.9448166000002,154.9448166000002,154.9448166000002,154.9448166000002,154.9448166000002,,004,P015,2025_Feb_28_1818,ConditionRich,2021.2.3,59.94754589746534,
116.0,119.75,34,0.75,Stimuli/P015/things_shower_cap_08s.jpg,1,1,1.75,0,50,50,50,,,,,,,,,,,,,116.00279930000033,0.00279930000033346,1,155.19505809999828,155.19505809999828,155.19505809999828,155.19505809999828,155.19505809999828,155.19505809999828,156.17926119999902,156.92997409999953,155.19505809999828,155.19505809999828,1.5318299999998999,004,P015,2025_Feb_28_1818,ConditionRich,2021.2.3,59.94754589746534,
119.75,120.0,41,0.0,Stimuli/Blank.png,0,0,0.0,0,51,51,51,,,,,,,,,,,,,119.75505850000263,0.005058500002633082,None,158.94835669999884,158.94835669999884,158.94835669999884,158.94835669999884,158.94835669999884,158.94835669999884,158.94835669999884,158.94835669999884,158.94835669999884,158.94835669999884,,004,P015,2025_Feb_28_1818,ConditionRich,2021.2.3,59.94754589746534,
120.0,123.75,33,0.75,Stimuli/P015/things_raccoon_08n.jpg,0,0,0.0,0,52,52,52,,,,,,,,,,,,,120.00543350000225,0.005433500002254732,None,159.19859019999785,159.19859019999785,159.19859019999785,159.19859019999785,159.19859019999785,159.19859019999785,159.19859019999785,159.19859019999785,159.19859019999785,159.19859019999785,,004,P015,2025_Feb_28_1818,ConditionRich,2021.2.3,59.94754589746534,
123.75,124.0,41,0.0,Stimuli/Blank.png,0,0,0.0,0,53,53,53,,,,,,,,,,,,,123.75916599999982,0.009165999999822816,None,162.95190599999842,162.95190599999842,162.95190599999842,162.95190599999842,162.95190599999842,162.95190599999842,162.95190599999842,162.95190599999842,162.95190599999842,162.95190599999842,,004,P015,2025_Feb_28_1818,ConditionRich,2021.2.3,59.94754589746534,
124.0,127.75,13,0.75,Stimuli/P015/sun_bphvjnowixlryxot.jpg,0,0,0.0,0,54,54,54,,,,,,,,,,,,,124.0090123000009,0.00901230000090436,None,163.20212569999785,163.20212569999785,163.20212569999785,163.20212569999785,163.20212569999785,163.20212569999785,163.20212569999785,163.20212569999785,163.20212569999785,163.20212569999785,,004,P015,2025_Feb_28_1818,ConditionRich,2021.2.3,59.94754589746534,
127.75,128.0,41,0.0,Stimuli/Blank.png,0,0,0.0,0,55,55,55,,,,,,,,,,,,,127.76309940000283,0.013099400002829498,None,166.95544529999825,166.95544529999825,166.95544529999825,166.95544529999825,166.95544529999825,166.95544529999825,166.95544529999825,166.95544529999825,166.95544529999825,166.95544529999825,,004,P015,2025_Feb_28_1818,ConditionRich,2021.2.3,59.94754589746534,
128.0,131.75,38,0.75,Stimuli/P015/things_trumpet_08s.jpg,0,0,0.0,0,56,56,56,,,,,,,,,,,,,128.01293430000078,0.01293430000077933,None,167.20568110000022,167.20568110000022,167.20568110000022,167.20568110000022,167.20568110000022,167.20568110000022,167.20568110000022,167.20568110000022,167.20568110000022,167.20568110000022,,004,P015,2025_Feb_28_1818,ConditionRich,2021.2.3,59.94754589746534,
131.75,132.0,41,0.0,Stimuli/Blank.png,0,0,0.0,0,57,57,57,,,,,,,,,,,,,131.7513601999999,0.0013601999999082182,None,170.95902059999935,170.95902059999935,170.95902059999935,170.95902059999935,170.95902059999935,170.95902059999935,170.95902059999935,170.95902059999935,170.95902059999935,170.95902059999935,,004,P015,2025_Feb_28_1818,ConditionRich,2021.2.3,59.94754589746534,
132.0,135.75,31,0.75,Stimuli/P015/things_outlet_08s.jpg,1,2,2.75,0,58,58,58,,,,,,,,,,,,,132.016266300001,0.01626630000100704,1,171.20921159999853,171.20921159999853,171.20921159999853,171.20921159999853,171.20921159999853,171.20921159999853,173.19431270000132,173.9449796000008,171.20921159999853,171.20921159999853,2.583723600000667,004,P015,2025_Feb_28_1818,ConditionRich,2021.2.3,59.94754589746534,
135.75,136.0,41,0.0,Stimuli/Blank.png,0,0,0.0,0,59,59,59,,,,,,,,,,,,,135.7534295000005,0.0034295000004931353,None,174.94605109999975,174.94605109999975,174.94605109999975,174.94605109999975,174.94605109999975,174.94605109999975,174.94605109999975,174.94605109999975,174.94605109999975,174.94605109999975,,004,P015,2025_Feb_28_1818,ConditionRich,2021.2.3,59.94754589746534,
136.0,139.75,30,0.75,Stimuli/P015/things_ottoman_08s.jpg,0,0,0.0,0,60,60,60,,,,,,,,,,,,,136.00360700000238,0.003607000002375571,None,175.2127733999987,175.2127733999987,175.2127733999987,175.2127733999987,175.2127733999987,175.2127733999987,175.2127733999987,175.2127733999987,175.2127733999987,175.2127733999987,,004,P015,2025_Feb_28_1818,ConditionRich,2021.2.3,59.94754589746534,
139.75,140.0,41,0.0,Stimuli/Blank.png,0,0,0.0,0,61,61,61,,,,,,,,,,,,,139.7741160000005,0.024116000000503846,None,178.96608510000078,178.96608510000078,178.96608510000078,178.96608510000078,178.96608510000078,178.96608510000078,178.96608510000078,178.96608510000078,178.96608510000078,178.96608510000078,,004,P015,2025_Feb_28_1818,ConditionRich,2021.2.3,59.94754589746534,
140.0,143.75,17,0.75,Stimuli/P015/sun_bxhbltvqnpaciuzt.jpg,0,0,0.0,0,62,62,62,,,,,,,,,,,,,140.00941990000138,0.009419900001375936,None,179.21631680000064,179.21631680000064,179.21631680000064,179.21631680000064,179.21631680000064,179.21631680000064,179.21631680000064,179.21631680000064,179.21631680000064,179.21631680000064,,004,P015,2025_Feb_28_1818,ConditionRich,2021.2.3,59.94754589746534,
143.75,144.0,41,0.0,Stimuli/Blank.png,0,0,0.0,0,63,63,63,,,,,,,,,,,,,143.77640500000052,0.026405000000522705,None,182.96962390000044,182.96962390000044,182.96962390000044,182.96962390000044,182.96962390000044,182.96962390000044,182.96962390000044,182.96962390000044,182.96962390000044,182.96962390000044,,004,P015,2025_Feb_28_1818,ConditionRich,2021.2.3,59.94754589746534,
144.0,147.75,36,0.75,Stimuli/P015/things_streetlight_08s.jpg,0,0,0.0,0,64,64,64,,,,,,,,,,,,,144.0110480000003,0.011048000000300817,None,183.20317200000136,183.20317200000136,183.20317200000136,183.20317200000136,183.20317200000136,183.20317200000136,183.20317200000136,183.20317200000136,183.20317200000136,183.20317200000136,,004,P015,2025_Feb_28_1818,ConditionRich,2021.2.3,59.94754589746534,
147.75,148.0,41,0.0,Stimuli/Blank.png,0,0,0.0,0,65,65,65,,,,,,,,,,,,,147.76354290000017,0.013542900000174996,None,186.9564853999982,186.9564853999982,186.9564853999982,186.9564853999982,186.9564853999982,186.9564853999982,186.9564853999982,186.9564853999982,186.9564853999982,186.9564853999982,,004,P015,2025_Feb_28_1818,ConditionRich,2021.2.3,59.94754589746534,
148.0,151.75,9,0.75,Stimuli/P015/sun_bbdgftzhpkaklkll.jpg,0,0,0.0,0,66,66,66,,,,,,,,,,,,,148.01351550000254,0.013515500002540648,None,187.20672120000017,187.20672120000017,187.20672120000017,187.20672120000017,187.20672120000017,187.20672120000017,187.20672120000017,187.20672120000017,187.20672120000017,187.20672120000017,,004,P015,2025_Feb_28_1818,ConditionRich,2021.2.3,59.94754589746534,
151.75,152.0,41,0.0,Stimuli/Blank.png,0,0,0.0,0,67,67,67,,,,,,,,,,,,,151.75155290000112,0.0015529000011156313,None,190.943364499999,190.943364499999,190.943364499999,190.943364499999,190.943364499999,190.943364499999,190.943364499999,190.943364499999,190.943364499999,190.943364499999,,004,P015,2025_Feb_28_1818,ConditionRich,2021.2.3,59.94754589746534,
152.0,155.75,26,0.75,Stimuli/P015/things_face_08s.jpg,0,0,0.0,0,68,68,68,,,,,,,,,,,,,152.00102340000012,0.0010234000001219101,None,191.19354580000072,191.19354580000072,191.19354580000072,191.19354580000072,191.19354580000072,191.19354580000072,191.19354580000072,191.19354580000072,191.19354580000072,191.19354580000072,,004,P015,2025_Feb_28_1818,ConditionRich,2021.2.3,59.94754589746534,
155.75,156.0,41,0.0,Stimuli/Blank.png,0,0,0.0,0,69,69,69,,,,,,,,,,,,,155.75629889999982,0.006298899999819696,None,194.96358409999812,194.96358409999812,194.96358409999812,194.96358409999812,194.96358409999812,194.96358409999812,194.96358409999812,194.96358409999812,194.96358409999812,194.96358409999812,,004,P015,2025_Feb_28_1818,ConditionRich,2021.2.3,59.94754589746534,
156.0,159.75,18,0.75,Stimuli/P015/sun_byavixgfuhzioilz.jpg,1,1,1.75,0,70,70,70,,,,,,,,,,,,,156.02124639999965,0.021246399999654386,1,195.21380919999865,195.21380919999865,195.21380919999865,195.21380919999865,195.21380919999865,195.21380919999865,196.19803690000117,196.94865479999862,195.21380919999865,195.21380919999865,1.4692518999981985,004,P015,2025_Feb_28_1818,ConditionRich,2021.2.3,59.94754589746534,
159.75,160.0,41,0.0,Stimuli/Blank.png,0,0,0.0,0,71,71,71,,,,,,,,,,,,,159.75723840000137,0.007238400001369882,None,198.95042829999875,198.95042829999875,198.95042829999875,198.95042829999875,198.95042829999875,198.95042829999875,198.95042829999875,198.95042829999875,198.95042829999875,198.95042829999875,,004,P015,2025_Feb_28_1818,ConditionRich,2021.2.3,59.94754589746534,
160.0,163.75,12,0.75,Stimuli/P015/sun_boffixsnbbloarty.jpg,0,0,0.0,0,72,72,72,,,,,,,,,,,,,160.00821240000005,0.008212400000047637,None,199.2173397000006,199.2173397000006,199.2173397000006,199.2173397000006,199.2173397000006,199.2173397000006,199.2173397000006,199.2173397000006,199.2173397000006,199.2173397000006,,004,P015,2025_Feb_28_1818,ConditionRich,2021.2.3,59.94754589746534,
163.75,164.0,41,0.0,Stimuli/Blank.png,0,0,0.0,0,73,73,73,,,,,,,,,,,,,163.77731409999978,0.027314099999784958,None,202.97065849999854,202.97065849999854,202.97065849999854,202.97065849999854,202.97065849999854,202.97065849999854,202.97065849999854,202.97065849999854,202.97065849999854,202.97065849999854,,004,P015,2025_Feb_28_1818,ConditionRich,2021.2.3,59.94754589746534,
164.0,167.75,8,0.75,Stimuli/P015/sun_arldxotvfucvuudk.jpg,0,0,0.0,0,74,74,74,,,,,,,,,,,,,164.01132780000262,0.01132780000261846,None,203.20420029999877,203.20420029999877,203.20420029999877,203.20420029999877,203.20420029999877,203.20420029999877,203.20420029999877,203.20420029999877,203.20420029999877,203.20420029999877,,004,P015,2025_Feb_28_1818,ConditionRich,2021.2.3,59.94754589746534,
167.75,168.0,41,0.0,Stimuli/Blank.png,0,0,0.0,0,75,75,75,,,,,,,,,,,,,167.76636750000034,0.01636750000034226,None,206.97421570000006,206.97421570000006,206.97421570000006,206.97421570000006,206.97421570000006,206.97421570000006,206.97421570000006,206.97421570000006,206.97421570000006,206.97421570000006,,004,P015,2025_Feb_28_1818,ConditionRich,2021.2.3,59.94754589746534,
168.0,171.75,37,0.75,Stimuli/P015/things_swizzle_stick_08s.jpg,1,3,3.75,0,76,76,76,,,,,,,,,,,,,168.0164337999995,0.016433799999504117,1,207.22443080000085,207.22443080000085,207.22443080000085,207.22443080000085,207.22443080000085,207.22443080000085,210.21039960000053,None,207.22443080000085,207.22443080000085,3.6476578999972844,004,P015,2025_Feb_28_1818,ConditionRich,2021.2.3,59.94754589746534,
171.75,172.0,41,0.0,Stimuli/Blank.png,0,0,0.0,0,77,77,77,,,,,,,,,,,,,171.768713700003,0.018713700002990663,None,210.9610614000012,210.9610614000012,210.9610614000012,210.9610614000012,210.9610614000012,210.9610614000012,210.9610614000012,210.9610614000012,210.9610614000012,210.9610614000012,,004,P015,2025_Feb_28_1818,ConditionRich,2021.2.3,59.94754589746534,
172.0,175.75,25,0.75,Stimuli/P015/things_deer_08s.jpg,0,0,0.0,0,78,78,78,,,,,,,,,,,,,172.00215310000203,0.0021531000020331703,None,211.19484979999834,211.19484979999834,211.19484979999834,211.19484979999834,211.19484979999834,211.19484979999834,211.19484979999834,211.19484979999834,211.19484979999834,211.19484979999834,,004,P015,2025_Feb_28_1818,ConditionRich,2021.2.3,59.94754589746534,
175.75,176.0,41,0.0,Stimuli/Blank.png,0,0,0.0,0,79,79,79,,,,,,,,,,,,,175.75755420000132,0.007554200001322897,None,214.96461809999892,214.96461809999892,214.96461809999892,214.96461809999892,214.96461809999892,214.96461809999892,214.96461809999892,214.96461809999892,214.96461809999892,214.96461809999892,,004,P015,2025_Feb_28_1818,ConditionRich,2021.2.3,59.94754589746534,
176.0,179.75,14,0.75,Stimuli/P015/sun_bpvmkbyglkraoxhh.jpg,1,3,3.75,0,80,80,80,,,,,,,,,,,,,176.0220057000006,0.022005700000590878,1,215.21482660000038,215.21482660000038,215.21482660000038,215.21482660000038,215.21482660000038,215.21482660000038,218.20080289999896,None,215.21482660000038,215.21482660000038,3.5111354000000574,004,P015,2025_Feb_28_1818,ConditionRich,2021.2.3,59.94754589746534,
179.75,180.0,41,0.0,Stimuli/Blank.png,0,0,0.0,0,81,81,81,,,,,,,,,,,,,179.75864980000188,0.008649800001876429,None,218.9514784999992,218.9514784999992,218.9514784999992,218.9514784999992,218.9514784999992,218.9514784999992,218.9514784999992,218.9514784999992,218.9514784999992,218.9514784999992,,004,P015,2025_Feb_28_1818,ConditionRich,2021.2.3,59.94754589746534,
180.0,196.0,0,0.0,Stimuli/Blank.png,1,11,11.75,0,82,82,82,,,,,,,,,,,,,180.00918640000236,0.00918640000236337,1,219.20169739999983,219.20169739999983,219.20169739999983,219.20169739999983,219.20169739999983,219.20169739999983,230.1947556999985,230.92876819999947,219.20169739999983,219.20169739999983,11.489251400002104,004,P015,2025_Feb_28_1818,ConditionRich,2021.2.3,59.94754589746534,
196.0,199.75,33,0.75,Stimuli/P015/things_raccoon_08n.jpg,0,0,0.0,0,83,83,83,,,,,,,,,,,,,196.00704480000059,0.007044800000585383,None,235.2158703999994,235.2158703999994,235.2158703999994,235.2158703999994,235.2158703999994,235.2158703999994,235.2158703999994,235.2158703999994,235.2158703999994,235.2158703999994,,004,P015,2025_Feb_28_1818,ConditionRich,2021.2.3,59.94754589746534,
199.75,200.0,41,0.0,Stimuli/Blank.png,0,0,0.0,0,84,84,84,,,,,,,,,,,,,199.77659700000004,0.02659700000003795,None,238.96919880000132,238.96919880000132,238.96919880000132,238.96919880000132,238.96919880000132,238.96919880000132,238.96919880000132,238.96919880000132,238.96919880000132,238.96919880000132,,004,P015,2025_Feb_28_1818,ConditionRich,2021.2.3,59.94754589746534,
200.0,203.75,2,0.75,Stimuli/P015/sun_agzfkftryitnqpxc.jpg,0,0,0.0,0,85,85,85,,,,,,,,,,,,,200.01204490000237,0.012044900002365466,None,239.21941629999856,239.21941629999856,239.21941629999856,239.21941629999856,239.21941629999856,239.21941629999856,239.21941629999856,239.21941629999856,239.21941629999856,239.21941629999856,,004,P015,2025_Feb_28_1818,ConditionRich,2021.2.3,59.94754589746534,
203.75,204.0,41,0.0,Stimuli/Blank.png,0,0,0.0,0,86,86,86,,,,,,,,,,,,,203.7822296000013,0.03222960000130115,None,242.9894385000007,242.9894385000007,242.9894385000007,242.9894385000007,242.9894385000007,242.9894385000007,242.9894385000007,242.9894385000007,242.9894385000007,242.9894385000007,,004,P015,2025_Feb_28_1818,ConditionRich,2021.2.3,59.94754589746534,
204.0,207.75,31,0.75,Stimuli/P015/things_outlet_08s.jpg,0,0,0.0,0,87,87,87,,,,,,,,,,,,,204.01320340000166,0.013203400001657428,None,243.2062522999986,243.2062522999986,243.2062522999986,243.2062522999986,243.2062522999986,243.2062522999986,243.2062522999986,243.2062522999986,243.2062522999986,243.2062522999986,,004,P015,2025_Feb_28_1818,ConditionRich,2021.2.3,59.94754589746534,
207.75,208.0,41,0.0,Stimuli/Blank.png,0,0,0.0,0,88,88,88,,,,,,,,,,,,,207.75066330000118,0.0006633000011788681,None,246.94287339999937,246.94287339999937,246.94287339999937,246.94287339999937,246.94287339999937,246.94287339999937,246.94287339999937,246.94287339999937,246.94287339999937,246.94287339999937,,004,P015,2025_Feb_28_1818,ConditionRich,2021.2.3,59.94754589746534,
208.0,211.75,7,0.75,Stimuli/P015/sun_aqdfrmtvewaapuqs.jpg,0,0,0.0,0,89,89,89,,,,,,,,,,,,,208.00287890000254,0.0028789000025426503,None,247.20982110000114,247.20982110000114,247.20982110000114,247.20982110000114,247.20982110000114,247.20982110000114,247.20982110000114,247.20982110000114,247.20982110000114,247.20982110000114,,004,P015,2025_Feb_28_1818,ConditionRich,2021.2.3,59.94754589746534,
211.75,212.0,41,0.0,Stimuli/Blank.png,0,0,0.0,0,90,90,90,,,,,,,,,,,,,211.77203350000127,0.022033500001271022,None,250.97984830000132,250.97984830000132,250.97984830000132,250.97984830000132,250.97984830000132,250.97984830000132,250.97984830000132,250.97984830000132,250.97984830000132,250.97984830000132,,004,P015,2025_Feb_28_1818,ConditionRich,2021.2.3,59.94754589746534,
212.0,215.75,32,0.75,Stimuli/P015/things_pheasant_08s.jpg,1,3,3.75,0,91,91,91,,,,,,,,,,,,,212.02252480000243,0.0225248000024294,1,251.23005660000126,251.23005660000126,251.23005660000126,251.23005660000126,251.23005660000126,251.23005660000126,254.21606020000036,None,251.23005660000126,251.23005660000126,3.494890199999645,004,P015,2025_Feb_28_1818,ConditionRich,2021.2.3,59.94754589746534,
215.75,216.0,41,0.0,Stimuli/Blank.png,0,0,0.0,0,92,92,92,,,,,,,,,,,,,215.77340730000287,0.023407300002872944,None,254.96668289999798,254.96668289999798,254.96668289999798,254.96668289999798,254.96668289999798,254.96668289999798,254.96668289999798,254.96668289999798,254.96668289999798,254.96668289999798,,004,P015,2025_Feb_28_1818,ConditionRich,2021.2.3,59.94754589746534,
216.0,219.75,39,0.75,Stimuli/P015/things_window_08s.jpg,0,0,0.0,0,93,93,93,,,,,,,,,,,,,216.007587600001,0.007587600000988459,None,255.21692239999902,255.21692239999902,255.21692239999902,255.21692239999902,255.21692239999902,255.21692239999902,255.21692239999902,255.21692239999902,255.21692239999902,255.21692239999902,,004,P015,2025_Feb_28_1818,ConditionRich,2021.2.3,59.94754589746534,
219.75,220.0,41,0.0,Stimuli/Blank.png,0,0,0.0,0,94,94,94,,,,,,,,,,,,,219.77751809999972,0.027518099999724654,None,258.9702456999985,258.9702456999985,258.9702456999985,258.9702456999985,258.9702456999985,258.9702456999985,258.9702456999985,258.9702456999985,258.9702456999985,258.9702456999985,,004,P015,2025_Feb_28_1818,ConditionRich,2021.2.3,59.94754589746534,
220.0,223.75,25,0.75,Stimuli/P015/things_deer_08s.jpg,0,0,0.0,0,95,95,95,,,,,,,,,,,,,220.01361550000001,0.013615500000014435,None,259.2204653000008,259.2204653000008,259.2204653000008,259.2204653000008,259.2204653000008,259.2204653000008,259.2204653000008,259.2204653000008,259.2204653000008,259.2204653000008,,004,P015,2025_Feb_28_1818,ConditionRich,2021.2.3,59.94754589746534,
223.75,224.0,41,0.0,Stimuli/Blank.png,0,0,0.0,0,96,96,96,,,,,,,,,,,,,223.76402190000226,0.014021900002262555,None,262.9570812999991,262.9570812999991,262.9570812999991,262.9570812999991,262.9570812999991,262.9570812999991,262.9570812999991,262.9570812999991,262.9570812999991,262.9570812999991,,004,P015,2025_Feb_28_1818,ConditionRich,2021.2.3,59.94754589746534,
224.0,227.75,16,0.75,Stimuli/P015/sun_bwhuwxazfqwuqhik.jpg,1,2,2.75,0,97,97,97,,,,,,,,,,,,,224.01448620000156,0.014486200001556426,1,263.2073109999983,263.2073109999983,263.2073109999983,263.2073109999983,263.2073109999983,263.2073109999983,265.2091263000002,265.94309860000067,263.2073109999983,263.2073109999983,2.560667099998682,004,P015,2025_Feb_28_1818,ConditionRich,2021.2.3,59.94754589746534,
227.75,228.0,41,0.0,Stimuli/Blank.png,0,0,0.0,0,98,98,98,,,,,,,,,,,,,227.75382960000206,0.003829600002063671,None,266.96065779999844,266.96065779999844,266.96065779999844,266.96065779999844,266.96065779999844,266.96065779999844,266.96065779999844,266.96065779999844,266.96065779999844,266.96065779999844,,004,P015,2025_Feb_28_1818,ConditionRich,2021.2.3,59.94754589746534,
228.0,231.75,11,0.75,Stimuli/P015/sun_bnwmcjuinqbdsbho.jpg,0,0,0.0,0,99,99,99,,,,,,,,,,,,,228.01827070000218,0.018270700002176454,None,267.21085219999804,267.21085219999804,267.21085219999804,267.21085219999804,267.21085219999804,267.21085219999804,267.21085219999804,267.21085219999804,267.21085219999804,267.21085219999804,,004,P015,2025_Feb_28_1818,ConditionRich,2021.2.3,59.94754589746534,
231.75,232.0,41,0.0,Stimuli/Blank.png,0,0,0.0,0,100,100,100,,,,,,,,,,,,,231.7546887000026,0.00468870000258903,None,270.9475034999996,270.9475034999996,270.9475034999996,270.9475034999996,270.9475034999996,270.9475034999996,270.9475034999996,270.9475034999996,270.9475034999996,270.9475034999996,,004,P015,2025_Feb_28_1818,ConditionRich,2021.2.3,59.94754589746534,
232.0,235.75,5,0.75,Stimuli/P015/sun_ajgmxbrxdpmsaext.jpg,0,0,0.0,0,101,101,101,,,,,,,,,,,,,232.00484499999948,0.004844999999477295,None,271.21440639999855,271.21440639999855,271.21440639999855,271.21440639999855,271.21440639999855,271.21440639999855,271.21440639999855,271.21440639999855,271.21440639999855,271.21440639999855,,004,P015,2025_Feb_28_1818,ConditionRich,2021.2.3,59.94754589746534,
235.75,236.0,41,0.0,Stimuli/Blank.png,0,0,0.0,0,102,102,102,,,,,,,,,,,,,235.77509250000003,0.02509250000002794,None,274.96772950000013,274.96772950000013,274.96772950000013,274.96772950000013,274.96772950000013,274.96772950000013,274.96772950000013,274.96772950000013,274.96772950000013,274.96772950000013,,004,P015,2025_Feb_28_1818,ConditionRich,2021.2.3,59.94754589746534,
236.0,239.75,38,0.75,Stimuli/P015/things_trumpet_08s.jpg,0,0,0.0,0,103,103,103,,,,,,,,,,,,,236.00876210000206,0.008762100002059015,None,275.20125669999834,275.20125669999834,275.20125669999834,275.20125669999834,275.20125669999834,275.20125669999834,275.20125669999834,275.20125669999834,275.20125669999834,275.20125669999834,,004,P015,2025_Feb_28_1818,ConditionRich,2021.2.3,59.94754589746534,
239.75,240.0,41,0.0,Stimuli/Blank.png,0,0,0.0,0,104,104,104,,,,,,,,,,,,,239.76232510000045,0.012325100000452949,None,278.9545810999989,278.9545810999989,278.9545810999989,278.9545810999989,278.9545810999989,278.9545810999989,278.9545810999989,278.9545810999989,278.9545810999989,278.9545810999989,,004,P015,2025_Feb_28_1818,ConditionRich,2021.2.3,59.94754589746534,
240.0,243.75,24,0.75,Stimuli/P015/things_bunkbed_08s.jpg,0,0,0.0,0,105,105,105,,,,,,,,,,,,,240.01213880000068,0.012138800000684569,None,279.20480889999817,279.20480889999817,279.20480889999817,279.20480889999817,279.20480889999817,279.20480889999817,279.20480889999817,279.20480889999817,279.20480889999817,279.20480889999817,,004,P015,2025_Feb_28_1818,ConditionRich,2021.2.3,59.94754589746534,
243.75,244.0,41,0.0,Stimuli/Blank.png,0,0,0.0,0,106,106,106,,,,,,,,,,,,,243.76548840000032,0.015488400000322144,None,282.95813479999924,282.95813479999924,282.95813479999924,282.95813479999924,282.95813479999924,282.95813479999924,282.95813479999924,282.95813479999924,282.95813479999924,282.95813479999924,,004,P015,2025_Feb_28_1818,ConditionRich,2021.2.3,59.94754589746534,
244.0,247.75,27,0.75,Stimuli/P015/things_girl_08s.jpg,0,0,0.0,0,107,107,107,,,,,,,,,,,,,244.01622940000016,0.016229400000156602,None,283.2249750999981,283.2249750999981,283.2249750999981,283.2249750999981,283.2249750999981,283.2249750999981,283.2249750999981,283.2249750999981,283.2249750999981,283.2249750999981,,004,P015,2025_Feb_28_1818,ConditionRich,2021.2.3,59.94754589746534,
247.75,248.0,41,0.0,Stimuli/Blank.png,0,0,0.0,0,108,108,108,,,,,,,,,,,,,247.77116820000083,0.02116820000082953,None,286.97838670000056,286.97838670000056,286.97838670000056,286.97838670000056,286.97838670000056,286.97838670000056,286.97838670000056,286.97838670000056,286.97838670000056,286.97838670000056,,004,P015,2025_Feb_28_1818,ConditionRich,2021.2.3,59.94754589746534,
248.0,251.75,10,0.75,Stimuli/P015/sun_bfojpvrlsrtfyzio.jpg,0,0,0.0,0,109,109,109,,,,,,,,,,,,,248.0187474000013,0.018747400001302594,None,287.22857450000083,287.22857450000083,287.22857450000083,287.22857450000083,287.22857450000083,287.22857450000083,287.22857450000083,287.22857450000083,287.22857450000083,287.22857450000083,,004,P015,2025_Feb_28_1818,ConditionRich,2021.2.3,59.94754589746534,
251.75,252.0,41,0.0,Stimuli/Blank.png,0,0,0.0,0,110,110,110,,,,,,,,,,,,,251.77236520000224,0.02236520000224118,None,290.96521399999983,290.96521399999983,290.96521399999983,290.96521399999983,290.96521399999983,290.96521399999983,290.96521399999983,290.96521399999983,290.96521399999983,290.96521399999983,,004,P015,2025_Feb_28_1818,ConditionRich,2021.2.3,59.94754589746534,
252.0,255.75,19,0.75,Stimuli/P015/sun_bzhwvgrzvttqoexa.jpg,0,0,0.0,0,111,111,111,,,,,,,,,,,,,252.00550880000083,0.005508800000825431,None,291.19874340000024,291.19874340000024,291.19874340000024,291.19874340000024,291.19874340000024,291.19874340000024,291.19874340000024,291.19874340000024,291.19874340000024,291.19874340000024,,004,P015,2025_Feb_28_1818,ConditionRich,2021.2.3,59.94754589746534,
255.75,256.0,41,0.0,Stimuli/Blank.png,0,0,0.0,0,112,112,112,,,,,,,,,,,,,255.75897030000124,0.008970300001237774,None,294.95215299999836,294.95215299999836,294.95215299999836,294.95215299999836,294.95215299999836,294.95215299999836,294.95215299999836,294.95215299999836,294.95215299999836,294.95215299999836,,004,P015,2025_Feb_28_1818,ConditionRich,2021.2.3,59.94754589746534,
256.0,259.75,36,0.75,Stimuli/P015/things_streetlight_08s.jpg,1,3,3.75,0,113,113,113,,,,,,,,,,,,,256.01020770000105,0.01020770000104676,1,295.2189771000012,295.2189771000012,295.2189771000012,295.2189771000012,295.2189771000012,295.2189771000012,298.1882838999991,298.93897300000026,295.2189771000012,295.2189771000012,3.477118299997528,004,P015,2025_Feb_28_1818,ConditionRich,2021.2.3,59.94754589746534,
259.75,260.0,41,0.0,Stimuli/Blank.png,0,0,0.0,0,114,114,114,,,,,,,,,,,,,259.77934129999994,0.02934129999994184,None,298.9722959999999,298.9722959999999,298.9722959999999,298.9722959999999,298.9722959999999,298.9722959999999,298.9722959999999,298.9722959999999,298.9722959999999,298.9722959999999,,004,P015,2025_Feb_28_1818,ConditionRich,2021.2.3,59.94754589746534,
260.0,263.75,13,0.75,Stimuli/P015/sun_bphvjnowixlryxot.jpg,0,0,0.0,0,115,115,115,,,,,,,,,,,,,260.01270320000185,0.012703200001851656,None,299.20583759999863,299.20583759999863,299.20583759999863,299.20583759999863,299.20583759999863,299.20583759999863,299.20583759999863,299.20583759999863,299.20583759999863,299.20583759999863,,004,P015,2025_Feb_28_1818,ConditionRich,2021.2.3,59.94754589746534,
263.75,264.0,41,0.0,Stimuli/Blank.png,0,0,0.0,0,116,116,116,,,,,,,,,,,,,263.74924450000253,-0.0007554999974672683,None,302.94248869999865,302.94248869999865,302.94248869999865,302.94248869999865,302.94248869999865,302.94248869999865,302.94248869999865,302.94248869999865,302.94248869999865,302.94248869999865,,004,P015,2025_Feb_28_1818,ConditionRich,2021.2.3,59.94754589746534,
264.0,267.75,15,0.75,Stimuli/P015/sun_bvfcijehgdsndfbg.jpg,1,2,2.75,0,117,117,117,,,,,,,,,,,,,263.99948460000087,-0.0005153999991307501,1,303.1927026000012,303.1927026000012,303.1927026000012,303.1927026000012,303.1927026000012,303.1927026000012,305.17778739999994,305.9284556999992,303.1927026000012,303.1927026000012,2.607409699998243,004,P015,2025_Feb_28_1818,ConditionRich,2021.2.3,59.94754589746534,
267.75,268.0,41,0.0,Stimuli/Blank.png,0,0,0.0,0,118,118,118,,,,,,,,,,,,,267.7555600000014,0.005560000001423759,None,306.9627073999982,306.9627073999982,306.9627073999982,306.9627073999982,306.9627073999982,306.9627073999982,306.9627073999982,306.9627073999982,306.9627073999982,306.9627073999982,,004,P015,2025_Feb_28_1818,ConditionRich,2021.2.3,59.94754589746534,
268.0,271.75,23,0.75,Stimuli/P015/things_boy_08s.jpg,0,0,0.0,0,119,119,119,,,,,,,,,,,,,268.0202057000024,0.020205700002406957,None,307.2129144999999,307.2129144999999,307.2129144999999,307.2129144999999,307.2129144999999,307.2129144999999,307.2129144999999,307.2129144999999,307.2129144999999,307.2129144999999,,004,P015,2025_Feb_28_1818,ConditionRich,2021.2.3,59.94754589746534,
271.75,272.0,41,0.0,Stimuli/Blank.png,0,0,0.0,0,120,120,120,,,,,,,,,,,,,271.7563467,0.006346699999994598,None,310.949569299999,310.949569299999,310.949569299999,310.949569299999,310.949569299999,310.949569299999,310.949569299999,310.949569299999,310.949569299999,310.949569299999,,004,P015,2025_Feb_28_1818,ConditionRich,2021.2.3,59.94754589746534,
272.0,275.75,14,0.75,Stimuli/P015/sun_bpvmkbyglkraoxhh.jpg,0,0,0.0,0,121,121,121,,,,,,,,,,,,,272.0065603000003,0.006560300000273855,None,311.1997816000003,311.1997816000003,311.1997816000003,311.1997816000003,311.1997816000003,311.1997816000003,311.1997816000003,311.1997816000003,311.1997816000003,311.1997816000003,,004,P015,2025_Feb_28_1818,ConditionRich,2021.2.3,59.94754589746534,
275.75,276.0,41,0.0,Stimuli/Blank.png,0,0,0.0,0,122,122,122,,,,,,,,,,,,,275.75994080000237,0.009940800002368633,None,314.95309110000017,314.95309110000017,314.95309110000017,314.95309110000017,314.95309110000017,314.95309110000017,314.95309110000017,314.95309110000017,314.95309110000017,314.95309110000017,,004,P015,2025_Feb_28_1818,ConditionRich,2021.2.3,59.94754589746534,
276.0,292.0,0,0.0,Stimuli/Blank.png,1,8,8.75,0,123,123,123,,,,,,,,,,,,,276.01068040000246,0.010680400002456736,1,315.20332749999943,315.20332749999943,315.20332749999943,315.20332749999943,315.20332749999943,315.20332749999943,323.19378739999956,323.94441590000133,315.20332749999943,315.20332749999943,8.954672200001369,004,P015,2025_Feb_28_1818,ConditionRich,2021.2.3,59.94754589746534,
292.0,295.75,28,0.75,Stimuli/P015/things_latte_08s.jpg,0,0,0.0,0,124,124,124,,,,,,,,,,,,,292.0098816999998,0.009881699999823468,None,331.21752379999816,331.21752379999816,331.21752379999816,331.21752379999816,331.21752379999816,331.21752379999816,331.21752379999816,331.21752379999816,331.21752379999816,331.21752379999816,,004,P015,2025_Feb_28_1818,ConditionRich,2021.2.3,59.94754589746534,
295.75,296.0,41,0.0,Stimuli/Blank.png,0,0,0.0,0,125,125,125,,,,,,,,,,,,,295.7806122000002,0.030612200000177836,None,334.98752669999885,334.98752669999885,334.98752669999885,334.98752669999885,334.98752669999885,334.98752669999885,334.98752669999885,334.98752669999885,334.98752669999885,334.98752669999885,,004,P015,2025_Feb_28_1818,ConditionRich,2021.2.3,59.94754589746534,
296.0,299.75,12,0.75,Stimuli/P015/sun_boffixsnbbloarty.jpg,0,0,0.0,0,126,126,126,,,,,,,,,,,,,296.0315171000002,0.031517100000201026,None,335.23773340000116,335.23773340000116,335.23773340000116,335.23773340000116,335.23773340000116,335.23773340000116,335.23773340000116,335.23773340000116,335.23773340000116,335.23773340000116,,004,P015,2025_Feb_28_1818,ConditionRich,2021.2.3,59.94754589746534,
299.75,300.0,41,0.0,Stimuli/Blank.png,0,0,0.0,0,127,127,127,,,,,,,,,,,,,299.76441540000087,0.01441540000087116,None,338.9577323000012,338.9577323000012,338.9577323000012,338.9577323000012,338.9577323000012,338.9577323000012,338.9577323000012,338.9577323000012,338.9577323000012,338.9577323000012,,004,P015,2025_Feb_28_1818,ConditionRich,2021.2.3,59.94754589746534,
300.0,303.75,30,0.75,Stimuli/P015/things_ottoman_08s.jpg,0,0,0.0,0,128,128,128,,,,,,,,,,,,,300.01523180000004,0.015231800000037765,None,339.2079113,339.2079113,339.2079113,339.2079113,339.2079113,339.2079113,339.2079113,339.2079113,339.2079113,339.2079113,,004,P015,2025_Feb_28_1818,ConditionRich,2021.2.3,59.94754589746534,
303.75,304.0,41,0.0,Stimuli/Blank.png,0,0,0.0,0,129,129,129,,,,,,,,,,,,,303.7521639000006,0.002163900000596186,None,342.94455559999915,342.94455559999915,342.94455559999915,342.94455559999915,342.94455559999915,342.94455559999915,342.94455559999915,342.94455559999915,342.94455559999915,342.94455559999915,,004,P015,2025_Feb_28_1818,ConditionRich,2021.2.3,59.94754589746534,
304.0,307.75,26,0.75,Stimuli/P015/things_face_08s.jpg,0,0,0.0,0,130,130,130,,,,,,,,,,,,,304.002137200001,0.0021372000010160264,None,343.21145590000015,343.21145590000015,343.21145590000015,343.21145590000015,343.21145590000015,343.21145590000015,343.21145590000015,343.21145590000015,343.21145590000015,343.21145590000015,,004,P015,2025_Feb_28_1818,ConditionRich,2021.2.3,59.94754589746534,
307.75,308.0,41,0.0,Stimuli/Blank.png,0,0,0.0,0,131,131,131,,,,,,,,,,,,,307.773068100003,0.023068100003001746,None,346.96477869999944,346.96477869999944,346.96477869999944,346.96477869999944,346.96477869999944,346.96477869999944,346.96477869999944,346.96477869999944,346.96477869999944,346.96477869999944,,004,P015,2025_Feb_28_1818,ConditionRich,2021.2.3,59.94754589746534,
308.0,311.75,6,0.75,Stimuli/P015/sun_akecfasimgpbqcnt.jpg,0,0,0.0,0,132,132,132,,,,,,,,,,,,,308.00852490000034,0.008524900000338675,None,347.21501089999947,347.21501089999947,347.21501089999947,347.21501089999947,347.21501089999947,347.21501089999947,347.21501089999947,347.21501089999947,347.21501089999947,347.21501089999947,,004,P015,2025_Feb_28_1818,ConditionRich,2021.2.3,59.94754589746534,
311.75,312.0,41,0.0,Stimuli/Blank.png,0,0,0.0,0,133,133,133,,,,,,,,,,,,,311.7756401000006,0.025640100000600796,None,350.9683229000002,350.9683229000002,350.9683229000002,350.9683229000002,350.9683229000002,350.9683229000002,350.9683229000002,350.9683229000002,350.9683229000002,350.9683229000002,,004,P015,2025_Feb_28_1818,ConditionRich,2021.2.3,59.94754589746534,
312.0,315.75,9,0.75,Stimuli/P015/sun_bbdgftzhpkaklkll.jpg,0,0,0.0,0,134,134,134,,,,,,,,,,,,,312.0093479999996,0.009347999999590684,None,351.21853719999854,351.21853719999854,351.21853719999854,351.21853719999854,351.21853719999854,351.21853719999854,351.21853719999854,351.21853719999854,351.21853719999854,351.21853719999854,,004,P015,2025_Feb_28_1818,ConditionRich,2021.2.3,59.94754589746534,
315.75,316.0,41,0.0,Stimuli/Blank.png,0,0,0.0,0,135,135,135,,,,,,,,,,,,,315.7791935999994,0.02919359999941662,None,354.9718704000006,354.9718704000006,354.9718704000006,354.9718704000006,354.9718704000006,354.9718704000006,354.9718704000006,354.9718704000006,354.9718704000006,354.9718704000006,,004,P015,2025_Feb_28_1818,ConditionRich,2021.2.3,59.94754589746534,
316.0,319.75,18,0.75,Stimuli/P015/sun_byavixgfuhzioilz.jpg,1,1,1.75,0,136,136,136,,,,,,,,,,,,,316.014645700001,0.014645700000983197,1,355.22209329999896,355.22209329999896,355.22209329999896,355.22209329999896,355.22209329999896,355.22209329999896,356.20681909999985,356.95694340000045,355.22209329999896,355.22209329999896,1.4971657999994932,004,P015,2025_Feb_28_1818,ConditionRich,2021.2.3,59.94754589746534,
319.75,320.0,41,0.0,Stimuli/Blank.png,0,0,0.0,0,137,137,137,,,,,,,,,,,,,319.76686520000294,0.016865200002939673,None,358.9587277999999,358.9587277999999,358.9587277999999,358.9587277999999,358.9587277999999,358.9587277999999,358.9587277999999,358.9587277999999,358.9587277999999,358.9587277999999,,004,P015,2025_Feb_28_1818,ConditionRich,2021.2.3,59.94754589746534,
320.0,323.75,3,0.75,Stimuli/P015/sun_aiogwnavezqxkzfg.jpg,0,0,0.0,0,138,138,138,,,,,,,,,,,,,320.0009228000017,0.0009228000017174054,None,359.20895290000044,359.20895290000044,359.20895290000044,359.20895290000044,359.20895290000044,359.20895290000044,359.20895290000044,359.20895290000044,359.20895290000044,359.20895290000044,,004,P015,2025_Feb_28_1818,ConditionRich,2021.2.3,59.94754589746534,
323.75,324.0,41,0.0,Stimuli/Blank.png,0,0,0.0,0,139,139,139,,,,,,,,,,,,,323.77108170000065,0.021081700000650017,None,362.9789806000008,362.9789806000008,362.9789806000008,362.9789806000008,362.9789806000008,362.9789806000008,362.9789806000008,362.9789806000008,362.9789806000008,362.9789806000008,,004,P015,2025_Feb_28_1818,ConditionRich,2021.2.3,59.94754589746534,
324.0,327.75,29,0.75,Stimuli/P015/things_mouse1_08s.jpg,0,0,0.0,0,140,140,140,,,,,,,,,,,,,324.0200208000024,0.02002080000238493,None,363.22917059999963,363.22917059999963,363.22917059999963,363.22917059999963,363.22917059999963,363.22917059999963,363.22917059999963,363.22917059999963,363.22917059999963,363.22917059999963,,004,P015,2025_Feb_28_1818,ConditionRich,2021.2.3,59.94754589746534,
327.75,328.0,41,0.0,Stimuli/Blank.png,0,0,0.0,0,141,141,141,,,,,,,,,,,,,327.772853100003,0.022853100002976134,None,366.96581239999796,366.96581239999796,366.96581239999796,366.96581239999796,366.96581239999796,366.96581239999796,366.96581239999796,366.96581239999796,366.96581239999796,366.96581239999796,,004,P015,2025_Feb_28_1818,ConditionRich,2021.2.3,59.94754589746534,
328.0,331.75,21,0.75,Stimuli/P015/things_arch_08s.jpg,0,0,0.0,0,142,142,142,,,,,,,,,,,,,328.00620809999964,0.006208099999639671,None,367.19934020000073,367.19934020000073,367.19934020000073,367.19934020000073,367.19934020000073,367.19934020000073,367.19934020000073,367.19934020000073,367.19934020000073,367.19934020000073,,004,P015,2025_Feb_28_1818,ConditionRich,2021.2.3,59.94754589746534,
331.75,332.0,41,0.0,Stimuli/Blank.png,0,0,0.0,0,143,143,143,,,,,,,,,,,,,331.7614281999995,0.011428199999500066,None,370.96935400000075,370.96935400000075,370.96935400000075,370.96935400000075,370.96935400000075,370.96935400000075,370.96935400000075,370.96935400000075,370.96935400000075,370.96935400000075,,004,P015,2025_Feb_28_1818,ConditionRich,2021.2.3,59.94754589746534,
332.0,335.75,40,0.75,Stimuli/P015/things_woman_08s.jpg,1,0,0.75,0,144,144,144,,,,,,,,,,,,,332.02689720000126,0.02689720000125817,1,371.21958129999985,371.21958129999985,371.21958129999985,371.21958129999985,371.21958129999985,371.21958129999985,371.21958129999985,371.9535575000009,371.21958129999985,371.21958129999985,0.776553600000625,004,P015,2025_Feb_28_1818,ConditionRich,2021.2.3,59.94754589746534,
335.75,336.0,41,0.0,Stimuli/Blank.png,0,0,0.0,0,145,145,145,,,,,,,,,,,,,335.76378860000113,0.01378860000113491,None,374.9562049999986,374.9562049999986,374.9562049999986,374.9562049999986,374.9562049999986,374.9562049999986,374.9562049999986,374.9562049999986,374.9562049999986,374.9562049999986,,004,P015,2025_Feb_28_1818,ConditionRich,2021.2.3,59.94754589746534,
336.0,339.75,8,0.75,Stimuli/P015/sun_arldxotvfucvuudk.jpg,0,0,0.0,0,146,146,146,,,,,,,,,,,,,336.0132231000025,0.013223100002505817,None,375.2064356999981,375.2064356999981,375.2064356999981,375.2064356999981,375.2064356999981,375.2064356999981,375.2064356999981,375.2064356999981,375.2064356999981,375.2064356999981,,004,P015,2025_Feb_28_1818,ConditionRich,2021.2.3,59.94754589746534,
339.75,340.0,41,0.0,Stimuli/Blank.png,0,0,0.0,0,147,147,147,,,,,,,,,,,,,339.7505390000006,0.0005390000005718321,None,378.9430966,378.9430966,378.9430966,378.9430966,378.9430966,378.9430966,378.9430966,378.9430966,378.9430966,378.9430966,,004,P015,2025_Feb_28_1818,ConditionRich,2021.2.3,59.94754589746534,
340.0,343.75,34,0.75,Stimuli/P015/things_shower_cap_08s.jpg,1,3,3.75,0,148,148,148,,,,,,,,,,,,,340.0026117000016,0.002611700001580175,1,379.20998640000107,379.20998640000107,379.20998640000107,379.20998640000107,379.20998640000107,379.20998640000107,382.1960087000007,382.94666529999813,379.20998640000107,379.20998640000107,3.5121655000002647,004,P015,2025_Feb_28_1818,ConditionRich,2021.2.3,59.94754589746534,
343.75,344.0,41,0.0,Stimuli/Blank.png,0,0,0.0,0,149,149,149,,,,,,,,,,,,,343.77284280000094,0.022842800000944408,None,382.97999060000075,382.97999060000075,382.97999060000075,382.97999060000075,382.97999060000075,382.97999060000075,382.97999060000075,382.97999060000075,382.97999060000075,382.97999060000075,,004,P015,2025_Feb_28_1818,ConditionRich,2021.2.3,59.94754589746534,
344.0,347.75,37,0.75,Stimuli/P015/things_swizzle_stick_08s.jpg,0,0,0.0,0,150,150,150,,,,,,,,,,,,,344.0226576000023,0.022657600002276013,None,383.2302105999988,383.2302105999988,383.2302105999988,383.2302105999988,383.2302105999988,383.2302105999988,383.2302105999988,383.2302105999988,383.2302105999988,383.2302105999988,,004,P015,2025_Feb_28_1818,ConditionRich,2021.2.3,59.94754589746534,
347.75,348.0,41,0.0,Stimuli/Blank.png,0,0,0.0,0,151,151,151,,,,,,,,,,,,,347.7746618000019,0.02466180000192253,None,386.96693009999944,386.96693009999944,386.96693009999944,386.96693009999944,386.96693009999944,386.96693009999944,386.96693009999944,386.96693009999944,386.96693009999944,386.96693009999944,,004,P015,2025_Feb_28_1818,ConditionRich,2021.2.3,59.94754589746534,
348.0,351.75,17,0.75,Stimuli/P015/sun_bxhbltvqnpaciuzt.jpg,0,0,0.0,0,152,152,152,,,,,,,,,,,,,348.0079446000018,0.007944600001792423,None,387.2171114999983,387.2171114999983,387.2171114999983,387.2171114999983,387.2171114999983,387.2171114999983,387.2171114999983,387.2171114999983,387.2171114999983,387.2171114999983,,004,P015,2025_Feb_28_1818,ConditionRich,2021.2.3,59.94754589746534,
351.75,352.0,41,0.0,Stimuli/Blank.png,0,0,0.0,0,153,153,153,,,,,,,,,,,,,351.77695270000186,0.02695270000185701,None,390.97036899999875,390.97036899999875,390.97036899999875,390.97036899999875,390.97036899999875,390.97036899999875,390.97036899999875,390.97036899999875,390.97036899999875,390.97036899999875,,004,P015,2025_Feb_28_1818,ConditionRich,2021.2.3,59.94754589746534,
352.0,355.75,4,0.75,Stimuli/P015/sun_aiwuqxdqzftsfyeg.jpg,1,1,1.75,0,154,154,154,,,,,,,,,,,,,352.01134900000034,0.011349000000336673,1,391.2039259999983,391.2039259999983,391.2039259999983,391.2039259999983,391.2039259999983,391.2039259999983,392.18813859999864,392.9388579000006,391.2039259999983,391.2039259999983,1.5385129999995115,004,P015,2025_Feb_28_1818,ConditionRich,2021.2.3,59.94754589746534,
355.75,356.0,41,0.0,Stimuli/Blank.png,0,0,0.0,0,155,155,155,,,,,,,,,,,,,355.7648826000004,0.014882600000419188,None,394.9572502999981,394.9572502999981,394.9572502999981,394.9572502999981,394.9572502999981,394.9572502999981,394.9572502999981,394.9572502999981,394.9572502999981,394.9572502999981,,004,P015,2025_Feb_28_1818,ConditionRich,2021.2.3,59.94754589746534,
356.0,359.75,22,0.75,Stimuli/P015/things_baby_08s.jpg,0,0,0.0,0,156,156,156,,,,,,,,,,,,,356.0148819999995,0.014881999999488471,None,395.22415510000064,395.22415510000064,395.22415510000064,395.22415510000064,395.22415510000064,395.22415510000064,395.22415510000064,395.22415510000064,395.22415510000064,395.22415510000064,,004,P015,2025_Feb_28_1818,ConditionRich,2021.2.3,59.94754589746534,
359.75,360.0,41,0.0,Stimuli/Blank.png,0,0,0.0,0,157,157,157,,,,,,,,,,,,,359.76751259999946,0.01751259999946342,None,398.9607888999999,398.9607888999999,398.9607888999999,398.9607888999999,398.9607888999999,398.9607888999999,398.9607888999999,398.9607888999999,398.9607888999999,398.9607888999999,,004,P015,2025_Feb_28_1818,ConditionRich,2021.2.3,59.94754589746534,
360.0,363.75,35,0.75,Stimuli/P015/things_squid_08s.jpg,0,0,0.0,0,158,158,158,,,,,,,,,,,,,360.0019186999998,0.0019186999998055398,None,399.19433370000115,399.19433370000115,399.19433370000115,399.19433370000115,399.19433370000115,399.19433370000115,399.19433370000115,399.19433370000115,399.19433370000115,399.19433370000115,,004,P015,2025_Feb_28_1818,ConditionRich,2021.2.3,59.94754589746534,
363.75,364.0,41,0.0,Stimuli/Blank.png,0,0,0.0,0,159,159,159,,,,,,,,,,,,,363.7565112000011,0.006511200001114048,None,402.96438130000024,402.96438130000024,402.96438130000024,402.96438130000024,402.96438130000024,402.96438130000024,402.96438130000024,402.96438130000024,402.96438130000024,402.96438130000024,,004,P015,2025_Feb_28_1818,ConditionRich,2021.2.3,59.94754589746534,
364.0,367.75,1,0.75,Stimuli/P015/sun_aacpzgqrortyhyss.jpg,0,0,0.0,0,160,160,160,,,,,,,,,,,,,364.02257649999956,0.02257649999955902,None,403.23126709999997,403.23126709999997,403.23126709999997,403.23126709999997,403.23126709999997,403.23126709999997,403.23126709999997,403.23126709999997,403.23126709999997,403.23126709999997,,004,P015,2025_Feb_28_1818,ConditionRich,2021.2.3,59.94754589746534,
367.75,368.0,41,0.0,Stimuli/Blank.png,0,0,0.0,0,161,161,161,,,,,,,,,,,,,367.7745093000012,0.02450930000122753,None,406.9678802999988,406.9678802999988,406.9678802999988,406.9678802999988,406.9678802999988,406.9678802999988,406.9678802999988,406.9678802999988,406.9678802999988,406.9678802999988,,004,P015,2025_Feb_28_1818,ConditionRich,2021.2.3,59.94754589746534,
368.0,371.75,20,0.75,Stimuli/P015/sun_bzmxulijbnmshodq.jpg,0,0,0.0,0,162,162,162,,,,,,,,,,,,,368.0082360000015,0.00823600000148872,None,407.20139610000115,407.20139610000115,407.20139610000115,407.20139610000115,407.20139610000115,407.20139610000115,407.20139610000115,407.20139610000115,407.20139610000115,407.20139610000115,,004,P015,2025_Feb_28_1818,ConditionRich,2021.2.3,59.94754589746534,
371.75,372.0,41,0.0,Stimuli/Blank.png,0,0,0.0,0,163,163,163,,,,,,,,,,,,,371.7624175000019,0.012417500001902226,None,410.95474710000053,410.95474710000053,410.95474710000053,410.95474710000053,410.95474710000053,410.95474710000053,410.95474710000053,410.95474710000053,410.95474710000053,410.95474710000053,,004,P015,2025_Feb_28_1818,ConditionRich,2021.2.3,59.94754589746534,
372.0,388.0,0,0.0,Stimuli/Blank.png,1,2,2.75,0,164,164,164,,,,,,,,,,,,,372.01224410000214,0.012244100002135383,1,411.20494450000115,411.20494450000115,411.20494450000115,411.20494450000115,411.20494450000115,411.20494450000115,413.19005959999777,413.94071669999903,411.20494450000115,411.20494450000115,2.5361830000001646,004,P015,2025_Feb_28_1818,ConditionRich,2021.2.3,59.94754589746534,
