eventStartTime,eventEndTime,eventCond,imSize,imFile,responseEvent,fixRespStart,fixRespEnd,Events.thisRepN,Events.thisTrialN,Events.thisN,Events.thisIndex,Instructions.started,Instructions.stopped,participantReadyResponse.keys,participantReadyResponse.rt,participantReadyResponse.started,participantReadyResponse.stopped,startWaitforTrigger,triggerResponse.keys,triggerResponse.rt,triggerResponse.started,triggerResponse.stopped,globalTimer,actualStartTime,startTimingDiff,participantResponse.keys,participantResponse.started,participantResponse.stopped,image.started,image.stopped,fixationOutside.started,fixationOutside.stopped,fixationResponse.started,fixationResponse.stopped,fixationInside.started,fixationInside.stopped,participantResponse.rt,session,participant,date,expName,psychopyVersion,frameRate,
,,,,,,,,,,,,9.521096000000398,None,1,13.947231999998621,9.521096000000398,None,,,,,,,,,,,,,,,,,,,,,001,P015,2025_Feb_28_1750,ConditionRich,2021.2.3,59.95009753875208,
,,,,,,,,,,,,,,,,,,23.471567500000674,5,14.913721000000805,23.484577800001716,None,,,,,,,,,,,,,,,,001,P015,2025_Feb_28_1750,ConditionRich,2021.2.3,59.95009753875208,
0.0,4.0,0,0.0,Stimuli/Blank.png,0,0,0.0,0,0,0,0,,,,,,,,,,,,38.401446900003066,0.027970800001639873,0.027970800001639873,None,38.44772190000003,None,38.44772190000003,None,38.44772190000003,None,38.44772190000003,38.44772190000003,38.44772190000003,None,,001,P015,2025_Feb_28_1750,ConditionRich,2021.2.3,59.95009753875208,
4.0,7.75,35,0.75,Stimuli/P015/things_squid_08s.jpg,0,0,0.0,0,1,1,1,,,,,,,,,,,,,4.02294289999918,0.022942899999179645,None,42.451570000001084,42.451570000001084,42.451570000001084,42.451570000001084,42.451570000001084,42.451570000001084,42.451570000001084,42.451570000001084,42.451570000001084,42.451570000001084,,001,P015,2025_Feb_28_1750,ConditionRich,2021.2.3,59.95009753875208,
7.75,8.0,41,0.0,Stimuli/Blank.png,0,0,0.0,0,2,2,2,,,,,,,,,,,,,7.7719447999988915,0.02194479999889154,None,46.188180700002704,46.188180700002704,46.188180700002704,46.188180700002704,46.188180700002704,46.188180700002704,46.188180700002704,46.188180700002704,46.188180700002704,46.188180700002704,,001,P015,2025_Feb_28_1750,ConditionRich,2021.2.3,59.95009753875208,
8.0,11.75,38,0.75,Stimuli/P015/things_trumpet_08s.jpg,0,0,0.0,0,3,3,3,,,,,,,,,,,,,8.0061323000009,0.006132300000899704,None,46.4214592999997,46.4214592999997,46.4214592999997,46.4214592999997,46.4214592999997,46.4214592999997,46.4214592999997,46.4214592999997,46.4214592999997,46.4214592999997,,001,P015,2025_Feb_28_1750,ConditionRich,2021.2.3,59.95009753875208,
11.75,12.0,41,0.0,Stimuli/Blank.png,0,0,0.0,0,4,4,4,,,,,,,,,,,,,11.760885800002143,0.010885800002142787,None,50.191453999999794,50.191453999999794,50.191453999999794,50.191453999999794,50.191453999999794,50.191453999999794,50.191453999999794,50.191453999999794,50.191453999999794,50.191453999999794,,001,P015,2025_Feb_28_1750,ConditionRich,2021.2.3,59.95009753875208,
12.0,15.75,3,0.75,Stimuli/P015/sun_aiogwnavezqxkzfg.jpg,0,0,0.0,0,5,5,5,,,,,,,,,,,,,12.026827000001504,0.02682700000150362,None,50.45837400000164,50.45837400000164,50.45837400000164,50.45837400000164,50.45837400000164,50.45837400000164,50.45837400000164,50.45837400000164,50.45837400000164,50.45837400000164,,001,P015,2025_Feb_28_1750,ConditionRich,2021.2.3,59.95009753875208,
15.75,16.0,41,0.0,Stimuli/Blank.png,0,0,0.0,0,6,6,6,,,,,,,,,,,,,15.780865700002323,0.030865700002323138,None,54.21168840000246,54.21168840000246,54.21168840000246,54.21168840000246,54.21168840000246,54.21168840000246,54.21168840000246,54.21168840000246,54.21168840000246,54.21168840000246,,001,P015,2025_Feb_28_1750,ConditionRich,2021.2.3,59.95009753875208,
16.0,19.75,4,0.75,Stimuli/P015/sun_aiwuqxdqzftsfyeg.jpg,0,0,0.0,0,7,7,7,,,,,,,,,,,,,16.029985000001034,0.029985000001033768,None,54.44522649999999,54.44522649999999,54.44522649999999,54.44522649999999,54.44522649999999,54.44522649999999,54.44522649999999,54.44522649999999,54.44522649999999,54.44522649999999,,001,P015,2025_Feb_28_1750,ConditionRich,2021.2.3,59.95009753875208,
19.75,20.0,41,0.0,Stimuli/Blank.png,0,0,0.0,0,8,8,8,,,,,,,,,,,,,19.749295699999493,-0.0007043000005069189,None,58.16516899999988,58.16516899999988,58.16516899999988,58.16516899999988,58.16516899999988,58.16516899999988,58.16516899999988,58.16516899999988,58.16516899999988,58.16516899999988,,001,P015,2025_Feb_28_1750,ConditionRich,2021.2.3,59.95009753875208,
20.0,23.75,33,0.75,Stimuli/P015/things_raccoon_08n.jpg,1,0,0.75,0,9,9,9,,,,,,,,,,,,,20.000653400002193,0.0006534000021929387,1,58.43207900000198,58.43207900000198,58.43207900000198,58.43207900000198,58.43207900000198,58.43207900000198,58.43207900000198,59.14937690000079,58.43207900000198,58.43207900000198,0.584319300000061,001,P015,2025_Feb_28_1750,ConditionRich,2021.2.3,59.95009753875208,
23.75,24.0,41,0.0,Stimuli/Blank.png,0,0,0.0,0,10,10,10,,,,,,,,,,,,,23.770548000000417,0.020548000000417233,None,62.18542230000094,62.18542230000094,62.18542230000094,62.18542230000094,62.18542230000094,62.18542230000094,62.18542230000094,62.18542230000094,62.18542230000094,62.18542230000094,,001,P015,2025_Feb_28_1750,ConditionRich,2021.2.3,59.95009753875208,
24.0,27.75,22,0.75,Stimuli/P015/things_baby_08s.jpg,1,1,1.75,0,11,11,11,,,,,,,,,,,,,24.002923700001702,0.0029237000017019454,1,62.41893710000295,62.41893710000295,62.41893710000295,62.41893710000295,62.41893710000295,62.41893710000295,63.403148400000646,64.15383719999954,62.41893710000295,62.41893710000295,1.5114055999983975,001,P015,2025_Feb_28_1750,ConditionRich,2021.2.3,59.95009753875208,
27.75,28.0,41,0.0,Stimuli/Blank.png,0,0,0.0,0,12,12,12,,,,,,,,,,,,,27.75733609999952,0.007336099999520229,None,66.1722778000003,66.1722778000003,66.1722778000003,66.1722778000003,66.1722778000003,66.1722778000003,66.1722778000003,66.1722778000003,66.1722778000003,66.1722778000003,,001,P015,2025_Feb_28_1750,ConditionRich,2021.2.3,59.95009753875208,
28.0,31.75,30,0.75,Stimuli/P015/things_ottoman_08s.jpg,0,0,0.0,0,13,13,13,,,,,,,,,,,,,28.00770199999897,0.007701999998971587,None,66.43917590000274,66.43917590000274,66.43917590000274,66.43917590000274,66.43917590000274,66.43917590000274,66.43917590000274,66.43917590000274,66.43917590000274,66.43917590000274,,001,P015,2025_Feb_28_1750,ConditionRich,2021.2.3,59.95009753875208,
31.75,32.0,41,0.0,Stimuli/Blank.png,0,0,0.0,0,14,14,14,,,,,,,,,,,,,31.776520499999606,0.026520499999605818,None,70.19248400000288,70.19248400000288,70.19248400000288,70.19248400000288,70.19248400000288,70.19248400000288,70.19248400000288,70.19248400000288,70.19248400000288,70.19248400000288,,001,P015,2025_Feb_28_1750,ConditionRich,2021.2.3,59.95009753875208,
32.0,35.75,40,0.75,Stimuli/P015/things_woman_08s.jpg,0,0,0.0,0,15,15,15,,,,,,,,,,,,,32.010395000001154,0.010395000001153676,None,70.42602980000083,70.42602980000083,70.42602980000083,70.42602980000083,70.42602980000083,70.42602980000083,70.42602980000083,70.42602980000083,70.42602980000083,70.42602980000083,,001,P015,2025_Feb_28_1750,ConditionRich,2021.2.3,59.95009753875208,
35.75,36.0,41,0.0,Stimuli/Blank.png,0,0,0.0,0,16,16,16,,,,,,,,,,,,,35.76596640000207,0.01596640000207117,None,74.19603670000288,74.19603670000288,74.19603670000288,74.19603670000288,74.19603670000288,74.19603670000288,74.19603670000288,74.19603670000288,74.19603670000288,74.19603670000288,,001,P015,2025_Feb_28_1750,ConditionRich,2021.2.3,59.95009753875208,
36.0,39.75,39,0.75,Stimuli/P015/things_window_08s.jpg,0,0,0.0,0,17,17,17,,,,,,,,,,,,,36.01501629999984,0.015016299999842886,None,74.44624930000282,74.44624930000282,74.44624930000282,74.44624930000282,74.44624930000282,74.44624930000282,74.44624930000282,74.44624930000282,74.44624930000282,74.44624930000282,,001,P015,2025_Feb_28_1750,ConditionRich,2021.2.3,59.95009753875208,
39.75,40.0,41,0.0,Stimuli/Blank.png,0,0,0.0,0,18,18,18,,,,,,,,,,,,,39.766920000001846,0.016920000001846347,None,78.18288949999987,78.18288949999987,78.18288949999987,78.18288949999987,78.18288949999987,78.18288949999987,78.18288949999987,78.18288949999987,78.18288949999987,78.18288949999987,,001,P015,2025_Feb_28_1750,ConditionRich,2021.2.3,59.95009753875208,
40.0,43.75,9,0.75,Stimuli/P015/sun_bbdgftzhpkaklkll.jpg,1,1,1.75,0,19,19,19,,,,,,,,,,,,,40.00169240000105,0.0016924000010476448,1,78.43310890000066,78.43310890000066,78.43310890000066,78.43310890000066,78.43310890000066,78.43310890000066,79.40063720000035,80.15130160000263,78.43310890000066,78.43310890000066,1.4451517000015883,001,P015,2025_Feb_28_1750,ConditionRich,2021.2.3,59.95009753875208,
43.75,44.0,41,0.0,Stimuli/Blank.png,0,0,0.0,0,20,20,20,,,,,,,,,,,,,43.77139100000204,0.021391000002040528,None,82.18642870000258,82.18642870000258,82.18642870000258,82.18642870000258,82.18642870000258,82.18642870000258,82.18642870000258,82.18642870000258,82.18642870000258,82.18642870000258,,001,P015,2025_Feb_28_1750,ConditionRich,2021.2.3,59.95009753875208,
44.0,47.75,19,0.75,Stimuli/P015/sun_bzhwvgrzvttqoexa.jpg,0,0,0.0,0,21,21,21,,,,,,,,,,,,,44.00447809999969,0.004478099999687402,None,82.45333360000222,82.45333360000222,82.45333360000222,82.45333360000222,82.45333360000222,82.45333360000222,82.45333360000222,82.45333360000222,82.45333360000222,82.45333360000222,,001,P015,2025_Feb_28_1750,ConditionRich,2021.2.3,59.95009753875208,
47.75,48.0,41,0.0,Stimuli/Blank.png,0,0,0.0,0,22,22,22,,,,,,,,,,,,,47.791357099999004,0.041357099999004276,None,86.2066545000016,86.2066545000016,86.2066545000016,86.2066545000016,86.2066545000016,86.2066545000016,86.2066545000016,86.2066545000016,86.2066545000016,86.2066545000016,,001,P015,2025_Feb_28_1750,ConditionRich,2021.2.3,59.95009753875208,
48.0,51.75,13,0.75,Stimuli/P015/sun_bphvjnowixlryxot.jpg,0,0,0.0,0,23,23,23,,,,,,,,,,,,,48.008102300002065,0.008102300002065022,None,86.45687460000045,86.45687460000045,86.45687460000045,86.45687460000045,86.45687460000045,86.45687460000045,86.45687460000045,86.45687460000045,86.45687460000045,86.45687460000045,,001,P015,2025_Feb_28_1750,ConditionRich,2021.2.3,59.95009753875208,
51.75,52.0,41,0.0,Stimuli/Blank.png,0,0,0.0,0,24,24,24,,,,,,,,,,,,,51.79707870000129,0.04707870000129333,None,90.2268780000013,90.2268780000013,90.2268780000013,90.2268780000013,90.2268780000013,90.2268780000013,90.2268780000013,90.2268780000013,90.2268780000013,90.2268780000013,,001,P015,2025_Feb_28_1750,ConditionRich,2021.2.3,59.95009753875208,
52.0,55.75,18,0.75,Stimuli/P015/sun_byavixgfuhzioilz.jpg,1,2,2.75,0,25,25,25,,,,,,,,,,,,,52.02779120000196,0.027791200001956895,1,90.46043959999952,90.46043959999952,90.46043959999952,90.46043959999952,90.46043959999952,90.46043959999952,92.44554179999977,93.19616210000095,90.46043959999952,90.46043959999952,2.4799741999995604,001,P015,2025_Feb_28_1750,ConditionRich,2021.2.3,59.95009753875208,
55.75,56.0,41,0.0,Stimuli/Blank.png,0,0,0.0,0,26,26,26,,,,,,,,,,,,,55.78168120000191,0.03168120000191266,None,94.19705969999995,94.19705969999995,94.19705969999995,94.19705969999995,94.19705969999995,94.19705969999995,94.19705969999995,94.19705969999995,94.19705969999995,94.19705969999995,,001,P015,2025_Feb_28_1750,ConditionRich,2021.2.3,59.95009753875208,
56.0,59.75,36,0.75,Stimuli/P015/things_streetlight_08s.jpg,0,0,0.0,0,27,27,27,,,,,,,,,,,,,56.01511820000087,0.015118200000870274,None,94.44731680000041,94.44731680000041,94.44731680000041,94.44731680000041,94.44731680000041,94.44731680000041,94.44731680000041,94.44731680000041,94.44731680000041,94.44731680000041,,001,P015,2025_Feb_28_1750,ConditionRich,2021.2.3,59.95009753875208,
59.75,60.0,41,0.0,Stimuli/Blank.png,0,0,0.0,0,28,28,28,,,,,,,,,,,,,59.76817529999971,0.01817529999971157,None,98.18391189999966,98.18391189999966,98.18391189999966,98.18391189999966,98.18391189999966,98.18391189999966,98.18391189999966,98.18391189999966,98.18391189999966,98.18391189999966,,001,P015,2025_Feb_28_1750,ConditionRich,2021.2.3,59.95009753875208,
60.0,63.75,31,0.75,Stimuli/P015/things_outlet_08s.jpg,0,0,0.0,0,29,29,29,,,,,,,,,,,,,60.0020712000005,0.0020712000005005393,None,98.43414210000265,98.43414210000265,98.43414210000265,98.43414210000265,98.43414210000265,98.43414210000265,98.43414210000265,98.43414210000265,98.43414210000265,98.43414210000265,,001,P015,2025_Feb_28_1750,ConditionRich,2021.2.3,59.95009753875208,
63.75,64.0,41,0.0,Stimuli/Blank.png,0,0,0.0,0,30,30,30,,,,,,,,,,,,,63.77194640000016,0.021946400000160793,None,102.1874585000005,102.1874585000005,102.1874585000005,102.1874585000005,102.1874585000005,102.1874585000005,102.1874585000005,102.1874585000005,102.1874585000005,102.1874585000005,,001,P015,2025_Feb_28_1750,ConditionRich,2021.2.3,59.95009753875208,
64.0,67.75,7,0.75,Stimuli/P015/sun_aqdfrmtvewaapuqs.jpg,0,0,0.0,0,31,31,31,,,,,,,,,,,,,64.00880940000206,0.008809400002064649,None,102.45438510000167,102.45438510000167,102.45438510000167,102.45438510000167,102.45438510000167,102.45438510000167,102.45438510000167,102.45438510000167,102.45438510000167,102.45438510000167,,001,P015,2025_Feb_28_1750,ConditionRich,2021.2.3,59.95009753875208,
67.75,68.0,41,0.0,Stimuli/Blank.png,0,0,0.0,0,32,32,32,,,,,,,,,,,,,67.79372549999971,0.04372549999970943,None,106.22437640000135,106.22437640000135,106.22437640000135,106.22437640000135,106.22437640000135,106.22437640000135,106.22437640000135,106.22437640000135,106.22437640000135,106.22437640000135,,001,P015,2025_Feb_28_1750,ConditionRich,2021.2.3,59.95009753875208,
68.0,71.75,32,0.75,Stimuli/P015/things_pheasant_08s.jpg,0,0,0.0,0,33,33,33,,,,,,,,,,,,,68.02511520000189,0.025115200001891935,None,106.45791409999947,106.45791409999947,106.45791409999947,106.45791409999947,106.45791409999947,106.45791409999947,106.45791409999947,106.45791409999947,106.45791409999947,106.45791409999947,,001,P015,2025_Feb_28_1750,ConditionRich,2021.2.3,59.95009753875208,
71.75,72.0,41,0.0,Stimuli/Blank.png,0,0,0.0,0,34,34,34,,,,,,,,,,,,,71.77918150000187,0.0291815000018687,None,110.19454130000304,110.19454130000304,110.19454130000304,110.19454130000304,110.19454130000304,110.19454130000304,110.19454130000304,110.19454130000304,110.19454130000304,110.19454130000304,,001,P015,2025_Feb_28_1750,ConditionRich,2021.2.3,59.95009753875208,
72.0,75.75,14,0.75,Stimuli/P015/sun_bpvmkbyglkraoxhh.jpg,0,0,0.0,0,35,35,35,,,,,,,,,,,,,72.01486010000008,0.014860100000078091,None,110.46148430000176,110.46148430000176,110.46148430000176,110.46148430000176,110.46148430000176,110.46148430000176,110.46148430000176,110.46148430000176,110.46148430000176,110.46148430000176,,001,P015,2025_Feb_28_1750,ConditionRich,2021.2.3,59.95009753875208,
75.75,76.0,41,0.0,Stimuli/Blank.png,0,0,0.0,0,36,36,36,,,,,,,,,,,,,75.78397630000109,0.0339763000010862,None,114.21477700000105,114.21477700000105,114.21477700000105,114.21477700000105,114.21477700000105,114.21477700000105,114.21477700000105,114.21477700000105,114.21477700000105,114.21477700000105,,001,P015,2025_Feb_28_1750,ConditionRich,2021.2.3,59.95009753875208,
76.0,79.75,16,0.75,Stimuli/P015/sun_bwhuwxazfqwuqhik.jpg,1,0,0.75,0,37,37,37,,,,,,,,,,,,,76.01555999999982,0.015559999999823049,1,114.46499760000006,114.46499760000006,114.46499760000006,114.46499760000006,114.46499760000006,114.46499760000006,114.46499760000006,115.18228180000006,114.46499760000006,114.46499760000006,0.5903414000022167,001,P015,2025_Feb_28_1750,ConditionRich,2021.2.3,59.95009753875208,
79.75,80.0,41,0.0,Stimuli/Blank.png,0,0,0.0,0,38,38,38,,,,,,,,,,,,,79.7862821000017,0.03628210000169929,None,118.2016317000016,118.2016317000016,118.2016317000016,118.2016317000016,118.2016317000016,118.2016317000016,118.2016317000016,118.2016317000016,118.2016317000016,118.2016317000016,,001,P015,2025_Feb_28_1750,ConditionRich,2021.2.3,59.95009753875208,
80.0,83.75,17,0.75,Stimuli/P015/sun_bxhbltvqnpaciuzt.jpg,0,0,0.0,0,39,39,39,,,,,,,,,,,,,80.00345630000083,0.0034563000008347444,None,118.45187830000214,118.45187830000214,118.45187830000214,118.45187830000214,118.45187830000214,118.45187830000214,118.45187830000214,118.45187830000214,118.45187830000214,118.45187830000214,,001,P015,2025_Feb_28_1750,ConditionRich,2021.2.3,59.95009753875208,
83.75,84.0,41,0.0,Stimuli/Blank.png,0,0,0.0,0,40,40,40,,,,,,,,,,,,,83.78956420000031,0.039564200000313576,None,122.20517699999982,122.20517699999982,122.20517699999982,122.20517699999982,122.20517699999982,122.20517699999982,122.20517699999982,122.20517699999982,122.20517699999982,122.20517699999982,,001,P015,2025_Feb_28_1750,ConditionRich,2021.2.3,59.95009753875208,
84.0,100.0,0,0.0,Stimuli/Blank.png,1,5,5.75,0,41,41,41,,,,,,,,,,,,,84.00611199999912,0.006111999999120599,1,122.42202730000281,122.42202730000281,122.42202730000281,122.42202730000281,122.42202730000281,122.42202730000281,127.40980150000178,128.16044090000287,122.42202730000281,122.42202730000281,5.5684629999996105,001,P015,2025_Feb_28_1750,ConditionRich,2021.2.3,59.95009753875208,
100.0,103.75,26,0.75,Stimuli/P015/things_face_08s.jpg,1,2,2.75,0,42,42,42,,,,,,,,,,,,,100.00463769999988,0.004637699999875622,1,138.4362027999996,138.4362027999996,138.4362027999996,138.4362027999996,138.4362027999996,138.4362027999996,140.4212925000029,141.17200120000052,138.4362027999996,138.4362027999996,2.4843170999993163,001,P015,2025_Feb_28_1750,ConditionRich,2021.2.3,59.95009753875208,
103.75,104.0,41,0.0,Stimuli/Blank.png,0,0,0.0,0,43,43,43,,,,,,,,,,,,,103.77416559999983,0.02416559999983292,None,142.18953180000244,142.18953180000244,142.18953180000244,142.18953180000244,142.18953180000244,142.18953180000244,142.18953180000244,142.18953180000244,142.18953180000244,142.18953180000244,,001,P015,2025_Feb_28_1750,ConditionRich,2021.2.3,59.95009753875208,
104.0,107.75,25,0.75,Stimuli/P015/things_deer_08s.jpg,0,0,0.0,0,44,44,44,,,,,,,,,,,,,104.00781350000034,0.007813500000338536,None,142.43974110000272,142.43974110000272,142.43974110000272,142.43974110000272,142.43974110000272,142.43974110000272,142.43974110000272,142.43974110000272,142.43974110000272,142.43974110000272,,001,P015,2025_Feb_28_1750,ConditionRich,2021.2.3,59.95009753875208,
107.75,108.0,41,0.0,Stimuli/Blank.png,0,0,0.0,0,45,45,45,,,,,,,,,,,,,107.77743829999963,0.027438299999630544,None,146.1930613000004,146.1930613000004,146.1930613000004,146.1930613000004,146.1930613000004,146.1930613000004,146.1930613000004,146.1930613000004,146.1930613000004,146.1930613000004,,001,P015,2025_Feb_28_1750,ConditionRich,2021.2.3,59.95009753875208,
108.0,111.75,24,0.75,Stimuli/P015/things_bunkbed_08s.jpg,0,0,0.0,0,46,46,46,,,,,,,,,,,,,108.01062219999949,0.010622199999488657,None,146.44331610000154,146.44331610000154,146.44331610000154,146.44331610000154,146.44331610000154,146.44331610000154,146.44331610000154,146.44331610000154,146.44331610000154,146.44331610000154,,001,P015,2025_Feb_28_1750,ConditionRich,2021.2.3,59.95009753875208,
111.75,112.0,41,0.0,Stimuli/Blank.png,0,0,0.0,0,47,47,47,,,,,,,,,,,,,111.781418999999,0.03141899999900488,None,150.19660920000024,150.19660920000024,150.19660920000024,150.19660920000024,150.19660920000024,150.19660920000024,150.19660920000024,150.19660920000024,150.19660920000024,150.19660920000024,,001,P015,2025_Feb_28_1750,ConditionRich,2021.2.3,59.95009753875208,
112.0,115.75,28,0.75,Stimuli/P015/things_latte_08s.jpg,0,0,0.0,0,48,48,48,,,,,,,,,,,,,112.01664320000054,0.01664320000054431,None,150.44687669999985,150.44687669999985,150.44687669999985,150.44687669999985,150.44687669999985,150.44687669999985,150.44687669999985,150.44687669999985,150.44687669999985,150.44687669999985,,001,P015,2025_Feb_28_1750,ConditionRich,2021.2.3,59.95009753875208,
115.75,116.0,41,0.0,Stimuli/Blank.png,0,0,0.0,0,49,49,49,,,,,,,,,,,,,115.76759909999964,0.01759909999964293,None,154.18346659999952,154.18346659999952,154.18346659999952,154.18346659999952,154.18346659999952,154.18346659999952,154.18346659999952,154.18346659999952,154.18346659999952,154.18346659999952,,001,P015,2025_Feb_28_1750,ConditionRich,2021.2.3,59.95009753875208,
116.0,119.75,11,0.75,Stimuli/P015/sun_bnwmcjuinqbdsbho.jpg,1,3,3.75,0,50,50,50,,,,,,,,,,,,,116.00094320000062,0.0009432000006199814,1,154.41697390000263,154.41697390000263,154.41697390000263,154.41697390000263,154.41697390000263,154.41697390000263,157.40297810000266,158.15361290000146,154.41697390000263,154.41697390000263,3.5366843000010704,001,P015,2025_Feb_28_1750,ConditionRich,2021.2.3,59.95009753875208,
119.75,120.0,41,0.0,Stimuli/Blank.png,0,0,0.0,0,51,51,51,,,,,,,,,,,,,119.75437130000137,0.0043713000013667624,None,158.17032610000024,158.17032610000024,158.17032610000024,158.17032610000024,158.17032610000024,158.17032610000024,158.17032610000024,158.17032610000024,158.17032610000024,158.17032610000024,,001,P015,2025_Feb_28_1750,ConditionRich,2021.2.3,59.95009753875208,
120.0,123.75,5,0.75,Stimuli/P015/sun_ajgmxbrxdpmsaext.jpg,0,0,0.0,0,52,52,52,,,,,,,,,,,,,120.00461480000013,0.0046148000001267064,None,158.42058800000086,158.42058800000086,158.42058800000086,158.42058800000086,158.42058800000086,158.42058800000086,158.42058800000086,158.42058800000086,158.42058800000086,158.42058800000086,,001,P015,2025_Feb_28_1750,ConditionRich,2021.2.3,59.95009753875208,
123.75,124.0,41,0.0,Stimuli/Blank.png,0,0,0.0,0,53,53,53,,,,,,,,,,,,,123.75835770000049,0.008357700000487966,None,162.17386910000278,162.17386910000278,162.17386910000278,162.17386910000278,162.17386910000278,162.17386910000278,162.17386910000278,162.17386910000278,162.17386910000278,162.17386910000278,,001,P015,2025_Feb_28_1750,ConditionRich,2021.2.3,59.95009753875208,
124.0,127.75,29,0.75,Stimuli/P015/things_mouse1_08s.jpg,1,1,1.75,0,54,54,54,,,,,,,,,,,,,124.00819649999903,0.008196499999030493,1,162.44078020000234,162.44078020000234,162.44078020000234,162.44078020000234,162.44078020000234,162.44078020000234,163.42502009999953,164.17564570000104,162.44078020000234,162.44078020000234,1.472692700001062,001,P015,2025_Feb_28_1750,ConditionRich,2021.2.3,59.95009753875208,
127.75,128.0,41,0.0,Stimuli/Blank.png,0,0,0.0,0,55,55,55,,,,,,,,,,,,,127.77830209999956,0.028302099999564234,None,166.1941095000002,166.1941095000002,166.1941095000002,166.1941095000002,166.1941095000002,166.1941095000002,166.1941095000002,166.1941095000002,166.1941095000002,166.1941095000002,,001,P015,2025_Feb_28_1750,ConditionRich,2021.2.3,59.95009753875208,
128.0,131.75,1,0.75,Stimuli/P015/sun_aacpzgqrortyhyss.jpg,0,0,0.0,0,56,56,56,,,,,,,,,,,,,128.01207839999915,0.012078399999154499,None,166.4443594000004,166.4443594000004,166.4443594000004,166.4443594000004,166.4443594000004,166.4443594000004,166.4443594000004,166.4443594000004,166.4443594000004,166.4443594000004,,001,P015,2025_Feb_28_1750,ConditionRich,2021.2.3,59.95009753875208,
131.75,132.0,41,0.0,Stimuli/Blank.png,0,0,0.0,0,57,57,57,,,,,,,,,,,,,131.78165150000132,0.03165150000131689,None,170.19763770000282,170.19763770000282,170.19763770000282,170.19763770000282,170.19763770000282,170.19763770000282,170.19763770000282,170.19763770000282,170.19763770000282,170.19763770000282,,001,P015,2025_Feb_28_1750,ConditionRich,2021.2.3,59.95009753875208,
132.0,135.75,6,0.75,Stimuli/P015/sun_akecfasimgpbqcnt.jpg,1,1,1.75,0,58,58,58,,,,,,,,,,,,,132.01514260000113,0.015142600001126993,1,170.44789310000124,170.44789310000124,170.44789310000124,170.44789310000124,170.44789310000124,170.44789310000124,171.43207480000274,172.18273130000307,170.44789310000124,170.44789310000124,1.5265623000013875,001,P015,2025_Feb_28_1750,ConditionRich,2021.2.3,59.95009753875208,
135.75,136.0,41,0.0,Stimuli/Blank.png,0,0,0.0,0,59,59,59,,,,,,,,,,,,,135.7687595999996,0.018759599999611964,None,174.18458409999948,174.18458409999948,174.18458409999948,174.18458409999948,174.18458409999948,174.18458409999948,174.18458409999948,174.18458409999948,174.18458409999948,174.18458409999948,,001,P015,2025_Feb_28_1750,ConditionRich,2021.2.3,59.95009753875208,
136.0,139.75,23,0.75,Stimuli/P015/things_boy_08s.jpg,0,0,0.0,0,60,60,60,,,,,,,,,,,,,136.0026942000004,0.0026942000004055444,None,174.43472720000136,174.43472720000136,174.43472720000136,174.43472720000136,174.43472720000136,174.43472720000136,174.43472720000136,174.43472720000136,174.43472720000136,174.43472720000136,,001,P015,2025_Feb_28_1750,ConditionRich,2021.2.3,59.95009753875208,
139.75,140.0,41,0.0,Stimuli/Blank.png,0,0,0.0,0,61,61,61,,,,,,,,,,,,,139.77437239999927,0.024372399999265326,None,178.20474580000155,178.20474580000155,178.20474580000155,178.20474580000155,178.20474580000155,178.20474580000155,178.20474580000155,178.20474580000155,178.20474580000155,178.20474580000155,,001,P015,2025_Feb_28_1750,ConditionRich,2021.2.3,59.95009753875208,
140.0,143.75,15,0.75,Stimuli/P015/sun_bvfcijehgdsndfbg.jpg,0,0,0.0,0,62,62,62,,,,,,,,,,,,,140.02216690000205,0.02216690000204835,None,178.45496330000242,178.45496330000242,178.45496330000242,178.45496330000242,178.45496330000242,178.45496330000242,178.45496330000242,178.45496330000242,178.45496330000242,178.45496330000242,,001,P015,2025_Feb_28_1750,ConditionRich,2021.2.3,59.95009753875208,
143.75,144.0,41,0.0,Stimuli/Blank.png,0,0,0.0,0,63,63,63,,,,,,,,,,,,,143.77824370000235,0.028243700002349215,None,182.20827980000104,182.20827980000104,182.20827980000104,182.20827980000104,182.20827980000104,182.20827980000104,182.20827980000104,182.20827980000104,182.20827980000104,182.20827980000104,,001,P015,2025_Feb_28_1750,ConditionRich,2021.2.3,59.95009753875208,
144.0,147.75,34,0.75,Stimuli/P015/things_shower_cap_08s.jpg,0,0,0.0,0,64,64,64,,,,,,,,,,,,,144.02647649999926,0.02647649999926216,None,182.458565500001,182.458565500001,182.458565500001,182.458565500001,182.458565500001,182.458565500001,182.458565500001,182.458565500001,182.458565500001,182.458565500001,,001,P015,2025_Feb_28_1750,ConditionRich,2021.2.3,59.95009753875208,
147.75,148.0,41,0.0,Stimuli/Blank.png,0,0,0.0,0,65,65,65,,,,,,,,,,,,,147.78006870000172,0.030068700001720572,None,186.1952154999999,186.1952154999999,186.1952154999999,186.1952154999999,186.1952154999999,186.1952154999999,186.1952154999999,186.1952154999999,186.1952154999999,186.1952154999999,,001,P015,2025_Feb_28_1750,ConditionRich,2021.2.3,59.95009753875208,
148.0,151.75,20,0.75,Stimuli/P015/sun_bzmxulijbnmshodq.jpg,1,2,2.75,0,66,66,66,,,,,,,,,,,,,148.01381580000088,0.013815800000884337,1,186.4620329999998,186.4620329999998,186.4620329999998,186.4620329999998,186.4620329999998,186.4620329999998,188.43043279999983,189.18115300000136,186.4620329999998,186.4620329999998,2.4076850000019476,001,P015,2025_Feb_28_1750,ConditionRich,2021.2.3,59.95009753875208,
151.75,152.0,41,0.0,Stimuli/Blank.png,0,0,0.0,0,67,67,67,,,,,,,,,,,,,151.78280689999883,0.032806899998831796,None,190.1987642000022,190.1987642000022,190.1987642000022,190.1987642000022,190.1987642000022,190.1987642000022,190.1987642000022,190.1987642000022,190.1987642000022,190.1987642000022,,001,P015,2025_Feb_28_1750,ConditionRich,2021.2.3,59.95009753875208,
152.0,155.75,2,0.75,Stimuli/P015/sun_agzfkftryitnqpxc.jpg,0,0,0.0,0,68,68,68,,,,,,,,,,,,,152.00036629999886,0.0003662999988591764,None,190.41553340000246,190.41553340000246,190.41553340000246,190.41553340000246,190.41553340000246,190.41553340000246,190.41553340000246,190.41553340000246,190.41553340000246,190.41553340000246,,001,P015,2025_Feb_28_1750,ConditionRich,2021.2.3,59.95009753875208,
155.75,156.0,41,0.0,Stimuli/Blank.png,0,0,0.0,0,69,69,69,,,,,,,,,,,,,155.7532855999998,0.0032855999997991603,None,194.16885360000015,194.16885360000015,194.16885360000015,194.16885360000015,194.16885360000015,194.16885360000015,194.16885360000015,194.16885360000015,194.16885360000015,194.16885360000015,,001,P015,2025_Feb_28_1750,ConditionRich,2021.2.3,59.95009753875208,
156.0,159.75,27,0.75,Stimuli/P015/things_girl_08s.jpg,0,0,0.0,0,70,70,70,,,,,,,,,,,,,156.00387690000207,0.0038769000020693056,None,194.45242710000093,194.45242710000093,194.45242710000093,194.45242710000093,194.45242710000093,194.45242710000093,194.45242710000093,194.45242710000093,194.45242710000093,194.45242710000093,,001,P015,2025_Feb_28_1750,ConditionRich,2021.2.3,59.95009753875208,
159.75,160.0,41,0.0,Stimuli/Blank.png,0,0,0.0,0,71,71,71,,,,,,,,,,,,,159.7896768999999,0.03967689999990398,None,198.20575380000082,198.20575380000082,198.20575380000082,198.20575380000082,198.20575380000082,198.20575380000082,198.20575380000082,198.20575380000082,198.20575380000082,198.20575380000082,,001,P015,2025_Feb_28_1750,ConditionRich,2021.2.3,59.95009753875208,
160.0,163.75,12,0.75,Stimuli/P015/sun_boffixsnbbloarty.jpg,0,0,0.0,0,72,72,72,,,,,,,,,,,,,160.00913370000126,0.009133700001257239,None,198.43930829999954,198.43930829999954,198.43930829999954,198.43930829999954,198.43930829999954,198.43930829999954,198.43930829999954,198.43930829999954,198.43930829999954,198.43930829999954,,001,P015,2025_Feb_28_1750,ConditionRich,2021.2.3,59.95009753875208,
163.75,164.0,41,0.0,Stimuli/Blank.png,0,0,0.0,0,73,73,73,,,,,,,,,,,,,163.77728099999877,0.027280999998765765,None,202.19261019999976,202.19261019999976,202.19261019999976,202.19261019999976,202.19261019999976,202.19261019999976,202.19261019999976,202.19261019999976,202.19261019999976,202.19261019999976,,001,P015,2025_Feb_28_1750,ConditionRich,2021.2.3,59.95009753875208,
164.0,167.75,10,0.75,Stimuli/P015/sun_bfojpvrlsrtfyzio.jpg,0,0,0.0,0,74,74,74,,,,,,,,,,,,,164.01028009999936,0.010280099999363301,None,202.44283859999996,202.44283859999996,202.44283859999996,202.44283859999996,202.44283859999996,202.44283859999996,202.44283859999996,202.44283859999996,202.44283859999996,202.44283859999996,,001,P015,2025_Feb_28_1750,ConditionRich,2021.2.3,59.95009753875208,
167.75,168.0,41,0.0,Stimuli/Blank.png,0,0,0.0,0,75,75,75,,,,,,,,,,,,,167.78051699999924,0.03051699999923585,None,206.1962765999997,206.1962765999997,206.1962765999997,206.1962765999997,206.1962765999997,206.1962765999997,206.1962765999997,206.1962765999997,206.1962765999997,206.1962765999997,,001,P015,2025_Feb_28_1750,ConditionRich,2021.2.3,59.95009753875208,
168.0,171.75,21,0.75,Stimuli/P015/things_arch_08s.jpg,0,0,0.0,0,76,76,76,,,,,,,,,,,,,168.01396970000133,0.013969700001325691,None,206.44641690000208,206.44641690000208,206.44641690000208,206.44641690000208,206.44641690000208,206.44641690000208,206.44641690000208,206.44641690000208,206.44641690000208,206.44641690000208,,001,P015,2025_Feb_28_1750,ConditionRich,2021.2.3,59.95009753875208,
171.75,172.0,41,0.0,Stimuli/Blank.png,0,0,0.0,0,77,77,77,,,,,,,,,,,,,171.76837910000177,0.018379100001766346,None,210.18302510000285,210.18302510000285,210.18302510000285,210.18302510000285,210.18302510000285,210.18302510000285,210.18302510000285,210.18302510000285,210.18302510000285,210.18302510000285,,001,P015,2025_Feb_28_1750,ConditionRich,2021.2.3,59.95009753875208,
172.0,175.75,8,0.75,Stimuli/P015/sun_arldxotvfucvuudk.jpg,0,0,0.0,0,78,78,78,,,,,,,,,,,,,172.00098230000003,0.00098230000003241,None,210.41657690000284,210.41657690000284,210.41657690000284,210.41657690000284,210.41657690000284,210.41657690000284,210.41657690000284,210.41657690000284,210.41657690000284,210.41657690000284,,001,P015,2025_Feb_28_1750,ConditionRich,2021.2.3,59.95009753875208,
175.75,176.0,41,0.0,Stimuli/Blank.png,0,0,0.0,0,79,79,79,,,,,,,,,,,,,175.75380470000164,0.003804700001637684,None,214.16987470000095,214.16987470000095,214.16987470000095,214.16987470000095,214.16987470000095,214.16987470000095,214.16987470000095,214.16987470000095,214.16987470000095,214.16987470000095,,001,P015,2025_Feb_28_1750,ConditionRich,2021.2.3,59.95009753875208,
176.0,179.75,37,0.75,Stimuli/P015/things_swizzle_stick_08s.jpg,0,0,0.0,0,80,80,80,,,,,,,,,,,,,176.00535519999903,0.005355199999030447,None,214.43678010000076,214.43678010000076,214.43678010000076,214.43678010000076,214.43678010000076,214.43678010000076,214.43678010000076,214.43678010000076,214.43678010000076,214.43678010000076,,001,P015,2025_Feb_28_1750,ConditionRich,2021.2.3,59.95009753875208,
179.75,180.0,41,0.0,Stimuli/Blank.png,0,0,0.0,0,81,81,81,,,,,,,,,,,,,179.77471180000066,0.024711800000659423,None,218.19012230000226,218.19012230000226,218.19012230000226,218.19012230000226,218.19012230000226,218.19012230000226,218.19012230000226,218.19012230000226,218.19012230000226,218.19012230000226,,001,P015,2025_Feb_28_1750,ConditionRich,2021.2.3,59.95009753875208,
180.0,196.0,0,0.0,Stimuli/Blank.png,1,10,10.75,0,82,82,82,,,,,,,,,,,,,180.0083397999988,0.008339799998793751,1,218.42365380000047,218.42365380000047,218.42365380000047,218.42365380000047,218.42365380000047,218.42365380000047,228.41581840000072,229.16648850000274,218.42365380000047,218.42365380000047,10.565917699997954,001,P015,2025_Feb_28_1750,ConditionRich,2021.2.3,59.95009753875208,
196.0,199.75,20,0.75,Stimuli/P015/sun_bzmxulijbnmshodq.jpg,0,0,0.0,0,83,83,83,,,,,,,,,,,,,196.00531090000004,0.005310900000040419,None,234.42113230000177,234.42113230000177,234.42113230000177,234.42113230000177,234.42113230000177,234.42113230000177,234.42113230000177,234.42113230000177,234.42113230000177,234.42113230000177,,001,P015,2025_Feb_28_1750,ConditionRich,2021.2.3,59.95009753875208,
199.75,200.0,41,0.0,Stimuli/Blank.png,0,0,0.0,0,84,84,84,,,,,,,,,,,,,199.75860639999883,0.008606399998825509,None,238.17443320000166,238.17443320000166,238.17443320000166,238.17443320000166,238.17443320000166,238.17443320000166,238.17443320000166,238.17443320000166,238.17443320000166,238.17443320000166,,001,P015,2025_Feb_28_1750,ConditionRich,2021.2.3,59.95009753875208,
200.0,203.75,34,0.75,Stimuli/P015/things_shower_cap_08s.jpg,1,0,0.75,0,85,85,85,,,,,,,,,,,,,200.00930620000145,0.009306200001446996,1,238.44138530000055,238.44138530000055,238.44138530000055,238.44138530000055,238.44138530000055,238.44138530000055,238.44138530000055,239.15867939999953,238.44138530000055,238.44138530000055,0.6221417999986443,001,P015,2025_Feb_28_1750,ConditionRich,2021.2.3,59.95009753875208,
203.75,204.0,41,0.0,Stimuli/Blank.png,0,0,0.0,0,86,86,86,,,,,,,,,,,,,203.77882859999954,0.028828599999542348,None,242.19469460000255,242.19469460000255,242.19469460000255,242.19469460000255,242.19469460000255,242.19469460000255,242.19469460000255,242.19469460000255,242.19469460000255,242.19469460000255,,001,P015,2025_Feb_28_1750,ConditionRich,2021.2.3,59.95009753875208,
204.0,207.75,7,0.75,Stimuli/P015/sun_aqdfrmtvewaapuqs.jpg,0,0,0.0,0,87,87,87,,,,,,,,,,,,,204.01459450000038,0.014594500000384869,None,242.44491670000207,242.44491670000207,242.44491670000207,242.44491670000207,242.44491670000207,242.44491670000207,242.44491670000207,242.44491670000207,242.44491670000207,242.44491670000207,,001,P015,2025_Feb_28_1750,ConditionRich,2021.2.3,59.95009753875208,
207.75,208.0,41,0.0,Stimuli/Blank.png,0,0,0.0,0,88,88,88,,,,,,,,,,,,,207.76560710000194,0.015607100001943763,None,246.18153979999988,246.18153979999988,246.18153979999988,246.18153979999988,246.18153979999988,246.18153979999988,246.18153979999988,246.18153979999988,246.18153979999988,246.18153979999988,,001,P015,2025_Feb_28_1750,ConditionRich,2021.2.3,59.95009753875208,
208.0,211.75,4,0.75,Stimuli/P015/sun_aiwuqxdqzftsfyeg.jpg,0,0,0.0,0,89,89,89,,,,,,,,,,,,,208.00018170000112,0.00018170000112149864,None,246.4150821000003,246.4150821000003,246.4150821000003,246.4150821000003,246.4150821000003,246.4150821000003,246.4150821000003,246.4150821000003,246.4150821000003,246.4150821000003,,001,P015,2025_Feb_28_1750,ConditionRich,2021.2.3,59.95009753875208,
211.75,212.0,41,0.0,Stimuli/Blank.png,0,0,0.0,0,90,90,90,,,,,,,,,,,,,211.75516029999926,0.005160299999261042,None,250.18510210000022,250.18510210000022,250.18510210000022,250.18510210000022,250.18510210000022,250.18510210000022,250.18510210000022,250.18510210000022,250.18510210000022,250.18510210000022,,001,P015,2025_Feb_28_1750,ConditionRich,2021.2.3,59.95009753875208,
212.0,215.75,27,0.75,Stimuli/P015/things_girl_08s.jpg,0,0,0.0,0,91,91,91,,,,,,,,,,,,,212.01995030000035,0.019950300000346033,None,250.43530610000016,250.43530610000016,250.43530610000016,250.43530610000016,250.43530610000016,250.43530610000016,250.43530610000016,250.43530610000016,250.43530610000016,250.43530610000016,,001,P015,2025_Feb_28_1750,ConditionRich,2021.2.3,59.95009753875208,
215.75,216.0,41,0.0,Stimuli/Blank.png,0,0,0.0,0,92,92,92,,,,,,,,,,,,,215.75600490000215,0.00600490000215359,None,254.1719531000017,254.1719531000017,254.1719531000017,254.1719531000017,254.1719531000017,254.1719531000017,254.1719531000017,254.1719531000017,254.1719531000017,254.1719531000017,,001,P015,2025_Feb_28_1750,ConditionRich,2021.2.3,59.95009753875208,
216.0,219.75,22,0.75,Stimuli/P015/things_baby_08s.jpg,0,0,0.0,0,93,93,93,,,,,,,,,,,,,216.0062278000005,0.00622780000048806,None,254.4221705000018,254.4221705000018,254.4221705000018,254.4221705000018,254.4221705000018,254.4221705000018,254.4221705000018,254.4221705000018,254.4221705000018,254.4221705000018,,001,P015,2025_Feb_28_1750,ConditionRich,2021.2.3,59.95009753875208,
219.75,220.0,41,0.0,Stimuli/Blank.png,0,0,0.0,0,94,94,94,,,,,,,,,,,,,219.76018530000147,0.010185300001467112,None,258.17550210000263,258.17550210000263,258.17550210000263,258.17550210000263,258.17550210000263,258.17550210000263,258.17550210000263,258.17550210000263,258.17550210000263,258.17550210000263,,001,P015,2025_Feb_28_1750,ConditionRich,2021.2.3,59.95009753875208,
220.0,223.75,8,0.75,Stimuli/P015/sun_arldxotvfucvuudk.jpg,0,0,0.0,0,95,95,95,,,,,,,,,,,,,220.01038369999878,0.010383699998783413,None,258.44239420000304,258.44239420000304,258.44239420000304,258.44239420000304,258.44239420000304,258.44239420000304,258.44239420000304,258.44239420000304,258.44239420000304,258.44239420000304,,001,P015,2025_Feb_28_1750,ConditionRich,2021.2.3,59.95009753875208,
223.75,224.0,41,0.0,Stimuli/Blank.png,0,0,0.0,0,96,96,96,,,,,,,,,,,,,223.7820094000017,0.03200940000169794,None,262.2124046000026,262.2124046000026,262.2124046000026,262.2124046000026,262.2124046000026,262.2124046000026,262.2124046000026,262.2124046000026,262.2124046000026,262.2124046000026,,001,P015,2025_Feb_28_1750,ConditionRich,2021.2.3,59.95009753875208,
224.0,227.75,32,0.75,Stimuli/P015/things_pheasant_08s.jpg,1,1,1.75,0,97,97,97,,,,,,,,,,,,,224.03263470000093,0.03263470000092639,1,262.46315830000094,262.46315830000094,262.46315830000094,262.46315830000094,262.46315830000094,262.46315830000094,263.44682020000255,264.1974861000017,262.46315830000094,262.46315830000094,1.4473663000026136,001,P015,2025_Feb_28_1750,ConditionRich,2021.2.3,59.95009753875208,
227.75,228.0,41,0.0,Stimuli/Blank.png,0,0,0.0,0,98,98,98,,,,,,,,,,,,,227.76727799999935,0.017277999999350868,None,266.1825788000024,266.1825788000024,266.1825788000024,266.1825788000024,266.1825788000024,266.1825788000024,266.1825788000024,266.1825788000024,266.1825788000024,266.1825788000024,,001,P015,2025_Feb_28_1750,ConditionRich,2021.2.3,59.95009753875208,
228.0,231.75,10,0.75,Stimuli/P015/sun_bfojpvrlsrtfyzio.jpg,0,0,0.0,0,99,99,99,,,,,,,,,,,,,228.00054549999913,0.0005454999991343357,None,266.4328150000001,266.4328150000001,266.4328150000001,266.4328150000001,266.4328150000001,266.4328150000001,266.4328150000001,266.4328150000001,266.4328150000001,266.4328150000001,,001,P015,2025_Feb_28_1750,ConditionRich,2021.2.3,59.95009753875208,
231.75,232.0,41,0.0,Stimuli/Blank.png,0,0,0.0,0,100,100,100,,,,,,,,,,,,,231.77062389999992,0.02062389999991865,None,270.1861205000023,270.1861205000023,270.1861205000023,270.1861205000023,270.1861205000023,270.1861205000023,270.1861205000023,270.1861205000023,270.1861205000023,270.1861205000023,,001,P015,2025_Feb_28_1750,ConditionRich,2021.2.3,59.95009753875208,
232.0,235.75,1,0.75,Stimuli/P015/sun_aacpzgqrortyhyss.jpg,0,0,0.0,0,101,101,101,,,,,,,,,,,,,232.00384970000232,0.003849700002319878,None,270.41969830000016,270.41969830000016,270.41969830000016,270.41969830000016,270.41969830000016,270.41969830000016,270.41969830000016,270.41969830000016,270.41969830000016,270.41969830000016,,001,P015,2025_Feb_28_1750,ConditionRich,2021.2.3,59.95009753875208,
235.75,236.0,41,0.0,Stimuli/Blank.png,0,0,0.0,0,102,102,102,,,,,,,,,,,,,235.7576646000016,0.007664600001589861,None,274.17307580000124,274.17307580000124,274.17307580000124,274.17307580000124,274.17307580000124,274.17307580000124,274.17307580000124,274.17307580000124,274.17307580000124,274.17307580000124,,001,P015,2025_Feb_28_1750,ConditionRich,2021.2.3,59.95009753875208,
236.0,239.75,29,0.75,Stimuli/P015/things_mouse1_08s.jpg,1,2,2.75,0,103,103,103,,,,,,,,,,,,,236.0072822000002,0.007282200000190642,1,274.42319940000016,274.42319940000016,274.42319940000016,274.42319940000016,274.42319940000016,274.42319940000016,276.40829250000024,277.158946800002,274.42319940000016,274.42319940000016,2.4525036999984877,001,P015,2025_Feb_28_1750,ConditionRich,2021.2.3,59.95009753875208,
239.75,240.0,41,0.0,Stimuli/Blank.png,0,0,0.0,0,104,104,104,,,,,,,,,,,,,239.76058869999906,0.010588699999061646,None,278.17652140000064,278.17652140000064,278.17652140000064,278.17652140000064,278.17652140000064,278.17652140000064,278.17652140000064,278.17652140000064,278.17652140000064,278.17652140000064,,001,P015,2025_Feb_28_1750,ConditionRich,2021.2.3,59.95009753875208,
240.0,243.75,2,0.75,Stimuli/P015/sun_agzfkftryitnqpxc.jpg,0,0,0.0,0,105,105,105,,,,,,,,,,,,,240.01085909999892,0.010859099998924648,None,278.42675130000134,278.42675130000134,278.42675130000134,278.42675130000134,278.42675130000134,278.42675130000134,278.42675130000134,278.42675130000134,278.42675130000134,278.42675130000134,,001,P015,2025_Feb_28_1750,ConditionRich,2021.2.3,59.95009753875208,
243.75,244.0,41,0.0,Stimuli/Blank.png,0,0,0.0,0,106,106,106,,,,,,,,,,,,,243.76689289999922,0.01689289999922039,None,282.19680549999975,282.19680549999975,282.19680549999975,282.19680549999975,282.19680549999975,282.19680549999975,282.19680549999975,282.19680549999975,282.19680549999975,282.19680549999975,,001,P015,2025_Feb_28_1750,ConditionRich,2021.2.3,59.95009753875208,
244.0,247.75,9,0.75,Stimuli/P015/sun_bbdgftzhpkaklkll.jpg,0,0,0.0,0,107,107,107,,,,,,,,,,,,,244.0152839000002,0.01528390000021318,None,282.4469656000001,282.4469656000001,282.4469656000001,282.4469656000001,282.4469656000001,282.4469656000001,282.4469656000001,282.4469656000001,282.4469656000001,282.4469656000001,,001,P015,2025_Feb_28_1750,ConditionRich,2021.2.3,59.95009753875208,
247.75,248.0,41,0.0,Stimuli/Blank.png,0,0,0.0,0,108,108,108,,,,,,,,,,,,,247.76779230000102,0.017792300001019612,None,286.1836094999999,286.1836094999999,286.1836094999999,286.1836094999999,286.1836094999999,286.1836094999999,286.1836094999999,286.1836094999999,286.1836094999999,286.1836094999999,,001,P015,2025_Feb_28_1750,ConditionRich,2021.2.3,59.95009753875208,
248.0,251.75,18,0.75,Stimuli/P015/sun_byavixgfuhzioilz.jpg,0,0,0.0,0,109,109,109,,,,,,,,,,,,,248.00248629999987,0.002486299999873154,None,286.43385430000126,286.43385430000126,286.43385430000126,286.43385430000126,286.43385430000126,286.43385430000126,286.43385430000126,286.43385430000126,286.43385430000126,286.43385430000126,,001,P015,2025_Feb_28_1750,ConditionRich,2021.2.3,59.95009753875208,
251.75,252.0,41,0.0,Stimuli/Blank.png,0,0,0.0,0,110,110,110,,,,,,,,,,,,,251.77173029999904,0.021730299999035196,None,290.18716770000174,290.18716770000174,290.18716770000174,290.18716770000174,290.18716770000174,290.18716770000174,290.18716770000174,290.18716770000174,290.18716770000174,290.18716770000174,,001,P015,2025_Feb_28_1750,ConditionRich,2021.2.3,59.95009753875208,
252.0,255.75,15,0.75,Stimuli/P015/sun_bvfcijehgdsndfbg.jpg,0,0,0.0,0,111,111,111,,,,,,,,,,,,,252.00791910000044,0.00791910000043572,None,290.4373962999998,290.4373962999998,290.4373962999998,290.4373962999998,290.4373962999998,290.4373962999998,290.4373962999998,290.4373962999998,290.4373962999998,290.4373962999998,,001,P015,2025_Feb_28_1750,ConditionRich,2021.2.3,59.95009753875208,
255.75,256.0,41,0.0,Stimuli/Blank.png,0,0,0.0,0,112,112,112,,,,,,,,,,,,,255.77474260000236,0.024742600002355175,None,294.19068900000275,294.19068900000275,294.19068900000275,294.19068900000275,294.19068900000275,294.19068900000275,294.19068900000275,294.19068900000275,294.19068900000275,294.19068900000275,,001,P015,2025_Feb_28_1750,ConditionRich,2021.2.3,59.95009753875208,
256.0,259.75,39,0.75,Stimuli/P015/things_window_08s.jpg,0,0,0.0,0,113,113,113,,,,,,,,,,,,,256.008667099999,0.008667099999001948,None,294.42423220000273,294.42423220000273,294.42423220000273,294.42423220000273,294.42423220000273,294.42423220000273,294.42423220000273,294.42423220000273,294.42423220000273,294.42423220000273,,001,P015,2025_Feb_28_1750,ConditionRich,2021.2.3,59.95009753875208,
259.75,260.0,41,0.0,Stimuli/Blank.png,0,0,0.0,0,114,114,114,,,,,,,,,,,,,259.76219649999985,0.0121964999998454,None,298.17756230000305,298.17756230000305,298.17756230000305,298.17756230000305,298.17756230000305,298.17756230000305,298.17756230000305,298.17756230000305,298.17756230000305,298.17756230000305,,001,P015,2025_Feb_28_1750,ConditionRich,2021.2.3,59.95009753875208,
260.0,263.75,28,0.75,Stimuli/P015/things_latte_08s.jpg,1,0,0.75,0,115,115,115,,,,,,,,,,,,,260.01212320000195,0.012123200001951773,1,298.4277774000002,298.4277774000002,298.4277774000002,298.4277774000002,298.4277774000002,298.4277774000002,298.4277774000002,299.161773900003,298.4277774000002,298.4277774000002,0.6777918000007048,001,P015,2025_Feb_28_1750,ConditionRich,2021.2.3,59.95009753875208,
263.75,264.0,41,0.0,Stimuli/Blank.png,0,0,0.0,0,116,116,116,,,,,,,,,,,,,263.7657074000017,0.0157074000017019,None,302.18108610000127,302.18108610000127,302.18108610000127,302.18108610000127,302.18108610000127,302.18108610000127,302.18108610000127,302.18108610000127,302.18108610000127,302.18108610000127,,001,P015,2025_Feb_28_1750,ConditionRich,2021.2.3,59.95009753875208,
264.0,267.75,31,0.75,Stimuli/P015/things_outlet_08s.jpg,1,1,1.75,0,117,117,117,,,,,,,,,,,,,264.00070020000203,0.0007002000020293053,1,302.4313156999997,302.4313156999997,302.4313156999997,302.4313156999997,302.4313156999997,302.4313156999997,303.4155223000016,304.1661888000017,302.4313156999997,302.4313156999997,1.457280599999649,001,P015,2025_Feb_28_1750,ConditionRich,2021.2.3,59.95009753875208,
267.75,268.0,41,0.0,Stimuli/Blank.png,0,0,0.0,0,118,118,118,,,,,,,,,,,,,267.7699214000022,0.019921400002203882,None,306.2013463000003,306.2013463000003,306.2013463000003,306.2013463000003,306.2013463000003,306.2013463000003,306.2013463000003,306.2013463000003,306.2013463000003,306.2013463000003,,001,P015,2025_Feb_28_1750,ConditionRich,2021.2.3,59.95009753875208,
268.0,271.75,24,0.75,Stimuli/P015/things_bunkbed_08s.jpg,0,0,0.0,0,119,119,119,,,,,,,,,,,,,268.01987460000237,0.019874600002367515,None,306.4348701000017,306.4348701000017,306.4348701000017,306.4348701000017,306.4348701000017,306.4348701000017,306.4348701000017,306.4348701000017,306.4348701000017,306.4348701000017,,001,P015,2025_Feb_28_1750,ConditionRich,2021.2.3,59.95009753875208,
271.75,272.0,41,0.0,Stimuli/Blank.png,0,0,0.0,0,120,120,120,,,,,,,,,,,,,271.7557904000023,0.005790400002297247,None,310.1715058000009,310.1715058000009,310.1715058000009,310.1715058000009,310.1715058000009,310.1715058000009,310.1715058000009,310.1715058000009,310.1715058000009,310.1715058000009,,001,P015,2025_Feb_28_1750,ConditionRich,2021.2.3,59.95009753875208,
272.0,275.75,26,0.75,Stimuli/P015/things_face_08s.jpg,0,0,0.0,0,121,121,121,,,,,,,,,,,,,272.0056564000006,0.005656400000589201,None,310.4217290000015,310.4217290000015,310.4217290000015,310.4217290000015,310.4217290000015,310.4217290000015,310.4217290000015,310.4217290000015,310.4217290000015,310.4217290000015,,001,P015,2025_Feb_28_1750,ConditionRich,2021.2.3,59.95009753875208,
275.75,276.0,41,0.0,Stimuli/Blank.png,0,0,0.0,0,122,122,122,,,,,,,,,,,,,275.75917069999923,0.009170699999231147,None,314.17505280000114,314.17505280000114,314.17505280000114,314.17505280000114,314.17505280000114,314.17505280000114,314.17505280000114,314.17505280000114,314.17505280000114,314.17505280000114,,001,P015,2025_Feb_28_1750,ConditionRich,2021.2.3,59.95009753875208,
276.0,292.0,0,0.0,Stimuli/Blank.png,1,11,11.75,0,123,123,123,,,,,,,,,,,,,276.00958620000165,0.009586200001649559,1,314.4252665000022,314.4252665000022,314.4252665000022,314.4252665000022,314.4252665000022,314.4252665000022,325.4183641000018,326.16899120000016,314.4252665000022,314.4252665000022,11.577434800001356,001,P015,2025_Feb_28_1750,ConditionRich,2021.2.3,59.95009753875208,
292.0,295.75,12,0.75,Stimuli/P015/sun_boffixsnbbloarty.jpg,0,0,0.0,0,124,124,124,,,,,,,,,,,,,292.009571999999,0.009571999999025138,None,330.4394463000026,330.4394463000026,330.4394463000026,330.4394463000026,330.4394463000026,330.4394463000026,330.4394463000026,330.4394463000026,330.4394463000026,330.4394463000026,,001,P015,2025_Feb_28_1750,ConditionRich,2021.2.3,59.95009753875208,
295.75,296.0,41,0.0,Stimuli/Blank.png,0,0,0.0,0,125,125,125,,,,,,,,,,,,,295.78019549999954,0.03019549999953597,None,334.2094504000015,334.2094504000015,334.2094504000015,334.2094504000015,334.2094504000015,334.2094504000015,334.2094504000015,334.2094504000015,334.2094504000015,334.2094504000015,,001,P015,2025_Feb_28_1750,ConditionRich,2021.2.3,59.95009753875208,
296.0,299.75,11,0.75,Stimuli/P015/sun_bnwmcjuinqbdsbho.jpg,0,0,0.0,0,126,126,126,,,,,,,,,,,,,296.028961,0.02896099999998114,None,334.45967999999993,334.45967999999993,334.45967999999993,334.45967999999993,334.45967999999993,334.45967999999993,334.45967999999993,334.45967999999993,334.45967999999993,334.45967999999993,,001,P015,2025_Feb_28_1750,ConditionRich,2021.2.3,59.95009753875208,
299.75,300.0,41,0.0,Stimuli/Blank.png,0,0,0.0,0,127,127,127,,,,,,,,,,,,,299.7808609999993,0.030860999999276828,None,338.19632790000105,338.19632790000105,338.19632790000105,338.19632790000105,338.19632790000105,338.19632790000105,338.19632790000105,338.19632790000105,338.19632790000105,338.19632790000105,,001,P015,2025_Feb_28_1750,ConditionRich,2021.2.3,59.95009753875208,
300.0,303.75,13,0.75,Stimuli/P015/sun_bphvjnowixlryxot.jpg,1,0,0.75,0,128,128,128,,,,,,,,,,,,,300.01475850000134,0.014758500001335051,1,338.44652549999955,338.44652549999955,338.44652549999955,338.44652549999955,338.44652549999955,338.44652549999955,338.44652549999955,339.1804953000028,338.44652549999955,338.44652549999955,0.5681304999998247,001,P015,2025_Feb_28_1750,ConditionRich,2021.2.3,59.95009753875208,
303.75,304.0,41,0.0,Stimuli/Blank.png,0,0,0.0,0,129,129,129,,,,,,,,,,,,,303.76845400000093,0.018454000000929227,None,342.1831759000015,342.1831759000015,342.1831759000015,342.1831759000015,342.1831759000015,342.1831759000015,342.1831759000015,342.1831759000015,342.1831759000015,342.1831759000015,,001,P015,2025_Feb_28_1750,ConditionRich,2021.2.3,59.95009753875208,
304.0,307.75,38,0.75,Stimuli/P015/things_trumpet_08s.jpg,1,3,3.75,0,130,130,130,,,,,,,,,,,,,304.00164199999926,0.0016419999992649537,1,342.4334005000019,342.4334005000019,342.4334005000019,342.4334005000019,342.4334005000019,342.4334005000019,345.40267909999966,346.15332970000236,342.4334005000019,342.4334005000019,3.49422549999872,001,P015,2025_Feb_28_1750,ConditionRich,2021.2.3,59.95009753875208,
307.75,308.0,41,0.0,Stimuli/Blank.png,0,0,0.0,0,131,131,131,,,,,,,,,,,,,307.7707154000018,0.02071540000179084,None,346.1866983,346.1866983,346.1866983,346.1866983,346.1866983,346.1866983,346.1866983,346.1866983,346.1866983,346.1866983,,001,P015,2025_Feb_28_1750,ConditionRich,2021.2.3,59.95009753875208,
308.0,311.75,25,0.75,Stimuli/P015/things_deer_08s.jpg,0,0,0.0,0,132,132,132,,,,,,,,,,,,,308.0071061999988,0.00710619999881601,None,346.4369289999995,346.4369289999995,346.4369289999995,346.4369289999995,346.4369289999995,346.4369289999995,346.4369289999995,346.4369289999995,346.4369289999995,346.4369289999995,,001,P015,2025_Feb_28_1750,ConditionRich,2021.2.3,59.95009753875208,
311.75,312.0,41,0.0,Stimuli/Blank.png,0,0,0.0,0,133,133,133,,,,,,,,,,,,,311.77413760000127,0.024137600001267856,None,350.1902439000005,350.1902439000005,350.1902439000005,350.1902439000005,350.1902439000005,350.1902439000005,350.1902439000005,350.1902439000005,350.1902439000005,350.1902439000005,,001,P015,2025_Feb_28_1750,ConditionRich,2021.2.3,59.95009753875208,
312.0,315.75,21,0.75,Stimuli/P015/things_arch_08s.jpg,0,0,0.0,0,134,134,134,,,,,,,,,,,,,312.00770380000176,0.007703800001763739,None,350.4237858000015,350.4237858000015,350.4237858000015,350.4237858000015,350.4237858000015,350.4237858000015,350.4237858000015,350.4237858000015,350.4237858000015,350.4237858000015,,001,P015,2025_Feb_28_1750,ConditionRich,2021.2.3,59.95009753875208,
315.75,316.0,41,0.0,Stimuli/Blank.png,0,0,0.0,0,135,135,135,,,,,,,,,,,,,315.7616808999992,0.011680899999191752,None,354.177176600002,354.177176600002,354.177176600002,354.177176600002,354.177176600002,354.177176600002,354.177176600002,354.177176600002,354.177176600002,354.177176600002,,001,P015,2025_Feb_28_1750,ConditionRich,2021.2.3,59.95009753875208,
316.0,319.75,33,0.75,Stimuli/P015/things_raccoon_08n.jpg,0,0,0.0,0,136,136,136,,,,,,,,,,,,,316.01177480000115,0.011774800001148833,None,354.44403880000027,354.44403880000027,354.44403880000027,354.44403880000027,354.44403880000027,354.44403880000027,354.44403880000027,354.44403880000027,354.44403880000027,354.44403880000027,,001,P015,2025_Feb_28_1750,ConditionRich,2021.2.3,59.95009753875208,
319.75,320.0,41,0.0,Stimuli/Blank.png,0,0,0.0,0,137,137,137,,,,,,,,,,,,,319.78136200000154,0.03136200000153622,None,358.19733500000075,358.19733500000075,358.19733500000075,358.19733500000075,358.19733500000075,358.19733500000075,358.19733500000075,358.19733500000075,358.19733500000075,358.19733500000075,,001,P015,2025_Feb_28_1750,ConditionRich,2021.2.3,59.95009753875208,
320.0,323.75,17,0.75,Stimuli/P015/sun_bxhbltvqnpaciuzt.jpg,0,0,0.0,0,138,138,138,,,,,,,,,,,,,320.015532100002,0.015532100002019433,None,358.4475816000013,358.4475816000013,358.4475816000013,358.4475816000013,358.4475816000013,358.4475816000013,358.4475816000013,358.4475816000013,358.4475816000013,358.4475816000013,,001,P015,2025_Feb_28_1750,ConditionRich,2021.2.3,59.95009753875208,
323.75,324.0,41,0.0,Stimuli/Blank.png,0,0,0.0,0,139,139,139,,,,,,,,,,,,,323.7688433000003,0.01884330000029877,None,362.18418270000257,362.18418270000257,362.18418270000257,362.18418270000257,362.18418270000257,362.18418270000257,362.18418270000257,362.18418270000257,362.18418270000257,362.18418270000257,,001,P015,2025_Feb_28_1750,ConditionRich,2021.2.3,59.95009753875208,
324.0,327.75,40,0.75,Stimuli/P015/things_woman_08s.jpg,0,0,0.0,0,140,140,140,,,,,,,,,,,,,324.00181599999996,0.0018159999999625143,None,362.4177348000012,362.4177348000012,362.4177348000012,362.4177348000012,362.4177348000012,362.4177348000012,362.4177348000012,362.4177348000012,362.4177348000012,362.4177348000012,,001,P015,2025_Feb_28_1750,ConditionRich,2021.2.3,59.95009753875208,
327.75,328.0,41,0.0,Stimuli/Blank.png,0,0,0.0,0,141,141,141,,,,,,,,,,,,,327.75665070000105,0.0066507000010460615,None,366.1877464999998,366.1877464999998,366.1877464999998,366.1877464999998,366.1877464999998,366.1877464999998,366.1877464999998,366.1877464999998,366.1877464999998,366.1877464999998,,001,P015,2025_Feb_28_1750,ConditionRich,2021.2.3,59.95009753875208,
328.0,331.75,30,0.75,Stimuli/P015/things_ottoman_08s.jpg,0,0,0.0,0,142,142,142,,,,,,,,,,,,,328.02295610000147,0.02295610000146553,None,366.4546405000001,366.4546405000001,366.4546405000001,366.4546405000001,366.4546405000001,366.4546405000001,366.4546405000001,366.4546405000001,366.4546405000001,366.4546405000001,,001,P015,2025_Feb_28_1750,ConditionRich,2021.2.3,59.95009753875208,
331.75,332.0,41,0.0,Stimuli/Blank.png,0,0,0.0,0,143,143,143,,,,,,,,,,,,,331.77601649999997,0.0260164999999688,None,370.2079883000006,370.2079883000006,370.2079883000006,370.2079883000006,370.2079883000006,370.2079883000006,370.2079883000006,370.2079883000006,370.2079883000006,370.2079883000006,,001,P015,2025_Feb_28_1750,ConditionRich,2021.2.3,59.95009753875208,
332.0,335.75,5,0.75,Stimuli/P015/sun_ajgmxbrxdpmsaext.jpg,0,0,0.0,0,144,144,144,,,,,,,,,,,,,332.0259592000002,0.025959200000215787,None,370.4581909000008,370.4581909000008,370.4581909000008,370.4581909000008,370.4581909000008,370.4581909000008,370.4581909000008,370.4581909000008,370.4581909000008,370.4581909000008,,001,P015,2025_Feb_28_1750,ConditionRich,2021.2.3,59.95009753875208,
335.75,336.0,41,0.0,Stimuli/Blank.png,0,0,0.0,0,145,145,145,,,,,,,,,,,,,335.77946240000165,0.029462400001648348,None,374.1948207000023,374.1948207000023,374.1948207000023,374.1948207000023,374.1948207000023,374.1948207000023,374.1948207000023,374.1948207000023,374.1948207000023,374.1948207000023,,001,P015,2025_Feb_28_1750,ConditionRich,2021.2.3,59.95009753875208,
336.0,339.75,23,0.75,Stimuli/P015/things_boy_08s.jpg,0,0,0.0,0,146,146,146,,,,,,,,,,,,,336.0131432999988,0.013143299998773728,None,374.44505140000183,374.44505140000183,374.44505140000183,374.44505140000183,374.44505140000183,374.44505140000183,374.44505140000183,374.44505140000183,374.44505140000183,374.44505140000183,,001,P015,2025_Feb_28_1750,ConditionRich,2021.2.3,59.95009753875208,
339.75,340.0,41,0.0,Stimuli/Blank.png,0,0,0.0,0,147,147,147,,,,,,,,,,,,,339.76582450000205,0.015824500002054265,None,378.18168210000294,378.18168210000294,378.18168210000294,378.18168210000294,378.18168210000294,378.18168210000294,378.18168210000294,378.18168210000294,378.18168210000294,378.18168210000294,,001,P015,2025_Feb_28_1750,ConditionRich,2021.2.3,59.95009753875208,
340.0,343.75,16,0.75,Stimuli/P015/sun_bwhuwxazfqwuqhik.jpg,0,0,0.0,0,148,148,148,,,,,,,,,,,,,340.00019950000205,0.00019950000205426477,None,378.41521769999963,378.41521769999963,378.41521769999963,378.41521769999963,378.41521769999963,378.41521769999963,378.41521769999963,378.41521769999963,378.41521769999963,378.41521769999963,,001,P015,2025_Feb_28_1750,ConditionRich,2021.2.3,59.95009753875208,
343.75,344.0,41,0.0,Stimuli/Blank.png,0,0,0.0,0,149,149,149,,,,,,,,,,,,,343.7532123000019,0.0032123000019055326,None,382.1685424999996,382.1685424999996,382.1685424999996,382.1685424999996,382.1685424999996,382.1685424999996,382.1685424999996,382.1685424999996,382.1685424999996,382.1685424999996,,001,P015,2025_Feb_28_1750,ConditionRich,2021.2.3,59.95009753875208,
344.0,347.75,36,0.75,Stimuli/P015/things_streetlight_08s.jpg,1,0,0.75,0,150,150,150,,,,,,,,,,,,,344.0029543000019,0.002954300001874799,1,382.4187603999999,382.4187603999999,382.4187603999999,382.4187603999999,382.4187603999999,382.4187603999999,382.4187603999999,383.1527378000028,382.4187603999999,382.4187603999999,0.636012999999366,001,P015,2025_Feb_28_1750,ConditionRich,2021.2.3,59.95009753875208,
347.75,348.0,41,0.0,Stimuli/Blank.png,0,0,0.0,0,151,151,151,,,,,,,,,,,,,347.757794000001,0.007794000001013046,None,386.17210230000273,386.17210230000273,386.17210230000273,386.17210230000273,386.17210230000273,386.17210230000273,386.17210230000273,386.17210230000273,386.17210230000273,386.17210230000273,,001,P015,2025_Feb_28_1750,ConditionRich,2021.2.3,59.95009753875208,
348.0,351.75,37,0.75,Stimuli/P015/things_swizzle_stick_08s.jpg,1,3,3.75,0,152,152,152,,,,,,,,,,,,,348.0069312000014,0.006931200001417892,1,386.4223325000021,386.4223325000021,386.4223325000021,386.4223325000021,386.4223325000021,386.4223325000021,389.4089254999999,390.15893850000066,386.4223325000021,386.4223325000021,3.6163728999999876,001,P015,2025_Feb_28_1750,ConditionRich,2021.2.3,59.95009753875208,
351.75,352.0,41,0.0,Stimuli/Blank.png,0,0,0.0,0,153,153,153,,,,,,,,,,,,,351.762295200002,0.012295200001972262,None,390.1923418000006,390.1923418000006,390.1923418000006,390.1923418000006,390.1923418000006,390.1923418000006,390.1923418000006,390.1923418000006,390.1923418000006,390.1923418000006,,001,P015,2025_Feb_28_1750,ConditionRich,2021.2.3,59.95009753875208,
352.0,355.75,3,0.75,Stimuli/P015/sun_aiogwnavezqxkzfg.jpg,1,2,2.75,0,154,154,154,,,,,,,,,,,,,352.0272212000018,0.02722120000180439,1,390.4425609000027,390.4425609000027,390.4425609000027,390.4425609000027,390.4425609000027,390.4425609000027,392.42763399999967,393.17827990000296,390.4425609000027,390.4425609000027,2.477149400001508,001,P015,2025_Feb_28_1750,ConditionRich,2021.2.3,59.95009753875208,
355.75,356.0,41,0.0,Stimuli/Blank.png,0,0,0.0,0,155,155,155,,,,,,,,,,,,,355.763865500001,0.013865500000974862,None,394.1791738000029,394.1791738000029,394.1791738000029,394.1791738000029,394.1791738000029,394.1791738000029,394.1791738000029,394.1791738000029,394.1791738000029,394.1791738000029,,001,P015,2025_Feb_28_1750,ConditionRich,2021.2.3,59.95009753875208,
356.0,359.75,14,0.75,Stimuli/P015/sun_bpvmkbyglkraoxhh.jpg,0,0,0.0,0,156,156,156,,,,,,,,,,,,,356.0134352000023,0.01343520000227727,None,394.42939079999996,394.42939079999996,394.42939079999996,394.42939079999996,394.42939079999996,394.42939079999996,394.42939079999996,394.42939079999996,394.42939079999996,394.42939079999996,,001,P015,2025_Feb_28_1750,ConditionRich,2021.2.3,59.95009753875208,
359.75,360.0,41,0.0,Stimuli/Blank.png,0,0,0.0,0,157,157,157,,,,,,,,,,,,,359.75251290000233,0.002512900002329843,None,398.1827250000024,398.1827250000024,398.1827250000024,398.1827250000024,398.1827250000024,398.1827250000024,398.1827250000024,398.1827250000024,398.1827250000024,398.1827250000024,,001,P015,2025_Feb_28_1750,ConditionRich,2021.2.3,59.95009753875208,
360.0,363.75,35,0.75,Stimuli/P015/things_squid_08s.jpg,0,0,0.0,0,158,158,158,,,,,,,,,,,,,360.01748840000073,0.017488400000729598,None,398.4329418000016,398.4329418000016,398.4329418000016,398.4329418000016,398.4329418000016,398.4329418000016,398.4329418000016,398.4329418000016,398.4329418000016,398.4329418000016,,001,P015,2025_Feb_28_1750,ConditionRich,2021.2.3,59.95009753875208,
363.75,364.0,41,0.0,Stimuli/Blank.png,0,0,0.0,0,159,159,159,,,,,,,,,,,,,363.7542472999994,0.004247299999406096,None,402.1696230000016,402.1696230000016,402.1696230000016,402.1696230000016,402.1696230000016,402.1696230000016,402.1696230000016,402.1696230000016,402.1696230000016,402.1696230000016,,001,P015,2025_Feb_28_1750,ConditionRich,2021.2.3,59.95009753875208,
364.0,367.75,6,0.75,Stimuli/P015/sun_akecfasimgpbqcnt.jpg,0,0,0.0,0,160,160,160,,,,,,,,,,,,,364.0055761000003,0.005576100000325823,None,402.43648530000064,402.43648530000064,402.43648530000064,402.43648530000064,402.43648530000064,402.43648530000064,402.43648530000064,402.43648530000064,402.43648530000064,402.43648530000064,,001,P015,2025_Feb_28_1750,ConditionRich,2021.2.3,59.95009753875208,
367.75,368.0,41,0.0,Stimuli/Blank.png,0,0,0.0,0,161,161,161,,,,,,,,,,,,,367.7746307000016,0.024630700001580408,None,406.18987990000096,406.18987990000096,406.18987990000096,406.18987990000096,406.18987990000096,406.18987990000096,406.18987990000096,406.18987990000096,406.18987990000096,406.18987990000096,,001,P015,2025_Feb_28_1750,ConditionRich,2021.2.3,59.95009753875208,
368.0,371.75,19,0.75,Stimuli/P015/sun_bzhwvgrzvttqoexa.jpg,0,0,0.0,0,162,162,162,,,,,,,,,,,,,368.0078299000015,0.007829900001524948,None,406.42334649999975,406.42334649999975,406.42334649999975,406.42334649999975,406.42334649999975,406.42334649999975,406.42334649999975,406.42334649999975,406.42334649999975,406.42334649999975,,001,P015,2025_Feb_28_1750,ConditionRich,2021.2.3,59.95009753875208,
371.75,372.0,41,0.0,Stimuli/Blank.png,0,0,0.0,0,163,163,163,,,,,,,,,,,,,371.76303090000147,0.013030900001467671,None,410.19335820000197,410.19335820000197,410.19335820000197,410.19335820000197,410.19335820000197,410.19335820000197,410.19335820000197,410.19335820000197,410.19335820000197,410.19335820000197,,001,P015,2025_Feb_28_1750,ConditionRich,2021.2.3,59.95009753875208,
372.0,388.0,0,0.0,Stimuli/Blank.png,1,10,10.75,0,164,164,164,,,,,,,,,,,,,372.02760839999974,0.02760839999973541,1,410.4435747999996,410.4435747999996,410.4435747999996,410.4435747999996,410.4435747999996,410.4435747999996,420.41906870000093,421.1697660000027,410.4435747999996,410.4435747999996,10.54215540000223,001,P015,2025_Feb_28_1750,ConditionRich,2021.2.3,59.95009753875208,
