eventStartTime,eventEndTime,eventCond,imSize,imFile,responseEvent,fixRespStart,fixRespEnd,Events.thisRepN,Events.thisTrialN,Events.thisN,Events.thisIndex,Instructions.started,Instructions.stopped,participantReadyResponse.keys,participantReadyResponse.rt,participantReadyResponse.started,participantReadyResponse.stopped,startWaitforTrigger,triggerResponse.keys,triggerResponse.rt,triggerResponse.started,triggerResponse.stopped,globalTimer,actualStartTime,startTimingDiff,participantResponse.keys,participantResponse.started,participantResponse.stopped,image.started,image.stopped,fixationOutside.started,fixationOutside.stopped,fixationResponse.started,fixationResponse.stopped,fixationInside.started,fixationInside.stopped,participantResponse.rt,session,participant,date,expName,psychopyVersion,frameRate,
,,,,,,,,,,,,11.469270999998116,None,1,9.14904480000041,11.469270999998116,None,,,,,,,,,,,,,,,,,,,,,002,P015,2025_Feb_28_1757,ConditionRich,2021.2.3,59.90470359672648,
,,,,,,,,,,,,,,,,,,20.630645499997627,5,12.947215100000903,20.643164799999795,None,,,,,,,,,,,,,,,,002,P015,2025_Feb_28_1757,ConditionRich,2021.2.3,59.90470359672648,
0.0,4.0,0,0.0,Stimuli/Blank.png,0,0.0,0.0,0,0,0,0,,,,,,,,,,,,33.60699929999828,0.016237799998634728,0.016237799998634728,None,33.637981100000616,None,33.637981100000616,None,33.637981100000616,None,33.637981100000616,33.637981100000616,33.637981100000616,None,,002,P015,2025_Feb_28_1757,ConditionRich,2021.2.3,59.90470359672648,
4.0,4.75,29,0.75,Stimuli/P015/things_mouse1_08s.jpg,0,0.0,0.0,0,1,1,1,,,,,,,,,,,,,4.004037499998958,0.004037499998958083,None,37.62514159999773,37.62514159999773,37.62514159999773,37.62514159999773,37.62514159999773,37.62514159999773,37.62514159999773,37.62514159999773,37.62514159999773,37.62514159999773,,002,P015,2025_Feb_28_1757,ConditionRich,2021.2.3,59.90470359672648,
4.75,8.0,41,0.0,Stimuli/Blank.png,0,0.0,0.0,0,2,2,2,,,,,,,,,,,,,4.7540024000009,0.004002400000899797,None,38.37576840000111,38.37576840000111,38.37576840000111,38.37576840000111,38.37576840000111,38.37576840000111,38.37576840000111,38.37576840000111,38.37576840000111,38.37576840000111,,002,P015,2025_Feb_28_1757,ConditionRich,2021.2.3,59.90470359672648,
8.0,8.75,30,0.75,Stimuli/P015/things_ottoman_08s.jpg,0,0.0,0.0,0,3,3,3,,,,,,,,,,,,,8.009240299998055,0.00924029999805498,None,41.64507859999867,41.64507859999867,41.64507859999867,41.64507859999867,41.64507859999867,41.64507859999867,41.64507859999867,41.64507859999867,41.64507859999867,41.64507859999867,,002,P015,2025_Feb_28_1757,ConditionRich,2021.2.3,59.90470359672648,
8.75,12.0,41,0.0,Stimuli/Blank.png,0,0.0,0.0,0,4,4,4,,,,,,,,,,,,,8.775001099998917,0.025001099998917198,None,42.39573440000095,42.39573440000095,42.39573440000095,42.39573440000095,42.39573440000095,42.39573440000095,42.39573440000095,42.39573440000095,42.39573440000095,42.39573440000095,,002,P015,2025_Feb_28_1757,ConditionRich,2021.2.3,59.90470359672648,
12.0,12.75,25,0.75,Stimuli/P015/things_deer_08s.jpg,1,0.0,0.75,0,5,5,5,,,,,,,,,,,,,12.010831999999937,0.01083199999993667,1,45.648624599998584,45.648624599998584,45.648624599998584,45.648624599998584,45.648624599998584,45.648624599998584,45.648624599998584,46.365952899999684,45.648624599998584,45.648624599998584,0.49960230000215233,002,P015,2025_Feb_28_1757,ConditionRich,2021.2.3,59.90470359672648,
12.75,16.0,41,0.0,Stimuli/Blank.png,0,0.0,0.0,0,6,6,6,,,,,,,,,,,,,12.778453899998567,0.028453899998567067,None,46.39928619999773,46.39928619999773,46.39928619999773,46.39928619999773,46.39928619999773,46.39928619999773,46.39928619999773,46.39928619999773,46.39928619999773,46.39928619999773,,002,P015,2025_Feb_28_1757,ConditionRich,2021.2.3,59.90470359672648,
16.0,16.75,28,0.75,Stimuli/P015/things_latte_08s.jpg,0,0.0,0.0,0,7,7,7,,,,,,,,,,,,,16.016651800000545,0.016651800000545336,None,49.65216610000061,49.65216610000061,49.65216610000061,49.65216610000061,49.65216610000061,49.65216610000061,49.65216610000061,49.65216610000061,49.65216610000061,49.65216610000061,,002,P015,2025_Feb_28_1757,ConditionRich,2021.2.3,59.90470359672648,
16.75,20.0,41,0.0,Stimuli/Blank.png,0,0.0,0.0,0,8,8,8,,,,,,,,,,,,,16.764551699998265,0.014551699998264667,None,50.386136900000565,50.386136900000565,50.386136900000565,50.386136900000565,50.386136900000565,50.386136900000565,50.386136900000565,50.386136900000565,50.386136900000565,50.386136900000565,,002,P015,2025_Feb_28_1757,ConditionRich,2021.2.3,59.90470359672648,
20.0,20.75,2,0.75,Stimuli/P015/sun_agzfkftryitnqpxc.jpg,0,0.0,0.0,0,9,9,9,,,,,,,,,,,,,20.0017368000008,0.0017368000007991213,None,53.62233130000095,53.62233130000095,53.62233130000095,53.62233130000095,53.62233130000095,53.62233130000095,53.62233130000095,53.62233130000095,53.62233130000095,53.62233130000095,,002,P015,2025_Feb_28_1757,ConditionRich,2021.2.3,59.90470359672648,
20.75,24.0,41,0.0,Stimuli/Blank.png,0,0.0,0.0,0,10,10,10,,,,,,,,,,,,,20.752223999999842,0.002223999999841908,None,54.372988299997814,54.372988299997814,54.372988299997814,54.372988299997814,54.372988299997814,54.372988299997814,54.372988299997814,54.372988299997814,54.372988299997814,54.372988299997814,,002,P015,2025_Feb_28_1757,ConditionRich,2021.2.3,59.90470359672648,
24.0,24.75,14,0.75,Stimuli/P015/sun_bpvmkbyglkraoxhh.jpg,1,0.0,0.75,0,11,11,11,,,,,,,,,,,,,24.004522899998847,0.004522899998846697,1,57.62587639999765,57.62587639999765,57.62587639999765,57.62587639999765,57.62587639999765,57.62587639999765,57.62587639999765,58.35987849999947,57.62587639999765,57.62587639999765,0.5165639000006195,002,P015,2025_Feb_28_1757,ConditionRich,2021.2.3,59.90470359672648,
24.75,28.0,41,0.0,Stimuli/Blank.png,0,0.0,0.0,0,12,12,12,,,,,,,,,,,,,24.755720099998143,0.005720099998143269,None,58.376542199999676,58.376542199999676,58.376542199999676,58.376542199999676,58.376542199999676,58.376542199999676,58.376542199999676,58.376542199999676,58.376542199999676,58.376542199999676,,002,P015,2025_Feb_28_1757,ConditionRich,2021.2.3,59.90470359672648,
28.0,28.75,8,0.75,Stimuli/P015/sun_arldxotvfucvuudk.jpg,0,0.0,0.0,0,13,13,13,,,,,,,,,,,,,28.008311099998537,0.00831109999853652,None,61.629425200000696,61.629425200000696,61.629425200000696,61.629425200000696,61.629425200000696,61.629425200000696,61.629425200000696,61.629425200000696,61.629425200000696,61.629425200000696,,002,P015,2025_Feb_28_1757,ConditionRich,2021.2.3,59.90470359672648,
28.75,32.0,41,0.0,Stimuli/Blank.png,0,0.0,0.0,0,14,14,14,,,,,,,,,,,,,28.75849300000118,0.008493000001180917,None,62.38008400000035,62.38008400000035,62.38008400000035,62.38008400000035,62.38008400000035,62.38008400000035,62.38008400000035,62.38008400000035,62.38008400000035,62.38008400000035,,002,P015,2025_Feb_28_1757,ConditionRich,2021.2.3,59.90470359672648,
32.0,32.75,35,0.75,Stimuli/P015/things_squid_08s.jpg,0,0.0,0.0,0,15,15,15,,,,,,,,,,,,,32.012223800000356,0.012223800000356277,None,65.63297030000103,65.63297030000103,65.63297030000103,65.63297030000103,65.63297030000103,65.63297030000103,65.63297030000103,65.63297030000103,65.63297030000103,65.63297030000103,,002,P015,2025_Feb_28_1757,ConditionRich,2021.2.3,59.90470359672648,
32.75,36.0,41,0.0,Stimuli/Blank.png,0,0.0,0.0,0,16,16,16,,,,,,,,,,,,,32.76198300000033,0.011983000000327593,None,66.38362820000111,66.38362820000111,66.38362820000111,66.38362820000111,66.38362820000111,66.38362820000111,66.38362820000111,66.38362820000111,66.38362820000111,66.38362820000111,,002,P015,2025_Feb_28_1757,ConditionRich,2021.2.3,59.90470359672648,
36.0,36.75,27,0.75,Stimuli/P015/things_girl_08s.jpg,1,0.0,0.75,0,17,17,17,,,,,,,,,,,,,36.017543099998875,0.017543099998874823,1,69.65319649999947,69.65319649999947,69.65319649999947,69.65319649999947,69.65319649999947,69.65319649999947,69.65319649999947,None,69.65319649999947,69.65319649999947,0.5132562999970105,002,P015,2025_Feb_28_1757,ConditionRich,2021.2.3,59.90470359672648,
36.75,40.0,41,0.0,Stimuli/Blank.png,0,0.0,0.0,0,18,18,18,,,,,,,,,,,,,36.768993099998625,0.01899309999862453,None,70.40387099999862,70.40387099999862,70.40387099999862,70.40387099999862,70.40387099999862,70.40387099999862,70.40387099999862,70.40387099999862,70.40387099999862,70.40387099999862,,002,P015,2025_Feb_28_1757,ConditionRich,2021.2.3,59.90470359672648,
40.0,40.75,17,0.75,Stimuli/P015/sun_bxhbltvqnpaciuzt.jpg,0,0.0,0.0,0,19,19,19,,,,,,,,,,,,,40.01859820000027,0.01859820000026957,None,73.64004840000052,73.64004840000052,73.64004840000052,73.64004840000052,73.64004840000052,73.64004840000052,73.64004840000052,73.64004840000052,73.64004840000052,73.64004840000052,,002,P015,2025_Feb_28_1757,ConditionRich,2021.2.3,59.90470359672648,
40.75,44.0,41,0.0,Stimuli/Blank.png,0,0.0,0.0,0,20,20,20,,,,,,,,,,,,,40.75271380000049,0.0027138000004924834,None,74.37403300000005,74.37403300000005,74.37403300000005,74.37403300000005,74.37403300000005,74.37403300000005,74.37403300000005,74.37403300000005,74.37403300000005,74.37403300000005,,002,P015,2025_Feb_28_1757,ConditionRich,2021.2.3,59.90470359672648,
44.0,44.75,12,0.75,Stimuli/P015/sun_boffixsnbbloarty.jpg,0,0.0,0.0,0,21,21,21,,,,,,,,,,,,,44.006414100000256,0.00641410000025644,None,77.64359649999824,77.64359649999824,77.64359649999824,77.64359649999824,77.64359649999824,77.64359649999824,77.64359649999824,77.64359649999824,77.64359649999824,77.64359649999824,,002,P015,2025_Feb_28_1757,ConditionRich,2021.2.3,59.90470359672648,
44.75,48.0,41,0.0,Stimuli/Blank.png,0,0.0,0.0,0,22,22,22,,,,,,,,,,,,,44.77275269999882,0.02275269999881857,None,78.39425710000069,78.39425710000069,78.39425710000069,78.39425710000069,78.39425710000069,78.39425710000069,78.39425710000069,78.39425710000069,78.39425710000069,78.39425710000069,,002,P015,2025_Feb_28_1757,ConditionRich,2021.2.3,59.90470359672648,
48.0,48.75,23,0.75,Stimuli/P015/things_boy_08s.jpg,0,0.0,0.0,0,23,23,23,,,,,,,,,,,,,48.009665499997936,0.009665499997936422,None,81.64714430000095,81.64714430000095,81.64714430000095,81.64714430000095,81.64714430000095,81.64714430000095,81.64714430000095,81.64714430000095,81.64714430000095,81.64714430000095,,002,P015,2025_Feb_28_1757,ConditionRich,2021.2.3,59.90470359672648,
48.75,52.0,41,0.0,Stimuli/Blank.png,0,0.0,0.0,0,24,24,24,,,,,,,,,,,,,48.77649630000087,0.026496300000871997,None,82.39779849999832,82.39779849999832,82.39779849999832,82.39779849999832,82.39779849999832,82.39779849999832,82.39779849999832,82.39779849999832,82.39779849999832,82.39779849999832,,002,P015,2025_Feb_28_1757,ConditionRich,2021.2.3,59.90470359672648,
52.0,52.75,10,0.75,Stimuli/P015/sun_bfojpvrlsrtfyzio.jpg,0,0.0,0.0,0,25,25,25,,,,,,,,,,,,,52.01342730000033,0.013427300000330433,None,85.63399619999836,85.63399619999836,85.63399619999836,85.63399619999836,85.63399619999836,85.63399619999836,85.63399619999836,85.63399619999836,85.63399619999836,85.63399619999836,,002,P015,2025_Feb_28_1757,ConditionRich,2021.2.3,59.90470359672648,
52.75,56.0,41,0.0,Stimuli/Blank.png,0,0.0,0.0,0,26,26,26,,,,,,,,,,,,,52.76348449999932,0.013484499999321997,None,86.38465910000014,86.38465910000014,86.38465910000014,86.38465910000014,86.38465910000014,86.38465910000014,86.38465910000014,86.38465910000014,86.38465910000014,86.38465910000014,,002,P015,2025_Feb_28_1757,ConditionRich,2021.2.3,59.90470359672648,
56.0,56.75,32,0.75,Stimuli/P015/things_pheasant_08s.jpg,0,0.0,0.0,0,27,27,27,,,,,,,,,,,,,55.999725199999375,-0.000274800000624964,None,89.62085659999866,89.62085659999866,89.62085659999866,89.62085659999866,89.62085659999866,89.62085659999866,89.62085659999866,89.62085659999866,89.62085659999866,89.62085659999866,,002,P015,2025_Feb_28_1757,ConditionRich,2021.2.3,59.90470359672648,
56.75,60.0,41,0.0,Stimuli/Blank.png,1,1.25,2.0,0,28,28,28,,,,,,,,,,,,,56.749915299998975,-8.470000102533959e-05,1,90.37152480000077,90.37152480000077,90.37152480000077,90.37152480000077,90.37152480000077,90.37152480000077,91.60594090000086,92.35661369999798,90.37152480000077,90.37152480000077,1.6869203000023845,002,P015,2025_Feb_28_1757,ConditionRich,2021.2.3,59.90470359672648,
60.0,60.75,7,0.75,Stimuli/P015/sun_aqdfrmtvewaapuqs.jpg,0,0.0,0.0,0,29,29,29,,,,,,,,,,,,,60.00336740000057,0.003367400000570342,None,93.62439979999908,93.62439979999908,93.62439979999908,93.62439979999908,93.62439979999908,93.62439979999908,93.62439979999908,93.62439979999908,93.62439979999908,93.62439979999908,,002,P015,2025_Feb_28_1757,ConditionRich,2021.2.3,59.90470359672648,
60.75,64.0,41,0.0,Stimuli/Blank.png,0,0.0,0.0,0,30,30,30,,,,,,,,,,,,,60.75366919999942,0.003669199999421835,None,94.37506059999941,94.37506059999941,94.37506059999941,94.37506059999941,94.37506059999941,94.37506059999941,94.37506059999941,94.37506059999941,94.37506059999941,94.37506059999941,,002,P015,2025_Feb_28_1757,ConditionRich,2021.2.3,59.90470359672648,
64.0,64.75,26,0.75,Stimuli/P015/things_face_08s.jpg,0,0.0,0.0,0,31,31,31,,,,,,,,,,,,,64.00627249999889,0.006272499998885905,None,97.64464009999938,97.64464009999938,97.64464009999938,97.64464009999938,97.64464009999938,97.64464009999938,97.64464009999938,97.64464009999938,97.64464009999938,97.64464009999938,,002,P015,2025_Feb_28_1757,ConditionRich,2021.2.3,59.90470359672648,
64.75,68.0,41,0.0,Stimuli/Blank.png,0,0.0,0.0,0,32,32,32,,,,,,,,,,,,,64.77496120000069,0.024961200000689132,None,98.3952935999987,98.3952935999987,98.3952935999987,98.3952935999987,98.3952935999987,98.3952935999987,98.3952935999987,98.3952935999987,98.3952935999987,98.3952935999987,,002,P015,2025_Feb_28_1757,ConditionRich,2021.2.3,59.90470359672648,
68.0,68.75,3,0.75,Stimuli/P015/sun_aiogwnavezqxkzfg.jpg,0,0.0,0.0,0,33,33,33,,,,,,,,,,,,,68.0110984999992,0.011098499999206979,None,101.6481696999981,101.6481696999981,101.6481696999981,101.6481696999981,101.6481696999981,101.6481696999981,101.6481696999981,101.6481696999981,101.6481696999981,101.6481696999981,,002,P015,2025_Feb_28_1757,ConditionRich,2021.2.3,59.90470359672648,
68.75,72.0,41,0.0,Stimuli/Blank.png,0,0.0,0.0,0,34,34,34,,,,,,,,,,,,,68.7779311000013,0.027931100001296727,None,102.39890979999836,102.39890979999836,102.39890979999836,102.39890979999836,102.39890979999836,102.39890979999836,102.39890979999836,102.39890979999836,102.39890979999836,102.39890979999836,,002,P015,2025_Feb_28_1757,ConditionRich,2021.2.3,59.90470359672648,
72.0,72.75,16,0.75,Stimuli/P015/sun_bwhuwxazfqwuqhik.jpg,0,0.0,0.0,0,35,35,35,,,,,,,,,,,,,72.01357930000086,0.013579300000856165,None,105.63499489999958,105.63499489999958,105.63499489999958,105.63499489999958,105.63499489999958,105.63499489999958,105.63499489999958,105.63499489999958,105.63499489999958,105.63499489999958,,002,P015,2025_Feb_28_1757,ConditionRich,2021.2.3,59.90470359672648,
72.75,76.0,41,0.0,Stimuli/Blank.png,0,0.0,0.0,0,36,36,36,,,,,,,,,,,,,72.76563230000102,0.01563230000101612,None,106.3857108000011,106.3857108000011,106.3857108000011,106.3857108000011,106.3857108000011,106.3857108000011,106.3857108000011,106.3857108000011,106.3857108000011,106.3857108000011,,002,P015,2025_Feb_28_1757,ConditionRich,2021.2.3,59.90470359672648,
76.0,76.75,11,0.75,Stimuli/P015/sun_bnwmcjuinqbdsbho.jpg,0,0.0,0.0,0,37,37,37,,,,,,,,,,,,,76.00121170000057,0.0012117000005673617,None,109.62188210000022,109.62188210000022,109.62188210000022,109.62188210000022,109.62188210000022,109.62188210000022,109.62188210000022,109.62188210000022,109.62188210000022,109.62188210000022,,002,P015,2025_Feb_28_1757,ConditionRich,2021.2.3,59.90470359672648,
76.75,80.0,41,0.0,Stimuli/Blank.png,0,0.0,0.0,0,38,38,38,,,,,,,,,,,,,76.7517912000003,0.0017912000002979767,None,110.37254359999861,110.37254359999861,110.37254359999861,110.37254359999861,110.37254359999861,110.37254359999861,110.37254359999861,110.37254359999861,110.37254359999861,110.37254359999861,,002,P015,2025_Feb_28_1757,ConditionRich,2021.2.3,59.90470359672648,
80.0,80.75,6,0.75,Stimuli/P015/sun_akecfasimgpbqcnt.jpg,0,0.0,0.0,0,39,39,39,,,,,,,,,,,,,80.00472209999862,0.0047220999986166134,None,113.62543419999929,113.62543419999929,113.62543419999929,113.62543419999929,113.62543419999929,113.62543419999929,113.62543419999929,113.62543419999929,113.62543419999929,113.62543419999929,,002,P015,2025_Feb_28_1757,ConditionRich,2021.2.3,59.90470359672648,
80.75,84.0,41,0.0,Stimuli/Blank.png,1,0.25,1.0,0,40,40,40,,,,,,,,,,,,,80.75444079999943,0.004440799999429146,1,114.37609009999869,114.37609009999869,114.37609009999869,114.37609009999869,114.37609009999869,114.37609009999869,114.60967569999775,115.36031670000011,114.37609009999869,114.37609009999869,0.7632714999999735,002,P015,2025_Feb_28_1757,ConditionRich,2021.2.3,59.90470359672648,
84.0,100.0,0,0.0,Stimuli/Blank.png,1,1.0,1.75,0,41,41,41,,,,,,,,,,,,,84.00735150000037,0.007351500000368105,1,117.62896449999971,117.62896449999971,117.62896449999971,117.62896449999971,117.62896449999971,117.62896449999971,118.61317179999969,119.36387639999884,117.62896449999971,117.62896449999971,1.498543300000165,002,P015,2025_Feb_28_1757,ConditionRich,2021.2.3,59.90470359672648,
100.0,100.75,39,0.75,Stimuli/P015/things_window_08s.jpg,0,0.0,0.0,0,42,42,42,,,,,,,,,,,,,100.0057541999995,0.005754199999500997,None,133.62645730000077,133.62645730000077,133.62645730000077,133.62645730000077,133.62645730000077,133.62645730000077,133.62645730000077,133.62645730000077,133.62645730000077,133.62645730000077,,002,P015,2025_Feb_28_1757,ConditionRich,2021.2.3,59.90470359672648,
100.75,104.0,41,0.0,Stimuli/Blank.png,0,0.0,0.0,0,43,43,43,,,,,,,,,,,,,100.75651659999858,0.006516599998576567,None,134.37713290000102,134.37713290000102,134.37713290000102,134.37713290000102,134.37713290000102,134.37713290000102,134.37713290000102,134.37713290000102,134.37713290000102,134.37713290000102,,002,P015,2025_Feb_28_1757,ConditionRich,2021.2.3,59.90470359672648,
104.0,104.75,4,0.75,Stimuli/P015/sun_aiwuqxdqzftsfyeg.jpg,0,0.0,0.0,0,44,44,44,,,,,,,,,,,,,104.00912729999982,0.009127299999818206,None,137.64671929999895,137.64671929999895,137.64671929999895,137.64671929999895,137.64671929999895,137.64671929999895,137.64671929999895,137.64671929999895,137.64671929999895,137.64671929999895,,002,P015,2025_Feb_28_1757,ConditionRich,2021.2.3,59.90470359672648,
104.75,108.0,41,0.0,Stimuli/Blank.png,0,0.0,0.0,0,45,45,45,,,,,,,,,,,,,104.77655600000071,0.0265560000007099,None,138.3973576999997,138.3973576999997,138.3973576999997,138.3973576999997,138.3973576999997,138.3973576999997,138.3973576999997,138.3973576999997,138.3973576999997,138.3973576999997,,002,P015,2025_Feb_28_1757,ConditionRich,2021.2.3,59.90470359672648,
108.0,108.75,21,0.75,Stimuli/P015/things_arch_08s.jpg,0,0.0,0.0,0,46,46,46,,,,,,,,,,,,,108.01229769999918,0.012297699999180622,None,141.6335551000011,141.6335551000011,141.6335551000011,141.6335551000011,141.6335551000011,141.6335551000011,141.6335551000011,141.6335551000011,141.6335551000011,141.6335551000011,,002,P015,2025_Feb_28_1757,ConditionRich,2021.2.3,59.90470359672648,
108.75,112.0,41,0.0,Stimuli/Blank.png,0,0.0,0.0,0,47,47,47,,,,,,,,,,,,,108.76288420000128,0.012884200001280988,None,142.38420760000008,142.38420760000008,142.38420760000008,142.38420760000008,142.38420760000008,142.38420760000008,142.38420760000008,142.38420760000008,142.38420760000008,142.38420760000008,,002,P015,2025_Feb_28_1757,ConditionRich,2021.2.3,59.90470359672648,
112.0,112.75,40,0.75,Stimuli/P015/things_woman_08s.jpg,0,0.0,0.0,0,48,48,48,,,,,,,,,,,,,111.99919109999973,-0.0008089000002655666,None,145.62040960000013,145.62040960000013,145.62040960000013,145.62040960000013,145.62040960000013,145.62040960000013,145.62040960000013,145.62040960000013,145.62040960000013,145.62040960000013,,002,P015,2025_Feb_28_1757,ConditionRich,2021.2.3,59.90470359672648,
112.75,116.0,41,0.0,Stimuli/Blank.png,0,0.0,0.0,0,49,49,49,,,,,,,,,,,,,112.74959469999885,-0.00040530000114813447,None,146.37107839999953,146.37107839999953,146.37107839999953,146.37107839999953,146.37107839999953,146.37107839999953,146.37107839999953,146.37107839999953,146.37107839999953,146.37107839999953,,002,P015,2025_Feb_28_1757,ConditionRich,2021.2.3,59.90470359672648,
116.0,116.75,38,0.75,Stimuli/P015/things_trumpet_08s.jpg,0,0.0,0.0,0,50,50,50,,,,,,,,,,,,,116.00224239999807,0.0022423999980674125,None,149.62394940000013,149.62394940000013,149.62394940000013,149.62394940000013,149.62394940000013,149.62394940000013,149.62394940000013,149.62394940000013,149.62394940000013,149.62394940000013,,002,P015,2025_Feb_28_1757,ConditionRich,2021.2.3,59.90470359672648,
116.75,120.0,41,0.0,Stimuli/Blank.png,0,0.0,0.0,0,51,51,51,,,,,,,,,,,,,116.75313230000029,0.0031323000002885237,None,150.37462249999953,150.37462249999953,150.37462249999953,150.37462249999953,150.37462249999953,150.37462249999953,150.37462249999953,150.37462249999953,150.37462249999953,150.37462249999953,,002,P015,2025_Feb_28_1757,ConditionRich,2021.2.3,59.90470359672648,
120.0,120.75,31,0.75,Stimuli/P015/things_outlet_08s.jpg,0,0.0,0.0,0,52,52,52,,,,,,,,,,,,,120.00642710000102,0.006427100001019426,None,153.62749780000013,153.62749780000013,153.62749780000013,153.62749780000013,153.62749780000013,153.62749780000013,153.62749780000013,153.62749780000013,153.62749780000013,153.62749780000013,,002,P015,2025_Feb_28_1757,ConditionRich,2021.2.3,59.90470359672648,
120.75,124.0,41,0.0,Stimuli/Blank.png,0,0.0,0.0,0,53,53,53,,,,,,,,,,,,,120.75851749999856,0.008517499998561107,None,154.3948468999988,154.3948468999988,154.3948468999988,154.3948468999988,154.3948468999988,154.3948468999988,154.3948468999988,154.3948468999988,154.3948468999988,154.3948468999988,,002,P015,2025_Feb_28_1757,ConditionRich,2021.2.3,59.90470359672648,
124.0,124.75,9,0.75,Stimuli/P015/sun_bbdgftzhpkaklkll.jpg,0,0.0,0.0,0,54,54,54,,,,,,,,,,,,,124.0263386000006,0.0263386000005994,None,157.64772040000025,157.64772040000025,157.64772040000025,157.64772040000025,157.64772040000025,157.64772040000025,157.64772040000025,157.64772040000025,157.64772040000025,157.64772040000025,,002,P015,2025_Feb_28_1757,ConditionRich,2021.2.3,59.90470359672648,
124.75,128.0,41,0.0,Stimuli/Blank.png,1,1.25,2.0,0,55,55,55,,,,,,,,,,,,,124.7607022000011,0.010702200001105666,1,158.38179079999827,158.38179079999827,158.38179079999827,158.38179079999827,158.38179079999827,158.38179079999827,159.61613719999878,160.36684030000106,158.38179079999827,158.38179079999827,1.6857382000016514,002,P015,2025_Feb_28_1757,ConditionRich,2021.2.3,59.90470359672648,
128.0,128.75,13,0.75,Stimuli/P015/sun_bphvjnowixlryxot.jpg,0,0.0,0.0,0,56,56,56,,,,,,,,,,,,,128.01382300000114,0.013823000001139008,None,161.65132589999848,161.65132589999848,161.65132589999848,161.65132589999848,161.65132589999848,161.65132589999848,161.65132589999848,161.65132589999848,161.65132589999848,161.65132589999848,,002,P015,2025_Feb_28_1757,ConditionRich,2021.2.3,59.90470359672648,
128.75,132.0,41,0.0,Stimuli/Blank.png,0,0.0,0.0,0,57,57,57,,,,,,,,,,,,,128.78121420000025,0.031214200000249548,None,162.40192119999847,162.40192119999847,162.40192119999847,162.40192119999847,162.40192119999847,162.40192119999847,162.40192119999847,162.40192119999847,162.40192119999847,162.40192119999847,,002,P015,2025_Feb_28_1757,ConditionRich,2021.2.3,59.90470359672648,
132.0,132.75,34,0.75,Stimuli/P015/things_shower_cap_08s.jpg,0,0.0,0.0,0,58,58,58,,,,,,,,,,,,,132.00002559999848,2.559999848017469e-05,None,165.62144429999898,165.62144429999898,165.62144429999898,165.62144429999898,165.62144429999898,165.62144429999898,165.62144429999898,165.62144429999898,165.62144429999898,165.62144429999898,,002,P015,2025_Feb_28_1757,ConditionRich,2021.2.3,59.90470359672648,
132.75,136.0,41,0.0,Stimuli/Blank.png,0,0.0,0.0,0,59,59,59,,,,,,,,,,,,,132.7513246999988,0.0013246999988041352,None,166.37209670000084,166.37209670000084,166.37209670000084,166.37209670000084,166.37209670000084,166.37209670000084,166.37209670000084,166.37209670000084,166.37209670000084,166.37209670000084,,002,P015,2025_Feb_28_1757,ConditionRich,2021.2.3,59.90470359672648,
136.0,136.75,18,0.75,Stimuli/P015/sun_byavixgfuhzioilz.jpg,0,0.0,0.0,0,60,60,60,,,,,,,,,,,,,136.00420730000042,0.004207300000416581,None,169.6416681999981,169.6416681999981,169.6416681999981,169.6416681999981,169.6416681999981,169.6416681999981,169.6416681999981,169.6416681999981,169.6416681999981,169.6416681999981,,002,P015,2025_Feb_28_1757,ConditionRich,2021.2.3,59.90470359672648,
136.75,140.0,41,0.0,Stimuli/Blank.png,0,0.0,0.0,0,61,61,61,,,,,,,,,,,,,136.77141119999942,0.021411199999420205,None,170.39231830000062,170.39231830000062,170.39231830000062,170.39231830000062,170.39231830000062,170.39231830000062,170.39231830000062,170.39231830000062,170.39231830000062,170.39231830000062,,002,P015,2025_Feb_28_1757,ConditionRich,2021.2.3,59.90470359672648,
140.0,140.75,19,0.75,Stimuli/P015/sun_bzhwvgrzvttqoexa.jpg,0,0.0,0.0,0,62,62,62,,,,,,,,,,,,,140.00721039999917,0.007210399999166839,None,173.62852389999898,173.62852389999898,173.62852389999898,173.62852389999898,173.62852389999898,173.62852389999898,173.62852389999898,173.62852389999898,173.62852389999898,173.62852389999898,,002,P015,2025_Feb_28_1757,ConditionRich,2021.2.3,59.90470359672648,
140.75,144.0,41,0.0,Stimuli/Blank.png,0,0.0,0.0,0,63,63,63,,,,,,,,,,,,,140.7576975999982,0.0076975999982096255,None,174.37915929999872,174.37915929999872,174.37915929999872,174.37915929999872,174.37915929999872,174.37915929999872,174.37915929999872,174.37915929999872,174.37915929999872,174.37915929999872,,002,P015,2025_Feb_28_1757,ConditionRich,2021.2.3,59.90470359672648,
144.0,144.75,24,0.75,Stimuli/P015/things_bunkbed_08s.jpg,0,0.0,0.0,0,64,64,64,,,,,,,,,,,,,144.01125260000117,0.011252600001171231,None,177.6320678000011,177.6320678000011,177.6320678000011,177.6320678000011,177.6320678000011,177.6320678000011,177.6320678000011,177.6320678000011,177.6320678000011,177.6320678000011,,002,P015,2025_Feb_28_1757,ConditionRich,2021.2.3,59.90470359672648,
144.75,148.0,41,0.0,Stimuli/Blank.png,0,0.0,0.0,0,65,65,65,,,,,,,,,,,,,144.7612769999978,0.011276999997789972,None,178.38272900000084,178.38272900000084,178.38272900000084,178.38272900000084,178.38272900000084,178.38272900000084,178.38272900000084,178.38272900000084,178.38272900000084,178.38272900000084,,002,P015,2025_Feb_28_1757,ConditionRich,2021.2.3,59.90470359672648,
148.0,148.75,5,0.75,Stimuli/P015/sun_ajgmxbrxdpmsaext.jpg,0,0.0,0.0,0,66,66,66,,,,,,,,,,,,,148.0149609,0.014960900000005495,None,181.6522941000003,181.6522941000003,181.6522941000003,181.6522941000003,181.6522941000003,181.6522941000003,181.6522941000003,181.6522941000003,181.6522941000003,181.6522941000003,,002,P015,2025_Feb_28_1757,ConditionRich,2021.2.3,59.90470359672648,
148.75,152.0,41,0.0,Stimuli/Blank.png,0,0.0,0.0,0,67,67,67,,,,,,,,,,,,,148.78441069999826,0.03441069999826141,None,182.41967160000058,182.41967160000058,182.41967160000058,182.41967160000058,182.41967160000058,182.41967160000058,182.41967160000058,182.41967160000058,182.41967160000058,182.41967160000058,,002,P015,2025_Feb_28_1757,ConditionRich,2021.2.3,59.90470359672648,
152.0,152.75,33,0.75,Stimuli/P015/things_raccoon_08n.jpg,0,0.0,0.0,0,68,68,68,,,,,,,,,,,,,152.01980270000058,0.019802700000582263,None,185.65583269999843,185.65583269999843,185.65583269999843,185.65583269999843,185.65583269999843,185.65583269999843,185.65583269999843,185.65583269999843,185.65583269999843,185.65583269999843,,002,P015,2025_Feb_28_1757,ConditionRich,2021.2.3,59.90470359672648,
152.75,156.0,41,0.0,Stimuli/Blank.png,0,0.0,0.0,0,69,69,69,,,,,,,,,,,,,152.7688171000009,0.018817100000887876,None,186.3898135999989,186.3898135999989,186.3898135999989,186.3898135999989,186.3898135999989,186.3898135999989,186.3898135999989,186.3898135999989,186.3898135999989,186.3898135999989,,002,P015,2025_Feb_28_1757,ConditionRich,2021.2.3,59.90470359672648,
156.0,156.75,36,0.75,Stimuli/P015/things_streetlight_08s.jpg,0,0.0,0.0,0,70,70,70,,,,,,,,,,,,,156.00544620000073,0.00544620000073337,None,189.64269199999762,189.64269199999762,189.64269199999762,189.64269199999762,189.64269199999762,189.64269199999762,189.64269199999762,189.64269199999762,189.64269199999762,189.64269199999762,,002,P015,2025_Feb_28_1757,ConditionRich,2021.2.3,59.90470359672648,
156.75,160.0,41,0.0,Stimuli/Blank.png,0,0.0,0.0,0,71,71,71,,,,,,,,,,,,,156.77195909999864,0.02195909999863943,None,190.39336320000075,190.39336320000075,190.39336320000075,190.39336320000075,190.39336320000075,190.39336320000075,190.39336320000075,190.39336320000075,190.39336320000075,190.39336320000075,,002,P015,2025_Feb_28_1757,ConditionRich,2021.2.3,59.90470359672648,
160.0,160.75,37,0.75,Stimuli/P015/things_swizzle_stick_08s.jpg,1,0.0,0.75,0,72,72,72,,,,,,,,,,,,,160.00896740000098,0.008967400000983616,1,193.6462434999994,193.6462434999994,193.6462434999994,193.6462434999994,193.6462434999994,193.6462434999994,193.6462434999994,194.3636015000011,193.6462434999994,193.6462434999994,0.6036578999992344,002,P015,2025_Feb_28_1757,ConditionRich,2021.2.3,59.90470359672648,
160.75,164.0,41,0.0,Stimuli/Blank.png,0,0.0,0.0,0,73,73,73,,,,,,,,,,,,,160.77547369999957,0.025473699999565724,None,194.39687969999795,194.39687969999795,194.39687969999795,194.39687969999795,194.39687969999795,194.39687969999795,194.39687969999795,194.39687969999795,194.39687969999795,194.39687969999795,,002,P015,2025_Feb_28_1757,ConditionRich,2021.2.3,59.90470359672648,
164.0,164.75,15,0.75,Stimuli/P015/sun_bvfcijehgdsndfbg.jpg,0,0.0,0.0,0,74,74,74,,,,,,,,,,,,,164.01400120000108,0.014001200001075631,None,197.64984329999788,197.64984329999788,197.64984329999788,197.64984329999788,197.64984329999788,197.64984329999788,197.64984329999788,197.64984329999788,197.64984329999788,197.64984329999788,,002,P015,2025_Feb_28_1757,ConditionRich,2021.2.3,59.90470359672648,
164.75,168.0,41,0.0,Stimuli/Blank.png,0,0.0,0.0,0,75,75,75,,,,,,,,,,,,,164.78059650000068,0.03059650000068359,None,198.41715199999817,198.41715199999817,198.41715199999817,198.41715199999817,198.41715199999817,198.41715199999817,198.41715199999817,198.41715199999817,198.41715199999817,198.41715199999817,,002,P015,2025_Feb_28_1757,ConditionRich,2021.2.3,59.90470359672648,
168.0,168.75,22,0.75,Stimuli/P015/things_baby_08s.jpg,0,0.0,0.0,0,76,76,76,,,,,,,,,,,,,168.0155010999988,0.015501099998800782,None,201.6366354999991,201.6366354999991,201.6366354999991,201.6366354999991,201.6366354999991,201.6366354999991,201.6366354999991,201.6366354999991,201.6366354999991,201.6366354999991,,002,P015,2025_Feb_28_1757,ConditionRich,2021.2.3,59.90470359672648,
168.75,172.0,41,0.0,Stimuli/Blank.png,1,1.25,2.0,0,77,77,77,,,,,,,,,,,,,168.74913340000057,-0.0008665999994263984,1,202.37061919999906,202.37061919999906,202.37061919999906,202.37061919999906,202.37061919999906,202.37061919999906,203.60507289999805,204.3557144999977,202.37061919999906,202.37061919999906,1.736930700000812,002,P015,2025_Feb_28_1757,ConditionRich,2021.2.3,59.90470359672648,
172.0,172.75,20,0.75,Stimuli/P015/sun_bzmxulijbnmshodq.jpg,0,0.0,0.0,0,78,78,78,,,,,,,,,,,,,172.0048500999983,0.0048500999982934445,None,205.6401865000007,205.6401865000007,205.6401865000007,205.6401865000007,205.6401865000007,205.6401865000007,205.6401865000007,205.6401865000007,205.6401865000007,205.6401865000007,,002,P015,2025_Feb_28_1757,ConditionRich,2021.2.3,59.90470359672648,
172.75,176.0,41,0.0,Stimuli/Blank.png,0,0.0,0.0,0,79,79,79,,,,,,,,,,,,,172.7699169999978,0.01991699999780394,None,206.39084229999935,206.39084229999935,206.39084229999935,206.39084229999935,206.39084229999935,206.39084229999935,206.39084229999935,206.39084229999935,206.39084229999935,206.39084229999935,,002,P015,2025_Feb_28_1757,ConditionRich,2021.2.3,59.90470359672648,
176.0,176.75,1,0.75,Stimuli/P015/sun_aacpzgqrortyhyss.jpg,0,0.0,0.0,0,80,80,80,,,,,,,,,,,,,176.00606999999945,0.006069999999454012,None,209.64375279999877,209.64375279999877,209.64375279999877,209.64375279999877,209.64375279999877,209.64375279999877,209.64375279999877,209.64375279999877,209.64375279999877,209.64375279999877,,002,P015,2025_Feb_28_1757,ConditionRich,2021.2.3,59.90470359672648,
176.75,180.0,41,0.0,Stimuli/Blank.png,1,0.25,1.0,0,81,81,81,,,,,,,,,,,,,176.77273659999992,0.022736599999916507,1,210.39439239999774,210.39439239999774,210.39439239999774,210.39439239999774,210.39439239999774,210.39439239999774,210.62795410000035,211.37858580000102,210.39439239999774,210.39439239999774,0.8660825999977533,002,P015,2025_Feb_28_1757,ConditionRich,2021.2.3,59.90470359672648,
180.0,196.0,0,0.0,Stimuli/Blank.png,1,13.0,13.75,0,82,82,82,,,,,,,,,,,,,180.0089595999998,0.008959599999798229,1,213.6305855999999,213.6305855999999,213.6305855999999,213.6305855999999,213.6305855999999,213.6305855999999,226.60872390000077,227.3593946000001,213.6305855999999,213.6305855999999,13.501960400000826,002,P015,2025_Feb_28_1757,ConditionRich,2021.2.3,59.90470359672648,
196.0,196.75,17,0.75,Stimuli/P015/sun_bxhbltvqnpaciuzt.jpg,0,0.0,0.0,0,83,83,83,,,,,,,,,,,,,196.00703109999813,0.00703109999813023,None,229.6280713999986,229.6280713999986,229.6280713999986,229.6280713999986,229.6280713999986,229.6280713999986,229.6280713999986,229.6280713999986,229.6280713999986,229.6280713999986,,002,P015,2025_Feb_28_1757,ConditionRich,2021.2.3,59.90470359672648,
196.75,200.0,41,0.0,Stimuli/Blank.png,1,0.25,1.0,0,84,84,84,,,,,,,,,,,,,196.75723039999866,0.007230399998661596,1,230.37873839999884,230.37873839999884,230.37873839999884,230.37873839999884,230.37873839999884,230.37873839999884,230.61224389999916,231.3629488000006,230.37873839999884,230.37873839999884,0.7138231999997515,002,P015,2025_Feb_28_1757,ConditionRich,2021.2.3,59.90470359672648,
200.0,200.75,19,0.75,Stimuli/P015/sun_bzhwvgrzvttqoexa.jpg,0,0.0,0.0,0,85,85,85,,,,,,,,,,,,,200.0116636999992,0.011663699999189703,None,233.6483021999993,233.6483021999993,233.6483021999993,233.6483021999993,233.6483021999993,233.6483021999993,233.6483021999993,233.6483021999993,233.6483021999993,233.6483021999993,,002,P015,2025_Feb_28_1757,ConditionRich,2021.2.3,59.90470359672648,
200.75,204.0,41,0.0,Stimuli/Blank.png,0,0.0,0.0,0,86,86,86,,,,,,,,,,,,,200.77747259999887,0.027472599998873193,None,234.39895369999795,234.39895369999795,234.39895369999795,234.39895369999795,234.39895369999795,234.39895369999795,234.39895369999795,234.39895369999795,234.39895369999795,234.39895369999795,,002,P015,2025_Feb_28_1757,ConditionRich,2021.2.3,59.90470359672648,
204.0,204.75,21,0.75,Stimuli/P015/things_arch_08s.jpg,0,0.0,0.0,0,87,87,87,,,,,,,,,,,,,204.0140156999987,0.014015699998708442,None,237.65185940000083,237.65185940000083,237.65185940000083,237.65185940000083,237.65185940000083,237.65185940000083,237.65185940000083,237.65185940000083,237.65185940000083,237.65185940000083,,002,P015,2025_Feb_28_1757,ConditionRich,2021.2.3,59.90470359672648,
204.75,208.0,41,0.0,Stimuli/Blank.png,0,0.0,0.0,0,88,88,88,,,,,,,,,,,,,204.78442659999928,0.03442659999927855,None,238.419203999998,238.419203999998,238.419203999998,238.419203999998,238.419203999998,238.419203999998,238.419203999998,238.419203999998,238.419203999998,238.419203999998,,002,P015,2025_Feb_28_1757,ConditionRich,2021.2.3,59.90470359672648,
208.0,208.75,6,0.75,Stimuli/P015/sun_akecfasimgpbqcnt.jpg,0,0.0,0.0,0,89,89,89,,,,,,,,,,,,,208.01827000000048,0.018270000000484288,None,241.63870970000062,241.63870970000062,241.63870970000062,241.63870970000062,241.63870970000062,241.63870970000062,241.63870970000062,241.63870970000062,241.63870970000062,241.63870970000062,,002,P015,2025_Feb_28_1757,ConditionRich,2021.2.3,59.90470359672648,
208.75,212.0,41,0.0,Stimuli/Blank.png,1,0.25,1.0,0,90,90,90,,,,,,,,,,,,,208.7512276999987,0.0012276999987079762,1,242.37268069999845,242.37268069999845,242.37268069999845,242.37268069999845,242.37268069999845,242.37268069999845,242.6062787999981,243.35688780000055,242.37268069999845,242.37268069999845,0.8054488000016136,002,P015,2025_Feb_28_1757,ConditionRich,2021.2.3,59.90470359672648,
212.0,212.75,20,0.75,Stimuli/P015/sun_bzmxulijbnmshodq.jpg,0,0.0,0.0,0,91,91,91,,,,,,,,,,,,,212.00409389999913,0.00409389999913401,None,245.6255600000004,245.6255600000004,245.6255600000004,245.6255600000004,245.6255600000004,245.6255600000004,245.6255600000004,245.6255600000004,245.6255600000004,245.6255600000004,,002,P015,2025_Feb_28_1757,ConditionRich,2021.2.3,59.90470359672648,
212.75,216.0,41,0.0,Stimuli/Blank.png,0,0.0,0.0,0,92,92,92,,,,,,,,,,,,,212.7557893000012,0.005789300001197262,None,246.37622929999998,246.37622929999998,246.37622929999998,246.37622929999998,246.37622929999998,246.37622929999998,246.37622929999998,246.37622929999998,246.37622929999998,246.37622929999998,,002,P015,2025_Feb_28_1757,ConditionRich,2021.2.3,59.90470359672648,
216.0,216.75,27,0.75,Stimuli/P015/things_girl_08s.jpg,0,0.0,0.0,0,93,93,93,,,,,,,,,,,,,216.00969329999862,0.009693299998616567,None,249.64579550000053,249.64579550000053,249.64579550000053,249.64579550000053,249.64579550000053,249.64579550000053,249.64579550000053,249.64579550000053,249.64579550000053,249.64579550000053,,002,P015,2025_Feb_28_1757,ConditionRich,2021.2.3,59.90470359672648,
216.75,220.0,41,0.0,Stimuli/Blank.png,1,2.25,3.0,0,94,94,94,,,,,,,,,,,,,216.77550979999796,0.025509799997962546,1,250.39642269999968,250.39642269999968,250.39642269999968,250.39642269999968,250.39642269999968,250.39642269999968,252.63179540000056,253.38241879999987,250.39642269999968,250.39642269999968,2.7111205000001064,002,P015,2025_Feb_28_1757,ConditionRich,2021.2.3,59.90470359672648,
220.0,220.75,30,0.75,Stimuli/P015/things_ottoman_08s.jpg,0,0.0,0.0,0,95,95,95,,,,,,,,,,,,,220.01181649999853,0.011816499998531071,None,253.6326439000004,253.6326439000004,253.6326439000004,253.6326439000004,253.6326439000004,253.6326439000004,253.6326439000004,253.6326439000004,253.6326439000004,253.6326439000004,,002,P015,2025_Feb_28_1757,ConditionRich,2021.2.3,59.90470359672648,
220.75,224.0,41,0.0,Stimuli/Blank.png,0,0.0,0.0,0,96,96,96,,,,,,,,,,,,,220.7622917999979,0.012291799997910857,None,254.3833052000009,254.3833052000009,254.3833052000009,254.3833052000009,254.3833052000009,254.3833052000009,254.3833052000009,254.3833052000009,254.3833052000009,254.3833052000009,,002,P015,2025_Feb_28_1757,ConditionRich,2021.2.3,59.90470359672648,
224.0,224.75,26,0.75,Stimuli/P015/things_face_08s.jpg,0,0.0,0.0,0,97,97,97,,,,,,,,,,,,,224.01530300000013,0.01530300000013085,None,257.65288689999943,257.65288689999943,257.65288689999943,257.65288689999943,257.65288689999943,257.65288689999943,257.65288689999943,257.65288689999943,257.65288689999943,257.65288689999943,,002,P015,2025_Feb_28_1757,ConditionRich,2021.2.3,59.90470359672648,
224.75,228.0,41,0.0,Stimuli/Blank.png,0,0.0,0.0,0,98,98,98,,,,,,,,,,,,,224.76536520000082,0.015365200000815094,None,258.3868555000008,258.3868555000008,258.3868555000008,258.3868555000008,258.3868555000008,258.3868555000008,258.3868555000008,258.3868555000008,258.3868555000008,258.3868555000008,,002,P015,2025_Feb_28_1757,ConditionRich,2021.2.3,59.90470359672648,
228.0,228.75,10,0.75,Stimuli/P015/sun_bfojpvrlsrtfyzio.jpg,0,0.0,0.0,0,99,99,99,,,,,,,,,,,,,228.00140679999822,0.0014067999982216861,None,261.63974849999795,261.63974849999795,261.63974849999795,261.63974849999795,261.63974849999795,261.63974849999795,261.63974849999795,261.63974849999795,261.63974849999795,261.63974849999795,,002,P015,2025_Feb_28_1757,ConditionRich,2021.2.3,59.90470359672648,
228.75,232.0,41,0.0,Stimuli/Blank.png,0,0.0,0.0,0,100,100,100,,,,,,,,,,,,,228.76964339999904,0.019643399999040412,None,262.3904017999994,262.3904017999994,262.3904017999994,262.3904017999994,262.3904017999994,262.3904017999994,262.3904017999994,262.3904017999994,262.3904017999994,262.3904017999994,,002,P015,2025_Feb_28_1757,ConditionRich,2021.2.3,59.90470359672648,
232.0,232.75,5,0.75,Stimuli/P015/sun_ajgmxbrxdpmsaext.jpg,0,0.0,0.0,0,101,101,101,,,,,,,,,,,,,232.00512890000027,0.0051289000002725516,None,265.6265965999992,265.6265965999992,265.6265965999992,265.6265965999992,265.6265965999992,265.6265965999992,265.6265965999992,265.6265965999992,265.6265965999992,265.6265965999992,,002,P015,2025_Feb_28_1757,ConditionRich,2021.2.3,59.90470359672648,
232.75,236.0,41,0.0,Stimuli/Blank.png,0,0.0,0.0,0,102,102,102,,,,,,,,,,,,,232.75577239999984,0.005772399999841582,None,266.37722719999874,266.37722719999874,266.37722719999874,266.37722719999874,266.37722719999874,266.37722719999874,266.37722719999874,266.37722719999874,266.37722719999874,266.37722719999874,,002,P015,2025_Feb_28_1757,ConditionRich,2021.2.3,59.90470359672648,
236.0,236.75,18,0.75,Stimuli/P015/sun_byavixgfuhzioilz.jpg,0,0.0,0.0,0,103,103,103,,,,,,,,,,,,,236.00906969999778,0.009069699997780845,None,269.63015950000045,269.63015950000045,269.63015950000045,269.63015950000045,269.63015950000045,269.63015950000045,269.63015950000045,269.63015950000045,269.63015950000045,269.63015950000045,,002,P015,2025_Feb_28_1757,ConditionRich,2021.2.3,59.90470359672648,
236.75,240.0,41,0.0,Stimuli/Blank.png,0,0.0,0.0,0,104,104,104,,,,,,,,,,,,,236.75998089999848,0.009980899998481618,None,270.3809390999995,270.3809390999995,270.3809390999995,270.3809390999995,270.3809390999995,270.3809390999995,270.3809390999995,270.3809390999995,270.3809390999995,270.3809390999995,,002,P015,2025_Feb_28_1757,ConditionRich,2021.2.3,59.90470359672648,
240.0,240.75,13,0.75,Stimuli/P015/sun_bphvjnowixlryxot.jpg,0,0.0,0.0,0,105,105,105,,,,,,,,,,,,,240.01466199999777,0.014661999997770181,None,273.65036319999854,273.65036319999854,273.65036319999854,273.65036319999854,273.65036319999854,273.65036319999854,273.65036319999854,273.65036319999854,273.65036319999854,273.65036319999854,,002,P015,2025_Feb_28_1757,ConditionRich,2021.2.3,59.90470359672648,
240.75,244.0,41,0.0,Stimuli/Blank.png,0,0.0,0.0,0,106,106,106,,,,,,,,,,,,,240.78030460000082,0.030304600000818027,None,274.40102620000107,274.40102620000107,274.40102620000107,274.40102620000107,274.40102620000107,274.40102620000107,274.40102620000107,274.40102620000107,274.40102620000107,274.40102620000107,,002,P015,2025_Feb_28_1757,ConditionRich,2021.2.3,59.90470359672648,
244.0,244.75,34,0.75,Stimuli/P015/things_shower_cap_08s.jpg,0,0.0,0.0,0,107,107,107,,,,,,,,,,,,,243.9988713999992,-0.001128600000811275,None,277.6372357,277.6372357,277.6372357,277.6372357,277.6372357,277.6372357,277.6372357,277.6372357,277.6372357,277.6372357,,002,P015,2025_Feb_28_1757,ConditionRich,2021.2.3,59.90470359672648,
244.75,248.0,41,0.0,Stimuli/Blank.png,0,0.0,0.0,0,108,108,108,,,,,,,,,,,,,244.76738169999953,0.01738169999953243,None,278.3878896999995,278.3878896999995,278.3878896999995,278.3878896999995,278.3878896999995,278.3878896999995,278.3878896999995,278.3878896999995,278.3878896999995,278.3878896999995,,002,P015,2025_Feb_28_1757,ConditionRich,2021.2.3,59.90470359672648,
248.0,248.75,4,0.75,Stimuli/P015/sun_aiwuqxdqzftsfyeg.jpg,0,0.0,0.0,0,109,109,109,,,,,,,,,,,,,248.00334160000057,0.0033416000005672686,None,281.624080900001,281.624080900001,281.624080900001,281.624080900001,281.624080900001,281.624080900001,281.624080900001,281.624080900001,281.624080900001,281.624080900001,,002,P015,2025_Feb_28_1757,ConditionRich,2021.2.3,59.90470359672648,
248.75,252.0,41,0.0,Stimuli/Blank.png,0,0.0,0.0,0,110,110,110,,,,,,,,,,,,,248.75400620000073,0.004006200000731042,None,282.37474830000065,282.37474830000065,282.37474830000065,282.37474830000065,282.37474830000065,282.37474830000065,282.37474830000065,282.37474830000065,282.37474830000065,282.37474830000065,,002,P015,2025_Feb_28_1757,ConditionRich,2021.2.3,59.90470359672648,
252.0,252.75,37,0.75,Stimuli/P015/things_swizzle_stick_08s.jpg,0,0.0,0.0,0,111,111,111,,,,,,,,,,,,,252.00671900000088,0.006719000000884989,None,285.62762590000057,285.62762590000057,285.62762590000057,285.62762590000057,285.62762590000057,285.62762590000057,285.62762590000057,285.62762590000057,285.62762590000057,285.62762590000057,,002,P015,2025_Feb_28_1757,ConditionRich,2021.2.3,59.90470359672648,
252.75,256.0,41,0.0,Stimuli/Blank.png,1,0.25,1.0,0,112,112,112,,,,,,,,,,,,,252.75722529999985,0.007225299999845447,1,286.3782883999993,286.3782883999993,286.3782883999993,286.3782883999993,286.3782883999993,286.3782883999993,286.6118423000007,287.36248239999986,286.3782883999993,286.3782883999993,0.7703709999987041,002,P015,2025_Feb_28_1757,ConditionRich,2021.2.3,59.90470359672648,
256.0,256.75,23,0.75,Stimuli/P015/things_boy_08s.jpg,0,0.0,0.0,0,113,113,113,,,,,,,,,,,,,256.01293050000095,0.012930500000948086,None,289.6478637,289.6478637,289.6478637,289.6478637,289.6478637,289.6478637,289.6478637,289.6478637,289.6478637,289.6478637,,002,P015,2025_Feb_28_1757,ConditionRich,2021.2.3,59.90470359672648,
256.75,260.0,41,0.0,Stimuli/Blank.png,0,0.0,0.0,0,114,114,114,,,,,,,,,,,,,256.7770254999996,0.02702549999958137,None,290.3985063,290.3985063,290.3985063,290.3985063,290.3985063,290.3985063,290.3985063,290.3985063,290.3985063,290.3985063,,002,P015,2025_Feb_28_1757,ConditionRich,2021.2.3,59.90470359672648,
260.0,260.75,12,0.75,Stimuli/P015/sun_boffixsnbbloarty.jpg,0,0.0,0.0,0,115,115,115,,,,,,,,,,,,,260.01380159999826,0.013801599998259917,None,293.6513957999996,293.6513957999996,293.6513957999996,293.6513957999996,293.6513957999996,293.6513957999996,293.6513957999996,293.6513957999996,293.6513957999996,293.6513957999996,,002,P015,2025_Feb_28_1757,ConditionRich,2021.2.3,59.90470359672648,
260.75,264.0,41,0.0,Stimuli/Blank.png,0,0.0,0.0,0,116,116,116,,,,,,,,,,,,,260.7816074000002,0.03160740000021178,None,294.4020574999995,294.4020574999995,294.4020574999995,294.4020574999995,294.4020574999995,294.4020574999995,294.4020574999995,294.4020574999995,294.4020574999995,294.4020574999995,,002,P015,2025_Feb_28_1757,ConditionRich,2021.2.3,59.90470359672648,
264.0,264.75,2,0.75,Stimuli/P015/sun_agzfkftryitnqpxc.jpg,0,0.0,0.0,0,117,117,117,,,,,,,,,,,,,264.00203169999804,0.0020316999980423134,None,297.6382616999981,297.6382616999981,297.6382616999981,297.6382616999981,297.6382616999981,297.6382616999981,297.6382616999981,297.6382616999981,297.6382616999981,297.6382616999981,,002,P015,2025_Feb_28_1757,ConditionRich,2021.2.3,59.90470359672648,
264.75,268.0,41,0.0,Stimuli/Blank.png,0,0.0,0.0,0,118,118,118,,,,,,,,,,,,,264.7679069000005,0.01790690000052564,None,298.388936299998,298.388936299998,298.388936299998,298.388936299998,298.388936299998,298.388936299998,298.388936299998,298.388936299998,298.388936299998,298.388936299998,,002,P015,2025_Feb_28_1757,ConditionRich,2021.2.3,59.90470359672648,
268.0,268.75,11,0.75,Stimuli/P015/sun_bnwmcjuinqbdsbho.jpg,0,0.0,0.0,0,119,119,119,,,,,,,,,,,,,268.004563399998,0.00456339999800548,None,301.64182439999786,301.64182439999786,301.64182439999786,301.64182439999786,301.64182439999786,301.64182439999786,301.64182439999786,301.64182439999786,301.64182439999786,301.64182439999786,,002,P015,2025_Feb_28_1757,ConditionRich,2021.2.3,59.90470359672648,
268.75,272.0,41,0.0,Stimuli/Blank.png,0,0.0,0.0,0,120,120,120,,,,,,,,,,,,,268.77123329999813,0.02123329999812995,None,302.392467499998,302.392467499998,302.392467499998,302.392467499998,302.392467499998,302.392467499998,302.392467499998,302.392467499998,302.392467499998,302.392467499998,,002,P015,2025_Feb_28_1757,ConditionRich,2021.2.3,59.90470359672648,
272.0,272.75,40,0.75,Stimuli/P015/things_woman_08s.jpg,0,0.0,0.0,0,121,121,121,,,,,,,,,,,,,272.00709780000034,0.007097800000337884,None,305.6453804999983,305.6453804999983,305.6453804999983,305.6453804999983,305.6453804999983,305.6453804999983,305.6453804999983,305.6453804999983,305.6453804999983,305.6453804999983,,002,P015,2025_Feb_28_1757,ConditionRich,2021.2.3,59.90470359672648,
272.75,276.0,41,0.0,Stimuli/Blank.png,0,0.0,0.0,0,122,122,122,,,,,,,,,,,,,272.77510020000045,0.025100200000451878,None,306.3960255999991,306.3960255999991,306.3960255999991,306.3960255999991,306.3960255999991,306.3960255999991,306.3960255999991,306.3960255999991,306.3960255999991,306.3960255999991,,002,P015,2025_Feb_28_1757,ConditionRich,2021.2.3,59.90470359672648,
276.0,292.0,0,0.0,Stimuli/Blank.png,1,10.0,10.75,0,123,123,123,,,,,,,,,,,,,276.01143840000077,0.011438400000770343,1,309.6321981000001,309.6321981000001,309.6321981000001,309.6321981000001,309.6321981000001,309.6321981000001,319.6244458000001,320.375037400001,309.6321981000001,309.6321981000001,10.498500200003036,002,P015,2025_Feb_28_1757,ConditionRich,2021.2.3,59.90470359672648,
292.0,292.75,16,0.75,Stimuli/P015/sun_bwhuwxazfqwuqhik.jpg,0,0.0,0.0,0,124,124,124,,,,,,,,,,,,,292.00834570000006,0.008345700000063516,None,325.6296889000005,325.6296889000005,325.6296889000005,325.6296889000005,325.6296889000005,325.6296889000005,325.6296889000005,325.6296889000005,325.6296889000005,325.6296889000005,,002,P015,2025_Feb_28_1757,ConditionRich,2021.2.3,59.90470359672648,
292.75,296.0,41,0.0,Stimuli/Blank.png,0,0.0,0.0,0,125,125,125,,,,,,,,,,,,,292.7588834999988,0.008883499998773914,None,326.3804390999976,326.3804390999976,326.3804390999976,326.3804390999976,326.3804390999976,326.3804390999976,326.3804390999976,326.3804390999976,326.3804390999976,326.3804390999976,,002,P015,2025_Feb_28_1757,ConditionRich,2021.2.3,59.90470359672648,
296.0,296.75,35,0.75,Stimuli/P015/things_squid_08s.jpg,0,0.0,0.0,0,126,126,126,,,,,,,,,,,,,296.0122831999979,0.012283199997909833,None,329.63321689999793,329.63321689999793,329.63321689999793,329.63321689999793,329.63321689999793,329.63321689999793,329.63321689999793,329.63321689999793,329.63321689999793,329.63321689999793,,002,P015,2025_Feb_28_1757,ConditionRich,2021.2.3,59.90470359672648,
296.75,300.0,41,0.0,Stimuli/Blank.png,0,0.0,0.0,0,127,127,127,,,,,,,,,,,,,296.7628287999978,0.012828799997805618,None,330.3838947000004,330.3838947000004,330.3838947000004,330.3838947000004,330.3838947000004,330.3838947000004,330.3838947000004,330.3838947000004,330.3838947000004,330.3838947000004,,002,P015,2025_Feb_28_1757,ConditionRich,2021.2.3,59.90470359672648,
300.0,300.75,14,0.75,Stimuli/P015/sun_bpvmkbyglkraoxhh.jpg,0,0.0,0.0,0,128,128,128,,,,,,,,,,,,,300.0180392000002,0.018039200000202982,None,333.6534571000011,333.6534571000011,333.6534571000011,333.6534571000011,333.6534571000011,333.6534571000011,333.6534571000011,333.6534571000011,333.6534571000011,333.6534571000011,,002,P015,2025_Feb_28_1757,ConditionRich,2021.2.3,59.90470359672648,
300.75,304.0,41,0.0,Stimuli/Blank.png,0,0.0,0.0,0,129,129,129,,,,,,,,,,,,,300.76883290000114,0.01883290000114357,None,334.40413310000076,334.40413310000076,334.40413310000076,334.40413310000076,334.40413310000076,334.40413310000076,334.40413310000076,334.40413310000076,334.40413310000076,334.40413310000076,,002,P015,2025_Feb_28_1757,ConditionRich,2021.2.3,59.90470359672648,
304.0,304.75,33,0.75,Stimuli/P015/things_raccoon_08n.jpg,0,0.0,0.0,0,130,130,130,,,,,,,,,,,,,304.0195089999979,0.019508999997924548,None,337.6569949000004,337.6569949000004,337.6569949000004,337.6569949000004,337.6569949000004,337.6569949000004,337.6569949000004,337.6569949000004,337.6569949000004,337.6569949000004,,002,P015,2025_Feb_28_1757,ConditionRich,2021.2.3,59.90470359672648,
304.75,308.0,41,0.0,Stimuli/Blank.png,0,0.0,0.0,0,131,131,131,,,,,,,,,,,,,304.76987999999983,0.019879999999830034,None,338.39098359999844,338.39098359999844,338.39098359999844,338.39098359999844,338.39098359999844,338.39098359999844,338.39098359999844,338.39098359999844,338.39098359999844,338.39098359999844,,002,P015,2025_Feb_28_1757,ConditionRich,2021.2.3,59.90470359672648,
308.0,308.75,8,0.75,Stimuli/P015/sun_arldxotvfucvuudk.jpg,1,0.0,0.75,0,132,132,132,,,,,,,,,,,,,308.0061367999988,0.006136799998785136,None,341.6438730000009,341.6438730000009,341.6438730000009,341.6438730000009,341.6438730000009,341.6438730000009,341.6438730000009,342.36115380000047,341.6438730000009,341.6438730000009,,002,P015,2025_Feb_28_1757,ConditionRich,2021.2.3,59.90470359672648,
308.75,312.0,41,0.0,Stimuli/Blank.png,0,0.0,0.0,0,133,133,133,,,,,,,,,,,,,308.7733531999984,0.02335319999838248,None,342.3945094999981,342.3945094999981,342.3945094999981,342.3945094999981,342.3945094999981,342.3945094999981,342.3945094999981,342.3945094999981,342.3945094999981,342.3945094999981,,002,P015,2025_Feb_28_1757,ConditionRich,2021.2.3,59.90470359672648,
312.0,312.75,1,0.75,Stimuli/P015/sun_aacpzgqrortyhyss.jpg,0,0.0,0.0,0,134,134,134,,,,,,,,,,,,,312.0101261999989,0.010126199998921948,None,345.6474215999988,345.6474215999988,345.6474215999988,345.6474215999988,345.6474215999988,345.6474215999988,345.6474215999988,345.6474215999988,345.6474215999988,345.6474215999988,,002,P015,2025_Feb_28_1757,ConditionRich,2021.2.3,59.90470359672648,
312.75,316.0,41,0.0,Stimuli/Blank.png,0,0.0,0.0,0,135,135,135,,,,,,,,,,,,,312.77646559999994,0.026465599999937695,None,346.39805999999953,346.39805999999953,346.39805999999953,346.39805999999953,346.39805999999953,346.39805999999953,346.39805999999953,346.39805999999953,346.39805999999953,346.39805999999953,,002,P015,2025_Feb_28_1757,ConditionRich,2021.2.3,59.90470359672648,
316.0,316.75,15,0.75,Stimuli/P015/sun_bvfcijehgdsndfbg.jpg,0,0.0,0.0,0,136,136,136,,,,,,,,,,,,,316.0149824,0.014982400000008056,None,349.6509416000008,349.6509416000008,349.6509416000008,349.6509416000008,349.6509416000008,349.6509416000008,349.6509416000008,349.6509416000008,349.6509416000008,349.6509416000008,,002,P015,2025_Feb_28_1757,ConditionRich,2021.2.3,59.90470359672648,
316.75,320.0,41,0.0,Stimuli/Blank.png,0,0.0,0.0,0,137,137,137,,,,,,,,,,,,,316.7808471999997,0.030847199999698205,None,350.4015920999991,350.4015920999991,350.4015920999991,350.4015920999991,350.4015920999991,350.4015920999991,350.4015920999991,350.4015920999991,350.4015920999991,350.4015920999991,,002,P015,2025_Feb_28_1757,ConditionRich,2021.2.3,59.90470359672648,
320.0,320.75,25,0.75,Stimuli/P015/things_deer_08s.jpg,0,0.0,0.0,0,138,138,138,,,,,,,,,,,,,320.0004842999988,0.00048429999878862873,None,353.6378264999985,353.6378264999985,353.6378264999985,353.6378264999985,353.6378264999985,353.6378264999985,353.6378264999985,353.6378264999985,353.6378264999985,353.6378264999985,,002,P015,2025_Feb_28_1757,ConditionRich,2021.2.3,59.90470359672648,
320.75,324.0,41,0.0,Stimuli/Blank.png,0,0.0,0.0,0,139,139,139,,,,,,,,,,,,,320.76678399999946,0.01678399999946123,None,354.38846320000084,354.38846320000084,354.38846320000084,354.38846320000084,354.38846320000084,354.38846320000084,354.38846320000084,354.38846320000084,354.38846320000084,354.38846320000084,,002,P015,2025_Feb_28_1757,ConditionRich,2021.2.3,59.90470359672648,
324.0,324.75,22,0.75,Stimuli/P015/things_baby_08s.jpg,0,0.0,0.0,0,140,140,140,,,,,,,,,,,,,324.0052156999991,0.005215699999098433,None,357.6413422000005,357.6413422000005,357.6413422000005,357.6413422000005,357.6413422000005,357.6413422000005,357.6413422000005,357.6413422000005,357.6413422000005,357.6413422000005,,002,P015,2025_Feb_28_1757,ConditionRich,2021.2.3,59.90470359672648,
324.75,328.0,41,0.0,Stimuli/Blank.png,1,2.25,3.0,0,141,141,141,,,,,,,,,,,,,324.7703947000009,0.020394700000906596,1,358.3920088999985,358.3920088999985,358.3920088999985,358.3920088999985,358.3920088999985,358.3920088999985,360.6273523999989,361.3780053999981,358.3920088999985,358.3920088999985,2.69189710000137,002,P015,2025_Feb_28_1757,ConditionRich,2021.2.3,59.90470359672648,
328.0,328.75,24,0.75,Stimuli/P015/things_bunkbed_08s.jpg,0,0.0,0.0,0,142,142,142,,,,,,,,,,,,,328.00764419999905,0.007644199999049306,None,361.6448759999985,361.6448759999985,361.6448759999985,361.6448759999985,361.6448759999985,361.6448759999985,361.6448759999985,361.6448759999985,361.6448759999985,361.6448759999985,,002,P015,2025_Feb_28_1757,ConditionRich,2021.2.3,59.90470359672648,
328.75,332.0,41,0.0,Stimuli/Blank.png,0,0.0,0.0,0,143,143,143,,,,,,,,,,,,,328.7754182999997,0.025418299999728333,None,362.39555610000025,362.39555610000025,362.39555610000025,362.39555610000025,362.39555610000025,362.39555610000025,362.39555610000025,362.39555610000025,362.39555610000025,362.39555610000025,,002,P015,2025_Feb_28_1757,ConditionRich,2021.2.3,59.90470359672648,
332.0,332.75,3,0.75,Stimuli/P015/sun_aiogwnavezqxkzfg.jpg,0,0.0,0.0,0,144,144,144,,,,,,,,,,,,,332.01089429999774,0.010894299997744383,None,365.6317362000009,365.6317362000009,365.6317362000009,365.6317362000009,365.6317362000009,365.6317362000009,365.6317362000009,365.6317362000009,365.6317362000009,365.6317362000009,,002,P015,2025_Feb_28_1757,ConditionRich,2021.2.3,59.90470359672648,
332.75,336.0,41,0.0,Stimuli/Blank.png,0,0.0,0.0,0,145,145,145,,,,,,,,,,,,,332.7609381000002,0.010938100000203121,None,366.3824014999991,366.3824014999991,366.3824014999991,366.3824014999991,366.3824014999991,366.3824014999991,366.3824014999991,366.3824014999991,366.3824014999991,366.3824014999991,,002,P015,2025_Feb_28_1757,ConditionRich,2021.2.3,59.90470359672648,
336.0,336.75,32,0.75,Stimuli/P015/things_pheasant_08s.jpg,0,0.0,0.0,0,146,146,146,,,,,,,,,,,,,336.0148798000009,0.01487980000092648,None,369.6519875999984,369.6519875999984,369.6519875999984,369.6519875999984,369.6519875999984,369.6519875999984,369.6519875999984,369.6519875999984,369.6519875999984,369.6519875999984,,002,P015,2025_Feb_28_1757,ConditionRich,2021.2.3,59.90470359672648,
336.75,340.0,41,0.0,Stimuli/Blank.png,0,0.0,0.0,0,147,147,147,,,,,,,,,,,,,336.78179570000066,0.031795700000657234,None,370.40263969999796,370.40263969999796,370.40263969999796,370.40263969999796,370.40263969999796,370.40263969999796,370.40263969999796,370.40263969999796,370.40263969999796,370.40263969999796,,002,P015,2025_Feb_28_1757,ConditionRich,2021.2.3,59.90470359672648,
340.0,340.75,7,0.75,Stimuli/P015/sun_aqdfrmtvewaapuqs.jpg,0,0.0,0.0,0,148,148,148,,,,,,,,,,,,,340.00129019999804,0.001290199998038588,None,373.6388275999998,373.6388275999998,373.6388275999998,373.6388275999998,373.6388275999998,373.6388275999998,373.6388275999998,373.6388275999998,373.6388275999998,373.6388275999998,,002,P015,2025_Feb_28_1757,ConditionRich,2021.2.3,59.90470359672648,
340.75,344.0,41,0.0,Stimuli/Blank.png,0,0.0,0.0,0,149,149,149,,,,,,,,,,,,,340.7677954999999,0.01779549999992014,None,374.3894909999981,374.3894909999981,374.3894909999981,374.3894909999981,374.3894909999981,374.3894909999981,374.3894909999981,374.3894909999981,374.3894909999981,374.3894909999981,,002,P015,2025_Feb_28_1757,ConditionRich,2021.2.3,59.90470359672648,
344.0,344.75,9,0.75,Stimuli/P015/sun_bbdgftzhpkaklkll.jpg,0,0.0,0.0,0,150,150,150,,,,,,,,,,,,,344.00700009999855,0.007000099998549558,None,377.6423813000001,377.6423813000001,377.6423813000001,377.6423813000001,377.6423813000001,377.6423813000001,377.6423813000001,377.6423813000001,377.6423813000001,377.6423813000001,,002,P015,2025_Feb_28_1757,ConditionRich,2021.2.3,59.90470359672648,
344.75,348.0,41,0.0,Stimuli/Blank.png,0,0.0,0.0,0,151,151,151,,,,,,,,,,,,,344.77147669999977,0.021476699999766424,None,378.39303389999986,378.39303389999986,378.39303389999986,378.39303389999986,378.39303389999986,378.39303389999986,378.39303389999986,378.39303389999986,378.39303389999986,378.39303389999986,,002,P015,2025_Feb_28_1757,ConditionRich,2021.2.3,59.90470359672648,
348.0,348.75,38,0.75,Stimuli/P015/things_trumpet_08s.jpg,0,0.0,0.0,0,152,152,152,,,,,,,,,,,,,348.0077371999978,0.007737199997791322,None,381.629226699999,381.629226699999,381.629226699999,381.629226699999,381.629226699999,381.629226699999,381.629226699999,381.629226699999,381.629226699999,381.629226699999,,002,P015,2025_Feb_28_1757,ConditionRich,2021.2.3,59.90470359672648,
348.75,352.0,41,0.0,Stimuli/Blank.png,0,0.0,0.0,0,153,153,153,,,,,,,,,,,,,348.75862380000035,0.008623800000350457,None,382.3798887999983,382.3798887999983,382.3798887999983,382.3798887999983,382.3798887999983,382.3798887999983,382.3798887999983,382.3798887999983,382.3798887999983,382.3798887999983,,002,P015,2025_Feb_28_1757,ConditionRich,2021.2.3,59.90470359672648,
352.0,352.75,39,0.75,Stimuli/P015/things_window_08s.jpg,0,0.0,0.0,0,154,154,154,,,,,,,,,,,,,352.014607000001,0.014607000000978587,None,385.6494688999992,385.6494688999992,385.6494688999992,385.6494688999992,385.6494688999992,385.6494688999992,385.6494688999992,385.6494688999992,385.6494688999992,385.6494688999992,,002,P015,2025_Feb_28_1757,ConditionRich,2021.2.3,59.90470359672648,
352.75,356.0,41,0.0,Stimuli/Blank.png,1,2.25,3.0,0,155,155,155,,,,,,,,,,,,,352.7786282999987,0.028628299998672446,1,386.40012019999995,386.40012019999995,386.40012019999995,386.40012019999995,386.40012019999995,386.40012019999995,388.6355345999982,389.3861369999977,386.40012019999995,386.40012019999995,2.7898963000006916,002,P015,2025_Feb_28_1757,ConditionRich,2021.2.3,59.90470359672648,
356.0,356.75,28,0.75,Stimuli/P015/things_latte_08s.jpg,0,0.0,0.0,0,156,156,156,,,,,,,,,,,,,356.0178453999979,0.017845399997895584,None,389.65300769999885,389.65300769999885,389.65300769999885,389.65300769999885,389.65300769999885,389.65300769999885,389.65300769999885,389.65300769999885,389.65300769999885,389.65300769999885,,002,P015,2025_Feb_28_1757,ConditionRich,2021.2.3,59.90470359672648,
356.75,360.0,41,0.0,Stimuli/Blank.png,0,0.0,0.0,0,157,157,157,,,,,,,,,,,,,356.7678928999994,0.017892899999424117,None,390.4036629000002,390.4036629000002,390.4036629000002,390.4036629000002,390.4036629000002,390.4036629000002,390.4036629000002,390.4036629000002,390.4036629000002,390.4036629000002,,002,P015,2025_Feb_28_1757,ConditionRich,2021.2.3,59.90470359672648,
360.0,360.75,31,0.75,Stimuli/P015/things_outlet_08s.jpg,0,0.0,0.0,0,158,158,158,,,,,,,,,,,,,360.0208243999987,0.02082439999867347,None,393.6565441999992,393.6565441999992,393.6565441999992,393.6565441999992,393.6565441999992,393.6565441999992,393.6565441999992,393.6565441999992,393.6565441999992,393.6565441999992,,002,P015,2025_Feb_28_1757,ConditionRich,2021.2.3,59.90470359672648,
360.75,364.0,41,0.0,Stimuli/Blank.png,1,1.25,2.0,0,159,159,159,,,,,,,,,,,,,360.7698868000007,0.019886800000676885,1,394.40727139999944,394.40727139999944,394.40727139999944,394.40727139999944,394.40727139999944,394.40727139999944,395.6249523999977,396.3756205999998,394.40727139999944,394.40727139999944,1.733418799998617,002,P015,2025_Feb_28_1757,ConditionRich,2021.2.3,59.90470359672648,
364.0,364.75,36,0.75,Stimuli/P015/things_streetlight_08s.jpg,0,0.0,0.0,0,160,160,160,,,,,,,,,,,,,364.02257069999905,0.022570699999050703,None,397.64341090000016,397.64341090000016,397.64341090000016,397.64341090000016,397.64341090000016,397.64341090000016,397.64341090000016,397.64341090000016,397.64341090000016,397.64341090000016,,002,P015,2025_Feb_28_1757,ConditionRich,2021.2.3,59.90470359672648,
364.75,368.0,41,0.0,Stimuli/Blank.png,0,0.0,0.0,0,161,161,161,,,,,,,,,,,,,364.75628660000075,0.0062866000007488765,None,398.37737729999935,398.37737729999935,398.37737729999935,398.37737729999935,398.37737729999935,398.37737729999935,398.37737729999935,398.37737729999935,398.37737729999935,398.37737729999935,,002,P015,2025_Feb_28_1757,ConditionRich,2021.2.3,59.90470359672648,
368.0,368.75,29,0.75,Stimuli/P015/things_mouse1_08s.jpg,0,0.0,0.0,0,162,162,162,,,,,,,,,,,,,368.00868179999816,0.008681799998157658,None,401.63026230000105,401.63026230000105,401.63026230000105,401.63026230000105,401.63026230000105,401.63026230000105,401.63026230000105,401.63026230000105,401.63026230000105,401.63026230000105,,002,P015,2025_Feb_28_1757,ConditionRich,2021.2.3,59.90470359672648,
368.75,372.0,41,0.0,Stimuli/Blank.png,1,0.25,1.0,0,163,163,163,,,,,,,,,,,,,368.76149520000035,0.011495200000354089,1,402.39761649999855,402.39761649999855,402.39761649999855,402.39761649999855,402.39761649999855,402.39761649999855,402.6311621999994,403.38181260000056,402.39761649999855,402.39761649999855,0.7970604000001913,002,P015,2025_Feb_28_1757,ConditionRich,2021.2.3,59.90470359672648,
372.0,388.0,0,0.0,Stimuli/Blank.png,1,6.0,6.75,0,164,164,164,,,,,,,,,,,,,372.02891140000065,0.028911400000652066,1,405.6504860999994,405.6504860999994,405.6504860999994,405.6504860999994,405.6504860999994,405.6504860999994,411.6391122999994,412.38977539999905,405.6504860999994,405.6504860999994,6.424287300000287,002,P015,2025_Feb_28_1757,ConditionRich,2021.2.3,59.90470359672648,
