eventStartTime,eventEndTime,eventCond,imSize,imFile,responseEvent,fixRespStart,fixRespEnd,Events.thisRepN,Events.thisTrialN,Events.thisN,Events.thisIndex,Instructions.started,Instructions.stopped,participantReadyResponse.keys,participantReadyResponse.rt,participantReadyResponse.started,participantReadyResponse.stopped,startWaitforTrigger,triggerResponse.keys,triggerResponse.rt,triggerResponse.started,triggerResponse.stopped,globalTimer,actualStartTime,startTimingDiff,participantResponse.keys,participantResponse.started,participantResponse.stopped,image.started,image.stopped,fixationOutside.started,fixationOutside.stopped,fixationResponse.started,fixationResponse.stopped,fixationInside.started,fixationInside.stopped,participantResponse.rt,session,participant,date,expName,psychopyVersion,frameRate,
,,,,,,,,,,,,12.63613560000158,None,1,5.864161299999978,12.63613560000158,None,,,,,,,,,,,,,,,,,,,,,006,P015,2025_Feb_28_1833,ConditionRich,2021.2.3,59.9351501673692,
,,,,,,,,,,,,,,,,,,18.5065222000012,5,16.783445699998992,18.519880899999407,None,,,,,,,,,,,,,,,,006,P015,2025_Feb_28_1833,ConditionRich,2021.2.3,59.9351501673692,
0.0,4.0,0,0.0,Stimuli/Blank.png,0,0,0.0,0,0,0,0,,,,,,,,,,,,35.320854900000995,0.060524799999257084,0.060524799999257084,None,35.40142410000044,None,35.40142410000044,None,35.40142410000044,None,35.40142410000044,35.40142410000044,35.40142410000044,None,,006,P015,2025_Feb_28_1833,ConditionRich,2021.2.3,59.9351501673692,
4.0,4.75,19,0.75,Stimuli/P015/sun_bzhwvgrzvttqoexa.jpg,0,0,0.0,0,1,1,1,,,,,,,,,,,,,4.020740199997817,0.0207401999978174,None,39.3551879000006,39.3551879000006,39.3551879000006,39.3551879000006,39.3551879000006,39.3551879000006,39.3551879000006,39.3551879000006,39.3551879000006,39.3551879000006,,006,P015,2025_Feb_28_1833,ConditionRich,2021.2.3,59.9351501673692,
4.75,5.0,41,0.0,Stimuli/Blank.png,0,0,0.0,0,2,2,2,,,,,,,,,,,,,4.755551099999138,0.005551099999138387,None,40.10589120000077,40.10589120000077,40.10589120000077,40.10589120000077,40.10589120000077,40.10589120000077,40.10589120000077,40.10589120000077,40.10589120000077,40.10589120000077,,006,P015,2025_Feb_28_1833,ConditionRich,2021.2.3,59.9351501673692,
5.0,5.75,19,0.75,Stimuli/P015/sun_bzhwvgrzvttqoexa.jpg,0,0,0.0,0,3,3,3,,,,,,,,,,,,,5.02098869999827,0.020988699998270022,None,40.372524300000805,40.372524300000805,40.372524300000805,40.372524300000805,40.372524300000805,40.372524300000805,40.372524300000805,40.372524300000805,40.372524300000805,40.372524300000805,,006,P015,2025_Feb_28_1833,ConditionRich,2021.2.3,59.9351501673692,
5.75,6.0,41,0.0,Stimuli/Blank.png,0,0,0.0,0,4,4,4,,,,,,,,,,,,,5.771771899999294,0.021771899999293964,None,41.106480599999486,41.106480599999486,41.106480599999486,41.106480599999486,41.106480599999486,41.106480599999486,41.106480599999486,41.106480599999486,41.106480599999486,41.106480599999486,,006,P015,2025_Feb_28_1833,ConditionRich,2021.2.3,59.9351501673692,
6.0,6.75,19,0.75,Stimuli/P015/sun_bzhwvgrzvttqoexa.jpg,0,0,0.0,0,5,5,5,,,,,,,,,,,,,6.005287199997838,0.005287199997837888,None,41.340011200001754,41.340011200001754,41.340011200001754,41.340011200001754,41.340011200001754,41.340011200001754,41.340011200001754,41.340011200001754,41.340011200001754,41.340011200001754,,006,P015,2025_Feb_28_1833,ConditionRich,2021.2.3,59.9351501673692,
6.75,7.0,41,0.0,Stimuli/Blank.png,0,0,0.0,0,6,6,6,,,,,,,,,,,,,6.756067599999369,0.006067599999369122,None,42.09069889999955,42.09069889999955,42.09069889999955,42.09069889999955,42.09069889999955,42.09069889999955,42.09069889999955,42.09069889999955,42.09069889999955,42.09069889999955,,006,P015,2025_Feb_28_1833,ConditionRich,2021.2.3,59.9351501673692,
7.0,7.75,19,0.75,Stimuli/P015/sun_bzhwvgrzvttqoexa.jpg,0,0,0.0,0,7,7,7,,,,,,,,,,,,,7.005540199999814,0.005540199999813922,None,42.3408958,42.3408958,42.3408958,42.3408958,42.3408958,42.3408958,42.3408958,42.3408958,42.3408958,42.3408958,,006,P015,2025_Feb_28_1833,ConditionRich,2021.2.3,59.9351501673692,
7.75,8.0,41,0.0,Stimuli/Blank.png,0,0,0.0,0,8,8,8,,,,,,,,,,,,,7.756109499998274,0.006109499998274259,None,43.09157260000211,43.09157260000211,43.09157260000211,43.09157260000211,43.09157260000211,43.09157260000211,43.09157260000211,43.09157260000211,43.09157260000211,43.09157260000211,,006,P015,2025_Feb_28_1833,ConditionRich,2021.2.3,59.9351501673692,
8.0,8.75,15,0.75,Stimuli/P015/sun_bvfcijehgdsndfbg.jpg,0,0,0.0,0,9,9,9,,,,,,,,,,,,,8.006349999999657,0.006349999999656575,None,43.34179170000061,43.34179170000061,43.34179170000061,43.34179170000061,43.34179170000061,43.34179170000061,43.34179170000061,43.34179170000061,43.34179170000061,43.34179170000061,,006,P015,2025_Feb_28_1833,ConditionRich,2021.2.3,59.9351501673692,
8.75,9.0,41,0.0,Stimuli/Blank.png,0,0,0.0,0,10,10,10,,,,,,,,,,,,,8.75787279999713,0.007872799997130642,None,44.09246360000179,44.09246360000179,44.09246360000179,44.09246360000179,44.09246360000179,44.09246360000179,44.09246360000179,44.09246360000179,44.09246360000179,44.09246360000179,,006,P015,2025_Feb_28_1833,ConditionRich,2021.2.3,59.9351501673692,
9.0,9.75,15,0.75,Stimuli/P015/sun_bvfcijehgdsndfbg.jpg,0,0,0.0,0,11,11,11,,,,,,,,,,,,,9.00717319999967,0.007173199999670032,None,44.3426713000008,44.3426713000008,44.3426713000008,44.3426713000008,44.3426713000008,44.3426713000008,44.3426713000008,44.3426713000008,44.3426713000008,44.3426713000008,,006,P015,2025_Feb_28_1833,ConditionRich,2021.2.3,59.9351501673692,
9.75,10.0,41,0.0,Stimuli/Blank.png,0,0,0.0,0,12,12,12,,,,,,,,,,,,,9.758701299997483,0.008701299997483147,None,45.09334189999936,45.09334189999936,45.09334189999936,45.09334189999936,45.09334189999936,45.09334189999936,45.09334189999936,45.09334189999936,45.09334189999936,45.09334189999936,,006,P015,2025_Feb_28_1833,ConditionRich,2021.2.3,59.9351501673692,
10.0,10.75,15,0.75,Stimuli/P015/sun_bvfcijehgdsndfbg.jpg,0,0,0.0,0,13,13,13,,,,,,,,,,,,,10.008864799998264,0.008864799998264061,None,45.36023480000222,45.36023480000222,45.36023480000222,45.36023480000222,45.36023480000222,45.36023480000222,45.36023480000222,45.36023480000222,45.36023480000222,45.36023480000222,,006,P015,2025_Feb_28_1833,ConditionRich,2021.2.3,59.9351501673692,
10.75,11.0,41,0.0,Stimuli/Blank.png,0,0,0.0,0,14,14,14,,,,,,,,,,,,,10.776006599997345,0.026006599997344892,None,46.110906000001705,46.110906000001705,46.110906000001705,46.110906000001705,46.110906000001705,46.110906000001705,46.110906000001705,46.110906000001705,46.110906000001705,46.110906000001705,,006,P015,2025_Feb_28_1833,ConditionRich,2021.2.3,59.9351501673692,
11.0,11.75,15,0.75,Stimuli/P015/sun_bvfcijehgdsndfbg.jpg,0,0,0.0,0,15,15,15,,,,,,,,,,,,,11.010069799998746,0.01006979999874602,None,46.34444950000034,46.34444950000034,46.34444950000034,46.34444950000034,46.34444950000034,46.34444950000034,46.34444950000034,46.34444950000034,46.34444950000034,46.34444950000034,,006,P015,2025_Feb_28_1833,ConditionRich,2021.2.3,59.9351501673692,
11.75,12.0,41,0.0,Stimuli/Blank.png,0,0,0.0,0,16,16,16,,,,,,,,,,,,,11.75991040000008,0.009910400000080699,None,47.095106900000246,47.095106900000246,47.095106900000246,47.095106900000246,47.095106900000246,47.095106900000246,47.095106900000246,47.095106900000246,47.095106900000246,47.095106900000246,,006,P015,2025_Feb_28_1833,ConditionRich,2021.2.3,59.9351501673692,
12.0,12.75,25,0.75,Stimuli/P015/things_deer_08s.jpg,0,0,0.0,0,17,17,17,,,,,,,,,,,,,12.010810599997058,0.01081059999705758,None,47.34533770000053,47.34533770000053,47.34533770000053,47.34533770000053,47.34533770000053,47.34533770000053,47.34533770000053,47.34533770000053,47.34533770000053,47.34533770000053,,006,P015,2025_Feb_28_1833,ConditionRich,2021.2.3,59.9351501673692,
12.75,13.0,41,0.0,Stimuli/Blank.png,0,0,0.0,0,18,18,18,,,,,,,,,,,,,12.760658399998647,0.010658399998646928,None,48.09599050000179,48.09599050000179,48.09599050000179,48.09599050000179,48.09599050000179,48.09599050000179,48.09599050000179,48.09599050000179,48.09599050000179,48.09599050000179,,006,P015,2025_Feb_28_1833,ConditionRich,2021.2.3,59.9351501673692,
13.0,13.75,25,0.75,Stimuli/P015/things_deer_08s.jpg,0,0,0.0,0,19,19,19,,,,,,,,,,,,,13.010977199999616,0.01097719999961555,None,48.346211300002324,48.346211300002324,48.346211300002324,48.346211300002324,48.346211300002324,48.346211300002324,48.346211300002324,48.346211300002324,48.346211300002324,48.346211300002324,,006,P015,2025_Feb_28_1833,ConditionRich,2021.2.3,59.9351501673692,
13.75,14.0,41,0.0,Stimuli/Blank.png,0,0,0.0,0,20,20,20,,,,,,,,,,,,,13.76138119999814,0.0113811999981408,None,49.09687789999953,49.09687789999953,49.09687789999953,49.09687789999953,49.09687789999953,49.09687789999953,49.09687789999953,49.09687789999953,49.09687789999953,49.09687789999953,,006,P015,2025_Feb_28_1833,ConditionRich,2021.2.3,59.9351501673692,
14.0,14.75,25,0.75,Stimuli/P015/things_deer_08s.jpg,0,0,0.0,0,21,21,21,,,,,,,,,,,,,14.011633599999186,0.011633599999186117,None,49.34709710000243,49.34709710000243,49.34709710000243,49.34709710000243,49.34709710000243,49.34709710000243,49.34709710000243,49.34709710000243,49.34709710000243,49.34709710000243,,006,P015,2025_Feb_28_1833,ConditionRich,2021.2.3,59.9351501673692,
14.75,15.0,41,0.0,Stimuli/Blank.png,0,0,0.0,0,22,22,22,,,,,,,,,,,,,14.763059199998679,0.013059199998679105,None,50.09784700000091,50.09784700000091,50.09784700000091,50.09784700000091,50.09784700000091,50.09784700000091,50.09784700000091,50.09784700000091,50.09784700000091,50.09784700000091,,006,P015,2025_Feb_28_1833,ConditionRich,2021.2.3,59.9351501673692,
15.0,15.75,25,0.75,Stimuli/P015/things_deer_08s.jpg,0,0,0.0,0,23,23,23,,,,,,,,,,,,,15.013302999999723,0.013302999999723397,None,50.36467330000232,50.36467330000232,50.36467330000232,50.36467330000232,50.36467330000232,50.36467330000232,50.36467330000232,50.36467330000232,50.36467330000232,50.36467330000232,,006,P015,2025_Feb_28_1833,ConditionRich,2021.2.3,59.9351501673692,
15.75,16.0,41,0.0,Stimuli/Blank.png,0,0,0.0,0,24,24,24,,,,,,,,,,,,,15.7798987999995,0.029898799999500625,None,51.115328200001386,51.115328200001386,51.115328200001386,51.115328200001386,51.115328200001386,51.115328200001386,51.115328200001386,51.115328200001386,51.115328200001386,51.115328200001386,,006,P015,2025_Feb_28_1833,ConditionRich,2021.2.3,59.9351501673692,
16.0,16.75,12,0.75,Stimuli/P015/sun_boffixsnbbloarty.jpg,0,0,0.0,0,25,25,25,,,,,,,,,,,,,16.014598099998693,0.014598099998693215,None,51.36555480000243,51.36555480000243,51.36555480000243,51.36555480000243,51.36555480000243,51.36555480000243,51.36555480000243,51.36555480000243,51.36555480000243,51.36555480000243,,006,P015,2025_Feb_28_1833,ConditionRich,2021.2.3,59.9351501673692,
16.75,17.0,41,0.0,Stimuli/Blank.png,0,0,0.0,0,26,26,26,,,,,,,,,,,,,16.780881599999702,0.030881599999702303,None,52.11621709999963,52.11621709999963,52.11621709999963,52.11621709999963,52.11621709999963,52.11621709999963,52.11621709999963,52.11621709999963,52.11621709999963,52.11621709999963,,006,P015,2025_Feb_28_1833,ConditionRich,2021.2.3,59.9351501673692,
17.0,17.75,12,0.75,Stimuli/P015/sun_boffixsnbbloarty.jpg,0,0,0.0,0,27,27,27,,,,,,,,,,,,,17.0153535999998,0.015353599999798462,None,52.36644090000118,52.36644090000118,52.36644090000118,52.36644090000118,52.36644090000118,52.36644090000118,52.36644090000118,52.36644090000118,52.36644090000118,52.36644090000118,,006,P015,2025_Feb_28_1833,ConditionRich,2021.2.3,59.9351501673692,
17.75,18.0,41,0.0,Stimuli/Blank.png,0,0,0.0,0,28,28,28,,,,,,,,,,,,,17.766541499997402,0.016541499997401843,None,53.11712830000033,53.11712830000033,53.11712830000033,53.11712830000033,53.11712830000033,53.11712830000033,53.11712830000033,53.11712830000033,53.11712830000033,53.11712830000033,,006,P015,2025_Feb_28_1833,ConditionRich,2021.2.3,59.9351501673692,
18.0,18.75,12,0.75,Stimuli/P015/sun_boffixsnbbloarty.jpg,1,0,0.75,0,29,29,29,,,,,,,,,,,,,18.015380999997433,0.01538099999743281,1,53.35064400000192,53.35064400000192,53.35064400000192,53.35064400000192,53.35064400000192,53.35064400000192,53.35064400000192,None,53.35064400000192,53.35064400000192,0.553950999998051,006,P015,2025_Feb_28_1833,ConditionRich,2021.2.3,59.9351501673692,
18.75,19.0,41,0.0,Stimuli/Blank.png,0,0,0.0,0,30,30,30,,,,,,,,,,,,,18.751169699997263,0.0011696999972627964,None,54.0846332000001,54.0846332000001,54.0846332000001,54.0846332000001,54.0846332000001,54.0846332000001,54.0846332000001,54.0846332000001,54.0846332000001,54.0846332000001,,006,P015,2025_Feb_28_1833,ConditionRich,2021.2.3,59.9351501673692,
19.0,19.75,12,0.75,Stimuli/P015/sun_boffixsnbbloarty.jpg,0,0,0.0,0,31,31,31,,,,,,,,,,,,,19.00067130000025,0.0006713000002491754,None,54.351556900001015,54.351556900001015,54.351556900001015,54.351556900001015,54.351556900001015,54.351556900001015,54.351556900001015,54.351556900001015,54.351556900001015,54.351556900001015,,006,P015,2025_Feb_28_1833,ConditionRich,2021.2.3,59.9351501673692,
19.75,20.0,41,0.0,Stimuli/Blank.png,0,0,0.0,0,32,32,32,,,,,,,,,,,,,19.766846200000145,0.016846200000145473,None,55.102198900000076,55.102198900000076,55.102198900000076,55.102198900000076,55.102198900000076,55.102198900000076,55.102198900000076,55.102198900000076,55.102198900000076,55.102198900000076,,006,P015,2025_Feb_28_1833,ConditionRich,2021.2.3,59.9351501673692,
20.0,20.75,6,0.75,Stimuli/P015/sun_akecfasimgpbqcnt.jpg,0,0,0.0,0,33,33,33,,,,,,,,,,,,,20.000943499999266,0.0009434999992663506,None,55.33573120000074,55.33573120000074,55.33573120000074,55.33573120000074,55.33573120000074,55.33573120000074,55.33573120000074,55.33573120000074,55.33573120000074,55.33573120000074,,006,P015,2025_Feb_28_1833,ConditionRich,2021.2.3,59.9351501673692,
20.75,21.0,41,0.0,Stimuli/Blank.png,0,0,0.0,0,34,34,34,,,,,,,,,,,,,20.751231299997016,0.0012312999970163219,None,56.08640170000217,56.08640170000217,56.08640170000217,56.08640170000217,56.08640170000217,56.08640170000217,56.08640170000217,56.08640170000217,56.08640170000217,56.08640170000217,,006,P015,2025_Feb_28_1833,ConditionRich,2021.2.3,59.9351501673692,
21.0,21.75,6,0.75,Stimuli/P015/sun_akecfasimgpbqcnt.jpg,0,0,0.0,0,35,35,35,,,,,,,,,,,,,21.001262199999474,0.0012621999994735233,None,56.336615000000165,56.336615000000165,56.336615000000165,56.336615000000165,56.336615000000165,56.336615000000165,56.336615000000165,56.336615000000165,56.336615000000165,56.336615000000165,,006,P015,2025_Feb_28_1833,ConditionRich,2021.2.3,59.9351501673692,
21.75,22.0,41,0.0,Stimuli/Blank.png,0,0,0.0,0,36,36,36,,,,,,,,,,,,,21.752667400000064,0.0026674000000639353,None,57.08728730000075,57.08728730000075,57.08728730000075,57.08728730000075,57.08728730000075,57.08728730000075,57.08728730000075,57.08728730000075,57.08728730000075,57.08728730000075,,006,P015,2025_Feb_28_1833,ConditionRich,2021.2.3,59.9351501673692,
22.0,22.75,6,0.75,Stimuli/P015/sun_akecfasimgpbqcnt.jpg,0,0,0.0,0,37,37,37,,,,,,,,,,,,,22.00216569999975,0.002165699999750359,None,57.33749900000112,57.33749900000112,57.33749900000112,57.33749900000112,57.33749900000112,57.33749900000112,57.33749900000112,57.33749900000112,57.33749900000112,57.33749900000112,,006,P015,2025_Feb_28_1833,ConditionRich,2021.2.3,59.9351501673692,
22.75,23.0,41,0.0,Stimuli/Blank.png,0,0,0.0,0,38,38,38,,,,,,,,,,,,,22.7527771999994,0.0027771999994001817,None,58.088169099999504,58.088169099999504,58.088169099999504,58.088169099999504,58.088169099999504,58.088169099999504,58.088169099999504,58.088169099999504,58.088169099999504,58.088169099999504,,006,P015,2025_Feb_28_1833,ConditionRich,2021.2.3,59.9351501673692,
23.0,23.75,6,0.75,Stimuli/P015/sun_akecfasimgpbqcnt.jpg,0,0,0.0,0,39,39,39,,,,,,,,,,,,,23.002999099997396,0.002999099997396115,None,58.33839530000114,58.33839530000114,58.33839530000114,58.33839530000114,58.33839530000114,58.33839530000114,58.33839530000114,58.33839530000114,58.33839530000114,58.33839530000114,,006,P015,2025_Feb_28_1833,ConditionRich,2021.2.3,59.9351501673692,
23.75,24.0,41,0.0,Stimuli/Blank.png,0,0,0.0,0,40,40,40,,,,,,,,,,,,,23.753825799998594,0.003825799998594448,None,59.08905260000029,59.08905260000029,59.08905260000029,59.08905260000029,59.08905260000029,59.08905260000029,59.08905260000029,59.08905260000029,59.08905260000029,59.08905260000029,,006,P015,2025_Feb_28_1833,ConditionRich,2021.2.3,59.9351501673692,
24.0,24.75,36,0.75,Stimuli/P015/things_streetlight_08s.jpg,0,0,0.0,0,41,41,41,,,,,,,,,,,,,24.003898399998434,0.003898399998433888,None,59.33928410000226,59.33928410000226,59.33928410000226,59.33928410000226,59.33928410000226,59.33928410000226,59.33928410000226,59.33928410000226,59.33928410000226,59.33928410000226,,006,P015,2025_Feb_28_1833,ConditionRich,2021.2.3,59.9351501673692,
24.75,25.0,41,0.0,Stimuli/Blank.png,0,0,0.0,0,42,42,42,,,,,,,,,,,,,24.75443230000019,0.004432300000189571,None,60.08994370000073,60.08994370000073,60.08994370000073,60.08994370000073,60.08994370000073,60.08994370000073,60.08994370000073,60.08994370000073,60.08994370000073,60.08994370000073,,006,P015,2025_Feb_28_1833,ConditionRich,2021.2.3,59.9351501673692,
25.0,25.75,36,0.75,Stimuli/P015/things_streetlight_08s.jpg,0,0,0.0,0,43,43,43,,,,,,,,,,,,,25.007763999998133,0.007763999998132931,None,60.35685350000131,60.35685350000131,60.35685350000131,60.35685350000131,60.35685350000131,60.35685350000131,60.35685350000131,60.35685350000131,60.35685350000131,60.35685350000131,,006,P015,2025_Feb_28_1833,ConditionRich,2021.2.3,59.9351501673692,
25.75,26.0,41,0.0,Stimuli/Blank.png,0,0,0.0,0,44,44,44,,,,,,,,,,,,,25.773052499996993,0.023052499996992992,None,61.10751430000164,61.10751430000164,61.10751430000164,61.10751430000164,61.10751430000164,61.10751430000164,61.10751430000164,61.10751430000164,61.10751430000164,61.10751430000164,,006,P015,2025_Feb_28_1833,ConditionRich,2021.2.3,59.9351501673692,
26.0,26.75,36,0.75,Stimuli/P015/things_streetlight_08s.jpg,0,0,0.0,0,45,45,45,,,,,,,,,,,,,26.00675819999742,0.006758199997420888,None,61.3410455000012,61.3410455000012,61.3410455000012,61.3410455000012,61.3410455000012,61.3410455000012,61.3410455000012,61.3410455000012,61.3410455000012,61.3410455000012,,006,P015,2025_Feb_28_1833,ConditionRich,2021.2.3,59.9351501673692,
26.75,27.0,41,0.0,Stimuli/Blank.png,0,0,0.0,0,46,46,46,,,,,,,,,,,,,26.75670220000029,0.006702200000290759,None,62.09170970000196,62.09170970000196,62.09170970000196,62.09170970000196,62.09170970000196,62.09170970000196,62.09170970000196,62.09170970000196,62.09170970000196,62.09170970000196,,006,P015,2025_Feb_28_1833,ConditionRich,2021.2.3,59.9351501673692,
27.0,27.75,36,0.75,Stimuli/P015/things_streetlight_08s.jpg,0,0,0.0,0,47,47,47,,,,,,,,,,,,,27.00777989999915,0.007779899999150075,None,62.3419395000019,62.3419395000019,62.3419395000019,62.3419395000019,62.3419395000019,62.3419395000019,62.3419395000019,62.3419395000019,62.3419395000019,62.3419395000019,,006,P015,2025_Feb_28_1833,ConditionRich,2021.2.3,59.9351501673692,
27.75,28.0,41,0.0,Stimuli/Blank.png,0,0,0.0,0,48,48,48,,,,,,,,,,,,,27.757844899999327,0.007844899999327026,None,63.09260369999902,63.09260369999902,63.09260369999902,63.09260369999902,63.09260369999902,63.09260369999902,63.09260369999902,63.09260369999902,63.09260369999902,63.09260369999902,,006,P015,2025_Feb_28_1833,ConditionRich,2021.2.3,59.9351501673692,
28.0,28.75,14,0.75,Stimuli/P015/sun_bpvmkbyglkraoxhh.jpg,0,0,0.0,0,49,49,49,,,,,,,,,,,,,28.008256999997684,0.008256999997684034,None,63.34285240000099,63.34285240000099,63.34285240000099,63.34285240000099,63.34285240000099,63.34285240000099,63.34285240000099,63.34285240000099,63.34285240000099,63.34285240000099,,006,P015,2025_Feb_28_1833,ConditionRich,2021.2.3,59.9351501673692,
28.75,29.0,41,0.0,Stimuli/Blank.png,0,0,0.0,0,50,50,50,,,,,,,,,,,,,28.758835599997838,0.008835599997837562,None,64.09347740000158,64.09347740000158,64.09347740000158,64.09347740000158,64.09347740000158,64.09347740000158,64.09347740000158,64.09347740000158,64.09347740000158,64.09347740000158,,006,P015,2025_Feb_28_1833,ConditionRich,2021.2.3,59.9351501673692,
29.0,29.75,14,0.75,Stimuli/P015/sun_bpvmkbyglkraoxhh.jpg,0,0,0.0,0,51,51,51,,,,,,,,,,,,,29.00858529999823,0.008585299998230767,None,64.34370510000008,64.34370510000008,64.34370510000008,64.34370510000008,64.34370510000008,64.34370510000008,64.34370510000008,64.34370510000008,64.34370510000008,64.34370510000008,,006,P015,2025_Feb_28_1833,ConditionRich,2021.2.3,59.9351501673692,
29.75,30.0,41,0.0,Stimuli/Blank.png,0,0,0.0,0,52,52,52,,,,,,,,,,,,,29.759616299998015,0.009616299998015165,None,65.09437389999948,65.09437389999948,65.09437389999948,65.09437389999948,65.09437389999948,65.09437389999948,65.09437389999948,65.09437389999948,65.09437389999948,65.09437389999948,,006,P015,2025_Feb_28_1833,ConditionRich,2021.2.3,59.9351501673692,
30.0,30.75,14,0.75,Stimuli/P015/sun_bpvmkbyglkraoxhh.jpg,0,0,0.0,0,53,53,53,,,,,,,,,,,,,30.00963729999785,0.009637299997848459,None,65.34459040000002,65.34459040000002,65.34459040000002,65.34459040000002,65.34459040000002,65.34459040000002,65.34459040000002,65.34459040000002,65.34459040000002,65.34459040000002,,006,P015,2025_Feb_28_1833,ConditionRich,2021.2.3,59.9351501673692,
30.75,31.0,41,0.0,Stimuli/Blank.png,0,0,0.0,0,54,54,54,,,,,,,,,,,,,30.75989539999864,0.009895399998640642,None,66.09523540000009,66.09523540000009,66.09523540000009,66.09523540000009,66.09523540000009,66.09523540000009,66.09523540000009,66.09523540000009,66.09523540000009,66.09523540000009,,006,P015,2025_Feb_28_1833,ConditionRich,2021.2.3,59.9351501673692,
31.0,31.75,14,0.75,Stimuli/P015/sun_bpvmkbyglkraoxhh.jpg,0,0,0.0,0,55,55,55,,,,,,,,,,,,,31.010046199997305,0.010046199997304939,None,66.34548229999928,66.34548229999928,66.34548229999928,66.34548229999928,66.34548229999928,66.34548229999928,66.34548229999928,66.34548229999928,66.34548229999928,66.34548229999928,,006,P015,2025_Feb_28_1833,ConditionRich,2021.2.3,59.9351501673692,
31.75,32.0,41,0.0,Stimuli/Blank.png,0,0,0.0,0,56,56,56,,,,,,,,,,,,,31.760620400000334,0.010620400000334485,None,67.09613650000028,67.09613650000028,67.09613650000028,67.09613650000028,67.09613650000028,67.09613650000028,67.09613650000028,67.09613650000028,67.09613650000028,67.09613650000028,,006,P015,2025_Feb_28_1833,ConditionRich,2021.2.3,59.9351501673692,
32.0,32.75,28,0.75,Stimuli/P015/things_latte_08s.jpg,0,0,0.0,0,57,57,57,,,,,,,,,,,,,32.01187899999786,0.011878999997861683,None,67.36305720000018,67.36305720000018,67.36305720000018,67.36305720000018,67.36305720000018,67.36305720000018,67.36305720000018,67.36305720000018,67.36305720000018,67.36305720000018,,006,P015,2025_Feb_28_1833,ConditionRich,2021.2.3,59.9351501673692,
32.75,33.0,41,0.0,Stimuli/Blank.png,0,0,0.0,0,58,58,58,,,,,,,,,,,,,32.78127989999848,0.03127989999848069,None,68.1303966000014,68.1303966000014,68.1303966000014,68.1303966000014,68.1303966000014,68.1303966000014,68.1303966000014,68.1303966000014,68.1303966000014,68.1303966000014,,006,P015,2025_Feb_28_1833,ConditionRich,2021.2.3,59.9351501673692,
33.0,33.75,28,0.75,Stimuli/P015/things_latte_08s.jpg,0,0,0.0,0,59,59,59,,,,,,,,,,,,,33.02913929999704,0.029139299997041235,None,68.38061400000151,68.38061400000151,68.38061400000151,68.38061400000151,68.38061400000151,68.38061400000151,68.38061400000151,68.38061400000151,68.38061400000151,68.38061400000151,,006,P015,2025_Feb_28_1833,ConditionRich,2021.2.3,59.9351501673692,
33.75,34.0,41,0.0,Stimuli/Blank.png,0,0,0.0,0,60,60,60,,,,,,,,,,,,,33.780265399997006,0.03026539999700617,None,69.11459459999969,69.11459459999969,69.11459459999969,69.11459459999969,69.11459459999969,69.11459459999969,69.11459459999969,69.11459459999969,69.11459459999969,69.11459459999969,,006,P015,2025_Feb_28_1833,ConditionRich,2021.2.3,59.9351501673692,
34.0,34.75,28,0.75,Stimuli/P015/things_latte_08s.jpg,0,0,0.0,0,61,61,61,,,,,,,,,,,,,34.01313239999945,0.013132399999449262,None,69.36483539999972,69.36483539999972,69.36483539999972,69.36483539999972,69.36483539999972,69.36483539999972,69.36483539999972,69.36483539999972,69.36483539999972,69.36483539999972,,006,P015,2025_Feb_28_1833,ConditionRich,2021.2.3,59.9351501673692,
34.75,35.0,41,0.0,Stimuli/Blank.png,0,0,0.0,0,62,62,62,,,,,,,,,,,,,34.78121739999915,0.031217399999150075,None,70.11548659999971,70.11548659999971,70.11548659999971,70.11548659999971,70.11548659999971,70.11548659999971,70.11548659999971,70.11548659999971,70.11548659999971,70.11548659999971,,006,P015,2025_Feb_28_1833,ConditionRich,2021.2.3,59.9351501673692,
35.0,35.75,28,0.75,Stimuli/P015/things_latte_08s.jpg,0,0,0.0,0,63,63,63,,,,,,,,,,,,,35.01562479999848,0.015624799998477101,None,70.36570679999932,70.36570679999932,70.36570679999932,70.36570679999932,70.36570679999932,70.36570679999932,70.36570679999932,70.36570679999932,70.36570679999932,70.36570679999932,,006,P015,2025_Feb_28_1833,ConditionRich,2021.2.3,59.9351501673692,
35.75,36.0,41,0.0,Stimuli/Blank.png,0,0,0.0,0,64,64,64,,,,,,,,,,,,,35.76497129999916,0.014971299999160692,None,71.09968619999927,71.09968619999927,71.09968619999927,71.09968619999927,71.09968619999927,71.09968619999927,71.09968619999927,71.09968619999927,71.09968619999927,71.09968619999927,,006,P015,2025_Feb_28_1833,ConditionRich,2021.2.3,59.9351501673692,
36.0,36.75,30,0.75,Stimuli/P015/things_ottoman_08s.jpg,0,0,0.0,0,65,65,65,,,,,,,,,,,,,36.01576129999739,0.015761299997393508,None,71.34990610000023,71.34990610000023,71.34990610000023,71.34990610000023,71.34990610000023,71.34990610000023,71.34990610000023,71.34990610000023,71.34990610000023,71.34990610000023,,006,P015,2025_Feb_28_1833,ConditionRich,2021.2.3,59.9351501673692,
36.75,37.0,41,0.0,Stimuli/Blank.png,0,0,0.0,0,66,66,66,,,,,,,,,,,,,36.75119569999879,0.0011956999987887684,None,72.10059510000065,72.10059510000065,72.10059510000065,72.10059510000065,72.10059510000065,72.10059510000065,72.10059510000065,72.10059510000065,72.10059510000065,72.10059510000065,,006,P015,2025_Feb_28_1833,ConditionRich,2021.2.3,59.9351501673692,
37.0,37.75,30,0.75,Stimuli/P015/things_ottoman_08s.jpg,0,0,0.0,0,67,67,67,,,,,,,,,,,,,37.01666679999835,0.016666799998347415,None,72.36749530000088,72.36749530000088,72.36749530000088,72.36749530000088,72.36749530000088,72.36749530000088,72.36749530000088,72.36749530000088,72.36749530000088,72.36749530000088,,006,P015,2025_Feb_28_1833,ConditionRich,2021.2.3,59.9351501673692,
37.75,38.0,41,0.0,Stimuli/Blank.png,0,0,0.0,0,68,68,68,,,,,,,,,,,,,37.76652489999833,0.01652489999833051,None,73.10145460000058,73.10145460000058,73.10145460000058,73.10145460000058,73.10145460000058,73.10145460000058,73.10145460000058,73.10145460000058,73.10145460000058,73.10145460000058,,006,P015,2025_Feb_28_1833,ConditionRich,2021.2.3,59.9351501673692,
38.0,38.75,30,0.75,Stimuli/P015/things_ottoman_08s.jpg,0,0,0.0,0,69,69,69,,,,,,,,,,,,,37.99996029999966,-3.97000003431458e-05,None,73.33502550000048,73.33502550000048,73.33502550000048,73.33502550000048,73.33502550000048,73.33502550000048,73.33502550000048,73.33502550000048,73.33502550000048,73.33502550000048,,006,P015,2025_Feb_28_1833,ConditionRich,2021.2.3,59.9351501673692,
38.75,39.0,41,0.0,Stimuli/Blank.png,0,0,0.0,0,70,70,70,,,,,,,,,,,,,38.75113449999844,0.0011344999984430615,None,74.08566190000056,74.08566190000056,74.08566190000056,74.08566190000056,74.08566190000056,74.08566190000056,74.08566190000056,74.08566190000056,74.08566190000056,74.08566190000056,,006,P015,2025_Feb_28_1833,ConditionRich,2021.2.3,59.9351501673692,
39.0,39.75,30,0.75,Stimuli/P015/things_ottoman_08s.jpg,0,0,0.0,0,71,71,71,,,,,,,,,,,,,39.00284709999687,0.0028470999968703836,None,74.35257379999894,74.35257379999894,74.35257379999894,74.35257379999894,74.35257379999894,74.35257379999894,74.35257379999894,74.35257379999894,74.35257379999894,74.35257379999894,,006,P015,2025_Feb_28_1833,ConditionRich,2021.2.3,59.9351501673692,
39.75,40.0,41,0.0,Stimuli/Blank.png,0,0,0.0,0,72,72,72,,,,,,,,,,,,,39.767761600000085,0.01776160000008531,None,75.1032363000013,75.1032363000013,75.1032363000013,75.1032363000013,75.1032363000013,75.1032363000013,75.1032363000013,75.1032363000013,75.1032363000013,75.1032363000013,,006,P015,2025_Feb_28_1833,ConditionRich,2021.2.3,59.9351501673692,
40.0,40.75,11,0.75,Stimuli/P015/sun_bnwmcjuinqbdsbho.jpg,0,0,0.0,0,73,73,73,,,,,,,,,,,,,40.00204909999957,0.002049099999567261,None,75.33676670000204,75.33676670000204,75.33676670000204,75.33676670000204,75.33676670000204,75.33676670000204,75.33676670000204,75.33676670000204,75.33676670000204,75.33676670000204,,006,P015,2025_Feb_28_1833,ConditionRich,2021.2.3,59.9351501673692,
40.75,41.0,41,0.0,Stimuli/Blank.png,0,0,0.0,0,74,74,74,,,,,,,,,,,,,40.75187309999819,0.0018730999981926288,None,76.08742210000128,76.08742210000128,76.08742210000128,76.08742210000128,76.08742210000128,76.08742210000128,76.08742210000128,76.08742210000128,76.08742210000128,76.08742210000128,,006,P015,2025_Feb_28_1833,ConditionRich,2021.2.3,59.9351501673692,
41.0,41.75,11,0.75,Stimuli/P015/sun_bnwmcjuinqbdsbho.jpg,0,0,0.0,0,75,75,75,,,,,,,,,,,,,41.002401499998086,0.002401499998086365,None,76.3376516999997,76.3376516999997,76.3376516999997,76.3376516999997,76.3376516999997,76.3376516999997,76.3376516999997,76.3376516999997,76.3376516999997,76.3376516999997,,006,P015,2025_Feb_28_1833,ConditionRich,2021.2.3,59.9351501673692,
41.75,42.0,41,0.0,Stimuli/Blank.png,0,0,0.0,0,76,76,76,,,,,,,,,,,,,41.753431599998294,0.0034315999982936773,None,77.08831110000028,77.08831110000028,77.08831110000028,77.08831110000028,77.08831110000028,77.08831110000028,77.08831110000028,77.08831110000028,77.08831110000028,77.08831110000028,,006,P015,2025_Feb_28_1833,ConditionRich,2021.2.3,59.9351501673692,
42.0,42.75,11,0.75,Stimuli/P015/sun_bnwmcjuinqbdsbho.jpg,0,0,0.0,0,77,77,77,,,,,,,,,,,,,42.003071699997236,0.003071699997235555,None,77.33854160000192,77.33854160000192,77.33854160000192,77.33854160000192,77.33854160000192,77.33854160000192,77.33854160000192,77.33854160000192,77.33854160000192,77.33854160000192,,006,P015,2025_Feb_28_1833,ConditionRich,2021.2.3,59.9351501673692,
42.75,43.0,41,0.0,Stimuli/Blank.png,0,0,0.0,0,78,78,78,,,,,,,,,,,,,42.756578999997146,0.006578999997145729,None,78.10589170000094,78.10589170000094,78.10589170000094,78.10589170000094,78.10589170000094,78.10589170000094,78.10589170000094,78.10589170000094,78.10589170000094,78.10589170000094,,006,P015,2025_Feb_28_1833,ConditionRich,2021.2.3,59.9351501673692,
43.0,43.75,11,0.75,Stimuli/P015/sun_bnwmcjuinqbdsbho.jpg,1,0,0.75,0,79,79,79,,,,,,,,,,,,,43.02191219999804,0.021912199998041615,1,78.37278349999906,78.37278349999906,78.37278349999906,78.37278349999906,78.37278349999906,78.37278349999906,78.37278349999906,79.09011269999974,78.37278349999906,78.37278349999906,0.4575912000000244,006,P015,2025_Feb_28_1833,ConditionRich,2021.2.3,59.9351501673692,
43.75,44.0,41,0.0,Stimuli/Blank.png,0,0,0.0,0,80,80,80,,,,,,,,,,,,,43.772378599998774,0.022378599998774007,None,79.1067750000002,79.1067750000002,79.1067750000002,79.1067750000002,79.1067750000002,79.1067750000002,79.1067750000002,79.1067750000002,79.1067750000002,79.1067750000002,,006,P015,2025_Feb_28_1833,ConditionRich,2021.2.3,59.9351501673692,
44.0,44.75,33,0.75,Stimuli/P015/things_raccoon_08n.jpg,0,0,0.0,0,81,81,81,,,,,,,,,,,,,44.00485579999804,0.004855799998040311,None,79.34030340000027,79.34030340000027,79.34030340000027,79.34030340000027,79.34030340000027,79.34030340000027,79.34030340000027,79.34030340000027,79.34030340000027,79.34030340000027,,006,P015,2025_Feb_28_1833,ConditionRich,2021.2.3,59.9351501673692,
44.75,45.0,41,0.0,Stimuli/Blank.png,0,0,0.0,0,82,82,82,,,,,,,,,,,,,44.756075899997086,0.0060758999970857985,None,80.09098660000018,80.09098660000018,80.09098660000018,80.09098660000018,80.09098660000018,80.09098660000018,80.09098660000018,80.09098660000018,80.09098660000018,80.09098660000018,,006,P015,2025_Feb_28_1833,ConditionRich,2021.2.3,59.9351501673692,
45.0,45.75,33,0.75,Stimuli/P015/things_raccoon_08n.jpg,0,0,0.0,0,83,83,83,,,,,,,,,,,,,45.00616009999794,0.00616009999794187,None,80.3411898000013,80.3411898000013,80.3411898000013,80.3411898000013,80.3411898000013,80.3411898000013,80.3411898000013,80.3411898000013,80.3411898000013,80.3411898000013,,006,P015,2025_Feb_28_1833,ConditionRich,2021.2.3,59.9351501673692,
45.75,46.0,41,0.0,Stimuli/Blank.png,0,0,0.0,0,84,84,84,,,,,,,,,,,,,45.758116699998936,0.008116699998936383,None,81.09187329999986,81.09187329999986,81.09187329999986,81.09187329999986,81.09187329999986,81.09187329999986,81.09187329999986,81.09187329999986,81.09187329999986,81.09187329999986,,006,P015,2025_Feb_28_1833,ConditionRich,2021.2.3,59.9351501673692,
46.0,46.75,33,0.75,Stimuli/P015/things_raccoon_08n.jpg,0,0,0.0,0,85,85,85,,,,,,,,,,,,,46.00768309999694,0.007683099996938836,None,81.34207900000183,81.34207900000183,81.34207900000183,81.34207900000183,81.34207900000183,81.34207900000183,81.34207900000183,81.34207900000183,81.34207900000183,81.34207900000183,,006,P015,2025_Feb_28_1833,ConditionRich,2021.2.3,59.9351501673692,
46.75,47.0,41,0.0,Stimuli/Blank.png,0,0,0.0,0,86,86,86,,,,,,,,,,,,,46.758399099999224,0.008399099999223836,None,82.09276730000056,82.09276730000056,82.09276730000056,82.09276730000056,82.09276730000056,82.09276730000056,82.09276730000056,82.09276730000056,82.09276730000056,82.09276730000056,,006,P015,2025_Feb_28_1833,ConditionRich,2021.2.3,59.9351501673692,
47.0,47.75,33,0.75,Stimuli/P015/things_raccoon_08n.jpg,0,0,0.0,0,87,87,87,,,,,,,,,,,,,47.00835279999956,0.008352799999556737,None,82.35966840000037,82.35966840000037,82.35966840000037,82.35966840000037,82.35966840000037,82.35966840000037,82.35966840000037,82.35966840000037,82.35966840000037,82.35966840000037,,006,P015,2025_Feb_28_1833,ConditionRich,2021.2.3,59.9351501673692,
47.75,48.0,41,0.0,Stimuli/Blank.png,0,0,0.0,0,88,88,88,,,,,,,,,,,,,47.7747492999988,0.0247492999988026,None,83.11031020000155,83.11031020000155,83.11031020000155,83.11031020000155,83.11031020000155,83.11031020000155,83.11031020000155,83.11031020000155,83.11031020000155,83.11031020000155,,006,P015,2025_Feb_28_1833,ConditionRich,2021.2.3,59.9351501673692,
48.0,48.75,20,0.75,Stimuli/P015/sun_bzmxulijbnmshodq.jpg,0,0,0.0,0,89,89,89,,,,,,,,,,,,,48.008495799997036,0.008495799997035647,None,83.34385960000145,83.34385960000145,83.34385960000145,83.34385960000145,83.34385960000145,83.34385960000145,83.34385960000145,83.34385960000145,83.34385960000145,83.34385960000145,,006,P015,2025_Feb_28_1833,ConditionRich,2021.2.3,59.9351501673692,
48.75,49.0,41,0.0,Stimuli/Blank.png,0,0,0.0,0,90,90,90,,,,,,,,,,,,,48.75913649999711,0.009136499997111969,None,84.094513,84.094513,84.094513,84.094513,84.094513,84.094513,84.094513,84.094513,84.094513,84.094513,,006,P015,2025_Feb_28_1833,ConditionRich,2021.2.3,59.9351501673692,
49.0,49.75,20,0.75,Stimuli/P015/sun_bzmxulijbnmshodq.jpg,0,0,0.0,0,91,91,91,,,,,,,,,,,,,49.00978969999778,0.009789699997782009,None,84.36144950000016,84.36144950000016,84.36144950000016,84.36144950000016,84.36144950000016,84.36144950000016,84.36144950000016,84.36144950000016,84.36144950000016,84.36144950000016,,006,P015,2025_Feb_28_1833,ConditionRich,2021.2.3,59.9351501673692,
49.75,50.0,41,0.0,Stimuli/Blank.png,0,0,0.0,0,92,92,92,,,,,,,,,,,,,49.77803689999928,0.02803689999927883,None,85.11208890000125,85.11208890000125,85.11208890000125,85.11208890000125,85.11208890000125,85.11208890000125,85.11208890000125,85.11208890000125,85.11208890000125,85.11208890000125,,006,P015,2025_Feb_28_1833,ConditionRich,2021.2.3,59.9351501673692,
50.0,50.75,20,0.75,Stimuli/P015/sun_bzmxulijbnmshodq.jpg,0,0,0.0,0,93,93,93,,,,,,,,,,,,,50.01035339999726,0.010353399997256929,None,85.34561690000191,85.34561690000191,85.34561690000191,85.34561690000191,85.34561690000191,85.34561690000191,85.34561690000191,85.34561690000191,85.34561690000191,85.34561690000191,,006,P015,2025_Feb_28_1833,ConditionRich,2021.2.3,59.9351501673692,
50.75,51.0,41,0.0,Stimuli/Blank.png,0,0,0.0,0,94,94,94,,,,,,,,,,,,,50.763781499998004,0.01378149999800371,None,86.11297530000229,86.11297530000229,86.11297530000229,86.11297530000229,86.11297530000229,86.11297530000229,86.11297530000229,86.11297530000229,86.11297530000229,86.11297530000229,,006,P015,2025_Feb_28_1833,ConditionRich,2021.2.3,59.9351501673692,
51.0,51.75,20,0.75,Stimuli/P015/sun_bzmxulijbnmshodq.jpg,0,0,0.0,0,95,95,95,,,,,,,,,,,,,51.027806999998575,0.02780699999857461,None,86.36318179999944,86.36318179999944,86.36318179999944,86.36318179999944,86.36318179999944,86.36318179999944,86.36318179999944,86.36318179999944,86.36318179999944,86.36318179999944,,006,P015,2025_Feb_28_1833,ConditionRich,2021.2.3,59.9351501673692,
51.75,52.0,41,0.0,Stimuli/Blank.png,0,0,0.0,0,96,96,96,,,,,,,,,,,,,51.76304569999775,0.013045699997746851,None,87.09718549999889,87.09718549999889,87.09718549999889,87.09718549999889,87.09718549999889,87.09718549999889,87.09718549999889,87.09718549999889,87.09718549999889,87.09718549999889,,006,P015,2025_Feb_28_1833,ConditionRich,2021.2.3,59.9351501673692,
52.0,52.75,35,0.75,Stimuli/P015/things_squid_08s.jpg,0,0,0.0,0,97,97,97,,,,,,,,,,,,,52.01272339999923,0.012723399999231333,None,87.34738429999925,87.34738429999925,87.34738429999925,87.34738429999925,87.34738429999925,87.34738429999925,87.34738429999925,87.34738429999925,87.34738429999925,87.34738429999925,,006,P015,2025_Feb_28_1833,ConditionRich,2021.2.3,59.9351501673692,
52.75,53.0,41,0.0,Stimuli/Blank.png,0,0,0.0,0,98,98,98,,,,,,,,,,,,,52.76272450000033,0.012724500000331318,None,88.09805060000144,88.09805060000144,88.09805060000144,88.09805060000144,88.09805060000144,88.09805060000144,88.09805060000144,88.09805060000144,88.09805060000144,88.09805060000144,,006,P015,2025_Feb_28_1833,ConditionRich,2021.2.3,59.9351501673692,
53.0,53.75,35,0.75,Stimuli/P015/things_squid_08s.jpg,0,0,0.0,0,99,99,99,,,,,,,,,,,,,53.0134693,0.01346929999999702,None,88.34827719999885,88.34827719999885,88.34827719999885,88.34827719999885,88.34827719999885,88.34827719999885,88.34827719999885,88.34827719999885,88.34827719999885,88.34827719999885,,006,P015,2025_Feb_28_1833,ConditionRich,2021.2.3,59.9351501673692,
53.75,54.0,41,0.0,Stimuli/Blank.png,0,0,0.0,0,100,100,100,,,,,,,,,,,,,53.76415780000025,0.014157800000248244,None,89.09894020000138,89.09894020000138,89.09894020000138,89.09894020000138,89.09894020000138,89.09894020000138,89.09894020000138,89.09894020000138,89.09894020000138,89.09894020000138,,006,P015,2025_Feb_28_1833,ConditionRich,2021.2.3,59.9351501673692,
54.0,54.75,35,0.75,Stimuli/P015/things_squid_08s.jpg,0,0,0.0,0,101,101,101,,,,,,,,,,,,,54.01432269999714,0.014322699997137534,None,89.34915679999904,89.34915679999904,89.34915679999904,89.34915679999904,89.34915679999904,89.34915679999904,89.34915679999904,89.34915679999904,89.34915679999904,89.34915679999904,,006,P015,2025_Feb_28_1833,ConditionRich,2021.2.3,59.9351501673692,
54.75,55.0,41,0.0,Stimuli/Blank.png,0,0,0.0,0,102,102,102,,,,,,,,,,,,,54.7643313999979,0.014331399997900007,None,90.09982310000123,90.09982310000123,90.09982310000123,90.09982310000123,90.09982310000123,90.09982310000123,90.09982310000123,90.09982310000123,90.09982310000123,90.09982310000123,,006,P015,2025_Feb_28_1833,ConditionRich,2021.2.3,59.9351501673692,
55.0,55.75,35,0.75,Stimuli/P015/things_squid_08s.jpg,0,0,0.0,0,103,103,103,,,,,,,,,,,,,55.01458029999776,0.014580299997760449,None,90.36673430000155,90.36673430000155,90.36673430000155,90.36673430000155,90.36673430000155,90.36673430000155,90.36673430000155,90.36673430000155,90.36673430000155,90.36673430000155,,006,P015,2025_Feb_28_1833,ConditionRich,2021.2.3,59.9351501673692,
55.75,56.0,41,0.0,Stimuli/Blank.png,0,0,0.0,0,104,104,104,,,,,,,,,,,,,55.78335629999856,0.033356299998558825,None,91.11739450000096,91.11739450000096,91.11739450000096,91.11739450000096,91.11739450000096,91.11739450000096,91.11739450000096,91.11739450000096,91.11739450000096,91.11739450000096,,006,P015,2025_Feb_28_1833,ConditionRich,2021.2.3,59.9351501673692,
56.0,56.75,29,0.75,Stimuli/P015/things_mouse1_08s.jpg,0,0,0.0,0,105,105,105,,,,,,,,,,,,,55.998914499999955,-0.0010855000000447035,None,91.33425669999997,91.33425669999997,91.33425669999997,91.33425669999997,91.33425669999997,91.33425669999997,91.33425669999997,91.33425669999997,91.33425669999997,91.33425669999997,,006,P015,2025_Feb_28_1833,ConditionRich,2021.2.3,59.9351501673692,
56.75,57.0,41,0.0,Stimuli/Blank.png,0,0,0.0,0,106,106,106,,,,,,,,,,,,,56.749517500000366,-0.0004824999996344559,None,92.08491760000106,92.08491760000106,92.08491760000106,92.08491760000106,92.08491760000106,92.08491760000106,92.08491760000106,92.08491760000106,92.08491760000106,92.08491760000106,,006,P015,2025_Feb_28_1833,ConditionRich,2021.2.3,59.9351501673692,
57.0,57.75,29,0.75,Stimuli/P015/things_mouse1_08s.jpg,0,0,0.0,0,107,107,107,,,,,,,,,,,,,56.99998049999704,-1.9500002963468432e-05,None,92.35184070000105,92.35184070000105,92.35184070000105,92.35184070000105,92.35184070000105,92.35184070000105,92.35184070000105,92.35184070000105,92.35184070000105,92.35184070000105,,006,P015,2025_Feb_28_1833,ConditionRich,2021.2.3,59.9351501673692,
57.75,58.0,41,0.0,Stimuli/Blank.png,0,0,0.0,0,108,108,108,,,,,,,,,,,,,57.76728279999952,0.01728279999952065,None,93.1024823000007,93.1024823000007,93.1024823000007,93.1024823000007,93.1024823000007,93.1024823000007,93.1024823000007,93.1024823000007,93.1024823000007,93.1024823000007,,006,P015,2025_Feb_28_1833,ConditionRich,2021.2.3,59.9351501673692,
58.0,58.75,29,0.75,Stimuli/P015/things_mouse1_08s.jpg,0,0,0.0,0,109,109,109,,,,,,,,,,,,,58.00056989999939,0.0005698999993910547,None,93.33601959999942,93.33601959999942,93.33601959999942,93.33601959999942,93.33601959999942,93.33601959999942,93.33601959999942,93.33601959999942,93.33601959999942,93.33601959999942,,006,P015,2025_Feb_28_1833,ConditionRich,2021.2.3,59.9351501673692,
58.75,59.0,41,0.0,Stimuli/Blank.png,0,0,0.0,0,110,110,110,,,,,,,,,,,,,58.75130829999762,0.0013082999976177234,None,94.08670080000229,94.08670080000229,94.08670080000229,94.08670080000229,94.08670080000229,94.08670080000229,94.08670080000229,94.08670080000229,94.08670080000229,94.08670080000229,,006,P015,2025_Feb_28_1833,ConditionRich,2021.2.3,59.9351501673692,
59.0,59.75,29,0.75,Stimuli/P015/things_mouse1_08s.jpg,0,0,0.0,0,111,111,111,,,,,,,,,,,,,59.00140359999932,0.001403599999321159,None,94.33690410000054,94.33690410000054,94.33690410000054,94.33690410000054,94.33690410000054,94.33690410000054,94.33690410000054,94.33690410000054,94.33690410000054,94.33690410000054,,006,P015,2025_Feb_28_1833,ConditionRich,2021.2.3,59.9351501673692,
59.75,60.0,41,0.0,Stimuli/Blank.png,0,0,0.0,0,112,112,112,,,,,,,,,,,,,59.75314719999733,0.003147199997329153,None,95.08757719999994,95.08757719999994,95.08757719999994,95.08757719999994,95.08757719999994,95.08757719999994,95.08757719999994,95.08757719999994,95.08757719999994,95.08757719999994,,006,P015,2025_Feb_28_1833,ConditionRich,2021.2.3,59.9351501673692,
60.0,60.75,9,0.75,Stimuli/P015/sun_bbdgftzhpkaklkll.jpg,0,0,0.0,0,113,113,113,,,,,,,,,,,,,60.00233619999926,0.0023361999992630444,None,95.33780750000005,95.33780750000005,95.33780750000005,95.33780750000005,95.33780750000005,95.33780750000005,95.33780750000005,95.33780750000005,95.33780750000005,95.33780750000005,,006,P015,2025_Feb_28_1833,ConditionRich,2021.2.3,59.9351501673692,
60.75,61.0,41,0.0,Stimuli/Blank.png,0,0,0.0,0,114,114,114,,,,,,,,,,,,,60.75466349999988,0.004663499999878695,None,96.08846540000013,96.08846540000013,96.08846540000013,96.08846540000013,96.08846540000013,96.08846540000013,96.08846540000013,96.08846540000013,96.08846540000013,96.08846540000013,,006,P015,2025_Feb_28_1833,ConditionRich,2021.2.3,59.9351501673692,
61.0,61.75,9,0.75,Stimuli/P015/sun_bbdgftzhpkaklkll.jpg,0,0,0.0,0,115,115,115,,,,,,,,,,,,,61.00529859999733,0.005298599997331621,None,96.35536430000138,96.35536430000138,96.35536430000138,96.35536430000138,96.35536430000138,96.35536430000138,96.35536430000138,96.35536430000138,96.35536430000138,96.35536430000138,,006,P015,2025_Feb_28_1833,ConditionRich,2021.2.3,59.9351501673692,
61.75,62.0,41,0.0,Stimuli/Blank.png,0,0,0.0,0,116,116,116,,,,,,,,,,,,,61.771168899998884,0.021168899998883717,None,97.10599550000188,97.10599550000188,97.10599550000188,97.10599550000188,97.10599550000188,97.10599550000188,97.10599550000188,97.10599550000188,97.10599550000188,97.10599550000188,,006,P015,2025_Feb_28_1833,ConditionRich,2021.2.3,59.9351501673692,
62.0,62.75,9,0.75,Stimuli/P015/sun_bbdgftzhpkaklkll.jpg,0,0,0.0,0,117,117,117,,,,,,,,,,,,,62.005580799999734,0.005580799999734154,None,97.35625870000149,97.35625870000149,97.35625870000149,97.35625870000149,97.35625870000149,97.35625870000149,97.35625870000149,97.35625870000149,97.35625870000149,97.35625870000149,,006,P015,2025_Feb_28_1833,ConditionRich,2021.2.3,59.9351501673692,
62.75,63.0,41,0.0,Stimuli/Blank.png,0,0,0.0,0,118,118,118,,,,,,,,,,,,,62.77246599999853,0.022465999998530606,None,98.10691190000216,98.10691190000216,98.10691190000216,98.10691190000216,98.10691190000216,98.10691190000216,98.10691190000216,98.10691190000216,98.10691190000216,98.10691190000216,,006,P015,2025_Feb_28_1833,ConditionRich,2021.2.3,59.9351501673692,
63.0,63.75,9,0.75,Stimuli/P015/sun_bbdgftzhpkaklkll.jpg,1,0,0.75,0,119,119,119,,,,,,,,,,,,,63.00528909999775,0.00528909999775351,1,98.34045229999901,98.34045229999901,98.34045229999901,98.34045229999901,98.34045229999901,98.34045229999901,98.34045229999901,99.07447410000168,98.34045229999901,98.34045229999901,0.5581615000010061,006,P015,2025_Feb_28_1833,ConditionRich,2021.2.3,59.9351501673692,
63.75,64.0,41,0.0,Stimuli/Blank.png,0,0,0.0,0,120,120,120,,,,,,,,,,,,,63.756564600000274,0.006564600000274368,None,99.09118189999936,99.09118189999936,99.09118189999936,99.09118189999936,99.09118189999936,99.09118189999936,99.09118189999936,99.09118189999936,99.09118189999936,99.09118189999936,,006,P015,2025_Feb_28_1833,ConditionRich,2021.2.3,59.9351501673692,
64.0,64.75,4,0.75,Stimuli/P015/sun_aiwuqxdqzftsfyeg.jpg,0,0,0.0,0,121,121,121,,,,,,,,,,,,,64.00610339999912,0.006103399999119574,None,99.34133980000115,99.34133980000115,99.34133980000115,99.34133980000115,99.34133980000115,99.34133980000115,99.34133980000115,99.34133980000115,99.34133980000115,99.34133980000115,,006,P015,2025_Feb_28_1833,ConditionRich,2021.2.3,59.9351501673692,
64.75,65.0,41,0.0,Stimuli/Blank.png,0,0,0.0,0,122,122,122,,,,,,,,,,,,,64.75717969999823,0.007179699998232536,None,100.09199630000148,100.09199630000148,100.09199630000148,100.09199630000148,100.09199630000148,100.09199630000148,100.09199630000148,100.09199630000148,100.09199630000148,100.09199630000148,,006,P015,2025_Feb_28_1833,ConditionRich,2021.2.3,59.9351501673692,
65.0,65.75,4,0.75,Stimuli/P015/sun_aiwuqxdqzftsfyeg.jpg,1,0,0.75,0,123,123,123,,,,,,,,,,,,,65.00718849999976,0.007188499999756459,1,100.35890790000121,100.35890790000121,100.35890790000121,100.35890790000121,100.35890790000121,100.35890790000121,100.35890790000121,101.07619680000062,100.35890790000121,100.35890790000121,0.4695075999989058,006,P015,2025_Feb_28_1833,ConditionRich,2021.2.3,59.9351501673692,
65.75,66.0,41,0.0,Stimuli/Blank.png,0,0,0.0,0,124,124,124,,,,,,,,,,,,,65.7748079999983,0.024807999998301966,None,101.1095634000012,101.1095634000012,101.1095634000012,101.1095634000012,101.1095634000012,101.1095634000012,101.1095634000012,101.1095634000012,101.1095634000012,101.1095634000012,,006,P015,2025_Feb_28_1833,ConditionRich,2021.2.3,59.9351501673692,
66.0,66.75,4,0.75,Stimuli/P015/sun_aiwuqxdqzftsfyeg.jpg,0,0,0.0,0,125,125,125,,,,,,,,,,,,,66.00756679999904,0.007566799999040086,None,101.34310570000162,101.34310570000162,101.34310570000162,101.34310570000162,101.34310570000162,101.34310570000162,101.34310570000162,101.34310570000162,101.34310570000162,101.34310570000162,,006,P015,2025_Feb_28_1833,ConditionRich,2021.2.3,59.9351501673692,
66.75,67.0,41,0.0,Stimuli/Blank.png,0,0,0.0,0,126,126,126,,,,,,,,,,,,,66.76116249999905,0.011162499999045394,None,102.11046949999945,102.11046949999945,102.11046949999945,102.11046949999945,102.11046949999945,102.11046949999945,102.11046949999945,102.11046949999945,102.11046949999945,102.11046949999945,,006,P015,2025_Feb_28_1833,ConditionRich,2021.2.3,59.9351501673692,
67.0,67.75,4,0.75,Stimuli/P015/sun_aiwuqxdqzftsfyeg.jpg,0,0,0.0,0,127,127,127,,,,,,,,,,,,,67.02526930000022,0.02526930000021821,None,102.36067410000032,102.36067410000032,102.36067410000032,102.36067410000032,102.36067410000032,102.36067410000032,102.36067410000032,102.36067410000032,102.36067410000032,102.36067410000032,,006,P015,2025_Feb_28_1833,ConditionRich,2021.2.3,59.9351501673692,
67.75,68.0,41,0.0,Stimuli/Blank.png,0,0,0.0,0,128,128,128,,,,,,,,,,,,,67.7603386999981,0.01033869999810122,None,103.0947402999991,103.0947402999991,103.0947402999991,103.0947402999991,103.0947402999991,103.0947402999991,103.0947402999991,103.0947402999991,103.0947402999991,103.0947402999991,,006,P015,2025_Feb_28_1833,ConditionRich,2021.2.3,59.9351501673692,
68.0,68.75,7,0.75,Stimuli/P015/sun_aqdfrmtvewaapuqs.jpg,0,0,0.0,0,129,129,129,,,,,,,,,,,,,68.01002309999967,0.010023099999671103,None,103.34488260000217,103.34488260000217,103.34488260000217,103.34488260000217,103.34488260000217,103.34488260000217,103.34488260000217,103.34488260000217,103.34488260000217,103.34488260000217,,006,P015,2025_Feb_28_1833,ConditionRich,2021.2.3,59.9351501673692,
68.75,69.0,41,0.0,Stimuli/Blank.png,0,0,0.0,0,130,130,130,,,,,,,,,,,,,68.76115120000031,0.01115120000031311,None,104.09555159999945,104.09555159999945,104.09555159999945,104.09555159999945,104.09555159999945,104.09555159999945,104.09555159999945,104.09555159999945,104.09555159999945,104.09555159999945,,006,P015,2025_Feb_28_1833,ConditionRich,2021.2.3,59.9351501673692,
69.0,69.75,7,0.75,Stimuli/P015/sun_aqdfrmtvewaapuqs.jpg,0,0,0.0,0,131,131,131,,,,,,,,,,,,,69.01037139999971,0.010371399999712594,None,104.34575970000151,104.34575970000151,104.34575970000151,104.34575970000151,104.34575970000151,104.34575970000151,104.34575970000151,104.34575970000151,104.34575970000151,104.34575970000151,,006,P015,2025_Feb_28_1833,ConditionRich,2021.2.3,59.9351501673692,
69.75,70.0,41,0.0,Stimuli/Blank.png,0,0,0.0,0,132,132,132,,,,,,,,,,,,,69.76171019999674,0.011710199996741721,None,105.09642259999964,105.09642259999964,105.09642259999964,105.09642259999964,105.09642259999964,105.09642259999964,105.09642259999964,105.09642259999964,105.09642259999964,105.09642259999964,,006,P015,2025_Feb_28_1833,ConditionRich,2021.2.3,59.9351501673692,
70.0,70.75,7,0.75,Stimuli/P015/sun_aqdfrmtvewaapuqs.jpg,0,0,0.0,0,133,133,133,,,,,,,,,,,,,70.01127399999677,0.011273999996774364,None,105.3466440000011,105.3466440000011,105.3466440000011,105.3466440000011,105.3466440000011,105.3466440000011,105.3466440000011,105.3466440000011,105.3466440000011,105.3466440000011,,006,P015,2025_Feb_28_1833,ConditionRich,2021.2.3,59.9351501673692,
70.75,71.0,41,0.0,Stimuli/Blank.png,0,0,0.0,0,134,134,134,,,,,,,,,,,,,70.76180989999921,0.011809899999207119,None,106.0973113,106.0973113,106.0973113,106.0973113,106.0973113,106.0973113,106.0973113,106.0973113,106.0973113,106.0973113,,006,P015,2025_Feb_28_1833,ConditionRich,2021.2.3,59.9351501673692,
71.0,71.75,7,0.75,Stimuli/P015/sun_aqdfrmtvewaapuqs.jpg,0,0,0.0,0,135,135,135,,,,,,,,,,,,,71.01257259999693,0.012572599996929057,None,106.34754520000206,106.34754520000206,106.34754520000206,106.34754520000206,106.34754520000206,106.34754520000206,106.34754520000206,106.34754520000206,106.34754520000206,106.34754520000206,,006,P015,2025_Feb_28_1833,ConditionRich,2021.2.3,59.9351501673692,
71.75,72.0,41,0.0,Stimuli/Blank.png,0,0,0.0,0,136,136,136,,,,,,,,,,,,,71.76268459999847,0.012684599998465274,None,107.09822270000222,107.09822270000222,107.09822270000222,107.09822270000222,107.09822270000222,107.09822270000222,107.09822270000222,107.09822270000222,107.09822270000222,107.09822270000222,,006,P015,2025_Feb_28_1833,ConditionRich,2021.2.3,59.9351501673692,
72.0,72.75,10,0.75,Stimuli/P015/sun_bfojpvrlsrtfyzio.jpg,0,0,0.0,0,137,137,137,,,,,,,,,,,,,72.01479389999804,0.014793899998039706,None,107.36509840000144,107.36509840000144,107.36509840000144,107.36509840000144,107.36509840000144,107.36509840000144,107.36509840000144,107.36509840000144,107.36509840000144,107.36509840000144,,006,P015,2025_Feb_28_1833,ConditionRich,2021.2.3,59.9351501673692,
72.75,73.0,41,0.0,Stimuli/Blank.png,0,0,0.0,0,138,138,138,,,,,,,,,,,,,72.78056769999966,0.03056769999966491,None,108.1157884000022,108.1157884000022,108.1157884000022,108.1157884000022,108.1157884000022,108.1157884000022,108.1157884000022,108.1157884000022,108.1157884000022,108.1157884000022,,006,P015,2025_Feb_28_1833,ConditionRich,2021.2.3,59.9351501673692,
73.0,73.75,10,0.75,Stimuli/P015/sun_bfojpvrlsrtfyzio.jpg,1,0,0.75,0,139,139,139,,,,,,,,,,,,,73.01701039999898,0.017010399998980574,1,108.36600370000087,108.36600370000087,108.36600370000087,108.36600370000087,108.36600370000087,108.36600370000087,108.36600370000087,None,108.36600370000087,108.36600370000087,0.42340449999755947,006,P015,2025_Feb_28_1833,ConditionRich,2021.2.3,59.9351501673692,
73.75,74.0,41,0.0,Stimuli/Blank.png,0,0,0.0,0,140,140,140,,,,,,,,,,,,,73.76607369999692,0.016073699996923096,None,109.09998450000057,109.09998450000057,109.09998450000057,109.09998450000057,109.09998450000057,109.09998450000057,109.09998450000057,109.09998450000057,109.09998450000057,109.09998450000057,,006,P015,2025_Feb_28_1833,ConditionRich,2021.2.3,59.9351501673692,
74.0,74.75,10,0.75,Stimuli/P015/sun_bfojpvrlsrtfyzio.jpg,0,0,0.0,0,141,141,141,,,,,,,,,,,,,74.00180569999793,0.0018056999979307875,None,109.35019440000178,109.35019440000178,109.35019440000178,109.35019440000178,109.35019440000178,109.35019440000178,109.35019440000178,109.35019440000178,109.35019440000178,109.35019440000178,,006,P015,2025_Feb_28_1833,ConditionRich,2021.2.3,59.9351501673692,
74.75,75.0,41,0.0,Stimuli/Blank.png,0,0,0.0,0,142,142,142,,,,,,,,,,,,,74.76659479999944,0.016594799999438692,None,110.1175671000019,110.1175671000019,110.1175671000019,110.1175671000019,110.1175671000019,110.1175671000019,110.1175671000019,110.1175671000019,110.1175671000019,110.1175671000019,,006,P015,2025_Feb_28_1833,ConditionRich,2021.2.3,59.9351501673692,
75.0,75.75,10,0.75,Stimuli/P015/sun_bfojpvrlsrtfyzio.jpg,0,0,0.0,0,143,143,143,,,,,,,,,,,,,75.01608990000022,0.01608990000022459,None,110.36776200000168,110.36776200000168,110.36776200000168,110.36776200000168,110.36776200000168,110.36776200000168,110.36776200000168,110.36776200000168,110.36776200000168,110.36776200000168,,006,P015,2025_Feb_28_1833,ConditionRich,2021.2.3,59.9351501673692,
75.75,76.0,41,0.0,Stimuli/Blank.png,0,0,0.0,0,144,144,144,,,,,,,,,,,,,75.76670659999945,0.01670659999945201,None,111.10174420000112,111.10174420000112,111.10174420000112,111.10174420000112,111.10174420000112,111.10174420000112,111.10174420000112,111.10174420000112,111.10174420000112,111.10174420000112,,006,P015,2025_Feb_28_1833,ConditionRich,2021.2.3,59.9351501673692,
76.0,76.75,5,0.75,Stimuli/P015/sun_ajgmxbrxdpmsaext.jpg,0,0,0.0,0,145,145,145,,,,,,,,,,,,,76.0007356999995,0.0007356999994954094,None,111.33528239999941,111.33528239999941,111.33528239999941,111.33528239999941,111.33528239999941,111.33528239999941,111.33528239999941,111.33528239999941,111.33528239999941,111.33528239999941,,006,P015,2025_Feb_28_1833,ConditionRich,2021.2.3,59.9351501673692,
76.75,77.0,41,0.0,Stimuli/Blank.png,0,0,0.0,0,146,146,146,,,,,,,,,,,,,76.75254089999726,0.002540899997256929,None,112.08597000000009,112.08597000000009,112.08597000000009,112.08597000000009,112.08597000000009,112.08597000000009,112.08597000000009,112.08597000000009,112.08597000000009,112.08597000000009,,006,P015,2025_Feb_28_1833,ConditionRich,2021.2.3,59.9351501673692,
77.0,77.75,5,0.75,Stimuli/P015/sun_ajgmxbrxdpmsaext.jpg,0,0,0.0,0,147,147,147,,,,,,,,,,,,,77.00070689999848,0.0007068999984767288,None,112.33618149999893,112.33618149999893,112.33618149999893,112.33618149999893,112.33618149999893,112.33618149999893,112.33618149999893,112.33618149999893,112.33618149999893,112.33618149999893,,006,P015,2025_Feb_28_1833,ConditionRich,2021.2.3,59.9351501673692,
77.75,78.0,41,0.0,Stimuli/Blank.png,0,0,0.0,0,148,148,148,,,,,,,,,,,,,77.7520033999972,0.0020033999971929006,None,113.08684580000045,113.08684580000045,113.08684580000045,113.08684580000045,113.08684580000045,113.08684580000045,113.08684580000045,113.08684580000045,113.08684580000045,113.08684580000045,,006,P015,2025_Feb_28_1833,ConditionRich,2021.2.3,59.9351501673692,
78.0,78.75,5,0.75,Stimuli/P015/sun_ajgmxbrxdpmsaext.jpg,0,0,0.0,0,149,149,149,,,,,,,,,,,,,78.00265349999972,0.002653499999723863,None,113.33705760000157,113.33705760000157,113.33705760000157,113.33705760000157,113.33705760000157,113.33705760000157,113.33705760000157,113.33705760000157,113.33705760000157,113.33705760000157,,006,P015,2025_Feb_28_1833,ConditionRich,2021.2.3,59.9351501673692,
78.75,79.0,41,0.0,Stimuli/Blank.png,0,0,0.0,0,150,150,150,,,,,,,,,,,,,78.75334289999955,0.0033428999995521735,None,114.08772150000004,114.08772150000004,114.08772150000004,114.08772150000004,114.08772150000004,114.08772150000004,114.08772150000004,114.08772150000004,114.08772150000004,114.08772150000004,,006,P015,2025_Feb_28_1833,ConditionRich,2021.2.3,59.9351501673692,
79.0,79.75,5,0.75,Stimuli/P015/sun_ajgmxbrxdpmsaext.jpg,0,0,0.0,0,151,151,151,,,,,,,,,,,,,79.00335219999761,0.0033521999976073857,None,114.33801130000211,114.33801130000211,114.33801130000211,114.33801130000211,114.33801130000211,114.33801130000211,114.33801130000211,114.33801130000211,114.33801130000211,114.33801130000211,,006,P015,2025_Feb_28_1833,ConditionRich,2021.2.3,59.9351501673692,
79.75,80.0,41,0.0,Stimuli/Blank.png,0,0,0.0,0,152,152,152,,,,,,,,,,,,,79.75410869999905,0.0041086999990511686,None,115.08867480000117,115.08867480000117,115.08867480000117,115.08867480000117,115.08867480000117,115.08867480000117,115.08867480000117,115.08867480000117,115.08867480000117,115.08867480000117,,006,P015,2025_Feb_28_1833,ConditionRich,2021.2.3,59.9351501673692,
80.0,80.75,13,0.75,Stimuli/P015/sun_bphvjnowixlryxot.jpg,0,0,0.0,0,153,153,153,,,,,,,,,,,,,80.00328369999988,0.003283699999883538,None,115.33883710000009,115.33883710000009,115.33883710000009,115.33883710000009,115.33883710000009,115.33883710000009,115.33883710000009,115.33883710000009,115.33883710000009,115.33883710000009,,006,P015,2025_Feb_28_1833,ConditionRich,2021.2.3,59.9351501673692,
80.75,81.0,41,0.0,Stimuli/Blank.png,0,0,0.0,0,154,154,154,,,,,,,,,,,,,80.75508949999858,0.005089499998575775,None,116.08956380000018,116.08956380000018,116.08956380000018,116.08956380000018,116.08956380000018,116.08956380000018,116.08956380000018,116.08956380000018,116.08956380000018,116.08956380000018,,006,P015,2025_Feb_28_1833,ConditionRich,2021.2.3,59.9351501673692,
81.0,81.75,13,0.75,Stimuli/P015/sun_bphvjnowixlryxot.jpg,0,0,0.0,0,155,155,155,,,,,,,,,,,,,81.0051704999969,0.005170499996893341,None,116.35640950000015,116.35640950000015,116.35640950000015,116.35640950000015,116.35640950000015,116.35640950000015,116.35640950000015,116.35640950000015,116.35640950000015,116.35640950000015,,006,P015,2025_Feb_28_1833,ConditionRich,2021.2.3,59.9351501673692,
81.75,82.0,41,0.0,Stimuli/Blank.png,0,0,0.0,0,156,156,156,,,,,,,,,,,,,81.77249569999913,0.022495699999126373,None,117.10706120000032,117.10706120000032,117.10706120000032,117.10706120000032,117.10706120000032,117.10706120000032,117.10706120000032,117.10706120000032,117.10706120000032,117.10706120000032,,006,P015,2025_Feb_28_1833,ConditionRich,2021.2.3,59.9351501673692,
82.0,82.75,13,0.75,Stimuli/P015/sun_bphvjnowixlryxot.jpg,0,0,0.0,0,157,157,157,,,,,,,,,,,,,82.00513249999858,0.005132499998580897,None,117.35728350000136,117.35728350000136,117.35728350000136,117.35728350000136,117.35728350000136,117.35728350000136,117.35728350000136,117.35728350000136,117.35728350000136,117.35728350000136,,006,P015,2025_Feb_28_1833,ConditionRich,2021.2.3,59.9351501673692,
82.75,83.0,41,0.0,Stimuli/Blank.png,0,0,0.0,0,158,158,158,,,,,,,,,,,,,82.77312379999785,0.023123799997847527,None,118.10794720000195,118.10794720000195,118.10794720000195,118.10794720000195,118.10794720000195,118.10794720000195,118.10794720000195,118.10794720000195,118.10794720000195,118.10794720000195,,006,P015,2025_Feb_28_1833,ConditionRich,2021.2.3,59.9351501673692,
83.0,83.75,13,0.75,Stimuli/P015/sun_bphvjnowixlryxot.jpg,0,0,0.0,0,159,159,159,,,,,,,,,,,,,83.00859080000009,0.008590800000092713,None,118.35818130000189,118.35818130000189,118.35818130000189,118.35818130000189,118.35818130000189,118.35818130000189,118.35818130000189,118.35818130000189,118.35818130000189,118.35818130000189,,006,P015,2025_Feb_28_1833,ConditionRich,2021.2.3,59.9351501673692,
83.75,84.0,41,0.0,Stimuli/Blank.png,0,0,0.0,0,160,160,160,,,,,,,,,,,,,83.77452339999945,0.024523399999452522,None,119.1088301000018,119.1088301000018,119.1088301000018,119.1088301000018,119.1088301000018,119.1088301000018,119.1088301000018,119.1088301000018,119.1088301000018,119.1088301000018,,006,P015,2025_Feb_28_1833,ConditionRich,2021.2.3,59.9351501673692,
84.0,100.0,0,0.0,Stimuli/Blank.png,1,9,9.75,0,161,161,161,,,,,,,,,,,,,84.00735389999682,0.0073538999968150165,1,119.34237620000204,119.34237620000204,119.34237620000204,119.34237620000204,119.34237620000204,119.34237620000204,128.33366580000074,129.08432059999905,119.34237620000204,119.34237620000204,9.51718450000044,006,P015,2025_Feb_28_1833,ConditionRich,2021.2.3,59.9351501673692,
100.0,100.75,2,0.75,Stimuli/P015/sun_agzfkftryitnqpxc.jpg,0,0,0.0,0,162,162,162,,,,,,,,,,,,,100.00443789999917,0.004437899999174988,None,135.33986460000233,135.33986460000233,135.33986460000233,135.33986460000233,135.33986460000233,135.33986460000233,135.33986460000233,135.33986460000233,135.33986460000233,135.33986460000233,,006,P015,2025_Feb_28_1833,ConditionRich,2021.2.3,59.9351501673692,
100.75,101.0,41,0.0,Stimuli/Blank.png,0,0,0.0,0,163,163,163,,,,,,,,,,,,,100.7550620999973,0.005062099997303449,None,136.09051679999902,136.09051679999902,136.09051679999902,136.09051679999902,136.09051679999902,136.09051679999902,136.09051679999902,136.09051679999902,136.09051679999902,136.09051679999902,,006,P015,2025_Feb_28_1833,ConditionRich,2021.2.3,59.9351501673692,
101.0,101.75,2,0.75,Stimuli/P015/sun_agzfkftryitnqpxc.jpg,0,0,0.0,0,164,164,164,,,,,,,,,,,,,101.00632639999822,0.006326399998215493,None,136.34074130000226,136.34074130000226,136.34074130000226,136.34074130000226,136.34074130000226,136.34074130000226,136.34074130000226,136.34074130000226,136.34074130000226,136.34074130000226,,006,P015,2025_Feb_28_1833,ConditionRich,2021.2.3,59.9351501673692,
101.75,102.0,41,0.0,Stimuli/Blank.png,0,0,0.0,0,165,165,165,,,,,,,,,,,,,101.75657469999715,0.006574699997145217,None,137.09142169999905,137.09142169999905,137.09142169999905,137.09142169999905,137.09142169999905,137.09142169999905,137.09142169999905,137.09142169999905,137.09142169999905,137.09142169999905,,006,P015,2025_Feb_28_1833,ConditionRich,2021.2.3,59.9351501673692,
102.0,102.75,2,0.75,Stimuli/P015/sun_agzfkftryitnqpxc.jpg,0,0,0.0,0,166,166,166,,,,,,,,,,,,,102.00664829999732,0.006648299997323193,None,137.34163160000026,137.34163160000026,137.34163160000026,137.34163160000026,137.34163160000026,137.34163160000026,137.34163160000026,137.34163160000026,137.34163160000026,137.34163160000026,,006,P015,2025_Feb_28_1833,ConditionRich,2021.2.3,59.9351501673692,
102.75,103.0,41,0.0,Stimuli/Blank.png,0,0,0.0,0,167,167,167,,,,,,,,,,,,,102.75786019999941,0.007860199999413453,None,138.09229950000008,138.09229950000008,138.09229950000008,138.09229950000008,138.09229950000008,138.09229950000008,138.09229950000008,138.09229950000008,138.09229950000008,138.09229950000008,,006,P015,2025_Feb_28_1833,ConditionRich,2021.2.3,59.9351501673692,
103.0,103.75,2,0.75,Stimuli/P015/sun_agzfkftryitnqpxc.jpg,0,0,0.0,0,168,168,168,,,,,,,,,,,,,103.00775249999788,0.007752499997877749,None,138.34252080000078,138.34252080000078,138.34252080000078,138.34252080000078,138.34252080000078,138.34252080000078,138.34252080000078,138.34252080000078,138.34252080000078,138.34252080000078,,006,P015,2025_Feb_28_1833,ConditionRich,2021.2.3,59.9351501673692,
103.75,104.0,41,0.0,Stimuli/Blank.png,0,0,0.0,0,169,169,169,,,,,,,,,,,,,103.75809829999707,0.0080982999970729,None,139.09414259999903,139.09414259999903,139.09414259999903,139.09414259999903,139.09414259999903,139.09414259999903,139.09414259999903,139.09414259999903,139.09414259999903,139.09414259999903,,006,P015,2025_Feb_28_1833,ConditionRich,2021.2.3,59.9351501673692,
104.0,104.75,18,0.75,Stimuli/P015/sun_byavixgfuhzioilz.jpg,0,0,0.0,0,170,170,170,,,,,,,,,,,,,104.01078789999883,0.010787899998831563,None,139.36016740000196,139.36016740000196,139.36016740000196,139.36016740000196,139.36016740000196,139.36016740000196,139.36016740000196,139.36016740000196,139.36016740000196,139.36016740000196,,006,P015,2025_Feb_28_1833,ConditionRich,2021.2.3,59.9351501673692,
104.75,105.0,41,0.0,Stimuli/Blank.png,0,0,0.0,0,171,171,171,,,,,,,,,,,,,104.77524309999717,0.025243099997169338,None,140.11075930000152,140.11075930000152,140.11075930000152,140.11075930000152,140.11075930000152,140.11075930000152,140.11075930000152,140.11075930000152,140.11075930000152,140.11075930000152,,006,P015,2025_Feb_28_1833,ConditionRich,2021.2.3,59.9351501673692,
105.0,105.75,18,0.75,Stimuli/P015/sun_byavixgfuhzioilz.jpg,0,0,0.0,0,172,172,172,,,,,,,,,,,,,105.01042899999811,0.010428999998111976,None,140.3609748000017,140.3609748000017,140.3609748000017,140.3609748000017,140.3609748000017,140.3609748000017,140.3609748000017,140.3609748000017,140.3609748000017,140.3609748000017,,006,P015,2025_Feb_28_1833,ConditionRich,2021.2.3,59.9351501673692,
105.75,106.0,41,0.0,Stimuli/Blank.png,0,0,0.0,0,173,173,173,,,,,,,,,,,,,105.77697009999974,0.02697009999974398,None,141.11163080000188,141.11163080000188,141.11163080000188,141.11163080000188,141.11163080000188,141.11163080000188,141.11163080000188,141.11163080000188,141.11163080000188,141.11163080000188,,006,P015,2025_Feb_28_1833,ConditionRich,2021.2.3,59.9351501673692,
106.0,106.75,18,0.75,Stimuli/P015/sun_byavixgfuhzioilz.jpg,0,0,0.0,0,174,174,174,,,,,,,,,,,,,106.0102913999981,0.010291399998095585,None,141.34516770000118,141.34516770000118,141.34516770000118,141.34516770000118,141.34516770000118,141.34516770000118,141.34516770000118,141.34516770000118,141.34516770000118,141.34516770000118,,006,P015,2025_Feb_28_1833,ConditionRich,2021.2.3,59.9351501673692,
106.75,107.0,41,0.0,Stimuli/Blank.png,0,0,0.0,0,175,175,175,,,,,,,,,,,,,106.76094309999826,0.010943099998257821,None,142.09584000000177,142.09584000000177,142.09584000000177,142.09584000000177,142.09584000000177,142.09584000000177,142.09584000000177,142.09584000000177,142.09584000000177,142.09584000000177,,006,P015,2025_Feb_28_1833,ConditionRich,2021.2.3,59.9351501673692,
107.0,107.75,18,0.75,Stimuli/P015/sun_byavixgfuhzioilz.jpg,0,0,0.0,0,176,176,176,,,,,,,,,,,,,107.01128609999796,0.011286099997960264,None,142.362744500002,142.362744500002,142.362744500002,142.362744500002,142.362744500002,142.362744500002,142.362744500002,142.362744500002,142.362744500002,142.362744500002,,006,P015,2025_Feb_28_1833,ConditionRich,2021.2.3,59.9351501673692,
107.75,108.0,41,0.0,Stimuli/Blank.png,0,0,0.0,0,177,177,177,,,,,,,,,,,,,107.77891569999701,0.0289156999970146,None,143.11341630000243,143.11341630000243,143.11341630000243,143.11341630000243,143.11341630000243,143.11341630000243,143.11341630000243,143.11341630000243,143.11341630000243,143.11341630000243,,006,P015,2025_Feb_28_1833,ConditionRich,2021.2.3,59.9351501673692,
108.0,108.75,39,0.75,Stimuli/P015/things_window_08s.jpg,0,0,0.0,0,178,178,178,,,,,,,,,,,,,108.01188879999972,0.011888799999724142,None,143.34694060000038,143.34694060000038,143.34694060000038,143.34694060000038,143.34694060000038,143.34694060000038,143.34694060000038,143.34694060000038,143.34694060000038,143.34694060000038,,006,P015,2025_Feb_28_1833,ConditionRich,2021.2.3,59.9351501673692,
108.75,109.0,41,0.0,Stimuli/Blank.png,0,0,0.0,0,179,179,179,,,,,,,,,,,,,108.76388690000022,0.013886900000215974,None,144.09763079999902,144.09763079999902,144.09763079999902,144.09763079999902,144.09763079999902,144.09763079999902,144.09763079999902,144.09763079999902,144.09763079999902,144.09763079999902,,006,P015,2025_Feb_28_1833,ConditionRich,2021.2.3,59.9351501673692,
109.0,109.75,39,0.75,Stimuli/P015/things_window_08s.jpg,0,0,0.0,0,180,180,180,,,,,,,,,,,,,109.01234569999724,0.012345699997240445,None,144.34783239999888,144.34783239999888,144.34783239999888,144.34783239999888,144.34783239999888,144.34783239999888,144.34783239999888,144.34783239999888,144.34783239999888,144.34783239999888,,006,P015,2025_Feb_28_1833,ConditionRich,2021.2.3,59.9351501673692,
109.75,110.0,41,0.0,Stimuli/Blank.png,0,0,0.0,0,181,181,181,,,,,,,,,,,,,109.76374269999724,0.01374269999723765,None,145.09849759999997,145.09849759999997,145.09849759999997,145.09849759999997,145.09849759999997,145.09849759999997,145.09849759999997,145.09849759999997,145.09849759999997,145.09849759999997,,006,P015,2025_Feb_28_1833,ConditionRich,2021.2.3,59.9351501673692,
110.0,110.75,39,0.75,Stimuli/P015/things_window_08s.jpg,0,0,0.0,0,182,182,182,,,,,,,,,,,,,110.0155397999988,0.015539799998805393,None,145.36540570000216,145.36540570000216,145.36540570000216,145.36540570000216,145.36540570000216,145.36540570000216,145.36540570000216,145.36540570000216,145.36540570000216,145.36540570000216,,006,P015,2025_Feb_28_1833,ConditionRich,2021.2.3,59.9351501673692,
110.75,111.0,41,0.0,Stimuli/Blank.png,0,0,0.0,0,183,183,183,,,,,,,,,,,,,110.7659281999986,0.015928199998597847,None,146.11607319999894,146.11607319999894,146.11607319999894,146.11607319999894,146.11607319999894,146.11607319999894,146.11607319999894,146.11607319999894,146.11607319999894,146.11607319999894,,006,P015,2025_Feb_28_1833,ConditionRich,2021.2.3,59.9351501673692,
111.0,111.75,39,0.75,Stimuli/P015/things_window_08s.jpg,0,0,0.0,0,184,184,184,,,,,,,,,,,,,111.01412379999965,0.014123799999651965,None,146.34959620000154,146.34959620000154,146.34959620000154,146.34959620000154,146.34959620000154,146.34959620000154,146.34959620000154,146.34959620000154,146.34959620000154,146.34959620000154,,006,P015,2025_Feb_28_1833,ConditionRich,2021.2.3,59.9351501673692,
111.75,112.0,41,0.0,Stimuli/Blank.png,0,0,0.0,0,185,185,185,,,,,,,,,,,,,111.76475049999863,0.014750499998626765,None,147.10026479999942,147.10026479999942,147.10026479999942,147.10026479999942,147.10026479999942,147.10026479999942,147.10026479999942,147.10026479999942,147.10026479999942,147.10026479999942,,006,P015,2025_Feb_28_1833,ConditionRich,2021.2.3,59.9351501673692,
112.0,112.75,37,0.75,Stimuli/P015/things_swizzle_stick_08s.jpg,0,0,0.0,0,186,186,186,,,,,,,,,,,,,112.01514039999893,0.015140399998927023,None,147.35049219999928,147.35049219999928,147.35049219999928,147.35049219999928,147.35049219999928,147.35049219999928,147.35049219999928,147.35049219999928,147.35049219999928,147.35049219999928,,006,P015,2025_Feb_28_1833,ConditionRich,2021.2.3,59.9351501673692,
112.75,113.0,41,0.0,Stimuli/Blank.png,0,0,0.0,0,187,187,187,,,,,,,,,,,,,112.75037299999894,0.0003729999989445787,None,148.0844732000005,148.0844732000005,148.0844732000005,148.0844732000005,148.0844732000005,148.0844732000005,148.0844732000005,148.0844732000005,148.0844732000005,148.0844732000005,,006,P015,2025_Feb_28_1833,ConditionRich,2021.2.3,59.9351501673692,
113.0,113.75,37,0.75,Stimuli/P015/things_swizzle_stick_08s.jpg,0,0,0.0,0,188,188,188,,,,,,,,,,,,,112.99983569999677,-0.00016430000323452987,None,148.3346894000024,148.3346894000024,148.3346894000024,148.3346894000024,148.3346894000024,148.3346894000024,148.3346894000024,148.3346894000024,148.3346894000024,148.3346894000024,,006,P015,2025_Feb_28_1833,ConditionRich,2021.2.3,59.9351501673692,
113.75,114.0,41,0.0,Stimuli/Blank.png,0,0,0.0,0,189,189,189,,,,,,,,,,,,,113.75185209999836,0.0018520999983593356,None,149.10204850000082,149.10204850000082,149.10204850000082,149.10204850000082,149.10204850000082,149.10204850000082,149.10204850000082,149.10204850000082,149.10204850000082,149.10204850000082,,006,P015,2025_Feb_28_1833,ConditionRich,2021.2.3,59.9351501673692,
114.0,114.75,37,0.75,Stimuli/P015/things_swizzle_stick_08s.jpg,0,0,0.0,0,190,190,190,,,,,,,,,,,,,114.01721769999858,0.017217699998582248,None,149.35226030000194,149.35226030000194,149.35226030000194,149.35226030000194,149.35226030000194,149.35226030000194,149.35226030000194,149.35226030000194,149.35226030000194,149.35226030000194,,006,P015,2025_Feb_28_1833,ConditionRich,2021.2.3,59.9351501673692,
114.75,115.0,41,0.0,Stimuli/Blank.png,0,0,0.0,0,191,191,191,,,,,,,,,,,,,114.75226139999722,0.0022613999972236343,None,150.08624200000122,150.08624200000122,150.08624200000122,150.08624200000122,150.08624200000122,150.08624200000122,150.08624200000122,150.08624200000122,150.08624200000122,150.08624200000122,,006,P015,2025_Feb_28_1833,ConditionRich,2021.2.3,59.9351501673692,
115.0,115.75,37,0.75,Stimuli/P015/things_swizzle_stick_08s.jpg,1,0,0.75,0,192,192,192,,,,,,,,,,,,,115.00171729999784,0.001717299997835653,1,150.33646940000108,150.33646940000108,150.33646940000108,150.33646940000108,150.33646940000108,150.33646940000108,150.33646940000108,151.07044560000213,150.33646940000108,150.33646940000108,0.5341330000010203,006,P015,2025_Feb_28_1833,ConditionRich,2021.2.3,59.9351501673692,
115.75,116.0,41,0.0,Stimuli/Blank.png,0,0,0.0,0,193,193,193,,,,,,,,,,,,,115.75253599999996,0.0025359999999636784,None,151.08712469999955,151.08712469999955,151.08712469999955,151.08712469999955,151.08712469999955,151.08712469999955,151.08712469999955,151.08712469999955,151.08712469999955,151.08712469999955,,006,P015,2025_Feb_28_1833,ConditionRich,2021.2.3,59.9351501673692,
116.0,116.75,38,0.75,Stimuli/P015/things_trumpet_08s.jpg,0,0,0.0,0,194,194,194,,,,,,,,,,,,,116.00205459999779,0.002054599997791229,None,151.33734639999966,151.33734639999966,151.33734639999966,151.33734639999966,151.33734639999966,151.33734639999966,151.33734639999966,151.33734639999966,151.33734639999966,151.33734639999966,,006,P015,2025_Feb_28_1833,ConditionRich,2021.2.3,59.9351501673692,
116.75,117.0,41,0.0,Stimuli/Blank.png,0,0,0.0,0,195,195,195,,,,,,,,,,,,,116.75260849999904,0.002608499999041669,None,152.0880118999994,152.0880118999994,152.0880118999994,152.0880118999994,152.0880118999994,152.0880118999994,152.0880118999994,152.0880118999994,152.0880118999994,152.0880118999994,,006,P015,2025_Feb_28_1833,ConditionRich,2021.2.3,59.9351501673692,
117.0,117.75,38,0.75,Stimuli/P015/things_trumpet_08s.jpg,0,0,0.0,0,196,196,196,,,,,,,,,,,,,117.00333799999862,0.003337999998620944,None,152.33823800000027,152.33823800000027,152.33823800000027,152.33823800000027,152.33823800000027,152.33823800000027,152.33823800000027,152.33823800000027,152.33823800000027,152.33823800000027,,006,P015,2025_Feb_28_1833,ConditionRich,2021.2.3,59.9351501673692,
117.75,118.0,41,0.0,Stimuli/Blank.png,0,0,0.0,0,197,197,197,,,,,,,,,,,,,117.7533825999999,0.0033825999998953193,None,153.0888698000017,153.0888698000017,153.0888698000017,153.0888698000017,153.0888698000017,153.0888698000017,153.0888698000017,153.0888698000017,153.0888698000017,153.0888698000017,,006,P015,2025_Feb_28_1833,ConditionRich,2021.2.3,59.9351501673692,
118.0,118.75,38,0.75,Stimuli/P015/things_trumpet_08s.jpg,0,0,0.0,0,198,198,198,,,,,,,,,,,,,118.00728979999985,0.00728979999985313,None,153.35581939999975,153.35581939999975,153.35581939999975,153.35581939999975,153.35581939999975,153.35581939999975,153.35581939999975,153.35581939999975,153.35581939999975,153.35581939999975,,006,P015,2025_Feb_28_1833,ConditionRich,2021.2.3,59.9351501673692,
118.75,119.0,41,0.0,Stimuli/Blank.png,0,0,0.0,0,199,199,199,,,,,,,,,,,,,118.77109829999972,0.02109829999972135,None,154.10646909999923,154.10646909999923,154.10646909999923,154.10646909999923,154.10646909999923,154.10646909999923,154.10646909999923,154.10646909999923,154.10646909999923,154.10646909999923,,006,P015,2025_Feb_28_1833,ConditionRich,2021.2.3,59.9351501673692,
119.0,119.75,38,0.75,Stimuli/P015/things_trumpet_08s.jpg,1,0,0.75,0,200,200,200,,,,,,,,,,,,,119.00657249999858,0.0065724999985832255,1,154.35668710000027,154.35668710000027,154.35668710000027,154.35668710000027,154.35668710000027,154.35668710000027,154.35668710000027,155.09067649999997,154.35668710000027,154.35668710000027,0.5447349999994913,006,P015,2025_Feb_28_1833,ConditionRich,2021.2.3,59.9351501673692,
119.75,120.0,41,0.0,Stimuli/Blank.png,0,0,0.0,0,201,201,201,,,,,,,,,,,,,119.77253259999998,0.02253259999997681,None,155.1073526,155.1073526,155.1073526,155.1073526,155.1073526,155.1073526,155.1073526,155.1073526,155.1073526,155.1073526,,006,P015,2025_Feb_28_1833,ConditionRich,2021.2.3,59.9351501673692,
120.0,120.75,23,0.75,Stimuli/P015/things_boy_08s.jpg,0,0,0.0,0,202,202,202,,,,,,,,,,,,,120.00770069999999,0.007700699999986682,None,155.3575705000003,155.3575705000003,155.3575705000003,155.3575705000003,155.3575705000003,155.3575705000003,155.3575705000003,155.3575705000003,155.3575705000003,155.3575705000003,,006,P015,2025_Feb_28_1833,ConditionRich,2021.2.3,59.9351501673692,
120.75,121.0,41,0.0,Stimuli/Blank.png,0,0,0.0,0,203,203,203,,,,,,,,,,,,,120.77267609999762,0.022676099997624988,None,156.10823940000046,156.10823940000046,156.10823940000046,156.10823940000046,156.10823940000046,156.10823940000046,156.10823940000046,156.10823940000046,156.10823940000046,156.10823940000046,,006,P015,2025_Feb_28_1833,ConditionRich,2021.2.3,59.9351501673692,
121.0,121.75,23,0.75,Stimuli/P015/things_boy_08s.jpg,0,0,0.0,0,204,204,204,,,,,,,,,,,,,121.00646209999832,0.006462099998316262,None,156.3417773000001,156.3417773000001,156.3417773000001,156.3417773000001,156.3417773000001,156.3417773000001,156.3417773000001,156.3417773000001,156.3417773000001,156.3417773000001,,006,P015,2025_Feb_28_1833,ConditionRich,2021.2.3,59.9351501673692,
121.75,122.0,41,0.0,Stimuli/Blank.png,0,0,0.0,0,205,205,205,,,,,,,,,,,,,121.75699739999982,0.006997399999818299,None,157.0924565000023,157.0924565000023,157.0924565000023,157.0924565000023,157.0924565000023,157.0924565000023,157.0924565000023,157.0924565000023,157.0924565000023,157.0924565000023,,006,P015,2025_Feb_28_1833,ConditionRich,2021.2.3,59.9351501673692,
122.0,122.75,23,0.75,Stimuli/P015/things_boy_08s.jpg,0,0,0.0,0,206,206,206,,,,,,,,,,,,,122.00737699999809,0.007376999998086831,None,157.34288150000066,157.34288150000066,157.34288150000066,157.34288150000066,157.34288150000066,157.34288150000066,157.34288150000066,157.34288150000066,157.34288150000066,157.34288150000066,,006,P015,2025_Feb_28_1833,ConditionRich,2021.2.3,59.9351501673692,
122.75,123.0,41,0.0,Stimuli/Blank.png,0,0,0.0,0,207,207,207,,,,,,,,,,,,,122.7585153,0.008515299999999115,None,158.09332880000147,158.09332880000147,158.09332880000147,158.09332880000147,158.09332880000147,158.09332880000147,158.09332880000147,158.09332880000147,158.09332880000147,158.09332880000147,,006,P015,2025_Feb_28_1833,ConditionRich,2021.2.3,59.9351501673692,
123.0,123.75,23,0.75,Stimuli/P015/things_boy_08s.jpg,0,0,0.0,0,208,208,208,,,,,,,,,,,,,123.00903850000032,0.009038500000315253,None,158.3602505000017,158.3602505000017,158.3602505000017,158.3602505000017,158.3602505000017,158.3602505000017,158.3602505000017,158.3602505000017,158.3602505000017,158.3602505000017,,006,P015,2025_Feb_28_1833,ConditionRich,2021.2.3,59.9351501673692,
123.75,124.0,41,0.0,Stimuli/Blank.png,0,0,0.0,0,209,209,209,,,,,,,,,,,,,123.77779269999883,0.02779269999882672,None,159.12758920000124,159.12758920000124,159.12758920000124,159.12758920000124,159.12758920000124,159.12758920000124,159.12758920000124,159.12758920000124,159.12758920000124,159.12758920000124,,006,P015,2025_Feb_28_1833,ConditionRich,2021.2.3,59.9351501673692,
124.0,124.75,40,0.75,Stimuli/P015/things_woman_08s.jpg,0,0,0.0,0,210,210,210,,,,,,,,,,,,,124.02780429999984,0.02780429999984335,None,159.37780120000025,159.37780120000025,159.37780120000025,159.37780120000025,159.37780120000025,159.37780120000025,159.37780120000025,159.37780120000025,159.37780120000025,159.37780120000025,,006,P015,2025_Feb_28_1833,ConditionRich,2021.2.3,59.9351501673692,
124.75,125.0,41,0.0,Stimuli/Blank.png,0,0,0.0,0,211,211,211,,,,,,,,,,,,,124.7768877999988,0.02688779999880353,None,160.11177680000037,160.11177680000037,160.11177680000037,160.11177680000037,160.11177680000037,160.11177680000037,160.11177680000037,160.11177680000037,160.11177680000037,160.11177680000037,,006,P015,2025_Feb_28_1833,ConditionRich,2021.2.3,59.9351501673692,
125.0,125.75,40,0.75,Stimuli/P015/things_woman_08s.jpg,0,0,0.0,0,212,212,212,,,,,,,,,,,,,125.01041809999879,0.010418099998787511,None,160.34532050000053,160.34532050000053,160.34532050000053,160.34532050000053,160.34532050000053,160.34532050000053,160.34532050000053,160.34532050000053,160.34532050000053,160.34532050000053,,006,P015,2025_Feb_28_1833,ConditionRich,2021.2.3,59.9351501673692,
125.75,126.0,41,0.0,Stimuli/Blank.png,0,0,0.0,0,213,213,213,,,,,,,,,,,,,125.76357680000001,0.013576800000009825,None,161.11267860000225,161.11267860000225,161.11267860000225,161.11267860000225,161.11267860000225,161.11267860000225,161.11267860000225,161.11267860000225,161.11267860000225,161.11267860000225,,006,P015,2025_Feb_28_1833,ConditionRich,2021.2.3,59.9351501673692,
126.0,126.75,40,0.75,Stimuli/P015/things_woman_08s.jpg,0,0,0.0,0,214,214,214,,,,,,,,,,,,,126.0292042000001,0.029204200000094716,None,161.3795687999991,161.3795687999991,161.3795687999991,161.3795687999991,161.3795687999991,161.3795687999991,161.3795687999991,161.3795687999991,161.3795687999991,161.3795687999991,,006,P015,2025_Feb_28_1833,ConditionRich,2021.2.3,59.9351501673692,
126.75,127.0,41,0.0,Stimuli/Blank.png,0,0,0.0,0,215,215,215,,,,,,,,,,,,,126.7790107999972,0.029010799997195136,None,162.11354930000016,162.11354930000016,162.11354930000016,162.11354930000016,162.11354930000016,162.11354930000016,162.11354930000016,162.11354930000016,162.11354930000016,162.11354930000016,,006,P015,2025_Feb_28_1833,ConditionRich,2021.2.3,59.9351501673692,
127.0,127.75,40,0.75,Stimuli/P015/things_woman_08s.jpg,0,0,0.0,0,216,216,216,,,,,,,,,,,,,127.0127352999989,0.012735299998894334,None,162.36379930000112,162.36379930000112,162.36379930000112,162.36379930000112,162.36379930000112,162.36379930000112,162.36379930000112,162.36379930000112,162.36379930000112,162.36379930000112,,006,P015,2025_Feb_28_1833,ConditionRich,2021.2.3,59.9351501673692,
127.75,128.0,41,0.0,Stimuli/Blank.png,0,0,0.0,0,217,217,217,,,,,,,,,,,,,127.78010429999995,0.030104299999948125,None,163.11443090000103,163.11443090000103,163.11443090000103,163.11443090000103,163.11443090000103,163.11443090000103,163.11443090000103,163.11443090000103,163.11443090000103,163.11443090000103,,006,P015,2025_Feb_28_1833,ConditionRich,2021.2.3,59.9351501673692,
128.0,128.75,32,0.75,Stimuli/P015/things_pheasant_08s.jpg,0,0,0.0,0,218,218,218,,,,,,,,,,,,,128.01278269999966,0.012782699999661418,None,163.3479726000005,163.3479726000005,163.3479726000005,163.3479726000005,163.3479726000005,163.3479726000005,163.3479726000005,163.3479726000005,163.3479726000005,163.3479726000005,,006,P015,2025_Feb_28_1833,ConditionRich,2021.2.3,59.9351501673692,
128.75,129.0,41,0.0,Stimuli/Blank.png,0,0,0.0,0,219,219,219,,,,,,,,,,,,,128.76394459999938,0.013944599999376805,None,164.09863640000185,164.09863640000185,164.09863640000185,164.09863640000185,164.09863640000185,164.09863640000185,164.09863640000185,164.09863640000185,164.09863640000185,164.09863640000185,,006,P015,2025_Feb_28_1833,ConditionRich,2021.2.3,59.9351501673692,
129.0,129.75,32,0.75,Stimuli/P015/things_pheasant_08s.jpg,0,0,0.0,0,220,220,220,,,,,,,,,,,,,129.0133894999999,0.01338949999990291,None,164.3488584000006,164.3488584000006,164.3488584000006,164.3488584000006,164.3488584000006,164.3488584000006,164.3488584000006,164.3488584000006,164.3488584000006,164.3488584000006,,006,P015,2025_Feb_28_1833,ConditionRich,2021.2.3,59.9351501673692,
129.75,130.0,41,0.0,Stimuli/Blank.png,0,0,0.0,0,221,221,221,,,,,,,,,,,,,129.76416049999898,0.014160499998979503,None,165.09952350000094,165.09952350000094,165.09952350000094,165.09952350000094,165.09952350000094,165.09952350000094,165.09952350000094,165.09952350000094,165.09952350000094,165.09952350000094,,006,P015,2025_Feb_28_1833,ConditionRich,2021.2.3,59.9351501673692,
130.0,130.75,32,0.75,Stimuli/P015/things_pheasant_08s.jpg,0,0,0.0,0,222,222,222,,,,,,,,,,,,,130.01426179999908,0.014261799999076175,None,165.36643900000126,165.36643900000126,165.36643900000126,165.36643900000126,165.36643900000126,165.36643900000126,165.36643900000126,165.36643900000126,165.36643900000126,165.36643900000126,,006,P015,2025_Feb_28_1833,ConditionRich,2021.2.3,59.9351501673692,
130.75,131.0,41,0.0,Stimuli/Blank.png,0,0,0.0,0,223,223,223,,,,,,,,,,,,,130.7823322999975,0.0323322999975062,None,166.11708780000117,166.11708780000117,166.11708780000117,166.11708780000117,166.11708780000117,166.11708780000117,166.11708780000117,166.11708780000117,166.11708780000117,166.11708780000117,,006,P015,2025_Feb_28_1833,ConditionRich,2021.2.3,59.9351501673692,
131.0,131.75,32,0.75,Stimuli/P015/things_pheasant_08s.jpg,0,0,0.0,0,224,224,224,,,,,,,,,,,,,130.99910309999905,-0.0008969000009528827,None,166.33394430000044,166.33394430000044,166.33394430000044,166.33394430000044,166.33394430000044,166.33394430000044,166.33394430000044,166.33394430000044,166.33394430000044,166.33394430000044,,006,P015,2025_Feb_28_1833,ConditionRich,2021.2.3,59.9351501673692,
131.75,132.0,41,0.0,Stimuli/Blank.png,0,0,0.0,0,225,225,225,,,,,,,,,,,,,131.74975389999963,-0.0002461000003677327,None,167.08462060000238,167.08462060000238,167.08462060000238,167.08462060000238,167.08462060000238,167.08462060000238,167.08462060000238,167.08462060000238,167.08462060000238,167.08462060000238,,006,P015,2025_Feb_28_1833,ConditionRich,2021.2.3,59.9351501673692,
132.0,132.75,3,0.75,Stimuli/P015/sun_aiogwnavezqxkzfg.jpg,0,0,0.0,0,226,226,226,,,,,,,,,,,,,131.99990059999982,-9.940000018104911e-05,None,167.33483859999978,167.33483859999978,167.33483859999978,167.33483859999978,167.33483859999978,167.33483859999978,167.33483859999978,167.33483859999978,167.33483859999978,167.33483859999978,,006,P015,2025_Feb_28_1833,ConditionRich,2021.2.3,59.9351501673692,
132.75,133.0,41,0.0,Stimuli/Blank.png,0,0,0.0,0,227,227,227,,,,,,,,,,,,,132.75240829999893,0.0024082999989332166,None,168.10218630000236,168.10218630000236,168.10218630000236,168.10218630000236,168.10218630000236,168.10218630000236,168.10218630000236,168.10218630000236,168.10218630000236,168.10218630000236,,006,P015,2025_Feb_28_1833,ConditionRich,2021.2.3,59.9351501673692,
133.0,133.75,3,0.75,Stimuli/P015/sun_aiogwnavezqxkzfg.jpg,0,0,0.0,0,228,228,228,,,,,,,,,,,,,133.01783839999916,0.017838399999163812,None,168.36912379999922,168.36912379999922,168.36912379999922,168.36912379999922,168.36912379999922,168.36912379999922,168.36912379999922,168.36912379999922,168.36912379999922,168.36912379999922,,006,P015,2025_Feb_28_1833,ConditionRich,2021.2.3,59.9351501673692,
133.75,134.0,41,0.0,Stimuli/Blank.png,0,0,0.0,0,229,229,229,,,,,,,,,,,,,133.7681621999982,0.018162199998187134,None,169.10306970000238,169.10306970000238,169.10306970000238,169.10306970000238,169.10306970000238,169.10306970000238,169.10306970000238,169.10306970000238,169.10306970000238,169.10306970000238,,006,P015,2025_Feb_28_1833,ConditionRich,2021.2.3,59.9351501673692,
134.0,134.75,3,0.75,Stimuli/P015/sun_aiogwnavezqxkzfg.jpg,0,0,0.0,0,230,230,230,,,,,,,,,,,,,134.00139809999746,0.0013980999974592123,None,169.33660670000245,169.33660670000245,169.33660670000245,169.33660670000245,169.33660670000245,169.33660670000245,169.33660670000245,169.33660670000245,169.33660670000245,169.33660670000245,,006,P015,2025_Feb_28_1833,ConditionRich,2021.2.3,59.9351501673692,
134.75,135.0,41,0.0,Stimuli/Blank.png,0,0,0.0,0,231,231,231,,,,,,,,,,,,,134.7527700999999,0.002770099999906961,None,170.0872804999999,170.0872804999999,170.0872804999999,170.0872804999999,170.0872804999999,170.0872804999999,170.0872804999999,170.0872804999999,170.0872804999999,170.0872804999999,,006,P015,2025_Feb_28_1833,ConditionRich,2021.2.3,59.9351501673692,
135.0,135.75,3,0.75,Stimuli/P015/sun_aiogwnavezqxkzfg.jpg,1,0,0.75,0,232,232,232,,,,,,,,,,,,,135.00329859999692,0.0032985999969241675,1,170.3541738999993,170.3541738999993,170.3541738999993,170.3541738999993,170.3541738999993,170.3541738999993,170.3541738999993,171.07150040000124,170.3541738999993,170.3541738999993,0.5733409999993455,006,P015,2025_Feb_28_1833,ConditionRich,2021.2.3,59.9351501673692,
135.75,136.0,41,0.0,Stimuli/Blank.png,0,0,0.0,0,233,233,233,,,,,,,,,,,,,135.76966840000023,0.019668400000227848,None,171.10483759999988,171.10483759999988,171.10483759999988,171.10483759999988,171.10483759999988,171.10483759999988,171.10483759999988,171.10483759999988,171.10483759999988,171.10483759999988,,006,P015,2025_Feb_28_1833,ConditionRich,2021.2.3,59.9351501673692,
136.0,136.75,26,0.75,Stimuli/P015/things_face_08s.jpg,0,0,0.0,0,234,234,234,,,,,,,,,,,,,136.00370889999976,0.0037088999997649807,None,171.3383801000018,171.3383801000018,171.3383801000018,171.3383801000018,171.3383801000018,171.3383801000018,171.3383801000018,171.3383801000018,171.3383801000018,171.3383801000018,,006,P015,2025_Feb_28_1833,ConditionRich,2021.2.3,59.9351501673692,
136.75,137.0,41,0.0,Stimuli/Blank.png,0,0,0.0,0,235,235,235,,,,,,,,,,,,,136.75365260000035,0.0036526000003505033,None,172.08904679999978,172.08904679999978,172.08904679999978,172.08904679999978,172.08904679999978,172.08904679999978,172.08904679999978,172.08904679999978,172.08904679999978,172.08904679999978,,006,P015,2025_Feb_28_1833,ConditionRich,2021.2.3,59.9351501673692,
137.0,137.75,26,0.75,Stimuli/P015/things_face_08s.jpg,0,0,0.0,0,236,236,236,,,,,,,,,,,,,137.0046156999997,0.004615699999703793,None,172.35596929999883,172.35596929999883,172.35596929999883,172.35596929999883,172.35596929999883,172.35596929999883,172.35596929999883,172.35596929999883,172.35596929999883,172.35596929999883,,006,P015,2025_Feb_28_1833,ConditionRich,2021.2.3,59.9351501673692,
137.75,138.0,41,0.0,Stimuli/Blank.png,0,0,0.0,0,237,237,237,,,,,,,,,,,,,137.77272829999856,0.02272829999856185,None,173.10660700000153,173.10660700000153,173.10660700000153,173.10660700000153,173.10660700000153,173.10660700000153,173.10660700000153,173.10660700000153,173.10660700000153,173.10660700000153,,006,P015,2025_Feb_28_1833,ConditionRich,2021.2.3,59.9351501673692,
138.0,138.75,26,0.75,Stimuli/P015/things_face_08s.jpg,0,0,0.0,0,238,238,238,,,,,,,,,,,,,138.00486949999686,0.004869499996857485,None,173.35686110000097,173.35686110000097,173.35686110000097,173.35686110000097,173.35686110000097,173.35686110000097,173.35686110000097,173.35686110000097,173.35686110000097,173.35686110000097,,006,P015,2025_Feb_28_1833,ConditionRich,2021.2.3,59.9351501673692,
138.75,139.0,41,0.0,Stimuli/Blank.png,0,0,0.0,0,239,239,239,,,,,,,,,,,,,138.77204599999823,0.022045999998226762,None,174.10749130000113,174.10749130000113,174.10749130000113,174.10749130000113,174.10749130000113,174.10749130000113,174.10749130000113,174.10749130000113,174.10749130000113,174.10749130000113,,006,P015,2025_Feb_28_1833,ConditionRich,2021.2.3,59.9351501673692,
139.0,139.75,26,0.75,Stimuli/P015/things_face_08s.jpg,0,0,0.0,0,240,240,240,,,,,,,,,,,,,139.0079603999984,0.00796039999841014,None,174.35772890000226,174.35772890000226,174.35772890000226,174.35772890000226,174.35772890000226,174.35772890000226,174.35772890000226,174.35772890000226,174.35772890000226,174.35772890000226,,006,P015,2025_Feb_28_1833,ConditionRich,2021.2.3,59.9351501673692,
139.75,140.0,41,0.0,Stimuli/Blank.png,0,0,0.0,0,241,241,241,,,,,,,,,,,,,139.7735431000001,0.023543100000097184,None,175.10835829999996,175.10835829999996,175.10835829999996,175.10835829999996,175.10835829999996,175.10835829999996,175.10835829999996,175.10835829999996,175.10835829999996,175.10835829999996,,006,P015,2025_Feb_28_1833,ConditionRich,2021.2.3,59.9351501673692,
140.0,140.75,34,0.75,Stimuli/P015/things_shower_cap_08s.jpg,0,0,0.0,0,242,242,242,,,,,,,,,,,,,140.00675299999784,0.00675299999784329,None,175.35868100000152,175.35868100000152,175.35868100000152,175.35868100000152,175.35868100000152,175.35868100000152,175.35868100000152,175.35868100000152,175.35868100000152,175.35868100000152,,006,P015,2025_Feb_28_1833,ConditionRich,2021.2.3,59.9351501673692,
140.75,141.0,41,0.0,Stimuli/Blank.png,0,0,0.0,0,243,243,243,,,,,,,,,,,,,140.77465279999888,0.024652799998875707,None,176.10927530000117,176.10927530000117,176.10927530000117,176.10927530000117,176.10927530000117,176.10927530000117,176.10927530000117,176.10927530000117,176.10927530000117,176.10927530000117,,006,P015,2025_Feb_28_1833,ConditionRich,2021.2.3,59.9351501673692,
141.0,141.75,34,0.75,Stimuli/P015/things_shower_cap_08s.jpg,0,0,0.0,0,244,244,244,,,,,,,,,,,,,141.0097014999992,0.009701499999209773,None,176.35949970000001,176.35949970000001,176.35949970000001,176.35949970000001,176.35949970000001,176.35949970000001,176.35949970000001,176.35949970000001,176.35949970000001,176.35949970000001,,006,P015,2025_Feb_28_1833,ConditionRich,2021.2.3,59.9351501673692,
141.75,142.0,41,0.0,Stimuli/Blank.png,0,0,0.0,0,245,245,245,,,,,,,,,,,,,141.7764943000002,0.026494300000194926,None,177.1101665999995,177.1101665999995,177.1101665999995,177.1101665999995,177.1101665999995,177.1101665999995,177.1101665999995,177.1101665999995,177.1101665999995,177.1101665999995,,006,P015,2025_Feb_28_1833,ConditionRich,2021.2.3,59.9351501673692,
142.0,142.75,34,0.75,Stimuli/P015/things_shower_cap_08s.jpg,0,0,0.0,0,246,246,246,,,,,,,,,,,,,142.0092373999978,0.009237399997800821,None,177.34369080000033,177.34369080000033,177.34369080000033,177.34369080000033,177.34369080000033,177.34369080000033,177.34369080000033,177.34369080000033,177.34369080000033,177.34369080000033,,006,P015,2025_Feb_28_1833,ConditionRich,2021.2.3,59.9351501673692,
142.75,143.0,41,0.0,Stimuli/Blank.png,0,0,0.0,0,247,247,247,,,,,,,,,,,,,142.75890079999954,0.008900799999537412,None,178.09435740000117,178.09435740000117,178.09435740000117,178.09435740000117,178.09435740000117,178.09435740000117,178.09435740000117,178.09435740000117,178.09435740000117,178.09435740000117,,006,P015,2025_Feb_28_1833,ConditionRich,2021.2.3,59.9351501673692,
143.0,143.75,34,0.75,Stimuli/P015/things_shower_cap_08s.jpg,0,0,0.0,0,248,248,248,,,,,,,,,,,,,143.01017419999698,0.01017419999698177,None,178.36128330000065,178.36128330000065,178.36128330000065,178.36128330000065,178.36128330000065,178.36128330000065,178.36128330000065,178.36128330000065,178.36128330000065,178.36128330000065,,006,P015,2025_Feb_28_1833,ConditionRich,2021.2.3,59.9351501673692,
143.75,144.0,41,0.0,Stimuli/Blank.png,0,0,0.0,0,249,249,249,,,,,,,,,,,,,143.77698919999966,0.02698919999966165,None,179.1119295999997,179.1119295999997,179.1119295999997,179.1119295999997,179.1119295999997,179.1119295999997,179.1119295999997,179.1119295999997,179.1119295999997,179.1119295999997,,006,P015,2025_Feb_28_1833,ConditionRich,2021.2.3,59.9351501673692,
144.0,144.75,1,0.75,Stimuli/P015/sun_aacpzgqrortyhyss.jpg,0,0,0.0,0,250,250,250,,,,,,,,,,,,,144.01003859999764,0.01003859999764245,None,179.34546000000046,179.34546000000046,179.34546000000046,179.34546000000046,179.34546000000046,179.34546000000046,179.34546000000046,179.34546000000046,179.34546000000046,179.34546000000046,,006,P015,2025_Feb_28_1833,ConditionRich,2021.2.3,59.9351501673692,
144.75,145.0,41,0.0,Stimuli/Blank.png,0,0,0.0,0,251,251,251,,,,,,,,,,,,,144.76062239999737,0.010622399997373577,None,180.09612500000003,180.09612500000003,180.09612500000003,180.09612500000003,180.09612500000003,180.09612500000003,180.09612500000003,180.09612500000003,180.09612500000003,180.09612500000003,,006,P015,2025_Feb_28_1833,ConditionRich,2021.2.3,59.9351501673692,
145.0,145.75,1,0.75,Stimuli/P015/sun_aacpzgqrortyhyss.jpg,0,0,0.0,0,252,252,252,,,,,,,,,,,,,145.01100199999928,0.011001999999280088,None,180.34634630000073,180.34634630000073,180.34634630000073,180.34634630000073,180.34634630000073,180.34634630000073,180.34634630000073,180.34634630000073,180.34634630000073,180.34634630000073,,006,P015,2025_Feb_28_1833,ConditionRich,2021.2.3,59.9351501673692,
145.75,146.0,41,0.0,Stimuli/Blank.png,0,0,0.0,0,253,253,253,,,,,,,,,,,,,145.76155239999935,0.011552399999345653,None,181.0970253000014,181.0970253000014,181.0970253000014,181.0970253000014,181.0970253000014,181.0970253000014,181.0970253000014,181.0970253000014,181.0970253000014,181.0970253000014,,006,P015,2025_Feb_28_1833,ConditionRich,2021.2.3,59.9351501673692,
146.0,146.75,1,0.75,Stimuli/P015/sun_aacpzgqrortyhyss.jpg,0,0,0.0,0,254,254,254,,,,,,,,,,,,,146.01464919999853,0.014649199998530094,None,181.36392750000232,181.36392750000232,181.36392750000232,181.36392750000232,181.36392750000232,181.36392750000232,181.36392750000232,181.36392750000232,181.36392750000232,181.36392750000232,,006,P015,2025_Feb_28_1833,ConditionRich,2021.2.3,59.9351501673692,
146.75,147.0,41,0.0,Stimuli/Blank.png,0,0,0.0,0,255,255,255,,,,,,,,,,,,,146.7797815999984,0.02978159999838681,None,182.11459910000121,182.11459910000121,182.11459910000121,182.11459910000121,182.11459910000121,182.11459910000121,182.11459910000121,182.11459910000121,182.11459910000121,182.11459910000121,,006,P015,2025_Feb_28_1833,ConditionRich,2021.2.3,59.9351501673692,
147.0,147.75,1,0.75,Stimuli/P015/sun_aacpzgqrortyhyss.jpg,0,0,0.0,0,256,256,256,,,,,,,,,,,,,147.01384849999886,0.013848499998857733,None,182.36482590000014,182.36482590000014,182.36482590000014,182.36482590000014,182.36482590000014,182.36482590000014,182.36482590000014,182.36482590000014,182.36482590000014,182.36482590000014,,006,P015,2025_Feb_28_1833,ConditionRich,2021.2.3,59.9351501673692,
147.75,148.0,41,0.0,Stimuli/Blank.png,0,0,0.0,0,257,257,257,,,,,,,,,,,,,147.78013629999987,0.030136299999867333,None,183.11546880000242,183.11546880000242,183.11546880000242,183.11546880000242,183.11546880000242,183.11546880000242,183.11546880000242,183.11546880000242,183.11546880000242,183.11546880000242,,006,P015,2025_Feb_28_1833,ConditionRich,2021.2.3,59.9351501673692,
148.0,148.75,27,0.75,Stimuli/P015/things_girl_08s.jpg,0,0,0.0,0,258,258,258,,,,,,,,,,,,,148.01427519999925,0.014275199999246979,None,183.34900430000198,183.34900430000198,183.34900430000198,183.34900430000198,183.34900430000198,183.34900430000198,183.34900430000198,183.34900430000198,183.34900430000198,183.34900430000198,,006,P015,2025_Feb_28_1833,ConditionRich,2021.2.3,59.9351501673692,
148.75,149.0,41,0.0,Stimuli/Blank.png,0,0,0.0,0,259,259,259,,,,,,,,,,,,,148.76532399999996,0.015323999999964144,None,184.09967840000172,184.09967840000172,184.09967840000172,184.09967840000172,184.09967840000172,184.09967840000172,184.09967840000172,184.09967840000172,184.09967840000172,184.09967840000172,,006,P015,2025_Feb_28_1833,ConditionRich,2021.2.3,59.9351501673692,
149.0,149.75,27,0.75,Stimuli/P015/things_girl_08s.jpg,0,0,0.0,0,260,260,260,,,,,,,,,,,,,149.01600679999683,0.016006799996830523,None,184.36657360000027,184.36657360000027,184.36657360000027,184.36657360000027,184.36657360000027,184.36657360000027,184.36657360000027,184.36657360000027,184.36657360000027,184.36657360000027,,006,P015,2025_Feb_28_1833,ConditionRich,2021.2.3,59.9351501673692,
149.75,150.0,41,0.0,Stimuli/Blank.png,0,0,0.0,0,261,261,261,,,,,,,,,,,,,149.76634009999907,0.016340099999069935,None,185.10056260000056,185.10056260000056,185.10056260000056,185.10056260000056,185.10056260000056,185.10056260000056,185.10056260000056,185.10056260000056,185.10056260000056,185.10056260000056,,006,P015,2025_Feb_28_1833,ConditionRich,2021.2.3,59.9351501673692,
150.0,150.75,27,0.75,Stimuli/P015/things_girl_08s.jpg,0,0,0.0,0,262,262,262,,,,,,,,,,,,,149.99923659999695,-0.0007634000030520838,None,185.33406530000138,185.33406530000138,185.33406530000138,185.33406530000138,185.33406530000138,185.33406530000138,185.33406530000138,185.33406530000138,185.33406530000138,185.33406530000138,,006,P015,2025_Feb_28_1833,ConditionRich,2021.2.3,59.9351501673692,
