eventStartTime,eventEndTime,eventCond,imSize,imFile,responseEvent,fixRespStart,fixRespEnd,Events.thisRepN,Events.thisTrialN,Events.thisN,Events.thisIndex,Instructions.started,Instructions.stopped,participantReadyResponse.keys,participantReadyResponse.rt,participantReadyResponse.started,participantReadyResponse.stopped,startWaitforTrigger,triggerResponse.keys,triggerResponse.rt,triggerResponse.started,triggerResponse.stopped,globalTimer,actualStartTime,startTimingDiff,participantResponse.keys,participantResponse.started,participantResponse.stopped,image.started,image.stopped,fixationOutside.started,fixationOutside.stopped,fixationResponse.started,fixationResponse.stopped,fixationInside.started,fixationInside.stopped,participantResponse.rt,session,participant,date,expName,psychopyVersion,frameRate,
,,,,,,,,,,,,10.553331099999923,None,1,5.716744400000607,10.553331099999923,None,,,,,,,,,,,,,,,,,,,,,003,P015,2025_Feb_28_1804,ConditionRich,2021.2.3,59.94456326752858,
,,,,,,,,,,,,,,,,,,16.273885800001153,5,14.331984899999952,16.28821059999973,None,,,,,,,,,,,,,,,,003,P015,2025_Feb_28_1804,ConditionRich,2021.2.3,59.94456326752858,
0.0,4.0,0,0.0,Stimuli/Blank.png,0,0,0.0,0,0,0,0,,,,,,,,,,,,30.63657729999977,0.048039799999969546,0.048039799999969546,None,30.700947799999994,None,30.700947799999994,None,30.700947799999994,None,30.700947799999994,30.700947799999994,30.700947799999994,None,,003,P015,2025_Feb_28_1804,ConditionRich,2021.2.3,59.94456326752858,
4.0,4.75,36,0.75,Stimuli/P015/things_streetlight_08s.jpg,0,0,0.0,0,1,1,1,,,,,,,,,,,,,4.005473000001075,0.005473000001074979,None,34.65470350000032,34.65470350000032,34.65470350000032,34.65470350000032,34.65470350000032,34.65470350000032,34.65470350000032,34.65470350000032,34.65470350000032,34.65470350000032,,003,P015,2025_Feb_28_1804,ConditionRich,2021.2.3,59.94456326752858,
4.75,5.0,41,0.0,Stimuli/Blank.png,0,0,0.0,0,2,2,2,,,,,,,,,,,,,4.754317800001445,0.0043178000014449935,None,35.40532290000192,35.40532290000192,35.40532290000192,35.40532290000192,35.40532290000192,35.40532290000192,35.40532290000192,35.40532290000192,35.40532290000192,35.40532290000192,,003,P015,2025_Feb_28_1804,ConditionRich,2021.2.3,59.94456326752858,
5.0,5.75,36,0.75,Stimuli/P015/things_streetlight_08s.jpg,0,0,0.0,0,3,3,3,,,,,,,,,,,,,5.00472290000107,0.004722900001070229,None,35.655347200001415,35.655347200001415,35.655347200001415,35.655347200001415,35.655347200001415,35.655347200001415,35.655347200001415,35.655347200001415,35.655347200001415,35.655347200001415,,003,P015,2025_Feb_28_1804,ConditionRich,2021.2.3,59.94456326752858,
5.75,6.0,41,0.0,Stimuli/Blank.png,0,0,0.0,0,4,4,4,,,,,,,,,,,,,5.754877200000919,0.004877200000919402,None,36.40598500000124,36.40598500000124,36.40598500000124,36.40598500000124,36.40598500000124,36.40598500000124,36.40598500000124,36.40598500000124,36.40598500000124,36.40598500000124,,003,P015,2025_Feb_28_1804,ConditionRich,2021.2.3,59.94456326752858,
6.0,6.75,36,0.75,Stimuli/P015/things_streetlight_08s.jpg,0,0,0.0,0,5,5,5,,,,,,,,,,,,,6.005382500003179,0.0053825000031793024,None,36.65621110000211,36.65621110000211,36.65621110000211,36.65621110000211,36.65621110000211,36.65621110000211,36.65621110000211,36.65621110000211,36.65621110000211,36.65621110000211,,003,P015,2025_Feb_28_1804,ConditionRich,2021.2.3,59.94456326752858,
6.75,7.0,41,0.0,Stimuli/Blank.png,0,0,0.0,0,6,6,6,,,,,,,,,,,,,6.7558244000028935,0.005824400002893526,None,37.40689080000084,37.40689080000084,37.40689080000084,37.40689080000084,37.40689080000084,37.40689080000084,37.40689080000084,37.40689080000084,37.40689080000084,37.40689080000084,,003,P015,2025_Feb_28_1804,ConditionRich,2021.2.3,59.94456326752858,
7.0,7.75,36,0.75,Stimuli/P015/things_streetlight_08s.jpg,1,0,0.75,0,7,7,7,,,,,,,,,,,,,7.006829200003267,0.006829200003267033,1,37.65717890000087,37.65717890000087,37.65717890000087,37.65717890000087,37.65717890000087,37.65717890000087,37.65717890000087,38.391199900001084,37.65717890000087,37.65717890000087,0.47421939999912865,003,P015,2025_Feb_28_1804,ConditionRich,2021.2.3,59.94456326752858,
7.75,8.0,41,0.0,Stimuli/Blank.png,0,0,0.0,0,8,8,8,,,,,,,,,,,,,7.759477700001298,0.009477700001298217,None,38.42458070000066,38.42458070000066,38.42458070000066,38.42458070000066,38.42458070000066,38.42458070000066,38.42458070000066,38.42458070000066,38.42458070000066,38.42458070000066,,003,P015,2025_Feb_28_1804,ConditionRich,2021.2.3,59.94456326752858,
8.0,8.75,26,0.75,Stimuli/P015/things_face_08s.jpg,0,0,0.0,0,9,9,9,,,,,,,,,,,,,8.024017600000661,0.024017600000661332,None,38.67479309999908,38.67479309999908,38.67479309999908,38.67479309999908,38.67479309999908,38.67479309999908,38.67479309999908,38.67479309999908,38.67479309999908,38.67479309999908,,003,P015,2025_Feb_28_1804,ConditionRich,2021.2.3,59.94456326752858,
8.75,9.0,41,0.0,Stimuli/Blank.png,0,0,0.0,0,10,10,10,,,,,,,,,,,,,8.758803400000033,0.008803400000033434,None,39.4087827000003,39.4087827000003,39.4087827000003,39.4087827000003,39.4087827000003,39.4087827000003,39.4087827000003,39.4087827000003,39.4087827000003,39.4087827000003,,003,P015,2025_Feb_28_1804,ConditionRich,2021.2.3,59.94456326752858,
9.0,9.75,26,0.75,Stimuli/P015/things_face_08s.jpg,0,0,0.0,0,11,11,11,,,,,,,,,,,,,9.0079493000012,0.007949300001200754,None,39.658995000001596,39.658995000001596,39.658995000001596,39.658995000001596,39.658995000001596,39.658995000001596,39.658995000001596,39.658995000001596,39.658995000001596,39.658995000001596,,003,P015,2025_Feb_28_1804,ConditionRich,2021.2.3,59.94456326752858,
9.75,10.0,41,0.0,Stimuli/Blank.png,0,0,0.0,0,12,12,12,,,,,,,,,,,,,9.759193800000503,0.00919380000050296,None,40.409663800001,40.409663800001,40.409663800001,40.409663800001,40.409663800001,40.409663800001,40.409663800001,40.409663800001,40.409663800001,40.409663800001,,003,P015,2025_Feb_28_1804,ConditionRich,2021.2.3,59.94456326752858,
10.0,10.75,26,0.75,Stimuli/P015/things_face_08s.jpg,0,0,0.0,0,13,13,13,,,,,,,,,,,,,10.008961200001067,0.008961200001067482,None,40.65993080000044,40.65993080000044,40.65993080000044,40.65993080000044,40.65993080000044,40.65993080000044,40.65993080000044,40.65993080000044,40.65993080000044,40.65993080000044,,003,P015,2025_Feb_28_1804,ConditionRich,2021.2.3,59.94456326752858,
10.75,11.0,41,0.0,Stimuli/Blank.png,0,0,0.0,0,14,14,14,,,,,,,,,,,,,10.760071300002892,0.010071300002891803,None,41.410599400001956,41.410599400001956,41.410599400001956,41.410599400001956,41.410599400001956,41.410599400001956,41.410599400001956,41.410599400001956,41.410599400001956,41.410599400001956,,003,P015,2025_Feb_28_1804,ConditionRich,2021.2.3,59.94456326752858,
11.0,11.75,26,0.75,Stimuli/P015/things_face_08s.jpg,0,0,0.0,0,15,15,15,,,,,,,,,,,,,11.010312800000975,0.010312800000974676,None,41.67752440000186,41.67752440000186,41.67752440000186,41.67752440000186,41.67752440000186,41.67752440000186,41.67752440000186,41.67752440000186,41.67752440000186,41.67752440000186,,003,P015,2025_Feb_28_1804,ConditionRich,2021.2.3,59.94456326752858,
11.75,12.0,41,0.0,Stimuli/Blank.png,0,0,0.0,0,16,16,16,,,,,,,,,,,,,11.777898000000278,0.027898000000277534,None,42.42815640000117,42.42815640000117,42.42815640000117,42.42815640000117,42.42815640000117,42.42815640000117,42.42815640000117,42.42815640000117,42.42815640000117,42.42815640000117,,003,P015,2025_Feb_28_1804,ConditionRich,2021.2.3,59.94456326752858,
12.0,12.75,39,0.75,Stimuli/P015/things_window_08s.jpg,0,0,0.0,0,17,17,17,,,,,,,,,,,,,12.010579400001006,0.010579400001006434,None,42.678408200001286,42.678408200001286,42.678408200001286,42.678408200001286,42.678408200001286,42.678408200001286,42.678408200001286,42.678408200001286,42.678408200001286,42.678408200001286,,003,P015,2025_Feb_28_1804,ConditionRich,2021.2.3,59.94456326752858,
12.75,13.0,41,0.0,Stimuli/Blank.png,0,0,0.0,0,18,18,18,,,,,,,,,,,,,12.778550099999848,0.02855009999984759,None,43.429135000002134,43.429135000002134,43.429135000002134,43.429135000002134,43.429135000002134,43.429135000002134,43.429135000002134,43.429135000002134,43.429135000002134,43.429135000002134,,003,P015,2025_Feb_28_1804,ConditionRich,2021.2.3,59.94456326752858,
13.0,13.75,39,0.75,Stimuli/P015/things_window_08s.jpg,0,0,0.0,0,19,19,19,,,,,,,,,,,,,13.013581700000941,0.013581700000941055,None,43.679352400002244,43.679352400002244,43.679352400002244,43.679352400002244,43.679352400002244,43.679352400002244,43.679352400002244,43.679352400002244,43.679352400002244,43.679352400002244,,003,P015,2025_Feb_28_1804,ConditionRich,2021.2.3,59.94456326752858,
13.75,14.0,41,0.0,Stimuli/Blank.png,0,0,0.0,0,20,20,20,,,,,,,,,,,,,13.778861400001915,0.028861400001915172,None,44.430010399999446,44.430010399999446,44.430010399999446,44.430010399999446,44.430010399999446,44.430010399999446,44.430010399999446,44.430010399999446,44.430010399999446,44.430010399999446,,003,P015,2025_Feb_28_1804,ConditionRich,2021.2.3,59.94456326752858,
14.0,14.75,39,0.75,Stimuli/P015/things_window_08s.jpg,0,0,0.0,0,21,21,21,,,,,,,,,,,,,14.012463000002754,0.012463000002753688,None,44.663547399999516,44.663547399999516,44.663547399999516,44.663547399999516,44.663547399999516,44.663547399999516,44.663547399999516,44.663547399999516,44.663547399999516,44.663547399999516,,003,P015,2025_Feb_28_1804,ConditionRich,2021.2.3,59.94456326752858,
14.75,15.0,41,0.0,Stimuli/Blank.png,0,0,0.0,0,22,22,22,,,,,,,,,,,,,14.76396460000251,0.013964600002509542,None,45.43091999999888,45.43091999999888,45.43091999999888,45.43091999999888,45.43091999999888,45.43091999999888,45.43091999999888,45.43091999999888,45.43091999999888,45.43091999999888,,003,P015,2025_Feb_28_1804,ConditionRich,2021.2.3,59.94456326752858,
15.0,15.75,39,0.75,Stimuli/P015/things_window_08s.jpg,0,0,0.0,0,23,23,23,,,,,,,,,,,,,15.030601500002376,0.03060150000237627,None,45.68112480000127,45.68112480000127,45.68112480000127,45.68112480000127,45.68112480000127,45.68112480000127,45.68112480000127,45.68112480000127,45.68112480000127,45.68112480000127,,003,P015,2025_Feb_28_1804,ConditionRich,2021.2.3,59.94456326752858,
15.75,16.0,41,0.0,Stimuli/Blank.png,0,0,0.0,0,24,24,24,,,,,,,,,,,,,15.764589800000977,0.014589800000976538,None,46.41509640000004,46.41509640000004,46.41509640000004,46.41509640000004,46.41509640000004,46.41509640000004,46.41509640000004,46.41509640000004,46.41509640000004,46.41509640000004,,003,P015,2025_Feb_28_1804,ConditionRich,2021.2.3,59.94456326752858,
16.0,16.75,37,0.75,Stimuli/P015/things_swizzle_stick_08s.jpg,0,0,0.0,0,25,25,25,,,,,,,,,,,,,16.014624300001742,0.014624300001742085,None,46.665320500000234,46.665320500000234,46.665320500000234,46.665320500000234,46.665320500000234,46.665320500000234,46.665320500000234,46.665320500000234,46.665320500000234,46.665320500000234,,003,P015,2025_Feb_28_1804,ConditionRich,2021.2.3,59.94456326752858,
16.75,17.0,41,0.0,Stimuli/Blank.png,0,0,0.0,0,26,26,26,,,,,,,,,,,,,16.765257900002325,0.015257900002325187,None,47.41598370000065,47.41598370000065,47.41598370000065,47.41598370000065,47.41598370000065,47.41598370000065,47.41598370000065,47.41598370000065,47.41598370000065,47.41598370000065,,003,P015,2025_Feb_28_1804,ConditionRich,2021.2.3,59.94456326752858,
17.0,17.75,37,0.75,Stimuli/P015/things_swizzle_stick_08s.jpg,0,0,0.0,0,27,27,27,,,,,,,,,,,,,17.018354600000748,0.018354600000748178,None,47.68288989999928,47.68288989999928,47.68288989999928,47.68288989999928,47.68288989999928,47.68288989999928,47.68288989999928,47.68288989999928,47.68288989999928,47.68288989999928,,003,P015,2025_Feb_28_1804,ConditionRich,2021.2.3,59.94456326752858,
17.75,18.0,41,0.0,Stimuli/Blank.png,0,0,0.0,0,28,28,28,,,,,,,,,,,,,17.765646500000003,0.01564650000000256,None,48.41687399999864,48.41687399999864,48.41687399999864,48.41687399999864,48.41687399999864,48.41687399999864,48.41687399999864,48.41687399999864,48.41687399999864,48.41687399999864,,003,P015,2025_Feb_28_1804,ConditionRich,2021.2.3,59.94456326752858,
18.0,18.75,37,0.75,Stimuli/P015/things_swizzle_stick_08s.jpg,0,0,0.0,0,29,29,29,,,,,,,,,,,,,17.999637200002326,-0.00036279999767430127,None,48.650412800001504,48.650412800001504,48.650412800001504,48.650412800001504,48.650412800001504,48.650412800001504,48.650412800001504,48.650412800001504,48.650412800001504,48.650412800001504,,003,P015,2025_Feb_28_1804,ConditionRich,2021.2.3,59.94456326752858,
18.75,19.0,41,0.0,Stimuli/Blank.png,0,0,0.0,0,30,30,30,,,,,,,,,,,,,18.75030710000283,0.0003071000028285198,None,49.4010789999993,49.4010789999993,49.4010789999993,49.4010789999993,49.4010789999993,49.4010789999993,49.4010789999993,49.4010789999993,49.4010789999993,49.4010789999993,,003,P015,2025_Feb_28_1804,ConditionRich,2021.2.3,59.94456326752858,
19.0,19.75,37,0.75,Stimuli/P015/things_swizzle_stick_08s.jpg,0,0,0.0,0,31,31,31,,,,,,,,,,,,,19.00046950000251,0.0004695000025094487,None,49.651427500000864,49.651427500000864,49.651427500000864,49.651427500000864,49.651427500000864,49.651427500000864,49.651427500000864,49.651427500000864,49.651427500000864,49.651427500000864,,003,P015,2025_Feb_28_1804,ConditionRich,2021.2.3,59.94456326752858,
19.75,20.0,41,0.0,Stimuli/Blank.png,0,0,0.0,0,32,32,32,,,,,,,,,,,,,19.753351800001838,0.003351800001837546,None,50.4186589000019,50.4186589000019,50.4186589000019,50.4186589000019,50.4186589000019,50.4186589000019,50.4186589000019,50.4186589000019,50.4186589000019,50.4186589000019,,003,P015,2025_Feb_28_1804,ConditionRich,2021.2.3,59.94456326752858,
20.0,20.75,15,0.75,Stimuli/P015/sun_bvfcijehgdsndfbg.jpg,0,0,0.0,0,33,33,33,,,,,,,,,,,,,20.018428700001095,0.01842870000109542,None,50.66886610000074,50.66886610000074,50.66886610000074,50.66886610000074,50.66886610000074,50.66886610000074,50.66886610000074,50.66886610000074,50.66886610000074,50.66886610000074,,003,P015,2025_Feb_28_1804,ConditionRich,2021.2.3,59.94456326752858,
20.75,21.0,41,0.0,Stimuli/Blank.png,0,0,0.0,0,34,34,34,,,,,,,,,,,,,20.753684900002554,0.003684900002554059,None,51.419547800000146,51.419547800000146,51.419547800000146,51.419547800000146,51.419547800000146,51.419547800000146,51.419547800000146,51.419547800000146,51.419547800000146,51.419547800000146,,003,P015,2025_Feb_28_1804,ConditionRich,2021.2.3,59.94456326752858,
21.0,21.75,15,0.75,Stimuli/P015/sun_bvfcijehgdsndfbg.jpg,0,0,0.0,0,35,35,35,,,,,,,,,,,,,21.01880070000334,0.018800700003339443,None,51.66974250000203,51.66974250000203,51.66974250000203,51.66974250000203,51.66974250000203,51.66974250000203,51.66974250000203,51.66974250000203,51.66974250000203,51.66974250000203,,003,P015,2025_Feb_28_1804,ConditionRich,2021.2.3,59.94456326752858,
21.75,22.0,41,0.0,Stimuli/Blank.png,0,0,0.0,0,36,36,36,,,,,,,,,,,,,21.75357670000085,0.003576700000849087,None,52.40374140000131,52.40374140000131,52.40374140000131,52.40374140000131,52.40374140000131,52.40374140000131,52.40374140000131,52.40374140000131,52.40374140000131,52.40374140000131,,003,P015,2025_Feb_28_1804,ConditionRich,2021.2.3,59.94456326752858,
22.0,22.75,15,0.75,Stimuli/P015/sun_bvfcijehgdsndfbg.jpg,0,0,0.0,0,37,37,37,,,,,,,,,,,,,22.002784000000247,0.0027840000002470333,None,52.65395229999922,52.65395229999922,52.65395229999922,52.65395229999922,52.65395229999922,52.65395229999922,52.65395229999922,52.65395229999922,52.65395229999922,52.65395229999922,,003,P015,2025_Feb_28_1804,ConditionRich,2021.2.3,59.94456326752858,
22.75,23.0,41,0.0,Stimuli/Blank.png,0,0,0.0,0,38,38,38,,,,,,,,,,,,,22.754213300002448,0.004213300002447795,None,53.404620799999975,53.404620799999975,53.404620799999975,53.404620799999975,53.404620799999975,53.404620799999975,53.404620799999975,53.404620799999975,53.404620799999975,53.404620799999975,,003,P015,2025_Feb_28_1804,ConditionRich,2021.2.3,59.94456326752858,
23.0,23.75,15,0.75,Stimuli/P015/sun_bvfcijehgdsndfbg.jpg,0,0,0.0,0,39,39,39,,,,,,,,,,,,,23.005684100000508,0.005684100000507897,None,53.6715320000003,53.6715320000003,53.6715320000003,53.6715320000003,53.6715320000003,53.6715320000003,53.6715320000003,53.6715320000003,53.6715320000003,53.6715320000003,,003,P015,2025_Feb_28_1804,ConditionRich,2021.2.3,59.94456326752858,
23.75,24.0,41,0.0,Stimuli/Blank.png,0,0,0.0,0,40,40,40,,,,,,,,,,,,,23.773487100002967,0.023487100002967054,None,54.438882499998726,54.438882499998726,54.438882499998726,54.438882499998726,54.438882499998726,54.438882499998726,54.438882499998726,54.438882499998726,54.438882499998726,54.438882499998726,,003,P015,2025_Feb_28_1804,ConditionRich,2021.2.3,59.94456326752858,
24.0,24.75,40,0.75,Stimuli/P015/things_woman_08s.jpg,0,0,0.0,0,41,41,41,,,,,,,,,,,,,24.023662200001127,0.02366220000112662,None,54.68910580000011,54.68910580000011,54.68910580000011,54.68910580000011,54.68910580000011,54.68910580000011,54.68910580000011,54.68910580000011,54.68910580000011,54.68910580000011,,003,P015,2025_Feb_28_1804,ConditionRich,2021.2.3,59.94456326752858,
24.75,25.0,41,0.0,Stimuli/Blank.png,0,0,0.0,0,42,42,42,,,,,,,,,,,,,24.773285600000236,0.023285600000235718,None,55.423083400000905,55.423083400000905,55.423083400000905,55.423083400000905,55.423083400000905,55.423083400000905,55.423083400000905,55.423083400000905,55.423083400000905,55.423083400000905,,003,P015,2025_Feb_28_1804,ConditionRich,2021.2.3,59.94456326752858,
25.0,25.75,40,0.75,Stimuli/P015/things_woman_08s.jpg,0,0,0.0,0,43,43,43,,,,,,,,,,,,,25.00538200000301,0.0053820000030100346,None,55.673308699999325,55.673308699999325,55.673308699999325,55.673308699999325,55.673308699999325,55.673308699999325,55.673308699999325,55.673308699999325,55.673308699999325,55.673308699999325,,003,P015,2025_Feb_28_1804,ConditionRich,2021.2.3,59.94456326752858,
25.75,26.0,41,0.0,Stimuli/Blank.png,0,0,0.0,0,44,44,44,,,,,,,,,,,,,25.773467900002288,0.023467900002287934,None,56.42396000000008,56.42396000000008,56.42396000000008,56.42396000000008,56.42396000000008,56.42396000000008,56.42396000000008,56.42396000000008,56.42396000000008,56.42396000000008,,003,P015,2025_Feb_28_1804,ConditionRich,2021.2.3,59.94456326752858,
26.0,26.75,40,0.75,Stimuli/P015/things_woman_08s.jpg,0,0,0.0,0,45,45,45,,,,,,,,,,,,,26.007376900000963,0.00737690000096336,None,56.657531100001506,56.657531100001506,56.657531100001506,56.657531100001506,56.657531100001506,56.657531100001506,56.657531100001506,56.657531100001506,56.657531100001506,56.657531100001506,,003,P015,2025_Feb_28_1804,ConditionRich,2021.2.3,59.94456326752858,
26.75,27.0,41,0.0,Stimuli/Blank.png,0,0,0.0,0,46,46,46,,,,,,,,,,,,,26.75715510000009,0.007155100000090897,None,57.4082058999993,57.4082058999993,57.4082058999993,57.4082058999993,57.4082058999993,57.4082058999993,57.4082058999993,57.4082058999993,57.4082058999993,57.4082058999993,,003,P015,2025_Feb_28_1804,ConditionRich,2021.2.3,59.94456326752858,
27.0,27.75,40,0.75,Stimuli/P015/things_woman_08s.jpg,0,0,0.0,0,47,47,47,,,,,,,,,,,,,27.007825200002117,0.007825200002116617,None,57.67508520000047,57.67508520000047,57.67508520000047,57.67508520000047,57.67508520000047,57.67508520000047,57.67508520000047,57.67508520000047,57.67508520000047,57.67508520000047,,003,P015,2025_Feb_28_1804,ConditionRich,2021.2.3,59.94456326752858,
27.75,28.0,41,0.0,Stimuli/Blank.png,0,0,0.0,0,48,48,48,,,,,,,,,,,,,27.775204500001564,0.025204500001564156,None,58.42574049999894,58.42574049999894,58.42574049999894,58.42574049999894,58.42574049999894,58.42574049999894,58.42574049999894,58.42574049999894,58.42574049999894,58.42574049999894,,003,P015,2025_Feb_28_1804,ConditionRich,2021.2.3,59.94456326752858,
28.0,28.75,3,0.75,Stimuli/P015/sun_aiogwnavezqxkzfg.jpg,0,0,0.0,0,49,49,49,,,,,,,,,,,,,28.00811850000173,0.008118500001728535,None,58.65927029999875,58.65927029999875,58.65927029999875,58.65927029999875,58.65927029999875,58.65927029999875,58.65927029999875,58.65927029999875,58.65927029999875,58.65927029999875,,003,P015,2025_Feb_28_1804,ConditionRich,2021.2.3,59.94456326752858,
28.75,29.0,41,0.0,Stimuli/Blank.png,0,0,0.0,0,50,50,50,,,,,,,,,,,,,28.758896500003175,0.008896500003174879,None,59.40994390000196,59.40994390000196,59.40994390000196,59.40994390000196,59.40994390000196,59.40994390000196,59.40994390000196,59.40994390000196,59.40994390000196,59.40994390000196,,003,P015,2025_Feb_28_1804,ConditionRich,2021.2.3,59.94456326752858,
29.0,29.75,3,0.75,Stimuli/P015/sun_aiogwnavezqxkzfg.jpg,0,0,0.0,0,51,51,51,,,,,,,,,,,,,29.009835300003033,0.009835300003032899,None,59.676882800002204,59.676882800002204,59.676882800002204,59.676882800002204,59.676882800002204,59.676882800002204,59.676882800002204,59.676882800002204,59.676882800002204,59.676882800002204,,003,P015,2025_Feb_28_1804,ConditionRich,2021.2.3,59.94456326752858,
29.75,30.0,41,0.0,Stimuli/Blank.png,0,0,0.0,0,52,52,52,,,,,,,,,,,,,29.776273200001015,0.02627320000101463,None,60.42750829999932,60.42750829999932,60.42750829999932,60.42750829999932,60.42750829999932,60.42750829999932,60.42750829999932,60.42750829999932,60.42750829999932,60.42750829999932,,003,P015,2025_Feb_28_1804,ConditionRich,2021.2.3,59.94456326752858,
30.0,30.75,3,0.75,Stimuli/P015/sun_aiogwnavezqxkzfg.jpg,0,0,0.0,0,53,53,53,,,,,,,,,,,,,30.01003540000238,0.010035400002379902,None,60.66104669999913,60.66104669999913,60.66104669999913,60.66104669999913,60.66104669999913,60.66104669999913,60.66104669999913,60.66104669999913,60.66104669999913,60.66104669999913,,003,P015,2025_Feb_28_1804,ConditionRich,2021.2.3,59.94456326752858,
30.75,31.0,41,0.0,Stimuli/Blank.png,0,0,0.0,0,54,54,54,,,,,,,,,,,,,30.76087830000324,0.010878300003241748,None,61.41172500000175,61.41172500000175,61.41172500000175,61.41172500000175,61.41172500000175,61.41172500000175,61.41172500000175,61.41172500000175,61.41172500000175,61.41172500000175,,003,P015,2025_Feb_28_1804,ConditionRich,2021.2.3,59.94456326752858,
31.0,31.75,3,0.75,Stimuli/P015/sun_aiogwnavezqxkzfg.jpg,0,0,0.0,0,55,55,55,,,,,,,,,,,,,31.011599500001466,0.011599500001466367,None,61.661929099998815,61.661929099998815,61.661929099998815,61.661929099998815,61.661929099998815,61.661929099998815,61.661929099998815,61.661929099998815,61.661929099998815,61.661929099998815,,003,P015,2025_Feb_28_1804,ConditionRich,2021.2.3,59.94456326752858,
31.75,32.0,41,0.0,Stimuli/Blank.png,0,0,0.0,0,56,56,56,,,,,,,,,,,,,31.761371800002962,0.011371800002962118,None,62.41259329999957,62.41259329999957,62.41259329999957,62.41259329999957,62.41259329999957,62.41259329999957,62.41259329999957,62.41259329999957,62.41259329999957,62.41259329999957,,003,P015,2025_Feb_28_1804,ConditionRich,2021.2.3,59.94456326752858,
32.0,32.75,1,0.75,Stimuli/P015/sun_aacpzgqrortyhyss.jpg,0,0,0.0,0,57,57,57,,,,,,,,,,,,,32.01163920000181,0.011639200001809513,None,62.66281670000171,62.66281670000171,62.66281670000171,62.66281670000171,62.66281670000171,62.66281670000171,62.66281670000171,62.66281670000171,62.66281670000171,62.66281670000171,,003,P015,2025_Feb_28_1804,ConditionRich,2021.2.3,59.94456326752858,
32.75,33.0,41,0.0,Stimuli/Blank.png,0,0,0.0,0,58,58,58,,,,,,,,,,,,,32.76456440000038,0.014564400000381283,None,63.43016590000116,63.43016590000116,63.43016590000116,63.43016590000116,63.43016590000116,63.43016590000116,63.43016590000116,63.43016590000116,63.43016590000116,63.43016590000116,,003,P015,2025_Feb_28_1804,ConditionRich,2021.2.3,59.94456326752858,
33.0,33.75,1,0.75,Stimuli/P015/sun_aacpzgqrortyhyss.jpg,0,0,0.0,0,59,59,59,,,,,,,,,,,,,33.02930390000256,0.029303900002560113,None,63.68039209999915,63.68039209999915,63.68039209999915,63.68039209999915,63.68039209999915,63.68039209999915,63.68039209999915,63.68039209999915,63.68039209999915,63.68039209999915,,003,P015,2025_Feb_28_1804,ConditionRich,2021.2.3,59.94456326752858,
33.75,34.0,41,0.0,Stimuli/Blank.png,0,0,0.0,0,60,60,60,,,,,,,,,,,,,33.76390060000267,0.013900600002671126,None,64.41437769999902,64.41437769999902,64.41437769999902,64.41437769999902,64.41437769999902,64.41437769999902,64.41437769999902,64.41437769999902,64.41437769999902,64.41437769999902,,003,P015,2025_Feb_28_1804,ConditionRich,2021.2.3,59.94456326752858,
34.0,34.75,1,0.75,Stimuli/P015/sun_aacpzgqrortyhyss.jpg,0,0,0.0,0,61,61,61,,,,,,,,,,,,,34.01383210000131,0.0138321000013093,None,64.66458939999939,64.66458939999939,64.66458939999939,64.66458939999939,64.66458939999939,64.66458939999939,64.66458939999939,64.66458939999939,64.66458939999939,64.66458939999939,,003,P015,2025_Feb_28_1804,ConditionRich,2021.2.3,59.94456326752858,
34.75,35.0,41,0.0,Stimuli/Blank.png,0,0,0.0,0,62,62,62,,,,,,,,,,,,,34.76466900000014,0.014669000000139931,None,65.41526670000167,65.41526670000167,65.41526670000167,65.41526670000167,65.41526670000167,65.41526670000167,65.41526670000167,65.41526670000167,65.41526670000167,65.41526670000167,,003,P015,2025_Feb_28_1804,ConditionRich,2021.2.3,59.94456326752858,
35.0,35.75,1,0.75,Stimuli/P015/sun_aacpzgqrortyhyss.jpg,0,0,0.0,0,63,63,63,,,,,,,,,,,,,35.014296600002126,0.01429660000212607,None,65.6654793000016,65.6654793000016,65.6654793000016,65.6654793000016,65.6654793000016,65.6654793000016,65.6654793000016,65.6654793000016,65.6654793000016,65.6654793000016,,003,P015,2025_Feb_28_1804,ConditionRich,2021.2.3,59.94456326752858,
35.75,36.0,41,0.0,Stimuli/Blank.png,0,0,0.0,0,64,64,64,,,,,,,,,,,,,35.76508560000002,0.01508560000002035,None,66.41614280000067,66.41614280000067,66.41614280000067,66.41614280000067,66.41614280000067,66.41614280000067,66.41614280000067,66.41614280000067,66.41614280000067,66.41614280000067,,003,P015,2025_Feb_28_1804,ConditionRich,2021.2.3,59.94456326752858,
36.0,36.75,34,0.75,Stimuli/P015/things_shower_cap_08s.jpg,0,0,0.0,0,65,65,65,,,,,,,,,,,,,36.01576540000315,0.01576540000314708,None,66.66638520000197,66.66638520000197,66.66638520000197,66.66638520000197,66.66638520000197,66.66638520000197,66.66638520000197,66.66638520000197,66.66638520000197,66.66638520000197,,003,P015,2025_Feb_28_1804,ConditionRich,2021.2.3,59.94456326752858,
36.75,37.0,41,0.0,Stimuli/Blank.png,0,0,0.0,0,66,66,66,,,,,,,,,,,,,36.750725100002455,0.0007251000024552923,None,67.4170034000017,67.4170034000017,67.4170034000017,67.4170034000017,67.4170034000017,67.4170034000017,67.4170034000017,67.4170034000017,67.4170034000017,67.4170034000017,,003,P015,2025_Feb_28_1804,ConditionRich,2021.2.3,59.94456326752858,
37.0,37.75,34,0.75,Stimuli/P015/things_shower_cap_08s.jpg,0,0,0.0,0,67,67,67,,,,,,,,,,,,,37.016775200001575,0.016775200001575286,None,67.68437510000149,67.68437510000149,67.68437510000149,67.68437510000149,67.68437510000149,67.68437510000149,67.68437510000149,67.68437510000149,67.68437510000149,67.68437510000149,,003,P015,2025_Feb_28_1804,ConditionRich,2021.2.3,59.94456326752858,
37.75,38.0,41,0.0,Stimuli/Blank.png,0,0,0.0,0,68,68,68,,,,,,,,,,,,,37.767159700000775,0.017159700000775047,None,68.4179793000003,68.4179793000003,68.4179793000003,68.4179793000003,68.4179793000003,68.4179793000003,68.4179793000003,68.4179793000003,68.4179793000003,68.4179793000003,,003,P015,2025_Feb_28_1804,ConditionRich,2021.2.3,59.94456326752858,
38.0,38.75,34,0.75,Stimuli/P015/things_shower_cap_08s.jpg,0,0,0.0,0,69,69,69,,,,,,,,,,,,,38.00072520000322,0.0007252000032167416,None,68.6514473999996,68.6514473999996,68.6514473999996,68.6514473999996,68.6514473999996,68.6514473999996,68.6514473999996,68.6514473999996,68.6514473999996,68.6514473999996,,003,P015,2025_Feb_28_1804,ConditionRich,2021.2.3,59.94456326752858,
38.75,39.0,41,0.0,Stimuli/Blank.png,0,0,0.0,0,70,70,70,,,,,,,,,,,,,38.75106820000292,0.001068200002919184,None,69.40211420000196,69.40211420000196,69.40211420000196,69.40211420000196,69.40211420000196,69.40211420000196,69.40211420000196,69.40211420000196,69.40211420000196,69.40211420000196,,003,P015,2025_Feb_28_1804,ConditionRich,2021.2.3,59.94456326752858,
39.0,39.75,34,0.75,Stimuli/P015/things_shower_cap_08s.jpg,0,0,0.0,0,71,71,71,,,,,,,,,,,,,39.002247700002044,0.0022477000020444393,None,69.65233499999886,69.65233499999886,69.65233499999886,69.65233499999886,69.65233499999886,69.65233499999886,69.65233499999886,69.65233499999886,69.65233499999886,69.65233499999886,,003,P015,2025_Feb_28_1804,ConditionRich,2021.2.3,59.94456326752858,
39.75,40.0,41,0.0,Stimuli/Blank.png,0,0,0.0,0,72,72,72,,,,,,,,,,,,,39.75469150000208,0.004691500002081739,None,70.41970140000194,70.41970140000194,70.41970140000194,70.41970140000194,70.41970140000194,70.41970140000194,70.41970140000194,70.41970140000194,70.41970140000194,70.41970140000194,,003,P015,2025_Feb_28_1804,ConditionRich,2021.2.3,59.94456326752858,
40.0,40.75,21,0.75,Stimuli/P015/things_arch_08s.jpg,0,0,0.0,0,73,73,73,,,,,,,,,,,,,40.01873190000333,0.018731900003331248,None,70.66990499999883,70.66990499999883,70.66990499999883,70.66990499999883,70.66990499999883,70.66990499999883,70.66990499999883,70.66990499999883,70.66990499999883,70.66990499999883,,003,P015,2025_Feb_28_1804,ConditionRich,2021.2.3,59.94456326752858,
40.75,41.0,41,0.0,Stimuli/Blank.png,0,0,0.0,0,74,74,74,,,,,,,,,,,,,40.75622640000074,0.006226400000741705,None,71.42061200000171,71.42061200000171,71.42061200000171,71.42061200000171,71.42061200000171,71.42061200000171,71.42061200000171,71.42061200000171,71.42061200000171,71.42061200000171,,003,P015,2025_Feb_28_1804,ConditionRich,2021.2.3,59.94456326752858,
41.0,41.75,21,0.75,Stimuli/P015/things_arch_08s.jpg,0,0,0.0,0,75,75,75,,,,,,,,,,,,,41.01960030000191,0.01960030000191182,None,71.67079670000021,71.67079670000021,71.67079670000021,71.67079670000021,71.67079670000021,71.67079670000021,71.67079670000021,71.67079670000021,71.67079670000021,71.67079670000021,,003,P015,2025_Feb_28_1804,ConditionRich,2021.2.3,59.94456326752858,
41.75,42.0,41,0.0,Stimuli/Blank.png,0,0,0.0,0,76,76,76,,,,,,,,,,,,,41.75658890000341,0.006588900003407616,None,72.42146380000122,72.42146380000122,72.42146380000122,72.42146380000122,72.42146380000122,72.42146380000122,72.42146380000122,72.42146380000122,72.42146380000122,72.42146380000122,,003,P015,2025_Feb_28_1804,ConditionRich,2021.2.3,59.94456326752858,
42.0,42.75,21,0.75,Stimuli/P015/things_arch_08s.jpg,0,0,0.0,0,77,77,77,,,,,,,,,,,,,42.021214899999904,0.021214899999904446,None,72.68838759999926,72.68838759999926,72.68838759999926,72.68838759999926,72.68838759999926,72.68838759999926,72.68838759999926,72.68838759999926,72.68838759999926,72.68838759999926,,003,P015,2025_Feb_28_1804,ConditionRich,2021.2.3,59.94456326752858,
42.75,43.0,41,0.0,Stimuli/Blank.png,0,0,0.0,0,78,78,78,,,,,,,,,,,,,42.77124350000304,0.021243500003038207,None,73.42235029999938,73.42235029999938,73.42235029999938,73.42235029999938,73.42235029999938,73.42235029999938,73.42235029999938,73.42235029999938,73.42235029999938,73.42235029999938,,003,P015,2025_Feb_28_1804,ConditionRich,2021.2.3,59.94456326752858,
43.0,43.75,21,0.75,Stimuli/P015/things_arch_08s.jpg,0,0,0.0,0,79,79,79,,,,,,,,,,,,,43.005181399999856,0.005181399999855785,None,73.65587810000216,73.65587810000216,73.65587810000216,73.65587810000216,73.65587810000216,73.65587810000216,73.65587810000216,73.65587810000216,73.65587810000216,73.65587810000216,,003,P015,2025_Feb_28_1804,ConditionRich,2021.2.3,59.94456326752858,
43.75,44.0,41,0.0,Stimuli/Blank.png,0,0,0.0,0,80,80,80,,,,,,,,,,,,,43.75533340000038,0.005333400000381516,None,74.40655390000029,74.40655390000029,74.40655390000029,74.40655390000029,74.40655390000029,74.40655390000029,74.40655390000029,74.40655390000029,74.40655390000029,74.40655390000029,,003,P015,2025_Feb_28_1804,ConditionRich,2021.2.3,59.94456326752858,
44.0,44.75,12,0.75,Stimuli/P015/sun_boffixsnbbloarty.jpg,0,0,0.0,0,81,81,81,,,,,,,,,,,,,44.006334400000924,0.006334400000923779,None,74.67347390000214,74.67347390000214,74.67347390000214,74.67347390000214,74.67347390000214,74.67347390000214,74.67347390000214,74.67347390000214,74.67347390000214,74.67347390000214,,003,P015,2025_Feb_28_1804,ConditionRich,2021.2.3,59.94456326752858,
44.75,45.0,41,0.0,Stimuli/Blank.png,0,0,0.0,0,82,82,82,,,,,,,,,,,,,44.77305440000055,0.023054400000546593,None,75.42419919999884,75.42419919999884,75.42419919999884,75.42419919999884,75.42419919999884,75.42419919999884,75.42419919999884,75.42419919999884,75.42419919999884,75.42419919999884,,003,P015,2025_Feb_28_1804,ConditionRich,2021.2.3,59.94456326752858,
45.0,45.75,12,0.75,Stimuli/P015/sun_boffixsnbbloarty.jpg,0,0,0.0,0,83,83,83,,,,,,,,,,,,,45.00644430000102,0.006444300001021475,None,75.67436799999996,75.67436799999996,75.67436799999996,75.67436799999996,75.67436799999996,75.67436799999996,75.67436799999996,75.67436799999996,75.67436799999996,75.67436799999996,,003,P015,2025_Feb_28_1804,ConditionRich,2021.2.3,59.94456326752858,
45.75,46.0,41,0.0,Stimuli/Blank.png,0,0,0.0,0,84,84,84,,,,,,,,,,,,,45.77483590000338,0.02483590000338154,None,76.42500909999944,76.42500909999944,76.42500909999944,76.42500909999944,76.42500909999944,76.42500909999944,76.42500909999944,76.42500909999944,76.42500909999944,76.42500909999944,,003,P015,2025_Feb_28_1804,ConditionRich,2021.2.3,59.94456326752858,
46.0,46.75,12,0.75,Stimuli/P015/sun_boffixsnbbloarty.jpg,0,0,0.0,0,85,85,85,,,,,,,,,,,,,46.01046600000336,0.010466000003361842,None,76.6752247000004,76.6752247000004,76.6752247000004,76.6752247000004,76.6752247000004,76.6752247000004,76.6752247000004,76.6752247000004,76.6752247000004,76.6752247000004,,003,P015,2025_Feb_28_1804,ConditionRich,2021.2.3,59.94456326752858,
46.75,47.0,41,0.0,Stimuli/Blank.png,0,0,0.0,0,86,86,86,,,,,,,,,,,,,46.77530830000251,0.025308300002507167,None,77.42589539999972,77.42589539999972,77.42589539999972,77.42589539999972,77.42589539999972,77.42589539999972,77.42589539999972,77.42589539999972,77.42589539999972,77.42589539999972,,003,P015,2025_Feb_28_1804,ConditionRich,2021.2.3,59.94456326752858,
47.0,47.75,12,0.75,Stimuli/P015/sun_boffixsnbbloarty.jpg,1,0,0.75,0,87,87,87,,,,,,,,,,,,,47.01117130000057,0.011171300000569317,1,77.67614469999899,77.67614469999899,77.67614469999899,77.67614469999899,77.67614469999899,77.67614469999899,77.67614469999899,78.4101436000019,77.67614469999899,77.67614469999899,0.5311108999994758,003,P015,2025_Feb_28_1804,ConditionRich,2021.2.3,59.94456326752858,
47.75,48.0,41,0.0,Stimuli/Blank.png,0,0,0.0,0,88,88,88,,,,,,,,,,,,,47.77715260000332,0.027152600003319094,None,78.4267875000005,78.4267875000005,78.4267875000005,78.4267875000005,78.4267875000005,78.4267875000005,78.4267875000005,78.4267875000005,78.4267875000005,78.4267875000005,,003,P015,2025_Feb_28_1804,ConditionRich,2021.2.3,59.94456326752858,
48.0,48.75,17,0.75,Stimuli/P015/sun_bxhbltvqnpaciuzt.jpg,0,0,0.0,0,89,89,89,,,,,,,,,,,,,48.010376400001405,0.010376400001405273,None,78.67701849999867,78.67701849999867,78.67701849999867,78.67701849999867,78.67701849999867,78.67701849999867,78.67701849999867,78.67701849999867,78.67701849999867,78.67701849999867,,003,P015,2025_Feb_28_1804,ConditionRich,2021.2.3,59.94456326752858,
48.75,49.0,41,0.0,Stimuli/Blank.png,0,0,0.0,0,90,90,90,,,,,,,,,,,,,48.776437800002896,0.02643780000289553,None,79.42763589999959,79.42763589999959,79.42763589999959,79.42763589999959,79.42763589999959,79.42763589999959,79.42763589999959,79.42763589999959,79.42763589999959,79.42763589999959,,003,P015,2025_Feb_28_1804,ConditionRich,2021.2.3,59.94456326752858,
49.0,49.75,17,0.75,Stimuli/P015/sun_bxhbltvqnpaciuzt.jpg,0,0,0.0,0,91,91,91,,,,,,,,,,,,,49.010853900002985,0.010853900002985029,None,79.67788300000029,79.67788300000029,79.67788300000029,79.67788300000029,79.67788300000029,79.67788300000029,79.67788300000029,79.67788300000029,79.67788300000029,79.67788300000029,,003,P015,2025_Feb_28_1804,ConditionRich,2021.2.3,59.94456326752858,
49.75,50.0,41,0.0,Stimuli/Blank.png,0,0,0.0,0,92,92,92,,,,,,,,,,,,,49.77760390000185,0.02760390000184998,None,80.42855480000071,80.42855480000071,80.42855480000071,80.42855480000071,80.42855480000071,80.42855480000071,80.42855480000071,80.42855480000071,80.42855480000071,80.42855480000071,,003,P015,2025_Feb_28_1804,ConditionRich,2021.2.3,59.94456326752858,
50.0,50.75,17,0.75,Stimuli/P015/sun_bxhbltvqnpaciuzt.jpg,0,0,0.0,0,93,93,93,,,,,,,,,,,,,50.01097710000249,0.01097710000249208,None,80.66208320000078,80.66208320000078,80.66208320000078,80.66208320000078,80.66208320000078,80.66208320000078,80.66208320000078,80.66208320000078,80.66208320000078,80.66208320000078,,003,P015,2025_Feb_28_1804,ConditionRich,2021.2.3,59.94456326752858,
50.75,51.0,41,0.0,Stimuli/Blank.png,0,0,0.0,0,94,94,94,,,,,,,,,,,,,50.762816600003134,0.012816600003134226,None,81.42945930000133,81.42945930000133,81.42945930000133,81.42945930000133,81.42945930000133,81.42945930000133,81.42945930000133,81.42945930000133,81.42945930000133,81.42945930000133,,003,P015,2025_Feb_28_1804,ConditionRich,2021.2.3,59.94456326752858,
51.0,51.75,17,0.75,Stimuli/P015/sun_bxhbltvqnpaciuzt.jpg,0,0,0.0,0,95,95,95,,,,,,,,,,,,,51.03059900000153,0.03059900000152993,None,81.6963476000019,81.6963476000019,81.6963476000019,81.6963476000019,81.6963476000019,81.6963476000019,81.6963476000019,81.6963476000019,81.6963476000019,81.6963476000019,,003,P015,2025_Feb_28_1804,ConditionRich,2021.2.3,59.94456326752858,
51.75,52.0,41,0.0,Stimuli/Blank.png,0,0,0.0,0,96,96,96,,,,,,,,,,,,,51.7797034000032,0.02970340000319993,None,82.43031179999889,82.43031179999889,82.43031179999889,82.43031179999889,82.43031179999889,82.43031179999889,82.43031179999889,82.43031179999889,82.43031179999889,82.43031179999889,,003,P015,2025_Feb_28_1804,ConditionRich,2021.2.3,59.94456326752858,
52.0,52.75,35,0.75,Stimuli/P015/things_squid_08s.jpg,0,0,0.0,0,97,97,97,,,,,,,,,,,,,52.0136029000023,0.013602900002297247,None,82.66385620000074,82.66385620000074,82.66385620000074,82.66385620000074,82.66385620000074,82.66385620000074,82.66385620000074,82.66385620000074,82.66385620000074,82.66385620000074,,003,P015,2025_Feb_28_1804,ConditionRich,2021.2.3,59.94456326752858,
52.75,53.0,41,0.0,Stimuli/Blank.png,0,0,0.0,0,98,98,98,,,,,,,,,,,,,52.76387010000326,0.013870100003259722,None,83.41452120000031,83.41452120000031,83.41452120000031,83.41452120000031,83.41452120000031,83.41452120000031,83.41452120000031,83.41452120000031,83.41452120000031,83.41452120000031,,003,P015,2025_Feb_28_1804,ConditionRich,2021.2.3,59.94456326752858,
53.0,53.75,35,0.75,Stimuli/P015/things_squid_08s.jpg,0,0,0.0,0,99,99,99,,,,,,,,,,,,,53.01354170000195,0.01354170000195154,None,83.66474540000127,83.66474540000127,83.66474540000127,83.66474540000127,83.66474540000127,83.66474540000127,83.66474540000127,83.66474540000127,83.66474540000127,83.66474540000127,,003,P015,2025_Feb_28_1804,ConditionRich,2021.2.3,59.94456326752858,
53.75,54.0,41,0.0,Stimuli/Blank.png,0,0,0.0,0,100,100,100,,,,,,,,,,,,,53.76489550000042,0.014895500000420725,None,84.41540460000033,84.41540460000033,84.41540460000033,84.41540460000033,84.41540460000033,84.41540460000033,84.41540460000033,84.41540460000033,84.41540460000033,84.41540460000033,,003,P015,2025_Feb_28_1804,ConditionRich,2021.2.3,59.94456326752858,
54.0,54.75,35,0.75,Stimuli/P015/things_squid_08s.jpg,0,0,0.0,0,101,101,101,,,,,,,,,,,,,54.0144457000024,0.014445700002397643,None,84.66566059999968,84.66566059999968,84.66566059999968,84.66566059999968,84.66566059999968,84.66566059999968,84.66566059999968,84.66566059999968,84.66566059999968,84.66566059999968,,003,P015,2025_Feb_28_1804,ConditionRich,2021.2.3,59.94456326752858,
54.75,55.0,41,0.0,Stimuli/Blank.png,0,0,0.0,0,102,102,102,,,,,,,,,,,,,54.7652044000024,0.015204400002403418,None,85.41629390000162,85.41629390000162,85.41629390000162,85.41629390000162,85.41629390000162,85.41629390000162,85.41629390000162,85.41629390000162,85.41629390000162,85.41629390000162,,003,P015,2025_Feb_28_1804,ConditionRich,2021.2.3,59.94456326752858,
55.0,55.75,35,0.75,Stimuli/P015/things_squid_08s.jpg,0,0,0.0,0,103,103,103,,,,,,,,,,,,,55.015851200001634,0.015851200001634425,None,85.68367030000081,85.68367030000081,85.68367030000081,85.68367030000081,85.68367030000081,85.68367030000081,85.68367030000081,85.68367030000081,85.68367030000081,85.68367030000081,,003,P015,2025_Feb_28_1804,ConditionRich,2021.2.3,59.94456326752858,
55.75,56.0,41,0.0,Stimuli/Blank.png,0,0,0.0,0,104,104,104,,,,,,,,,,,,,55.7667489000014,0.016748900001402944,None,86.41719379999995,86.41719379999995,86.41719379999995,86.41719379999995,86.41719379999995,86.41719379999995,86.41719379999995,86.41719379999995,86.41719379999995,86.41719379999995,,003,P015,2025_Feb_28_1804,ConditionRich,2021.2.3,59.94456326752858,
56.0,56.75,38,0.75,Stimuli/P015/things_trumpet_08s.jpg,0,0,0.0,0,105,105,105,,,,,,,,,,,,,55.99966360000326,-0.0003363999967405107,None,86.65071790000002,86.65071790000002,86.65071790000002,86.65071790000002,86.65071790000002,86.65071790000002,86.65071790000002,86.65071790000002,86.65071790000002,86.65071790000002,,003,P015,2025_Feb_28_1804,ConditionRich,2021.2.3,59.94456326752858,
56.75,57.0,41,0.0,Stimuli/Blank.png,0,0,0.0,0,106,106,106,,,,,,,,,,,,,56.751082400001906,0.0010824000019056257,None,87.40140070000052,87.40140070000052,87.40140070000052,87.40140070000052,87.40140070000052,87.40140070000052,87.40140070000052,87.40140070000052,87.40140070000052,87.40140070000052,,003,P015,2025_Feb_28_1804,ConditionRich,2021.2.3,59.94456326752858,
57.0,57.75,38,0.75,Stimuli/P015/things_trumpet_08s.jpg,0,0,0.0,0,107,107,107,,,,,,,,,,,,,57.00180800000089,0.001808000000892207,None,87.66828560000067,87.66828560000067,87.66828560000067,87.66828560000067,87.66828560000067,87.66828560000067,87.66828560000067,87.66828560000067,87.66828560000067,87.66828560000067,,003,P015,2025_Feb_28_1804,ConditionRich,2021.2.3,59.94456326752858,
57.75,58.0,41,0.0,Stimuli/Blank.png,0,0,0.0,0,108,108,108,,,,,,,,,,,,,57.76901110000108,0.019011100001080194,None,88.41897690000042,88.41897690000042,88.41897690000042,88.41897690000042,88.41897690000042,88.41897690000042,88.41897690000042,88.41897690000042,88.41897690000042,88.41897690000042,,003,P015,2025_Feb_28_1804,ConditionRich,2021.2.3,59.94456326752858,
58.0,58.75,38,0.75,Stimuli/P015/things_trumpet_08s.jpg,0,0,0.0,0,109,109,109,,,,,,,,,,,,,58.00222350000331,0.002223500003310619,None,88.66918380000061,88.66918380000061,88.66918380000061,88.66918380000061,88.66918380000061,88.66918380000061,88.66918380000061,88.66918380000061,88.66918380000061,88.66918380000061,,003,P015,2025_Feb_28_1804,ConditionRich,2021.2.3,59.94456326752858,
58.75,59.0,41,0.0,Stimuli/Blank.png,0,0,0.0,0,110,110,110,,,,,,,,,,,,,58.76877620000232,0.018776200002321275,None,89.41985009999917,89.41985009999917,89.41985009999917,89.41985009999917,89.41985009999917,89.41985009999917,89.41985009999917,89.41985009999917,89.41985009999917,89.41985009999917,,003,P015,2025_Feb_28_1804,ConditionRich,2021.2.3,59.94456326752858,
59.0,59.75,38,0.75,Stimuli/P015/things_trumpet_08s.jpg,0,0,0.0,0,111,111,111,,,,,,,,,,,,,59.00371090000044,0.0037109000004420523,None,89.67006350000156,89.67006350000156,89.67006350000156,89.67006350000156,89.67006350000156,89.67006350000156,89.67006350000156,89.67006350000156,89.67006350000156,89.67006350000156,,003,P015,2025_Feb_28_1804,ConditionRich,2021.2.3,59.94456326752858,
59.75,60.0,41,0.0,Stimuli/Blank.png,0,0,0.0,0,112,112,112,,,,,,,,,,,,,59.77014480000071,0.02014480000070762,None,90.42072370000096,90.42072370000096,90.42072370000096,90.42072370000096,90.42072370000096,90.42072370000096,90.42072370000096,90.42072370000096,90.42072370000096,90.42072370000096,,003,P015,2025_Feb_28_1804,ConditionRich,2021.2.3,59.94456326752858,
60.0,60.75,6,0.75,Stimuli/P015/sun_akecfasimgpbqcnt.jpg,0,0,0.0,0,113,113,113,,,,,,,,,,,,,60.0030540000007,0.0030540000007022172,None,90.65426370000205,90.65426370000205,90.65426370000205,90.65426370000205,90.65426370000205,90.65426370000205,90.65426370000205,90.65426370000205,90.65426370000205,90.65426370000205,,003,P015,2025_Feb_28_1804,ConditionRich,2021.2.3,59.94456326752858,
60.75,61.0,41,0.0,Stimuli/Blank.png,0,0,0.0,0,114,114,114,,,,,,,,,,,,,60.7542932000033,0.004293200003303355,None,91.40492799999993,91.40492799999993,91.40492799999993,91.40492799999993,91.40492799999993,91.40492799999993,91.40492799999993,91.40492799999993,91.40492799999993,91.40492799999993,,003,P015,2025_Feb_28_1804,ConditionRich,2021.2.3,59.94456326752858,
61.0,61.75,6,0.75,Stimuli/P015/sun_akecfasimgpbqcnt.jpg,0,0,0.0,0,115,115,115,,,,,,,,,,,,,61.00423960000262,0.004239600002620136,None,91.65514740000071,91.65514740000071,91.65514740000071,91.65514740000071,91.65514740000071,91.65514740000071,91.65514740000071,91.65514740000071,91.65514740000071,91.65514740000071,,003,P015,2025_Feb_28_1804,ConditionRich,2021.2.3,59.94456326752858,
61.75,62.0,41,0.0,Stimuli/Blank.png,0,0,0.0,0,116,116,116,,,,,,,,,,,,,61.75462030000199,0.004620300001988653,None,92.40580780000164,92.40580780000164,92.40580780000164,92.40580780000164,92.40580780000164,92.40580780000164,92.40580780000164,92.40580780000164,92.40580780000164,92.40580780000164,,003,P015,2025_Feb_28_1804,ConditionRich,2021.2.3,59.94456326752858,
62.0,62.75,6,0.75,Stimuli/P015/sun_akecfasimgpbqcnt.jpg,0,0,0.0,0,117,117,117,,,,,,,,,,,,,62.0048612999999,0.004861299999902258,None,92.67274950000137,92.67274950000137,92.67274950000137,92.67274950000137,92.67274950000137,92.67274950000137,92.67274950000137,92.67274950000137,92.67274950000137,92.67274950000137,,003,P015,2025_Feb_28_1804,ConditionRich,2021.2.3,59.94456326752858,
62.75,63.0,41,0.0,Stimuli/Blank.png,0,0,0.0,0,118,118,118,,,,,,,,,,,,,62.773221500003274,0.02322150000327383,None,93.42338920000111,93.42338920000111,93.42338920000111,93.42338920000111,93.42338920000111,93.42338920000111,93.42338920000111,93.42338920000111,93.42338920000111,93.42338920000111,,003,P015,2025_Feb_28_1804,ConditionRich,2021.2.3,59.94456326752858,
63.0,63.75,6,0.75,Stimuli/P015/sun_akecfasimgpbqcnt.jpg,0,0,0.0,0,119,119,119,,,,,,,,,,,,,63.00765270000193,0.00765270000192686,None,93.67360109999936,93.67360109999936,93.67360109999936,93.67360109999936,93.67360109999936,93.67360109999936,93.67360109999936,93.67360109999936,93.67360109999936,93.67360109999936,,003,P015,2025_Feb_28_1804,ConditionRich,2021.2.3,59.94456326752858,
63.75,64.0,41,0.0,Stimuli/Blank.png,0,0,0.0,0,120,120,120,,,,,,,,,,,,,63.77369700000054,0.023697000000538537,None,94.42428550000113,94.42428550000113,94.42428550000113,94.42428550000113,94.42428550000113,94.42428550000113,94.42428550000113,94.42428550000113,94.42428550000113,94.42428550000113,,003,P015,2025_Feb_28_1804,ConditionRich,2021.2.3,59.94456326752858,
64.0,64.75,23,0.75,Stimuli/P015/things_boy_08s.jpg,0,0,0.0,0,121,121,121,,,,,,,,,,,,,64.00963100000081,0.009631000000808854,None,94.67449510000006,94.67449510000006,94.67449510000006,94.67449510000006,94.67449510000006,94.67449510000006,94.67449510000006,94.67449510000006,94.67449510000006,94.67449510000006,,003,P015,2025_Feb_28_1804,ConditionRich,2021.2.3,59.94456326752858,
64.75,65.0,41,0.0,Stimuli/Blank.png,0,0,0.0,0,122,122,122,,,,,,,,,,,,,64.77601450000293,0.026014500002929708,None,95.44185120000111,95.44185120000111,95.44185120000111,95.44185120000111,95.44185120000111,95.44185120000111,95.44185120000111,95.44185120000111,95.44185120000111,95.44185120000111,,003,P015,2025_Feb_28_1804,ConditionRich,2021.2.3,59.94456326752858,
65.0,65.75,23,0.75,Stimuli/P015/things_boy_08s.jpg,0,0,0.0,0,123,123,123,,,,,,,,,,,,,65.02416770000127,0.02416770000127144,None,95.67536330000075,95.67536330000075,95.67536330000075,95.67536330000075,95.67536330000075,95.67536330000075,95.67536330000075,95.67536330000075,95.67536330000075,95.67536330000075,,003,P015,2025_Feb_28_1804,ConditionRich,2021.2.3,59.94456326752858,
65.75,66.0,41,0.0,Stimuli/Blank.png,0,0,0.0,0,124,124,124,,,,,,,,,,,,,65.75837580000007,0.008375800000067102,None,96.40936050000164,96.40936050000164,96.40936050000164,96.40936050000164,96.40936050000164,96.40936050000164,96.40936050000164,96.40936050000164,96.40936050000164,96.40936050000164,,003,P015,2025_Feb_28_1804,ConditionRich,2021.2.3,59.94456326752858,
66.0,66.75,23,0.75,Stimuli/P015/things_boy_08s.jpg,1,0,0.75,0,125,125,125,,,,,,,,,,,,,66.01051430000007,0.010514300000068033,1,96.67626740000196,96.67626740000196,96.67626740000196,96.67626740000196,96.67626740000196,96.67626740000196,96.67626740000196,97.41024879999895,96.67626740000196,96.67626740000196,0.5721981999995478,003,P015,2025_Feb_28_1804,ConditionRich,2021.2.3,59.94456326752858,
66.75,67.0,41,0.0,Stimuli/Blank.png,0,0,0.0,0,126,126,126,,,,,,,,,,,,,66.7758982000014,0.02589820000139298,None,97.4269271000012,97.4269271000012,97.4269271000012,97.4269271000012,97.4269271000012,97.4269271000012,97.4269271000012,97.4269271000012,97.4269271000012,97.4269271000012,,003,P015,2025_Feb_28_1804,ConditionRich,2021.2.3,59.94456326752858,
67.0,67.75,23,0.75,Stimuli/P015/things_boy_08s.jpg,0,0,0.0,0,127,127,127,,,,,,,,,,,,,67.01024060000054,0.010240600000543054,None,97.6771484000019,97.6771484000019,97.6771484000019,97.6771484000019,97.6771484000019,97.6771484000019,97.6771484000019,97.6771484000019,97.6771484000019,97.6771484000019,,003,P015,2025_Feb_28_1804,ConditionRich,2021.2.3,59.94456326752858,
67.75,68.0,41,0.0,Stimuli/Blank.png,0,0,0.0,0,128,128,128,,,,,,,,,,,,,67.77713860000222,0.027138600002217572,None,98.42781140000079,98.42781140000079,98.42781140000079,98.42781140000079,98.42781140000079,98.42781140000079,98.42781140000079,98.42781140000079,98.42781140000079,98.42781140000079,,003,P015,2025_Feb_28_1804,ConditionRich,2021.2.3,59.94456326752858,
68.0,68.75,27,0.75,Stimuli/P015/things_girl_08s.jpg,0,0,0.0,0,129,129,129,,,,,,,,,,,,,68.01074380000136,0.010743800001364434,None,98.66135529999883,98.66135529999883,98.66135529999883,98.66135529999883,98.66135529999883,98.66135529999883,98.66135529999883,98.66135529999883,98.66135529999883,98.66135529999883,,003,P015,2025_Feb_28_1804,ConditionRich,2021.2.3,59.94456326752858,
68.75,69.0,41,0.0,Stimuli/Blank.png,0,0,0.0,0,130,130,130,,,,,,,,,,,,,68.76075649999984,0.010756499999843072,None,99.41201860000001,99.41201860000001,99.41201860000001,99.41201860000001,99.41201860000001,99.41201860000001,99.41201860000001,99.41201860000001,99.41201860000001,99.41201860000001,,003,P015,2025_Feb_28_1804,ConditionRich,2021.2.3,59.94456326752858,
69.0,69.75,27,0.75,Stimuli/P015/things_girl_08s.jpg,0,0,0.0,0,131,131,131,,,,,,,,,,,,,69.01211270000204,0.012112700002035126,None,99.67894539999907,99.67894539999907,99.67894539999907,99.67894539999907,99.67894539999907,99.67894539999907,99.67894539999907,99.67894539999907,99.67894539999907,99.67894539999907,,003,P015,2025_Feb_28_1804,ConditionRich,2021.2.3,59.94456326752858,
69.75,70.0,41,0.0,Stimuli/Blank.png,0,0,0.0,0,132,132,132,,,,,,,,,,,,,69.77845310000339,0.02845310000338941,None,100.42959229999906,100.42959229999906,100.42959229999906,100.42959229999906,100.42959229999906,100.42959229999906,100.42959229999906,100.42959229999906,100.42959229999906,100.42959229999906,,003,P015,2025_Feb_28_1804,ConditionRich,2021.2.3,59.94456326752858,
70.0,70.75,27,0.75,Stimuli/P015/things_girl_08s.jpg,1,0,0.75,0,133,133,133,,,,,,,,,,,,,70.01194610000312,0.011946100003115134,1,100.66312730000209,100.66312730000209,100.66312730000209,100.66312730000209,100.66312730000209,100.66312730000209,100.66312730000209,101.39715520000027,100.66312730000209,100.66312730000209,0.5300578999995196,003,P015,2025_Feb_28_1804,ConditionRich,2021.2.3,59.94456326752858,
70.75,71.0,41,0.0,Stimuli/Blank.png,0,0,0.0,0,134,134,134,,,,,,,,,,,,,70.76402960000269,0.014029600002686493,None,101.41377769999963,101.41377769999963,101.41377769999963,101.41377769999963,101.41377769999963,101.41377769999963,101.41377769999963,101.41377769999963,101.41377769999963,101.41377769999963,,003,P015,2025_Feb_28_1804,ConditionRich,2021.2.3,59.94456326752858,
71.0,71.75,27,0.75,Stimuli/P015/things_girl_08s.jpg,0,0,0.0,0,135,135,135,,,,,,,,,,,,,71.01286510000136,0.012865100001363317,None,101.6640088000022,101.6640088000022,101.6640088000022,101.6640088000022,101.6640088000022,101.6640088000022,101.6640088000022,101.6640088000022,101.6640088000022,101.6640088000022,,003,P015,2025_Feb_28_1804,ConditionRich,2021.2.3,59.94456326752858,
71.75,72.0,41,0.0,Stimuli/Blank.png,0,0,0.0,0,136,136,136,,,,,,,,,,,,,71.76401470000201,0.014014700002007885,None,102.4146791000021,102.4146791000021,102.4146791000021,102.4146791000021,102.4146791000021,102.4146791000021,102.4146791000021,102.4146791000021,102.4146791000021,102.4146791000021,,003,P015,2025_Feb_28_1804,ConditionRich,2021.2.3,59.94456326752858,
72.0,72.75,29,0.75,Stimuli/P015/things_mouse1_08s.jpg,0,0,0.0,0,137,137,137,,,,,,,,,,,,,72.01472530000319,0.014725300003192388,None,102.66490039999917,102.66490039999917,102.66490039999917,102.66490039999917,102.66490039999917,102.66490039999917,102.66490039999917,102.66490039999917,102.66490039999917,102.66490039999917,,003,P015,2025_Feb_28_1804,ConditionRich,2021.2.3,59.94456326752858,
72.75,73.0,41,0.0,Stimuli/Blank.png,0,0,0.0,0,138,138,138,,,,,,,,,,,,,72.76446950000172,0.014469500001723645,None,103.41553310000018,103.41553310000018,103.41553310000018,103.41553310000018,103.41553310000018,103.41553310000018,103.41553310000018,103.41553310000018,103.41553310000018,103.41553310000018,,003,P015,2025_Feb_28_1804,ConditionRich,2021.2.3,59.94456326752858,
73.0,73.75,29,0.75,Stimuli/P015/things_mouse1_08s.jpg,0,0,0.0,0,139,139,139,,,,,,,,,,,,,73.01526540000123,0.015265400001226226,None,103.68252070000017,103.68252070000017,103.68252070000017,103.68252070000017,103.68252070000017,103.68252070000017,103.68252070000017,103.68252070000017,103.68252070000017,103.68252070000017,,003,P015,2025_Feb_28_1804,ConditionRich,2021.2.3,59.94456326752858,
73.75,74.0,41,0.0,Stimuli/Blank.png,0,0,0.0,0,140,140,140,,,,,,,,,,,,,73.7652584000025,0.015258400002494454,None,104.41644369999995,104.41644369999995,104.41644369999995,104.41644369999995,104.41644369999995,104.41644369999995,104.41644369999995,104.41644369999995,104.41644369999995,104.41644369999995,,003,P015,2025_Feb_28_1804,ConditionRich,2021.2.3,59.94456326752858,
74.0,74.75,29,0.75,Stimuli/P015/things_mouse1_08s.jpg,0,0,0.0,0,141,141,141,,,,,,,,,,,,,74.01865550000002,0.018655500000022585,None,104.68335719999959,104.68335719999959,104.68335719999959,104.68335719999959,104.68335719999959,104.68335719999959,104.68335719999959,104.68335719999959,104.68335719999959,104.68335719999959,,003,P015,2025_Feb_28_1804,ConditionRich,2021.2.3,59.94456326752858,
74.75,75.0,41,0.0,Stimuli/Blank.png,0,0,0.0,0,142,142,142,,,,,,,,,,,,,74.76849050000237,0.018490500002371846,None,105.43402760000026,105.43402760000026,105.43402760000026,105.43402760000026,105.43402760000026,105.43402760000026,105.43402760000026,105.43402760000026,105.43402760000026,105.43402760000026,,003,P015,2025_Feb_28_1804,ConditionRich,2021.2.3,59.94456326752858,
75.0,75.75,29,0.75,Stimuli/P015/things_mouse1_08s.jpg,0,0,0.0,0,143,143,143,,,,,,,,,,,,,75.01956390000123,0.01956390000123065,None,105.68425779999961,105.68425779999961,105.68425779999961,105.68425779999961,105.68425779999961,105.68425779999961,105.68425779999961,105.68425779999961,105.68425779999961,105.68425779999961,,003,P015,2025_Feb_28_1804,ConditionRich,2021.2.3,59.94456326752858,
75.75,76.0,41,0.0,Stimuli/Blank.png,0,0,0.0,0,144,144,144,,,,,,,,,,,,,75.7681620000003,0.018162000000302214,None,106.41822239999965,106.41822239999965,106.41822239999965,106.41822239999965,106.41822239999965,106.41822239999965,106.41822239999965,106.41822239999965,106.41822239999965,106.41822239999965,,003,P015,2025_Feb_28_1804,ConditionRich,2021.2.3,59.94456326752858,
76.0,76.75,13,0.75,Stimuli/P015/sun_bphvjnowixlryxot.jpg,1,0,0.75,0,145,145,145,,,,,,,,,,,,,76.00339970000277,0.0033997000027738977,1,106.66844109999874,106.66844109999874,106.66844109999874,106.66844109999874,106.66844109999874,106.66844109999874,106.66844109999874,107.40244489999895,106.66844109999874,106.66844109999874,0.4497436999990896,003,P015,2025_Feb_28_1804,ConditionRich,2021.2.3,59.94456326752858,
76.75,77.0,41,0.0,Stimuli/Blank.png,0,0,0.0,0,146,146,146,,,,,,,,,,,,,76.76805680000325,0.018056800003250828,None,107.41909970000052,107.41909970000052,107.41909970000052,107.41909970000052,107.41909970000052,107.41909970000052,107.41909970000052,107.41909970000052,107.41909970000052,107.41909970000052,,003,P015,2025_Feb_28_1804,ConditionRich,2021.2.3,59.94456326752858,
77.0,77.75,13,0.75,Stimuli/P015/sun_bphvjnowixlryxot.jpg,0,0,0.0,0,147,147,147,,,,,,,,,,,,,77.0047439000009,0.004743900000903523,None,107.66938719999962,107.66938719999962,107.66938719999962,107.66938719999962,107.66938719999962,107.66938719999962,107.66938719999962,107.66938719999962,107.66938719999962,107.66938719999962,,003,P015,2025_Feb_28_1804,ConditionRich,2021.2.3,59.94456326752858,
77.75,78.0,41,0.0,Stimuli/Blank.png,0,0,0.0,0,148,148,148,,,,,,,,,,,,,77.76951290000216,0.01951290000215522,None,108.41998779999994,108.41998779999994,108.41998779999994,108.41998779999994,108.41998779999994,108.41998779999994,108.41998779999994,108.41998779999994,108.41998779999994,108.41998779999994,,003,P015,2025_Feb_28_1804,ConditionRich,2021.2.3,59.94456326752858,
78.0,78.75,13,0.75,Stimuli/P015/sun_bphvjnowixlryxot.jpg,0,0,0.0,0,149,149,149,,,,,,,,,,,,,78.00240050000139,0.002400500001385808,None,108.65352250000069,108.65352250000069,108.65352250000069,108.65352250000069,108.65352250000069,108.65352250000069,108.65352250000069,108.65352250000069,108.65352250000069,108.65352250000069,,003,P015,2025_Feb_28_1804,ConditionRich,2021.2.3,59.94456326752858,
78.75,79.0,41,0.0,Stimuli/Blank.png,0,0,0.0,0,150,150,150,,,,,,,,,,,,,78.75303460000214,0.003034600002138177,None,109.40419970000221,109.40419970000221,109.40419970000221,109.40419970000221,109.40419970000221,109.40419970000221,109.40419970000221,109.40419970000221,109.40419970000221,109.40419970000221,,003,P015,2025_Feb_28_1804,ConditionRich,2021.2.3,59.94456326752858,
79.0,79.75,13,0.75,Stimuli/P015/sun_bphvjnowixlryxot.jpg,0,0,0.0,0,151,151,151,,,,,,,,,,,,,79.00415229999999,0.004152299999987008,None,109.65442460000122,109.65442460000122,109.65442460000122,109.65442460000122,109.65442460000122,109.65442460000122,109.65442460000122,109.65442460000122,109.65442460000122,109.65442460000122,,003,P015,2025_Feb_28_1804,ConditionRich,2021.2.3,59.94456326752858,
79.75,80.0,41,0.0,Stimuli/Blank.png,0,0,0.0,0,152,152,152,,,,,,,,,,,,,79.75491289999991,0.004912899999908404,None,110.40509450000172,110.40509450000172,110.40509450000172,110.40509450000172,110.40509450000172,110.40509450000172,110.40509450000172,110.40509450000172,110.40509450000172,110.40509450000172,,003,P015,2025_Feb_28_1804,ConditionRich,2021.2.3,59.94456326752858,
80.0,80.75,4,0.75,Stimuli/P015/sun_aiwuqxdqzftsfyeg.jpg,0,0,0.0,0,153,153,153,,,,,,,,,,,,,80.00425910000195,0.004259100001945626,None,110.65531199999896,110.65531199999896,110.65531199999896,110.65531199999896,110.65531199999896,110.65531199999896,110.65531199999896,110.65531199999896,110.65531199999896,110.65531199999896,,003,P015,2025_Feb_28_1804,ConditionRich,2021.2.3,59.94456326752858,
80.75,81.0,41,0.0,Stimuli/Blank.png,0,0,0.0,0,154,154,154,,,,,,,,,,,,,80.75486220000312,0.004862200003117323,None,111.4059668000009,111.4059668000009,111.4059668000009,111.4059668000009,111.4059668000009,111.4059668000009,111.4059668000009,111.4059668000009,111.4059668000009,111.4059668000009,,003,P015,2025_Feb_28_1804,ConditionRich,2021.2.3,59.94456326752858,
81.0,81.75,4,0.75,Stimuli/P015/sun_aiwuqxdqzftsfyeg.jpg,0,0,0.0,0,155,155,155,,,,,,,,,,,,,81.00554230000125,0.005542300001252443,None,111.65619150000202,111.65619150000202,111.65619150000202,111.65619150000202,111.65619150000202,111.65619150000202,111.65619150000202,111.65619150000202,111.65619150000202,111.65619150000202,,003,P015,2025_Feb_28_1804,ConditionRich,2021.2.3,59.94456326752858,
81.75,82.0,41,0.0,Stimuli/Blank.png,0,0,0.0,0,156,156,156,,,,,,,,,,,,,81.75694350000049,0.0069435000004887115,None,112.40692610000042,112.40692610000042,112.40692610000042,112.40692610000042,112.40692610000042,112.40692610000042,112.40692610000042,112.40692610000042,112.40692610000042,112.40692610000042,,003,P015,2025_Feb_28_1804,ConditionRich,2021.2.3,59.94456326752858,
82.0,82.75,4,0.75,Stimuli/P015/sun_aiwuqxdqzftsfyeg.jpg,0,0,0.0,0,157,157,157,,,,,,,,,,,,,82.00672330000089,0.0067233000008855015,None,112.67377960000158,112.67377960000158,112.67377960000158,112.67377960000158,112.67377960000158,112.67377960000158,112.67377960000158,112.67377960000158,112.67377960000158,112.67377960000158,,003,P015,2025_Feb_28_1804,ConditionRich,2021.2.3,59.94456326752858,
82.75,83.0,41,0.0,Stimuli/Blank.png,0,0,0.0,0,158,158,158,,,,,,,,,,,,,82.77471780000269,0.024717800002690637,None,113.42445450000014,113.42445450000014,113.42445450000014,113.42445450000014,113.42445450000014,113.42445450000014,113.42445450000014,113.42445450000014,113.42445450000014,113.42445450000014,,003,P015,2025_Feb_28_1804,ConditionRich,2021.2.3,59.94456326752858,
83.0,83.75,4,0.75,Stimuli/P015/sun_aiwuqxdqzftsfyeg.jpg,0,0,0.0,0,159,159,159,,,,,,,,,,,,,83.00721150000027,0.007211500000266824,None,113.67466219999915,113.67466219999915,113.67466219999915,113.67466219999915,113.67466219999915,113.67466219999915,113.67466219999915,113.67466219999915,113.67466219999915,113.67466219999915,,003,P015,2025_Feb_28_1804,ConditionRich,2021.2.3,59.94456326752858,
83.75,84.0,41,0.0,Stimuli/Blank.png,0,0,0.0,0,160,160,160,,,,,,,,,,,,,83.77546770000117,0.02546770000117249,None,114.42538570000033,114.42538570000033,114.42538570000033,114.42538570000033,114.42538570000033,114.42538570000033,114.42538570000033,114.42538570000033,114.42538570000033,114.42538570000033,,003,P015,2025_Feb_28_1804,ConditionRich,2021.2.3,59.94456326752858,
84.0,100.0,0,0.0,Stimuli/Blank.png,1,3,3.75,0,161,161,161,,,,,,,,,,,,,84.00772440000219,0.007724400002189213,1,114.65889489999972,114.65889489999972,114.65889489999972,114.65889489999972,114.65889489999972,114.65889489999972,117.64481449999948,118.39548680000007,114.65889489999972,114.65889489999972,3.6074286999973992,003,P015,2025_Feb_28_1804,ConditionRich,2021.2.3,59.94456326752858,
100.0,100.75,33,0.75,Stimuli/P015/things_raccoon_08n.jpg,0,0,0.0,0,162,162,162,,,,,,,,,,,,,100.00525390000257,0.005253900002571754,None,130.6563434000018,130.6563434000018,130.6563434000018,130.6563434000018,130.6563434000018,130.6563434000018,130.6563434000018,130.6563434000018,130.6563434000018,130.6563434000018,,003,P015,2025_Feb_28_1804,ConditionRich,2021.2.3,59.94456326752858,
100.75,101.0,41,0.0,Stimuli/Blank.png,0,0,0.0,0,163,163,163,,,,,,,,,,,,,100.75689800000328,0.006898000003275229,None,131.40699959999984,131.40699959999984,131.40699959999984,131.40699959999984,131.40699959999984,131.40699959999984,131.40699959999984,131.40699959999984,131.40699959999984,131.40699959999984,,003,P015,2025_Feb_28_1804,ConditionRich,2021.2.3,59.94456326752858,
101.0,101.75,33,0.75,Stimuli/P015/things_raccoon_08n.jpg,0,0,0.0,0,164,164,164,,,,,,,,,,,,,101.0071087000033,0.007108700003300328,None,131.6572292000019,131.6572292000019,131.6572292000019,131.6572292000019,131.6572292000019,131.6572292000019,131.6572292000019,131.6572292000019,131.6572292000019,131.6572292000019,,003,P015,2025_Feb_28_1804,ConditionRich,2021.2.3,59.94456326752858,
101.75,102.0,41,0.0,Stimuli/Blank.png,0,0,0.0,0,165,165,165,,,,,,,,,,,,,101.75674770000114,0.006747700001142221,None,132.40790259999994,132.40790259999994,132.40790259999994,132.40790259999994,132.40790259999994,132.40790259999994,132.40790259999994,132.40790259999994,132.40790259999994,132.40790259999994,,003,P015,2025_Feb_28_1804,ConditionRich,2021.2.3,59.94456326752858,
102.0,102.75,33,0.75,Stimuli/P015/things_raccoon_08n.jpg,0,0,0.0,0,166,166,166,,,,,,,,,,,,,102.00734270000248,0.007342700002482161,None,132.65811089999988,132.65811089999988,132.65811089999988,132.65811089999988,132.65811089999988,132.65811089999988,132.65811089999988,132.65811089999988,132.65811089999988,132.65811089999988,,003,P015,2025_Feb_28_1804,ConditionRich,2021.2.3,59.94456326752858,
102.75,103.0,41,0.0,Stimuli/Blank.png,0,0,0.0,0,167,167,167,,,,,,,,,,,,,102.75975160000235,0.009751600002346095,None,133.4254679000005,133.4254679000005,133.4254679000005,133.4254679000005,133.4254679000005,133.4254679000005,133.4254679000005,133.4254679000005,133.4254679000005,133.4254679000005,,003,P015,2025_Feb_28_1804,ConditionRich,2021.2.3,59.94456326752858,
103.0,103.75,33,0.75,Stimuli/P015/things_raccoon_08n.jpg,0,0,0.0,0,168,168,168,,,,,,,,,,,,,103.02465180000218,0.02465180000217515,None,133.67569170000206,133.67569170000206,133.67569170000206,133.67569170000206,133.67569170000206,133.67569170000206,133.67569170000206,133.67569170000206,133.67569170000206,133.67569170000206,,003,P015,2025_Feb_28_1804,ConditionRich,2021.2.3,59.94456326752858,
103.75,104.0,41,0.0,Stimuli/Blank.png,0,0,0.0,0,169,169,169,,,,,,,,,,,,,103.7592446000017,0.00924460000169347,None,134.4096911000015,134.4096911000015,134.4096911000015,134.4096911000015,134.4096911000015,134.4096911000015,134.4096911000015,134.4096911000015,134.4096911000015,134.4096911000015,,003,P015,2025_Feb_28_1804,ConditionRich,2021.2.3,59.94456326752858,
104.0,104.75,22,0.75,Stimuli/P015/things_baby_08s.jpg,0,0,0.0,0,170,170,170,,,,,,,,,,,,,104.00926690000051,0.009266900000511669,None,134.67657150000014,134.67657150000014,134.67657150000014,134.67657150000014,134.67657150000014,134.67657150000014,134.67657150000014,134.67657150000014,134.67657150000014,134.67657150000014,,003,P015,2025_Feb_28_1804,ConditionRich,2021.2.3,59.94456326752858,
104.75,105.0,41,0.0,Stimuli/Blank.png,0,0,0.0,0,171,171,171,,,,,,,,,,,,,104.77645440000197,0.02645440000196686,None,135.4273022999987,135.4273022999987,135.4273022999987,135.4273022999987,135.4273022999987,135.4273022999987,135.4273022999987,135.4273022999987,135.4273022999987,135.4273022999987,,003,P015,2025_Feb_28_1804,ConditionRich,2021.2.3,59.94456326752858,
105.0,105.75,22,0.75,Stimuli/P015/things_baby_08s.jpg,0,0,0.0,0,172,172,172,,,,,,,,,,,,,105.01044460000048,0.010444600000482751,None,135.66083190000063,135.66083190000063,135.66083190000063,135.66083190000063,135.66083190000063,135.66083190000063,135.66083190000063,135.66083190000063,135.66083190000063,135.66083190000063,,003,P015,2025_Feb_28_1804,ConditionRich,2021.2.3,59.94456326752858,
105.75,106.0,41,0.0,Stimuli/Blank.png,0,0,0.0,0,173,173,173,,,,,,,,,,,,,105.76151160000154,0.0115116000015405,None,136.4114370999996,136.4114370999996,136.4114370999996,136.4114370999996,136.4114370999996,136.4114370999996,136.4114370999996,136.4114370999996,136.4114370999996,136.4114370999996,,003,P015,2025_Feb_28_1804,ConditionRich,2021.2.3,59.94456326752858,
106.0,106.75,22,0.75,Stimuli/P015/things_baby_08s.jpg,0,0,0.0,0,174,174,174,,,,,,,,,,,,,106.01125270000193,0.01125270000193268,None,136.66165489999912,136.66165489999912,136.66165489999912,136.66165489999912,136.66165489999912,136.66165489999912,136.66165489999912,136.66165489999912,136.66165489999912,136.66165489999912,,003,P015,2025_Feb_28_1804,ConditionRich,2021.2.3,59.94456326752858,
106.75,107.0,41,0.0,Stimuli/Blank.png,0,0,0.0,0,175,175,175,,,,,,,,,,,,,106.76126810000278,0.011268100002780557,None,137.41231870000047,137.41231870000047,137.41231870000047,137.41231870000047,137.41231870000047,137.41231870000047,137.41231870000047,137.41231870000047,137.41231870000047,137.41231870000047,,003,P015,2025_Feb_28_1804,ConditionRich,2021.2.3,59.94456326752858,
107.0,107.75,22,0.75,Stimuli/P015/things_baby_08s.jpg,0,0,0.0,0,176,176,176,,,,,,,,,,,,,107.01181830000132,0.011818300001323223,None,137.67923009999868,137.67923009999868,137.67923009999868,137.67923009999868,137.67923009999868,137.67923009999868,137.67923009999868,137.67923009999868,137.67923009999868,137.67923009999868,,003,P015,2025_Feb_28_1804,ConditionRich,2021.2.3,59.94456326752858,
107.75,108.0,41,0.0,Stimuli/Blank.png,0,0,0.0,0,177,177,177,,,,,,,,,,,,,107.77979870000127,0.029798700001265388,None,138.42989970000053,138.42989970000053,138.42989970000053,138.42989970000053,138.42989970000053,138.42989970000053,138.42989970000053,138.42989970000053,138.42989970000053,138.42989970000053,,003,P015,2025_Feb_28_1804,ConditionRich,2021.2.3,59.94456326752858,
108.0,108.75,30,0.75,Stimuli/P015/things_ottoman_08s.jpg,0,0,0.0,0,178,178,178,,,,,,,,,,,,,108.01227890000155,0.0122789000015473,None,138.66343440000128,138.66343440000128,138.66343440000128,138.66343440000128,138.66343440000128,138.66343440000128,138.66343440000128,138.66343440000128,138.66343440000128,138.66343440000128,,003,P015,2025_Feb_28_1804,ConditionRich,2021.2.3,59.94456326752858,
108.75,109.0,41,0.0,Stimuli/Blank.png,0,0,0.0,0,179,179,179,,,,,,,,,,,,,108.76490910000211,0.014909100002114428,None,139.43079860000216,139.43079860000216,139.43079860000216,139.43079860000216,139.43079860000216,139.43079860000216,139.43079860000216,139.43079860000216,139.43079860000216,139.43079860000216,,003,P015,2025_Feb_28_1804,ConditionRich,2021.2.3,59.94456326752858,
109.0,109.75,30,0.75,Stimuli/P015/things_ottoman_08s.jpg,0,0,0.0,0,180,180,180,,,,,,,,,,,,,109.02993600000264,0.02993600000263541,None,139.68097829999897,139.68097829999897,139.68097829999897,139.68097829999897,139.68097829999897,139.68097829999897,139.68097829999897,139.68097829999897,139.68097829999897,139.68097829999897,,003,P015,2025_Feb_28_1804,ConditionRich,2021.2.3,59.94456326752858,
109.75,110.0,41,0.0,Stimuli/Blank.png,0,0,0.0,0,181,181,181,,,,,,,,,,,,,109.76446680000299,0.014466800002992386,None,140.41508339999928,140.41508339999928,140.41508339999928,140.41508339999928,140.41508339999928,140.41508339999928,140.41508339999928,140.41508339999928,140.41508339999928,140.41508339999928,,003,P015,2025_Feb_28_1804,ConditionRich,2021.2.3,59.94456326752858,
110.0,110.75,30,0.75,Stimuli/P015/things_ottoman_08s.jpg,0,0,0.0,0,182,182,182,,,,,,,,,,,,,110.01417550000042,0.01417550000041956,None,140.66519909999988,140.66519909999988,140.66519909999988,140.66519909999988,140.66519909999988,140.66519909999988,140.66519909999988,140.66519909999988,140.66519909999988,140.66519909999988,,003,P015,2025_Feb_28_1804,ConditionRich,2021.2.3,59.94456326752858,
110.75,111.0,41,0.0,Stimuli/Blank.png,0,0,0.0,0,183,183,183,,,,,,,,,,,,,110.76493970000229,0.014939700002287282,None,141.41586780000216,141.41586780000216,141.41586780000216,141.41586780000216,141.41586780000216,141.41586780000216,141.41586780000216,141.41586780000216,141.41586780000216,141.41586780000216,,003,P015,2025_Feb_28_1804,ConditionRich,2021.2.3,59.94456326752858,
111.0,111.75,30,0.75,Stimuli/P015/things_ottoman_08s.jpg,0,0,0.0,0,184,184,184,,,,,,,,,,,,,111.01676300000327,0.016763000003265915,None,141.68279930000062,141.68279930000062,141.68279930000062,141.68279930000062,141.68279930000062,141.68279930000062,141.68279930000062,141.68279930000062,141.68279930000062,141.68279930000062,,003,P015,2025_Feb_28_1804,ConditionRich,2021.2.3,59.94456326752858,
111.75,112.0,41,0.0,Stimuli/Blank.png,0,0,0.0,0,185,185,185,,,,,,,,,,,,,111.76726970000163,0.01726970000163419,None,142.41674839999905,142.41674839999905,142.41674839999905,142.41674839999905,142.41674839999905,142.41674839999905,142.41674839999905,142.41674839999905,142.41674839999905,142.41674839999905,,003,P015,2025_Feb_28_1804,ConditionRich,2021.2.3,59.94456326752858,
112.0,112.75,11,0.75,Stimuli/P015/sun_bnwmcjuinqbdsbho.jpg,0,0,0.0,0,186,186,186,,,,,,,,,,,,,112.00018620000264,0.00018620000264490955,None,142.66701680000187,142.66701680000187,142.66701680000187,142.66701680000187,142.66701680000187,142.66701680000187,142.66701680000187,142.66701680000187,142.66701680000187,142.66701680000187,,003,P015,2025_Feb_28_1804,ConditionRich,2021.2.3,59.94456326752858,
112.75,113.0,41,0.0,Stimuli/Blank.png,0,0,0.0,0,187,187,187,,,,,,,,,,,,,112.76658990000215,0.01658990000214544,None,143.417641,143.417641,143.417641,143.417641,143.417641,143.417641,143.417641,143.417641,143.417641,143.417641,,003,P015,2025_Feb_28_1804,ConditionRich,2021.2.3,59.94456326752858,
113.0,113.75,11,0.75,Stimuli/P015/sun_bnwmcjuinqbdsbho.jpg,0,0,0.0,0,188,188,188,,,,,,,,,,,,,113.00077250000322,0.0007725000032223761,None,143.65117119999923,143.65117119999923,143.65117119999923,143.65117119999923,143.65117119999923,143.65117119999923,143.65117119999923,143.65117119999923,143.65117119999923,143.65117119999923,,003,P015,2025_Feb_28_1804,ConditionRich,2021.2.3,59.94456326752858,
113.75,114.0,41,0.0,Stimuli/Blank.png,0,0,0.0,0,189,189,189,,,,,,,,,,,,,113.7518299000003,0.0018299000003025867,None,144.40184919999956,144.40184919999956,144.40184919999956,144.40184919999956,144.40184919999956,144.40184919999956,144.40184919999956,144.40184919999956,144.40184919999956,144.40184919999956,,003,P015,2025_Feb_28_1804,ConditionRich,2021.2.3,59.94456326752858,
114.0,114.75,11,0.75,Stimuli/P015/sun_bnwmcjuinqbdsbho.jpg,0,0,0.0,0,190,190,190,,,,,,,,,,,,,114.00090100000307,0.000901000003068475,None,144.65206380000018,144.65206380000018,144.65206380000018,144.65206380000018,144.65206380000018,144.65206380000018,144.65206380000018,144.65206380000018,144.65206380000018,144.65206380000018,,003,P015,2025_Feb_28_1804,ConditionRich,2021.2.3,59.94456326752858,
114.75,115.0,41,0.0,Stimuli/Blank.png,0,0,0.0,0,191,191,191,,,,,,,,,,,,,114.75212330000068,0.002123300000675954,None,145.40277720000086,145.40277720000086,145.40277720000086,145.40277720000086,145.40277720000086,145.40277720000086,145.40277720000086,145.40277720000086,145.40277720000086,145.40277720000086,,003,P015,2025_Feb_28_1804,ConditionRich,2021.2.3,59.94456326752858,
115.0,115.75,11,0.75,Stimuli/P015/sun_bnwmcjuinqbdsbho.jpg,0,0,0.0,0,192,192,192,,,,,,,,,,,,,115.00290800000221,0.0029080000022077,None,145.65294709999944,145.65294709999944,145.65294709999944,145.65294709999944,145.65294709999944,145.65294709999944,145.65294709999944,145.65294709999944,145.65294709999944,145.65294709999944,,003,P015,2025_Feb_28_1804,ConditionRich,2021.2.3,59.94456326752858,
115.75,116.0,41,0.0,Stimuli/Blank.png,0,0,0.0,0,193,193,193,,,,,,,,,,,,,115.752450400003,0.0024504000029992312,None,146.40361420000045,146.40361420000045,146.40361420000045,146.40361420000045,146.40361420000045,146.40361420000045,146.40361420000045,146.40361420000045,146.40361420000045,146.40361420000045,,003,P015,2025_Feb_28_1804,ConditionRich,2021.2.3,59.94456326752858,
116.0,116.75,31,0.75,Stimuli/P015/things_outlet_08s.jpg,1,0,0.75,0,194,194,194,,,,,,,,,,,,,116.0034418000032,0.0034418000032019336,1,146.65384099999937,146.65384099999937,146.65384099999937,146.65384099999937,146.65384099999937,146.65384099999937,146.65384099999937,147.38785429999916,146.65384099999937,146.65384099999937,0.6107870999985607,003,P015,2025_Feb_28_1804,ConditionRich,2021.2.3,59.94456326752858,
116.75,117.0,41,0.0,Stimuli/Blank.png,0,0,0.0,0,195,195,195,,,,,,,,,,,,,116.75454880000325,0.004548800003249198,None,147.40450989999954,147.40450989999954,147.40450989999954,147.40450989999954,147.40450989999954,147.40450989999954,147.40450989999954,147.40450989999954,147.40450989999954,147.40450989999954,,003,P015,2025_Feb_28_1804,ConditionRich,2021.2.3,59.94456326752858,
117.0,117.75,31,0.75,Stimuli/P015/things_outlet_08s.jpg,0,0,0.0,0,196,196,196,,,,,,,,,,,,,117.00404830000116,0.0040483000011590775,None,147.67141840000113,147.67141840000113,147.67141840000113,147.67141840000113,147.67141840000113,147.67141840000113,147.67141840000113,147.67141840000113,147.67141840000113,147.67141840000113,,003,P015,2025_Feb_28_1804,ConditionRich,2021.2.3,59.94456326752858,
117.75,118.0,41,0.0,Stimuli/Blank.png,0,0,0.0,0,197,197,197,,,,,,,,,,,,,117.7710352000031,0.021035200003097998,None,148.42203979999977,148.42203979999977,148.42203979999977,148.42203979999977,148.42203979999977,148.42203979999977,148.42203979999977,148.42203979999977,148.42203979999977,148.42203979999977,,003,P015,2025_Feb_28_1804,ConditionRich,2021.2.3,59.94456326752858,
118.0,118.75,31,0.75,Stimuli/P015/things_outlet_08s.jpg,0,0,0.0,0,198,198,198,,,,,,,,,,,,,118.00450860000274,0.0045086000027367845,None,148.67230980000022,148.67230980000022,148.67230980000022,148.67230980000022,148.67230980000022,148.67230980000022,148.67230980000022,148.67230980000022,148.67230980000022,148.67230980000022,,003,P015,2025_Feb_28_1804,ConditionRich,2021.2.3,59.94456326752858,
118.75,119.0,41,0.0,Stimuli/Blank.png,0,0,0.0,0,199,199,199,,,,,,,,,,,,,118.77215179999985,0.022151799999846844,None,149.4229574000019,149.4229574000019,149.4229574000019,149.4229574000019,149.4229574000019,149.4229574000019,149.4229574000019,149.4229574000019,149.4229574000019,149.4229574000019,,003,P015,2025_Feb_28_1804,ConditionRich,2021.2.3,59.94456326752858,
119.0,119.75,31,0.75,Stimuli/P015/things_outlet_08s.jpg,0,0,0.0,0,200,200,200,,,,,,,,,,,,,119.00600100000156,0.006001000001560897,None,149.65649459999986,149.65649459999986,149.65649459999986,149.65649459999986,149.65649459999986,149.65649459999986,149.65649459999986,149.65649459999986,149.65649459999986,149.65649459999986,,003,P015,2025_Feb_28_1804,ConditionRich,2021.2.3,59.94456326752858,
119.75,120.0,41,0.0,Stimuli/Blank.png,0,0,0.0,0,201,201,201,,,,,,,,,,,,,119.75679600000149,0.006796000001486391,None,150.40717059999952,150.40717059999952,150.40717059999952,150.40717059999952,150.40717059999952,150.40717059999952,150.40717059999952,150.40717059999952,150.40717059999952,150.40717059999952,,003,P015,2025_Feb_28_1804,ConditionRich,2021.2.3,59.94456326752858,
120.0,120.75,16,0.75,Stimuli/P015/sun_bwhuwxazfqwuqhik.jpg,0,0,0.0,0,202,202,202,,,,,,,,,,,,,120.00873050000155,0.008730500001547625,None,150.6741015000007,150.6741015000007,150.6741015000007,150.6741015000007,150.6741015000007,150.6741015000007,150.6741015000007,150.6741015000007,150.6741015000007,150.6741015000007,,003,P015,2025_Feb_28_1804,ConditionRich,2021.2.3,59.94456326752858,
120.75,121.0,41,0.0,Stimuli/Blank.png,0,0,0.0,0,203,203,203,,,,,,,,,,,,,120.77473670000109,0.02473670000108541,None,151.42472300000009,151.42472300000009,151.42472300000009,151.42472300000009,151.42472300000009,151.42472300000009,151.42472300000009,151.42472300000009,151.42472300000009,151.42472300000009,,003,P015,2025_Feb_28_1804,ConditionRich,2021.2.3,59.94456326752858,
121.0,121.75,16,0.75,Stimuli/P015/sun_bwhuwxazfqwuqhik.jpg,0,0,0.0,0,204,204,204,,,,,,,,,,,,,121.0077388000027,0.007738800002698554,None,151.67494250000163,151.67494250000163,151.67494250000163,151.67494250000163,151.67494250000163,151.67494250000163,151.67494250000163,151.67494250000163,151.67494250000163,151.67494250000163,,003,P015,2025_Feb_28_1804,ConditionRich,2021.2.3,59.94456326752858,
121.75,122.0,41,0.0,Stimuli/Blank.png,0,0,0.0,0,205,205,205,,,,,,,,,,,,,121.77581330000248,0.02581330000248272,None,152.42562539999926,152.42562539999926,152.42562539999926,152.42562539999926,152.42562539999926,152.42562539999926,152.42562539999926,152.42562539999926,152.42562539999926,152.42562539999926,,003,P015,2025_Feb_28_1804,ConditionRich,2021.2.3,59.94456326752858,
122.0,122.75,16,0.75,Stimuli/P015/sun_bwhuwxazfqwuqhik.jpg,0,0,0.0,0,206,206,206,,,,,,,,,,,,,122.00819820000106,0.008198200001061196,None,152.65914759999941,152.65914759999941,152.65914759999941,152.65914759999941,152.65914759999941,152.65914759999941,152.65914759999941,152.65914759999941,152.65914759999941,152.65914759999941,,003,P015,2025_Feb_28_1804,ConditionRich,2021.2.3,59.94456326752858,
122.75,123.0,41,0.0,Stimuli/Blank.png,0,0,0.0,0,207,207,207,,,,,,,,,,,,,122.75873460000003,0.008734600000025239,None,153.40981309999916,153.40981309999916,153.40981309999916,153.40981309999916,153.40981309999916,153.40981309999916,153.40981309999916,153.40981309999916,153.40981309999916,153.40981309999916,,003,P015,2025_Feb_28_1804,ConditionRich,2021.2.3,59.94456326752858,
123.0,123.75,16,0.75,Stimuli/P015/sun_bwhuwxazfqwuqhik.jpg,0,0,0.0,0,208,208,208,,,,,,,,,,,,,123.0087764000018,0.008776400001806905,None,153.66004090000206,153.66004090000206,153.66004090000206,153.66004090000206,153.66004090000206,153.66004090000206,153.66004090000206,153.66004090000206,153.66004090000206,153.66004090000206,,003,P015,2025_Feb_28_1804,ConditionRich,2021.2.3,59.94456326752858,
123.75,124.0,41,0.0,Stimuli/Blank.png,0,0,0.0,0,209,209,209,,,,,,,,,,,,,123.7600319000012,0.010031900001195027,None,154.4107057000001,154.4107057000001,154.4107057000001,154.4107057000001,154.4107057000001,154.4107057000001,154.4107057000001,154.4107057000001,154.4107057000001,154.4107057000001,,003,P015,2025_Feb_28_1804,ConditionRich,2021.2.3,59.94456326752858,
124.0,124.75,20,0.75,Stimuli/P015/sun_bzmxulijbnmshodq.jpg,0,0,0.0,0,210,210,210,,,,,,,,,,,,,124.01060409999991,0.010604099999909522,None,154.66092560000106,154.66092560000106,154.66092560000106,154.66092560000106,154.66092560000106,154.66092560000106,154.66092560000106,154.66092560000106,154.66092560000106,154.66092560000106,,003,P015,2025_Feb_28_1804,ConditionRich,2021.2.3,59.94456326752858,
124.75,125.0,41,0.0,Stimuli/Blank.png,0,0,0.0,0,211,211,211,,,,,,,,,,,,,124.76095330000317,0.010953300003166078,None,155.4115892000009,155.4115892000009,155.4115892000009,155.4115892000009,155.4115892000009,155.4115892000009,155.4115892000009,155.4115892000009,155.4115892000009,155.4115892000009,,003,P015,2025_Feb_28_1804,ConditionRich,2021.2.3,59.94456326752858,
125.0,125.75,20,0.75,Stimuli/P015/sun_bzmxulijbnmshodq.jpg,0,0,0.0,0,212,212,212,,,,,,,,,,,,,125.01058380000177,0.010583800001768395,None,155.66180520000125,155.66180520000125,155.66180520000125,155.66180520000125,155.66180520000125,155.66180520000125,155.66180520000125,155.66180520000125,155.66180520000125,155.66180520000125,,003,P015,2025_Feb_28_1804,ConditionRich,2021.2.3,59.94456326752858,
125.75,126.0,41,0.0,Stimuli/Blank.png,0,0,0.0,0,213,213,213,,,,,,,,,,,,,125.76187010000285,0.011870100002852269,None,156.41253850000066,156.41253850000066,156.41253850000066,156.41253850000066,156.41253850000066,156.41253850000066,156.41253850000066,156.41253850000066,156.41253850000066,156.41253850000066,,003,P015,2025_Feb_28_1804,ConditionRich,2021.2.3,59.94456326752858,
126.0,126.75,20,0.75,Stimuli/P015/sun_bzmxulijbnmshodq.jpg,0,0,0.0,0,214,214,214,,,,,,,,,,,,,126.0126771000032,0.012677100003202213,None,156.66269430000102,156.66269430000102,156.66269430000102,156.66269430000102,156.66269430000102,156.66269430000102,156.66269430000102,156.66269430000102,156.66269430000102,156.66269430000102,,003,P015,2025_Feb_28_1804,ConditionRich,2021.2.3,59.94456326752858,
126.75,127.0,41,0.0,Stimuli/Blank.png,0,0,0.0,0,215,215,215,,,,,,,,,,,,,126.76285950000238,0.0128595000023779,None,157.41337249999924,157.41337249999924,157.41337249999924,157.41337249999924,157.41337249999924,157.41337249999924,157.41337249999924,157.41337249999924,157.41337249999924,157.41337249999924,,003,P015,2025_Feb_28_1804,ConditionRich,2021.2.3,59.94456326752858,
127.0,127.75,20,0.75,Stimuli/P015/sun_bzmxulijbnmshodq.jpg,0,0,0.0,0,216,216,216,,,,,,,,,,,,,127.01317830000335,0.013178300003346521,None,157.6802792999988,157.6802792999988,157.6802792999988,157.6802792999988,157.6802792999988,157.6802792999988,157.6802792999988,157.6802792999988,157.6802792999988,157.6802792999988,,003,P015,2025_Feb_28_1804,ConditionRich,2021.2.3,59.94456326752858,
127.75,128.0,41,0.0,Stimuli/Blank.png,0,0,0.0,0,217,217,217,,,,,,,,,,,,,127.77999040000213,0.029990400002134265,None,158.43100549999872,158.43100549999872,158.43100549999872,158.43100549999872,158.43100549999872,158.43100549999872,158.43100549999872,158.43100549999872,158.43100549999872,158.43100549999872,,003,P015,2025_Feb_28_1804,ConditionRich,2021.2.3,59.94456326752858,
128.0,128.75,7,0.75,Stimuli/P015/sun_aqdfrmtvewaapuqs.jpg,0,0,0.0,0,218,218,218,,,,,,,,,,,,,128.01329230000192,0.01329230000192183,None,158.66446799999903,158.66446799999903,158.66446799999903,158.66446799999903,158.66446799999903,158.66446799999903,158.66446799999903,158.66446799999903,158.66446799999903,158.66446799999903,,003,P015,2025_Feb_28_1804,ConditionRich,2021.2.3,59.94456326752858,
128.75,129.0,41,0.0,Stimuli/Blank.png,0,0,0.0,0,219,219,219,,,,,,,,,,,,,128.7645650000013,0.014565000001312,None,159.4151383999997,159.4151383999997,159.4151383999997,159.4151383999997,159.4151383999997,159.4151383999997,159.4151383999997,159.4151383999997,159.4151383999997,159.4151383999997,,003,P015,2025_Feb_28_1804,ConditionRich,2021.2.3,59.94456326752858,
129.0,129.75,7,0.75,Stimuli/P015/sun_aqdfrmtvewaapuqs.jpg,0,0,0.0,0,220,220,220,,,,,,,,,,,,,129.01546300000336,0.015463000003364868,None,159.68204139999943,159.68204139999943,159.68204139999943,159.68204139999943,159.68204139999943,159.68204139999943,159.68204139999943,159.68204139999943,159.68204139999943,159.68204139999943,,003,P015,2025_Feb_28_1804,ConditionRich,2021.2.3,59.94456326752858,
129.75,130.0,41,0.0,Stimuli/Blank.png,0,0,0.0,0,221,221,221,,,,,,,,,,,,,129.7657117000017,0.01571170000170241,None,160.41601730000184,160.41601730000184,160.41601730000184,160.41601730000184,160.41601730000184,160.41601730000184,160.41601730000184,160.41601730000184,160.41601730000184,160.41601730000184,,003,P015,2025_Feb_28_1804,ConditionRich,2021.2.3,59.94456326752858,
130.0,130.75,7,0.75,Stimuli/P015/sun_aqdfrmtvewaapuqs.jpg,0,0,0.0,0,222,222,222,,,,,,,,,,,,,129.99948320000112,-0.0005167999988771044,None,160.64955420000115,160.64955420000115,160.64955420000115,160.64955420000115,160.64955420000115,160.64955420000115,160.64955420000115,160.64955420000115,160.64955420000115,160.64955420000115,,003,P015,2025_Feb_28_1804,ConditionRich,2021.2.3,59.94456326752858,
130.75,131.0,41,0.0,Stimuli/Blank.png,0,0,0.0,0,223,223,223,,,,,,,,,,,,,130.7491485999999,-0.000851400000101421,None,161.40022279999903,161.40022279999903,161.40022279999903,161.40022279999903,161.40022279999903,161.40022279999903,161.40022279999903,161.40022279999903,161.40022279999903,161.40022279999903,,003,P015,2025_Feb_28_1804,ConditionRich,2021.2.3,59.94456326752858,
131.0,131.75,7,0.75,Stimuli/P015/sun_aqdfrmtvewaapuqs.jpg,0,0,0.0,0,224,224,224,,,,,,,,,,,,,130.99985090000337,-0.00014909999663359486,None,161.66714739999952,161.66714739999952,161.66714739999952,161.66714739999952,161.66714739999952,161.66714739999952,161.66714739999952,161.66714739999952,161.66714739999952,161.66714739999952,,003,P015,2025_Feb_28_1804,ConditionRich,2021.2.3,59.94456326752858,
131.75,132.0,41,0.0,Stimuli/Blank.png,0,0,0.0,0,225,225,225,,,,,,,,,,,,,131.7670246000016,0.017024600001604995,None,162.41782909999893,162.41782909999893,162.41782909999893,162.41782909999893,162.41782909999893,162.41782909999893,162.41782909999893,162.41782909999893,162.41782909999893,162.41782909999893,,003,P015,2025_Feb_28_1804,ConditionRich,2021.2.3,59.94456326752858,
132.0,132.75,14,0.75,Stimuli/P015/sun_bpvmkbyglkraoxhh.jpg,1,0,0.75,0,226,226,226,,,,,,,,,,,,,132.000641300001,0.0006413000010070391,1,162.66801530000157,162.66801530000157,162.66801530000157,162.66801530000157,162.66801530000157,162.66801530000157,162.66801530000157,163.38536810000005,162.66801530000157,162.66801530000157,0.6432304000009026,003,P015,2025_Feb_28_1804,ConditionRich,2021.2.3,59.94456326752858,
132.75,133.0,41,0.0,Stimuli/Blank.png,0,0,0.0,0,227,227,227,,,,,,,,,,,,,132.76923590000297,0.019235900002968265,None,163.4186910999997,163.4186910999997,163.4186910999997,163.4186910999997,163.4186910999997,163.4186910999997,163.4186910999997,163.4186910999997,163.4186910999997,163.4186910999997,,003,P015,2025_Feb_28_1804,ConditionRich,2021.2.3,59.94456326752858,
133.0,133.75,14,0.75,Stimuli/P015/sun_bpvmkbyglkraoxhh.jpg,0,0,0.0,0,228,228,228,,,,,,,,,,,,,133.00349650000135,0.003496500001347158,None,163.66891250000117,163.66891250000117,163.66891250000117,163.66891250000117,163.66891250000117,163.66891250000117,163.66891250000117,163.66891250000117,163.66891250000117,163.66891250000117,,003,P015,2025_Feb_28_1804,ConditionRich,2021.2.3,59.94456326752858,
133.75,134.0,41,0.0,Stimuli/Blank.png,0,0,0.0,0,229,229,229,,,,,,,,,,,,,133.7690102000015,0.019010200001503108,None,164.41956589999972,164.41956589999972,164.41956589999972,164.41956589999972,164.41956589999972,164.41956589999972,164.41956589999972,164.41956589999972,164.41956589999972,164.41956589999972,,003,P015,2025_Feb_28_1804,ConditionRich,2021.2.3,59.94456326752858,
134.0,134.75,14,0.75,Stimuli/P015/sun_bpvmkbyglkraoxhh.jpg,0,0,0.0,0,230,230,230,,,,,,,,,,,,,134.00182610000047,0.0018261000004713424,None,164.65309770000022,164.65309770000022,164.65309770000022,164.65309770000022,164.65309770000022,164.65309770000022,164.65309770000022,164.65309770000022,164.65309770000022,164.65309770000022,,003,P015,2025_Feb_28_1804,ConditionRich,2021.2.3,59.94456326752858,
134.75,135.0,41,0.0,Stimuli/Blank.png,0,0,0.0,0,231,231,231,,,,,,,,,,,,,134.75337710000167,0.0033771000016713515,None,165.40377939999962,165.40377939999962,165.40377939999962,165.40377939999962,165.40377939999962,165.40377939999962,165.40377939999962,165.40377939999962,165.40377939999962,165.40377939999962,,003,P015,2025_Feb_28_1804,ConditionRich,2021.2.3,59.94456326752858,
135.0,135.75,14,0.75,Stimuli/P015/sun_bpvmkbyglkraoxhh.jpg,0,0,0.0,0,232,232,232,,,,,,,,,,,,,135.00354169999991,0.0035416999999142718,None,165.6706708999991,165.6706708999991,165.6706708999991,165.6706708999991,165.6706708999991,165.6706708999991,165.6706708999991,165.6706708999991,165.6706708999991,165.6706708999991,,003,P015,2025_Feb_28_1804,ConditionRich,2021.2.3,59.94456326752858,
135.75,136.0,41,0.0,Stimuli/Blank.png,0,0,0.0,0,233,233,233,,,,,,,,,,,,,135.77029279999988,0.020292799999879207,None,166.42133549999926,166.42133549999926,166.42133549999926,166.42133549999926,166.42133549999926,166.42133549999926,166.42133549999926,166.42133549999926,166.42133549999926,166.42133549999926,,003,P015,2025_Feb_28_1804,ConditionRich,2021.2.3,59.94456326752858,
136.0,136.75,19,0.75,Stimuli/P015/sun_bzhwvgrzvttqoexa.jpg,0,0,0.0,0,234,234,234,,,,,,,,,,,,,136.00421060000008,0.004210600000078557,None,166.6548853000022,166.6548853000022,166.6548853000022,166.6548853000022,166.6548853000022,166.6548853000022,166.6548853000022,166.6548853000022,166.6548853000022,166.6548853000022,,003,P015,2025_Feb_28_1804,ConditionRich,2021.2.3,59.94456326752858,
136.75,137.0,41,0.0,Stimuli/Blank.png,0,0,0.0,0,235,235,235,,,,,,,,,,,,,136.75505500000145,0.005055000001448207,None,167.40553960000034,167.40553960000034,167.40553960000034,167.40553960000034,167.40553960000034,167.40553960000034,167.40553960000034,167.40553960000034,167.40553960000034,167.40553960000034,,003,P015,2025_Feb_28_1804,ConditionRich,2021.2.3,59.94456326752858,
137.0,137.75,19,0.75,Stimuli/P015/sun_bzhwvgrzvttqoexa.jpg,0,0,0.0,0,236,236,236,,,,,,,,,,,,,137.00453610000113,0.004536100001132581,None,167.6557587999996,167.6557587999996,167.6557587999996,167.6557587999996,167.6557587999996,167.6557587999996,167.6557587999996,167.6557587999996,167.6557587999996,167.6557587999996,,003,P015,2025_Feb_28_1804,ConditionRich,2021.2.3,59.94456326752858,
137.75,138.0,41,0.0,Stimuli/Blank.png,0,0,0.0,0,237,237,237,,,,,,,,,,,,,137.75537380000242,0.005373800002416829,None,168.40642130000197,168.40642130000197,168.40642130000197,168.40642130000197,168.40642130000197,168.40642130000197,168.40642130000197,168.40642130000197,168.40642130000197,168.40642130000197,,003,P015,2025_Feb_28_1804,ConditionRich,2021.2.3,59.94456326752858,
138.0,138.75,19,0.75,Stimuli/P015/sun_bzhwvgrzvttqoexa.jpg,0,0,0.0,0,238,238,238,,,,,,,,,,,,,138.00557910000134,0.0055791000013414305,None,168.6566425000019,168.6566425000019,168.6566425000019,168.6566425000019,168.6566425000019,168.6566425000019,168.6566425000019,168.6566425000019,168.6566425000019,168.6566425000019,,003,P015,2025_Feb_28_1804,ConditionRich,2021.2.3,59.94456326752858,
138.75,139.0,41,0.0,Stimuli/Blank.png,0,0,0.0,0,239,239,239,,,,,,,,,,,,,138.75695330000235,0.00695330000235117,None,169.40733530000216,169.40733530000216,169.40733530000216,169.40733530000216,169.40733530000216,169.40733530000216,169.40733530000216,169.40733530000216,169.40733530000216,169.40733530000216,,003,P015,2025_Feb_28_1804,ConditionRich,2021.2.3,59.94456326752858,
139.0,139.75,19,0.75,Stimuli/P015/sun_bzhwvgrzvttqoexa.jpg,0,0,0.0,0,240,240,240,,,,,,,,,,,,,139.00984299999982,0.009842999999818858,None,169.674238399999,169.674238399999,169.674238399999,169.674238399999,169.674238399999,169.674238399999,169.674238399999,169.674238399999,169.674238399999,169.674238399999,,003,P015,2025_Feb_28_1804,ConditionRich,2021.2.3,59.94456326752858,
139.75,140.0,41,0.0,Stimuli/Blank.png,0,0,0.0,0,241,241,241,,,,,,,,,,,,,139.77454260000013,0.024542600000131642,None,170.42487600000095,170.42487600000095,170.42487600000095,170.42487600000095,170.42487600000095,170.42487600000095,170.42487600000095,170.42487600000095,170.42487600000095,170.42487600000095,,003,P015,2025_Feb_28_1804,ConditionRich,2021.2.3,59.94456326752858,
140.0,140.75,2,0.75,Stimuli/P015/sun_agzfkftryitnqpxc.jpg,0,0,0.0,0,242,242,242,,,,,,,,,,,,,140.00863630000094,0.008636300000944175,None,170.6751366999997,170.6751366999997,170.6751366999997,170.6751366999997,170.6751366999997,170.6751366999997,170.6751366999997,170.6751366999997,170.6751366999997,170.6751366999997,,003,P015,2025_Feb_28_1804,ConditionRich,2021.2.3,59.94456326752858,
140.75,141.0,41,0.0,Stimuli/Blank.png,0,0,0.0,0,243,243,243,,,,,,,,,,,,,140.77524249999988,0.0252424999998766,None,171.42576399999962,171.42576399999962,171.42576399999962,171.42576399999962,171.42576399999962,171.42576399999962,171.42576399999962,171.42576399999962,171.42576399999962,171.42576399999962,,003,P015,2025_Feb_28_1804,ConditionRich,2021.2.3,59.94456326752858,
141.0,141.75,2,0.75,Stimuli/P015/sun_agzfkftryitnqpxc.jpg,0,0,0.0,0,244,244,244,,,,,,,,,,,,,141.00905760000023,0.009057600000232924,None,171.67598440000074,171.67598440000074,171.67598440000074,171.67598440000074,171.67598440000074,171.67598440000074,171.67598440000074,171.67598440000074,171.67598440000074,171.67598440000074,,003,P015,2025_Feb_28_1804,ConditionRich,2021.2.3,59.94456326752858,
141.75,142.0,41,0.0,Stimuli/Blank.png,0,0,0.0,0,245,245,245,,,,,,,,,,,,,141.77573170000323,0.025731700003234437,None,172.42665860000125,172.42665860000125,172.42665860000125,172.42665860000125,172.42665860000125,172.42665860000125,172.42665860000125,172.42665860000125,172.42665860000125,172.42665860000125,,003,P015,2025_Feb_28_1804,ConditionRich,2021.2.3,59.94456326752858,
142.0,142.75,2,0.75,Stimuli/P015/sun_agzfkftryitnqpxc.jpg,0,0,0.0,0,246,246,246,,,,,,,,,,,,,142.0090033000015,0.009003300001495518,None,172.66016410000157,172.66016410000157,172.66016410000157,172.66016410000157,172.66016410000157,172.66016410000157,172.66016410000157,172.66016410000157,172.66016410000157,172.66016410000157,,003,P015,2025_Feb_28_1804,ConditionRich,2021.2.3,59.94456326752858,
142.75,143.0,41,0.0,Stimuli/Blank.png,0,0,0.0,0,247,247,247,,,,,,,,,,,,,142.76077850000001,0.010778500000014901,None,173.4275684000022,173.4275684000022,173.4275684000022,173.4275684000022,173.4275684000022,173.4275684000022,173.4275684000022,173.4275684000022,173.4275684000022,173.4275684000022,,003,P015,2025_Feb_28_1804,ConditionRich,2021.2.3,59.94456326752858,
143.0,143.75,2,0.75,Stimuli/P015/sun_agzfkftryitnqpxc.jpg,0,0,0.0,0,248,248,248,,,,,,,,,,,,,143.02724470000248,0.027244700002484024,None,173.677752399999,173.677752399999,173.677752399999,173.677752399999,173.677752399999,173.677752399999,173.677752399999,173.677752399999,173.677752399999,173.677752399999,,003,P015,2025_Feb_28_1804,ConditionRich,2021.2.3,59.94456326752858,
143.75,144.0,41,0.0,Stimuli/Blank.png,0,0,0.0,0,249,249,249,,,,,,,,,,,,,143.76044120000006,0.010441200000059325,None,174.41177439999956,174.41177439999956,174.41177439999956,174.41177439999956,174.41177439999956,174.41177439999956,174.41177439999956,174.41177439999956,174.41177439999956,174.41177439999956,,003,P015,2025_Feb_28_1804,ConditionRich,2021.2.3,59.94456326752858,
144.0,144.75,25,0.75,Stimuli/P015/things_deer_08s.jpg,0,0,0.0,0,250,250,250,,,,,,,,,,,,,144.01069970000026,0.010699700000259327,None,174.66196370000034,174.66196370000034,174.66196370000034,174.66196370000034,174.66196370000034,174.66196370000034,174.66196370000034,174.66196370000034,174.66196370000034,174.66196370000034,,003,P015,2025_Feb_28_1804,ConditionRich,2021.2.3,59.94456326752858,
144.75,145.0,41,0.0,Stimuli/Blank.png,0,0,0.0,0,251,251,251,,,,,,,,,,,,,144.76154160000078,0.011541600000782637,None,175.41262450000067,175.41262450000067,175.41262450000067,175.41262450000067,175.41262450000067,175.41262450000067,175.41262450000067,175.41262450000067,175.41262450000067,175.41262450000067,,003,P015,2025_Feb_28_1804,ConditionRich,2021.2.3,59.94456326752858,
145.0,145.75,25,0.75,Stimuli/P015/things_deer_08s.jpg,0,0,0.0,0,252,252,252,,,,,,,,,,,,,145.01299940000172,0.012999400001717731,None,175.67953119999947,175.67953119999947,175.67953119999947,175.67953119999947,175.67953119999947,175.67953119999947,175.67953119999947,175.67953119999947,175.67953119999947,175.67953119999947,,003,P015,2025_Feb_28_1804,ConditionRich,2021.2.3,59.94456326752858,
145.75,146.0,41,0.0,Stimuli/Blank.png,0,0,0.0,0,253,253,253,,,,,,,,,,,,,145.78078150000147,0.030781500001467066,None,176.4475695000001,176.4475695000001,176.4475695000001,176.4475695000001,176.4475695000001,176.4475695000001,176.4475695000001,176.4475695000001,176.4475695000001,176.4475695000001,,003,P015,2025_Feb_28_1804,ConditionRich,2021.2.3,59.94456326752858,
146.0,146.75,25,0.75,Stimuli/P015/things_deer_08s.jpg,0,0,0.0,0,254,254,254,,,,,,,,,,,,,146.02931830000307,0.029318300003069453,None,176.68047189999925,176.68047189999925,176.68047189999925,176.68047189999925,176.68047189999925,176.68047189999925,176.68047189999925,176.68047189999925,176.68047189999925,176.68047189999925,,003,P015,2025_Feb_28_1804,ConditionRich,2021.2.3,59.94456326752858,
146.75,147.0,41,0.0,Stimuli/Blank.png,0,0,0.0,0,255,255,255,,,,,,,,,,,,,146.7652044000024,0.015204400002403418,None,177.4310824000022,177.4310824000022,177.4310824000022,177.4310824000022,177.4310824000022,177.4310824000022,177.4310824000022,177.4310824000022,177.4310824000022,177.4310824000022,,003,P015,2025_Feb_28_1804,ConditionRich,2021.2.3,59.94456326752858,
147.0,147.75,25,0.75,Stimuli/P015/things_deer_08s.jpg,0,0,0.0,0,256,256,256,,,,,,,,,,,,,147.0309257000008,0.03092570000080741,None,177.6980164000015,177.6980164000015,177.6980164000015,177.6980164000015,177.6980164000015,177.6980164000015,177.6980164000015,177.6980164000015,177.6980164000015,177.6980164000015,,003,P015,2025_Feb_28_1804,ConditionRich,2021.2.3,59.94456326752858,
147.75,148.0,41,0.0,Stimuli/Blank.png,0,0,0.0,0,257,257,257,,,,,,,,,,,,,147.78089300000283,0.030893000002834015,None,178.43196979999993,178.43196979999993,178.43196979999993,178.43196979999993,178.43196979999993,178.43196979999993,178.43196979999993,178.43196979999993,178.43196979999993,178.43196979999993,,003,P015,2025_Feb_28_1804,ConditionRich,2021.2.3,59.94456326752858,
148.0,148.75,18,0.75,Stimuli/P015/sun_byavixgfuhzioilz.jpg,0,0,0.0,0,258,258,258,,,,,,,,,,,,,148.0154109000032,0.015410900003189454,None,178.6655013999989,178.6655013999989,178.6655013999989,178.6655013999989,178.6655013999989,178.6655013999989,178.6655013999989,178.6655013999989,178.6655013999989,178.6655013999989,,003,P015,2025_Feb_28_1804,ConditionRich,2021.2.3,59.94456326752858,
148.75,149.0,41,0.0,Stimuli/Blank.png,0,0,0.0,0,259,259,259,,,,,,,,,,,,,148.74982590000218,-0.00017409999782103114,None,179.39950529999987,179.39950529999987,179.39950529999987,179.39950529999987,179.39950529999987,179.39950529999987,179.39950529999987,179.39950529999987,179.39950529999987,179.39950529999987,,003,P015,2025_Feb_28_1804,ConditionRich,2021.2.3,59.94456326752858,
149.0,149.75,18,0.75,Stimuli/P015/sun_byavixgfuhzioilz.jpg,0,0,0.0,0,260,260,260,,,,,,,,,,,,,148.99927060000118,-0.0007293999988178257,None,179.6663989000008,179.6663989000008,179.6663989000008,179.6663989000008,179.6663989000008,179.6663989000008,179.6663989000008,179.6663989000008,179.6663989000008,179.6663989000008,,003,P015,2025_Feb_28_1804,ConditionRich,2021.2.3,59.94456326752858,
149.75,150.0,41,0.0,Stimuli/Blank.png,0,0,0.0,0,261,261,261,,,,,,,,,,,,,149.7658732000018,0.015873200001806254,None,180.41705060000095,180.41705060000095,180.41705060000095,180.41705060000095,180.41705060000095,180.41705060000095,180.41705060000095,180.41705060000095,180.41705060000095,180.41705060000095,,003,P015,2025_Feb_28_1804,ConditionRich,2021.2.3,59.94456326752858,
