eventStartTime,eventEndTime,eventCond,imSize,imFile,responseEvent,fixRespStart,fixRespEnd,Events.thisRepN,Events.thisTrialN,Events.thisN,Events.thisIndex,Instructions.started,Instructions.stopped,participantReadyResponse.keys,participantReadyResponse.rt,participantReadyResponse.started,participantReadyResponse.stopped,startWaitforTrigger,triggerResponse.keys,triggerResponse.rt,triggerResponse.started,triggerResponse.stopped,globalTimer,actualStartTime,startTimingDiff,participantResponse.keys,participantResponse.started,participantResponse.stopped,image.started,image.stopped,fixationOutside.started,fixationOutside.stopped,fixationResponse.started,fixationResponse.stopped,fixationInside.started,fixationInside.stopped,participantResponse.rt,session,participant,date,expName,psychopyVersion,frameRate,
,,,,,,,,,,,,10.805934399999387,None,1,5.246080900000379,10.805934399999387,None,,,,,,,,,,,,,,,,,,,,,009,P015,2025_Feb_28_1901,ConditionRich,2021.2.3,59.927643363586846,
,,,,,,,,,,,,,,,,,,16.057502199997543,5,14.005514600001334,16.070583899996564,None,,,,,,,,,,,,,,,,009,P015,2025_Feb_28_1901,ConditionRich,2021.2.3,59.927643363586846,
0.0,4.0,0,0.0,Stimuli/Blank.png,0,0,0.0,0,0,0,0,,,,,,,,,,,,30.08528739999747,0.07045669999934034,0.07045669999934034,None,30.166273299997556,None,30.166273299997556,None,30.166273299997556,None,30.166273299997556,30.166273299997556,30.166273299997556,None,,009,P015,2025_Feb_28_1901,ConditionRich,2021.2.3,59.927643363586846,
4.0,4.75,3,0.75,Stimuli/P015/sun_aiogwnavezqxkzfg.jpg,0,0,0.0,0,1,1,1,,,,,,,,,,,,,4.008089499999187,0.008089499999186955,None,34.120071800000005,34.120071800000005,34.120071800000005,34.120071800000005,34.120071800000005,34.120071800000005,34.120071800000005,34.120071800000005,34.120071800000005,34.120071800000005,,009,P015,2025_Feb_28_1901,ConditionRich,2021.2.3,59.927643363586846,
4.75,5.0,41,0.0,Stimuli/Blank.png,0,0,0.0,0,2,2,2,,,,,,,,,,,,,4.770727499999339,0.02072749999933876,None,34.87071149999974,34.87071149999974,34.87071149999974,34.87071149999974,34.87071149999974,34.87071149999974,34.87071149999974,34.87071149999974,34.87071149999974,34.87071149999974,,009,P015,2025_Feb_28_1901,ConditionRich,2021.2.3,59.927643363586846,
5.0,5.75,3,0.75,Stimuli/P015/sun_aiogwnavezqxkzfg.jpg,0,0,0.0,0,3,3,3,,,,,,,,,,,,,5.0051993999986735,0.005199399998673471,None,35.12065679999796,35.12065679999796,35.12065679999796,35.12065679999796,35.12065679999796,35.12065679999796,35.12065679999796,35.12065679999796,35.12065679999796,35.12065679999796,,009,P015,2025_Feb_28_1901,ConditionRich,2021.2.3,59.927643363586846,
5.75,6.0,41,0.0,Stimuli/Blank.png,0,0,0.0,0,4,4,4,,,,,,,,,,,,,5.773342100001173,0.023342100001173094,None,35.87135969999872,35.87135969999872,35.87135969999872,35.87135969999872,35.87135969999872,35.87135969999872,35.87135969999872,35.87135969999872,35.87135969999872,35.87135969999872,,009,P015,2025_Feb_28_1901,ConditionRich,2021.2.3,59.927643363586846,
6.0,6.75,3,0.75,Stimuli/P015/sun_aiogwnavezqxkzfg.jpg,0,0,0.0,0,5,5,5,,,,,,,,,,,,,6.0061391000017466,0.006139100001746556,None,36.10485409999819,36.10485409999819,36.10485409999819,36.10485409999819,36.10485409999819,36.10485409999819,36.10485409999819,36.10485409999819,36.10485409999819,36.10485409999819,,009,P015,2025_Feb_28_1901,ConditionRich,2021.2.3,59.927643363586846,
6.75,7.0,41,0.0,Stimuli/Blank.png,0,0,0.0,0,6,6,6,,,,,,,,,,,,,6.756978400000662,0.006978400000662077,None,36.8555357999976,36.8555357999976,36.8555357999976,36.8555357999976,36.8555357999976,36.8555357999976,36.8555357999976,36.8555357999976,36.8555357999976,36.8555357999976,,009,P015,2025_Feb_28_1901,ConditionRich,2021.2.3,59.927643363586846,
7.0,7.75,3,0.75,Stimuli/P015/sun_aiogwnavezqxkzfg.jpg,0,0,0.0,0,7,7,7,,,,,,,,,,,,,7.005811200000608,0.005811200000607641,None,37.105744599997706,37.105744599997706,37.105744599997706,37.105744599997706,37.105744599997706,37.105744599997706,37.105744599997706,37.105744599997706,37.105744599997706,37.105744599997706,,009,P015,2025_Feb_28_1901,ConditionRich,2021.2.3,59.927643363586846,
7.75,8.0,41,0.0,Stimuli/Blank.png,0,0,0.0,0,8,8,8,,,,,,,,,,,,,7.756440600001952,0.00644060000195168,None,37.85649789999661,37.85649789999661,37.85649789999661,37.85649789999661,37.85649789999661,37.85649789999661,37.85649789999661,37.85649789999661,37.85649789999661,37.85649789999661,,009,P015,2025_Feb_28_1901,ConditionRich,2021.2.3,59.927643363586846,
8.0,8.75,16,0.75,Stimuli/P015/sun_bwhuwxazfqwuqhik.jpg,0,0,0.0,0,9,9,9,,,,,,,,,,,,,8.008160500001395,0.008160500001395121,None,38.12331300000005,38.12331300000005,38.12331300000005,38.12331300000005,38.12331300000005,38.12331300000005,38.12331300000005,38.12331300000005,38.12331300000005,38.12331300000005,,009,P015,2025_Feb_28_1901,ConditionRich,2021.2.3,59.927643363586846,
8.75,9.0,41,0.0,Stimuli/Blank.png,0,0,0.0,0,10,10,10,,,,,,,,,,,,,8.774972100000014,0.024972100000013597,None,38.87398459999895,38.87398459999895,38.87398459999895,38.87398459999895,38.87398459999895,38.87398459999895,38.87398459999895,38.87398459999895,38.87398459999895,38.87398459999895,,009,P015,2025_Feb_28_1901,ConditionRich,2021.2.3,59.927643363586846,
9.0,9.75,16,0.75,Stimuli/P015/sun_bwhuwxazfqwuqhik.jpg,0,0,0.0,0,11,11,11,,,,,,,,,,,,,9.008396900000662,0.008396900000661844,None,39.12419889999728,39.12419889999728,39.12419889999728,39.12419889999728,39.12419889999728,39.12419889999728,39.12419889999728,39.12419889999728,39.12419889999728,39.12419889999728,,009,P015,2025_Feb_28_1901,ConditionRich,2021.2.3,59.927643363586846,
9.75,10.0,41,0.0,Stimuli/Blank.png,0,0,0.0,0,12,12,12,,,,,,,,,,,,,9.774919499999669,0.024919499999668915,None,39.874859699997614,39.874859699997614,39.874859699997614,39.874859699997614,39.874859699997614,39.874859699997614,39.874859699997614,39.874859699997614,39.874859699997614,39.874859699997614,,009,P015,2025_Feb_28_1901,ConditionRich,2021.2.3,59.927643363586846,
10.0,10.75,16,0.75,Stimuli/P015/sun_bwhuwxazfqwuqhik.jpg,0,0,0.0,0,13,13,13,,,,,,,,,,,,,10.00850740000169,0.008507400001690257,None,40.108405799997854,40.108405799997854,40.108405799997854,40.108405799997854,40.108405799997854,40.108405799997854,40.108405799997854,40.108405799997854,40.108405799997854,40.108405799997854,,009,P015,2025_Feb_28_1901,ConditionRich,2021.2.3,59.927643363586846,
10.75,11.0,41,0.0,Stimuli/Blank.png,0,0,0.0,0,14,14,14,,,,,,,,,,,,,10.760041599998658,0.010041599998658057,None,40.85906590000013,40.85906590000013,40.85906590000013,40.85906590000013,40.85906590000013,40.85906590000013,40.85906590000013,40.85906590000013,40.85906590000013,40.85906590000013,,009,P015,2025_Feb_28_1901,ConditionRich,2021.2.3,59.927643363586846,
11.0,11.75,16,0.75,Stimuli/P015/sun_bwhuwxazfqwuqhik.jpg,0,0,0.0,0,15,15,15,,,,,,,,,,,,,11.01005190000069,0.010051900000689784,None,41.12599659999978,41.12599659999978,41.12599659999978,41.12599659999978,41.12599659999978,41.12599659999978,41.12599659999978,41.12599659999978,41.12599659999978,41.12599659999978,,009,P015,2025_Feb_28_1901,ConditionRich,2021.2.3,59.927643363586846,
11.75,12.0,41,0.0,Stimuli/Blank.png,0,0,0.0,0,16,16,16,,,,,,,,,,,,,11.777225300000282,0.027225300000282004,None,41.87670239999716,41.87670239999716,41.87670239999716,41.87670239999716,41.87670239999716,41.87670239999716,41.87670239999716,41.87670239999716,41.87670239999716,41.87670239999716,,009,P015,2025_Feb_28_1901,ConditionRich,2021.2.3,59.927643363586846,
12.0,12.75,1,0.75,Stimuli/P015/sun_aacpzgqrortyhyss.jpg,0,0,0.0,0,17,17,17,,,,,,,,,,,,,12.010532500000409,0.010532500000408618,None,42.11017039999933,42.11017039999933,42.11017039999933,42.11017039999933,42.11017039999933,42.11017039999933,42.11017039999933,42.11017039999933,42.11017039999933,42.11017039999933,,009,P015,2025_Feb_28_1901,ConditionRich,2021.2.3,59.927643363586846,
12.75,13.0,41,0.0,Stimuli/Blank.png,0,0,0.0,0,18,18,18,,,,,,,,,,,,,12.761141200000566,0.011141200000565732,None,42.86083769999823,42.86083769999823,42.86083769999823,42.86083769999823,42.86083769999823,42.86083769999823,42.86083769999823,42.86083769999823,42.86083769999823,42.86083769999823,,009,P015,2025_Feb_28_1901,ConditionRich,2021.2.3,59.927643363586846,
13.0,13.75,1,0.75,Stimuli/P015/sun_aacpzgqrortyhyss.jpg,1,0,0.75,0,19,19,19,,,,,,,,,,,,,13.011299599998893,0.011299599998892518,1,43.127747999998974,43.127747999998974,43.127747999998974,43.127747999998974,43.127747999998974,43.127747999998974,43.127747999998974,43.84510129999762,43.127747999998974,43.127747999998974,0.44733500000074855,009,P015,2025_Feb_28_1901,ConditionRich,2021.2.3,59.927643363586846,
13.75,14.0,41,0.0,Stimuli/Blank.png,0,0,0.0,0,20,20,20,,,,,,,,,,,,,13.77885420000166,0.0288542000016605,None,43.87841320000007,43.87841320000007,43.87841320000007,43.87841320000007,43.87841320000007,43.87841320000007,43.87841320000007,43.87841320000007,43.87841320000007,43.87841320000007,,009,P015,2025_Feb_28_1901,ConditionRich,2021.2.3,59.927643363586846,
14.0,14.75,1,0.75,Stimuli/P015/sun_aacpzgqrortyhyss.jpg,0,0,0.0,0,21,21,21,,,,,,,,,,,,,14.013465899999574,0.013465899999573594,None,44.128633999996964,44.128633999996964,44.128633999996964,44.128633999996964,44.128633999996964,44.128633999996964,44.128633999996964,44.128633999996964,44.128633999996964,44.128633999996964,,009,P015,2025_Feb_28_1901,ConditionRich,2021.2.3,59.927643363586846,
14.75,15.0,41,0.0,Stimuli/Blank.png,0,0,0.0,0,22,22,22,,,,,,,,,,,,,14.779661000000488,0.029661000000487547,None,44.87926519999746,44.87926519999746,44.87926519999746,44.87926519999746,44.87926519999746,44.87926519999746,44.87926519999746,44.87926519999746,44.87926519999746,44.87926519999746,,009,P015,2025_Feb_28_1901,ConditionRich,2021.2.3,59.927643363586846,
15.0,15.75,1,0.75,Stimuli/P015/sun_aacpzgqrortyhyss.jpg,0,0,0.0,0,23,23,23,,,,,,,,,,,,,15.01353509999899,0.013535099998989608,None,45.112847899999906,45.112847899999906,45.112847899999906,45.112847899999906,45.112847899999906,45.112847899999906,45.112847899999906,45.112847899999906,45.112847899999906,45.112847899999906,,009,P015,2025_Feb_28_1901,ConditionRich,2021.2.3,59.927643363586846,
15.75,16.0,41,0.0,Stimuli/Blank.png,0,0,0.0,0,24,24,24,,,,,,,,,,,,,15.764781800000492,0.014781800000491785,None,45.86429419999695,45.86429419999695,45.86429419999695,45.86429419999695,45.86429419999695,45.86429419999695,45.86429419999695,45.86429419999695,45.86429419999695,45.86429419999695,,009,P015,2025_Feb_28_1901,ConditionRich,2021.2.3,59.927643363586846,
16.0,16.75,20,0.75,Stimuli/P015/sun_bzmxulijbnmshodq.jpg,1,0,0.75,0,25,25,25,,,,,,,,,,,,,16.01468400000158,0.014684000001579989,1,46.11378949999926,46.11378949999926,46.11378949999926,46.11378949999926,46.11378949999926,46.11378949999926,46.11378949999926,46.84770449999996,46.11378949999926,46.11378949999926,0.4253558999989764,009,P015,2025_Feb_28_1901,ConditionRich,2021.2.3,59.927643363586846,
16.75,17.0,41,0.0,Stimuli/Blank.png,0,0,0.0,0,26,26,26,,,,,,,,,,,,,16.765346500000305,0.015346500000305241,None,46.86437819999992,46.86437819999992,46.86437819999992,46.86437819999992,46.86437819999992,46.86437819999992,46.86437819999992,46.86437819999992,46.86437819999992,46.86437819999992,,009,P015,2025_Feb_28_1901,ConditionRich,2021.2.3,59.927643363586846,
17.0,17.75,20,0.75,Stimuli/P015/sun_bzmxulijbnmshodq.jpg,0,0,0.0,0,27,27,27,,,,,,,,,,,,,17.015448900001502,0.015448900001501897,None,47.11459560000003,47.11459560000003,47.11459560000003,47.11459560000003,47.11459560000003,47.11459560000003,47.11459560000003,47.11459560000003,47.11459560000003,47.11459560000003,,009,P015,2025_Feb_28_1901,ConditionRich,2021.2.3,59.927643363586846,
17.75,18.0,41,0.0,Stimuli/Blank.png,0,0,0.0,0,28,28,28,,,,,,,,,,,,,17.749375899998995,-0.0006241000010049902,None,47.84858289999829,47.84858289999829,47.84858289999829,47.84858289999829,47.84858289999829,47.84858289999829,47.84858289999829,47.84858289999829,47.84858289999829,47.84858289999829,,009,P015,2025_Feb_28_1901,ConditionRich,2021.2.3,59.927643363586846,
18.0,18.75,20,0.75,Stimuli/P015/sun_bzmxulijbnmshodq.jpg,0,0,0.0,0,29,29,29,,,,,,,,,,,,,17.999099799999385,-0.0009002000006148592,None,48.09880329999942,48.09880329999942,48.09880329999942,48.09880329999942,48.09880329999942,48.09880329999942,48.09880329999942,48.09880329999942,48.09880329999942,48.09880329999942,,009,P015,2025_Feb_28_1901,ConditionRich,2021.2.3,59.927643363586846,
18.75,19.0,41,0.0,Stimuli/Blank.png,0,0,0.0,0,30,30,30,,,,,,,,,,,,,18.749700000000303,-0.00029999999969732016,None,48.849470699999074,48.849470699999074,48.849470699999074,48.849470699999074,48.849470699999074,48.849470699999074,48.849470699999074,48.849470699999074,48.849470699999074,48.849470699999074,,009,P015,2025_Feb_28_1901,ConditionRich,2021.2.3,59.927643363586846,
19.0,19.75,20,0.75,Stimuli/P015/sun_bzmxulijbnmshodq.jpg,0,0,0.0,0,31,31,31,,,,,,,,,,,,,18.999944200000755,-5.579999924520962e-05,None,49.09968679999656,49.09968679999656,49.09968679999656,49.09968679999656,49.09968679999656,49.09968679999656,49.09968679999656,49.09968679999656,49.09968679999656,49.09968679999656,,009,P015,2025_Feb_28_1901,ConditionRich,2021.2.3,59.927643363586846,
19.75,20.0,41,0.0,Stimuli/Blank.png,0,0,0.0,0,32,32,32,,,,,,,,,,,,,19.752605599998788,0.002605599998787511,None,49.8670527999966,49.8670527999966,49.8670527999966,49.8670527999966,49.8670527999966,49.8670527999966,49.8670527999966,49.8670527999966,49.8670527999966,49.8670527999966,,009,P015,2025_Feb_28_1901,ConditionRich,2021.2.3,59.927643363586846,
20.0,20.75,12,0.75,Stimuli/P015/sun_boffixsnbbloarty.jpg,0,0,0.0,0,33,33,33,,,,,,,,,,,,,20.018692900001042,0.01869290000104229,None,50.11725319999823,50.11725319999823,50.11725319999823,50.11725319999823,50.11725319999823,50.11725319999823,50.11725319999823,50.11725319999823,50.11725319999823,50.11725319999823,,009,P015,2025_Feb_28_1901,ConditionRich,2021.2.3,59.927643363586846,
20.75,21.0,41,0.0,Stimuli/Blank.png,0,0,0.0,0,34,34,34,,,,,,,,,,,,,20.753361600000062,0.003361600000062026,None,50.867933300000004,50.867933300000004,50.867933300000004,50.867933300000004,50.867933300000004,50.867933300000004,50.867933300000004,50.867933300000004,50.867933300000004,50.867933300000004,,009,P015,2025_Feb_28_1901,ConditionRich,2021.2.3,59.927643363586846,
21.0,21.75,12,0.75,Stimuli/P015/sun_boffixsnbbloarty.jpg,0,0,0.0,0,35,35,35,,,,,,,,,,,,,21.019058300000324,0.01905830000032438,None,51.134841699997196,51.134841699997196,51.134841699997196,51.134841699997196,51.134841699997196,51.134841699997196,51.134841699997196,51.134841699997196,51.134841699997196,51.134841699997196,,009,P015,2025_Feb_28_1901,ConditionRich,2021.2.3,59.927643363586846,
21.75,22.0,41,0.0,Stimuli/Blank.png,0,0,0.0,0,36,36,36,,,,,,,,,,,,,21.771300500000507,0.021300500000506872,None,51.885508199997275,51.885508199997275,51.885508199997275,51.885508199997275,51.885508199997275,51.885508199997275,51.885508199997275,51.885508199997275,51.885508199997275,51.885508199997275,,009,P015,2025_Feb_28_1901,ConditionRich,2021.2.3,59.927643363586846,
22.0,22.75,12,0.75,Stimuli/P015/sun_boffixsnbbloarty.jpg,0,0,0.0,0,37,37,37,,,,,,,,,,,,,22.019252099998994,0.0192520999989938,None,52.11902679999912,52.11902679999912,52.11902679999912,52.11902679999912,52.11902679999912,52.11902679999912,52.11902679999912,52.11902679999912,52.11902679999912,52.11902679999912,,009,P015,2025_Feb_28_1901,ConditionRich,2021.2.3,59.927643363586846,
22.75,23.0,41,0.0,Stimuli/Blank.png,0,0,0.0,0,38,38,38,,,,,,,,,,,,,22.754046300000482,0.004046300000482006,None,52.85300649999772,52.85300649999772,52.85300649999772,52.85300649999772,52.85300649999772,52.85300649999772,52.85300649999772,52.85300649999772,52.85300649999772,52.85300649999772,,009,P015,2025_Feb_28_1901,ConditionRich,2021.2.3,59.927643363586846,
23.0,23.75,12,0.75,Stimuli/P015/sun_boffixsnbbloarty.jpg,0,0,0.0,0,39,39,39,,,,,,,,,,,,,23.004444999998668,0.004444999998668209,None,53.11992299999838,53.11992299999838,53.11992299999838,53.11992299999838,53.11992299999838,53.11992299999838,53.11992299999838,53.11992299999838,53.11992299999838,53.11992299999838,,009,P015,2025_Feb_28_1901,ConditionRich,2021.2.3,59.927643363586846,
23.75,24.0,41,0.0,Stimuli/Blank.png,0,0,0.0,0,40,40,40,,,,,,,,,,,,,23.770855499999016,0.020855499999015592,None,53.870576999997866,53.870576999997866,53.870576999997866,53.870576999997866,53.870576999997866,53.870576999997866,53.870576999997866,53.870576999997866,53.870576999997866,53.870576999997866,,009,P015,2025_Feb_28_1901,ConditionRich,2021.2.3,59.927643363586846,
24.0,24.75,29,0.75,Stimuli/P015/things_mouse1_08s.jpg,0,0,0.0,0,41,41,41,,,,,,,,,,,,,24.00505410000187,0.00505410000187112,None,54.10411369999929,54.10411369999929,54.10411369999929,54.10411369999929,54.10411369999929,54.10411369999929,54.10411369999929,54.10411369999929,54.10411369999929,54.10411369999929,,009,P015,2025_Feb_28_1901,ConditionRich,2021.2.3,59.927643363586846,
24.75,25.0,41,0.0,Stimuli/Blank.png,0,0,0.0,0,42,42,42,,,,,,,,,,,,,24.75554430000193,0.005544300001929514,None,54.85480499999903,54.85480499999903,54.85480499999903,54.85480499999903,54.85480499999903,54.85480499999903,54.85480499999903,54.85480499999903,54.85480499999903,54.85480499999903,,009,P015,2025_Feb_28_1901,ConditionRich,2021.2.3,59.927643363586846,
25.0,25.75,29,0.75,Stimuli/P015/things_mouse1_08s.jpg,0,0,0.0,0,43,43,43,,,,,,,,,,,,,25.00604569999996,0.006045699999958742,None,55.10500069999762,55.10500069999762,55.10500069999762,55.10500069999762,55.10500069999762,55.10500069999762,55.10500069999762,55.10500069999762,55.10500069999762,55.10500069999762,,009,P015,2025_Feb_28_1901,ConditionRich,2021.2.3,59.927643363586846,
25.75,26.0,41,0.0,Stimuli/Blank.png,0,0,0.0,0,44,44,44,,,,,,,,,,,,,25.755862000001798,0.005862000001798151,None,55.8556768999988,55.8556768999988,55.8556768999988,55.8556768999988,55.8556768999988,55.8556768999988,55.8556768999988,55.8556768999988,55.8556768999988,55.8556768999988,,009,P015,2025_Feb_28_1901,ConditionRich,2021.2.3,59.927643363586846,
26.0,26.75,29,0.75,Stimuli/P015/things_mouse1_08s.jpg,0,0,0.0,0,45,45,45,,,,,,,,,,,,,26.0064644999984,0.006464499998401152,None,56.10589479999908,56.10589479999908,56.10589479999908,56.10589479999908,56.10589479999908,56.10589479999908,56.10589479999908,56.10589479999908,56.10589479999908,56.10589479999908,,009,P015,2025_Feb_28_1901,ConditionRich,2021.2.3,59.927643363586846,
26.75,27.0,41,0.0,Stimuli/Blank.png,0,0,0.0,0,46,46,46,,,,,,,,,,,,,26.756967699999223,0.006967699999222532,None,56.85664489999908,56.85664489999908,56.85664489999908,56.85664489999908,56.85664489999908,56.85664489999908,56.85664489999908,56.85664489999908,56.85664489999908,56.85664489999908,,009,P015,2025_Feb_28_1901,ConditionRich,2021.2.3,59.927643363586846,
27.0,27.75,29,0.75,Stimuli/P015/things_mouse1_08s.jpg,0,0,0.0,0,47,47,47,,,,,,,,,,,,,27.00680619999912,0.0068061999991186894,None,57.10677020000003,57.10677020000003,57.10677020000003,57.10677020000003,57.10677020000003,57.10677020000003,57.10677020000003,57.10677020000003,57.10677020000003,57.10677020000003,,009,P015,2025_Feb_28_1901,ConditionRich,2021.2.3,59.927643363586846,
27.75,28.0,41,0.0,Stimuli/Blank.png,0,0,0.0,0,48,48,48,,,,,,,,,,,,,27.759071600001334,0.009071600001334446,None,57.85744049999994,57.85744049999994,57.85744049999994,57.85744049999994,57.85744049999994,57.85744049999994,57.85744049999994,57.85744049999994,57.85744049999994,57.85744049999994,,009,P015,2025_Feb_28_1901,ConditionRich,2021.2.3,59.927643363586846,
28.0,28.75,9,0.75,Stimuli/P015/sun_bbdgftzhpkaklkll.jpg,0,0,0.0,0,49,49,49,,,,,,,,,,,,,28.00785249999899,0.007852499998989515,None,58.10765529999844,58.10765529999844,58.10765529999844,58.10765529999844,58.10765529999844,58.10765529999844,58.10765529999844,58.10765529999844,58.10765529999844,58.10765529999844,,009,P015,2025_Feb_28_1901,ConditionRich,2021.2.3,59.927643363586846,
28.75,29.0,41,0.0,Stimuli/Blank.png,0,0,0.0,0,50,50,50,,,,,,,,,,,,,28.759211900000082,0.009211900000082096,None,58.85832119999759,58.85832119999759,58.85832119999759,58.85832119999759,58.85832119999759,58.85832119999759,58.85832119999759,58.85832119999759,58.85832119999759,58.85832119999759,,009,P015,2025_Feb_28_1901,ConditionRich,2021.2.3,59.927643363586846,
29.0,29.75,9,0.75,Stimuli/P015/sun_bbdgftzhpkaklkll.jpg,0,0,0.0,0,51,51,51,,,,,,,,,,,,,29.009228700000676,0.009228700000676326,None,59.10854560000007,59.10854560000007,59.10854560000007,59.10854560000007,59.10854560000007,59.10854560000007,59.10854560000007,59.10854560000007,59.10854560000007,59.10854560000007,,009,P015,2025_Feb_28_1901,ConditionRich,2021.2.3,59.927643363586846,
29.75,30.0,41,0.0,Stimuli/Blank.png,0,0,0.0,0,52,52,52,,,,,,,,,,,,,29.7618939999993,0.011893999999301741,None,59.87590949999867,59.87590949999867,59.87590949999867,59.87590949999867,59.87590949999867,59.87590949999867,59.87590949999867,59.87590949999867,59.87590949999867,59.87590949999867,,009,P015,2025_Feb_28_1901,ConditionRich,2021.2.3,59.927643363586846,
30.0,30.75,9,0.75,Stimuli/P015/sun_bbdgftzhpkaklkll.jpg,0,0,0.0,0,53,53,53,,,,,,,,,,,,,30.026881599998887,0.026881599998887395,None,60.126119099997595,60.126119099997595,60.126119099997595,60.126119099997595,60.126119099997595,60.126119099997595,60.126119099997595,60.126119099997595,60.126119099997595,60.126119099997595,,009,P015,2025_Feb_28_1901,ConditionRich,2021.2.3,59.927643363586846,
30.75,31.0,41,0.0,Stimuli/Blank.png,0,0,0.0,0,54,54,54,,,,,,,,,,,,,30.760968700000376,0.010968700000375975,None,60.86010399999941,60.86010399999941,60.86010399999941,60.86010399999941,60.86010399999941,60.86010399999941,60.86010399999941,60.86010399999941,60.86010399999941,60.86010399999941,,009,P015,2025_Feb_28_1901,ConditionRich,2021.2.3,59.927643363586846,
31.0,31.75,9,0.75,Stimuli/P015/sun_bbdgftzhpkaklkll.jpg,0,0,0.0,0,55,55,55,,,,,,,,,,,,,31.011087599999883,0.011087599999882514,None,61.1270345999983,61.1270345999983,61.1270345999983,61.1270345999983,61.1270345999983,61.1270345999983,61.1270345999983,61.1270345999983,61.1270345999983,61.1270345999983,,009,P015,2025_Feb_28_1901,ConditionRich,2021.2.3,59.927643363586846,
31.75,32.0,41,0.0,Stimuli/Blank.png,0,0,0.0,0,56,56,56,,,,,,,,,,,,,31.777733499999158,0.027733499999158084,None,61.87766649999685,61.87766649999685,61.87766649999685,61.87766649999685,61.87766649999685,61.87766649999685,61.87766649999685,61.87766649999685,61.87766649999685,61.87766649999685,,009,P015,2025_Feb_28_1901,ConditionRich,2021.2.3,59.927643363586846,
32.0,32.75,11,0.75,Stimuli/P015/sun_bnwmcjuinqbdsbho.jpg,0,0,0.0,0,57,57,57,,,,,,,,,,,,,32.01194179999948,0.011941799999476643,None,62.11120309999751,62.11120309999751,62.11120309999751,62.11120309999751,62.11120309999751,62.11120309999751,62.11120309999751,62.11120309999751,62.11120309999751,62.11120309999751,,009,P015,2025_Feb_28_1901,ConditionRich,2021.2.3,59.927643363586846,
32.75,33.0,41,0.0,Stimuli/Blank.png,0,0,0.0,0,58,58,58,,,,,,,,,,,,,32.76230030000079,0.012300300000788411,None,62.86187079999945,62.86187079999945,62.86187079999945,62.86187079999945,62.86187079999945,62.86187079999945,62.86187079999945,62.86187079999945,62.86187079999945,62.86187079999945,,009,P015,2025_Feb_28_1901,ConditionRich,2021.2.3,59.927643363586846,
33.0,33.75,11,0.75,Stimuli/P015/sun_bnwmcjuinqbdsbho.jpg,0,0,0.0,0,59,59,59,,,,,,,,,,,,,33.013096899998345,0.01309689999834518,None,63.1120966999988,63.1120966999988,63.1120966999988,63.1120966999988,63.1120966999988,63.1120966999988,63.1120966999988,63.1120966999988,63.1120966999988,63.1120966999988,,009,P015,2025_Feb_28_1901,ConditionRich,2021.2.3,59.927643363586846,
33.75,34.0,41,0.0,Stimuli/Blank.png,0,0,0.0,0,60,60,60,,,,,,,,,,,,,33.765032999999676,0.015032999999675667,None,63.8794444999985,63.8794444999985,63.8794444999985,63.8794444999985,63.8794444999985,63.8794444999985,63.8794444999985,63.8794444999985,63.8794444999985,63.8794444999985,,009,P015,2025_Feb_28_1901,ConditionRich,2021.2.3,59.927643363586846,
34.0,34.75,11,0.75,Stimuli/P015/sun_bnwmcjuinqbdsbho.jpg,0,0,0.0,0,61,61,61,,,,,,,,,,,,,34.03034010000192,0.03034010000192211,None,64.12971739999921,64.12971739999921,64.12971739999921,64.12971739999921,64.12971739999921,64.12971739999921,64.12971739999921,64.12971739999921,64.12971739999921,64.12971739999921,,009,P015,2025_Feb_28_1901,ConditionRich,2021.2.3,59.927643363586846,
34.75,35.0,41,0.0,Stimuli/Blank.png,0,0,0.0,0,62,62,62,,,,,,,,,,,,,34.76446299999952,0.014462999999523163,None,64.86364499999763,64.86364499999763,64.86364499999763,64.86364499999763,64.86364499999763,64.86364499999763,64.86364499999763,64.86364499999763,64.86364499999763,64.86364499999763,,009,P015,2025_Feb_28_1901,ConditionRich,2021.2.3,59.927643363586846,
35.0,35.75,11,0.75,Stimuli/P015/sun_bnwmcjuinqbdsbho.jpg,0,0,0.0,0,63,63,63,,,,,,,,,,,,,35.01607380000132,0.016073800001322525,None,65.13055269999677,65.13055269999677,65.13055269999677,65.13055269999677,65.13055269999677,65.13055269999677,65.13055269999677,65.13055269999677,65.13055269999677,65.13055269999677,,009,P015,2025_Feb_28_1901,ConditionRich,2021.2.3,59.927643363586846,
35.75,36.0,41,0.0,Stimuli/Blank.png,0,0,0.0,0,64,64,64,,,,,,,,,,,,,35.76552509999965,0.015525099999649683,None,65.8645824999985,65.8645824999985,65.8645824999985,65.8645824999985,65.8645824999985,65.8645824999985,65.8645824999985,65.8645824999985,65.8645824999985,65.8645824999985,,009,P015,2025_Feb_28_1901,ConditionRich,2021.2.3,59.927643363586846,
36.0,36.75,7,0.75,Stimuli/P015/sun_aqdfrmtvewaapuqs.jpg,0,0,0.0,0,65,65,65,,,,,,,,,,,,,36.00084229999993,0.0008422999999311287,None,66.11476019999827,66.11476019999827,66.11476019999827,66.11476019999827,66.11476019999827,66.11476019999827,66.11476019999827,66.11476019999827,66.11476019999827,66.11476019999827,,009,P015,2025_Feb_28_1901,ConditionRich,2021.2.3,59.927643363586846,
36.75,37.0,41,0.0,Stimuli/Blank.png,0,0,0.0,0,66,66,66,,,,,,,,,,,,,36.76621259999956,0.01621259999956237,None,66.86540129999776,66.86540129999776,66.86540129999776,66.86540129999776,66.86540129999776,66.86540129999776,66.86540129999776,66.86540129999776,66.86540129999776,66.86540129999776,,009,P015,2025_Feb_28_1901,ConditionRich,2021.2.3,59.927643363586846,
37.0,37.75,7,0.75,Stimuli/P015/sun_aqdfrmtvewaapuqs.jpg,0,0,0.0,0,67,67,67,,,,,,,,,,,,,37.000201099999686,0.00020109999968553893,None,67.11567609999838,67.11567609999838,67.11567609999838,67.11567609999838,67.11567609999838,67.11567609999838,67.11567609999838,67.11567609999838,67.11567609999838,67.11567609999838,,009,P015,2025_Feb_28_1901,ConditionRich,2021.2.3,59.927643363586846,
37.75,38.0,41,0.0,Stimuli/Blank.png,0,0,0.0,0,68,68,68,,,,,,,,,,,,,37.767038500001945,0.017038500001945067,None,67.8662934999993,67.8662934999993,67.8662934999993,67.8662934999993,67.8662934999993,67.8662934999993,67.8662934999993,67.8662934999993,67.8662934999993,67.8662934999993,,009,P015,2025_Feb_28_1901,ConditionRich,2021.2.3,59.927643363586846,
38.0,38.75,7,0.75,Stimuli/P015/sun_aqdfrmtvewaapuqs.jpg,0,0,0.0,0,69,69,69,,,,,,,,,,,,,38.00009080000018,9.080000018002465e-05,None,68.09982759999912,68.09982759999912,68.09982759999912,68.09982759999912,68.09982759999912,68.09982759999912,68.09982759999912,68.09982759999912,68.09982759999912,68.09982759999912,,009,P015,2025_Feb_28_1901,ConditionRich,2021.2.3,59.927643363586846,
38.75,39.0,41,0.0,Stimuli/Blank.png,0,0,0.0,0,70,70,70,,,,,,,,,,,,,38.75139299999864,0.001392999998643063,None,68.85050409999894,68.85050409999894,68.85050409999894,68.85050409999894,68.85050409999894,68.85050409999894,68.85050409999894,68.85050409999894,68.85050409999894,68.85050409999894,,009,P015,2025_Feb_28_1901,ConditionRich,2021.2.3,59.927643363586846,
39.0,39.75,7,0.75,Stimuli/P015/sun_aqdfrmtvewaapuqs.jpg,0,0,0.0,0,71,71,71,,,,,,,,,,,,,39.00147800000195,0.0014780000019527506,None,69.11743079999724,69.11743079999724,69.11743079999724,69.11743079999724,69.11743079999724,69.11743079999724,69.11743079999724,69.11743079999724,69.11743079999724,69.11743079999724,,009,P015,2025_Feb_28_1901,ConditionRich,2021.2.3,59.927643363586846,
39.75,40.0,41,0.0,Stimuli/Blank.png,0,0,0.0,0,72,72,72,,,,,,,,,,,,,39.76898799999981,0.01898799999980838,None,69.86808889999884,69.86808889999884,69.86808889999884,69.86808889999884,69.86808889999884,69.86808889999884,69.86808889999884,69.86808889999884,69.86808889999884,69.86808889999884,,009,P015,2025_Feb_28_1901,ConditionRich,2021.2.3,59.927643363586846,
40.0,40.75,25,0.75,Stimuli/P015/things_deer_08s.jpg,0,0,0.0,0,73,73,73,,,,,,,,,,,,,40.00188210000124,0.0018821000012394506,None,70.10160729999916,70.10160729999916,70.10160729999916,70.10160729999916,70.10160729999916,70.10160729999916,70.10160729999916,70.10160729999916,70.10160729999916,70.10160729999916,,009,P015,2025_Feb_28_1901,ConditionRich,2021.2.3,59.927643363586846,
40.75,41.0,41,0.0,Stimuli/Blank.png,0,0,0.0,0,74,74,74,,,,,,,,,,,,,40.75300680000146,0.003006800001458032,None,70.85227289999966,70.85227289999966,70.85227289999966,70.85227289999966,70.85227289999966,70.85227289999966,70.85227289999966,70.85227289999966,70.85227289999966,70.85227289999966,,009,P015,2025_Feb_28_1901,ConditionRich,2021.2.3,59.927643363586846,
41.0,41.75,25,0.75,Stimuli/P015/things_deer_08s.jpg,0,0,0.0,0,75,75,75,,,,,,,,,,,,,41.00329950000014,0.0032995000001392327,None,71.11918419999711,71.11918419999711,71.11918419999711,71.11918419999711,71.11918419999711,71.11918419999711,71.11918419999711,71.11918419999711,71.11918419999711,71.11918419999711,,009,P015,2025_Feb_28_1901,ConditionRich,2021.2.3,59.927643363586846,
41.75,42.0,41,0.0,Stimuli/Blank.png,0,0,0.0,0,76,76,76,,,,,,,,,,,,,41.7715844000013,0.02158440000130213,None,71.8698381999966,71.8698381999966,71.8698381999966,71.8698381999966,71.8698381999966,71.8698381999966,71.8698381999966,71.8698381999966,71.8698381999966,71.8698381999966,,009,P015,2025_Feb_28_1901,ConditionRich,2021.2.3,59.927643363586846,
42.0,42.75,25,0.75,Stimuli/P015/things_deer_08s.jpg,0,0,0.0,0,77,77,77,,,,,,,,,,,,,42.00386929999877,0.003869299998768838,None,72.10337219999928,72.10337219999928,72.10337219999928,72.10337219999928,72.10337219999928,72.10337219999928,72.10337219999928,72.10337219999928,72.10337219999928,72.10337219999928,,009,P015,2025_Feb_28_1901,ConditionRich,2021.2.3,59.927643363586846,
42.75,43.0,41,0.0,Stimuli/Blank.png,0,0,0.0,0,78,78,78,,,,,,,,,,,,,42.75620540000091,0.006205400000908412,None,72.87073789999704,72.87073789999704,72.87073789999704,72.87073789999704,72.87073789999704,72.87073789999704,72.87073789999704,72.87073789999704,72.87073789999704,72.87073789999704,,009,P015,2025_Feb_28_1901,ConditionRich,2021.2.3,59.927643363586846,
43.0,43.75,25,0.75,Stimuli/P015/things_deer_08s.jpg,0,0,0.0,0,79,79,79,,,,,,,,,,,,,43.02099420000013,0.02099420000013197,None,73.12094259999867,73.12094259999867,73.12094259999867,73.12094259999867,73.12094259999867,73.12094259999867,73.12094259999867,73.12094259999867,73.12094259999867,73.12094259999867,,009,P015,2025_Feb_28_1901,ConditionRich,2021.2.3,59.927643363586846,
43.75,44.0,41,0.0,Stimuli/Blank.png,0,0,0.0,0,80,80,80,,,,,,,,,,,,,43.75570710000102,0.0057071000010182615,None,73.85493839999981,73.85493839999981,73.85493839999981,73.85493839999981,73.85493839999981,73.85493839999981,73.85493839999981,73.85493839999981,73.85493839999981,73.85493839999981,,009,P015,2025_Feb_28_1901,ConditionRich,2021.2.3,59.927643363586846,
44.0,44.75,23,0.75,Stimuli/P015/things_boy_08s.jpg,1,0,0.75,0,81,81,81,,,,,,,,,,,,,44.005862300000445,0.00586230000044452,1,74.10515329999907,74.10515329999907,74.10515329999907,74.10515329999907,74.10515329999907,74.10515329999907,74.10515329999907,74.8391277999981,74.10515329999907,74.10515329999907,0.46510059999855,009,P015,2025_Feb_28_1901,ConditionRich,2021.2.3,59.927643363586846,
44.75,45.0,41,0.0,Stimuli/Blank.png,0,0,0.0,0,82,82,82,,,,,,,,,,,,,44.75679080000191,0.006790800001908792,None,74.85580669999763,74.85580669999763,74.85580669999763,74.85580669999763,74.85580669999763,74.85580669999763,74.85580669999763,74.85580669999763,74.85580669999763,74.85580669999763,,009,P015,2025_Feb_28_1901,ConditionRich,2021.2.3,59.927643363586846,
45.0,45.75,23,0.75,Stimuli/P015/things_boy_08s.jpg,0,0,0.0,0,83,83,83,,,,,,,,,,,,,45.00636989999839,0.006369899998389883,None,75.10603339999943,75.10603339999943,75.10603339999943,75.10603339999943,75.10603339999943,75.10603339999943,75.10603339999943,75.10603339999943,75.10603339999943,75.10603339999943,,009,P015,2025_Feb_28_1901,ConditionRich,2021.2.3,59.927643363586846,
45.75,46.0,41,0.0,Stimuli/Blank.png,0,0,0.0,0,84,84,84,,,,,,,,,,,,,45.75691350000125,0.006913500001246575,None,75.85669399999824,75.85669399999824,75.85669399999824,75.85669399999824,75.85669399999824,75.85669399999824,75.85669399999824,75.85669399999824,75.85669399999824,75.85669399999824,,009,P015,2025_Feb_28_1901,ConditionRich,2021.2.3,59.927643363586846,
46.0,46.75,23,0.75,Stimuli/P015/things_boy_08s.jpg,0,0,0.0,0,85,85,85,,,,,,,,,,,,,46.007145200001105,0.007145200001104968,None,76.12361559999772,76.12361559999772,76.12361559999772,76.12361559999772,76.12361559999772,76.12361559999772,76.12361559999772,76.12361559999772,76.12361559999772,76.12361559999772,,009,P015,2025_Feb_28_1901,ConditionRich,2021.2.3,59.927643363586846,
46.75,47.0,41,0.0,Stimuli/Blank.png,0,0,0.0,0,86,86,86,,,,,,,,,,,,,46.775080100000196,0.02508010000019567,None,76.87428119999822,76.87428119999822,76.87428119999822,76.87428119999822,76.87428119999822,76.87428119999822,76.87428119999822,76.87428119999822,76.87428119999822,76.87428119999822,,009,P015,2025_Feb_28_1901,ConditionRich,2021.2.3,59.927643363586846,
47.0,47.75,23,0.75,Stimuli/P015/things_boy_08s.jpg,0,0,0.0,0,87,87,87,,,,,,,,,,,,,47.0087237000007,0.008723700000700774,None,77.10781359999964,77.10781359999964,77.10781359999964,77.10781359999964,77.10781359999964,77.10781359999964,77.10781359999964,77.10781359999964,77.10781359999964,77.10781359999964,,009,P015,2025_Feb_28_1901,ConditionRich,2021.2.3,59.927643363586846,
47.75,48.0,41,0.0,Stimuli/Blank.png,0,0,0.0,0,88,88,88,,,,,,,,,,,,,47.759218899998814,0.009218899998813868,None,77.85847549999744,77.85847549999744,77.85847549999744,77.85847549999744,77.85847549999744,77.85847549999744,77.85847549999744,77.85847549999744,77.85847549999744,77.85847549999744,,009,P015,2025_Feb_28_1901,ConditionRich,2021.2.3,59.927643363586846,
48.0,48.75,36,0.75,Stimuli/P015/things_streetlight_08s.jpg,1,0,0.75,0,89,89,89,,,,,,,,,,,,,48.00893730000098,0.00893730000098003,1,78.10868919999848,78.10868919999848,78.10868919999848,78.10868919999848,78.10868919999848,78.10868919999848,78.10868919999848,78.84273380000013,78.10868919999848,78.10868919999848,0.4266518000003998,009,P015,2025_Feb_28_1901,ConditionRich,2021.2.3,59.927643363586846,
48.75,49.0,41,0.0,Stimuli/Blank.png,0,0,0.0,0,90,90,90,,,,,,,,,,,,,48.761828499998956,0.011828499998955522,None,78.87604599999759,78.87604599999759,78.87604599999759,78.87604599999759,78.87604599999759,78.87604599999759,78.87604599999759,78.87604599999759,78.87604599999759,78.87604599999759,,009,P015,2025_Feb_28_1901,ConditionRich,2021.2.3,59.927643363586846,
49.0,49.75,36,0.75,Stimuli/P015/things_streetlight_08s.jpg,0,0,0.0,0,91,91,91,,,,,,,,,,,,,49.02758249999897,0.02758249999897089,None,79.142972499998,79.142972499998,79.142972499998,79.142972499998,79.142972499998,79.142972499998,79.142972499998,79.142972499998,79.142972499998,79.142972499998,,009,P015,2025_Feb_28_1901,ConditionRich,2021.2.3,59.927643363586846,
49.75,50.0,41,0.0,Stimuli/Blank.png,0,0,0.0,0,92,92,92,,,,,,,,,,,,,49.77713439999934,0.02713439999934053,None,79.87692389999938,79.87692389999938,79.87692389999938,79.87692389999938,79.87692389999938,79.87692389999938,79.87692389999938,79.87692389999938,79.87692389999938,79.87692389999938,,009,P015,2025_Feb_28_1901,ConditionRich,2021.2.3,59.927643363586846,
50.0,50.75,36,0.75,Stimuli/P015/things_streetlight_08s.jpg,0,0,0.0,0,93,93,93,,,,,,,,,,,,,50.01113840000107,0.011138400001073023,None,80.11046619999979,80.11046619999979,80.11046619999979,80.11046619999979,80.11046619999979,80.11046619999979,80.11046619999979,80.11046619999979,80.11046619999979,80.11046619999979,,009,P015,2025_Feb_28_1901,ConditionRich,2021.2.3,59.927643363586846,
50.75,51.0,41,0.0,Stimuli/Blank.png,0,0,0.0,0,94,94,94,,,,,,,,,,,,,50.762481599998864,0.012481599998864112,None,80.8611385999975,80.8611385999975,80.8611385999975,80.8611385999975,80.8611385999975,80.8611385999975,80.8611385999975,80.8611385999975,80.8611385999975,80.8611385999975,,009,P015,2025_Feb_28_1901,ConditionRich,2021.2.3,59.927643363586846,
51.0,51.75,36,0.75,Stimuli/P015/things_streetlight_08s.jpg,0,0,0.0,0,95,95,95,,,,,,,,,,,,,51.01269139999931,0.012691399999312125,None,81.12800549999884,81.12800549999884,81.12800549999884,81.12800549999884,81.12800549999884,81.12800549999884,81.12800549999884,81.12800549999884,81.12800549999884,81.12800549999884,,009,P015,2025_Feb_28_1901,ConditionRich,2021.2.3,59.927643363586846,
51.75,52.0,41,0.0,Stimuli/Blank.png,0,0,0.0,0,96,96,96,,,,,,,,,,,,,51.7801561999986,0.03015619999860064,None,81.8787190999974,81.8787190999974,81.8787190999974,81.8787190999974,81.8787190999974,81.8787190999974,81.8787190999974,81.8787190999974,81.8787190999974,81.8787190999974,,009,P015,2025_Feb_28_1901,ConditionRich,2021.2.3,59.927643363586846,
52.0,52.75,38,0.75,Stimuli/P015/things_trumpet_08s.jpg,0,0,0.0,0,97,97,97,,,,,,,,,,,,,52.01319819999844,0.01319819999844185,None,82.1127446999999,82.1127446999999,82.1127446999999,82.1127446999999,82.1127446999999,82.1127446999999,82.1127446999999,82.1127446999999,82.1127446999999,82.1127446999999,,009,P015,2025_Feb_28_1901,ConditionRich,2021.2.3,59.927643363586846,
52.75,53.0,41,0.0,Stimuli/Blank.png,0,0,0.0,0,98,98,98,,,,,,,,,,,,,52.762971899999684,0.012971899999683956,None,82.86289239999678,82.86289239999678,82.86289239999678,82.86289239999678,82.86289239999678,82.86289239999678,82.86289239999678,82.86289239999678,82.86289239999678,82.86289239999678,,009,P015,2025_Feb_28_1901,ConditionRich,2021.2.3,59.927643363586846,
53.0,53.75,38,0.75,Stimuli/P015/things_trumpet_08s.jpg,0,0,0.0,0,99,99,99,,,,,,,,,,,,,53.01377760000105,0.013777600001048995,None,83.11312879999969,83.11312879999969,83.11312879999969,83.11312879999969,83.11312879999969,83.11312879999969,83.11312879999969,83.11312879999969,83.11312879999969,83.11312879999969,,009,P015,2025_Feb_28_1901,ConditionRich,2021.2.3,59.927643363586846,
53.75,54.0,41,0.0,Stimuli/Blank.png,0,0,0.0,0,100,100,100,,,,,,,,,,,,,53.76402049999888,0.014020499998878222,None,83.86377859999993,83.86377859999993,83.86377859999993,83.86377859999993,83.86377859999993,83.86377859999993,83.86377859999993,83.86377859999993,83.86377859999993,83.86377859999993,,009,P015,2025_Feb_28_1901,ConditionRich,2021.2.3,59.927643363586846,
54.0,54.75,38,0.75,Stimuli/P015/things_trumpet_08s.jpg,0,0,0.0,0,101,101,101,,,,,,,,,,,,,54.01498039999933,0.014980399999330984,None,84.1140009999981,84.1140009999981,84.1140009999981,84.1140009999981,84.1140009999981,84.1140009999981,84.1140009999981,84.1140009999981,84.1140009999981,84.1140009999981,,009,P015,2025_Feb_28_1901,ConditionRich,2021.2.3,59.927643363586846,
54.75,55.0,41,0.0,Stimuli/Blank.png,0,0,0.0,0,102,102,102,,,,,,,,,,,,,54.766934300001594,0.016934300001594238,None,84.88135869999678,84.88135869999678,84.88135869999678,84.88135869999678,84.88135869999678,84.88135869999678,84.88135869999678,84.88135869999678,84.88135869999678,84.88135869999678,,009,P015,2025_Feb_28_1901,ConditionRich,2021.2.3,59.927643363586846,
55.0,55.75,38,0.75,Stimuli/P015/things_trumpet_08s.jpg,0,0,0.0,0,103,103,103,,,,,,,,,,,,,55.01707829999941,0.017078299999411684,None,85.13158089999706,85.13158089999706,85.13158089999706,85.13158089999706,85.13158089999706,85.13158089999706,85.13158089999706,85.13158089999706,85.13158089999706,85.13158089999706,,009,P015,2025_Feb_28_1901,ConditionRich,2021.2.3,59.927643363586846,
55.75,56.0,41,0.0,Stimuli/Blank.png,0,0,0.0,0,104,104,104,,,,,,,,,,,,,55.76851629999874,0.01851629999873694,None,85.88225639999655,85.88225639999655,85.88225639999655,85.88225639999655,85.88225639999655,85.88225639999655,85.88225639999655,85.88225639999655,85.88225639999655,85.88225639999655,,009,P015,2025_Feb_28_1901,ConditionRich,2021.2.3,59.927643363586846,
56.0,56.75,40,0.75,Stimuli/P015/things_woman_08s.jpg,0,0,0.0,0,105,105,105,,,,,,,,,,,,,56.01639449999857,0.01639449999856879,None,86.11577029999899,86.11577029999899,86.11577029999899,86.11577029999899,86.11577029999899,86.11577029999899,86.11577029999899,86.11577029999899,86.11577029999899,86.11577029999899,,009,P015,2025_Feb_28_1901,ConditionRich,2021.2.3,59.927643363586846,
56.75,57.0,41,0.0,Stimuli/Blank.png,0,0,0.0,0,106,106,106,,,,,,,,,,,,,56.74981610000032,-0.00018389999968349002,None,86.84975359999953,86.84975359999953,86.84975359999953,86.84975359999953,86.84975359999953,86.84975359999953,86.84975359999953,86.84975359999953,86.84975359999953,86.84975359999953,,009,P015,2025_Feb_28_1901,ConditionRich,2021.2.3,59.927643363586846,
57.0,57.75,40,0.75,Stimuli/P015/things_woman_08s.jpg,0,0,0.0,0,107,107,107,,,,,,,,,,,,,57.00099689999843,0.0009968999984266702,None,87.1166634000001,87.1166634000001,87.1166634000001,87.1166634000001,87.1166634000001,87.1166634000001,87.1166634000001,87.1166634000001,87.1166634000001,87.1166634000001,,009,P015,2025_Feb_28_1901,ConditionRich,2021.2.3,59.927643363586846,
57.75,58.0,41,0.0,Stimuli/Blank.png,0,0,0.0,0,108,108,108,,,,,,,,,,,,,57.76808810000148,0.01808810000147787,None,87.86732229999689,87.86732229999689,87.86732229999689,87.86732229999689,87.86732229999689,87.86732229999689,87.86732229999689,87.86732229999689,87.86732229999689,87.86732229999689,,009,P015,2025_Feb_28_1901,ConditionRich,2021.2.3,59.927643363586846,
58.0,58.75,40,0.75,Stimuli/P015/things_woman_08s.jpg,0,0,0.0,0,109,109,109,,,,,,,,,,,,,58.00303189999977,0.003031899999768939,None,88.11755229999835,88.11755229999835,88.11755229999835,88.11755229999835,88.11755229999835,88.11755229999835,88.11755229999835,88.11755229999835,88.11755229999835,88.11755229999835,,009,P015,2025_Feb_28_1901,ConditionRich,2021.2.3,59.927643363586846,
58.75,59.0,41,0.0,Stimuli/Blank.png,0,0,0.0,0,110,110,110,,,,,,,,,,,,,58.76921230000153,0.019212300001527183,None,88.8682106999986,88.8682106999986,88.8682106999986,88.8682106999986,88.8682106999986,88.8682106999986,88.8682106999986,88.8682106999986,88.8682106999986,88.8682106999986,,009,P015,2025_Feb_28_1901,ConditionRich,2021.2.3,59.927643363586846,
59.0,59.75,40,0.75,Stimuli/P015/things_woman_08s.jpg,0,0,0.0,0,111,111,111,,,,,,,,,,,,,59.00255919999836,0.002559199998358963,None,89.10175609999715,89.10175609999715,89.10175609999715,89.10175609999715,89.10175609999715,89.10175609999715,89.10175609999715,89.10175609999715,89.10175609999715,89.10175609999715,,009,P015,2025_Feb_28_1901,ConditionRich,2021.2.3,59.927643363586846,
59.75,60.0,41,0.0,Stimuli/Blank.png,0,0,0.0,0,112,112,112,,,,,,,,,,,,,59.75368620000154,0.003686200001538964,None,89.85242519999883,89.85242519999883,89.85242519999883,89.85242519999883,89.85242519999883,89.85242519999883,89.85242519999883,89.85242519999883,89.85242519999883,89.85242519999883,,009,P015,2025_Feb_28_1901,ConditionRich,2021.2.3,59.927643363586846,
60.0,60.75,2,0.75,Stimuli/P015/sun_agzfkftryitnqpxc.jpg,0,0,0.0,0,113,113,113,,,,,,,,,,,,,60.00391089999903,0.003910899999027606,None,90.11931779999941,90.11931779999941,90.11931779999941,90.11931779999941,90.11931779999941,90.11931779999941,90.11931779999941,90.11931779999941,90.11931779999941,90.11931779999941,,009,P015,2025_Feb_28_1901,ConditionRich,2021.2.3,59.927643363586846,
60.75,61.0,41,0.0,Stimuli/Blank.png,0,0,0.0,0,114,114,114,,,,,,,,,,,,,60.770878499999526,0.020878499999525957,None,90.86997849999898,90.86997849999898,90.86997849999898,90.86997849999898,90.86997849999898,90.86997849999898,90.86997849999898,90.86997849999898,90.86997849999898,90.86997849999898,,009,P015,2025_Feb_28_1901,ConditionRich,2021.2.3,59.927643363586846,
61.0,61.75,2,0.75,Stimuli/P015/sun_agzfkftryitnqpxc.jpg,0,0,0.0,0,115,115,115,,,,,,,,,,,,,61.004275499999494,0.004275499999494059,None,91.12023330000011,91.12023330000011,91.12023330000011,91.12023330000011,91.12023330000011,91.12023330000011,91.12023330000011,91.12023330000011,91.12023330000011,91.12023330000011,,009,P015,2025_Feb_28_1901,ConditionRich,2021.2.3,59.927643363586846,
61.75,62.0,41,0.0,Stimuli/Blank.png,0,0,0.0,0,116,116,116,,,,,,,,,,,,,61.77096829999937,0.020968299999367446,None,91.87087539999993,91.87087539999993,91.87087539999993,91.87087539999993,91.87087539999993,91.87087539999993,91.87087539999993,91.87087539999993,91.87087539999993,91.87087539999993,,009,P015,2025_Feb_28_1901,ConditionRich,2021.2.3,59.927643363586846,
62.0,62.75,2,0.75,Stimuli/P015/sun_agzfkftryitnqpxc.jpg,0,0,0.0,0,117,117,117,,,,,,,,,,,,,62.00523900000189,0.005239000001893146,None,92.10441219999848,92.10441219999848,92.10441219999848,92.10441219999848,92.10441219999848,92.10441219999848,92.10441219999848,92.10441219999848,92.10441219999848,92.10441219999848,,009,P015,2025_Feb_28_1901,ConditionRich,2021.2.3,59.927643363586846,
62.75,63.0,41,0.0,Stimuli/Blank.png,0,0,0.0,0,118,118,118,,,,,,,,,,,,,62.755298799998855,0.00529879999885452,None,92.85506989999703,92.85506989999703,92.85506989999703,92.85506989999703,92.85506989999703,92.85506989999703,92.85506989999703,92.85506989999703,92.85506989999703,92.85506989999703,,009,P015,2025_Feb_28_1901,ConditionRich,2021.2.3,59.927643363586846,
63.0,63.75,2,0.75,Stimuli/P015/sun_agzfkftryitnqpxc.jpg,0,0,0.0,0,119,119,119,,,,,,,,,,,,,63.00620880000133,0.006208800001331838,None,93.10529219999808,93.10529219999808,93.10529219999808,93.10529219999808,93.10529219999808,93.10529219999808,93.10529219999808,93.10529219999808,93.10529219999808,93.10529219999808,,009,P015,2025_Feb_28_1901,ConditionRich,2021.2.3,59.927643363586846,
63.75,64.0,41,0.0,Stimuli/Blank.png,0,0,0.0,0,120,120,120,,,,,,,,,,,,,63.75618549999854,0.006185499998537125,None,93.85593129999688,93.85593129999688,93.85593129999688,93.85593129999688,93.85593129999688,93.85593129999688,93.85593129999688,93.85593129999688,93.85593129999688,93.85593129999688,,009,P015,2025_Feb_28_1901,ConditionRich,2021.2.3,59.927643363586846,
64.0,64.75,13,0.75,Stimuli/P015/sun_bphvjnowixlryxot.jpg,0,0,0.0,0,121,121,121,,,,,,,,,,,,,64.00662839999859,0.0066283999985898845,None,94.1061781999997,94.1061781999997,94.1061781999997,94.1061781999997,94.1061781999997,94.1061781999997,94.1061781999997,94.1061781999997,94.1061781999997,94.1061781999997,,009,P015,2025_Feb_28_1901,ConditionRich,2021.2.3,59.927643363586846,
64.75,65.0,41,0.0,Stimuli/Blank.png,0,0,0.0,0,122,122,122,,,,,,,,,,,,,64.75779440000042,0.007794400000420865,None,94.85685639999792,94.85685639999792,94.85685639999792,94.85685639999792,94.85685639999792,94.85685639999792,94.85685639999792,94.85685639999792,94.85685639999792,94.85685639999792,,009,P015,2025_Feb_28_1901,ConditionRich,2021.2.3,59.927643363586846,
65.0,65.75,13,0.75,Stimuli/P015/sun_bphvjnowixlryxot.jpg,0,0,0.0,0,123,123,123,,,,,,,,,,,,,65.0097171999987,0.009717199998704018,None,95.12374999999884,95.12374999999884,95.12374999999884,95.12374999999884,95.12374999999884,95.12374999999884,95.12374999999884,95.12374999999884,95.12374999999884,95.12374999999884,,009,P015,2025_Feb_28_1901,ConditionRich,2021.2.3,59.927643363586846,
65.75,66.0,41,0.0,Stimuli/Blank.png,0,0,0.0,0,124,124,124,,,,,,,,,,,,,65.77547620000041,0.025476200000412064,None,95.89112789999854,95.89112789999854,95.89112789999854,95.89112789999854,95.89112789999854,95.89112789999854,95.89112789999854,95.89112789999854,95.89112789999854,95.89112789999854,,009,P015,2025_Feb_28_1901,ConditionRich,2021.2.3,59.927643363586846,
66.0,66.75,13,0.75,Stimuli/P015/sun_bphvjnowixlryxot.jpg,0,0,0.0,0,125,125,125,,,,,,,,,,,,,66.02474200000142,0.024742000001424458,None,96.12464089999776,96.12464089999776,96.12464089999776,96.12464089999776,96.12464089999776,96.12464089999776,96.12464089999776,96.12464089999776,96.12464089999776,96.12464089999776,,009,P015,2025_Feb_28_1901,ConditionRich,2021.2.3,59.927643363586846,
66.75,67.0,41,0.0,Stimuli/Blank.png,0,0,0.0,0,126,126,126,,,,,,,,,,,,,66.75908659999914,0.009086599999136524,None,96.8585912999988,96.8585912999988,96.8585912999988,96.8585912999988,96.8585912999988,96.8585912999988,96.8585912999988,96.8585912999988,96.8585912999988,96.8585912999988,,009,P015,2025_Feb_28_1901,ConditionRich,2021.2.3,59.927643363586846,
67.0,67.75,13,0.75,Stimuli/P015/sun_bphvjnowixlryxot.jpg,0,0,0.0,0,127,127,127,,,,,,,,,,,,,67.0105207000015,0.010520700001507066,None,97.1255566999971,97.1255566999971,97.1255566999971,97.1255566999971,97.1255566999971,97.1255566999971,97.1255566999971,97.1255566999971,97.1255566999971,97.1255566999971,,009,P015,2025_Feb_28_1901,ConditionRich,2021.2.3,59.927643363586846,
67.75,68.0,41,0.0,Stimuli/Blank.png,0,0,0.0,0,128,128,128,,,,,,,,,,,,,67.77643829999943,0.026438299999426818,None,97.87618059999659,97.87618059999659,97.87618059999659,97.87618059999659,97.87618059999659,97.87618059999659,97.87618059999659,97.87618059999659,97.87618059999659,97.87618059999659,,009,P015,2025_Feb_28_1901,ConditionRich,2021.2.3,59.927643363586846,
68.0,68.75,21,0.75,Stimuli/P015/things_arch_08s.jpg,0,0,0.0,0,129,129,129,,,,,,,,,,,,,68.01211129999865,0.012111299998650793,None,98.12637879999966,98.12637879999966,98.12637879999966,98.12637879999966,98.12637879999966,98.12637879999966,98.12637879999966,98.12637879999966,98.12637879999966,98.12637879999966,,009,P015,2025_Feb_28_1901,ConditionRich,2021.2.3,59.927643363586846,
68.75,69.0,41,0.0,Stimuli/Blank.png,0,0,0.0,0,130,130,130,,,,,,,,,,,,,68.77975000000151,0.0297500000015134,None,98.89377199999944,98.89377199999944,98.89377199999944,98.89377199999944,98.89377199999944,98.89377199999944,98.89377199999944,98.89377199999944,98.89377199999944,98.89377199999944,,009,P015,2025_Feb_28_1901,ConditionRich,2021.2.3,59.927643363586846,
69.0,69.75,21,0.75,Stimuli/P015/things_arch_08s.jpg,0,0,0.0,0,131,131,131,,,,,,,,,,,,,69.02745409999989,0.02745409999988624,None,99.14399479999702,99.14399479999702,99.14399479999702,99.14399479999702,99.14399479999702,99.14399479999702,99.14399479999702,99.14399479999702,99.14399479999702,99.14399479999702,,009,P015,2025_Feb_28_1901,ConditionRich,2021.2.3,59.927643363586846,
69.75,70.0,41,0.0,Stimuli/Blank.png,0,0,0.0,0,132,132,132,,,,,,,,,,,,,69.77865200000087,0.028652000000874978,None,99.87789939999857,99.87789939999857,99.87789939999857,99.87789939999857,99.87789939999857,99.87789939999857,99.87789939999857,99.87789939999857,99.87789939999857,99.87789939999857,,009,P015,2025_Feb_28_1901,ConditionRich,2021.2.3,59.927643363586846,
70.0,70.75,21,0.75,Stimuli/P015/things_arch_08s.jpg,0,0,0.0,0,133,133,133,,,,,,,,,,,,,70.01562470000135,0.01562470000135363,None,100.12818839999818,100.12818839999818,100.12818839999818,100.12818839999818,100.12818839999818,100.12818839999818,100.12818839999818,100.12818839999818,100.12818839999818,100.12818839999818,,009,P015,2025_Feb_28_1901,ConditionRich,2021.2.3,59.927643363586846,
70.75,71.0,41,0.0,Stimuli/Blank.png,0,0,0.0,0,134,134,134,,,,,,,,,,,,,70.76331669999854,0.013316699998540571,None,100.86217409999881,100.86217409999881,100.86217409999881,100.86217409999881,100.86217409999881,100.86217409999881,100.86217409999881,100.86217409999881,100.86217409999881,100.86217409999881,,009,P015,2025_Feb_28_1901,ConditionRich,2021.2.3,59.927643363586846,
71.0,71.75,21,0.75,Stimuli/P015/things_arch_08s.jpg,0,0,0.0,0,135,135,135,,,,,,,,,,,,,71.01317489999929,0.013174899999285117,None,101.11238819999926,101.11238819999926,101.11238819999926,101.11238819999926,101.11238819999926,101.11238819999926,101.11238819999926,101.11238819999926,101.11238819999926,101.11238819999926,,009,P015,2025_Feb_28_1901,ConditionRich,2021.2.3,59.927643363586846,
71.75,72.0,41,0.0,Stimuli/Blank.png,0,0,0.0,0,136,136,136,,,,,,,,,,,,,71.76312139999936,0.013121399999363348,None,101.86304109999764,101.86304109999764,101.86304109999764,101.86304109999764,101.86304109999764,101.86304109999764,101.86304109999764,101.86304109999764,101.86304109999764,101.86304109999764,,009,P015,2025_Feb_28_1901,ConditionRich,2021.2.3,59.927643363586846,
72.0,72.75,35,0.75,Stimuli/P015/things_squid_08s.jpg,0,0,0.0,0,137,137,137,,,,,,,,,,,,,72.01368809999985,0.013688099999853875,None,102.11325899999792,102.11325899999792,102.11325899999792,102.11325899999792,102.11325899999792,102.11325899999792,102.11325899999792,102.11325899999792,102.11325899999792,102.11325899999792,,009,P015,2025_Feb_28_1901,ConditionRich,2021.2.3,59.927643363586846,
72.75,73.0,41,0.0,Stimuli/Blank.png,0,0,0.0,0,138,138,138,,,,,,,,,,,,,72.76409689999855,0.014096899998548906,None,102.86393109999699,102.86393109999699,102.86393109999699,102.86393109999699,102.86393109999699,102.86393109999699,102.86393109999699,102.86393109999699,102.86393109999699,102.86393109999699,,009,P015,2025_Feb_28_1901,ConditionRich,2021.2.3,59.927643363586846,
73.0,73.75,35,0.75,Stimuli/P015/things_squid_08s.jpg,0,0,0.0,0,139,139,139,,,,,,,,,,,,,73.015009499999,0.015009499998996034,None,103.11415329999727,103.11415329999727,103.11415329999727,103.11415329999727,103.11415329999727,103.11415329999727,103.11415329999727,103.11415329999727,103.11415329999727,103.11415329999727,,009,P015,2025_Feb_28_1901,ConditionRich,2021.2.3,59.927643363586846,
73.75,74.0,41,0.0,Stimuli/Blank.png,0,0,0.0,0,140,140,140,,,,,,,,,,,,,73.76566060000187,0.015660600001865532,None,103.86482539999997,103.86482539999997,103.86482539999997,103.86482539999997,103.86482539999997,103.86482539999997,103.86482539999997,103.86482539999997,103.86482539999997,103.86482539999997,,009,P015,2025_Feb_28_1901,ConditionRich,2021.2.3,59.927643363586846,
74.0,74.75,35,0.75,Stimuli/P015/things_squid_08s.jpg,0,0,0.0,0,141,141,141,,,,,,,,,,,,,73.99870300000111,-0.0012969999988854397,None,104.09836319999886,104.09836319999886,104.09836319999886,104.09836319999886,104.09836319999886,104.09836319999886,104.09836319999886,104.09836319999886,104.09836319999886,104.09836319999886,,009,P015,2025_Feb_28_1901,ConditionRich,2021.2.3,59.927643363586846,
74.75,75.0,41,0.0,Stimuli/Blank.png,0,0,0.0,0,142,142,142,,,,,,,,,,,,,74.75120170000082,0.001201700000819983,None,104.84903849999682,104.84903849999682,104.84903849999682,104.84903849999682,104.84903849999682,104.84903849999682,104.84903849999682,104.84903849999682,104.84903849999682,104.84903849999682,,009,P015,2025_Feb_28_1901,ConditionRich,2021.2.3,59.927643363586846,
75.0,75.75,35,0.75,Stimuli/P015/things_squid_08s.jpg,0,0,0.0,0,143,143,143,,,,,,,,,,,,,74.99941440000111,-0.0005855999988853,None,105.09923960000015,105.09923960000015,105.09923960000015,105.09923960000015,105.09923960000015,105.09923960000015,105.09923960000015,105.09923960000015,105.09923960000015,105.09923960000015,,009,P015,2025_Feb_28_1901,ConditionRich,2021.2.3,59.927643363586846,
75.75,76.0,41,0.0,Stimuli/Blank.png,0,0,0.0,0,144,144,144,,,,,,,,,,,,,75.75013519999993,0.00013519999993150122,None,105.84990969999853,105.84990969999853,105.84990969999853,105.84990969999853,105.84990969999853,105.84990969999853,105.84990969999853,105.84990969999853,105.84990969999853,105.84990969999853,,009,P015,2025_Feb_28_1901,ConditionRich,2021.2.3,59.927643363586846,
76.0,76.75,37,0.75,Stimuli/P015/things_swizzle_stick_08s.jpg,0,0,0.0,0,145,145,145,,,,,,,,,,,,,76.00051119999989,0.0005111999998916872,None,106.10012579999966,106.10012579999966,106.10012579999966,106.10012579999966,106.10012579999966,106.10012579999966,106.10012579999966,106.10012579999966,106.10012579999966,106.10012579999966,,009,P015,2025_Feb_28_1901,ConditionRich,2021.2.3,59.927643363586846,
76.75,77.0,41,0.0,Stimuli/Blank.png,0,0,0.0,0,146,146,146,,,,,,,,,,,,,76.75126250000176,0.0012625000017578714,None,106.85078819999762,106.85078819999762,106.85078819999762,106.85078819999762,106.85078819999762,106.85078819999762,106.85078819999762,106.85078819999762,106.85078819999762,106.85078819999762,,009,P015,2025_Feb_28_1901,ConditionRich,2021.2.3,59.927643363586846,
77.0,77.75,37,0.75,Stimuli/P015/things_swizzle_stick_08s.jpg,0,0,0.0,0,147,147,147,,,,,,,,,,,,,77.00136270000075,0.0013627000007545575,None,107.10101529999883,107.10101529999883,107.10101529999883,107.10101529999883,107.10101529999883,107.10101529999883,107.10101529999883,107.10101529999883,107.10101529999883,107.10101529999883,,009,P015,2025_Feb_28_1901,ConditionRich,2021.2.3,59.927643363586846,
77.75,78.0,41,0.0,Stimuli/Blank.png,0,0,0.0,0,148,148,148,,,,,,,,,,,,,77.7554925000004,0.005492500000400469,None,107.86838889999854,107.86838889999854,107.86838889999854,107.86838889999854,107.86838889999854,107.86838889999854,107.86838889999854,107.86838889999854,107.86838889999854,107.86838889999854,,009,P015,2025_Feb_28_1901,ConditionRich,2021.2.3,59.927643363586846,
78.0,78.75,37,0.75,Stimuli/P015/things_swizzle_stick_08s.jpg,0,0,0.0,0,149,149,149,,,,,,,,,,,,,78.01995800000077,0.01995800000076997,None,108.1352681999997,108.1352681999997,108.1352681999997,108.1352681999997,108.1352681999997,108.1352681999997,108.1352681999997,108.1352681999997,108.1352681999997,108.1352681999997,,009,P015,2025_Feb_28_1901,ConditionRich,2021.2.3,59.927643363586846,
78.75,79.0,41,0.0,Stimuli/Blank.png,0,0,0.0,0,150,150,150,,,,,,,,,,,,,78.76999749999959,0.019997499999590218,None,108.86924429999999,108.86924429999999,108.86924429999999,108.86924429999999,108.86924429999999,108.86924429999999,108.86924429999999,108.86924429999999,108.86924429999999,108.86924429999999,,009,P015,2025_Feb_28_1901,ConditionRich,2021.2.3,59.927643363586846,
79.0,79.75,37,0.75,Stimuli/P015/things_swizzle_stick_08s.jpg,0,0,0.0,0,151,151,151,,,,,,,,,,,,,79.00366719999874,0.0036671999987447634,None,109.10278509999989,109.10278509999989,109.10278509999989,109.10278509999989,109.10278509999989,109.10278509999989,109.10278509999989,109.10278509999989,109.10278509999989,109.10278509999989,,009,P015,2025_Feb_28_1901,ConditionRich,2021.2.3,59.927643363586846,
79.75,80.0,41,0.0,Stimuli/Blank.png,0,0,0.0,0,152,152,152,,,,,,,,,,,,,79.7536583000001,0.0036583000000973698,None,109.85345739999684,109.85345739999684,109.85345739999684,109.85345739999684,109.85345739999684,109.85345739999684,109.85345739999684,109.85345739999684,109.85345739999684,109.85345739999684,,009,P015,2025_Feb_28_1901,ConditionRich,2021.2.3,59.927643363586846,
80.0,80.75,19,0.75,Stimuli/P015/sun_bzhwvgrzvttqoexa.jpg,0,0,0.0,0,153,153,153,,,,,,,,,,,,,80.00587509999968,0.005875099999684608,None,110.12039149999691,110.12039149999691,110.12039149999691,110.12039149999691,110.12039149999691,110.12039149999691,110.12039149999691,110.12039149999691,110.12039149999691,110.12039149999691,,009,P015,2025_Feb_28_1901,ConditionRich,2021.2.3,59.927643363586846,
80.75,81.0,41,0.0,Stimuli/Blank.png,0,0,0.0,0,154,154,154,,,,,,,,,,,,,80.77117100000032,0.021171000000322238,None,110.87102139999843,110.87102139999843,110.87102139999843,110.87102139999843,110.87102139999843,110.87102139999843,110.87102139999843,110.87102139999843,110.87102139999843,110.87102139999843,,009,P015,2025_Feb_28_1901,ConditionRich,2021.2.3,59.927643363586846,
81.0,81.75,19,0.75,Stimuli/P015/sun_bzhwvgrzvttqoexa.jpg,1,0,0.75,0,155,155,155,,,,,,,,,,,,,81.00541520000115,0.005415200001152698,1,111.12123579999752,111.12123579999752,111.12123579999752,111.12123579999752,111.12123579999752,111.12123579999752,111.12123579999752,111.83855839999887,111.12123579999752,111.12123579999752,0.48413069999878644,009,P015,2025_Feb_28_1901,ConditionRich,2021.2.3,59.927643363586846,
81.75,82.0,41,0.0,Stimuli/Blank.png,0,0,0.0,0,156,156,156,,,,,,,,,,,,,81.77218340000036,0.022183400000358233,None,111.87190179999743,111.87190179999743,111.87190179999743,111.87190179999743,111.87190179999743,111.87190179999743,111.87190179999743,111.87190179999743,111.87190179999743,111.87190179999743,,009,P015,2025_Feb_28_1901,ConditionRich,2021.2.3,59.927643363586846,
82.0,82.75,19,0.75,Stimuli/P015/sun_bzhwvgrzvttqoexa.jpg,0,0,0.0,0,157,157,157,,,,,,,,,,,,,82.00789870000153,0.007898700001533143,None,112.12212309999813,112.12212309999813,112.12212309999813,112.12212309999813,112.12212309999813,112.12212309999813,112.12212309999813,112.12212309999813,112.12212309999813,112.12212309999813,,009,P015,2025_Feb_28_1901,ConditionRich,2021.2.3,59.927643363586846,
82.75,83.0,41,0.0,Stimuli/Blank.png,0,0,0.0,0,158,158,158,,,,,,,,,,,,,82.77279410000119,0.02279410000119242,None,112.87278389999847,112.87278389999847,112.87278389999847,112.87278389999847,112.87278389999847,112.87278389999847,112.87278389999847,112.87278389999847,112.87278389999847,112.87278389999847,,009,P015,2025_Feb_28_1901,ConditionRich,2021.2.3,59.927643363586846,
83.0,83.75,19,0.75,Stimuli/P015/sun_bzhwvgrzvttqoexa.jpg,0,0,0.0,0,159,159,159,,,,,,,,,,,,,83.0077108000005,0.00771080000049551,None,113.12301029999799,113.12301029999799,113.12301029999799,113.12301029999799,113.12301029999799,113.12301029999799,113.12301029999799,113.12301029999799,113.12301029999799,113.12301029999799,,009,P015,2025_Feb_28_1901,ConditionRich,2021.2.3,59.927643363586846,
83.75,84.0,41,0.0,Stimuli/Blank.png,0,0,0.0,0,160,160,160,,,,,,,,,,,,,83.77394560000175,0.02394560000175261,None,113.87369939999917,113.87369939999917,113.87369939999917,113.87369939999917,113.87369939999917,113.87369939999917,113.87369939999917,113.87369939999917,113.87369939999917,113.87369939999917,,009,P015,2025_Feb_28_1901,ConditionRich,2021.2.3,59.927643363586846,
84.0,100.0,0,0.0,Stimuli/Blank.png,1,9,9.75,0,161,161,161,,,,,,,,,,,,,84.00808329999927,0.008083299999270821,1,114.1072127999978,114.1072127999978,114.1072127999978,114.1072127999978,114.1072127999978,114.1072127999978,123.0985557999993,123.84915999999794,114.1072127999978,114.1072127999978,9.586983400000463,009,P015,2025_Feb_28_1901,ConditionRich,2021.2.3,59.927643363586846,
100.0,100.75,32,0.75,Stimuli/P015/things_pheasant_08s.jpg,0,0,0.0,0,162,162,162,,,,,,,,,,,,,100.00484470000083,0.004844700000830926,None,130.1213848999978,130.1213848999978,130.1213848999978,130.1213848999978,130.1213848999978,130.1213848999978,130.1213848999978,130.1213848999978,130.1213848999978,130.1213848999978,,009,P015,2025_Feb_28_1901,ConditionRich,2021.2.3,59.927643363586846,
100.75,101.0,41,0.0,Stimuli/Blank.png,0,0,0.0,0,163,163,163,,,,,,,,,,,,,100.77268430000186,0.022684300001856172,None,130.87204609999753,130.87204609999753,130.87204609999753,130.87204609999753,130.87204609999753,130.87204609999753,130.87204609999753,130.87204609999753,130.87204609999753,130.87204609999753,,009,P015,2025_Feb_28_1901,ConditionRich,2021.2.3,59.927643363586846,
101.0,101.75,32,0.75,Stimuli/P015/things_pheasant_08s.jpg,0,0,0.0,0,164,164,164,,,,,,,,,,,,,101.00697750000108,0.006977500001084991,None,131.12227439999697,131.12227439999697,131.12227439999697,131.12227439999697,131.12227439999697,131.12227439999697,131.12227439999697,131.12227439999697,131.12227439999697,131.12227439999697,,009,P015,2025_Feb_28_1901,ConditionRich,2021.2.3,59.927643363586846,
101.75,102.0,41,0.0,Stimuli/Blank.png,0,0,0.0,0,165,165,165,,,,,,,,,,,,,101.77390200000082,0.02390200000081677,None,131.8729330999995,131.8729330999995,131.8729330999995,131.8729330999995,131.8729330999995,131.8729330999995,131.8729330999995,131.8729330999995,131.8729330999995,131.8729330999995,,009,P015,2025_Feb_28_1901,ConditionRich,2021.2.3,59.927643363586846,
102.0,102.75,32,0.75,Stimuli/P015/things_pheasant_08s.jpg,0,0,0.0,0,166,166,166,,,,,,,,,,,,,102.0102807000003,0.010280700000294019,None,132.12315469999885,132.12315469999885,132.12315469999885,132.12315469999885,132.12315469999885,132.12315469999885,132.12315469999885,132.12315469999885,132.12315469999885,132.12315469999885,,009,P015,2025_Feb_28_1901,ConditionRich,2021.2.3,59.927643363586846,
102.75,103.0,41,0.0,Stimuli/Blank.png,0,0,0.0,0,167,167,167,,,,,,,,,,,,,102.77620659999957,0.026206599999568425,None,132.8905006999994,132.8905006999994,132.8905006999994,132.8905006999994,132.8905006999994,132.8905006999994,132.8905006999994,132.8905006999994,132.8905006999994,132.8905006999994,,009,P015,2025_Feb_28_1901,ConditionRich,2021.2.3,59.927643363586846,
103.0,103.75,32,0.75,Stimuli/P015/things_pheasant_08s.jpg,0,0,0.0,0,168,168,168,,,,,,,,,,,,,103.02433930000188,0.024339300001884112,None,133.12403409999752,133.12403409999752,133.12403409999752,133.12403409999752,133.12403409999752,133.12403409999752,133.12403409999752,133.12403409999752,133.12403409999752,133.12403409999752,,009,P015,2025_Feb_28_1901,ConditionRich,2021.2.3,59.927643363586846,
103.75,104.0,41,0.0,Stimuli/Blank.png,0,0,0.0,0,169,169,169,,,,,,,,,,,,,103.75924089999899,0.009240899998985697,None,133.8747489999987,133.8747489999987,133.8747489999987,133.8747489999987,133.8747489999987,133.8747489999987,133.8747489999987,133.8747489999987,133.8747489999987,133.8747489999987,,009,P015,2025_Feb_28_1901,ConditionRich,2021.2.3,59.927643363586846,
104.0,104.75,8,0.75,Stimuli/P015/sun_arldxotvfucvuudk.jpg,1,0,0.75,0,170,170,170,,,,,,,,,,,,,104.02564379999967,0.02564379999967059,1,134.12492599999678,134.12492599999678,134.12492599999678,134.12492599999678,134.12492599999678,134.12492599999678,134.12492599999678,None,134.12492599999678,134.12492599999678,0.5273191999986011,009,P015,2025_Feb_28_1901,ConditionRich,2021.2.3,59.927643363586846,
104.75,105.0,41,0.0,Stimuli/Blank.png,0,0,0.0,0,171,171,171,,,,,,,,,,,,,104.76015629999893,0.010156299998925533,None,134.85890909999944,134.85890909999944,134.85890909999944,134.85890909999944,134.85890909999944,134.85890909999944,134.85890909999944,134.85890909999944,134.85890909999944,134.85890909999944,,009,P015,2025_Feb_28_1901,ConditionRich,2021.2.3,59.927643363586846,
105.0,105.75,8,0.75,Stimuli/P015/sun_arldxotvfucvuudk.jpg,0,0,0.0,0,172,172,172,,,,,,,,,,,,,105.01031199999852,0.01031199999852106,None,135.1258308999968,135.1258308999968,135.1258308999968,135.1258308999968,135.1258308999968,135.1258308999968,135.1258308999968,135.1258308999968,135.1258308999968,135.1258308999968,,009,P015,2025_Feb_28_1901,ConditionRich,2021.2.3,59.927643363586846,
105.75,106.0,41,0.0,Stimuli/Blank.png,0,0,0.0,0,173,173,173,,,,,,,,,,,,,105.77893620000032,0.028936200000316603,None,135.89316639999743,135.89316639999743,135.89316639999743,135.89316639999743,135.89316639999743,135.89316639999743,135.89316639999743,135.89316639999743,135.89316639999743,135.89316639999743,,009,P015,2025_Feb_28_1901,ConditionRich,2021.2.3,59.927643363586846,
106.0,106.75,8,0.75,Stimuli/P015/sun_arldxotvfucvuudk.jpg,0,0,0.0,0,174,174,174,,,,,,,,,,,,,106.03054310000152,0.03054310000152327,None,136.14338419999694,136.14338419999694,136.14338419999694,136.14338419999694,136.14338419999694,136.14338419999694,136.14338419999694,136.14338419999694,136.14338419999694,136.14338419999694,,009,P015,2025_Feb_28_1901,ConditionRich,2021.2.3,59.927643363586846,
106.75,107.0,41,0.0,Stimuli/Blank.png,0,0,0.0,0,175,175,175,,,,,,,,,,,,,106.7783703999994,0.028370399999403162,None,136.877434799997,136.877434799997,136.877434799997,136.877434799997,136.877434799997,136.877434799997,136.877434799997,136.877434799997,136.877434799997,136.877434799997,,009,P015,2025_Feb_28_1901,ConditionRich,2021.2.3,59.927643363586846,
107.0,107.75,8,0.75,Stimuli/P015/sun_arldxotvfucvuudk.jpg,0,0,0.0,0,176,176,176,,,,,,,,,,,,,107.01110530000005,0.01110530000005383,None,137.12760149999667,137.12760149999667,137.12760149999667,137.12760149999667,137.12760149999667,137.12760149999667,137.12760149999667,137.12760149999667,137.12760149999667,137.12760149999667,,009,P015,2025_Feb_28_1901,ConditionRich,2021.2.3,59.927643363586846,
107.75,108.0,41,0.0,Stimuli/Blank.png,0,0,0.0,0,177,177,177,,,,,,,,,,,,,107.77906699999949,0.029066999999486143,None,137.87825079999675,137.87825079999675,137.87825079999675,137.87825079999675,137.87825079999675,137.87825079999675,137.87825079999675,137.87825079999675,137.87825079999675,137.87825079999675,,009,P015,2025_Feb_28_1901,ConditionRich,2021.2.3,59.927643363586846,
108.0,108.75,34,0.75,Stimuli/P015/things_shower_cap_08s.jpg,0,0,0.0,0,178,178,178,,,,,,,,,,,,,108.01182889999836,0.01182889999836334,None,138.12847679999686,138.12847679999686,138.12847679999686,138.12847679999686,138.12847679999686,138.12847679999686,138.12847679999686,138.12847679999686,138.12847679999686,138.12847679999686,,009,P015,2025_Feb_28_1901,ConditionRich,2021.2.3,59.927643363586846,
108.75,109.0,41,0.0,Stimuli/Blank.png,0,0,0.0,0,179,179,179,,,,,,,,,,,,,108.77947309999945,0.029473099999449914,None,138.87913029999982,138.87913029999982,138.87913029999982,138.87913029999982,138.87913029999982,138.87913029999982,138.87913029999982,138.87913029999982,138.87913029999982,138.87913029999982,,009,P015,2025_Feb_28_1901,ConditionRich,2021.2.3,59.927643363586846,
109.0,109.75,34,0.75,Stimuli/P015/things_shower_cap_08s.jpg,0,0,0.0,0,180,180,180,,,,,,,,,,,,,109.01404959999854,0.014049599998543272,None,139.12935669999933,139.12935669999933,139.12935669999933,139.12935669999933,139.12935669999933,139.12935669999933,139.12935669999933,139.12935669999933,139.12935669999933,139.12935669999933,,009,P015,2025_Feb_28_1901,ConditionRich,2021.2.3,59.927643363586846,
109.75,110.0,41,0.0,Stimuli/Blank.png,0,0,0.0,0,181,181,181,,,,,,,,,,,,,109.78072999999858,0.03072999999858439,None,139.88001919999806,139.88001919999806,139.88001919999806,139.88001919999806,139.88001919999806,139.88001919999806,139.88001919999806,139.88001919999806,139.88001919999806,139.88001919999806,,009,P015,2025_Feb_28_1901,ConditionRich,2021.2.3,59.927643363586846,
110.0,110.75,34,0.75,Stimuli/P015/things_shower_cap_08s.jpg,0,0,0.0,0,182,182,182,,,,,,,,,,,,,110.01463779999904,0.01463779999903636,None,140.13025099999868,140.13025099999868,140.13025099999868,140.13025099999868,140.13025099999868,140.13025099999868,140.13025099999868,140.13025099999868,140.13025099999868,140.13025099999868,,009,P015,2025_Feb_28_1901,ConditionRich,2021.2.3,59.927643363586846,
110.75,111.0,41,0.0,Stimuli/Blank.png,0,0,0.0,0,183,183,183,,,,,,,,,,,,,110.78098890000183,0.03098890000183019,None,140.88091079999867,140.88091079999867,140.88091079999867,140.88091079999867,140.88091079999867,140.88091079999867,140.88091079999867,140.88091079999867,140.88091079999867,140.88091079999867,,009,P015,2025_Feb_28_1901,ConditionRich,2021.2.3,59.927643363586846,
111.0,111.75,34,0.75,Stimuli/P015/things_shower_cap_08s.jpg,0,0,0.0,0,184,184,184,,,,,,,,,,,,,111.01559080000152,0.0155908000015188,None,141.1311558999987,141.1311558999987,141.1311558999987,141.1311558999987,141.1311558999987,141.1311558999987,141.1311558999987,141.1311558999987,141.1311558999987,141.1311558999987,,009,P015,2025_Feb_28_1901,ConditionRich,2021.2.3,59.927643363586846,
111.75,112.0,41,0.0,Stimuli/Blank.png,0,0,0.0,0,185,185,185,,,,,,,,,,,,,111.76634009999907,0.016340099999069935,None,141.86510879999696,141.86510879999696,141.86510879999696,141.86510879999696,141.86510879999696,141.86510879999696,141.86510879999696,141.86510879999696,141.86510879999696,141.86510879999696,,009,P015,2025_Feb_28_1901,ConditionRich,2021.2.3,59.927643363586846,
112.0,112.75,31,0.75,Stimuli/P015/things_outlet_08s.jpg,0,0,0.0,0,186,186,186,,,,,,,,,,,,,112.00103959999979,0.0010395999997854233,None,142.1153368999985,142.1153368999985,142.1153368999985,142.1153368999985,142.1153368999985,142.1153368999985,142.1153368999985,142.1153368999985,142.1153368999985,142.1153368999985,,009,P015,2025_Feb_28_1901,ConditionRich,2021.2.3,59.927643363586846,
112.75,113.0,41,0.0,Stimuli/Blank.png,0,0,0.0,0,187,187,187,,,,,,,,,,,,,112.76622850000058,0.016228500000579515,None,142.86599659999774,142.86599659999774,142.86599659999774,142.86599659999774,142.86599659999774,142.86599659999774,142.86599659999774,142.86599659999774,142.86599659999774,142.86599659999774,,009,P015,2025_Feb_28_1901,ConditionRich,2021.2.3,59.927643363586846,
113.0,113.75,31,0.75,Stimuli/P015/things_outlet_08s.jpg,0,0,0.0,0,188,188,188,,,,,,,,,,,,,112.99984620000032,-0.00015379999967990443,None,143.09952969999722,143.09952969999722,143.09952969999722,143.09952969999722,143.09952969999722,143.09952969999722,143.09952969999722,143.09952969999722,143.09952969999722,143.09952969999722,,009,P015,2025_Feb_28_1901,ConditionRich,2021.2.3,59.927643363586846,
113.75,114.0,41,0.0,Stimuli/Blank.png,0,0,0.0,0,189,189,189,,,,,,,,,,,,,113.75028250000105,0.00028250000104890205,None,143.85023869999713,143.85023869999713,143.85023869999713,143.85023869999713,143.85023869999713,143.85023869999713,143.85023869999713,143.85023869999713,143.85023869999713,143.85023869999713,,009,P015,2025_Feb_28_1901,ConditionRich,2021.2.3,59.927643363586846,
114.0,114.75,31,0.75,Stimuli/P015/things_outlet_08s.jpg,0,0,0.0,0,190,190,190,,,,,,,,,,,,,114.0012730999988,0.0012730999987979885,None,144.100421799998,144.100421799998,144.100421799998,144.100421799998,144.100421799998,144.100421799998,144.100421799998,144.100421799998,144.100421799998,144.100421799998,,009,P015,2025_Feb_28_1901,ConditionRich,2021.2.3,59.927643363586846,
114.75,115.0,41,0.0,Stimuli/Blank.png,0,0,0.0,0,191,191,191,,,,,,,,,,,,,114.75116669999989,0.001166699999885168,None,144.85109849999935,144.85109849999935,144.85109849999935,144.85109849999935,144.85109849999935,144.85109849999935,144.85109849999935,144.85109849999935,144.85109849999935,144.85109849999935,,009,P015,2025_Feb_28_1901,ConditionRich,2021.2.3,59.927643363586846,
115.0,115.75,31,0.75,Stimuli/P015/things_outlet_08s.jpg,0,0,0.0,0,192,192,192,,,,,,,,,,,,,115.00154330000078,0.001543300000776071,None,145.117990499999,145.117990499999,145.117990499999,145.117990499999,145.117990499999,145.117990499999,145.117990499999,145.117990499999,145.117990499999,145.117990499999,,009,P015,2025_Feb_28_1901,ConditionRich,2021.2.3,59.927643363586846,
115.75,116.0,41,0.0,Stimuli/Blank.png,0,0,0.0,0,193,193,193,,,,,,,,,,,,,115.76939689999926,0.01939689999926486,None,145.86864669999704,145.86864669999704,145.86864669999704,145.86864669999704,145.86864669999704,145.86864669999704,145.86864669999704,145.86864669999704,145.86864669999704,145.86864669999704,,009,P015,2025_Feb_28_1901,ConditionRich,2021.2.3,59.927643363586846,
116.0,116.75,18,0.75,Stimuli/P015/sun_byavixgfuhzioilz.jpg,0,0,0.0,0,194,194,194,,,,,,,,,,,,,116.00389490000089,0.0038949000008869916,None,146.11890799999674,146.11890799999674,146.11890799999674,146.11890799999674,146.11890799999674,146.11890799999674,146.11890799999674,146.11890799999674,146.11890799999674,146.11890799999674,,009,P015,2025_Feb_28_1901,ConditionRich,2021.2.3,59.927643363586846,
116.75,117.0,41,0.0,Stimuli/Blank.png,0,0,0.0,0,195,195,195,,,,,,,,,,,,,116.7708386000013,0.02083860000129789,None,146.86958239999876,146.86958239999876,146.86958239999876,146.86958239999876,146.86958239999876,146.86958239999876,146.86958239999876,146.86958239999876,146.86958239999876,146.86958239999876,,009,P015,2025_Feb_28_1901,ConditionRich,2021.2.3,59.927643363586846,
117.0,117.75,18,0.75,Stimuli/P015/sun_byavixgfuhzioilz.jpg,0,0,0.0,0,196,196,196,,,,,,,,,,,,,117.00716470000043,0.007164700000430457,None,147.11976289999802,147.11976289999802,147.11976289999802,147.11976289999802,147.11976289999802,147.11976289999802,147.11976289999802,147.11976289999802,147.11976289999802,147.11976289999802,,009,P015,2025_Feb_28_1901,ConditionRich,2021.2.3,59.927643363586846,
117.75,118.0,41,0.0,Stimuli/Blank.png,0,0,0.0,0,197,197,197,,,,,,,,,,,,,117.7709446000008,0.020944600000802893,None,147.87041859999954,147.87041859999954,147.87041859999954,147.87041859999954,147.87041859999954,147.87041859999954,147.87041859999954,147.87041859999954,147.87041859999954,147.87041859999954,,009,P015,2025_Feb_28_1901,ConditionRich,2021.2.3,59.927643363586846,
118.0,118.75,18,0.75,Stimuli/P015/sun_byavixgfuhzioilz.jpg,0,0,0.0,0,198,198,198,,,,,,,,,,,,,118.00430499999857,0.004304999998566927,None,148.10394459999952,148.10394459999952,148.10394459999952,148.10394459999952,148.10394459999952,148.10394459999952,148.10394459999952,148.10394459999952,148.10394459999952,148.10394459999952,,009,P015,2025_Feb_28_1901,ConditionRich,2021.2.3,59.927643363586846,
118.75,119.0,41,0.0,Stimuli/Blank.png,0,0,0.0,0,199,199,199,,,,,,,,,,,,,118.75584879999951,0.005848799999512266,None,148.8546721999992,148.8546721999992,148.8546721999992,148.8546721999992,148.8546721999992,148.8546721999992,148.8546721999992,148.8546721999992,148.8546721999992,148.8546721999992,,009,P015,2025_Feb_28_1901,ConditionRich,2021.2.3,59.927643363586846,
119.0,119.75,18,0.75,Stimuli/P015/sun_byavixgfuhzioilz.jpg,0,0,0.0,0,200,200,200,,,,,,,,,,,,,119.00530749999962,0.005307499999616994,None,149.10484759999963,149.10484759999963,149.10484759999963,149.10484759999963,149.10484759999963,149.10484759999963,149.10484759999963,149.10484759999963,149.10484759999963,149.10484759999963,,009,P015,2025_Feb_28_1901,ConditionRich,2021.2.3,59.927643363586846,
119.75,120.0,41,0.0,Stimuli/Blank.png,0,0,0.0,0,201,201,201,,,,,,,,,,,,,119.75628040000083,0.006280400000832742,None,149.85548599999674,149.85548599999674,149.85548599999674,149.85548599999674,149.85548599999674,149.85548599999674,149.85548599999674,149.85548599999674,149.85548599999674,149.85548599999674,,009,P015,2025_Feb_28_1901,ConditionRich,2021.2.3,59.927643363586846,
120.0,120.75,5,0.75,Stimuli/P015/sun_ajgmxbrxdpmsaext.jpg,0,0,0.0,0,202,202,202,,,,,,,,,,,,,120.0057850000012,0.0057850000011967495,None,150.10573359999762,150.10573359999762,150.10573359999762,150.10573359999762,150.10573359999762,150.10573359999762,150.10573359999762,150.10573359999762,150.10573359999762,150.10573359999762,,009,P015,2025_Feb_28_1901,ConditionRich,2021.2.3,59.927643363586846,
120.75,121.0,41,0.0,Stimuli/Blank.png,0,0,0.0,0,203,203,203,,,,,,,,,,,,,120.75696510000125,0.006965100001252722,None,150.85637309999947,150.85637309999947,150.85637309999947,150.85637309999947,150.85637309999947,150.85637309999947,150.85637309999947,150.85637309999947,150.85637309999947,150.85637309999947,,009,P015,2025_Feb_28_1901,ConditionRich,2021.2.3,59.927643363586846,
121.0,121.75,5,0.75,Stimuli/P015/sun_ajgmxbrxdpmsaext.jpg,0,0,0.0,0,204,204,204,,,,,,,,,,,,,121.00760480000099,0.007604800000990508,None,151.12330680000014,151.12330680000014,151.12330680000014,151.12330680000014,151.12330680000014,151.12330680000014,151.12330680000014,151.12330680000014,151.12330680000014,151.12330680000014,,009,P015,2025_Feb_28_1901,ConditionRich,2021.2.3,59.927643363586846,
121.75,122.0,41,0.0,Stimuli/Blank.png,0,0,0.0,0,205,205,205,,,,,,,,,,,,,121.77433340000061,0.024333400000614347,None,151.87394049999784,151.87394049999784,151.87394049999784,151.87394049999784,151.87394049999784,151.87394049999784,151.87394049999784,151.87394049999784,151.87394049999784,151.87394049999784,,009,P015,2025_Feb_28_1901,ConditionRich,2021.2.3,59.927643363586846,
122.0,122.75,5,0.75,Stimuli/P015/sun_ajgmxbrxdpmsaext.jpg,0,0,0.0,0,206,206,206,,,,,,,,,,,,,122.00752310000098,0.007523100000980776,None,152.10751019999952,152.10751019999952,152.10751019999952,152.10751019999952,152.10751019999952,152.10751019999952,152.10751019999952,152.10751019999952,152.10751019999952,152.10751019999952,,009,P015,2025_Feb_28_1901,ConditionRich,2021.2.3,59.927643363586846,
122.75,123.0,41,0.0,Stimuli/Blank.png,0,0,0.0,0,207,207,207,,,,,,,,,,,,,122.75896920000014,0.00896920000013779,None,152.85817859999952,152.85817859999952,152.85817859999952,152.85817859999952,152.85817859999952,152.85817859999952,152.85817859999952,152.85817859999952,152.85817859999952,152.85817859999952,,009,P015,2025_Feb_28_1901,ConditionRich,2021.2.3,59.927643363586846,
123.0,123.75,5,0.75,Stimuli/P015/sun_ajgmxbrxdpmsaext.jpg,0,0,0.0,0,208,208,208,,,,,,,,,,,,,123.00833830000192,0.008338300001923926,None,153.1083968999992,153.1083968999992,153.1083968999992,153.1083968999992,153.1083968999992,153.1083968999992,153.1083968999992,153.1083968999992,153.1083968999992,153.1083968999992,,009,P015,2025_Feb_28_1901,ConditionRich,2021.2.3,59.927643363586846,
123.75,124.0,41,0.0,Stimuli/Blank.png,0,0,0.0,0,209,209,209,,,,,,,,,,,,,123.75926410000102,0.00926410000101896,None,153.8590555999981,153.8590555999981,153.8590555999981,153.8590555999981,153.8590555999981,153.8590555999981,153.8590555999981,153.8590555999981,153.8590555999981,153.8590555999981,,009,P015,2025_Feb_28_1901,ConditionRich,2021.2.3,59.927643363586846,
124.0,124.75,22,0.75,Stimuli/P015/things_baby_08s.jpg,0,0,0.0,0,210,210,210,,,,,,,,,,,,,124.00994749999882,0.009947499998816056,None,154.10929779999788,154.10929779999788,154.10929779999788,154.10929779999788,154.10929779999788,154.10929779999788,154.10929779999788,154.10929779999788,154.10929779999788,154.10929779999788,,009,P015,2025_Feb_28_1901,ConditionRich,2021.2.3,59.927643363586846,
124.75,125.0,41,0.0,Stimuli/Blank.png,0,0,0.0,0,211,211,211,,,,,,,,,,,,,124.76079559999926,0.0107955999992555,None,154.86007309999695,154.86007309999695,154.86007309999695,154.86007309999695,154.86007309999695,154.86007309999695,154.86007309999695,154.86007309999695,154.86007309999695,154.86007309999695,,009,P015,2025_Feb_28_1901,ConditionRich,2021.2.3,59.927643363586846,
125.0,125.75,22,0.75,Stimuli/P015/things_baby_08s.jpg,0,0,0.0,0,212,212,212,,,,,,,,,,,,,125.01157550000062,0.011575500000617467,None,155.12684939999963,155.12684939999963,155.12684939999963,155.12684939999963,155.12684939999963,155.12684939999963,155.12684939999963,155.12684939999963,155.12684939999963,155.12684939999963,,009,P015,2025_Feb_28_1901,ConditionRich,2021.2.3,59.927643363586846,
125.75,126.0,41,0.0,Stimuli/Blank.png,0,0,0.0,0,213,213,213,,,,,,,,,,,,,125.77776509999967,0.027765099999669474,None,155.8775057999992,155.8775057999992,155.8775057999992,155.8775057999992,155.8775057999992,155.8775057999992,155.8775057999992,155.8775057999992,155.8775057999992,155.8775057999992,,009,P015,2025_Feb_28_1901,ConditionRich,2021.2.3,59.927643363586846,
126.0,126.75,22,0.75,Stimuli/P015/things_baby_08s.jpg,0,0,0.0,0,214,214,214,,,,,,,,,,,,,126.01177520000056,0.011775200000556652,None,156.11105039999893,156.11105039999893,156.11105039999893,156.11105039999893,156.11105039999893,156.11105039999893,156.11105039999893,156.11105039999893,156.11105039999893,156.11105039999893,,009,P015,2025_Feb_28_1901,ConditionRich,2021.2.3,59.927643363586846,
126.75,127.0,41,0.0,Stimuli/Blank.png,0,0,0.0,0,215,215,215,,,,,,,,,,,,,126.76407150000159,0.01407150000159163,None,156.87840959999812,156.87840959999812,156.87840959999812,156.87840959999812,156.87840959999812,156.87840959999812,156.87840959999812,156.87840959999812,156.87840959999812,156.87840959999812,,009,P015,2025_Feb_28_1901,ConditionRich,2021.2.3,59.927643363586846,
127.0,127.75,22,0.75,Stimuli/P015/things_baby_08s.jpg,0,0,0.0,0,216,216,216,,,,,,,,,,,,,127.02936770000088,0.02936770000087563,None,157.14530629999717,157.14530629999717,157.14530629999717,157.14530629999717,157.14530629999717,157.14530629999717,157.14530629999717,157.14530629999717,157.14530629999717,157.14530629999717,,009,P015,2025_Feb_28_1901,ConditionRich,2021.2.3,59.927643363586846,
127.75,128.0,41,0.0,Stimuli/Blank.png,0,0,0.0,0,217,217,217,,,,,,,,,,,,,127.78020939999988,0.03020939999987604,None,157.87928089999696,157.87928089999696,157.87928089999696,157.87928089999696,157.87928089999696,157.87928089999696,157.87928089999696,157.87928089999696,157.87928089999696,157.87928089999696,,009,P015,2025_Feb_28_1901,ConditionRich,2021.2.3,59.927643363586846,
128.0,128.75,10,0.75,Stimuli/P015/sun_bfojpvrlsrtfyzio.jpg,0,0,0.0,0,218,218,218,,,,,,,,,,,,,128.01358439999967,0.013584399999672314,None,158.129541899998,158.129541899998,158.129541899998,158.129541899998,158.129541899998,158.129541899998,158.129541899998,158.129541899998,158.129541899998,158.129541899998,,009,P015,2025_Feb_28_1901,ConditionRich,2021.2.3,59.927643363586846,
128.75,129.0,41,0.0,Stimuli/Blank.png,0,0,0.0,0,219,219,219,,,,,,,,,,,,,128.7823271999987,0.03232719999869005,None,158.89683909999803,158.89683909999803,158.89683909999803,158.89683909999803,158.89683909999803,158.89683909999803,158.89683909999803,158.89683909999803,158.89683909999803,158.89683909999803,,009,P015,2025_Feb_28_1901,ConditionRich,2021.2.3,59.927643363586846,
129.0,129.75,10,0.75,Stimuli/P015/sun_bfojpvrlsrtfyzio.jpg,0,0,0.0,0,220,220,220,,,,,,,,,,,,,129.01673609999852,0.016736099998524878,None,159.13039939999726,159.13039939999726,159.13039939999726,159.13039939999726,159.13039939999726,159.13039939999726,159.13039939999726,159.13039939999726,159.13039939999726,159.13039939999726,,009,P015,2025_Feb_28_1901,ConditionRich,2021.2.3,59.927643363586846,
129.75,130.0,41,0.0,Stimuli/Blank.png,0,0,0.0,0,221,221,221,,,,,,,,,,,,,129.76669739999852,0.016697399998520268,None,159.8810631999986,159.8810631999986,159.8810631999986,159.8810631999986,159.8810631999986,159.8810631999986,159.8810631999986,159.8810631999986,159.8810631999986,159.8810631999986,,009,P015,2025_Feb_28_1901,ConditionRich,2021.2.3,59.927643363586846,
130.0,130.75,10,0.75,Stimuli/P015/sun_bfojpvrlsrtfyzio.jpg,0,0,0.0,0,222,222,222,,,,,,,,,,,,,130.01619550000032,0.016195500000321772,None,160.1312779,160.1312779,160.1312779,160.1312779,160.1312779,160.1312779,160.1312779,160.1312779,160.1312779,160.1312779,,009,P015,2025_Feb_28_1901,ConditionRich,2021.2.3,59.927643363586846,
130.75,131.0,41,0.0,Stimuli/Blank.png,0,0,0.0,0,223,223,223,,,,,,,,,,,,,130.7653491000019,0.01534910000191303,None,160.86534349999783,160.86534349999783,160.86534349999783,160.86534349999783,160.86534349999783,160.86534349999783,160.86534349999783,160.86534349999783,160.86534349999783,160.86534349999783,,009,P015,2025_Feb_28_1901,ConditionRich,2021.2.3,59.927643363586846,
131.0,131.75,10,0.75,Stimuli/P015/sun_bfojpvrlsrtfyzio.jpg,0,0,0.0,0,224,224,224,,,,,,,,,,,,,131.0177818000011,0.017781800001102965,None,161.13216159999865,161.13216159999865,161.13216159999865,161.13216159999865,161.13216159999865,161.13216159999865,161.13216159999865,161.13216159999865,161.13216159999865,161.13216159999865,,009,P015,2025_Feb_28_1901,ConditionRich,2021.2.3,59.927643363586846,
131.75,132.0,41,0.0,Stimuli/Blank.png,0,0,0.0,0,225,225,225,,,,,,,,,,,,,131.76837700000033,0.018377000000327826,None,161.88283119999687,161.88283119999687,161.88283119999687,161.88283119999687,161.88283119999687,161.88283119999687,161.88283119999687,161.88283119999687,161.88283119999687,161.88283119999687,,009,P015,2025_Feb_28_1901,ConditionRich,2021.2.3,59.927643363586846,
132.0,132.75,39,0.75,Stimuli/P015/things_window_08s.jpg,0,0,0.0,0,226,226,226,,,,,,,,,,,,,132.0164865000006,0.01648650000061025,None,162.11636129999897,162.11636129999897,162.11636129999897,162.11636129999897,162.11636129999897,162.11636129999897,162.11636129999897,162.11636129999897,162.11636129999897,162.11636129999897,,009,P015,2025_Feb_28_1901,ConditionRich,2021.2.3,59.927643363586846,
132.75,133.0,41,0.0,Stimuli/Blank.png,0,0,0.0,0,227,227,227,,,,,,,,,,,,,132.75116909999997,0.001169099999970058,None,162.8503643999975,162.8503643999975,162.8503643999975,162.8503643999975,162.8503643999975,162.8503643999975,162.8503643999975,162.8503643999975,162.8503643999975,162.8503643999975,,009,P015,2025_Feb_28_1901,ConditionRich,2021.2.3,59.927643363586846,
133.0,133.75,39,0.75,Stimuli/P015/things_window_08s.jpg,0,0,0.0,0,228,228,228,,,,,,,,,,,,,133.00113540000166,0.0011354000016581267,None,163.10058549999667,163.10058549999667,163.10058549999667,163.10058549999667,163.10058549999667,163.10058549999667,163.10058549999667,163.10058549999667,163.10058549999667,163.10058549999667,,009,P015,2025_Feb_28_1901,ConditionRich,2021.2.3,59.927643363586846,
133.75,134.0,41,0.0,Stimuli/Blank.png,0,0,0.0,0,229,229,229,,,,,,,,,,,,,133.75206489999982,0.0020648999998229556,None,163.85123190000013,163.85123190000013,163.85123190000013,163.85123190000013,163.85123190000013,163.85123190000013,163.85123190000013,163.85123190000013,163.85123190000013,163.85123190000013,,009,P015,2025_Feb_28_1901,ConditionRich,2021.2.3,59.927643363586846,
134.0,134.75,39,0.75,Stimuli/P015/things_window_08s.jpg,0,0,0.0,0,230,230,230,,,,,,,,,,,,,134.00395320000098,0.003953200000978541,None,164.11814069999673,164.11814069999673,164.11814069999673,164.11814069999673,164.11814069999673,164.11814069999673,164.11814069999673,164.11814069999673,164.11814069999673,164.11814069999673,,009,P015,2025_Feb_28_1901,ConditionRich,2021.2.3,59.927643363586846,
134.75,135.0,41,0.0,Stimuli/Blank.png,0,0,0.0,0,231,231,231,,,,,,,,,,,,,134.76975940000193,0.01975940000193077,None,164.86880839999867,164.86880839999867,164.86880839999867,164.86880839999867,164.86880839999867,164.86880839999867,164.86880839999867,164.86880839999867,164.86880839999867,164.86880839999867,,009,P015,2025_Feb_28_1901,ConditionRich,2021.2.3,59.927643363586846,
135.0,135.75,39,0.75,Stimuli/P015/things_window_08s.jpg,0,0,0.0,0,232,232,232,,,,,,,,,,,,,135.00448049999977,0.004480499999772292,None,165.11904629999844,165.11904629999844,165.11904629999844,165.11904629999844,165.11904629999844,165.11904629999844,165.11904629999844,165.11904629999844,165.11904629999844,165.11904629999844,,009,P015,2025_Feb_28_1901,ConditionRich,2021.2.3,59.927643363586846,
135.75,136.0,41,0.0,Stimuli/Blank.png,0,0,0.0,0,233,233,233,,,,,,,,,,,,,135.77034260000073,0.02034260000073118,None,165.8696777999976,165.8696777999976,165.8696777999976,165.8696777999976,165.8696777999976,165.8696777999976,165.8696777999976,165.8696777999976,165.8696777999976,165.8696777999976,,009,P015,2025_Feb_28_1901,ConditionRich,2021.2.3,59.927643363586846,
136.0,136.75,17,0.75,Stimuli/P015/sun_bxhbltvqnpaciuzt.jpg,0,0,0.0,0,234,234,234,,,,,,,,,,,,,136.00368959999832,0.003689599998324411,None,166.10322369999994,166.10322369999994,166.10322369999994,166.10322369999994,166.10322369999994,166.10322369999994,166.10322369999994,166.10322369999994,166.10322369999994,166.10322369999994,,009,P015,2025_Feb_28_1901,ConditionRich,2021.2.3,59.927643363586846,
136.75,137.0,41,0.0,Stimuli/Blank.png,0,0,0.0,0,235,235,235,,,,,,,,,,,,,136.75471599999946,0.004715999999461928,None,166.853891499999,166.853891499999,166.853891499999,166.853891499999,166.853891499999,166.853891499999,166.853891499999,166.853891499999,166.853891499999,166.853891499999,,009,P015,2025_Feb_28_1901,ConditionRich,2021.2.3,59.927643363586846,
137.0,137.75,17,0.75,Stimuli/P015/sun_bxhbltvqnpaciuzt.jpg,0,0,0.0,0,236,236,236,,,,,,,,,,,,,137.0044956999991,0.004495699999097269,None,167.10410749999937,167.10410749999937,167.10410749999937,167.10410749999937,167.10410749999937,167.10410749999937,167.10410749999937,167.10410749999937,167.10410749999937,167.10410749999937,,009,P015,2025_Feb_28_1901,ConditionRich,2021.2.3,59.927643363586846,
137.75,138.0,41,0.0,Stimuli/Blank.png,0,0,0.0,0,237,237,237,,,,,,,,,,,,,137.754879600001,0.004879600001004292,None,167.8547843999986,167.8547843999986,167.8547843999986,167.8547843999986,167.8547843999986,167.8547843999986,167.8547843999986,167.8547843999986,167.8547843999986,167.8547843999986,,009,P015,2025_Feb_28_1901,ConditionRich,2021.2.3,59.927643363586846,
138.0,138.75,17,0.75,Stimuli/P015/sun_bxhbltvqnpaciuzt.jpg,0,0,0.0,0,238,238,238,,,,,,,,,,,,,138.0059356999991,0.005935699999099597,None,168.12168779999774,168.12168779999774,168.12168779999774,168.12168779999774,168.12168779999774,168.12168779999774,168.12168779999774,168.12168779999774,168.12168779999774,168.12168779999774,,009,P015,2025_Feb_28_1901,ConditionRich,2021.2.3,59.927643363586846,
138.75,139.0,41,0.0,Stimuli/Blank.png,0,0,0.0,0,239,239,239,,,,,,,,,,,,,138.7749651999984,0.024965199998405296,None,168.8890406999999,168.8890406999999,168.8890406999999,168.8890406999999,168.8890406999999,168.8890406999999,168.8890406999999,168.8890406999999,168.8890406999999,168.8890406999999,,009,P015,2025_Feb_28_1901,ConditionRich,2021.2.3,59.927643363586846,
139.0,139.75,17,0.75,Stimuli/P015/sun_bxhbltvqnpaciuzt.jpg,0,0,0.0,0,240,240,240,,,,,,,,,,,,,139.02469610000117,0.024696100001165178,None,169.13926139999967,169.13926139999967,169.13926139999967,169.13926139999967,169.13926139999967,169.13926139999967,169.13926139999967,169.13926139999967,169.13926139999967,169.13926139999967,,009,P015,2025_Feb_28_1901,ConditionRich,2021.2.3,59.927643363586846,
139.75,140.0,41,0.0,Stimuli/Blank.png,0,0,0.0,0,241,241,241,,,,,,,,,,,,,139.7753018000003,0.025301800000306685,None,169.88992199999848,169.88992199999848,169.88992199999848,169.88992199999848,169.88992199999848,169.88992199999848,169.88992199999848,169.88992199999848,169.88992199999848,169.88992199999848,,009,P015,2025_Feb_28_1901,ConditionRich,2021.2.3,59.927643363586846,
140.0,140.75,27,0.75,Stimuli/P015/things_girl_08s.jpg,0,0,0.0,0,242,242,242,,,,,,,,,,,,,140.02415699999983,0.024156999999831896,None,170.1234500999999,170.1234500999999,170.1234500999999,170.1234500999999,170.1234500999999,170.1234500999999,170.1234500999999,170.1234500999999,170.1234500999999,170.1234500999999,,009,P015,2025_Feb_28_1901,ConditionRich,2021.2.3,59.927643363586846,
140.75,141.0,41,0.0,Stimuli/Blank.png,0,0,0.0,0,243,243,243,,,,,,,,,,,,,140.75772589999906,0.007725899999059038,None,170.85743529999672,170.85743529999672,170.85743529999672,170.85743529999672,170.85743529999672,170.85743529999672,170.85743529999672,170.85743529999672,170.85743529999672,170.85743529999672,,009,P015,2025_Feb_28_1901,ConditionRich,2021.2.3,59.927643363586846,
141.0,141.75,27,0.75,Stimuli/P015/things_girl_08s.jpg,0,0,0.0,0,244,244,244,,,,,,,,,,,,,141.00960309999937,0.00960309999936726,None,171.12437649999993,171.12437649999993,171.12437649999993,171.12437649999993,171.12437649999993,171.12437649999993,171.12437649999993,171.12437649999993,171.12437649999993,171.12437649999993,,009,P015,2025_Feb_28_1901,ConditionRich,2021.2.3,59.927643363586846,
141.75,142.0,41,0.0,Stimuli/Blank.png,0,0,0.0,0,245,245,245,,,,,,,,,,,,,141.77607830000125,0.026078300001245225,None,171.87500619999992,171.87500619999992,171.87500619999992,171.87500619999992,171.87500619999992,171.87500619999992,171.87500619999992,171.87500619999992,171.87500619999992,171.87500619999992,,009,P015,2025_Feb_28_1901,ConditionRich,2021.2.3,59.927643363586846,
142.0,142.75,27,0.75,Stimuli/P015/things_girl_08s.jpg,0,0,0.0,0,246,246,246,,,,,,,,,,,,,142.01133299999856,0.01133299999855808,None,172.1252244999996,172.1252244999996,172.1252244999996,172.1252244999996,172.1252244999996,172.1252244999996,172.1252244999996,172.1252244999996,172.1252244999996,172.1252244999996,,009,P015,2025_Feb_28_1901,ConditionRich,2021.2.3,59.927643363586846,
142.75,143.0,41,0.0,Stimuli/Blank.png,0,0,0.0,0,247,247,247,,,,,,,,,,,,,142.77655289999893,0.026552899998932844,None,172.87612349999836,172.87612349999836,172.87612349999836,172.87612349999836,172.87612349999836,172.87612349999836,172.87612349999836,172.87612349999836,172.87612349999836,172.87612349999836,,009,P015,2025_Feb_28_1901,ConditionRich,2021.2.3,59.927643363586846,
143.0,143.75,27,0.75,Stimuli/P015/things_girl_08s.jpg,0,0,0.0,0,248,248,248,,,,,,,,,,,,,143.01072249999925,0.010722499999246793,None,173.12613999999667,173.12613999999667,173.12613999999667,173.12613999999667,173.12613999999667,173.12613999999667,173.12613999999667,173.12613999999667,173.12613999999667,173.12613999999667,,009,P015,2025_Feb_28_1901,ConditionRich,2021.2.3,59.927643363586846,
143.75,144.0,41,0.0,Stimuli/Blank.png,0,0,0.0,0,249,249,249,,,,,,,,,,,,,143.77765770000042,0.027657700000418117,None,173.8767646999986,173.8767646999986,173.8767646999986,173.8767646999986,173.8767646999986,173.8767646999986,173.8767646999986,173.8767646999986,173.8767646999986,173.8767646999986,,009,P015,2025_Feb_28_1901,ConditionRich,2021.2.3,59.927643363586846,
144.0,144.75,24,0.75,Stimuli/P015/things_bunkbed_08s.jpg,0,0,0.0,0,250,250,250,,,,,,,,,,,,,144.01121330000024,0.011213300000235904,None,174.12700949999999,174.12700949999999,174.12700949999999,174.12700949999999,174.12700949999999,174.12700949999999,174.12700949999999,174.12700949999999,174.12700949999999,174.12700949999999,,009,P015,2025_Feb_28_1901,ConditionRich,2021.2.3,59.927643363586846,
144.75,145.0,41,0.0,Stimuli/Blank.png,0,0,0.0,0,251,251,251,,,,,,,,,,,,,144.77790829999867,0.027908299998671282,None,174.87765029999719,174.87765029999719,174.87765029999719,174.87765029999719,174.87765029999719,174.87765029999719,174.87765029999719,174.87765029999719,174.87765029999719,174.87765029999719,,009,P015,2025_Feb_28_1901,ConditionRich,2021.2.3,59.927643363586846,
145.0,145.75,24,0.75,Stimuli/P015/things_bunkbed_08s.jpg,0,0,0.0,0,252,252,252,,,,,,,,,,,,,145.0112665000015,0.011266500001511304,None,175.11119150000013,175.11119150000013,175.11119150000013,175.11119150000013,175.11119150000013,175.11119150000013,175.11119150000013,175.11119150000013,175.11119150000013,175.11119150000013,,009,P015,2025_Feb_28_1901,ConditionRich,2021.2.3,59.927643363586846,
145.75,146.0,41,0.0,Stimuli/Blank.png,0,0,0.0,0,253,253,253,,,,,,,,,,,,,145.76207680000152,0.012076800001523225,None,175.861855799998,175.861855799998,175.861855799998,175.861855799998,175.861855799998,175.861855799998,175.861855799998,175.861855799998,175.861855799998,175.861855799998,,009,P015,2025_Feb_28_1901,ConditionRich,2021.2.3,59.927643363586846,
146.0,146.75,24,0.75,Stimuli/P015/things_bunkbed_08s.jpg,0,0,0.0,0,254,254,254,,,,,,,,,,,,,146.0124324999997,0.012432499999704305,None,176.1121116999966,176.1121116999966,176.1121116999966,176.1121116999966,176.1121116999966,176.1121116999966,176.1121116999966,176.1121116999966,176.1121116999966,176.1121116999966,,009,P015,2025_Feb_28_1901,ConditionRich,2021.2.3,59.927643363586846,
146.75,147.0,41,0.0,Stimuli/Blank.png,0,0,0.0,0,255,255,255,,,,,,,,,,,,,146.7657747000012,0.01577470000120229,None,176.87944289999723,176.87944289999723,176.87944289999723,176.87944289999723,176.87944289999723,176.87944289999723,176.87944289999723,176.87944289999723,176.87944289999723,176.87944289999723,,009,P015,2025_Feb_28_1901,ConditionRich,2021.2.3,59.927643363586846,
147.0,147.75,24,0.75,Stimuli/P015/things_bunkbed_08s.jpg,0,0,0.0,0,256,256,256,,,,,,,,,,,,,147.01325989999896,0.013259899998956826,None,177.1296638999993,177.1296638999993,177.1296638999993,177.1296638999993,177.1296638999993,177.1296638999993,177.1296638999993,177.1296638999993,177.1296638999993,177.1296638999993,,009,P015,2025_Feb_28_1901,ConditionRich,2021.2.3,59.927643363586846,
147.75,148.0,41,0.0,Stimuli/Blank.png,0,0,0.0,0,257,257,257,,,,,,,,,,,,,147.78055640000093,0.030556400000932626,None,177.8803209999969,177.8803209999969,177.8803209999969,177.8803209999969,177.8803209999969,177.8803209999969,177.8803209999969,177.8803209999969,177.8803209999969,177.8803209999969,,009,P015,2025_Feb_28_1901,ConditionRich,2021.2.3,59.927643363586846,
148.0,148.75,33,0.75,Stimuli/P015/things_raccoon_08n.jpg,0,0,0.0,0,258,258,258,,,,,,,,,,,,,148.01414650000152,0.01414650000151596,None,178.11384550000002,178.11384550000002,178.11384550000002,178.11384550000002,178.11384550000002,178.11384550000002,178.11384550000002,178.11384550000002,178.11384550000002,178.11384550000002,,009,P015,2025_Feb_28_1901,ConditionRich,2021.2.3,59.927643363586846,
148.75,149.0,41,0.0,Stimuli/Blank.png,0,0,0.0,0,259,259,259,,,,,,,,,,,,,148.76527010000063,0.015270100000634557,None,178.86452599999757,178.86452599999757,178.86452599999757,178.86452599999757,178.86452599999757,178.86452599999757,178.86452599999757,178.86452599999757,178.86452599999757,178.86452599999757,,009,P015,2025_Feb_28_1901,ConditionRich,2021.2.3,59.927643363586846,
149.0,149.75,33,0.75,Stimuli/P015/things_raccoon_08n.jpg,0,0,0.0,0,260,260,260,,,,,,,,,,,,,149.01688659999854,0.016886599998542806,None,179.13142869999865,179.13142869999865,179.13142869999865,179.13142869999865,179.13142869999865,179.13142869999865,179.13142869999865,179.13142869999865,179.13142869999865,179.13142869999865,,009,P015,2025_Feb_28_1901,ConditionRich,2021.2.3,59.927643363586846,
149.75,150.0,41,0.0,Stimuli/Blank.png,0,0,0.0,0,261,261,261,,,,,,,,,,,,,149.7656320999995,0.01563209999949322,None,179.8653944999969,179.8653944999969,179.8653944999969,179.8653944999969,179.8653944999969,179.8653944999969,179.8653944999969,179.8653944999969,179.8653944999969,179.8653944999969,,009,P015,2025_Feb_28_1901,ConditionRich,2021.2.3,59.927643363586846,
