eventStartTime,eventEndTime,eventCond,imSize,imFile,responseEvent,fixRespStart,fixRespEnd,Events.thisRepN,Events.thisTrialN,Events.thisN,Events.thisIndex,Instructions.started,Instructions.stopped,participantReadyResponse.keys,participantReadyResponse.rt,participantReadyResponse.started,participantReadyResponse.stopped,startWaitforTrigger,triggerResponse.keys,triggerResponse.rt,triggerResponse.started,triggerResponse.stopped,globalTimer,actualStartTime,startTimingDiff,participantResponse.keys,participantResponse.started,participantResponse.stopped,image.started,image.stopped,fixationOutside.started,fixationOutside.stopped,fixationResponse.started,fixationResponse.stopped,fixationInside.started,fixationInside.stopped,participantResponse.rt,session,participant,date,expName,psychopyVersion,frameRate,
,,,,,,,,,,,,12.399537199999031,None,1,26.244526599999517,12.399537199999031,None,,,,,,,,,,,,,,,,,,,,,001,P016,2025_Mar_07_1334,ConditionRich,2021.2.3,59.92473453367025,
,,,,,,,,,,,,,,,,,,38.65068859999883,5,14.130657499998051,38.66326029999982,None,,,,,,,,,,,,,,,,001,P016,2025_Mar_07_1334,ConditionRich,2021.2.3,59.92473453367025,
0.0,4.0,0,0.0,Stimuli/Blank.png,0,0.0,0.0,0,0,0,0,,,,,,,,,,,,52.812132799997926,0.030265900000813417,0.030265900000813417,None,52.85890769999969,None,52.85890769999969,None,52.85890769999969,None,52.85890769999969,52.85890769999969,52.85890769999969,None,,001,P016,2025_Mar_07_1334,ConditionRich,2021.2.3,59.92473453367025,
4.0,4.75,40,0.75,Stimuli/P016/things_woman_08s.jpg,0,0.0,0.0,0,1,1,1,,,,,,,,,,,,,4.003134400001727,0.0031344000017270446,None,56.86302199999773,56.86302199999773,56.86302199999773,56.86302199999773,56.86302199999773,56.86302199999773,56.86302199999773,56.86302199999773,56.86302199999773,56.86302199999773,,001,P016,2025_Mar_07_1334,ConditionRich,2021.2.3,59.92473453367025,
4.75,8.0,41,0.0,Stimuli/Blank.png,1,2.25,3.0,0,2,2,2,,,,,,,,,,,,,4.788639200000034,0.03863920000003418,1,57.63009009999951,57.63009009999951,57.63009009999951,57.63009009999951,57.63009009999951,57.63009009999951,59.86510629999975,60.61580010000034,57.63009009999951,57.63009009999951,2.782883899999433,001,P016,2025_Mar_07_1334,ConditionRich,2021.2.3,59.92473453367025,
8.0,8.75,35,0.75,Stimuli/P016/things_squid_08s.jpg,0,0.0,0.0,0,3,3,3,,,,,,,,,,,,,8.02321049999955,0.02321049999954994,None,60.84930940000049,60.84930940000049,60.84930940000049,60.84930940000049,60.84930940000049,60.84930940000049,60.84930940000049,60.84930940000049,60.84930940000049,60.84930940000049,,001,P016,2025_Mar_07_1334,ConditionRich,2021.2.3,59.92473453367025,
8.75,12.0,41,0.0,Stimuli/Blank.png,1,0.25,1.0,0,4,4,4,,,,,,,,,,,,,8.758609600001364,0.008609600001364015,1,61.59997979999753,61.59997979999753,61.59997979999753,61.59997979999753,61.59997979999753,61.59997979999753,61.83353319999878,62.5842018000003,61.59997979999753,61.59997979999753,0.6032970999985992,001,P016,2025_Mar_07_1334,ConditionRich,2021.2.3,59.92473453367025,
12.0,12.75,13,0.75,Stimuli/P016/sun_bphvjnowixlryxot.jpg,0,0.0,0.0,0,5,5,5,,,,,,,,,,,,,12.028999300000578,0.028999300000577932,None,64.86953569999969,64.86953569999969,64.86953569999969,64.86953569999969,64.86953569999969,64.86953569999969,64.86953569999969,64.86953569999969,64.86953569999969,64.86953569999969,,001,P016,2025_Mar_07_1334,ConditionRich,2021.2.3,59.92473453367025,
12.75,16.0,41,0.0,Stimuli/Blank.png,0,0.0,0.0,0,6,6,6,,,,,,,,,,,,,12.778900900000735,0.02890090000073542,None,65.62019700000019,65.62019700000019,65.62019700000019,65.62019700000019,65.62019700000019,65.62019700000019,65.62019700000019,65.62019700000019,65.62019700000019,65.62019700000019,,001,P016,2025_Mar_07_1334,ConditionRich,2021.2.3,59.92473453367025,
16.0,16.75,28,0.75,Stimuli/P016/things_latte_08s.jpg,0,0.0,0.0,0,7,7,7,,,,,,,,,,,,,16.02960769999845,0.0296076999984507,None,68.87308649999977,68.87308649999977,68.87308649999977,68.87308649999977,68.87308649999977,68.87308649999977,68.87308649999977,68.87308649999977,68.87308649999977,68.87308649999977,,001,P016,2025_Mar_07_1334,ConditionRich,2021.2.3,59.92473453367025,
16.75,20.0,41,0.0,Stimuli/Blank.png,0,0.0,0.0,0,8,8,8,,,,,,,,,,,,,16.783722700001817,0.03372270000181743,None,69.62377859999833,69.62377859999833,69.62377859999833,69.62377859999833,69.62377859999833,69.62377859999833,69.62377859999833,69.62377859999833,69.62377859999833,69.62377859999833,,001,P016,2025_Mar_07_1334,ConditionRich,2021.2.3,59.92473453367025,
20.0,20.75,39,0.75,Stimuli/P016/things_window_08s.jpg,0,0.0,0.0,0,9,9,9,,,,,,,,,,,,,20.019685899998876,0.019685899998876266,None,72.87663939999766,72.87663939999766,72.87663939999766,72.87663939999766,72.87663939999766,72.87663939999766,72.87663939999766,72.87663939999766,72.87663939999766,72.87663939999766,,001,P016,2025_Mar_07_1334,ConditionRich,2021.2.3,59.92473453367025,
20.75,24.0,41,0.0,Stimuli/Blank.png,0,0.0,0.0,0,10,10,10,,,,,,,,,,,,,20.784340999998676,0.034340999998676125,None,73.61060369999905,73.61060369999905,73.61060369999905,73.61060369999905,73.61060369999905,73.61060369999905,73.61060369999905,73.61060369999905,73.61060369999905,73.61060369999905,,001,P016,2025_Mar_07_1334,ConditionRich,2021.2.3,59.92473453367025,
24.0,24.75,25,0.75,Stimuli/P016/things_deer_08s.jpg,0,0.0,0.0,0,11,11,11,,,,,,,,,,,,,24.003774600001634,0.0037746000016340986,None,76.84679399999732,76.84679399999732,76.84679399999732,76.84679399999732,76.84679399999732,76.84679399999732,76.84679399999732,76.84679399999732,76.84679399999732,76.84679399999732,,001,P016,2025_Mar_07_1334,ConditionRich,2021.2.3,59.92473453367025,
24.75,28.0,41,0.0,Stimuli/Blank.png,0,0.0,0.0,0,12,12,12,,,,,,,,,,,,,24.773234699998284,0.02323469999828376,None,77.61412969999947,77.61412969999947,77.61412969999947,77.61412969999947,77.61412969999947,77.61412969999947,77.61412969999947,77.61412969999947,77.61412969999947,77.61412969999947,,001,P016,2025_Mar_07_1334,ConditionRich,2021.2.3,59.92473453367025,
28.0,28.75,27,0.75,Stimuli/P016/things_girl_08s.jpg,0,0.0,0.0,0,13,13,13,,,,,,,,,,,,,28.02438859999893,0.02438859999892884,None,80.86704879999888,80.86704879999888,80.86704879999888,80.86704879999888,80.86704879999888,80.86704879999888,80.86704879999888,80.86704879999888,80.86704879999888,80.86704879999888,,001,P016,2025_Mar_07_1334,ConditionRich,2021.2.3,59.92473453367025,
28.75,32.0,41,0.0,Stimuli/Blank.png,0,0.0,0.0,0,14,14,14,,,,,,,,,,,,,28.774954600001365,0.02495460000136518,None,81.60097699999824,81.60097699999824,81.60097699999824,81.60097699999824,81.60097699999824,81.60097699999824,81.60097699999824,81.60097699999824,81.60097699999824,81.60097699999824,,001,P016,2025_Mar_07_1334,ConditionRich,2021.2.3,59.92473453367025,
32.0,32.75,11,0.75,Stimuli/P016/sun_bnwmcjuinqbdsbho.jpg,0,0.0,0.0,0,15,15,15,,,,,,,,,,,,,32.01348270000017,0.013482700000167824,None,84.87059389999922,84.87059389999922,84.87059389999922,84.87059389999922,84.87059389999922,84.87059389999922,84.87059389999922,84.87059389999922,84.87059389999922,84.87059389999922,,001,P016,2025_Mar_07_1334,ConditionRich,2021.2.3,59.92473453367025,
32.75,36.0,41,0.0,Stimuli/Blank.png,0,0.0,0.0,0,16,16,16,,,,,,,,,,,,,32.7946222999999,0.04462229999990086,None,85.62120180000056,85.62120180000056,85.62120180000056,85.62120180000056,85.62120180000056,85.62120180000056,85.62120180000056,85.62120180000056,85.62120180000056,85.62120180000056,,001,P016,2025_Mar_07_1334,ConditionRich,2021.2.3,59.92473453367025,
36.0,36.75,14,0.75,Stimuli/P016/sun_bpvmkbyglkraoxhh.jpg,0,0.0,0.0,0,17,17,17,,,,,,,,,,,,,36.01463199999853,0.014631999998528045,None,88.85741479999706,88.85741479999706,88.85741479999706,88.85741479999706,88.85741479999706,88.85741479999706,88.85741479999706,88.85741479999706,88.85741479999706,88.85741479999706,,001,P016,2025_Mar_07_1334,ConditionRich,2021.2.3,59.92473453367025,
36.75,40.0,41,0.0,Stimuli/Blank.png,0,0.0,0.0,0,18,18,18,,,,,,,,,,,,,36.78408439999839,0.034084399998391746,None,89.62478279999777,89.62478279999777,89.62478279999777,89.62478279999777,89.62478279999777,89.62478279999777,89.62478279999777,89.62478279999777,89.62478279999777,89.62478279999777,,001,P016,2025_Mar_07_1334,ConditionRich,2021.2.3,59.92473453367025,
40.0,40.75,30,0.75,Stimuli/P016/things_ottoman_08s.jpg,0,0.0,0.0,0,19,19,19,,,,,,,,,,,,,40.01788369999849,0.017883699998492375,None,92.84426109999913,92.84426109999913,92.84426109999913,92.84426109999913,92.84426109999913,92.84426109999913,92.84426109999913,92.84426109999913,92.84426109999913,92.84426109999913,,001,P016,2025_Mar_07_1334,ConditionRich,2021.2.3,59.92473453367025,
40.75,44.0,41,0.0,Stimuli/Blank.png,0,0.0,0.0,0,20,20,20,,,,,,,,,,,,,40.75375210000129,0.0037521000012930017,None,93.59492619999946,93.59492619999946,93.59492619999946,93.59492619999946,93.59492619999946,93.59492619999946,93.59492619999946,93.59492619999946,93.59492619999946,93.59492619999946,,001,P016,2025_Mar_07_1334,ConditionRich,2021.2.3,59.92473453367025,
44.0,44.75,5,0.75,Stimuli/P016/sun_ajgmxbrxdpmsaext.jpg,0,0.0,0.0,0,21,21,21,,,,,,,,,,,,,44.02277849999882,0.022778499998821644,None,96.88117240000065,96.88117240000065,96.88117240000065,96.88117240000065,96.88117240000065,96.88117240000065,96.88117240000065,96.88117240000065,96.88117240000065,96.88117240000065,,001,P016,2025_Mar_07_1334,ConditionRich,2021.2.3,59.92473453367025,
44.75,48.0,41,0.0,Stimuli/Blank.png,1,0.25,1.0,0,22,22,22,,,,,,,,,,,,,44.78905719999966,0.03905719999966095,1,97.61513759999798,97.61513759999798,97.61513759999798,97.61513759999798,97.61513759999798,97.61513759999798,97.84866799999872,98.5993372999983,97.61513759999798,97.61513759999798,0.7460825000016484,001,P016,2025_Mar_07_1334,ConditionRich,2021.2.3,59.92473453367025,
48.0,48.75,21,0.75,Stimuli/P016/things_arch_08s.jpg,0,0.0,0.0,0,23,23,23,,,,,,,,,,,,,48.008078800001385,0.008078800001385389,None,100.8513357999982,100.8513357999982,100.8513357999982,100.8513357999982,100.8513357999982,100.8513357999982,100.8513357999982,100.8513357999982,100.8513357999982,100.8513357999982,,001,P016,2025_Mar_07_1334,ConditionRich,2021.2.3,59.92473453367025,
48.75,52.0,41,0.0,Stimuli/Blank.png,0,0.0,0.0,0,24,24,24,,,,,,,,,,,,,48.77575240000078,0.025752400000783382,None,101.60199680000005,101.60199680000005,101.60199680000005,101.60199680000005,101.60199680000005,101.60199680000005,101.60199680000005,101.60199680000005,101.60199680000005,101.60199680000005,,001,P016,2025_Mar_07_1334,ConditionRich,2021.2.3,59.92473453367025,
52.0,52.75,24,0.75,Stimuli/P016/things_bunkbed_08s.jpg,0,0.0,0.0,0,25,25,25,,,,,,,,,,,,,52.01326179999887,0.013261799998872448,None,104.85489029999735,104.85489029999735,104.85489029999735,104.85489029999735,104.85489029999735,104.85489029999735,104.85489029999735,104.85489029999735,104.85489029999735,104.85489029999735,,001,P016,2025_Mar_07_1334,ConditionRich,2021.2.3,59.92473453367025,
52.75,56.0,41,0.0,Stimuli/Blank.png,1,1.25,2.0,0,26,26,26,,,,,,,,,,,,,52.77927279999858,0.029272799998580012,1,105.60551139999734,105.60551139999734,105.60551139999734,105.60551139999734,105.60551139999734,105.60551139999734,106.83995069999946,107.59062339999946,105.60551139999734,105.60551139999734,1.6456627000006847,001,P016,2025_Mar_07_1334,ConditionRich,2021.2.3,59.92473453367025,
56.0,56.75,18,0.75,Stimuli/P016/sun_byavixgfuhzioilz.jpg,0,0.0,0.0,0,27,27,27,,,,,,,,,,,,,56.016105400001834,0.016105400001833914,None,108.87512860000061,108.87512860000061,108.87512860000061,108.87512860000061,108.87512860000061,108.87512860000061,108.87512860000061,108.87512860000061,108.87512860000061,108.87512860000061,,001,P016,2025_Mar_07_1334,ConditionRich,2021.2.3,59.92473453367025,
56.75,60.0,41,0.0,Stimuli/Blank.png,0,0.0,0.0,0,28,28,28,,,,,,,,,,,,,56.78292420000071,0.03292420000070706,None,109.60907790000056,109.60907790000056,109.60907790000056,109.60907790000056,109.60907790000056,109.60907790000056,109.60907790000056,109.60907790000056,109.60907790000056,109.60907790000056,,001,P016,2025_Mar_07_1334,ConditionRich,2021.2.3,59.92473453367025,
60.0,60.75,33,0.75,Stimuli/P016/things_raccoon_08n.jpg,0,0.0,0.0,0,29,29,29,,,,,,,,,,,,,60.00277139999889,0.002771399998891866,None,112.8619680999982,112.8619680999982,112.8619680999982,112.8619680999982,112.8619680999982,112.8619680999982,112.8619680999982,112.8619680999982,112.8619680999982,112.8619680999982,,001,P016,2025_Mar_07_1334,ConditionRich,2021.2.3,59.92473453367025,
60.75,64.0,41,0.0,Stimuli/Blank.png,0,0.0,0.0,0,30,30,30,,,,,,,,,,,,,60.78892650000125,0.03892650000125286,None,113.62930369999958,113.62930369999958,113.62930369999958,113.62930369999958,113.62930369999958,113.62930369999958,113.62930369999958,113.62930369999958,113.62930369999958,113.62930369999958,,001,P016,2025_Mar_07_1334,ConditionRich,2021.2.3,59.92473453367025,
64.0,64.75,32,0.75,Stimuli/P016/things_pheasant_08s.jpg,0,0.0,0.0,0,31,31,31,,,,,,,,,,,,,64.02309149999928,0.02309149999928195,None,116.86550910000005,116.86550910000005,116.86550910000005,116.86550910000005,116.86550910000005,116.86550910000005,116.86550910000005,116.86550910000005,116.86550910000005,116.86550910000005,,001,P016,2025_Mar_07_1334,ConditionRich,2021.2.3,59.92473453367025,
64.75,68.0,41,0.0,Stimuli/Blank.png,0,0.0,0.0,0,32,32,32,,,,,,,,,,,,,64.77273140000034,0.02273140000033891,None,117.59945759999755,117.59945759999755,117.59945759999755,117.59945759999755,117.59945759999755,117.59945759999755,117.59945759999755,117.59945759999755,117.59945759999755,117.59945759999755,,001,P016,2025_Mar_07_1334,ConditionRich,2021.2.3,59.92473453367025,
68.0,68.75,10,0.75,Stimuli/P016/sun_bfojpvrlsrtfyzio.jpg,0,0.0,0.0,0,33,33,33,,,,,,,,,,,,,68.00905910000074,0.009059100000740727,None,120.85237439999764,120.85237439999764,120.85237439999764,120.85237439999764,120.85237439999764,120.85237439999764,120.85237439999764,120.85237439999764,120.85237439999764,120.85237439999764,,001,P016,2025_Mar_07_1334,ConditionRich,2021.2.3,59.92473453367025,
68.75,72.0,41,0.0,Stimuli/Blank.png,0,0.0,0.0,0,34,34,34,,,,,,,,,,,,,68.77837809999983,0.0283780999998271,None,121.61969089999911,121.61969089999911,121.61969089999911,121.61969089999911,121.61969089999911,121.61969089999911,121.61969089999911,121.61969089999911,121.61969089999911,121.61969089999911,,001,P016,2025_Mar_07_1334,ConditionRich,2021.2.3,59.92473453367025,
72.0,72.75,16,0.75,Stimuli/P016/sun_bwhuwxazfqwuqhik.jpg,0,0.0,0.0,0,35,35,35,,,,,,,,,,,,,72.02910279999924,0.029102799999236595,None,124.8725338999975,124.8725338999975,124.8725338999975,124.8725338999975,124.8725338999975,124.8725338999975,124.8725338999975,124.8725338999975,124.8725338999975,124.8725338999975,,001,P016,2025_Mar_07_1334,ConditionRich,2021.2.3,59.92473453367025,
72.75,76.0,41,0.0,Stimuli/Blank.png,0,0.0,0.0,0,36,36,36,,,,,,,,,,,,,72.78032130000065,0.030321300000650808,None,125.60654369999975,125.60654369999975,125.60654369999975,125.60654369999975,125.60654369999975,125.60654369999975,125.60654369999975,125.60654369999975,125.60654369999975,125.60654369999975,,001,P016,2025_Mar_07_1334,ConditionRich,2021.2.3,59.92473453367025,
76.0,76.75,3,0.75,Stimuli/P016/sun_aiogwnavezqxkzfg.jpg,0,0.0,0.0,0,37,37,37,,,,,,,,,,,,,75.99933130000136,-0.0006686999986413866,None,128.85938779999924,128.85938779999924,128.85938779999924,128.85938779999924,128.85938779999924,128.85938779999924,128.85938779999924,128.85938779999924,128.85938779999924,128.85938779999924,,001,P016,2025_Mar_07_1334,ConditionRich,2021.2.3,59.92473453367025,
76.75,80.0,41,0.0,Stimuli/Blank.png,0,0.0,0.0,0,38,38,38,,,,,,,,,,,,,76.78391539999939,0.033915399999386864,None,129.6100841999978,129.6100841999978,129.6100841999978,129.6100841999978,129.6100841999978,129.6100841999978,129.6100841999978,129.6100841999978,129.6100841999978,129.6100841999978,,001,P016,2025_Mar_07_1334,ConditionRich,2021.2.3,59.92473453367025,
80.0,80.75,20,0.75,Stimuli/P016/sun_bzmxulijbnmshodq.jpg,0,0.0,0.0,0,39,39,39,,,,,,,,,,,,,80.00338810000176,0.003388100001757266,None,132.8462916999997,132.8462916999997,132.8462916999997,132.8462916999997,132.8462916999997,132.8462916999997,132.8462916999997,132.8462916999997,132.8462916999997,132.8462916999997,,001,P016,2025_Mar_07_1334,ConditionRich,2021.2.3,59.92473453367025,
80.75,84.0,41,0.0,Stimuli/Blank.png,0,0.0,0.0,0,40,40,40,,,,,,,,,,,,,80.77022560000114,0.020225600001140265,None,133.59694909999962,133.59694909999962,133.59694909999962,133.59694909999962,133.59694909999962,133.59694909999962,133.59694909999962,133.59694909999962,133.59694909999962,133.59694909999962,,001,P016,2025_Mar_07_1334,ConditionRich,2021.2.3,59.92473453367025,
84.0,100.0,0,0.0,Stimuli/Blank.png,1,6.0,6.75,0,41,41,41,,,,,,,,,,,,,84.00735609999901,0.007356099999014987,1,136.83313169999747,136.83313169999747,136.83313169999747,136.83313169999747,136.83313169999747,136.83313169999747,142.8217302999983,143.57242349999797,136.83313169999747,136.83313169999747,6.497907900000428,001,P016,2025_Mar_07_1334,ConditionRich,2021.2.3,59.92473453367025,
100.0,100.75,2,0.75,Stimuli/P016/sun_agzfkftryitnqpxc.jpg,0,0.0,0.0,0,42,42,42,,,,,,,,,,,,,100.00456459999987,0.004564599999866914,1,152.86398030000055,152.86398030000055,152.86398030000055,152.86398030000055,152.86398030000055,152.86398030000055,152.86398030000055,152.86398030000055,152.86398030000055,152.86398030000055,0.35198680000030436,001,P016,2025_Mar_07_1334,ConditionRich,2021.2.3,59.92473453367025,
100.75,104.0,41,0.0,Stimuli/Blank.png,1,2.25,3.0,0,43,43,43,,,,,,,,,,,,,100.78784929999892,0.037849299998924835,1,153.61460049999732,153.61460049999732,153.61460049999732,153.61460049999732,153.61460049999732,153.61460049999732,155.84994899999947,156.60061309999946,153.61460049999732,153.61460049999732,2.7243976999998267,001,P016,2025_Mar_07_1334,ConditionRich,2021.2.3,59.92473453367025,
104.0,104.75,31,0.75,Stimuli/P016/things_outlet_08s.jpg,0,0.0,0.0,0,44,44,44,,,,,,,,,,,,,104.00747240000055,0.0074724000005517155,None,156.83414389999962,156.83414389999962,156.83414389999962,156.83414389999962,156.83414389999962,156.83414389999962,156.83414389999962,156.83414389999962,156.83414389999962,156.83414389999962,,001,P016,2025_Mar_07_1334,ConditionRich,2021.2.3,59.92473453367025,
104.75,108.0,41,0.0,Stimuli/Blank.png,0,0.0,0.0,0,45,45,45,,,,,,,,,,,,,104.75874889999977,0.00874889999977313,None,157.58481530000063,157.58481530000063,157.58481530000063,157.58481530000063,157.58481530000063,157.58481530000063,157.58481530000063,157.58481530000063,157.58481530000063,157.58481530000063,,001,P016,2025_Mar_07_1334,ConditionRich,2021.2.3,59.92473453367025,
108.0,108.75,6,0.75,Stimuli/P016/sun_akecfasimgpbqcnt.jpg,0,0.0,0.0,0,46,46,46,,,,,,,,,,,,,108.0110910000003,0.01109100000030594,None,160.83767629999784,160.83767629999784,160.83767629999784,160.83767629999784,160.83767629999784,160.83767629999784,160.83767629999784,160.83767629999784,160.83767629999784,160.83767629999784,,001,P016,2025_Mar_07_1334,ConditionRich,2021.2.3,59.92473453367025,
108.75,112.0,41,0.0,Stimuli/Blank.png,0,0.0,0.0,0,47,47,47,,,,,,,,,,,,,108.76226680000036,0.0122668000003614,None,161.5883475999981,161.5883475999981,161.5883475999981,161.5883475999981,161.5883475999981,161.5883475999981,161.5883475999981,161.5883475999981,161.5883475999981,161.5883475999981,,001,P016,2025_Mar_07_1334,ConditionRich,2021.2.3,59.92473453367025,
112.0,112.75,36,0.75,Stimuli/P016/things_streetlight_08s.jpg,0,0.0,0.0,0,48,48,48,,,,,,,,,,,,,112.01455300000089,0.01455300000088755,None,164.85790730000008,164.85790730000008,164.85790730000008,164.85790730000008,164.85790730000008,164.85790730000008,164.85790730000008,164.85790730000008,164.85790730000008,164.85790730000008,,001,P016,2025_Mar_07_1334,ConditionRich,2021.2.3,59.92473453367025,
112.75,116.0,41,0.0,Stimuli/Blank.png,0,0.0,0.0,0,49,49,49,,,,,,,,,,,,,112.78301270000156,0.033012700001563644,None,165.60877219999747,165.60877219999747,165.60877219999747,165.60877219999747,165.60877219999747,165.60877219999747,165.60877219999747,165.60877219999747,165.60877219999747,165.60877219999747,,001,P016,2025_Mar_07_1334,ConditionRich,2021.2.3,59.92473453367025,
116.0,116.75,4,0.75,Stimuli/P016/sun_aiwuqxdqzftsfyeg.jpg,0,0.0,0.0,0,50,50,50,,,,,,,,,,,,,116.00185920000149,0.0018592000014905352,None,168.84475910000037,168.84475910000037,168.84475910000037,168.84475910000037,168.84475910000037,168.84475910000037,168.84475910000037,168.84475910000037,168.84475910000037,168.84475910000037,,001,P016,2025_Mar_07_1334,ConditionRich,2021.2.3,59.92473453367025,
116.75,120.0,41,0.0,Stimuli/Blank.png,0,0.0,0.0,0,51,51,51,,,,,,,,,,,,,116.76932220000162,0.01932220000162488,None,169.59544209999876,169.59544209999876,169.59544209999876,169.59544209999876,169.59544209999876,169.59544209999876,169.59544209999876,169.59544209999876,169.59544209999876,169.59544209999876,,001,P016,2025_Mar_07_1334,ConditionRich,2021.2.3,59.92473453367025,
120.0,120.75,7,0.75,Stimuli/P016/sun_aqdfrmtvewaapuqs.jpg,0,0.0,0.0,0,52,52,52,,,,,,,,,,,,,120.00539349999963,0.005393499999627238,None,172.8649817000005,172.8649817000005,172.8649817000005,172.8649817000005,172.8649817000005,172.8649817000005,172.8649817000005,172.8649817000005,172.8649817000005,172.8649817000005,,001,P016,2025_Mar_07_1334,ConditionRich,2021.2.3,59.92473453367025,
120.75,124.0,41,0.0,Stimuli/Blank.png,0,0.0,0.0,0,53,53,53,,,,,,,,,,,,,120.78891579999981,0.038915799999813316,None,173.61565680000058,173.61565680000058,173.61565680000058,173.61565680000058,173.61565680000058,173.61565680000058,173.61565680000058,173.61565680000058,173.61565680000058,173.61565680000058,,001,P016,2025_Mar_07_1334,ConditionRich,2021.2.3,59.92473453367025,
124.0,124.75,8,0.75,Stimuli/P016/sun_arldxotvfucvuudk.jpg,0,0.0,0.0,0,54,54,54,,,,,,,,,,,,,124.00897780000014,0.008977800000138814,None,176.85185219999767,176.85185219999767,176.85185219999767,176.85185219999767,176.85185219999767,176.85185219999767,176.85185219999767,176.85185219999767,176.85185219999767,176.85185219999767,,001,P016,2025_Mar_07_1334,ConditionRich,2021.2.3,59.92473453367025,
124.75,128.0,41,0.0,Stimuli/Blank.png,0,0.0,0.0,0,55,55,55,,,,,,,,,,,,,124.77654899999834,0.02654899999834015,None,177.60250839999935,177.60250839999935,177.60250839999935,177.60250839999935,177.60250839999935,177.60250839999935,177.60250839999935,177.60250839999935,177.60250839999935,177.60250839999935,,001,P016,2025_Mar_07_1334,ConditionRich,2021.2.3,59.92473453367025,
128.0,128.75,37,0.75,Stimuli/P016/things_swizzle_stick_08s.jpg,0,0.0,0.0,0,56,56,56,,,,,,,,,,,,,128.01491259999966,0.014912599999661325,None,180.85539419999986,180.85539419999986,180.85539419999986,180.85539419999986,180.85539419999986,180.85539419999986,180.85539419999986,180.85539419999986,180.85539419999986,180.85539419999986,,001,P016,2025_Mar_07_1334,ConditionRich,2021.2.3,59.92473453367025,
128.75,132.0,41,0.0,Stimuli/Blank.png,1,1.25,2.0,0,57,57,57,,,,,,,,,,,,,128.77924110000095,0.029241100000945153,1,181.60609379999732,181.60609379999732,181.60609379999732,181.60609379999732,181.60609379999732,181.60609379999732,182.84047129999817,183.59203979999802,181.60609379999732,181.60609379999732,1.705994300002203,001,P016,2025_Mar_07_1334,ConditionRich,2021.2.3,59.92473453367025,
132.0,132.75,29,0.75,Stimuli/P016/things_mouse1_08s.jpg,0,0.0,0.0,0,58,58,58,,,,,,,,,,,,,132.01609689999896,0.01609689999895636,None,184.85890909999944,184.85890909999944,184.85890909999944,184.85890909999944,184.85890909999944,184.85890909999944,184.85890909999944,184.85890909999944,184.85890909999944,184.85890909999944,,001,P016,2025_Mar_07_1334,ConditionRich,2021.2.3,59.92473453367025,
132.75,136.0,41,0.0,Stimuli/Blank.png,0,0.0,0.0,0,59,59,59,,,,,,,,,,,,,132.7661569999982,0.016156999998202082,None,185.59289480000007,185.59289480000007,185.59289480000007,185.59289480000007,185.59289480000007,185.59289480000007,185.59289480000007,185.59289480000007,185.59289480000007,185.59289480000007,,001,P016,2025_Mar_07_1334,ConditionRich,2021.2.3,59.92473453367025,
136.0,136.75,1,0.75,Stimuli/P016/sun_aacpzgqrortyhyss.jpg,0,0.0,0.0,0,60,60,60,,,,,,,,,,,,,136.00298850000036,0.002988500000355998,None,188.86246259999825,188.86246259999825,188.86246259999825,188.86246259999825,188.86246259999825,188.86246259999825,188.86246259999825,188.86246259999825,188.86246259999825,188.86246259999825,,001,P016,2025_Mar_07_1334,ConditionRich,2021.2.3,59.92473453367025,
136.75,140.0,41,0.0,Stimuli/Blank.png,0,0.0,0.0,0,61,61,61,,,,,,,,,,,,,136.78762490000008,0.03762490000008256,None,189.61312559999715,189.61312559999715,189.61312559999715,189.61312559999715,189.61312559999715,189.61312559999715,189.61312559999715,189.61312559999715,189.61312559999715,189.61312559999715,,001,P016,2025_Mar_07_1334,ConditionRich,2021.2.3,59.92473453367025,
140.0,140.75,26,0.75,Stimuli/P016/things_face_08s.jpg,0,0.0,0.0,0,62,62,62,,,,,,,,,,,,,140.00580460000128,0.0058046000012836885,None,192.86599609999757,192.86599609999757,192.86599609999757,192.86599609999757,192.86599609999757,192.86599609999757,192.86599609999757,192.86599609999757,192.86599609999757,192.86599609999757,,001,P016,2025_Mar_07_1334,ConditionRich,2021.2.3,59.92473453367025,
140.75,144.0,41,0.0,Stimuli/Blank.png,0,0.0,0.0,0,63,63,63,,,,,,,,,,,,,140.7909279000014,0.04092790000140667,None,193.61666949999926,193.61666949999926,193.61666949999926,193.61666949999926,193.61666949999926,193.61666949999926,193.61666949999926,193.61666949999926,193.61666949999926,193.61666949999926,,001,P016,2025_Mar_07_1334,ConditionRich,2021.2.3,59.92473453367025,
144.0,144.75,22,0.75,Stimuli/P016/things_baby_08s.jpg,0,0.0,0.0,0,64,64,64,,,,,,,,,,,,,144.0094911999986,0.009491199998592492,None,196.85283899999922,196.85283899999922,196.85283899999922,196.85283899999922,196.85283899999922,196.85283899999922,196.85283899999922,196.85283899999922,196.85283899999922,196.85283899999922,,001,P016,2025_Mar_07_1334,ConditionRich,2021.2.3,59.92473453367025,
144.75,148.0,41,0.0,Stimuli/Blank.png,0,0.0,0.0,0,65,65,65,,,,,,,,,,,,,144.77968659999897,0.029686599998967722,None,197.62019879999934,197.62019879999934,197.62019879999934,197.62019879999934,197.62019879999934,197.62019879999934,197.62019879999934,197.62019879999934,197.62019879999934,197.62019879999934,,001,P016,2025_Mar_07_1334,ConditionRich,2021.2.3,59.92473453367025,
148.0,148.75,23,0.75,Stimuli/P016/things_boy_08s.jpg,0,0.0,0.0,0,66,66,66,,,,,,,,,,,,,148.01388600000064,0.013886000000638887,None,200.87307639999926,200.87307639999926,200.87307639999926,200.87307639999926,200.87307639999926,200.87307639999926,200.87307639999926,200.87307639999926,200.87307639999926,200.87307639999926,,001,P016,2025_Mar_07_1334,ConditionRich,2021.2.3,59.92473453367025,
148.75,152.0,41,0.0,Stimuli/Blank.png,0,0.0,0.0,0,67,67,67,,,,,,,,,,,,,148.79769039999883,0.04769039999882807,None,201.62374219999765,201.62374219999765,201.62374219999765,201.62374219999765,201.62374219999765,201.62374219999765,201.62374219999765,201.62374219999765,201.62374219999765,201.62374219999765,,001,P016,2025_Mar_07_1334,ConditionRich,2021.2.3,59.92473453367025,
152.0,152.75,12,0.75,Stimuli/P016/sun_boffixsnbbloarty.jpg,1,0.0,0.75,0,68,68,68,,,,,,,,,,,,,152.0006085999994,0.0006085999993956648,1,204.84323930000028,204.84323930000028,204.84323930000028,204.84323930000028,204.84323930000028,204.84323930000028,204.84323930000028,205.57727130000058,204.84323930000028,204.84323930000028,0.551824400001351,001,P016,2025_Mar_07_1334,ConditionRich,2021.2.3,59.92473453367025,
152.75,156.0,41,0.0,Stimuli/Blank.png,0,0.0,0.0,0,69,69,69,,,,,,,,,,,,,152.7676132000015,0.017613200001505902,None,205.59390319999875,205.59390319999875,205.59390319999875,205.59390319999875,205.59390319999875,205.59390319999875,205.59390319999875,205.59390319999875,205.59390319999875,205.59390319999875,,001,P016,2025_Mar_07_1334,ConditionRich,2021.2.3,59.92473453367025,
156.0,156.75,19,0.75,Stimuli/P016/sun_bzhwvgrzvttqoexa.jpg,0,0.0,0.0,0,70,70,70,,,,,,,,,,,,,156.00347269999838,0.0034726999983831774,None,208.84679379999943,208.84679379999943,208.84679379999943,208.84679379999943,208.84679379999943,208.84679379999943,208.84679379999943,208.84679379999943,208.84679379999943,208.84679379999943,,001,P016,2025_Mar_07_1334,ConditionRich,2021.2.3,59.92473453367025,
156.75,160.0,41,0.0,Stimuli/Blank.png,0,0.0,0.0,0,71,71,71,,,,,,,,,,,,,156.77103720000014,0.02103720000013709,None,209.5974357999985,209.5974357999985,209.5974357999985,209.5974357999985,209.5974357999985,209.5974357999985,209.5974357999985,209.5974357999985,209.5974357999985,209.5974357999985,,001,P016,2025_Mar_07_1334,ConditionRich,2021.2.3,59.92473453367025,
160.0,160.75,9,0.75,Stimuli/P016/sun_bbdgftzhpkaklkll.jpg,0,0.0,0.0,0,72,72,72,,,,,,,,,,,,,160.0086427999995,0.008642799999506678,None,212.85032030000002,212.85032030000002,212.85032030000002,212.85032030000002,212.85032030000002,212.85032030000002,212.85032030000002,212.85032030000002,212.85032030000002,212.85032030000002,,001,P016,2025_Mar_07_1334,ConditionRich,2021.2.3,59.92473453367025,
160.75,164.0,41,0.0,Stimuli/Blank.png,0,0.0,0.0,0,73,73,73,,,,,,,,,,,,,160.77459729999828,0.024597299998276867,None,213.60098490000019,213.60098490000019,213.60098490000019,213.60098490000019,213.60098490000019,213.60098490000019,213.60098490000019,213.60098490000019,213.60098490000019,213.60098490000019,,001,P016,2025_Mar_07_1334,ConditionRich,2021.2.3,59.92473453367025,
164.0,164.75,15,0.75,Stimuli/P016/sun_bvfcijehgdsndfbg.jpg,0,0.0,0.0,0,74,74,74,,,,,,,,,,,,,164.01035780000166,0.01035780000165687,None,216.8538766999991,216.8538766999991,216.8538766999991,216.8538766999991,216.8538766999991,216.8538766999991,216.8538766999991,216.8538766999991,216.8538766999991,216.8538766999991,,001,P016,2025_Mar_07_1334,ConditionRich,2021.2.3,59.92473453367025,
164.75,168.0,41,0.0,Stimuli/Blank.png,1,0.25,1.0,0,75,75,75,,,,,,,,,,,,,164.77826170000117,0.0282617000011669,1,217.60452280000027,217.60452280000027,217.60452280000027,217.60452280000027,217.60452280000027,217.60452280000027,217.8381064999994,218.58873200000016,217.60452280000027,217.60452280000027,0.7134872999995423,001,P016,2025_Mar_07_1334,ConditionRich,2021.2.3,59.92473453367025,
168.0,168.75,38,0.75,Stimuli/P016/things_trumpet_08s.jpg,0,0.0,0.0,0,76,76,76,,,,,,,,,,,,,168.01474790000066,0.014747900000656955,None,220.8573996999985,220.8573996999985,220.8573996999985,220.8573996999985,220.8573996999985,220.8573996999985,220.8573996999985,220.8573996999985,220.8573996999985,220.8573996999985,,001,P016,2025_Mar_07_1334,ConditionRich,2021.2.3,59.92473453367025,
168.75,172.0,41,0.0,Stimuli/Blank.png,0,0.0,0.0,0,77,77,77,,,,,,,,,,,,,168.78357300000062,0.03357300000061514,None,221.62475780000022,221.62475780000022,221.62475780000022,221.62475780000022,221.62475780000022,221.62475780000022,221.62475780000022,221.62475780000022,221.62475780000022,221.62475780000022,,001,P016,2025_Mar_07_1334,ConditionRich,2021.2.3,59.92473453367025,
172.0,172.75,34,0.75,Stimuli/P016/things_shower_cap_08s.jpg,0,0.0,0.0,0,78,78,78,,,,,,,,,,,,,172.0187564000007,0.018756400000711437,None,224.86093099999925,224.86093099999925,224.86093099999925,224.86093099999925,224.86093099999925,224.86093099999925,224.86093099999925,224.86093099999925,224.86093099999925,224.86093099999925,,001,P016,2025_Mar_07_1334,ConditionRich,2021.2.3,59.92473453367025,
172.75,176.0,41,0.0,Stimuli/Blank.png,0,0.0,0.0,0,79,79,79,,,,,,,,,,,,,172.7687920999997,0.01879209999970044,None,225.59492079999836,225.59492079999836,225.59492079999836,225.59492079999836,225.59492079999836,225.59492079999836,225.59492079999836,225.59492079999836,225.59492079999836,225.59492079999836,,001,P016,2025_Mar_07_1334,ConditionRich,2021.2.3,59.92473453367025,
176.0,176.75,17,0.75,Stimuli/P016/sun_bxhbltvqnpaciuzt.jpg,0,0.0,0.0,0,80,80,80,,,,,,,,,,,,,176.00463260000106,0.0046326000010594726,None,228.84779459999845,228.84779459999845,228.84779459999845,228.84779459999845,228.84779459999845,228.84779459999845,228.84779459999845,228.84779459999845,228.84779459999845,228.84779459999845,,001,P016,2025_Mar_07_1334,ConditionRich,2021.2.3,59.92473453367025,
176.75,180.0,41,0.0,Stimuli/Blank.png,0,0.0,0.0,0,81,81,81,,,,,,,,,,,,,176.77382579999903,0.023825799999031005,None,229.61513639999976,229.61513639999976,229.61513639999976,229.61513639999976,229.61513639999976,229.61513639999976,229.61513639999976,229.61513639999976,229.61513639999976,229.61513639999976,,001,P016,2025_Mar_07_1334,ConditionRich,2021.2.3,59.92473453367025,
180.0,196.0,0,0.0,Stimuli/Blank.png,1,10.0,10.75,0,82,82,82,,,,,,,,,,,,,180.02526800000123,0.025268000001233304,1,232.8513329999987,232.8513329999987,232.8513329999987,232.8513329999987,232.8513329999987,232.8513329999987,242.8434875999992,243.5941571000003,232.8513329999987,232.8513329999987,10.357620899998437,001,P016,2025_Mar_07_1334,ConditionRich,2021.2.3,59.92473453367025,
196.0,196.75,15,0.75,Stimuli/P016/sun_bvfcijehgdsndfbg.jpg,0,0.0,0.0,0,83,83,83,,,,,,,,,,,,,196.00629729999855,0.006297299998550443,None,248.84883329999866,248.84883329999866,248.84883329999866,248.84883329999866,248.84883329999866,248.84883329999866,248.84883329999866,248.84883329999866,248.84883329999866,248.84883329999866,,001,P016,2025_Mar_07_1334,ConditionRich,2021.2.3,59.92473453367025,
196.75,200.0,41,0.0,Stimuli/Blank.png,0,0.0,0.0,0,84,84,84,,,,,,,,,,,,,196.77424450000035,0.024244500000349944,None,249.59946529999797,249.59946529999797,249.59946529999797,249.59946529999797,249.59946529999797,249.59946529999797,249.59946529999797,249.59946529999797,249.59946529999797,249.59946529999797,,001,P016,2025_Mar_07_1334,ConditionRich,2021.2.3,59.92473453367025,
200.0,200.75,35,0.75,Stimuli/P016/things_squid_08s.jpg,0,0.0,0.0,0,85,85,85,,,,,,,,,,,,,200.0093123000006,0.009312300000601681,None,252.83566209999844,252.83566209999844,252.83566209999844,252.83566209999844,252.83566209999844,252.83566209999844,252.83566209999844,252.83566209999844,252.83566209999844,252.83566209999844,,001,P016,2025_Mar_07_1334,ConditionRich,2021.2.3,59.92473453367025,
200.75,204.0,41,0.0,Stimuli/Blank.png,0,0.0,0.0,0,86,86,86,,,,,,,,,,,,,200.7602814999991,0.010281499999109656,None,253.5863255999975,253.5863255999975,253.5863255999975,253.5863255999975,253.5863255999975,253.5863255999975,253.5863255999975,253.5863255999975,253.5863255999975,253.5863255999975,,001,P016,2025_Mar_07_1334,ConditionRich,2021.2.3,59.92473453367025,
204.0,204.75,30,0.75,Stimuli/P016/things_ottoman_08s.jpg,0,0.0,0.0,0,87,87,87,,,,,,,,,,,,,204.01289349999934,0.0128934999993362,None,256.8391910999999,256.8391910999999,256.8391910999999,256.8391910999999,256.8391910999999,256.8391910999999,256.8391910999999,256.8391910999999,256.8391910999999,256.8391910999999,,001,P016,2025_Mar_07_1334,ConditionRich,2021.2.3,59.92473453367025,
204.75,208.0,41,0.0,Stimuli/Blank.png,0,0.0,0.0,0,88,88,88,,,,,,,,,,,,,204.76307390000147,0.013073900001472794,None,257.5898554999985,257.5898554999985,257.5898554999985,257.5898554999985,257.5898554999985,257.5898554999985,257.5898554999985,257.5898554999985,257.5898554999985,257.5898554999985,,001,P016,2025_Mar_07_1334,ConditionRich,2021.2.3,59.92473453367025,
208.0,208.75,40,0.75,Stimuli/P016/things_woman_08s.jpg,0,0.0,0.0,0,89,89,89,,,,,,,,,,,,,207.9993902999995,-0.0006097000004956499,None,260.82604829999764,260.82604829999764,260.82604829999764,260.82604829999764,260.82604829999764,260.82604829999764,260.82604829999764,260.82604829999764,260.82604829999764,260.82604829999764,,001,P016,2025_Mar_07_1334,ConditionRich,2021.2.3,59.92473453367025,
208.75,212.0,41,0.0,Stimuli/Blank.png,0,0.0,0.0,0,90,90,90,,,,,,,,,,,,,208.74995299999864,-4.70000013592653e-05,None,261.57671499999924,261.57671499999924,261.57671499999924,261.57671499999924,261.57671499999924,261.57671499999924,261.57671499999924,261.57671499999924,261.57671499999924,261.57671499999924,,001,P016,2025_Mar_07_1334,ConditionRich,2021.2.3,59.92473453367025,
212.0,212.75,18,0.75,Stimuli/P016/sun_byavixgfuhzioilz.jpg,0,0.0,0.0,0,91,91,91,,,,,,,,,,,,,212.00404200000048,0.004042000000481494,None,264.8462918999976,264.8462918999976,264.8462918999976,264.8462918999976,264.8462918999976,264.8462918999976,264.8462918999976,264.8462918999976,264.8462918999976,264.8462918999976,,001,P016,2025_Mar_07_1334,ConditionRich,2021.2.3,59.92473453367025,
212.75,216.0,41,0.0,Stimuli/Blank.png,0,0.0,0.0,0,92,92,92,,,,,,,,,,,,,212.7702676000008,0.02026760000080685,None,265.59693049999987,265.59693049999987,265.59693049999987,265.59693049999987,265.59693049999987,265.59693049999987,265.59693049999987,265.59693049999987,265.59693049999987,265.59693049999987,,001,P016,2025_Mar_07_1334,ConditionRich,2021.2.3,59.92473453367025,
216.0,216.75,24,0.75,Stimuli/P016/things_bunkbed_08s.jpg,0,0.0,0.0,0,93,93,93,,,,,,,,,,,,,216.00960040000064,0.009600400000636,None,268.8498183999982,268.8498183999982,268.8498183999982,268.8498183999982,268.8498183999982,268.8498183999982,268.8498183999982,268.8498183999982,268.8498183999982,268.8498183999982,,001,P016,2025_Mar_07_1334,ConditionRich,2021.2.3,59.92473453367025,
216.75,220.0,41,0.0,Stimuli/Blank.png,0,0.0,0.0,0,94,94,94,,,,,,,,,,,,,216.774687000001,0.024687000000994885,None,269.6004697999997,269.6004697999997,269.6004697999997,269.6004697999997,269.6004697999997,269.6004697999997,269.6004697999997,269.6004697999997,269.6004697999997,269.6004697999997,,001,P016,2025_Mar_07_1334,ConditionRich,2021.2.3,59.92473453367025,
220.0,220.75,36,0.75,Stimuli/P016/things_streetlight_08s.jpg,0,0.0,0.0,0,95,95,95,,,,,,,,,,,,,220.01068899999882,0.010688999998819781,None,272.83667149999746,272.83667149999746,272.83667149999746,272.83667149999746,272.83667149999746,272.83667149999746,272.83667149999746,272.83667149999746,272.83667149999746,272.83667149999746,,001,P016,2025_Mar_07_1334,ConditionRich,2021.2.3,59.92473453367025,
220.75,224.0,41,0.0,Stimuli/Blank.png,0,0.0,0.0,0,96,96,96,,,,,,,,,,,,,220.76087950000147,0.010879500001465203,None,273.5875065,273.5875065,273.5875065,273.5875065,273.5875065,273.5875065,273.5875065,273.5875065,273.5875065,273.5875065,,001,P016,2025_Mar_07_1334,ConditionRich,2021.2.3,59.92473453367025,
224.0,224.75,6,0.75,Stimuli/P016/sun_akecfasimgpbqcnt.jpg,0,0.0,0.0,0,97,97,97,,,,,,,,,,,,,224.01414160000058,0.014141600000584731,None,276.8402040000001,276.8402040000001,276.8402040000001,276.8402040000001,276.8402040000001,276.8402040000001,276.8402040000001,276.8402040000001,276.8402040000001,276.8402040000001,,001,P016,2025_Mar_07_1334,ConditionRich,2021.2.3,59.92473453367025,
224.75,228.0,41,0.0,Stimuli/Blank.png,0,0.0,0.0,0,98,98,98,,,,,,,,,,,,,224.7647935999994,0.014793599999393336,None,277.5908705999973,277.5908705999973,277.5908705999973,277.5908705999973,277.5908705999973,277.5908705999973,277.5908705999973,277.5908705999973,277.5908705999973,277.5908705999973,,001,P016,2025_Mar_07_1334,ConditionRich,2021.2.3,59.92473453367025,
228.0,228.75,3,0.75,Stimuli/P016/sun_aiogwnavezqxkzfg.jpg,0,0.0,0.0,0,99,99,99,,,,,,,,,,,,,228.00029820000054,0.0002982000005431473,None,280.82705870000063,280.82705870000063,280.82705870000063,280.82705870000063,280.82705870000063,280.82705870000063,280.82705870000063,280.82705870000063,280.82705870000063,280.82705870000063,,001,P016,2025_Mar_07_1334,ConditionRich,2021.2.3,59.92473453367025,
228.75,232.0,41,0.0,Stimuli/Blank.png,0,0.0,0.0,0,100,100,100,,,,,,,,,,,,,228.75173160000122,0.0017316000012215227,None,281.57773339999767,281.57773339999767,281.57773339999767,281.57773339999767,281.57773339999767,281.57773339999767,281.57773339999767,281.57773339999767,281.57773339999767,281.57773339999767,,001,P016,2025_Mar_07_1334,ConditionRich,2021.2.3,59.92473453367025,
232.0,232.75,25,0.75,Stimuli/P016/things_deer_08s.jpg,0,0.0,0.0,0,101,101,101,,,,,,,,,,,,,232.00381790000029,0.00381790000028559,None,284.8305965999971,284.8305965999971,284.8305965999971,284.8305965999971,284.8305965999971,284.8305965999971,284.8305965999971,284.8305965999971,284.8305965999971,284.8305965999971,,001,P016,2025_Mar_07_1334,ConditionRich,2021.2.3,59.92473453367025,
232.75,236.0,41,0.0,Stimuli/Blank.png,0,0.0,0.0,0,102,102,102,,,,,,,,,,,,,232.7546398000013,0.004639800001314143,None,285.58127500000046,285.58127500000046,285.58127500000046,285.58127500000046,285.58127500000046,285.58127500000046,285.58127500000046,285.58127500000046,285.58127500000046,285.58127500000046,,001,P016,2025_Mar_07_1334,ConditionRich,2021.2.3,59.92473453367025,
236.0,236.75,21,0.75,Stimuli/P016/things_arch_08s.jpg,0,0.0,0.0,0,103,103,103,,,,,,,,,,,,,236.00816380000106,0.008163800001057098,None,288.83414619999894,288.83414619999894,288.83414619999894,288.83414619999894,288.83414619999894,288.83414619999894,288.83414619999894,288.83414619999894,288.83414619999894,288.83414619999894,,001,P016,2025_Mar_07_1334,ConditionRich,2021.2.3,59.92473453367025,
236.75,240.0,41,0.0,Stimuli/Blank.png,0,0.0,0.0,0,104,104,104,,,,,,,,,,,,,236.75863670000035,0.008636700000351993,None,289.5848090999971,289.5848090999971,289.5848090999971,289.5848090999971,289.5848090999971,289.5848090999971,289.5848090999971,289.5848090999971,289.5848090999971,289.5848090999971,,001,P016,2025_Mar_07_1334,ConditionRich,2021.2.3,59.92473453367025,
240.0,240.75,33,0.75,Stimuli/P016/things_raccoon_08n.jpg,0,0.0,0.0,0,105,105,105,,,,,,,,,,,,,240.01375380000172,0.013753800001722993,None,292.8543608999971,292.8543608999971,292.8543608999971,292.8543608999971,292.8543608999971,292.8543608999971,292.8543608999971,292.8543608999971,292.8543608999971,292.8543608999971,,001,P016,2025_Mar_07_1334,ConditionRich,2021.2.3,59.92473453367025,
240.75,244.0,41,0.0,Stimuli/Blank.png,1,1.25,2.0,0,106,106,106,,,,,,,,,,,,,240.7789370999999,0.02893709999989369,1,293.6050183999978,293.6050183999978,293.6050183999978,293.6050183999978,293.6050183999978,293.6050183999978,294.8394092999988,295.5901219999978,293.6050183999978,293.6050183999978,1.6181086999968102,001,P016,2025_Mar_07_1334,ConditionRich,2021.2.3,59.92473453367025,
244.0,244.75,39,0.75,Stimuli/P016/things_window_08s.jpg,0,0.0,0.0,0,107,107,107,,,,,,,,,,,,,244.01507710000078,0.015077100000780774,None,296.8579217999977,296.8579217999977,296.8579217999977,296.8579217999977,296.8579217999977,296.8579217999977,296.8579217999977,296.8579217999977,296.8579217999977,296.8579217999977,,001,P016,2025_Mar_07_1334,ConditionRich,2021.2.3,59.92473453367025,
244.75,248.0,41,0.0,Stimuli/Blank.png,0,0.0,0.0,0,108,108,108,,,,,,,,,,,,,244.78479180000068,0.03479180000067572,None,297.62524660000054,297.62524660000054,297.62524660000054,297.62524660000054,297.62524660000054,297.62524660000054,297.62524660000054,297.62524660000054,297.62524660000054,297.62524660000054,,001,P016,2025_Mar_07_1334,ConditionRich,2021.2.3,59.92473453367025,
248.0,248.75,26,0.75,Stimuli/P016/things_face_08s.jpg,0,0.0,0.0,0,109,109,109,,,,,,,,,,,,,248.01867439999842,0.018674399998417357,None,300.8447554999984,300.8447554999984,300.8447554999984,300.8447554999984,300.8447554999984,300.8447554999984,300.8447554999984,300.8447554999984,300.8447554999984,300.8447554999984,,001,P016,2025_Mar_07_1334,ConditionRich,2021.2.3,59.92473453367025,
248.75,252.0,41,0.0,Stimuli/Blank.png,1,1.25,2.0,0,110,110,110,,,,,,,,,,,,,248.75359160000153,0.003591600001527695,1,301.57874679999804,301.57874679999804,301.57874679999804,301.57874679999804,301.57874679999804,301.57874679999804,302.8131861999973,303.56382799999847,301.57874679999804,301.57874679999804,1.6965821999983746,001,P016,2025_Mar_07_1334,ConditionRich,2021.2.3,59.92473453367025,
252.0,252.75,16,0.75,Stimuli/P016/sun_bwhuwxazfqwuqhik.jpg,0,0.0,0.0,0,111,111,111,,,,,,,,,,,,,252.0059997999997,0.005999799999699462,None,304.8316156000001,304.8316156000001,304.8316156000001,304.8316156000001,304.8316156000001,304.8316156000001,304.8316156000001,304.8316156000001,304.8316156000001,304.8316156000001,,001,P016,2025_Mar_07_1334,ConditionRich,2021.2.3,59.92473453367025,
252.75,256.0,41,0.0,Stimuli/Blank.png,0,0.0,0.0,0,112,112,112,,,,,,,,,,,,,252.75577989999874,0.005779899998742621,None,305.58234099999754,305.58234099999754,305.58234099999754,305.58234099999754,305.58234099999754,305.58234099999754,305.58234099999754,305.58234099999754,305.58234099999754,305.58234099999754,,001,P016,2025_Mar_07_1334,ConditionRich,2021.2.3,59.92473453367025,
256.0,256.75,14,0.75,Stimuli/P016/sun_bpvmkbyglkraoxhh.jpg,0,0.0,0.0,0,113,113,113,,,,,,,,,,,,,256.0090764999986,0.009076499998627696,None,308.85184519999893,308.85184519999893,308.85184519999893,308.85184519999893,308.85184519999893,308.85184519999893,308.85184519999893,308.85184519999893,308.85184519999893,308.85184519999893,,001,P016,2025_Mar_07_1334,ConditionRich,2021.2.3,59.92473453367025,
256.75,260.0,41,0.0,Stimuli/Blank.png,1,2.25,3.0,0,114,114,114,,,,,,,,,,,,,256.77622600000177,0.026226000001770444,1,309.6025401000006,309.6025401000006,309.6025401000006,309.6025401000006,309.6025401000006,309.6025401000006,311.8378326999991,312.58845989999827,309.6025401000006,309.6025401000006,2.65684020000117,001,P016,2025_Mar_07_1334,ConditionRich,2021.2.3,59.92473453367025,
260.0,260.75,38,0.75,Stimuli/P016/things_trumpet_08s.jpg,0,0.0,0.0,0,115,115,115,,,,,,,,,,,,,260.0148326000017,0.014832600001682295,None,312.8553759999995,312.8553759999995,312.8553759999995,312.8553759999995,312.8553759999995,312.8553759999995,312.8553759999995,312.8553759999995,312.8553759999995,312.8553759999995,,001,P016,2025_Mar_07_1334,ConditionRich,2021.2.3,59.92473453367025,
260.75,264.0,41,0.0,Stimuli/Blank.png,0,0.0,0.0,0,116,116,116,,,,,,,,,,,,,260.7793309000008,0.02933090000078664,None,313.6060331999979,313.6060331999979,313.6060331999979,313.6060331999979,313.6060331999979,313.6060331999979,313.6060331999979,313.6060331999979,313.6060331999979,313.6060331999979,,001,P016,2025_Mar_07_1334,ConditionRich,2021.2.3,59.92473453367025,
264.0,264.75,1,0.75,Stimuli/P016/sun_aacpzgqrortyhyss.jpg,0,0.0,0.0,0,117,117,117,,,,,,,,,,,,,264.01609630000166,0.01609630000166362,None,316.8422202999973,316.8422202999973,316.8422202999973,316.8422202999973,316.8422202999973,316.8422202999973,316.8422202999973,316.8422202999973,316.8422202999973,316.8422202999973,,001,P016,2025_Mar_07_1334,ConditionRich,2021.2.3,59.92473453367025,
264.75,268.0,41,0.0,Stimuli/Blank.png,1,1.25,2.0,0,118,118,118,,,,,,,,,,,,,264.75011900000027,0.00011900000026798807,1,317.5762044000003,317.5762044000003,317.5762044000003,317.5762044000003,317.5762044000003,317.5762044000003,318.8106974000002,319.5613345999991,317.5762044000003,317.5762044000003,1.6979361000012432,001,P016,2025_Mar_07_1334,ConditionRich,2021.2.3,59.92473453367025,
268.0,268.75,17,0.75,Stimuli/P016/sun_bxhbltvqnpaciuzt.jpg,0,0.0,0.0,0,119,119,119,,,,,,,,,,,,,268.0031310000013,0.0031310000013036188,None,320.8291069000006,320.8291069000006,320.8291069000006,320.8291069000006,320.8291069000006,320.8291069000006,320.8291069000006,320.8291069000006,320.8291069000006,320.8291069000006,,001,P016,2025_Mar_07_1334,ConditionRich,2021.2.3,59.92473453367025,
268.75,272.0,41,0.0,Stimuli/Blank.png,0,0.0,0.0,0,120,120,120,,,,,,,,,,,,,268.7531271000007,0.003127100000710925,None,321.57974529999774,321.57974529999774,321.57974529999774,321.57974529999774,321.57974529999774,321.57974529999774,321.57974529999774,321.57974529999774,321.57974529999774,321.57974529999774,,001,P016,2025_Mar_07_1334,ConditionRich,2021.2.3,59.92473453367025,
272.0,272.75,20,0.75,Stimuli/P016/sun_bzmxulijbnmshodq.jpg,1,0.0,0.75,0,121,121,121,,,,,,,,,,,,,272.0061977000005,0.006197700000484474,1,324.8326218000002,324.8326218000002,324.8326218000002,324.8326218000002,324.8326218000002,324.8326218000002,324.8326218000002,325.56656529999964,324.8326218000002,324.8326218000002,0.45845420000114245,001,P016,2025_Mar_07_1334,ConditionRich,2021.2.3,59.92473453367025,
272.75,276.0,41,0.0,Stimuli/Blank.png,0,0.0,0.0,0,122,122,122,,,,,,,,,,,,,272.7565786000014,0.006578600001375889,None,325.5832850000006,325.5832850000006,325.5832850000006,325.5832850000006,325.5832850000006,325.5832850000006,325.5832850000006,325.5832850000006,325.5832850000006,325.5832850000006,,001,P016,2025_Mar_07_1334,ConditionRich,2021.2.3,59.92473453367025,
276.0,292.0,0,0.0,Stimuli/Blank.png,1,12.0,12.75,0,123,123,123,,,,,,,,,,,,,276.0104563999994,0.010456399999384303,1,328.83631160000004,328.83631160000004,328.83631160000004,328.83631160000004,328.83631160000004,328.83631160000004,340.81339989999833,341.564078899999,328.83631160000004,328.83631160000004,12.34071490000133,001,P016,2025_Mar_07_1334,ConditionRich,2021.2.3,59.92473453367025,
292.0,292.75,37,0.75,Stimuli/P016/things_swizzle_stick_08s.jpg,1,0.0,0.75,0,124,124,124,,,,,,,,,,,,,292.0100414000008,0.010041400000773137,1,344.85031609999714,344.85031609999714,344.85031609999714,344.85031609999714,344.85031609999714,344.85031609999714,344.85031609999714,345.58428809999896,344.85031609999714,344.85031609999714,0.4929119999978866,001,P016,2025_Mar_07_1334,ConditionRich,2021.2.3,59.92473453367025,
292.75,296.0,41,0.0,Stimuli/Blank.png,0,0.0,0.0,0,125,125,125,,,,,,,,,,,,,292.7747340999995,0.02473409999947762,None,345.6009755999985,345.6009755999985,345.6009755999985,345.6009755999985,345.6009755999985,345.6009755999985,345.6009755999985,345.6009755999985,345.6009755999985,345.6009755999985,,001,P016,2025_Mar_07_1334,ConditionRich,2021.2.3,59.92473453367025,
296.0,296.75,7,0.75,Stimuli/P016/sun_aqdfrmtvewaapuqs.jpg,0,0.0,0.0,0,126,126,126,,,,,,,,,,,,,296.01355709999916,0.013557099999161437,None,348.8538633999997,348.8538633999997,348.8538633999997,348.8538633999997,348.8538633999997,348.8538633999997,348.8538633999997,348.8538633999997,348.8538633999997,348.8538633999997,,001,P016,2025_Mar_07_1334,ConditionRich,2021.2.3,59.92473453367025,
296.75,300.0,41,0.0,Stimuli/Blank.png,1,1.25,2.0,0,127,127,127,,,,,,,,,,,,,296.7792162000005,0.029216200000519166,1,349.60451739999917,349.60451739999917,349.60451739999917,349.60451739999917,349.60451739999917,349.60451739999917,350.8389322000003,351.5896028999996,349.60451739999917,349.60451739999917,1.6456982999989123,001,P016,2025_Mar_07_1334,ConditionRich,2021.2.3,59.92473453367025,
300.0,300.75,32,0.75,Stimuli/P016/things_pheasant_08s.jpg,0,0.0,0.0,0,128,128,128,,,,,,,,,,,,,300.0142261000001,0.014226100000087172,None,352.84069969999837,352.84069969999837,352.84069969999837,352.84069969999837,352.84069969999837,352.84069969999837,352.84069969999837,352.84069969999837,352.84069969999837,352.84069969999837,,001,P016,2025_Mar_07_1334,ConditionRich,2021.2.3,59.92473453367025,
300.75,304.0,41,0.0,Stimuli/Blank.png,0,0.0,0.0,0,129,129,129,,,,,,,,,,,,,300.7652369999996,0.015236999999615364,None,353.5913656999983,353.5913656999983,353.5913656999983,353.5913656999983,353.5913656999983,353.5913656999983,353.5913656999983,353.5913656999983,353.5913656999983,353.5913656999983,,001,P016,2025_Mar_07_1334,ConditionRich,2021.2.3,59.92473453367025,
304.0,304.75,5,0.75,Stimuli/P016/sun_ajgmxbrxdpmsaext.jpg,0,0.0,0.0,0,130,130,130,,,,,,,,,,,,,304.0036551000012,0.0036551000011968426,None,356.84424969999964,356.84424969999964,356.84424969999964,356.84424969999964,356.84424969999964,356.84424969999964,356.84424969999964,356.84424969999964,356.84424969999964,356.84424969999964,,001,P016,2025_Mar_07_1334,ConditionRich,2021.2.3,59.92473453367025,
304.75,308.0,41,0.0,Stimuli/Blank.png,0,0.0,0.0,0,131,131,131,,,,,,,,,,,,,304.76920299999983,0.019202999999833992,None,357.5949118999997,357.5949118999997,357.5949118999997,357.5949118999997,357.5949118999997,357.5949118999997,357.5949118999997,357.5949118999997,357.5949118999997,357.5949118999997,,001,P016,2025_Mar_07_1334,ConditionRich,2021.2.3,59.92473453367025,
308.0,308.75,8,0.75,Stimuli/P016/sun_arldxotvfucvuudk.jpg,0,0.0,0.0,0,132,132,132,,,,,,,,,,,,,308.0051076000018,0.005107600001792889,None,360.83110079999824,360.83110079999824,360.83110079999824,360.83110079999824,360.83110079999824,360.83110079999824,360.83110079999824,360.83110079999824,360.83110079999824,360.83110079999824,,001,P016,2025_Mar_07_1334,ConditionRich,2021.2.3,59.92473453367025,
308.75,312.0,41,0.0,Stimuli/Blank.png,0,0.0,0.0,0,133,133,133,,,,,,,,,,,,,308.7556531000009,0.005653100000927225,None,361.5817647999975,361.5817647999975,361.5817647999975,361.5817647999975,361.5817647999975,361.5817647999975,361.5817647999975,361.5817647999975,361.5817647999975,361.5817647999975,,001,P016,2025_Mar_07_1334,ConditionRich,2021.2.3,59.92473453367025,
312.0,312.75,11,0.75,Stimuli/P016/sun_bnwmcjuinqbdsbho.jpg,0,0.0,0.0,0,134,134,134,,,,,,,,,,,,,312.0079881999991,0.007988199999090284,None,364.83463969999866,364.83463969999866,364.83463969999866,364.83463969999866,364.83463969999866,364.83463969999866,364.83463969999866,364.83463969999866,364.83463969999866,364.83463969999866,,001,P016,2025_Mar_07_1334,ConditionRich,2021.2.3,59.92473453367025,
312.75,316.0,41,0.0,Stimuli/Blank.png,0,0.0,0.0,0,135,135,135,,,,,,,,,,,,,312.7592837000011,0.009283700001105899,None,365.58529709999857,365.58529709999857,365.58529709999857,365.58529709999857,365.58529709999857,365.58529709999857,365.58529709999857,365.58529709999857,365.58529709999857,365.58529709999857,,001,P016,2025_Mar_07_1334,ConditionRich,2021.2.3,59.92473453367025,
316.0,316.75,29,0.75,Stimuli/P016/things_mouse1_08s.jpg,0,0.0,0.0,0,136,136,136,,,,,,,,,,,,,316.01456790000157,0.014567900001566159,None,368.8548645999981,368.8548645999981,368.8548645999981,368.8548645999981,368.8548645999981,368.8548645999981,368.8548645999981,368.8548645999981,368.8548645999981,368.8548645999981,,001,P016,2025_Mar_07_1334,ConditionRich,2021.2.3,59.92473453367025,
316.75,320.0,41,0.0,Stimuli/Blank.png,0,0.0,0.0,0,137,137,137,,,,,,,,,,,,,316.77956769999946,0.029567699999461183,None,369.60551439999836,369.60551439999836,369.60551439999836,369.60551439999836,369.60551439999836,369.60551439999836,369.60551439999836,369.60551439999836,369.60551439999836,369.60551439999836,,001,P016,2025_Mar_07_1334,ConditionRich,2021.2.3,59.92473453367025,
320.0,320.75,9,0.75,Stimuli/P016/sun_bbdgftzhpkaklkll.jpg,0,0.0,0.0,0,138,138,138,,,,,,,,,,,,,320.0159429999985,0.015942999998515006,None,372.84172949999993,372.84172949999993,372.84172949999993,372.84172949999993,372.84172949999993,372.84172949999993,372.84172949999993,372.84172949999993,372.84172949999993,372.84172949999993,,001,P016,2025_Mar_07_1334,ConditionRich,2021.2.3,59.92473453367025,
320.75,324.0,41,0.0,Stimuli/Blank.png,0,0.0,0.0,0,139,139,139,,,,,,,,,,,,,320.7491121999992,-0.0008878000007825904,None,373.57567310000013,373.57567310000013,373.57567310000013,373.57567310000013,373.57567310000013,373.57567310000013,373.57567310000013,373.57567310000013,373.57567310000013,373.57567310000013,,001,P016,2025_Mar_07_1334,ConditionRich,2021.2.3,59.92473453367025,
324.0,324.75,31,0.75,Stimuli/P016/things_outlet_08s.jpg,0,0.0,0.0,0,140,140,140,,,,,,,,,,,,,324.0028725999982,0.0028725999982270878,None,376.8285986999981,376.8285986999981,376.8285986999981,376.8285986999981,376.8285986999981,376.8285986999981,376.8285986999981,376.8285986999981,376.8285986999981,376.8285986999981,,001,P016,2025_Mar_07_1334,ConditionRich,2021.2.3,59.92473453367025,
324.75,328.0,41,0.0,Stimuli/Blank.png,0,0.0,0.0,0,141,141,141,,,,,,,,,,,,,324.75251109999954,0.0025110999995376915,None,377.57923780000056,377.57923780000056,377.57923780000056,377.57923780000056,377.57923780000056,377.57923780000056,377.57923780000056,377.57923780000056,377.57923780000056,377.57923780000056,,001,P016,2025_Mar_07_1334,ConditionRich,2021.2.3,59.92473453367025,
328.0,328.75,27,0.75,Stimuli/P016/things_girl_08s.jpg,0,0.0,0.0,0,142,142,142,,,,,,,,,,,,,328.0053990000015,0.005399000001489185,None,380.8321056999994,380.8321056999994,380.8321056999994,380.8321056999994,380.8321056999994,380.8321056999994,380.8321056999994,380.8321056999994,380.8321056999994,380.8321056999994,,001,P016,2025_Mar_07_1334,ConditionRich,2021.2.3,59.92473453367025,
328.75,332.0,41,0.0,Stimuli/Blank.png,0,0.0,0.0,0,143,143,143,,,,,,,,,,,,,328.75895559999844,0.008955599998444086,None,381.599463999999,381.599463999999,381.599463999999,381.599463999999,381.599463999999,381.599463999999,381.599463999999,381.599463999999,381.599463999999,381.599463999999,,001,P016,2025_Mar_07_1334,ConditionRich,2021.2.3,59.92473453367025,
332.0,332.75,19,0.75,Stimuli/P016/sun_bzhwvgrzvttqoexa.jpg,0,0.0,0.0,0,144,144,144,,,,,,,,,,,,,332.0257645999991,0.025764599999092752,None,384.8523196999995,384.8523196999995,384.8523196999995,384.8523196999995,384.8523196999995,384.8523196999995,384.8523196999995,384.8523196999995,384.8523196999995,384.8523196999995,,001,P016,2025_Mar_07_1334,ConditionRich,2021.2.3,59.92473453367025,
332.75,336.0,41,0.0,Stimuli/Blank.png,0,0.0,0.0,0,145,145,145,,,,,,,,,,,,,332.76068289999967,0.010682899999665096,None,385.5863099999988,385.5863099999988,385.5863099999988,385.5863099999988,385.5863099999988,385.5863099999988,385.5863099999988,385.5863099999988,385.5863099999988,385.5863099999988,,001,P016,2025_Mar_07_1334,ConditionRich,2021.2.3,59.92473453367025,
336.0,336.75,34,0.75,Stimuli/P016/things_shower_cap_08s.jpg,0,0.0,0.0,0,146,146,146,,,,,,,,,,,,,336.0131226000012,0.013122600001224782,None,388.8391959999972,388.8391959999972,388.8391959999972,388.8391959999972,388.8391959999972,388.8391959999972,388.8391959999972,388.8391959999972,388.8391959999972,388.8391959999972,,001,P016,2025_Mar_07_1334,ConditionRich,2021.2.3,59.92473453367025,
336.75,340.0,41,0.0,Stimuli/Blank.png,0,0.0,0.0,0,147,147,147,,,,,,,,,,,,,336.7630642000004,0.013064200000371784,None,389.58985349999784,389.58985349999784,389.58985349999784,389.58985349999784,389.58985349999784,389.58985349999784,389.58985349999784,389.58985349999784,389.58985349999784,389.58985349999784,,001,P016,2025_Mar_07_1334,ConditionRich,2021.2.3,59.92473453367025,
340.0,340.75,22,0.75,Stimuli/P016/things_baby_08s.jpg,0,0.0,0.0,0,148,148,148,,,,,,,,,,,,,339.999517799999,-0.0004822000009880867,None,392.82604549999814,392.82604549999814,392.82604549999814,392.82604549999814,392.82604549999814,392.82604549999814,392.82604549999814,392.82604549999814,392.82604549999814,392.82604549999814,,001,P016,2025_Mar_07_1334,ConditionRich,2021.2.3,59.92473453367025,
340.75,344.0,41,0.0,Stimuli/Blank.png,0,0.0,0.0,0,149,149,149,,,,,,,,,,,,,340.7508010999991,0.0008010999990801793,None,393.576712099999,393.576712099999,393.576712099999,393.576712099999,393.576712099999,393.576712099999,393.576712099999,393.576712099999,393.576712099999,393.576712099999,,001,P016,2025_Mar_07_1334,ConditionRich,2021.2.3,59.92473453367025,
344.0,344.75,28,0.75,Stimuli/P016/things_latte_08s.jpg,0,0.0,0.0,0,150,150,150,,,,,,,,,,,,,344.00355919999856,0.00355919999856269,None,396.8295916999996,396.8295916999996,396.8295916999996,396.8295916999996,396.8295916999996,396.8295916999996,396.8295916999996,396.8295916999996,396.8295916999996,396.8295916999996,,001,P016,2025_Mar_07_1334,ConditionRich,2021.2.3,59.92473453367025,
344.75,348.0,41,0.0,Stimuli/Blank.png,1,0.25,1.0,0,151,151,151,,,,,,,,,,,,,344.7550157000005,0.005015700000512879,1,397.58024699999805,397.58024699999805,397.58024699999805,397.58024699999805,397.58024699999805,397.58024699999805,397.8137981,398.56441599999744,397.58024699999805,397.58024699999805,0.6859101000009105,001,P016,2025_Mar_07_1334,ConditionRich,2021.2.3,59.92473453367025,
348.0,348.75,10,0.75,Stimuli/P016/sun_bfojpvrlsrtfyzio.jpg,0,0.0,0.0,0,152,152,152,,,,,,,,,,,,,348.00979430000007,0.009794300000066869,None,400.849740499998,400.849740499998,400.849740499998,400.849740499998,400.849740499998,400.849740499998,400.849740499998,400.849740499998,400.849740499998,400.849740499998,,001,P016,2025_Mar_07_1334,ConditionRich,2021.2.3,59.92473453367025,
348.75,352.0,41,0.0,Stimuli/Blank.png,0,0.0,0.0,0,153,153,153,,,,,,,,,,,,,348.7744989999992,0.024498999999195803,None,401.60046339999826,401.60046339999826,401.60046339999826,401.60046339999826,401.60046339999826,401.60046339999826,401.60046339999826,401.60046339999826,401.60046339999826,401.60046339999826,,001,P016,2025_Mar_07_1334,ConditionRich,2021.2.3,59.92473453367025,
352.0,352.75,4,0.75,Stimuli/P016/sun_aiwuqxdqzftsfyeg.jpg,1,0.0,0.75,0,154,154,154,,,,,,,,,,,,,352.01104639999903,0.011046399999031564,1,404.8533279000003,404.8533279000003,404.8533279000003,404.8533279000003,404.8533279000003,404.8533279000003,404.8533279000003,405.5706797999992,404.8533279000003,404.8533279000003,0.5278983999996854,001,P016,2025_Mar_07_1334,ConditionRich,2021.2.3,59.92473453367025,
352.75,356.0,41,0.0,Stimuli/Blank.png,0,0.0,0.0,0,155,155,155,,,,,,,,,,,,,352.778457299999,0.028457299998990493,None,405.60401229999843,405.60401229999843,405.60401229999843,405.60401229999843,405.60401229999843,405.60401229999843,405.60401229999843,405.60401229999843,405.60401229999843,405.60401229999843,,001,P016,2025_Mar_07_1334,ConditionRich,2021.2.3,59.92473453367025,
356.0,356.75,2,0.75,Stimuli/P016/sun_agzfkftryitnqpxc.jpg,0,0.0,0.0,0,156,156,156,,,,,,,,,,,,,356.01414659999864,0.01414659999863943,None,408.84019139999873,408.84019139999873,408.84019139999873,408.84019139999873,408.84019139999873,408.84019139999873,408.84019139999873,408.84019139999873,408.84019139999873,408.84019139999873,,001,P016,2025_Mar_07_1334,ConditionRich,2021.2.3,59.92473453367025,
356.75,360.0,41,0.0,Stimuli/Blank.png,0,0.0,0.0,0,157,157,157,,,,,,,,,,,,,356.7641087000011,0.014108700001088437,None,409.5908614,409.5908614,409.5908614,409.5908614,409.5908614,409.5908614,409.5908614,409.5908614,409.5908614,409.5908614,,001,P016,2025_Mar_07_1334,ConditionRich,2021.2.3,59.92473453367025,
360.0,360.75,23,0.75,Stimuli/P016/things_boy_08s.jpg,0,0.0,0.0,0,158,158,158,,,,,,,,,,,,,360.00104289999945,0.0010428999994473998,None,412.84375139999975,412.84375139999975,412.84375139999975,412.84375139999975,412.84375139999975,412.84375139999975,412.84375139999975,412.84375139999975,412.84375139999975,412.84375139999975,,001,P016,2025_Mar_07_1334,ConditionRich,2021.2.3,59.92473453367025,
360.75,364.0,41,0.0,Stimuli/Blank.png,0,0.0,0.0,0,159,159,159,,,,,,,,,,,,,360.7683308000014,0.018330800001422176,None,413.5944297999995,413.5944297999995,413.5944297999995,413.5944297999995,413.5944297999995,413.5944297999995,413.5944297999995,413.5944297999995,413.5944297999995,413.5944297999995,,001,P016,2025_Mar_07_1334,ConditionRich,2021.2.3,59.92473453367025,
364.0,364.75,13,0.75,Stimuli/P016/sun_bphvjnowixlryxot.jpg,0,0.0,0.0,0,160,160,160,,,,,,,,,,,,,364.0044282000017,0.004428200001711957,None,416.8305954999996,416.8305954999996,416.8305954999996,416.8305954999996,416.8305954999996,416.8305954999996,416.8305954999996,416.8305954999996,416.8305954999996,416.8305954999996,,001,P016,2025_Mar_07_1334,ConditionRich,2021.2.3,59.92473453367025,
364.75,368.0,41,0.0,Stimuli/Blank.png,0,0.0,0.0,0,161,161,161,,,,,,,,,,,,,364.7552953000013,0.0052953000013076235,None,417.5812499999993,417.5812499999993,417.5812499999993,417.5812499999993,417.5812499999993,417.5812499999993,417.5812499999993,417.5812499999993,417.5812499999993,417.5812499999993,,001,P016,2025_Mar_07_1334,ConditionRich,2021.2.3,59.92473453367025,
368.0,368.75,12,0.75,Stimuli/P016/sun_boffixsnbbloarty.jpg,0,0.0,0.0,0,162,162,162,,,,,,,,,,,,,368.0074213000007,0.007421300000714837,None,420.83411969999725,420.83411969999725,420.83411969999725,420.83411969999725,420.83411969999725,420.83411969999725,420.83411969999725,420.83411969999725,420.83411969999725,420.83411969999725,,001,P016,2025_Mar_07_1334,ConditionRich,2021.2.3,59.92473453367025,
368.75,372.0,41,0.0,Stimuli/Blank.png,0,0.0,0.0,0,163,163,163,,,,,,,,,,,,,368.75911709999855,0.009117099998547928,None,421.5847978999991,421.5847978999991,421.5847978999991,421.5847978999991,421.5847978999991,421.5847978999991,421.5847978999991,421.5847978999991,421.5847978999991,421.5847978999991,,001,P016,2025_Mar_07_1334,ConditionRich,2021.2.3,59.92473453367025,
372.0,388.0,0,0.0,Stimuli/Blank.png,1,9.0,9.75,0,164,164,164,,,,,,,,,,,,,372.0116792000008,0.011679200000799028,1,424.8376782999985,424.8376782999985,424.8376782999985,424.8376782999985,424.8376782999985,424.8376782999985,433.8289535999975,434.5796107999995,424.8376782999985,424.8376782999985,9.433428700001969,001,P016,2025_Mar_07_1334,ConditionRich,2021.2.3,59.92473453367025,
