eventStartTime,eventEndTime,eventCond,imSize,imFile,responseEvent,fixRespStart,fixRespEnd,Events.thisRepN,Events.thisTrialN,Events.thisN,Events.thisIndex,Instructions.started,Instructions.stopped,participantReadyResponse.keys,participantReadyResponse.rt,participantReadyResponse.started,participantReadyResponse.stopped,startWaitforTrigger,triggerResponse.keys,triggerResponse.rt,triggerResponse.started,triggerResponse.stopped,globalTimer,actualStartTime,startTimingDiff,participantResponse.keys,participantResponse.started,participantResponse.stopped,image.started,image.stopped,fixationOutside.started,fixationOutside.stopped,fixationResponse.started,fixationResponse.stopped,fixationInside.started,fixationInside.stopped,participantResponse.rt,session,participant,date,expName,psychopyVersion,frameRate,
,,,,,,,,,,,,10.762905800002045,None,1,1.1425062999987858,10.762905800002045,None,,,,,,,,,,,,,,,,,,,,,008,P016,2025_Mar_07_1441,ConditionRich,2021.2.3,59.92907992748477,
,,,,,,,,,,,,,,,,,,11.912334500000725,5,13.660780700000032,11.925470400001359,None,,,,,,,,,,,,,,,,008,P016,2025_Mar_07_1441,ConditionRich,2021.2.3,59.92907992748477,
0.0,4.0,0,0.0,Stimuli/Blank.png,0,0,0.0,0,0,0,0,,,,,,,,,,,,25.590813100003288,0.02436639999723411,0.02436639999723411,None,25.637629000000743,None,25.637629000000743,None,25.637629000000743,None,25.637629000000743,25.637629000000743,25.637629000000743,None,,008,P016,2025_Mar_07_1441,ConditionRich,2021.2.3,59.92907992748477,
4.0,7.75,5,0.75,Stimuli/P016/sun_ajgmxbrxdpmsaext.jpg,1,0,0.75,0,1,1,1,,,,,,,,,,,,,4.020151499997155,0.020151499997155042,1,29.624757900000986,29.624757900000986,29.624757900000986,29.624757900000986,29.624757900000986,29.624757900000986,29.624757900000986,30.358433100002003,29.624757900000986,29.624757900000986,1.763486700001522,008,P016,2025_Mar_07_1441,ConditionRich,2021.2.3,59.92907992748477,
7.75,8.0,41,0.0,Stimuli/Blank.png,0,0,0.0,0,2,2,2,,,,,,,,,,,,,7.756818599998951,0.006818599998950958,None,33.36142810000092,33.36142810000092,33.36142810000092,33.36142810000092,33.36142810000092,33.36142810000092,33.36142810000092,33.36142810000092,33.36142810000092,33.36142810000092,,008,P016,2025_Mar_07_1441,ConditionRich,2021.2.3,59.92907992748477,
8.0,11.75,18,0.75,Stimuli/P016/sun_byavixgfuhzioilz.jpg,0,0,0.0,0,3,3,3,,,,,,,,,,,,,8.008073299999523,0.008073299999523442,None,33.628025800000614,33.628025800000614,33.628025800000614,33.628025800000614,33.628025800000614,33.628025800000614,33.628025800000614,33.628025800000614,33.628025800000614,33.628025800000614,,008,P016,2025_Mar_07_1441,ConditionRich,2021.2.3,59.92907992748477,
11.75,12.0,41,0.0,Stimuli/Blank.png,0,0,0.0,0,4,4,4,,,,,,,,,,,,,11.777463200000057,0.02746320000005653,None,37.3813525000005,37.3813525000005,37.3813525000005,37.3813525000005,37.3813525000005,37.3813525000005,37.3813525000005,37.3813525000005,37.3813525000005,37.3813525000005,,008,P016,2025_Mar_07_1441,ConditionRich,2021.2.3,59.92907992748477,
12.0,15.75,11,0.75,Stimuli/P016/sun_bnwmcjuinqbdsbho.jpg,0,0,0.0,0,5,5,5,,,,,,,,,,,,,12.009560299997247,0.009560299997247057,None,37.61488410000311,37.61488410000311,37.61488410000311,37.61488410000311,37.61488410000311,37.61488410000311,37.61488410000311,37.61488410000311,37.61488410000311,37.61488410000311,,008,P016,2025_Mar_07_1441,ConditionRich,2021.2.3,59.92907992748477,
15.75,16.0,41,0.0,Stimuli/Blank.png,0,0,0.0,0,6,6,6,,,,,,,,,,,,,15.7635526999984,0.013552699998399476,None,41.36819319999995,41.36819319999995,41.36819319999995,41.36819319999995,41.36819319999995,41.36819319999995,41.36819319999995,41.36819319999995,41.36819319999995,41.36819319999995,,008,P016,2025_Mar_07_1441,ConditionRich,2021.2.3,59.92907992748477,
16.0,19.75,36,0.75,Stimuli/P016/things_streetlight_08s.jpg,0,0,0.0,0,7,7,7,,,,,,,,,,,,,16.01304469999741,0.013044699997408316,None,41.6184127000015,41.6184127000015,41.6184127000015,41.6184127000015,41.6184127000015,41.6184127000015,41.6184127000015,41.6184127000015,41.6184127000015,41.6184127000015,,008,P016,2025_Mar_07_1441,ConditionRich,2021.2.3,59.92907992748477,
19.75,20.0,41,0.0,Stimuli/Blank.png,0,0,0.0,0,8,8,8,,,,,,,,,,,,,19.75055269999939,0.0005526999993890058,None,45.35514420000254,45.35514420000254,45.35514420000254,45.35514420000254,45.35514420000254,45.35514420000254,45.35514420000254,45.35514420000254,45.35514420000254,45.35514420000254,,008,P016,2025_Mar_07_1441,ConditionRich,2021.2.3,59.92907992748477,
20.0,23.75,25,0.75,Stimuli/P016/things_deer_08s.jpg,0,0,0.0,0,9,9,9,,,,,,,,,,,,,19.999993699999322,-6.300000677583739e-06,None,45.605236200000945,45.605236200000945,45.605236200000945,45.605236200000945,45.605236200000945,45.605236200000945,45.605236200000945,45.605236200000945,45.605236200000945,45.605236200000945,,008,P016,2025_Mar_07_1441,ConditionRich,2021.2.3,59.92907992748477,
23.75,24.0,41,0.0,Stimuli/Blank.png,0,0,0.0,0,10,10,10,,,,,,,,,,,,,23.753168899998855,0.003168899998854613,None,49.35859150000033,49.35859150000033,49.35859150000033,49.35859150000033,49.35859150000033,49.35859150000033,49.35859150000033,49.35859150000033,49.35859150000033,49.35859150000033,,008,P016,2025_Mar_07_1441,ConditionRich,2021.2.3,59.92907992748477,
24.0,27.75,23,0.75,Stimuli/P016/things_boy_08s.jpg,0,0,0.0,0,11,11,11,,,,,,,,,,,,,24.004102999999304,0.004102999999304302,None,49.60878120000052,49.60878120000052,49.60878120000052,49.60878120000052,49.60878120000052,49.60878120000052,49.60878120000052,49.60878120000052,49.60878120000052,49.60878120000052,,008,P016,2025_Mar_07_1441,ConditionRich,2021.2.3,59.92907992748477,
27.75,28.0,41,0.0,Stimuli/Blank.png,0,0,0.0,0,12,12,12,,,,,,,,,,,,,27.757549399997515,0.007549399997515138,None,53.36213770000177,53.36213770000177,53.36213770000177,53.36213770000177,53.36213770000177,53.36213770000177,53.36213770000177,53.36213770000177,53.36213770000177,53.36213770000177,,008,P016,2025_Mar_07_1441,ConditionRich,2021.2.3,59.92907992748477,
28.0,31.75,24,0.75,Stimuli/P016/things_bunkbed_08s.jpg,0,0,0.0,0,13,13,13,,,,,,,,,,,,,28.007462799996574,0.0074627999965741765,None,53.61235050000323,53.61235050000323,53.61235050000323,53.61235050000323,53.61235050000323,53.61235050000323,53.61235050000323,53.61235050000323,53.61235050000323,53.61235050000323,,008,P016,2025_Mar_07_1441,ConditionRich,2021.2.3,59.92907992748477,
31.75,32.0,41,0.0,Stimuli/Blank.png,0,0,0.0,0,14,14,14,,,,,,,,,,,,,31.760405499997432,0.010405499997432344,None,57.36567009999999,57.36567009999999,57.36567009999999,57.36567009999999,57.36567009999999,57.36567009999999,57.36567009999999,57.36567009999999,57.36567009999999,57.36567009999999,,008,P016,2025_Mar_07_1441,ConditionRich,2021.2.3,59.92907992748477,
32.0,35.75,4,0.75,Stimuli/P016/sun_aiwuqxdqzftsfyeg.jpg,0,0,0.0,0,15,15,15,,,,,,,,,,,,,32.011483899997984,0.011483899997983826,None,57.632575200001156,57.632575200001156,57.632575200001156,57.632575200001156,57.632575200001156,57.632575200001156,57.632575200001156,57.632575200001156,57.632575200001156,57.632575200001156,,008,P016,2025_Mar_07_1441,ConditionRich,2021.2.3,59.92907992748477,
35.75,36.0,41,0.0,Stimuli/Blank.png,0,0,0.0,0,16,16,16,,,,,,,,,,,,,35.78126979999797,0.03126979999797186,None,61.38589470000079,61.38589470000079,61.38589470000079,61.38589470000079,61.38589470000079,61.38589470000079,61.38589470000079,61.38589470000079,61.38589470000079,61.38589470000079,,008,P016,2025_Mar_07_1441,ConditionRich,2021.2.3,59.92907992748477,
36.0,39.75,29,0.75,Stimuli/P016/things_mouse1_08s.jpg,0,0,0.0,0,17,17,17,,,,,,,,,,,,,36.0141369999983,0.01413699999829987,None,61.61946790000002,61.61946790000002,61.61946790000002,61.61946790000002,61.61946790000002,61.61946790000002,61.61946790000002,61.61946790000002,61.61946790000002,61.61946790000002,,008,P016,2025_Mar_07_1441,ConditionRich,2021.2.3,59.92907992748477,
39.75,40.0,41,0.0,Stimuli/Blank.png,0,0,0.0,0,18,18,18,,,,,,,,,,,,,39.753095699998084,0.0030956999980844557,None,65.37275730000329,65.37275730000329,65.37275730000329,65.37275730000329,65.37275730000329,65.37275730000329,65.37275730000329,65.37275730000329,65.37275730000329,65.37275730000329,,008,P016,2025_Mar_07_1441,ConditionRich,2021.2.3,59.92907992748477,
40.0,43.75,39,0.75,Stimuli/P016/things_window_08s.jpg,0,0,0.0,0,19,19,19,,,,,,,,,,,,,40.01836849999745,0.01836849999745027,None,65.6229682000012,65.6229682000012,65.6229682000012,65.6229682000012,65.6229682000012,65.6229682000012,65.6229682000012,65.6229682000012,65.6229682000012,65.6229682000012,,008,P016,2025_Mar_07_1441,ConditionRich,2021.2.3,59.92907992748477,
43.75,44.0,41,0.0,Stimuli/Blank.png,0,0,0.0,0,20,20,20,,,,,,,,,,,,,43.75507749999815,0.005077499998151325,None,69.3596475000013,69.3596475000013,69.3596475000013,69.3596475000013,69.3596475000013,69.3596475000013,69.3596475000013,69.3596475000013,69.3596475000013,69.3596475000013,,008,P016,2025_Mar_07_1441,ConditionRich,2021.2.3,59.92907992748477,
44.0,47.75,22,0.75,Stimuli/P016/things_baby_08s.jpg,0,0,0.0,0,21,21,21,,,,,,,,,,,,,44.00453059999927,0.004530599999270635,None,69.60982330000115,69.60982330000115,69.60982330000115,69.60982330000115,69.60982330000115,69.60982330000115,69.60982330000115,69.60982330000115,69.60982330000115,69.60982330000115,,008,P016,2025_Mar_07_1441,ConditionRich,2021.2.3,59.92907992748477,
47.75,48.0,41,0.0,Stimuli/Blank.png,0,0,0.0,0,22,22,22,,,,,,,,,,,,,47.758012499998586,0.008012499998585554,None,73.36314140000104,73.36314140000104,73.36314140000104,73.36314140000104,73.36314140000104,73.36314140000104,73.36314140000104,73.36314140000104,73.36314140000104,73.36314140000104,,008,P016,2025_Mar_07_1441,ConditionRich,2021.2.3,59.92907992748477,
48.0,51.75,14,0.75,Stimuli/P016/sun_bpvmkbyglkraoxhh.jpg,0,0,0.0,0,23,23,23,,,,,,,,,,,,,48.008919799998694,0.008919799998693634,None,73.63006769999993,73.63006769999993,73.63006769999993,73.63006769999993,73.63006769999993,73.63006769999993,73.63006769999993,73.63006769999993,73.63006769999993,73.63006769999993,,008,P016,2025_Mar_07_1441,ConditionRich,2021.2.3,59.92907992748477,
51.75,52.0,41,0.0,Stimuli/Blank.png,0,0,0.0,0,24,24,24,,,,,,,,,,,,,51.778516799997305,0.028516799997305498,None,77.38337010000032,77.38337010000032,77.38337010000032,77.38337010000032,77.38337010000032,77.38337010000032,77.38337010000032,77.38337010000032,77.38337010000032,77.38337010000032,,008,P016,2025_Mar_07_1441,ConditionRich,2021.2.3,59.92907992748477,
52.0,55.75,28,0.75,Stimuli/P016/things_latte_08s.jpg,1,3,3.75,0,25,25,25,,,,,,,,,,,,,52.01221429999714,0.012214299997140188,1,77.61690410000301,77.61690410000301,77.61690410000301,77.61690410000301,77.61690410000301,77.61690410000301,80.602880800001,81.35356830000092,77.61690410000301,77.61690410000301,3.4273197000002256,008,P016,2025_Mar_07_1441,ConditionRich,2021.2.3,59.92907992748477,
55.75,56.0,41,0.0,Stimuli/Blank.png,0,0,0.0,0,26,26,26,,,,,,,,,,,,,55.76534809999794,0.015348099997936515,None,81.37029940000139,81.37029940000139,81.37029940000139,81.37029940000139,81.37029940000139,81.37029940000139,81.37029940000139,81.37029940000139,81.37029940000139,81.37029940000139,,008,P016,2025_Mar_07_1441,ConditionRich,2021.2.3,59.92907992748477,
56.0,59.75,40,0.75,Stimuli/P016/things_woman_08s.jpg,0,0,0.0,0,27,27,27,,,,,,,,,,,,,56.01785149999705,0.01785149999705027,None,81.63712690000102,81.63712690000102,81.63712690000102,81.63712690000102,81.63712690000102,81.63712690000102,81.63712690000102,81.63712690000102,81.63712690000102,81.63712690000102,,008,P016,2025_Mar_07_1441,ConditionRich,2021.2.3,59.92907992748477,
59.75,60.0,41,0.0,Stimuli/Blank.png,0,0,0.0,0,28,28,28,,,,,,,,,,,,,59.7687780999986,0.01877809999859892,None,85.37376420000146,85.37376420000146,85.37376420000146,85.37376420000146,85.37376420000146,85.37376420000146,85.37376420000146,85.37376420000146,85.37376420000146,85.37376420000146,,008,P016,2025_Mar_07_1441,ConditionRich,2021.2.3,59.92907992748477,
60.0,63.75,3,0.75,Stimuli/P016/sun_aiogwnavezqxkzfg.jpg,0,0,0.0,0,29,29,29,,,,,,,,,,,,,60.00267469999744,0.002674699997442076,None,85.60725600000296,85.60725600000296,85.60725600000296,85.60725600000296,85.60725600000296,85.60725600000296,85.60725600000296,85.60725600000296,85.60725600000296,85.60725600000296,,008,P016,2025_Mar_07_1441,ConditionRich,2021.2.3,59.92907992748477,
63.75,64.0,41,0.0,Stimuli/Blank.png,0,0,0.0,0,30,30,30,,,,,,,,,,,,,63.75783979999687,0.007839799996872898,None,89.37731990000248,89.37731990000248,89.37731990000248,89.37731990000248,89.37731990000248,89.37731990000248,89.37731990000248,89.37731990000248,89.37731990000248,89.37731990000248,,008,P016,2025_Mar_07_1441,ConditionRich,2021.2.3,59.92907992748477,
64.0,67.75,10,0.75,Stimuli/P016/sun_bfojpvrlsrtfyzio.jpg,1,1,1.75,0,31,31,31,,,,,,,,,,,,,64.02217669999663,0.022176699996634852,1,89.62751200000275,89.62751200000275,89.62751200000275,89.62751200000275,89.62751200000275,89.62751200000275,90.6117140000024,91.36237729999993,89.62751200000275,89.62751200000275,1.4858743000004324,008,P016,2025_Mar_07_1441,ConditionRich,2021.2.3,59.92907992748477,
67.75,68.0,41,0.0,Stimuli/Blank.png,0,0,0.0,0,32,32,32,,,,,,,,,,,,,67.75893689999793,0.008936899997934233,None,93.36414770000192,93.36414770000192,93.36414770000192,93.36414770000192,93.36414770000192,93.36414770000192,93.36414770000192,93.36414770000192,93.36414770000192,93.36414770000192,,008,P016,2025_Mar_07_1441,ConditionRich,2021.2.3,59.92907992748477,
68.0,71.75,1,0.75,Stimuli/P016/sun_aacpzgqrortyhyss.jpg,1,1,1.75,0,33,33,33,,,,,,,,,,,,,68.00901529999828,0.00901529999828199,1,93.61439020000034,93.61439020000034,93.61439020000034,93.61439020000034,93.61439020000034,93.61439020000034,94.59859210000286,95.34924150000006,93.61439020000034,93.61439020000034,1.3838595999986865,008,P016,2025_Mar_07_1441,ConditionRich,2021.2.3,59.92907992748477,
71.75,72.0,41,0.0,Stimuli/Blank.png,0,0,0.0,0,34,34,34,,,,,,,,,,,,,71.76318149999861,0.01318149999860907,None,97.36768250000023,97.36768250000023,97.36768250000023,97.36768250000023,97.36768250000023,97.36768250000023,97.36768250000023,97.36768250000023,97.36768250000023,97.36768250000023,,008,P016,2025_Mar_07_1441,ConditionRich,2021.2.3,59.92907992748477,
72.0,75.75,8,0.75,Stimuli/P016/sun_arldxotvfucvuudk.jpg,0,0,0.0,0,35,35,35,,,,,,,,,,,,,72.01232699999673,0.012326999996730592,None,97.61791300000186,97.61791300000186,97.61791300000186,97.61791300000186,97.61791300000186,97.61791300000186,97.61791300000186,97.61791300000186,97.61791300000186,97.61791300000186,,008,P016,2025_Mar_07_1441,ConditionRich,2021.2.3,59.92907992748477,
75.75,76.0,41,0.0,Stimuli/Blank.png,0,0,0.0,0,36,36,36,,,,,,,,,,,,,75.76841429999695,0.018414299996948102,None,101.3879162000012,101.3879162000012,101.3879162000012,101.3879162000012,101.3879162000012,101.3879162000012,101.3879162000012,101.3879162000012,101.3879162000012,101.3879162000012,,008,P016,2025_Mar_07_1441,ConditionRich,2021.2.3,59.92907992748477,
76.0,79.75,21,0.75,Stimuli/P016/things_arch_08s.jpg,0,0,0.0,0,37,37,37,,,,,,,,,,,,,76.01719159999993,0.017191599999932805,None,101.63813550000123,101.63813550000123,101.63813550000123,101.63813550000123,101.63813550000123,101.63813550000123,101.63813550000123,101.63813550000123,101.63813550000123,101.63813550000123,,008,P016,2025_Mar_07_1441,ConditionRich,2021.2.3,59.92907992748477,
79.75,80.0,41,0.0,Stimuli/Blank.png,0,0,0.0,0,38,38,38,,,,,,,,,,,,,79.76974859999973,0.019748599999729777,None,105.37478460000057,105.37478460000057,105.37478460000057,105.37478460000057,105.37478460000057,105.37478460000057,105.37478460000057,105.37478460000057,105.37478460000057,105.37478460000057,,008,P016,2025_Mar_07_1441,ConditionRich,2021.2.3,59.92907992748477,
80.0,83.75,38,0.75,Stimuli/P016/things_trumpet_08s.jpg,1,1,1.75,0,39,39,39,,,,,,,,,,,,,80.00410699999702,0.004106999997020466,1,105.62498570000025,105.62498570000025,105.62498570000025,105.62498570000025,105.62498570000025,105.62498570000025,106.59251000000222,107.34317590000137,105.62498570000025,105.62498570000025,1.38641540000026,008,P016,2025_Mar_07_1441,ConditionRich,2021.2.3,59.92907992748477,
83.75,84.0,41,0.0,Stimuli/Blank.png,0,0,0.0,0,40,40,40,,,,,,,,,,,,,83.77407799999855,0.024077999998553423,None,109.3783067000004,109.3783067000004,109.3783067000004,109.3783067000004,109.3783067000004,109.3783067000004,109.3783067000004,109.3783067000004,109.3783067000004,109.3783067000004,,008,P016,2025_Mar_07_1441,ConditionRich,2021.2.3,59.92907992748477,
84.0,100.0,0,0.0,Stimuli/Blank.png,1,3,3.75,0,41,41,41,,,,,,,,,,,,,84.00917689999915,0.009176899999147281,1,109.62853470000118,109.62853470000118,109.62853470000118,109.62853470000118,109.62853470000118,109.62853470000118,112.61449859999993,113.36515760000111,109.62853470000118,109.62853470000118,3.3478457999990496,008,P016,2025_Mar_07_1441,ConditionRich,2021.2.3,59.92907992748477,
100.0,103.75,15,0.75,Stimuli/P016/sun_bvfcijehgdsndfbg.jpg,0,0,0.0,0,42,42,42,,,,,,,,,,,,,100.02373499999885,0.02373499999885098,None,125.64270620000025,125.64270620000025,125.64270620000025,125.64270620000025,125.64270620000025,125.64270620000025,125.64270620000025,125.64270620000025,125.64270620000025,125.64270620000025,,008,P016,2025_Mar_07_1441,ConditionRich,2021.2.3,59.92907992748477,
103.75,104.0,41,0.0,Stimuli/Blank.png,0,0,0.0,0,43,43,43,,,,,,,,,,,,,103.77406719999999,0.024067199999990407,None,129.37952130000122,129.37952130000122,129.37952130000122,129.37952130000122,129.37952130000122,129.37952130000122,129.37952130000122,129.37952130000122,129.37952130000122,129.37952130000122,,008,P016,2025_Mar_07_1441,ConditionRich,2021.2.3,59.92907992748477,
104.0,107.75,6,0.75,Stimuli/P016/sun_akecfasimgpbqcnt.jpg,0,0,0.0,0,44,44,44,,,,,,,,,,,,,104.0075947999976,0.0075947999976051506,None,129.61285510000016,129.61285510000016,129.61285510000016,129.61285510000016,129.61285510000016,129.61285510000016,129.61285510000016,129.61285510000016,129.61285510000016,129.61285510000016,,008,P016,2025_Mar_07_1441,ConditionRich,2021.2.3,59.92907992748477,
107.75,108.0,41,0.0,Stimuli/Blank.png,0,0,0.0,0,45,45,45,,,,,,,,,,,,,107.76075659999697,0.010756599996966543,None,133.36618010000166,133.36618010000166,133.36618010000166,133.36618010000166,133.36618010000166,133.36618010000166,133.36618010000166,133.36618010000166,133.36618010000166,133.36618010000166,,008,P016,2025_Mar_07_1441,ConditionRich,2021.2.3,59.92907992748477,
108.0,111.75,33,0.75,Stimuli/P016/things_raccoon_08n.jpg,1,3,3.75,0,46,46,46,,,,,,,,,,,,,108.01190179999685,0.01190179999684915,1,133.61639900000227,133.61639900000227,133.61639900000227,133.61639900000227,133.61639900000227,133.61639900000227,136.6023709000001,None,133.61639900000227,133.61639900000227,3.357941700000083,008,P016,2025_Mar_07_1441,ConditionRich,2021.2.3,59.92907992748477,
111.75,112.0,41,0.0,Stimuli/Blank.png,0,0,0.0,0,47,47,47,,,,,,,,,,,,,111.76516939999783,0.015169399997830624,None,137.369728200003,137.369728200003,137.369728200003,137.369728200003,137.369728200003,137.369728200003,137.369728200003,137.369728200003,137.369728200003,137.369728200003,,008,P016,2025_Mar_07_1441,ConditionRich,2021.2.3,59.92907992748477,
112.0,115.75,2,0.75,Stimuli/P016/sun_agzfkftryitnqpxc.jpg,0,0,0.0,0,48,48,48,,,,,,,,,,,,,112.014514399998,0.014514399998006411,None,137.6199398000026,137.6199398000026,137.6199398000026,137.6199398000026,137.6199398000026,137.6199398000026,137.6199398000026,137.6199398000026,137.6199398000026,137.6199398000026,,008,P016,2025_Mar_07_1441,ConditionRich,2021.2.3,59.92907992748477,
115.75,116.0,41,0.0,Stimuli/Blank.png,0,0,0.0,0,49,49,49,,,,,,,,,,,,,115.75209729999915,0.002097299999149982,None,141.35654670000076,141.35654670000076,141.35654670000076,141.35654670000076,141.35654670000076,141.35654670000076,141.35654670000076,141.35654670000076,141.35654670000076,141.35654670000076,,008,P016,2025_Mar_07_1441,ConditionRich,2021.2.3,59.92907992748477,
116.0,119.75,32,0.75,Stimuli/P016/things_pheasant_08s.jpg,1,2,2.75,0,50,50,50,,,,,,,,,,,,,116.0036979999968,0.0036979999968025368,1,141.6234828000015,141.6234828000015,141.6234828000015,141.6234828000015,141.6234828000015,141.6234828000015,143.60856590000185,144.3592215000026,141.6234828000015,141.6234828000015,2.3891694999983883,008,P016,2025_Mar_07_1441,ConditionRich,2021.2.3,59.92907992748477,
119.75,120.0,41,0.0,Stimuli/Blank.png,0,0,0.0,0,51,51,51,,,,,,,,,,,,,119.77162019999741,0.021620199997414602,None,145.3767910000024,145.3767910000024,145.3767910000024,145.3767910000024,145.3767910000024,145.3767910000024,145.3767910000024,145.3767910000024,145.3767910000024,145.3767910000024,,008,P016,2025_Mar_07_1441,ConditionRich,2021.2.3,59.92907992748477,
120.0,123.75,12,0.75,Stimuli/P016/sun_boffixsnbbloarty.jpg,0,0,0.0,0,52,52,52,,,,,,,,,,,,,120.00579119999747,0.005791199997474905,None,145.62701890000244,145.62701890000244,145.62701890000244,145.62701890000244,145.62701890000244,145.62701890000244,145.62701890000244,145.62701890000244,145.62701890000244,145.62701890000244,,008,P016,2025_Mar_07_1441,ConditionRich,2021.2.3,59.92907992748477,
123.75,124.0,41,0.0,Stimuli/Blank.png,0,0,0.0,0,53,53,53,,,,,,,,,,,,,123.77644589999909,0.026445899999089306,None,149.38035050000326,149.38035050000326,149.38035050000326,149.38035050000326,149.38035050000326,149.38035050000326,149.38035050000326,149.38035050000326,149.38035050000326,149.38035050000326,,008,P016,2025_Mar_07_1441,ConditionRich,2021.2.3,59.92907992748477,
124.0,127.75,17,0.75,Stimuli/P016/sun_bxhbltvqnpaciuzt.jpg,0,0,0.0,0,54,54,54,,,,,,,,,,,,,124.00944499999969,0.009444999999686843,None,149.61386740000307,149.61386740000307,149.61386740000307,149.61386740000307,149.61386740000307,149.61386740000307,149.61386740000307,149.61386740000307,149.61386740000307,149.61386740000307,,008,P016,2025_Mar_07_1441,ConditionRich,2021.2.3,59.92907992748477,
127.75,128.0,41,0.0,Stimuli/Blank.png,0,0,0.0,0,55,55,55,,,,,,,,,,,,,127.76274740000008,0.012747400000080233,None,153.3671871000006,153.3671871000006,153.3671871000006,153.3671871000006,153.3671871000006,153.3671871000006,153.3671871000006,153.3671871000006,153.3671871000006,153.3671871000006,,008,P016,2025_Mar_07_1441,ConditionRich,2021.2.3,59.92907992748477,
128.0,131.75,37,0.75,Stimuli/P016/things_swizzle_stick_08s.jpg,0,0,0.0,0,56,56,56,,,,,,,,,,,,,128.0129332999968,0.012933299996802816,None,153.61740930000087,153.61740930000087,153.61740930000087,153.61740930000087,153.61740930000087,153.61740930000087,153.61740930000087,153.61740930000087,153.61740930000087,153.61740930000087,,008,P016,2025_Mar_07_1441,ConditionRich,2021.2.3,59.92907992748477,
131.75,132.0,41,0.0,Stimuli/Blank.png,0,0,0.0,0,57,57,57,,,,,,,,,,,,,131.74876269999731,-0.0012373000026855152,None,157.35401800000182,157.35401800000182,157.35401800000182,157.35401800000182,157.35401800000182,157.35401800000182,157.35401800000182,157.35401800000182,157.35401800000182,157.35401800000182,,008,P016,2025_Mar_07_1441,ConditionRich,2021.2.3,59.92907992748477,
132.0,135.75,35,0.75,Stimuli/P016/things_squid_08s.jpg,0,0,0.0,0,58,58,58,,,,,,,,,,,,,131.99996309999915,-3.690000085043721e-05,None,157.60423450000235,157.60423450000235,157.60423450000235,157.60423450000235,157.60423450000235,157.60423450000235,157.60423450000235,157.60423450000235,157.60423450000235,157.60423450000235,,008,P016,2025_Mar_07_1441,ConditionRich,2021.2.3,59.92907992748477,
135.75,136.0,41,0.0,Stimuli/Blank.png,0,0,0.0,0,59,59,59,,,,,,,,,,,,,135.7545622999969,0.0045622999969054945,None,161.35760570000275,161.35760570000275,161.35760570000275,161.35760570000275,161.35760570000275,161.35760570000275,161.35760570000275,161.35760570000275,161.35760570000275,161.35760570000275,,008,P016,2025_Mar_07_1441,ConditionRich,2021.2.3,59.92907992748477,
136.0,139.75,20,0.75,Stimuli/P016/sun_bzmxulijbnmshodq.jpg,1,3,3.75,0,60,60,60,,,,,,,,,,,,,136.00245539999742,0.0024553999974159524,1,161.6077777999999,161.6077777999999,161.6077777999999,161.6077777999999,161.6077777999999,161.6077777999999,164.59374560000288,165.3445038000027,161.6077777999999,161.6077777999999,3.405575199998566,008,P016,2025_Mar_07_1441,ConditionRich,2021.2.3,59.92907992748477,
139.75,140.0,41,0.0,Stimuli/Blank.png,0,0,0.0,0,61,61,61,,,,,,,,,,,,,139.75856949999798,0.008569499997975072,None,165.37781580000228,165.37781580000228,165.37781580000228,165.37781580000228,165.37781580000228,165.37781580000228,165.37781580000228,165.37781580000228,165.37781580000228,165.37781580000228,,008,P016,2025_Mar_07_1441,ConditionRich,2021.2.3,59.92907992748477,
140.0,143.75,30,0.75,Stimuli/P016/things_ottoman_08s.jpg,0,0,0.0,0,62,62,62,,,,,,,,,,,,,140.0233242999966,0.02332429999660235,None,165.62824960000216,165.62824960000216,165.62824960000216,165.62824960000216,165.62824960000216,165.62824960000216,165.62824960000216,165.62824960000216,165.62824960000216,165.62824960000216,,008,P016,2025_Mar_07_1441,ConditionRich,2021.2.3,59.92907992748477,
143.75,144.0,41,0.0,Stimuli/Blank.png,0,0,0.0,0,63,63,63,,,,,,,,,,,,,143.7597343999987,0.009734399998706067,None,169.3646671000024,169.3646671000024,169.3646671000024,169.3646671000024,169.3646671000024,169.3646671000024,169.3646671000024,169.3646671000024,169.3646671000024,169.3646671000024,,008,P016,2025_Mar_07_1441,ConditionRich,2021.2.3,59.92907992748477,
144.0,147.75,34,0.75,Stimuli/P016/things_shower_cap_08s.jpg,0,0,0.0,0,64,64,64,,,,,,,,,,,,,144.01025919999665,0.010259199996653479,None,169.6315678000028,169.6315678000028,169.6315678000028,169.6315678000028,169.6315678000028,169.6315678000028,169.6315678000028,169.6315678000028,169.6315678000028,169.6315678000028,,008,P016,2025_Mar_07_1441,ConditionRich,2021.2.3,59.92907992748477,
147.75,148.0,41,0.0,Stimuli/Blank.png,0,0,0.0,0,65,65,65,,,,,,,,,,,,,147.78046639999957,0.03046639999956824,None,173.3848833000011,173.3848833000011,173.3848833000011,173.3848833000011,173.3848833000011,173.3848833000011,173.3848833000011,173.3848833000011,173.3848833000011,173.3848833000011,,008,P016,2025_Mar_07_1441,ConditionRich,2021.2.3,59.92907992748477,
148.0,151.75,27,0.75,Stimuli/P016/things_girl_08s.jpg,1,1,1.75,0,66,66,66,,,,,,,,,,,,,148.01357599999756,0.01357599999755621,1,173.61842550000074,173.61842550000074,173.61842550000074,173.61842550000074,173.61842550000074,173.61842550000074,174.60262430000148,175.35329630000342,173.61842550000074,173.61842550000074,1.294161300000269,008,P016,2025_Mar_07_1441,ConditionRich,2021.2.3,59.92907992748477,
151.75,152.0,41,0.0,Stimuli/Blank.png,0,0,0.0,0,67,67,67,,,,,,,,,,,,,151.74988019999728,-0.00011980000272160396,None,177.35506010000245,177.35506010000245,177.35506010000245,177.35506010000245,177.35506010000245,177.35506010000245,177.35506010000245,177.35506010000245,177.35506010000245,177.35506010000245,,008,P016,2025_Mar_07_1441,ConditionRich,2021.2.3,59.92907992748477,
152.0,155.75,7,0.75,Stimuli/P016/sun_aqdfrmtvewaapuqs.jpg,0,0,0.0,0,68,68,68,,,,,,,,,,,,,152.0002373999996,0.00023739999960525893,None,177.6219729000004,177.6219729000004,177.6219729000004,177.6219729000004,177.6219729000004,177.6219729000004,177.6219729000004,177.6219729000004,177.6219729000004,177.6219729000004,,008,P016,2025_Mar_07_1441,ConditionRich,2021.2.3,59.92907992748477,
155.75,156.0,41,0.0,Stimuli/Blank.png,0,0,0.0,0,69,69,69,,,,,,,,,,,,,155.7698461,0.019846099999995204,None,181.37528139999995,181.37528139999995,181.37528139999995,181.37528139999995,181.37528139999995,181.37528139999995,181.37528139999995,181.37528139999995,181.37528139999995,181.37528139999995,,008,P016,2025_Mar_07_1441,ConditionRich,2021.2.3,59.92907992748477,
156.0,159.75,16,0.75,Stimuli/P016/sun_bwhuwxazfqwuqhik.jpg,0,0,0.0,0,70,70,70,,,,,,,,,,,,,156.00349269999788,0.003492699997877935,None,181.60882740000307,181.60882740000307,181.60882740000307,181.60882740000307,181.60882740000307,181.60882740000307,181.60882740000307,181.60882740000307,181.60882740000307,181.60882740000307,,008,P016,2025_Mar_07_1441,ConditionRich,2021.2.3,59.92907992748477,
159.75,160.0,41,0.0,Stimuli/Blank.png,0,0,0.0,0,71,71,71,,,,,,,,,,,,,159.75761059999786,0.007610599997860845,None,185.36214770000151,185.36214770000151,185.36214770000151,185.36214770000151,185.36214770000151,185.36214770000151,185.36214770000151,185.36214770000151,185.36214770000151,185.36214770000151,,008,P016,2025_Mar_07_1441,ConditionRich,2021.2.3,59.92907992748477,
160.0,163.75,31,0.75,Stimuli/P016/things_outlet_08s.jpg,0,0,0.0,0,72,72,72,,,,,,,,,,,,,160.00880179999876,0.008801799998764182,None,185.61235130000205,185.61235130000205,185.61235130000205,185.61235130000205,185.61235130000205,185.61235130000205,185.61235130000205,185.61235130000205,185.61235130000205,185.61235130000205,,008,P016,2025_Mar_07_1441,ConditionRich,2021.2.3,59.92907992748477,
163.75,164.0,41,0.0,Stimuli/Blank.png,0,0,0.0,0,73,73,73,,,,,,,,,,,,,163.76032519999717,0.010325199997168966,None,189.3656714000026,189.3656714000026,189.3656714000026,189.3656714000026,189.3656714000026,189.3656714000026,189.3656714000026,189.3656714000026,189.3656714000026,189.3656714000026,,008,P016,2025_Mar_07_1441,ConditionRich,2021.2.3,59.92907992748477,
164.0,167.75,19,0.75,Stimuli/P016/sun_bzhwvgrzvttqoexa.jpg,0,0,0.0,0,74,74,74,,,,,,,,,,,,,164.0104713999972,0.010471399997186381,None,189.61589450000247,189.61589450000247,189.61589450000247,189.61589450000247,189.61589450000247,189.61589450000247,189.61589450000247,189.61589450000247,189.61589450000247,189.61589450000247,,008,P016,2025_Mar_07_1441,ConditionRich,2021.2.3,59.92907992748477,
167.75,168.0,41,0.0,Stimuli/Blank.png,0,0,0.0,0,75,75,75,,,,,,,,,,,,,167.76389969999946,0.013899699999456061,None,193.3692179000027,193.3692179000027,193.3692179000027,193.3692179000027,193.3692179000027,193.3692179000027,193.3692179000027,193.3692179000027,193.3692179000027,193.3692179000027,,008,P016,2025_Mar_07_1441,ConditionRich,2021.2.3,59.92907992748477,
168.0,171.75,9,0.75,Stimuli/P016/sun_bbdgftzhpkaklkll.jpg,0,0,0.0,0,76,76,76,,,,,,,,,,,,,168.01429949999874,0.014299499998742249,None,193.61943080000128,193.61943080000128,193.61943080000128,193.61943080000128,193.61943080000128,193.61943080000128,193.61943080000128,193.61943080000128,193.61943080000128,193.61943080000128,,008,P016,2025_Mar_07_1441,ConditionRich,2021.2.3,59.92907992748477,
171.75,172.0,41,0.0,Stimuli/Blank.png,0,0,0.0,0,77,77,77,,,,,,,,,,,,,171.75081729999874,0.0008172999987436924,None,197.3560772000019,197.3560772000019,197.3560772000019,197.3560772000019,197.3560772000019,197.3560772000019,197.3560772000019,197.3560772000019,197.3560772000019,197.3560772000019,,008,P016,2025_Mar_07_1441,ConditionRich,2021.2.3,59.92907992748477,
172.0,175.75,13,0.75,Stimuli/P016/sun_bphvjnowixlryxot.jpg,0,0,0.0,0,78,78,78,,,,,,,,,,,,,172.0015863999979,0.001586399997904664,None,197.60633370000141,197.60633370000141,197.60633370000141,197.60633370000141,197.60633370000141,197.60633370000141,197.60633370000141,197.60633370000141,197.60633370000141,197.60633370000141,,008,P016,2025_Mar_07_1441,ConditionRich,2021.2.3,59.92907992748477,
175.75,176.0,41,0.0,Stimuli/Blank.png,0,0,0.0,0,79,79,79,,,,,,,,,,,,,175.75497039999755,0.0049703999975463375,None,201.35957030000282,201.35957030000282,201.35957030000282,201.35957030000282,201.35957030000282,201.35957030000282,201.35957030000282,201.35957030000282,201.35957030000282,201.35957030000282,,008,P016,2025_Mar_07_1441,ConditionRich,2021.2.3,59.92907992748477,
176.0,179.75,26,0.75,Stimuli/P016/things_face_08s.jpg,0,0,0.0,0,80,80,80,,,,,,,,,,,,,176.00524089999817,0.005240899998170789,None,201.60982550000335,201.60982550000335,201.60982550000335,201.60982550000335,201.60982550000335,201.60982550000335,201.60982550000335,201.60982550000335,201.60982550000335,201.60982550000335,,008,P016,2025_Mar_07_1441,ConditionRich,2021.2.3,59.92907992748477,
179.75,180.0,41,0.0,Stimuli/Blank.png,0,0,0.0,0,81,81,81,,,,,,,,,,,,,179.75859949999722,0.008599499997217208,None,205.36315280000053,205.36315280000053,205.36315280000053,205.36315280000053,205.36315280000053,205.36315280000053,205.36315280000053,205.36315280000053,205.36315280000053,205.36315280000053,,008,P016,2025_Mar_07_1441,ConditionRich,2021.2.3,59.92907992748477,
180.0,196.0,0,0.0,Stimuli/Blank.png,1,10,10.75,0,82,82,82,,,,,,,,,,,,,180.00888499999928,0.008884999999281717,1,205.61336570000276,205.61336570000276,205.61336570000276,205.61336570000276,205.61336570000276,205.61336570000276,215.6055324000008,216.35618850000174,205.61336570000276,205.61336570000276,10.315923199999816,008,P016,2025_Mar_07_1441,ConditionRich,2021.2.3,59.92907992748477,
196.0,199.75,21,0.75,Stimuli/P016/things_arch_08s.jpg,0,0,0.0,0,83,83,83,,,,,,,,,,,,,196.00636269999814,0.006362699998135213,None,221.62752660000115,221.62752660000115,221.62752660000115,221.62752660000115,221.62752660000115,221.62752660000115,221.62752660000115,221.62752660000115,221.62752660000115,221.62752660000115,,008,P016,2025_Mar_07_1441,ConditionRich,2021.2.3,59.92907992748477,
199.75,200.0,41,0.0,Stimuli/Blank.png,0,0,0.0,0,84,84,84,,,,,,,,,,,,,199.7777320999994,0.02773209999941173,None,225.3808695000007,225.3808695000007,225.3808695000007,225.3808695000007,225.3808695000007,225.3808695000007,225.3808695000007,225.3808695000007,225.3808695000007,225.3808695000007,,008,P016,2025_Mar_07_1441,ConditionRich,2021.2.3,59.92907992748477,
200.0,203.75,3,0.75,Stimuli/P016/sun_aiogwnavezqxkzfg.jpg,0,0,0.0,0,85,85,85,,,,,,,,,,,,,200.00899269999718,0.008992699997179443,None,225.61437760000263,225.61437760000263,225.61437760000263,225.61437760000263,225.61437760000263,225.61437760000263,225.61437760000263,225.61437760000263,225.61437760000263,225.61437760000263,,008,P016,2025_Mar_07_1441,ConditionRich,2021.2.3,59.92907992748477,
203.75,204.0,41,0.0,Stimuli/Blank.png,0,0,0.0,0,86,86,86,,,,,,,,,,,,,203.76337959999728,0.013379599997279001,None,229.36769830000048,229.36769830000048,229.36769830000048,229.36769830000048,229.36769830000048,229.36769830000048,229.36769830000048,229.36769830000048,229.36769830000048,229.36769830000048,,008,P016,2025_Mar_07_1441,ConditionRich,2021.2.3,59.92907992748477,
204.0,207.75,11,0.75,Stimuli/P016/sun_bnwmcjuinqbdsbho.jpg,0,0,0.0,0,87,87,87,,,,,,,,,,,,,204.0124913999971,0.012491399997088592,None,229.61791989999983,229.61791989999983,229.61791989999983,229.61791989999983,229.61791989999983,229.61791989999983,229.61791989999983,229.61791989999983,229.61791989999983,229.61791989999983,,008,P016,2025_Mar_07_1441,ConditionRich,2021.2.3,59.92907992748477,
207.75,208.0,41,0.0,Stimuli/Blank.png,0,0,0.0,0,88,88,88,,,,,,,,,,,,,207.75013479999689,0.00013479999688570388,None,233.3545539000006,233.3545539000006,233.3545539000006,233.3545539000006,233.3545539000006,233.3545539000006,233.3545539000006,233.3545539000006,233.3545539000006,233.3545539000006,,008,P016,2025_Mar_07_1441,ConditionRich,2021.2.3,59.92907992748477,
208.0,211.75,20,0.75,Stimuli/P016/sun_bzmxulijbnmshodq.jpg,1,3,3.75,0,89,89,89,,,,,,,,,,,,,207.9993168999972,-0.0006831000027887058,1,233.60478100000182,233.60478100000182,233.60478100000182,233.60478100000182,233.60478100000182,233.60478100000182,236.59074150000015,None,233.60478100000182,233.60478100000182,3.297515599999315,008,P016,2025_Mar_07_1441,ConditionRich,2021.2.3,59.92907992748477,
211.75,212.0,41,0.0,Stimuli/Blank.png,0,0,0.0,0,90,90,90,,,,,,,,,,,,,211.75314149999758,0.0031414999975822866,None,237.35810050000146,237.35810050000146,237.35810050000146,237.35810050000146,237.35810050000146,237.35810050000146,237.35810050000146,237.35810050000146,237.35810050000146,237.35810050000146,,008,P016,2025_Mar_07_1441,ConditionRich,2021.2.3,59.92907992748477,
212.0,215.75,35,0.75,Stimuli/P016/things_squid_08s.jpg,0,0,0.0,0,91,91,91,,,,,,,,,,,,,212.00336559999778,0.0033655999977781903,None,237.6083393000008,237.6083393000008,237.6083393000008,237.6083393000008,237.6083393000008,237.6083393000008,237.6083393000008,237.6083393000008,237.6083393000008,237.6083393000008,,008,P016,2025_Mar_07_1441,ConditionRich,2021.2.3,59.92907992748477,
215.75,216.0,41,0.0,Stimuli/Blank.png,0,0,0.0,0,92,92,92,,,,,,,,,,,,,215.75907219999863,0.009072199998627184,None,241.37834210000074,241.37834210000074,241.37834210000074,241.37834210000074,241.37834210000074,241.37834210000074,241.37834210000074,241.37834210000074,241.37834210000074,241.37834210000074,,008,P016,2025_Mar_07_1441,ConditionRich,2021.2.3,59.92907992748477,
216.0,219.75,12,0.75,Stimuli/P016/sun_boffixsnbbloarty.jpg,0,0,0.0,0,93,93,93,,,,,,,,,,,,,216.0244047999986,0.024404799998592352,None,241.64524500000334,241.64524500000334,241.64524500000334,241.64524500000334,241.64524500000334,241.64524500000334,241.64524500000334,241.64524500000334,241.64524500000334,241.64524500000334,,008,P016,2025_Mar_07_1441,ConditionRich,2021.2.3,59.92907992748477,
219.75,220.0,41,0.0,Stimuli/Blank.png,0,0,0.0,0,94,94,94,,,,,,,,,,,,,219.77745249999862,0.027452499998616986,None,245.3818594000004,245.3818594000004,245.3818594000004,245.3818594000004,245.3818594000004,245.3818594000004,245.3818594000004,245.3818594000004,245.3818594000004,245.3818594000004,,008,P016,2025_Mar_07_1441,ConditionRich,2021.2.3,59.92907992748477,
220.0,223.75,7,0.75,Stimuli/P016/sun_aqdfrmtvewaapuqs.jpg,0,0,0.0,0,95,95,95,,,,,,,,,,,,,220.01002609999705,0.010026099997048732,None,245.61538220000148,245.61538220000148,245.61538220000148,245.61538220000148,245.61538220000148,245.61538220000148,245.61538220000148,245.61538220000148,245.61538220000148,245.61538220000148,,008,P016,2025_Mar_07_1441,ConditionRich,2021.2.3,59.92907992748477,
223.75,224.0,41,0.0,Stimuli/Blank.png,0,0,0.0,0,96,96,96,,,,,,,,,,,,,223.7643825999985,0.014382599998498335,None,249.3687037000018,249.3687037000018,249.3687037000018,249.3687037000018,249.3687037000018,249.3687037000018,249.3687037000018,249.3687037000018,249.3687037000018,249.3687037000018,,008,P016,2025_Mar_07_1441,ConditionRich,2021.2.3,59.92907992748477,
224.0,227.75,5,0.75,Stimuli/P016/sun_ajgmxbrxdpmsaext.jpg,0,0,0.0,0,97,97,97,,,,,,,,,,,,,224.0140625999993,0.014062599999306258,None,249.61892830000215,249.61892830000215,249.61892830000215,249.61892830000215,249.61892830000215,249.61892830000215,249.61892830000215,249.61892830000215,249.61892830000215,249.61892830000215,,008,P016,2025_Mar_07_1441,ConditionRich,2021.2.3,59.92907992748477,
227.75,228.0,41,0.0,Stimuli/Blank.png,0,0,0.0,0,98,98,98,,,,,,,,,,,,,227.75012419999985,0.00012419999984558672,None,253.355561700002,253.355561700002,253.355561700002,253.355561700002,253.355561700002,253.355561700002,253.355561700002,253.355561700002,253.355561700002,253.355561700002,,008,P016,2025_Mar_07_1441,ConditionRich,2021.2.3,59.92907992748477,
228.0,231.75,13,0.75,Stimuli/P016/sun_bphvjnowixlryxot.jpg,1,0,0.75,0,99,99,99,,,,,,,,,,,,,228.00032999999894,0.0003299999989394564,1,253.62249510000038,253.62249510000038,253.62249510000038,253.62249510000038,253.62249510000038,253.62249510000038,253.62249510000038,254.33982730000207,253.62249510000038,253.62249510000038,0.5278484999980719,008,P016,2025_Mar_07_1441,ConditionRich,2021.2.3,59.92907992748477,
231.75,232.0,41,0.0,Stimuli/Blank.png,0,0,0.0,0,100,100,100,,,,,,,,,,,,,231.7704868999972,0.020486899997194996,None,257.3757949999999,257.3757949999999,257.3757949999999,257.3757949999999,257.3757949999999,257.3757949999999,257.3757949999999,257.3757949999999,257.3757949999999,257.3757949999999,,008,P016,2025_Mar_07_1441,ConditionRich,2021.2.3,59.92907992748477,
232.0,235.75,39,0.75,Stimuli/P016/things_window_08s.jpg,1,1,1.75,0,101,101,101,,,,,,,,,,,,,232.0040681999999,0.004068199999892386,1,257.6093200000032,257.6093200000032,257.6093200000032,257.6093200000032,257.6093200000032,257.6093200000032,258.5935254000033,259.3442332000013,257.6093200000032,257.6093200000032,1.365970800001378,008,P016,2025_Mar_07_1441,ConditionRich,2021.2.3,59.92907992748477,
235.75,236.0,41,0.0,Stimuli/Blank.png,0,0,0.0,0,102,102,102,,,,,,,,,,,,,235.75786309999967,0.007863099999667611,None,261.3626389000019,261.3626389000019,261.3626389000019,261.3626389000019,261.3626389000019,261.3626389000019,261.3626389000019,261.3626389000019,261.3626389000019,261.3626389000019,,008,P016,2025_Mar_07_1441,ConditionRich,2021.2.3,59.92907992748477,
236.0,239.75,37,0.75,Stimuli/P016/things_swizzle_stick_08s.jpg,0,0,0.0,0,103,103,103,,,,,,,,,,,,,236.0079087999984,0.007908799998403993,None,261.61285940000016,261.61285940000016,261.61285940000016,261.61285940000016,261.61285940000016,261.61285940000016,261.61285940000016,261.61285940000016,261.61285940000016,261.61285940000016,,008,P016,2025_Mar_07_1441,ConditionRich,2021.2.3,59.92907992748477,
239.75,240.0,41,0.0,Stimuli/Blank.png,0,0,0.0,0,104,104,104,,,,,,,,,,,,,239.7607513999974,0.010751399997388944,None,265.36624230000234,265.36624230000234,265.36624230000234,265.36624230000234,265.36624230000234,265.36624230000234,265.36624230000234,265.36624230000234,265.36624230000234,265.36624230000234,,008,P016,2025_Mar_07_1441,ConditionRich,2021.2.3,59.92907992748477,
240.0,243.75,24,0.75,Stimuli/P016/things_bunkbed_08s.jpg,0,0,0.0,0,105,105,105,,,,,,,,,,,,,240.01319239999793,0.013192399997933535,None,265.63309070000105,265.63309070000105,265.63309070000105,265.63309070000105,265.63309070000105,265.63309070000105,265.63309070000105,265.63309070000105,265.63309070000105,265.63309070000105,,008,P016,2025_Mar_07_1441,ConditionRich,2021.2.3,59.92907992748477,
243.75,244.0,41,0.0,Stimuli/Blank.png,0,0,0.0,0,106,106,106,,,,,,,,,,,,,243.7643855999995,0.014385599999513943,None,269.3697185000019,269.3697185000019,269.3697185000019,269.3697185000019,269.3697185000019,269.3697185000019,269.3697185000019,269.3697185000019,269.3697185000019,269.3697185000019,,008,P016,2025_Mar_07_1441,ConditionRich,2021.2.3,59.92907992748477,
244.0,247.75,34,0.75,Stimuli/P016/things_shower_cap_08s.jpg,0,0,0.0,0,107,107,107,,,,,,,,,,,,,244.01503559999765,0.015035599997645477,None,269.61994050000067,269.61994050000067,269.61994050000067,269.61994050000067,269.61994050000067,269.61994050000067,269.61994050000067,269.61994050000067,269.61994050000067,269.61994050000067,,008,P016,2025_Mar_07_1441,ConditionRich,2021.2.3,59.92907992748477,
247.75,248.0,41,0.0,Stimuli/Blank.png,0,0,0.0,0,108,108,108,,,,,,,,,,,,,247.75206289999915,0.002062899999145884,None,273.35658870000043,273.35658870000043,273.35658870000043,273.35658870000043,273.35658870000043,273.35658870000043,273.35658870000043,273.35658870000043,273.35658870000043,273.35658870000043,,008,P016,2025_Mar_07_1441,ConditionRich,2021.2.3,59.92907992748477,
248.0,251.75,10,0.75,Stimuli/P016/sun_bfojpvrlsrtfyzio.jpg,0,0,0.0,0,109,109,109,,,,,,,,,,,,,248.00258859999667,0.002588599996670382,1,273.62348550000024,273.62348550000024,273.62348550000024,273.62348550000024,273.62348550000024,273.62348550000024,273.62348550000024,273.62348550000024,273.62348550000024,273.62348550000024,0.21815220000280533,008,P016,2025_Mar_07_1441,ConditionRich,2021.2.3,59.92907992748477,
251.75,252.0,41,0.0,Stimuli/Blank.png,0,0,0.0,0,110,110,110,,,,,,,,,,,,,251.77368579999893,0.023685799998929724,None,277.39349270000093,277.39349270000093,277.39349270000093,277.39349270000093,277.39349270000093,277.39349270000093,277.39349270000093,277.39349270000093,277.39349270000093,277.39349270000093,,008,P016,2025_Mar_07_1441,ConditionRich,2021.2.3,59.92907992748477,
252.0,255.75,40,0.75,Stimuli/P016/things_woman_08s.jpg,0,0,0.0,0,111,111,111,,,,,,,,,,,,,252.02230379999673,0.022303799996734597,None,277.6270312000015,277.6270312000015,277.6270312000015,277.6270312000015,277.6270312000015,277.6270312000015,277.6270312000015,277.6270312000015,277.6270312000015,277.6270312000015,,008,P016,2025_Mar_07_1441,ConditionRich,2021.2.3,59.92907992748477,
255.75,256.0,41,0.0,Stimuli/Blank.png,0,0,0.0,0,112,112,112,,,,,,,,,,,,,255.75885740000012,0.008857400000124471,None,281.36365750000186,281.36365750000186,281.36365750000186,281.36365750000186,281.36365750000186,281.36365750000186,281.36365750000186,281.36365750000186,281.36365750000186,281.36365750000186,,008,P016,2025_Mar_07_1441,ConditionRich,2021.2.3,59.92907992748477,
256.0,259.75,17,0.75,Stimuli/P016/sun_bxhbltvqnpaciuzt.jpg,0,0,0.0,0,113,113,113,,,,,,,,,,,,,256.00958049999826,0.009580499998264713,None,281.6138727000034,281.6138727000034,281.6138727000034,281.6138727000034,281.6138727000034,281.6138727000034,281.6138727000034,281.6138727000034,281.6138727000034,281.6138727000034,,008,P016,2025_Mar_07_1441,ConditionRich,2021.2.3,59.92907992748477,
259.75,260.0,41,0.0,Stimuli/Blank.png,0,0,0.0,0,114,114,114,,,,,,,,,,,,,259.76252419999946,0.012524199999461416,None,285.3672353000002,285.3672353000002,285.3672353000002,285.3672353000002,285.3672353000002,285.3672353000002,285.3672353000002,285.3672353000002,285.3672353000002,285.3672353000002,,008,P016,2025_Mar_07_1441,ConditionRich,2021.2.3,59.92907992748477,
260.0,263.75,14,0.75,Stimuli/P016/sun_bpvmkbyglkraoxhh.jpg,1,2,2.75,0,115,115,115,,,,,,,,,,,,,260.0135354999984,0.013535499998397427,1,285.634100700001,285.634100700001,285.634100700001,285.634100700001,285.634100700001,285.634100700001,287.6025176000003,288.3531769000001,285.634100700001,285.634100700001,2.3421867999968526,008,P016,2025_Mar_07_1441,ConditionRich,2021.2.3,59.92907992748477,
263.75,264.0,41,0.0,Stimuli/Blank.png,0,0,0.0,0,116,116,116,,,,,,,,,,,,,263.7681244999985,0.01812449999852106,None,289.38742710000224,289.38742710000224,289.38742710000224,289.38742710000224,289.38742710000224,289.38742710000224,289.38742710000224,289.38742710000224,289.38742710000224,289.38742710000224,,008,P016,2025_Mar_07_1441,ConditionRich,2021.2.3,59.92907992748477,
264.0,267.75,2,0.75,Stimuli/P016/sun_agzfkftryitnqpxc.jpg,0,0,0.0,0,117,117,117,,,,,,,,,,,,,264.0182068999966,0.01820689999658498,None,289.63764040000024,289.63764040000024,289.63764040000024,289.63764040000024,289.63764040000024,289.63764040000024,289.63764040000024,289.63764040000024,289.63764040000024,289.63764040000024,,008,P016,2025_Mar_07_1441,ConditionRich,2021.2.3,59.92907992748477,
267.75,268.0,41,0.0,Stimuli/Blank.png,0,0,0.0,0,118,118,118,,,,,,,,,,,,,267.7695361999977,0.019536199997673975,None,293.3742729000005,293.3742729000005,293.3742729000005,293.3742729000005,293.3742729000005,293.3742729000005,293.3742729000005,293.3742729000005,293.3742729000005,293.3742729000005,,008,P016,2025_Mar_07_1441,ConditionRich,2021.2.3,59.92907992748477,
268.0,271.75,28,0.75,Stimuli/P016/things_latte_08s.jpg,1,0,0.75,0,119,119,119,,,,,,,,,,,,,268.00262529999964,0.0026252999996358994,1,293.60781750000024,293.60781750000024,293.60781750000024,293.60781750000024,293.60781750000024,293.60781750000024,293.60781750000024,294.3418397000023,293.60781750000024,293.60781750000024,0.4564863999985391,008,P016,2025_Mar_07_1441,ConditionRich,2021.2.3,59.92907992748477,
271.75,272.0,41,0.0,Stimuli/Blank.png,0,0,0.0,0,120,120,120,,,,,,,,,,,,,271.7584906999982,0.008490699998219498,None,297.37782270000025,297.37782270000025,297.37782270000025,297.37782270000025,297.37782270000025,297.37782270000025,297.37782270000025,297.37782270000025,297.37782270000025,297.37782270000025,,008,P016,2025_Mar_07_1441,ConditionRich,2021.2.3,59.92907992748477,
272.0,275.75,16,0.75,Stimuli/P016/sun_bwhuwxazfqwuqhik.jpg,0,0,0.0,0,121,121,121,,,,,,,,,,,,,272.02377029999843,0.023770299998432165,None,297.62803330000315,297.62803330000315,297.62803330000315,297.62803330000315,297.62803330000315,297.62803330000315,297.62803330000315,297.62803330000315,297.62803330000315,297.62803330000315,,008,P016,2025_Mar_07_1441,ConditionRich,2021.2.3,59.92907992748477,
275.75,276.0,41,0.0,Stimuli/Blank.png,0,0,0.0,0,122,122,122,,,,,,,,,,,,,275.76006909999705,0.010069099997053854,None,301.36466940000173,301.36466940000173,301.36466940000173,301.36466940000173,301.36466940000173,301.36466940000173,301.36466940000173,301.36466940000173,301.36466940000173,301.36466940000173,,008,P016,2025_Mar_07_1441,ConditionRich,2021.2.3,59.92907992748477,
276.0,292.0,0,0.0,Stimuli/Blank.png,1,5,5.75,0,123,123,123,,,,,,,,,,,,,276.01010779999706,0.010107799997058464,1,301.6148895000006,301.6148895000006,301.6148895000006,301.6148895000006,301.6148895000006,301.6148895000006,306.60267640000166,307.353294200002,301.6148895000006,301.6148895000006,5.600406200002908,008,P016,2025_Mar_07_1441,ConditionRich,2021.2.3,59.92907992748477,
292.0,295.75,4,0.75,Stimuli/P016/sun_aiwuqxdqzftsfyeg.jpg,0,0,0.0,0,124,124,124,,,,,,,,,,,,,292.0071554999995,0.007155499999498716,None,317.61237470000196,317.61237470000196,317.61237470000196,317.61237470000196,317.61237470000196,317.61237470000196,317.61237470000196,317.61237470000196,317.61237470000196,317.61237470000196,,008,P016,2025_Mar_07_1441,ConditionRich,2021.2.3,59.92907992748477,
295.75,296.0,41,0.0,Stimuli/Blank.png,0,0,0.0,0,125,125,125,,,,,,,,,,,,,295.7609425999981,0.010942599998088554,None,321.36567840000134,321.36567840000134,321.36567840000134,321.36567840000134,321.36567840000134,321.36567840000134,321.36567840000134,321.36567840000134,321.36567840000134,321.36567840000134,,008,P016,2025_Mar_07_1441,ConditionRich,2021.2.3,59.92907992748477,
296.0,299.75,18,0.75,Stimuli/P016/sun_byavixgfuhzioilz.jpg,0,0,0.0,0,126,126,126,,,,,,,,,,,,,296.0104161999989,0.010416199998871889,None,321.61588420000044,321.61588420000044,321.61588420000044,321.61588420000044,321.61588420000044,321.61588420000044,321.61588420000044,321.61588420000044,321.61588420000044,321.61588420000044,,008,P016,2025_Mar_07_1441,ConditionRich,2021.2.3,59.92907992748477,
299.75,300.0,41,0.0,Stimuli/Blank.png,0,0,0.0,0,127,127,127,,,,,,,,,,,,,299.7647550999973,0.014755099997273646,None,325.3692269000021,325.3692269000021,325.3692269000021,325.3692269000021,325.3692269000021,325.3692269000021,325.3692269000021,325.3692269000021,325.3692269000021,325.3692269000021,,008,P016,2025_Mar_07_1441,ConditionRich,2021.2.3,59.92907992748477,
300.0,303.75,8,0.75,Stimuli/P016/sun_arldxotvfucvuudk.jpg,0,0,0.0,0,128,128,128,,,,,,,,,,,,,300.014263699999,0.014263699998991797,None,325.6194490000016,325.6194490000016,325.6194490000016,325.6194490000016,325.6194490000016,325.6194490000016,325.6194490000016,325.6194490000016,325.6194490000016,325.6194490000016,,008,P016,2025_Mar_07_1441,ConditionRich,2021.2.3,59.92907992748477,
303.75,304.0,41,0.0,Stimuli/Blank.png,0,0,0.0,0,129,129,129,,,,,,,,,,,,,303.7508482999983,0.0008482999983243644,None,329.3560737000007,329.3560737000007,329.3560737000007,329.3560737000007,329.3560737000007,329.3560737000007,329.3560737000007,329.3560737000007,329.3560737000007,329.3560737000007,,008,P016,2025_Mar_07_1441,ConditionRich,2021.2.3,59.92907992748477,
304.0,307.75,22,0.75,Stimuli/P016/things_baby_08s.jpg,0,0,0.0,0,130,130,130,,,,,,,,,,,,,304.00086329999976,0.000863299999764422,None,329.6063212000008,329.6063212000008,329.6063212000008,329.6063212000008,329.6063212000008,329.6063212000008,329.6063212000008,329.6063212000008,329.6063212000008,329.6063212000008,,008,P016,2025_Mar_07_1441,ConditionRich,2021.2.3,59.92907992748477,
307.75,308.0,41,0.0,Stimuli/Blank.png,0,0,0.0,0,131,131,131,,,,,,,,,,,,,307.7554264999999,0.005426499999884982,None,333.35962930000096,333.35962930000096,333.35962930000096,333.35962930000096,333.35962930000096,333.35962930000096,333.35962930000096,333.35962930000096,333.35962930000096,333.35962930000096,,008,P016,2025_Mar_07_1441,ConditionRich,2021.2.3,59.92907992748477,
308.0,311.75,33,0.75,Stimuli/P016/things_raccoon_08n.jpg,1,0,0.75,0,132,132,132,,,,,,,,,,,,,308.0051939999976,0.005193999997572973,1,333.6098348000014,333.6098348000014,333.6098348000014,333.6098348000014,333.6098348000014,333.6098348000014,333.6098348000014,334.34384910000153,333.6098348000014,333.6098348000014,0.48949589999756427,008,P016,2025_Mar_07_1441,ConditionRich,2021.2.3,59.92907992748477,
311.75,312.0,41,0.0,Stimuli/Blank.png,0,0,0.0,0,133,133,133,,,,,,,,,,,,,311.76028569999835,0.010285699998348719,None,337.37983600000007,337.37983600000007,337.37983600000007,337.37983600000007,337.37983600000007,337.37983600000007,337.37983600000007,337.37983600000007,337.37983600000007,337.37983600000007,,008,P016,2025_Mar_07_1441,ConditionRich,2021.2.3,59.92907992748477,
312.0,315.75,27,0.75,Stimuli/P016/things_girl_08s.jpg,1,2,2.75,0,134,134,134,,,,,,,,,,,,,312.02588879999894,0.02588879999893834,1,337.6467444000009,337.6467444000009,337.6467444000009,337.6467444000009,337.6467444000009,337.6467444000009,339.61515080000027,340.3658581000018,337.6467444000009,337.6467444000009,2.4635527999998885,008,P016,2025_Mar_07_1441,ConditionRich,2021.2.3,59.92907992748477,
315.75,316.0,41,0.0,Stimuli/Blank.png,0,0,0.0,0,135,135,135,,,,,,,,,,,,,315.78120409999974,0.03120409999974072,None,341.40007620000324,341.40007620000324,341.40007620000324,341.40007620000324,341.40007620000324,341.40007620000324,341.40007620000324,341.40007620000324,341.40007620000324,341.40007620000324,,008,P016,2025_Mar_07_1441,ConditionRich,2021.2.3,59.92907992748477,
316.0,319.75,6,0.75,Stimuli/P016/sun_akecfasimgpbqcnt.jpg,0,0,0.0,0,136,136,136,,,,,,,,,,,,,316.0303744999983,0.03037449999828823,None,341.6502829000019,341.6502829000019,341.6502829000019,341.6502829000019,341.6502829000019,341.6502829000019,341.6502829000019,341.6502829000019,341.6502829000019,341.6502829000019,,008,P016,2025_Mar_07_1441,ConditionRich,2021.2.3,59.92907992748477,
319.75,320.0,41,0.0,Stimuli/Blank.png,0,0,0.0,0,137,137,137,,,,,,,,,,,,,319.76575969999976,0.015759699999762233,None,345.3702372000007,345.3702372000007,345.3702372000007,345.3702372000007,345.3702372000007,345.3702372000007,345.3702372000007,345.3702372000007,345.3702372000007,345.3702372000007,,008,P016,2025_Mar_07_1441,ConditionRich,2021.2.3,59.92907992748477,
320.0,323.75,30,0.75,Stimuli/P016/things_ottoman_08s.jpg,0,0,0.0,0,138,138,138,,,,,,,,,,,,,319.99904929999684,-0.0009507000031589996,None,345.6037841000034,345.6037841000034,345.6037841000034,345.6037841000034,345.6037841000034,345.6037841000034,345.6037841000034,345.6037841000034,345.6037841000034,345.6037841000034,,008,P016,2025_Mar_07_1441,ConditionRich,2021.2.3,59.92907992748477,
323.75,324.0,41,0.0,Stimuli/Blank.png,0,0,0.0,0,139,139,139,,,,,,,,,,,,,323.7523860000001,0.0023860000001150183,None,349.3571625000004,349.3571625000004,349.3571625000004,349.3571625000004,349.3571625000004,349.3571625000004,349.3571625000004,349.3571625000004,349.3571625000004,349.3571625000004,,008,P016,2025_Mar_07_1441,ConditionRich,2021.2.3,59.92907992748477,
324.0,327.75,19,0.75,Stimuli/P016/sun_bzhwvgrzvttqoexa.jpg,1,3,3.75,0,140,140,140,,,,,,,,,,,,,324.00258009999743,0.002580099997430807,1,349.6239972000003,349.6239972000003,349.6239972000003,349.6239972000003,349.6239972000003,349.6239972000003,352.59328070000265,353.3439747000011,349.6239972000003,349.6239972000003,3.3313324999980978,008,P016,2025_Mar_07_1441,ConditionRich,2021.2.3,59.92907992748477,
327.75,328.0,41,0.0,Stimuli/Blank.png,0,0,0.0,0,141,141,141,,,,,,,,,,,,,327.77203929999814,0.02203929999814136,None,353.3773097000012,353.3773097000012,353.3773097000012,353.3773097000012,353.3773097000012,353.3773097000012,353.3773097000012,353.3773097000012,353.3773097000012,353.3773097000012,,008,P016,2025_Mar_07_1441,ConditionRich,2021.2.3,59.92907992748477,
328.0,331.75,36,0.75,Stimuli/P016/things_streetlight_08s.jpg,0,0,0.0,0,142,142,142,,,,,,,,,,,,,328.0063924999995,0.006392499999492429,None,353.61084630000187,353.61084630000187,353.61084630000187,353.61084630000187,353.61084630000187,353.61084630000187,353.61084630000187,353.61084630000187,353.61084630000187,353.61084630000187,,008,P016,2025_Mar_07_1441,ConditionRich,2021.2.3,59.92907992748477,
331.75,332.0,41,0.0,Stimuli/Blank.png,0,0,0.0,0,143,143,143,,,,,,,,,,,,,331.7593369999995,0.00933699999950477,None,357.3642096000003,357.3642096000003,357.3642096000003,357.3642096000003,357.3642096000003,357.3642096000003,357.3642096000003,357.3642096000003,357.3642096000003,357.3642096000003,,008,P016,2025_Mar_07_1441,ConditionRich,2021.2.3,59.92907992748477,
332.0,335.75,31,0.75,Stimuli/P016/things_outlet_08s.jpg,0,0,0.0,0,144,144,144,,,,,,,,,,,,,332.0096647999999,0.009664799999882234,None,357.6143942000017,357.6143942000017,357.6143942000017,357.6143942000017,357.6143942000017,357.6143942000017,357.6143942000017,357.6143942000017,357.6143942000017,357.6143942000017,,008,P016,2025_Mar_07_1441,ConditionRich,2021.2.3,59.92907992748477,
335.75,336.0,41,0.0,Stimuli/Blank.png,0,0,0.0,0,145,145,145,,,,,,,,,,,,,335.76222849999976,0.012228499999764608,None,361.3677248000022,361.3677248000022,361.3677248000022,361.3677248000022,361.3677248000022,361.3677248000022,361.3677248000022,361.3677248000022,361.3677248000022,361.3677248000022,,008,P016,2025_Mar_07_1441,ConditionRich,2021.2.3,59.92907992748477,
336.0,339.75,1,0.75,Stimuli/P016/sun_aacpzgqrortyhyss.jpg,0,0,0.0,0,146,146,146,,,,,,,,,,,,,336.0151580999991,0.01515809999909834,None,361.6346162000009,361.6346162000009,361.6346162000009,361.6346162000009,361.6346162000009,361.6346162000009,361.6346162000009,361.6346162000009,361.6346162000009,361.6346162000009,,008,P016,2025_Mar_07_1441,ConditionRich,2021.2.3,59.92907992748477,
339.75,340.0,41,0.0,Stimuli/Blank.png,0,0,0.0,0,147,147,147,,,,,,,,,,,,,339.7659762999974,0.01597629999741912,None,365.3712372000009,365.3712372000009,365.3712372000009,365.3712372000009,365.3712372000009,365.3712372000009,365.3712372000009,365.3712372000009,365.3712372000009,365.3712372000009,,008,P016,2025_Mar_07_1441,ConditionRich,2021.2.3,59.92907992748477,
340.0,343.75,15,0.75,Stimuli/P016/sun_bvfcijehgdsndfbg.jpg,1,1,1.75,0,148,148,148,,,,,,,,,,,,,340.000108799999,0.00010879999899771065,1,365.6047933000009,365.6047933000009,365.6047933000009,365.6047933000009,365.6047933000009,365.6047933000009,366.5889902000017,367.3396558000022,365.6047933000009,365.6047933000009,1.3388660999989952,008,P016,2025_Mar_07_1441,ConditionRich,2021.2.3,59.92907992748477,
343.75,344.0,41,0.0,Stimuli/Blank.png,0,0,0.0,0,149,149,149,,,,,,,,,,,,,343.75514479999765,0.005144799997651717,None,369.37478490000285,369.37478490000285,369.37478490000285,369.37478490000285,369.37478490000285,369.37478490000285,369.37478490000285,369.37478490000285,369.37478490000285,369.37478490000285,,008,P016,2025_Mar_07_1441,ConditionRich,2021.2.3,59.92907992748477,
344.0,347.75,26,0.75,Stimuli/P016/things_face_08s.jpg,0,0,0.0,0,150,150,150,,,,,,,,,,,,,344.0202565999971,0.020256599997082958,None,369.6250162000033,369.6250162000033,369.6250162000033,369.6250162000033,369.6250162000033,369.6250162000033,369.6250162000033,369.6250162000033,369.6250162000033,369.6250162000033,,008,P016,2025_Mar_07_1441,ConditionRich,2021.2.3,59.92907992748477,
347.75,348.0,41,0.0,Stimuli/Blank.png,0,0,0.0,0,151,151,151,,,,,,,,,,,,,347.7561889999997,0.006188999999722,None,373.3616333000027,373.3616333000027,373.3616333000027,373.3616333000027,373.3616333000027,373.3616333000027,373.3616333000027,373.3616333000027,373.3616333000027,373.3616333000027,,008,P016,2025_Mar_07_1441,ConditionRich,2021.2.3,59.92907992748477,
348.0,351.75,32,0.75,Stimuli/P016/things_pheasant_08s.jpg,0,0,0.0,0,152,152,152,,,,,,,,,,,,,348.00726929999655,0.007269299996551126,None,373.6118634000013,373.6118634000013,373.6118634000013,373.6118634000013,373.6118634000013,373.6118634000013,373.6118634000013,373.6118634000013,373.6118634000013,373.6118634000013,,008,P016,2025_Mar_07_1441,ConditionRich,2021.2.3,59.92907992748477,
351.75,352.0,41,0.0,Stimuli/Blank.png,0,0,0.0,0,153,153,153,,,,,,,,,,,,,351.76038009999684,0.010380099996837089,None,377.36519060000137,377.36519060000137,377.36519060000137,377.36519060000137,377.36519060000137,377.36519060000137,377.36519060000137,377.36519060000137,377.36519060000137,377.36519060000137,,008,P016,2025_Mar_07_1441,ConditionRich,2021.2.3,59.92907992748477,
352.0,355.75,25,0.75,Stimuli/P016/things_deer_08s.jpg,1,0,0.75,0,154,154,154,,,,,,,,,,,,,352.01379389999784,0.013793899997835979,1,377.6321033000022,377.6321033000022,377.6321033000022,377.6321033000022,377.6321033000022,377.6321033000022,377.6321033000022,378.366056400002,377.6321033000022,377.6321033000022,0.3341846000002988,008,P016,2025_Mar_07_1441,ConditionRich,2021.2.3,59.92907992748477,
355.75,356.0,41,0.0,Stimuli/Blank.png,0,0,0.0,0,155,155,155,,,,,,,,,,,,,355.7666130999969,0.016613099996902747,None,381.3854164000004,381.3854164000004,381.3854164000004,381.3854164000004,381.3854164000004,381.3854164000004,381.3854164000004,381.3854164000004,381.3854164000004,381.3854164000004,,008,P016,2025_Mar_07_1441,ConditionRich,2021.2.3,59.92907992748477,
356.0,359.75,23,0.75,Stimuli/P016/things_boy_08s.jpg,0,0,0.0,0,156,156,156,,,,,,,,,,,,,356.0156085999988,0.015608599998813588,None,381.63563030000296,381.63563030000296,381.63563030000296,381.63563030000296,381.63563030000296,381.63563030000296,381.63563030000296,381.63563030000296,381.63563030000296,381.63563030000296,,008,P016,2025_Mar_07_1441,ConditionRich,2021.2.3,59.92907992748477,
359.75,360.0,41,0.0,Stimuli/Blank.png,0,0,0.0,0,157,157,157,,,,,,,,,,,,,359.76697299999796,0.01697299999796087,None,385.37226050000027,385.37226050000027,385.37226050000027,385.37226050000027,385.37226050000027,385.37226050000027,385.37226050000027,385.37226050000027,385.37226050000027,385.37226050000027,,008,P016,2025_Mar_07_1441,ConditionRich,2021.2.3,59.92907992748477,
360.0,363.75,29,0.75,Stimuli/P016/things_mouse1_08s.jpg,0,0,0.0,0,158,158,158,,,,,,,,,,,,,360.0014869999977,0.0014869999977236148,None,385.6225098000032,385.6225098000032,385.6225098000032,385.6225098000032,385.6225098000032,385.6225098000032,385.6225098000032,385.6225098000032,385.6225098000032,385.6225098000032,,008,P016,2025_Mar_07_1441,ConditionRich,2021.2.3,59.92907992748477,
363.75,364.0,41,0.0,Stimuli/Blank.png,0,0,0.0,0,159,159,159,,,,,,,,,,,,,363.7706685999983,0.020668599998316495,None,389.3757931,389.3757931,389.3757931,389.3757931,389.3757931,389.3757931,389.3757931,389.3757931,389.3757931,389.3757931,,008,P016,2025_Mar_07_1441,ConditionRich,2021.2.3,59.92907992748477,
364.0,367.75,9,0.75,Stimuli/P016/sun_bbdgftzhpkaklkll.jpg,0,0,0.0,0,160,160,160,,,,,,,,,,,,,364.0039077000001,0.003907700000127079,None,389.62603410000156,389.62603410000156,389.62603410000156,389.62603410000156,389.62603410000156,389.62603410000156,389.62603410000156,389.62603410000156,389.62603410000156,389.62603410000156,,008,P016,2025_Mar_07_1441,ConditionRich,2021.2.3,59.92907992748477,
367.75,368.0,41,0.0,Stimuli/Blank.png,0,0,0.0,0,161,161,161,,,,,,,,,,,,,367.77481219999754,0.02481219999754103,None,393.37934640000094,393.37934640000094,393.37934640000094,393.37934640000094,393.37934640000094,393.37934640000094,393.37934640000094,393.37934640000094,393.37934640000094,393.37934640000094,,008,P016,2025_Mar_07_1441,ConditionRich,2021.2.3,59.92907992748477,
368.0,371.75,38,0.75,Stimuli/P016/things_trumpet_08s.jpg,0,0,0.0,0,162,162,162,,,,,,,,,,,,,368.00994439999704,0.009944399997039,None,393.6295590000009,393.6295590000009,393.6295590000009,393.6295590000009,393.6295590000009,393.6295590000009,393.6295590000009,393.6295590000009,393.6295590000009,393.6295590000009,,008,P016,2025_Mar_07_1441,ConditionRich,2021.2.3,59.92907992748477,
371.75,372.0,41,0.0,Stimuli/Blank.png,0,0,0.0,0,163,163,163,,,,,,,,,,,,,371.77764319999915,0.027643199999147328,None,397.38288960000136,397.38288960000136,397.38288960000136,397.38288960000136,397.38288960000136,397.38288960000136,397.38288960000136,397.38288960000136,397.38288960000136,397.38288960000136,,008,P016,2025_Mar_07_1441,ConditionRich,2021.2.3,59.92907992748477,
372.0,388.0,0,0.0,Stimuli/Blank.png,1,2,2.75,0,164,164,164,,,,,,,,,,,,,372.0121149999977,0.012114999997720588,1,397.6164130000034,397.6164130000034,397.6164130000034,397.6164130000034,397.6164130000034,397.6164130000034,399.60150700000304,400.35231790000034,397.6164130000034,397.6164130000034,2.439995500000805,008,P016,2025_Mar_07_1441,ConditionRich,2021.2.3,59.92907992748477,
