eventStartTime,eventEndTime,eventCond,imSize,imFile,responseEvent,fixRespStart,fixRespEnd,Events.thisRepN,Events.thisTrialN,Events.thisN,Events.thisIndex,Instructions.started,Instructions.stopped,participantReadyResponse.keys,participantReadyResponse.rt,participantReadyResponse.started,participantReadyResponse.stopped,startWaitforTrigger,triggerResponse.keys,triggerResponse.rt,triggerResponse.started,triggerResponse.stopped,globalTimer,actualStartTime,startTimingDiff,participantResponse.keys,participantResponse.started,participantResponse.stopped,image.started,image.stopped,fixationOutside.started,fixationOutside.stopped,fixationResponse.started,fixationResponse.stopped,fixationInside.started,fixationInside.stopped,participantResponse.rt,session,participant,date,expName,psychopyVersion,frameRate,
,,,,,,,,,,,,10.64789380000002,None,1,2.988626700000168,10.64789380000002,None,,,,,,,,,,,,,,,,,,,,,009,P016,2025_Mar_07_1448,ConditionRich,2021.2.3,59.935689005729756,
,,,,,,,,,,,,,,,,,,13.64427810000052,5,14.09023249999882,13.657320099999197,None,,,,,,,,,,,,,,,,009,P016,2025_Mar_07_1448,ConditionRich,2021.2.3,59.935689005729756,
0.0,4.0,0,0.0,Stimuli/Blank.png,0,0,0.0,0,0,0,0,,,,,,,,,,,,27.755609600000753,0.042332400000304915,0.042332400000304915,None,27.819820000000618,None,27.819820000000618,None,27.819820000000618,None,27.819820000000618,27.819820000000618,27.819820000000618,None,,009,P016,2025_Mar_07_1448,ConditionRich,2021.2.3,59.935689005729756,
4.0,4.75,5,0.75,Stimuli/P016/sun_ajgmxbrxdpmsaext.jpg,0,0,0.0,0,1,1,1,,,,,,,,,,,,,4.026438400000188,0.026438400000188267,None,31.806930300001113,31.806930300001113,31.806930300001113,31.806930300001113,31.806930300001113,31.806930300001113,31.806930300001113,31.806930300001113,31.806930300001113,31.806930300001113,,009,P016,2025_Mar_07_1448,ConditionRich,2021.2.3,59.935689005729756,
4.75,5.0,41,0.0,Stimuli/Blank.png,0,0,0.0,0,2,2,2,,,,,,,,,,,,,4.772522999999637,0.02252299999963725,None,32.55764199999976,32.55764199999976,32.55764199999976,32.55764199999976,32.55764199999976,32.55764199999976,32.55764199999976,32.55764199999976,32.55764199999976,32.55764199999976,,009,P016,2025_Mar_07_1448,ConditionRich,2021.2.3,59.935689005729756,
5.0,5.75,5,0.75,Stimuli/P016/sun_ajgmxbrxdpmsaext.jpg,0,0,0.0,0,3,3,3,,,,,,,,,,,,,5.023350900002697,0.023350900002697017,None,32.80771530000129,32.80771530000129,32.80771530000129,32.80771530000129,32.80771530000129,32.80771530000129,32.80771530000129,32.80771530000129,32.80771530000129,32.80771530000129,,009,P016,2025_Mar_07_1448,ConditionRich,2021.2.3,59.935689005729756,
5.75,6.0,41,0.0,Stimuli/Blank.png,0,0,0.0,0,4,4,4,,,,,,,,,,,,,5.772846600000776,0.022846600000775652,None,33.5415522000003,33.5415522000003,33.5415522000003,33.5415522000003,33.5415522000003,33.5415522000003,33.5415522000003,33.5415522000003,33.5415522000003,33.5415522000003,,009,P016,2025_Mar_07_1448,ConditionRich,2021.2.3,59.935689005729756,
6.0,6.75,5,0.75,Stimuli/P016/sun_ajgmxbrxdpmsaext.jpg,0,0,0.0,0,5,5,5,,,,,,,,,,,,,6.005020200002036,0.00502020000203629,None,33.791785000001255,33.791785000001255,33.791785000001255,33.791785000001255,33.791785000001255,33.791785000001255,33.791785000001255,33.791785000001255,33.791785000001255,33.791785000001255,,009,P016,2025_Mar_07_1448,ConditionRich,2021.2.3,59.935689005729756,
6.75,7.0,41,0.0,Stimuli/Blank.png,0,0,0.0,0,6,6,6,,,,,,,,,,,,,6.772165200000018,0.02216520000001765,None,34.542393799998536,34.542393799998536,34.542393799998536,34.542393799998536,34.542393799998536,34.542393799998536,34.542393799998536,34.542393799998536,34.542393799998536,34.542393799998536,,009,P016,2025_Mar_07_1448,ConditionRich,2021.2.3,59.935689005729756,
7.0,7.75,5,0.75,Stimuli/P016/sun_ajgmxbrxdpmsaext.jpg,0,0,0.0,0,7,7,7,,,,,,,,,,,,,7.007782000000589,0.007782000000588596,None,34.792673200001445,34.792673200001445,34.792673200001445,34.792673200001445,34.792673200001445,34.792673200001445,34.792673200001445,34.792673200001445,34.792673200001445,34.792673200001445,,009,P016,2025_Mar_07_1448,ConditionRich,2021.2.3,59.935689005729756,
7.75,8.0,41,0.0,Stimuli/Blank.png,0,0,0.0,0,8,8,8,,,,,,,,,,,,,7.773152800000389,0.023152800000389107,None,35.543306100000336,35.543306100000336,35.543306100000336,35.543306100000336,35.543306100000336,35.543306100000336,35.543306100000336,35.543306100000336,35.543306100000336,35.543306100000336,,009,P016,2025_Mar_07_1448,ConditionRich,2021.2.3,59.935689005729756,
8.0,8.75,17,0.75,Stimuli/P016/sun_bxhbltvqnpaciuzt.jpg,0,0,0.0,0,9,9,9,,,,,,,,,,,,,8.007686900000408,0.007686900000408059,None,35.77686259999973,35.77686259999973,35.77686259999973,35.77686259999973,35.77686259999973,35.77686259999973,35.77686259999973,35.77686259999973,35.77686259999973,35.77686259999973,,009,P016,2025_Mar_07_1448,ConditionRich,2021.2.3,59.935689005729756,
8.75,9.0,41,0.0,Stimuli/Blank.png,0,0,0.0,0,10,10,10,,,,,,,,,,,,,8.758398900001339,0.008398900001338916,None,36.52752310000142,36.52752310000142,36.52752310000142,36.52752310000142,36.52752310000142,36.52752310000142,36.52752310000142,36.52752310000142,36.52752310000142,36.52752310000142,,009,P016,2025_Mar_07_1448,ConditionRich,2021.2.3,59.935689005729756,
9.0,9.75,17,0.75,Stimuli/P016/sun_bxhbltvqnpaciuzt.jpg,0,0,0.0,0,11,11,11,,,,,,,,,,,,,9.008180799999536,0.008180799999536248,None,36.79443739999988,36.79443739999988,36.79443739999988,36.79443739999988,36.79443739999988,36.79443739999988,36.79443739999988,36.79443739999988,36.79443739999988,36.79443739999988,,009,P016,2025_Mar_07_1448,ConditionRich,2021.2.3,59.935689005729756,
9.75,10.0,41,0.0,Stimuli/Blank.png,0,0,0.0,0,12,12,12,,,,,,,,,,,,,9.777315200000885,0.027315200000884943,None,37.56177630000093,37.56177630000093,37.56177630000093,37.56177630000093,37.56177630000093,37.56177630000093,37.56177630000093,37.56177630000093,37.56177630000093,37.56177630000093,,009,P016,2025_Mar_07_1448,ConditionRich,2021.2.3,59.935689005729756,
10.0,10.75,17,0.75,Stimuli/P016/sun_bxhbltvqnpaciuzt.jpg,0,0,0.0,0,13,13,13,,,,,,,,,,,,,10.026780200001667,0.026780200001667254,None,37.81200689999969,37.81200689999969,37.81200689999969,37.81200689999969,37.81200689999969,37.81200689999969,37.81200689999969,37.81200689999969,37.81200689999969,37.81200689999969,,009,P016,2025_Mar_07_1448,ConditionRich,2021.2.3,59.935689005729756,
10.75,11.0,41,0.0,Stimuli/Blank.png,0,0,0.0,0,14,14,14,,,,,,,,,,,,,10.778261200000998,0.028261200000997633,None,38.562657900001795,38.562657900001795,38.562657900001795,38.562657900001795,38.562657900001795,38.562657900001795,38.562657900001795,38.562657900001795,38.562657900001795,38.562657900001795,,009,P016,2025_Mar_07_1448,ConditionRich,2021.2.3,59.935689005729756,
11.0,11.75,17,0.75,Stimuli/P016/sun_bxhbltvqnpaciuzt.jpg,0,0,0.0,0,15,15,15,,,,,,,,,,,,,11.026698000001488,0.026698000001488253,None,38.81289509999988,38.81289509999988,38.81289509999988,38.81289509999988,38.81289509999988,38.81289509999988,38.81289509999988,38.81289509999988,38.81289509999988,38.81289509999988,,009,P016,2025_Mar_07_1448,ConditionRich,2021.2.3,59.935689005729756,
11.75,12.0,41,0.0,Stimuli/Blank.png,0,0,0.0,0,16,16,16,,,,,,,,,,,,,11.77734799999962,0.027347999999619788,None,39.546859699999914,39.546859699999914,39.546859699999914,39.546859699999914,39.546859699999914,39.546859699999914,39.546859699999914,39.546859699999914,39.546859699999914,39.546859699999914,,009,P016,2025_Mar_07_1448,ConditionRich,2021.2.3,59.935689005729756,
12.0,12.75,26,0.75,Stimuli/P016/things_face_08s.jpg,0,0,0.0,0,17,17,17,,,,,,,,,,,,,12.010813700002473,0.010813700002472615,None,39.78038690000176,39.78038690000176,39.78038690000176,39.78038690000176,39.78038690000176,39.78038690000176,39.78038690000176,39.78038690000176,39.78038690000176,39.78038690000176,,009,P016,2025_Mar_07_1448,ConditionRich,2021.2.3,59.935689005729756,
12.75,13.0,41,0.0,Stimuli/Blank.png,0,0,0.0,0,18,18,18,,,,,,,,,,,,,12.761496200000693,0.011496200000692625,None,40.53106040000057,40.53106040000057,40.53106040000057,40.53106040000057,40.53106040000057,40.53106040000057,40.53106040000057,40.53106040000057,40.53106040000057,40.53106040000057,,009,P016,2025_Mar_07_1448,ConditionRich,2021.2.3,59.935689005729756,
13.0,13.75,26,0.75,Stimuli/P016/things_face_08s.jpg,0,0,0.0,0,19,19,19,,,,,,,,,,,,,13.01246390000233,0.012463900002330774,None,40.797973299999285,40.797973299999285,40.797973299999285,40.797973299999285,40.797973299999285,40.797973299999285,40.797973299999285,40.797973299999285,40.797973299999285,40.797973299999285,,009,P016,2025_Mar_07_1448,ConditionRich,2021.2.3,59.935689005729756,
13.75,14.0,41,0.0,Stimuli/Blank.png,0,0,0.0,0,20,20,20,,,,,,,,,,,,,13.778501799999503,0.02850179999950342,None,41.54862349999894,41.54862349999894,41.54862349999894,41.54862349999894,41.54862349999894,41.54862349999894,41.54862349999894,41.54862349999894,41.54862349999894,41.54862349999894,,009,P016,2025_Mar_07_1448,ConditionRich,2021.2.3,59.935689005729756,
14.0,14.75,26,0.75,Stimuli/P016/things_face_08s.jpg,0,0,0.0,0,21,21,21,,,,,,,,,,,,,14.011932200002775,0.011932200002775062,None,41.78216289999909,41.78216289999909,41.78216289999909,41.78216289999909,41.78216289999909,41.78216289999909,41.78216289999909,41.78216289999909,41.78216289999909,41.78216289999909,,009,P016,2025_Mar_07_1448,ConditionRich,2021.2.3,59.935689005729756,
14.75,15.0,41,0.0,Stimuli/Blank.png,0,0,0.0,0,22,22,22,,,,,,,,,,,,,14.762736700002279,0.012736700002278667,None,42.53282240000044,42.53282240000044,42.53282240000044,42.53282240000044,42.53282240000044,42.53282240000044,42.53282240000044,42.53282240000044,42.53282240000044,42.53282240000044,,009,P016,2025_Mar_07_1448,ConditionRich,2021.2.3,59.935689005729756,
15.0,15.75,26,0.75,Stimuli/P016/things_face_08s.jpg,0,0,0.0,0,23,23,23,,,,,,,,,,,,,15.012952700002643,0.012952700002642814,None,42.78304249999928,42.78304249999928,42.78304249999928,42.78304249999928,42.78304249999928,42.78304249999928,42.78304249999928,42.78304249999928,42.78304249999928,42.78304249999928,,009,P016,2025_Mar_07_1448,ConditionRich,2021.2.3,59.935689005729756,
15.75,16.0,41,0.0,Stimuli/Blank.png,0,0,0.0,0,24,24,24,,,,,,,,,,,,,15.76436509999985,0.014365099999849917,None,43.5337079000019,43.5337079000019,43.5337079000019,43.5337079000019,43.5337079000019,43.5337079000019,43.5337079000019,43.5337079000019,43.5337079000019,43.5337079000019,,009,P016,2025_Mar_07_1448,ConditionRich,2021.2.3,59.935689005729756,
16.0,16.75,35,0.75,Stimuli/P016/things_squid_08s.jpg,0,0,0.0,0,25,25,25,,,,,,,,,,,,,16.01445270000113,0.014452700001129415,None,43.783935700001166,43.783935700001166,43.783935700001166,43.783935700001166,43.783935700001166,43.783935700001166,43.783935700001166,43.783935700001166,43.783935700001166,43.783935700001166,,009,P016,2025_Mar_07_1448,ConditionRich,2021.2.3,59.935689005729756,
16.75,17.0,41,0.0,Stimuli/Blank.png,0,0,0.0,0,26,26,26,,,,,,,,,,,,,16.76434160000281,0.014341600002808264,None,44.53459320000184,44.53459320000184,44.53459320000184,44.53459320000184,44.53459320000184,44.53459320000184,44.53459320000184,44.53459320000184,44.53459320000184,44.53459320000184,,009,P016,2025_Mar_07_1448,ConditionRich,2021.2.3,59.935689005729756,
17.0,17.75,35,0.75,Stimuli/P016/things_squid_08s.jpg,0,0,0.0,0,27,27,27,,,,,,,,,,,,,17.017402100002073,0.017402100002072984,None,44.80150489999869,44.80150489999869,44.80150489999869,44.80150489999869,44.80150489999869,44.80150489999869,44.80150489999869,44.80150489999869,44.80150489999869,44.80150489999869,,009,P016,2025_Mar_07_1448,ConditionRich,2021.2.3,59.935689005729756,
17.75,18.0,41,0.0,Stimuli/Blank.png,0,0,0.0,0,28,28,28,,,,,,,,,,,,,17.767575300000317,0.01757530000031693,None,45.552179199999955,45.552179199999955,45.552179199999955,45.552179199999955,45.552179199999955,45.552179199999955,45.552179199999955,45.552179199999955,45.552179199999955,45.552179199999955,,009,P016,2025_Mar_07_1448,ConditionRich,2021.2.3,59.935689005729756,
18.0,18.75,35,0.75,Stimuli/P016/things_squid_08s.jpg,0,0,0.0,0,29,29,29,,,,,,,,,,,,,18.016223000002356,0.016223000002355548,None,45.802382199999556,45.802382199999556,45.802382199999556,45.802382199999556,45.802382199999556,45.802382199999556,45.802382199999556,45.802382199999556,45.802382199999556,45.802382199999556,,009,P016,2025_Mar_07_1448,ConditionRich,2021.2.3,59.935689005729756,
18.75,19.0,41,0.0,Stimuli/Blank.png,0,0,0.0,0,30,30,30,,,,,,,,,,,,,18.76686410000184,0.016864100001839688,None,46.53637249999883,46.53637249999883,46.53637249999883,46.53637249999883,46.53637249999883,46.53637249999883,46.53637249999883,46.53637249999883,46.53637249999883,46.53637249999883,,009,P016,2025_Mar_07_1448,ConditionRich,2021.2.3,59.935689005729756,
19.0,19.75,35,0.75,Stimuli/P016/things_squid_08s.jpg,1,0,0.75,0,31,31,31,,,,,,,,,,,,,18.999650600002497,-0.0003493999975034967,1,46.78661370000191,46.78661370000191,46.78661370000191,46.78661370000191,46.78661370000191,46.78661370000191,46.78661370000191,47.50390239999979,46.78661370000191,46.78661370000191,0.36473990000013146,009,P016,2025_Mar_07_1448,ConditionRich,2021.2.3,59.935689005729756,
19.75,20.0,41,0.0,Stimuli/Blank.png,0,0,0.0,0,32,32,32,,,,,,,,,,,,,19.767803599999752,0.017803599999751896,None,47.537256999999954,47.537256999999954,47.537256999999954,47.537256999999954,47.537256999999954,47.537256999999954,47.537256999999954,47.537256999999954,47.537256999999954,47.537256999999954,,009,P016,2025_Mar_07_1448,ConditionRich,2021.2.3,59.935689005729756,
20.0,20.75,32,0.75,Stimuli/P016/things_pheasant_08s.jpg,0,0,0.0,0,33,33,33,,,,,,,,,,,,,20.003598800001782,0.003598800001782365,None,47.78744060000099,47.78744060000099,47.78744060000099,47.78744060000099,47.78744060000099,47.78744060000099,47.78744060000099,47.78744060000099,47.78744060000099,47.78744060000099,,009,P016,2025_Mar_07_1448,ConditionRich,2021.2.3,59.935689005729756,
20.75,21.0,41,0.0,Stimuli/Blank.png,0,0,0.0,0,34,34,34,,,,,,,,,,,,,20.768404800001008,0.01840480000100797,None,48.538131299999804,48.538131299999804,48.538131299999804,48.538131299999804,48.538131299999804,48.538131299999804,48.538131299999804,48.538131299999804,48.538131299999804,48.538131299999804,,009,P016,2025_Mar_07_1448,ConditionRich,2021.2.3,59.935689005729756,
21.0,21.75,32,0.75,Stimuli/P016/things_pheasant_08s.jpg,0,0,0.0,0,35,35,35,,,,,,,,,,,,,21.00150510000094,0.001505100000940729,None,48.77167109999937,48.77167109999937,48.77167109999937,48.77167109999937,48.77167109999937,48.77167109999937,48.77167109999937,48.77167109999937,48.77167109999937,48.77167109999937,,009,P016,2025_Mar_07_1448,ConditionRich,2021.2.3,59.935689005729756,
21.75,22.0,41,0.0,Stimuli/Blank.png,0,0,0.0,0,36,36,36,,,,,,,,,,,,,21.75281829999949,0.002818299999489682,None,49.52233720000004,49.52233720000004,49.52233720000004,49.52233720000004,49.52233720000004,49.52233720000004,49.52233720000004,49.52233720000004,49.52233720000004,49.52233720000004,,009,P016,2025_Mar_07_1448,ConditionRich,2021.2.3,59.935689005729756,
22.0,22.75,32,0.75,Stimuli/P016/things_pheasant_08s.jpg,0,0,0.0,0,37,37,37,,,,,,,,,,,,,22.003514899999573,0.0035148999995726626,None,49.772583300000406,49.772583300000406,49.772583300000406,49.772583300000406,49.772583300000406,49.772583300000406,49.772583300000406,49.772583300000406,49.772583300000406,49.772583300000406,,009,P016,2025_Mar_07_1448,ConditionRich,2021.2.3,59.935689005729756,
22.75,23.0,41,0.0,Stimuli/Blank.png,0,0,0.0,0,38,38,38,,,,,,,,,,,,,22.753109000001132,0.0031090000011317898,None,50.52321790000133,50.52321790000133,50.52321790000133,50.52321790000133,50.52321790000133,50.52321790000133,50.52321790000133,50.52321790000133,50.52321790000133,50.52321790000133,,009,P016,2025_Mar_07_1448,ConditionRich,2021.2.3,59.935689005729756,
23.0,23.75,32,0.75,Stimuli/P016/things_pheasant_08s.jpg,0,0,0.0,0,39,39,39,,,,,,,,,,,,,23.003943499999878,0.003943499999877531,None,50.773967100001755,50.773967100001755,50.773967100001755,50.773967100001755,50.773967100001755,50.773967100001755,50.773967100001755,50.773967100001755,50.773967100001755,50.773967100001755,,009,P016,2025_Mar_07_1448,ConditionRich,2021.2.3,59.935689005729756,
23.75,24.0,41,0.0,Stimuli/Blank.png,0,0,0.0,0,40,40,40,,,,,,,,,,,,,23.754427700001543,0.004427700001542689,None,51.52410410000084,51.52410410000084,51.52410410000084,51.52410410000084,51.52410410000084,51.52410410000084,51.52410410000084,51.52410410000084,51.52410410000084,51.52410410000084,,009,P016,2025_Mar_07_1448,ConditionRich,2021.2.3,59.935689005729756,
24.0,24.75,39,0.75,Stimuli/P016/things_window_08s.jpg,0,0,0.0,0,41,41,41,,,,,,,,,,,,,24.004930500002956,0.004930500002956251,None,51.791018100000656,51.791018100000656,51.791018100000656,51.791018100000656,51.791018100000656,51.791018100000656,51.791018100000656,51.791018100000656,51.791018100000656,51.791018100000656,,009,P016,2025_Mar_07_1448,ConditionRich,2021.2.3,59.935689005729756,
24.75,25.0,41,0.0,Stimuli/Blank.png,0,0,0.0,0,42,42,42,,,,,,,,,,,,,24.772807500001363,0.022807500001363223,None,52.54168199999913,52.54168199999913,52.54168199999913,52.54168199999913,52.54168199999913,52.54168199999913,52.54168199999913,52.54168199999913,52.54168199999913,52.54168199999913,,009,P016,2025_Mar_07_1448,ConditionRich,2021.2.3,59.935689005729756,
25.0,25.75,39,0.75,Stimuli/P016/things_window_08s.jpg,0,0,0.0,0,43,43,43,,,,,,,,,,,,,25.007505100002163,0.00750510000216309,None,52.7919178000011,52.7919178000011,52.7919178000011,52.7919178000011,52.7919178000011,52.7919178000011,52.7919178000011,52.7919178000011,52.7919178000011,52.7919178000011,,009,P016,2025_Mar_07_1448,ConditionRich,2021.2.3,59.935689005729756,
25.75,26.0,41,0.0,Stimuli/Blank.png,0,0,0.0,0,44,44,44,,,,,,,,,,,,,25.772964600000705,0.022964600000705104,None,53.54256769999847,53.54256769999847,53.54256769999847,53.54256769999847,53.54256769999847,53.54256769999847,53.54256769999847,53.54256769999847,53.54256769999847,53.54256769999847,,009,P016,2025_Mar_07_1448,ConditionRich,2021.2.3,59.935689005729756,
26.0,26.75,39,0.75,Stimuli/P016/things_window_08s.jpg,0,0,0.0,0,45,45,45,,,,,,,,,,,,,26.005984600000374,0.005984600000374485,None,53.77609149999989,53.77609149999989,53.77609149999989,53.77609149999989,53.77609149999989,53.77609149999989,53.77609149999989,53.77609149999989,53.77609149999989,53.77609149999989,,009,P016,2025_Mar_07_1448,ConditionRich,2021.2.3,59.935689005729756,
26.75,27.0,41,0.0,Stimuli/Blank.png,0,0,0.0,0,46,46,46,,,,,,,,,,,,,26.757248900001287,0.007248900001286529,None,54.52676580000116,54.52676580000116,54.52676580000116,54.52676580000116,54.52676580000116,54.52676580000116,54.52676580000116,54.52676580000116,54.52676580000116,54.52676580000116,,009,P016,2025_Mar_07_1448,ConditionRich,2021.2.3,59.935689005729756,
27.0,27.75,39,0.75,Stimuli/P016/things_window_08s.jpg,0,0,0.0,0,47,47,47,,,,,,,,,,,,,27.00775120000253,0.0077512000025308225,None,54.79368610000165,54.79368610000165,54.79368610000165,54.79368610000165,54.79368610000165,54.79368610000165,54.79368610000165,54.79368610000165,54.79368610000165,54.79368610000165,,009,P016,2025_Mar_07_1448,ConditionRich,2021.2.3,59.935689005729756,
27.75,28.0,41,0.0,Stimuli/Blank.png,0,0,0.0,0,48,48,48,,,,,,,,,,,,,27.77483410000059,0.024834100000589387,None,55.544321800000034,55.544321800000034,55.544321800000034,55.544321800000034,55.544321800000034,55.544321800000034,55.544321800000034,55.544321800000034,55.544321800000034,55.544321800000034,,009,P016,2025_Mar_07_1448,ConditionRich,2021.2.3,59.935689005729756,
28.0,28.75,19,0.75,Stimuli/P016/sun_bzhwvgrzvttqoexa.jpg,0,0,0.0,0,49,49,49,,,,,,,,,,,,,28.00844540000253,0.008445400002528913,None,55.777860999998666,55.777860999998666,55.777860999998666,55.777860999998666,55.777860999998666,55.777860999998666,55.777860999998666,55.777860999998666,55.777860999998666,55.777860999998666,,009,P016,2025_Mar_07_1448,ConditionRich,2021.2.3,59.935689005729756,
28.75,29.0,41,0.0,Stimuli/Blank.png,0,0,0.0,0,50,50,50,,,,,,,,,,,,,28.75842130000092,0.008421300000918563,None,56.52851930000179,56.52851930000179,56.52851930000179,56.52851930000179,56.52851930000179,56.52851930000179,56.52851930000179,56.52851930000179,56.52851930000179,56.52851930000179,,009,P016,2025_Mar_07_1448,ConditionRich,2021.2.3,59.935689005729756,
29.0,29.75,19,0.75,Stimuli/P016/sun_bzhwvgrzvttqoexa.jpg,0,0,0.0,0,51,51,51,,,,,,,,,,,,,29.00848010000118,0.00848010000117938,None,56.778755600000295,56.778755600000295,56.778755600000295,56.778755600000295,56.778755600000295,56.778755600000295,56.778755600000295,56.778755600000295,56.778755600000295,56.778755600000295,,009,P016,2025_Mar_07_1448,ConditionRich,2021.2.3,59.935689005729756,
29.75,30.0,41,0.0,Stimuli/Blank.png,0,0,0.0,0,52,52,52,,,,,,,,,,,,,29.759978100002627,0.009978100002626888,None,57.529509200001485,57.529509200001485,57.529509200001485,57.529509200001485,57.529509200001485,57.529509200001485,57.529509200001485,57.529509200001485,57.529509200001485,57.529509200001485,,009,P016,2025_Mar_07_1448,ConditionRich,2021.2.3,59.935689005729756,
30.0,30.75,19,0.75,Stimuli/P016/sun_bzhwvgrzvttqoexa.jpg,0,0,0.0,0,53,53,53,,,,,,,,,,,,,30.009611700003006,0.009611700003006263,None,57.77963870000167,57.77963870000167,57.77963870000167,57.77963870000167,57.77963870000167,57.77963870000167,57.77963870000167,57.77963870000167,57.77963870000167,57.77963870000167,,009,P016,2025_Mar_07_1448,ConditionRich,2021.2.3,59.935689005729756,
30.75,31.0,41,0.0,Stimuli/Blank.png,0,0,0.0,0,54,54,54,,,,,,,,,,,,,30.762554300003103,0.01255430000310298,None,58.54698980000103,58.54698980000103,58.54698980000103,58.54698980000103,58.54698980000103,58.54698980000103,58.54698980000103,58.54698980000103,58.54698980000103,58.54698980000103,,009,P016,2025_Mar_07_1448,ConditionRich,2021.2.3,59.935689005729756,
31.0,31.75,19,0.75,Stimuli/P016/sun_bzhwvgrzvttqoexa.jpg,0,0,0.0,0,55,55,55,,,,,,,,,,,,,31.02790830000231,0.02790830000230926,None,58.81388860000152,58.81388860000152,58.81388860000152,58.81388860000152,58.81388860000152,58.81388860000152,58.81388860000152,58.81388860000152,58.81388860000152,58.81388860000152,,009,P016,2025_Mar_07_1448,ConditionRich,2021.2.3,59.935689005729756,
31.75,32.0,41,0.0,Stimuli/Blank.png,0,0,0.0,0,56,56,56,,,,,,,,,,,,,31.778503000001365,0.028503000001364853,None,59.54787170000054,59.54787170000054,59.54787170000054,59.54787170000054,59.54787170000054,59.54787170000054,59.54787170000054,59.54787170000054,59.54787170000054,59.54787170000054,,009,P016,2025_Mar_07_1448,ConditionRich,2021.2.3,59.935689005729756,
32.0,32.75,6,0.75,Stimuli/P016/sun_akecfasimgpbqcnt.jpg,0,0,0.0,0,57,57,57,,,,,,,,,,,,,32.01164500000232,0.011645000002317829,None,59.78140480000002,59.78140480000002,59.78140480000002,59.78140480000002,59.78140480000002,59.78140480000002,59.78140480000002,59.78140480000002,59.78140480000002,59.78140480000002,,009,P016,2025_Mar_07_1448,ConditionRich,2021.2.3,59.935689005729756,
32.75,33.0,41,0.0,Stimuli/Blank.png,0,0,0.0,0,58,58,58,,,,,,,,,,,,,32.76259019999998,0.012590199999976903,None,60.532087800002046,60.532087800002046,60.532087800002046,60.532087800002046,60.532087800002046,60.532087800002046,60.532087800002046,60.532087800002046,60.532087800002046,60.532087800002046,,009,P016,2025_Mar_07_1448,ConditionRich,2021.2.3,59.935689005729756,
33.0,33.75,6,0.75,Stimuli/P016/sun_akecfasimgpbqcnt.jpg,0,0,0.0,0,59,59,59,,,,,,,,,,,,,33.01335850000032,0.013358500000322238,None,60.79899419999856,60.79899419999856,60.79899419999856,60.79899419999856,60.79899419999856,60.79899419999856,60.79899419999856,60.79899419999856,60.79899419999856,60.79899419999856,,009,P016,2025_Mar_07_1448,ConditionRich,2021.2.3,59.935689005729756,
33.75,34.0,41,0.0,Stimuli/Blank.png,0,0,0.0,0,60,60,60,,,,,,,,,,,,,33.779456300002494,0.029456300002493663,None,61.549641900001006,61.549641900001006,61.549641900001006,61.549641900001006,61.549641900001006,61.549641900001006,61.549641900001006,61.549641900001006,61.549641900001006,61.549641900001006,,009,P016,2025_Mar_07_1448,ConditionRich,2021.2.3,59.935689005729756,
34.0,34.75,6,0.75,Stimuli/P016/sun_akecfasimgpbqcnt.jpg,0,0,0.0,0,61,61,61,,,,,,,,,,,,,34.01287059999959,0.012870599999587284,None,61.78317120000065,61.78317120000065,61.78317120000065,61.78317120000065,61.78317120000065,61.78317120000065,61.78317120000065,61.78317120000065,61.78317120000065,61.78317120000065,,009,P016,2025_Mar_07_1448,ConditionRich,2021.2.3,59.935689005729756,
34.75,35.0,41,0.0,Stimuli/Blank.png,0,0,0.0,0,62,62,62,,,,,,,,,,,,,34.76443420000214,0.014434200002142461,None,62.533832600001915,62.533832600001915,62.533832600001915,62.533832600001915,62.533832600001915,62.533832600001915,62.533832600001915,62.533832600001915,62.533832600001915,62.533832600001915,,009,P016,2025_Mar_07_1448,ConditionRich,2021.2.3,59.935689005729756,
35.0,35.75,6,0.75,Stimuli/P016/sun_akecfasimgpbqcnt.jpg,0,0,0.0,0,63,63,63,,,,,,,,,,,,,35.0146369000031,0.014636900003097253,None,62.80075660000148,62.80075660000148,62.80075660000148,62.80075660000148,62.80075660000148,62.80075660000148,62.80075660000148,62.80075660000148,62.80075660000148,62.80075660000148,,009,P016,2025_Mar_07_1448,ConditionRich,2021.2.3,59.935689005729756,
35.75,36.0,41,0.0,Stimuli/Blank.png,0,0,0.0,0,64,64,64,,,,,,,,,,,,,35.782219200002146,0.032219200002145953,None,63.55141939999885,63.55141939999885,63.55141939999885,63.55141939999885,63.55141939999885,63.55141939999885,63.55141939999885,63.55141939999885,63.55141939999885,63.55141939999885,,009,P016,2025_Mar_07_1448,ConditionRich,2021.2.3,59.935689005729756,
36.0,36.75,24,0.75,Stimuli/P016/things_bunkbed_08s.jpg,0,0,0.0,0,65,65,65,,,,,,,,,,,,,35.99817970000004,-0.0018202999999630265,None,63.76822629999879,63.76822629999879,63.76822629999879,63.76822629999879,63.76822629999879,63.76822629999879,63.76822629999879,63.76822629999879,63.76822629999879,63.76822629999879,,009,P016,2025_Mar_07_1448,ConditionRich,2021.2.3,59.935689005729756,
36.75,37.0,41,0.0,Stimuli/Blank.png,0,0,0.0,0,66,66,66,,,,,,,,,,,,,36.76742660000309,0.017426600003091153,None,64.55229210000107,64.55229210000107,64.55229210000107,64.55229210000107,64.55229210000107,64.55229210000107,64.55229210000107,64.55229210000107,64.55229210000107,64.55229210000107,,009,P016,2025_Mar_07_1448,ConditionRich,2021.2.3,59.935689005729756,
37.0,37.75,24,0.75,Stimuli/P016/things_bunkbed_08s.jpg,0,0,0.0,0,67,67,67,,,,,,,,,,,,,37.01574750000145,0.015747500001452863,None,64.78582779999851,64.78582779999851,64.78582779999851,64.78582779999851,64.78582779999851,64.78582779999851,64.78582779999851,64.78582779999851,64.78582779999851,64.78582779999851,,009,P016,2025_Mar_07_1448,ConditionRich,2021.2.3,59.935689005729756,
37.75,38.0,41,0.0,Stimuli/Blank.png,0,0,0.0,0,68,68,68,,,,,,,,,,,,,37.74963890000072,-0.00036109999928157777,None,65.51988329999949,65.51988329999949,65.51988329999949,65.51988329999949,65.51988329999949,65.51988329999949,65.51988329999949,65.51988329999949,65.51988329999949,65.51988329999949,,009,P016,2025_Mar_07_1448,ConditionRich,2021.2.3,59.935689005729756,
38.0,38.75,24,0.75,Stimuli/P016/things_bunkbed_08s.jpg,0,0,0.0,0,69,69,69,,,,,,,,,,,,,38.00062810000236,0.0006281000023591332,None,65.78671899999972,65.78671899999972,65.78671899999972,65.78671899999972,65.78671899999972,65.78671899999972,65.78671899999972,65.78671899999972,65.78671899999972,65.78671899999972,,009,P016,2025_Mar_07_1448,ConditionRich,2021.2.3,59.935689005729756,
38.75,39.0,41,0.0,Stimuli/Blank.png,0,0,0.0,0,70,70,70,,,,,,,,,,,,,38.7684900000022,0.018490000002202578,None,66.5540828000012,66.5540828000012,66.5540828000012,66.5540828000012,66.5540828000012,66.5540828000012,66.5540828000012,66.5540828000012,66.5540828000012,66.5540828000012,,009,P016,2025_Mar_07_1448,ConditionRich,2021.2.3,59.935689005729756,
39.0,39.75,24,0.75,Stimuli/P016/things_bunkbed_08s.jpg,0,0,0.0,0,71,71,71,,,,,,,,,,,,,39.01861860000281,0.018618600002810126,None,66.80429939999885,66.80429939999885,66.80429939999885,66.80429939999885,66.80429939999885,66.80429939999885,66.80429939999885,66.80429939999885,66.80429939999885,66.80429939999885,,009,P016,2025_Mar_07_1448,ConditionRich,2021.2.3,59.935689005729756,
39.75,40.0,41,0.0,Stimuli/Blank.png,0,0,0.0,0,72,72,72,,,,,,,,,,,,,39.76867480000146,0.018674800001463154,None,67.5382568999994,67.5382568999994,67.5382568999994,67.5382568999994,67.5382568999994,67.5382568999994,67.5382568999994,67.5382568999994,67.5382568999994,67.5382568999994,,009,P016,2025_Mar_07_1448,ConditionRich,2021.2.3,59.935689005729756,
40.0,40.75,20,0.75,Stimuli/P016/sun_bzmxulijbnmshodq.jpg,0,0,0.0,0,73,73,73,,,,,,,,,,,,,40.002867300001526,0.0028673000015260186,None,67.78851170000053,67.78851170000053,67.78851170000053,67.78851170000053,67.78851170000053,67.78851170000053,67.78851170000053,67.78851170000053,67.78851170000053,67.78851170000053,,009,P016,2025_Mar_07_1448,ConditionRich,2021.2.3,59.935689005729756,
40.75,41.0,41,0.0,Stimuli/Blank.png,0,0,0.0,0,74,74,74,,,,,,,,,,,,,40.76978860000236,0.01978860000235727,None,68.53911720000178,68.53911720000178,68.53911720000178,68.53911720000178,68.53911720000178,68.53911720000178,68.53911720000178,68.53911720000178,68.53911720000178,68.53911720000178,,009,P016,2025_Mar_07_1448,ConditionRich,2021.2.3,59.935689005729756,
41.0,41.75,20,0.75,Stimuli/P016/sun_bzmxulijbnmshodq.jpg,0,0,0.0,0,75,75,75,,,,,,,,,,,,,41.002830900000845,0.0028309000008448493,None,68.77270430000135,68.77270430000135,68.77270430000135,68.77270430000135,68.77270430000135,68.77270430000135,68.77270430000135,68.77270430000135,68.77270430000135,68.77270430000135,,009,P016,2025_Mar_07_1448,ConditionRich,2021.2.3,59.935689005729756,
41.75,42.0,41,0.0,Stimuli/Blank.png,0,0,0.0,0,76,76,76,,,,,,,,,,,,,41.753216500001145,0.0032165000011445954,None,69.52335890000177,69.52335890000177,69.52335890000177,69.52335890000177,69.52335890000177,69.52335890000177,69.52335890000177,69.52335890000177,69.52335890000177,69.52335890000177,,009,P016,2025_Mar_07_1448,ConditionRich,2021.2.3,59.935689005729756,
42.0,42.75,20,0.75,Stimuli/P016/sun_bzmxulijbnmshodq.jpg,0,0,0.0,0,77,77,77,,,,,,,,,,,,,42.00382570000147,0.0038257000014709774,None,69.77353040000162,69.77353040000162,69.77353040000162,69.77353040000162,69.77353040000162,69.77353040000162,69.77353040000162,69.77353040000162,69.77353040000162,69.77353040000162,,009,P016,2025_Mar_07_1448,ConditionRich,2021.2.3,59.935689005729756,
42.75,43.0,41,0.0,Stimuli/Blank.png,0,0,0.0,0,78,78,78,,,,,,,,,,,,,42.75464450000072,0.0046445000007224735,None,70.52424980000069,70.52424980000069,70.52424980000069,70.52424980000069,70.52424980000069,70.52424980000069,70.52424980000069,70.52424980000069,70.52424980000069,70.52424980000069,,009,P016,2025_Mar_07_1448,ConditionRich,2021.2.3,59.935689005729756,
43.0,43.75,20,0.75,Stimuli/P016/sun_bzmxulijbnmshodq.jpg,0,0,0.0,0,79,79,79,,,,,,,,,,,,,43.004770200001076,0.004770200001075864,None,70.77444770000147,70.77444770000147,70.77444770000147,70.77444770000147,70.77444770000147,70.77444770000147,70.77444770000147,70.77444770000147,70.77444770000147,70.77444770000147,,009,P016,2025_Mar_07_1448,ConditionRich,2021.2.3,59.935689005729756,
43.75,44.0,41,0.0,Stimuli/Blank.png,0,0,0.0,0,80,80,80,,,,,,,,,,,,,43.75563370000236,0.0056337000023631845,None,71.5251305999991,71.5251305999991,71.5251305999991,71.5251305999991,71.5251305999991,71.5251305999991,71.5251305999991,71.5251305999991,71.5251305999991,71.5251305999991,,009,P016,2025_Mar_07_1448,ConditionRich,2021.2.3,59.935689005729756,
44.0,44.75,33,0.75,Stimuli/P016/things_raccoon_08n.jpg,0,0,0.0,0,81,81,81,,,,,,,,,,,,,44.006099500002165,0.006099500002164859,None,71.7753675999993,71.7753675999993,71.7753675999993,71.7753675999993,71.7753675999993,71.7753675999993,71.7753675999993,71.7753675999993,71.7753675999993,71.7753675999993,,009,P016,2025_Mar_07_1448,ConditionRich,2021.2.3,59.935689005729756,
44.75,45.0,41,0.0,Stimuli/Blank.png,0,0,0.0,0,82,82,82,,,,,,,,,,,,,44.75668930000029,0.006689300000289222,None,72.526009600002,72.526009600002,72.526009600002,72.526009600002,72.526009600002,72.526009600002,72.526009600002,72.526009600002,72.526009600002,72.526009600002,,009,P016,2025_Mar_07_1448,ConditionRich,2021.2.3,59.935689005729756,
45.0,45.75,33,0.75,Stimuli/P016/things_raccoon_08n.jpg,1,0,0.75,0,83,83,83,,,,,,,,,,,,,45.006770400003006,0.006770400003006216,1,72.79290509999919,72.79290509999919,72.79290509999919,72.79290509999919,72.79290509999919,72.79290509999919,72.79290509999919,73.51026690000072,72.79290509999919,72.79290509999919,0.3684295999992173,009,P016,2025_Mar_07_1448,ConditionRich,2021.2.3,59.935689005729756,
45.75,46.0,41,0.0,Stimuli/Blank.png,0,0,0.0,0,84,84,84,,,,,,,,,,,,,45.773524300002464,0.02352430000246386,None,73.54356890000054,73.54356890000054,73.54356890000054,73.54356890000054,73.54356890000054,73.54356890000054,73.54356890000054,73.54356890000054,73.54356890000054,73.54356890000054,,009,P016,2025_Mar_07_1448,ConditionRich,2021.2.3,59.935689005729756,
46.0,46.75,33,0.75,Stimuli/P016/things_raccoon_08n.jpg,0,0,0.0,0,85,85,85,,,,,,,,,,,,,46.00717740000255,0.007177400002547074,None,73.77710279999883,73.77710279999883,73.77710279999883,73.77710279999883,73.77710279999883,73.77710279999883,73.77710279999883,73.77710279999883,73.77710279999883,73.77710279999883,,009,P016,2025_Mar_07_1448,ConditionRich,2021.2.3,59.935689005729756,
46.75,47.0,41,0.0,Stimuli/Blank.png,0,0,0.0,0,86,86,86,,,,,,,,,,,,,46.75795020000078,0.00795020000077784,None,74.52777649999916,74.52777649999916,74.52777649999916,74.52777649999916,74.52777649999916,74.52777649999916,74.52777649999916,74.52777649999916,74.52777649999916,74.52777649999916,,009,P016,2025_Mar_07_1448,ConditionRich,2021.2.3,59.935689005729756,
47.0,47.75,33,0.75,Stimuli/P016/things_raccoon_08n.jpg,0,0,0.0,0,87,87,87,,,,,,,,,,,,,47.00797240000247,0.007972400002472568,None,74.77802340000198,74.77802340000198,74.77802340000198,74.77802340000198,74.77802340000198,74.77802340000198,74.77802340000198,74.77802340000198,74.77802340000198,74.77802340000198,,009,P016,2025_Mar_07_1448,ConditionRich,2021.2.3,59.935689005729756,
47.75,48.0,41,0.0,Stimuli/Blank.png,0,0,0.0,0,88,88,88,,,,,,,,,,,,,47.758760300002905,0.008760300002904842,None,75.52866889999859,75.52866889999859,75.52866889999859,75.52866889999859,75.52866889999859,75.52866889999859,75.52866889999859,75.52866889999859,75.52866889999859,75.52866889999859,,009,P016,2025_Mar_07_1448,ConditionRich,2021.2.3,59.935689005729756,
48.0,48.75,12,0.75,Stimuli/P016/sun_boffixsnbbloarty.jpg,0,0,0.0,0,89,89,89,,,,,,,,,,,,,48.0087076000018,0.00870760000179871,None,75.77887460000056,75.77887460000056,75.77887460000056,75.77887460000056,75.77887460000056,75.77887460000056,75.77887460000056,75.77887460000056,75.77887460000056,75.77887460000056,,009,P016,2025_Mar_07_1448,ConditionRich,2021.2.3,59.935689005729756,
48.75,49.0,41,0.0,Stimuli/Blank.png,0,0,0.0,0,90,90,90,,,,,,,,,,,,,48.75988540000253,0.009885400002531242,None,76.52954450000107,76.52954450000107,76.52954450000107,76.52954450000107,76.52954450000107,76.52954450000107,76.52954450000107,76.52954450000107,76.52954450000107,76.52954450000107,,009,P016,2025_Mar_07_1448,ConditionRich,2021.2.3,59.935689005729756,
49.0,49.75,12,0.75,Stimuli/P016/sun_boffixsnbbloarty.jpg,0,0,0.0,0,91,91,91,,,,,,,,,,,,,49.009551700000884,0.009551700000884011,None,76.77976610000042,76.77976610000042,76.77976610000042,76.77976610000042,76.77976610000042,76.77976610000042,76.77976610000042,76.77976610000042,76.77976610000042,76.77976610000042,,009,P016,2025_Mar_07_1448,ConditionRich,2021.2.3,59.935689005729756,
49.75,50.0,41,0.0,Stimuli/Blank.png,0,0,0.0,0,92,92,92,,,,,,,,,,,,,49.76234190000105,0.012341900001047179,None,77.54711400000087,77.54711400000087,77.54711400000087,77.54711400000087,77.54711400000087,77.54711400000087,77.54711400000087,77.54711400000087,77.54711400000087,77.54711400000087,,009,P016,2025_Mar_07_1448,ConditionRich,2021.2.3,59.935689005729756,
50.0,50.75,12,0.75,Stimuli/P016/sun_boffixsnbbloarty.jpg,0,0,0.0,0,93,93,93,,,,,,,,,,,,,50.02722590000121,0.02722590000121272,None,77.79732639999929,77.79732639999929,77.79732639999929,77.79732639999929,77.79732639999929,77.79732639999929,77.79732639999929,77.79732639999929,77.79732639999929,77.79732639999929,,009,P016,2025_Mar_07_1448,ConditionRich,2021.2.3,59.935689005729756,
50.75,51.0,41,0.0,Stimuli/Blank.png,0,0,0.0,0,94,94,94,,,,,,,,,,,,,50.76255740000124,0.012557400001242058,None,78.53131660000145,78.53131660000145,78.53131660000145,78.53131660000145,78.53131660000145,78.53131660000145,78.53131660000145,78.53131660000145,78.53131660000145,78.53131660000145,,009,P016,2025_Mar_07_1448,ConditionRich,2021.2.3,59.935689005729756,
51.0,51.75,12,0.75,Stimuli/P016/sun_boffixsnbbloarty.jpg,0,0,0.0,0,95,95,95,,,,,,,,,,,,,51.01204100000177,0.012041000001772773,None,78.798219100001,78.798219100001,78.798219100001,78.798219100001,78.798219100001,78.798219100001,78.798219100001,78.798219100001,78.798219100001,78.798219100001,,009,P016,2025_Mar_07_1448,ConditionRich,2021.2.3,59.935689005729756,
51.75,52.0,41,0.0,Stimuli/Blank.png,0,0,0.0,0,96,96,96,,,,,,,,,,,,,51.77882320000208,0.02882320000207983,None,79.54888190000202,79.54888190000202,79.54888190000202,79.54888190000202,79.54888190000202,79.54888190000202,79.54888190000202,79.54888190000202,79.54888190000202,79.54888190000202,,009,P016,2025_Mar_07_1448,ConditionRich,2021.2.3,59.935689005729756,
52.0,52.75,21,0.75,Stimuli/P016/things_arch_08s.jpg,0,0,0.0,0,97,97,97,,,,,,,,,,,,,52.01326800000243,0.013268000002426561,None,79.79917120000027,79.79917120000027,79.79917120000027,79.79917120000027,79.79917120000027,79.79917120000027,79.79917120000027,79.79917120000027,79.79917120000027,79.79917120000027,,009,P016,2025_Mar_07_1448,ConditionRich,2021.2.3,59.935689005729756,
52.75,53.0,41,0.0,Stimuli/Blank.png,0,0,0.0,0,98,98,98,,,,,,,,,,,,,52.78259230000185,0.03259230000185198,None,80.56644410000081,80.56644410000081,80.56644410000081,80.56644410000081,80.56644410000081,80.56644410000081,80.56644410000081,80.56644410000081,80.56644410000081,80.56644410000081,,009,P016,2025_Mar_07_1448,ConditionRich,2021.2.3,59.935689005729756,
53.0,53.75,21,0.75,Stimuli/P016/things_arch_08s.jpg,0,0,0.0,0,99,99,99,,,,,,,,,,,,,53.013810000000376,0.013810000000376021,None,80.78330780000033,80.78330780000033,80.78330780000033,80.78330780000033,80.78330780000033,80.78330780000033,80.78330780000033,80.78330780000033,80.78330780000033,80.78330780000033,,009,P016,2025_Mar_07_1448,ConditionRich,2021.2.3,59.935689005729756,
53.75,54.0,41,0.0,Stimuli/Blank.png,0,0,0.0,0,100,100,100,,,,,,,,,,,,,53.76457730000038,0.01457730000038282,None,81.53396259999863,81.53396259999863,81.53396259999863,81.53396259999863,81.53396259999863,81.53396259999863,81.53396259999863,81.53396259999863,81.53396259999863,81.53396259999863,,009,P016,2025_Mar_07_1448,ConditionRich,2021.2.3,59.935689005729756,
54.0,54.75,21,0.75,Stimuli/P016/things_arch_08s.jpg,0,0,0.0,0,101,101,101,,,,,,,,,,,,,54.01398770000014,0.013987700000143377,None,81.78418629999942,81.78418629999942,81.78418629999942,81.78418629999942,81.78418629999942,81.78418629999942,81.78418629999942,81.78418629999942,81.78418629999942,81.78418629999942,,009,P016,2025_Mar_07_1448,ConditionRich,2021.2.3,59.935689005729756,
54.75,55.0,41,0.0,Stimuli/Blank.png,0,0,0.0,0,102,102,102,,,,,,,,,,,,,54.76735960000224,0.01735960000223713,None,82.55154240000047,82.55154240000047,82.55154240000047,82.55154240000047,82.55154240000047,82.55154240000047,82.55154240000047,82.55154240000047,82.55154240000047,82.55154240000047,,009,P016,2025_Mar_07_1448,ConditionRich,2021.2.3,59.935689005729756,
55.0,55.75,21,0.75,Stimuli/P016/things_arch_08s.jpg,1,0,0.75,0,103,103,103,,,,,,,,,,,,,55.01589530000274,0.015895300002739532,1,82.80177159999948,82.80177159999948,82.80177159999948,82.80177159999948,82.80177159999948,82.80177159999948,82.80177159999948,None,82.80177159999948,82.80177159999948,0.2876938000008522,009,P016,2025_Mar_07_1448,ConditionRich,2021.2.3,59.935689005729756,
55.75,56.0,41,0.0,Stimuli/Blank.png,0,0,0.0,0,104,104,104,,,,,,,,,,,,,55.766015700002754,0.016015700002753874,None,83.53574600000138,83.53574600000138,83.53574600000138,83.53574600000138,83.53574600000138,83.53574600000138,83.53574600000138,83.53574600000138,83.53574600000138,83.53574600000138,,009,P016,2025_Mar_07_1448,ConditionRich,2021.2.3,59.935689005729756,
56.0,56.75,28,0.75,Stimuli/P016/things_latte_08s.jpg,0,0,0.0,0,105,105,105,,,,,,,,,,,,,55.99954770000113,-0.00045229999886942096,None,83.78597319999972,83.78597319999972,83.78597319999972,83.78597319999972,83.78597319999972,83.78597319999972,83.78597319999972,83.78597319999972,83.78597319999972,83.78597319999972,,009,P016,2025_Mar_07_1448,ConditionRich,2021.2.3,59.935689005729756,
56.75,57.0,41,0.0,Stimuli/Blank.png,0,0,0.0,0,106,106,106,,,,,,,,,,,,,56.76684170000226,0.01684170000226004,None,84.5366228999992,84.5366228999992,84.5366228999992,84.5366228999992,84.5366228999992,84.5366228999992,84.5366228999992,84.5366228999992,84.5366228999992,84.5366228999992,,009,P016,2025_Mar_07_1448,ConditionRich,2021.2.3,59.935689005729756,
57.0,57.75,28,0.75,Stimuli/P016/things_latte_08s.jpg,0,0,0.0,0,107,107,107,,,,,,,,,,,,,57.0010082000008,0.0010082000007969327,None,84.78684599999906,84.78684599999906,84.78684599999906,84.78684599999906,84.78684599999906,84.78684599999906,84.78684599999906,84.78684599999906,84.78684599999906,84.78684599999906,,009,P016,2025_Mar_07_1448,ConditionRich,2021.2.3,59.935689005729756,
57.75,58.0,41,0.0,Stimuli/Blank.png,0,0,0.0,0,108,108,108,,,,,,,,,,,,,57.767387300002156,0.017387300002155825,None,85.53750990000117,85.53750990000117,85.53750990000117,85.53750990000117,85.53750990000117,85.53750990000117,85.53750990000117,85.53750990000117,85.53750990000117,85.53750990000117,,009,P016,2025_Mar_07_1448,ConditionRich,2021.2.3,59.935689005729756,
58.0,58.75,28,0.75,Stimuli/P016/things_latte_08s.jpg,1,0,0.75,0,109,109,109,,,,,,,,,,,,,58.00154830000247,0.0015483000024687499,1,85.78774319999866,85.78774319999866,85.78774319999866,85.78774319999866,85.78774319999866,85.78774319999866,85.78774319999866,86.5051155000001,85.78774319999866,85.78774319999866,0.33893129999705707,009,P016,2025_Mar_07_1448,ConditionRich,2021.2.3,59.935689005729756,
58.75,59.0,41,0.0,Stimuli/Blank.png,0,0,0.0,0,110,110,110,,,,,,,,,,,,,58.76836700000058,0.018367000000580447,None,86.53841370000009,86.53841370000009,86.53841370000009,86.53841370000009,86.53841370000009,86.53841370000009,86.53841370000009,86.53841370000009,86.53841370000009,86.53841370000009,,009,P016,2025_Mar_07_1448,ConditionRich,2021.2.3,59.935689005729756,
59.0,59.75,28,0.75,Stimuli/P016/things_latte_08s.jpg,0,0,0.0,0,111,111,111,,,,,,,,,,,,,59.00169509999978,0.001695099999778904,None,86.77192940000168,86.77192940000168,86.77192940000168,86.77192940000168,86.77192940000168,86.77192940000168,86.77192940000168,86.77192940000168,86.77192940000168,86.77192940000168,,009,P016,2025_Mar_07_1448,ConditionRich,2021.2.3,59.935689005729756,
59.75,60.0,41,0.0,Stimuli/Blank.png,0,0,0.0,0,112,112,112,,,,,,,,,,,,,59.753341999999975,0.003341999999975087,None,87.5226032999999,87.5226032999999,87.5226032999999,87.5226032999999,87.5226032999999,87.5226032999999,87.5226032999999,87.5226032999999,87.5226032999999,87.5226032999999,,009,P016,2025_Mar_07_1448,ConditionRich,2021.2.3,59.935689005729756,
60.0,60.75,30,0.75,Stimuli/P016/things_ottoman_08s.jpg,0,0,0.0,0,113,113,113,,,,,,,,,,,,,60.0034126999999,0.003412699999898905,None,87.77282489999925,87.77282489999925,87.77282489999925,87.77282489999925,87.77282489999925,87.77282489999925,87.77282489999925,87.77282489999925,87.77282489999925,87.77282489999925,,009,P016,2025_Mar_07_1448,ConditionRich,2021.2.3,59.935689005729756,
60.75,61.0,41,0.0,Stimuli/Blank.png,0,0,0.0,0,114,114,114,,,,,,,,,,,,,60.75323080000089,0.0032308000008924864,None,88.52347770000051,88.52347770000051,88.52347770000051,88.52347770000051,88.52347770000051,88.52347770000051,88.52347770000051,88.52347770000051,88.52347770000051,88.52347770000051,,009,P016,2025_Mar_07_1448,ConditionRich,2021.2.3,59.935689005729756,
61.0,61.75,30,0.75,Stimuli/P016/things_ottoman_08s.jpg,0,0,0.0,0,115,115,115,,,,,,,,,,,,,61.00341500000286,0.0034150000028603245,None,88.77370320000045,88.77370320000045,88.77370320000045,88.77370320000045,88.77370320000045,88.77370320000045,88.77370320000045,88.77370320000045,88.77370320000045,88.77370320000045,,009,P016,2025_Mar_07_1448,ConditionRich,2021.2.3,59.935689005729756,
61.75,62.0,41,0.0,Stimuli/Blank.png,0,0,0.0,0,116,116,116,,,,,,,,,,,,,61.75737370000206,0.007373700002062833,None,89.54104709999956,89.54104709999956,89.54104709999956,89.54104709999956,89.54104709999956,89.54104709999956,89.54104709999956,89.54104709999956,89.54104709999956,89.54104709999956,,009,P016,2025_Mar_07_1448,ConditionRich,2021.2.3,59.935689005729756,
62.0,62.75,30,0.75,Stimuli/P016/things_ottoman_08s.jpg,0,0,0.0,0,117,117,117,,,,,,,,,,,,,62.02175260000149,0.021752600001491373,None,89.79126650000035,89.79126650000035,89.79126650000035,89.79126650000035,89.79126650000035,89.79126650000035,89.79126650000035,89.79126650000035,89.79126650000035,89.79126650000035,,009,P016,2025_Mar_07_1448,ConditionRich,2021.2.3,59.935689005729756,
62.75,63.0,41,0.0,Stimuli/Blank.png,0,0,0.0,0,118,118,118,,,,,,,,,,,,,62.75712730000305,0.007127300003048731,None,90.54193600000144,90.54193600000144,90.54193600000144,90.54193600000144,90.54193600000144,90.54193600000144,90.54193600000144,90.54193600000144,90.54193600000144,90.54193600000144,,009,P016,2025_Mar_07_1448,ConditionRich,2021.2.3,59.935689005729756,
63.0,63.75,30,0.75,Stimuli/P016/things_ottoman_08s.jpg,0,0,0.0,0,119,119,119,,,,,,,,,,,,,63.02191660000244,0.021916600002441555,None,90.79214750000028,90.79214750000028,90.79214750000028,90.79214750000028,90.79214750000028,90.79214750000028,90.79214750000028,90.79214750000028,90.79214750000028,90.79214750000028,,009,P016,2025_Mar_07_1448,ConditionRich,2021.2.3,59.935689005729756,
63.75,64.0,41,0.0,Stimuli/Blank.png,0,0,0.0,0,120,120,120,,,,,,,,,,,,,63.756781000000046,0.006781000000046333,None,91.52613199999905,91.52613199999905,91.52613199999905,91.52613199999905,91.52613199999905,91.52613199999905,91.52613199999905,91.52613199999905,91.52613199999905,91.52613199999905,,009,P016,2025_Mar_07_1448,ConditionRich,2021.2.3,59.935689005729756,
64.0,64.75,1,0.75,Stimuli/P016/sun_aacpzgqrortyhyss.jpg,0,0,0.0,0,121,121,121,,,,,,,,,,,,,64.00673050000114,0.006730500001140172,None,91.77635509999891,91.77635509999891,91.77635509999891,91.77635509999891,91.77635509999891,91.77635509999891,91.77635509999891,91.77635509999891,91.77635509999891,91.77635509999891,,009,P016,2025_Mar_07_1448,ConditionRich,2021.2.3,59.935689005729756,
64.75,65.0,41,0.0,Stimuli/Blank.png,0,0,0.0,0,122,122,122,,,,,,,,,,,,,64.7576203000026,0.0076203000025998335,None,92.52702599999975,92.52702599999975,92.52702599999975,92.52702599999975,92.52702599999975,92.52702599999975,92.52702599999975,92.52702599999975,92.52702599999975,92.52702599999975,,009,P016,2025_Mar_07_1448,ConditionRich,2021.2.3,59.935689005729756,
65.0,65.75,1,0.75,Stimuli/P016/sun_aacpzgqrortyhyss.jpg,0,0,0.0,0,123,123,123,,,,,,,,,,,,,65.00774150000143,0.007741500001429813,None,92.7772647999991,92.7772647999991,92.7772647999991,92.7772647999991,92.7772647999991,92.7772647999991,92.7772647999991,92.7772647999991,92.7772647999991,92.7772647999991,,009,P016,2025_Mar_07_1448,ConditionRich,2021.2.3,59.935689005729756,
65.75,66.0,41,0.0,Stimuli/Blank.png,0,0,0.0,0,124,124,124,,,,,,,,,,,,,65.75832860000082,0.008328600000822917,None,93.52789680000205,93.52789680000205,93.52789680000205,93.52789680000205,93.52789680000205,93.52789680000205,93.52789680000205,93.52789680000205,93.52789680000205,93.52789680000205,,009,P016,2025_Mar_07_1448,ConditionRich,2021.2.3,59.935689005729756,
66.0,66.75,1,0.75,Stimuli/P016/sun_aacpzgqrortyhyss.jpg,0,0,0.0,0,125,125,125,,,,,,,,,,,,,66.00806210000155,0.008062100001552608,None,93.77811970000039,93.77811970000039,93.77811970000039,93.77811970000039,93.77811970000039,93.77811970000039,93.77811970000039,93.77811970000039,93.77811970000039,93.77811970000039,,009,P016,2025_Mar_07_1448,ConditionRich,2021.2.3,59.935689005729756,
66.75,67.0,41,0.0,Stimuli/Blank.png,0,0,0.0,0,126,126,126,,,,,,,,,,,,,66.75860079999984,0.008600799999840092,None,94.52879350000148,94.52879350000148,94.52879350000148,94.52879350000148,94.52879350000148,94.52879350000148,94.52879350000148,94.52879350000148,94.52879350000148,94.52879350000148,,009,P016,2025_Mar_07_1448,ConditionRich,2021.2.3,59.935689005729756,
67.0,67.75,1,0.75,Stimuli/P016/sun_aacpzgqrortyhyss.jpg,0,0,0.0,0,127,127,127,,,,,,,,,,,,,67.00993430000017,0.00993430000016815,None,94.77900420000151,94.77900420000151,94.77900420000151,94.77900420000151,94.77900420000151,94.77900420000151,94.77900420000151,94.77900420000151,94.77900420000151,94.77900420000151,,009,P016,2025_Mar_07_1448,ConditionRich,2021.2.3,59.935689005729756,
67.75,68.0,41,0.0,Stimuli/Blank.png,0,0,0.0,0,128,128,128,,,,,,,,,,,,,67.75948040000003,0.009480400000029476,None,95.52967200000057,95.52967200000057,95.52967200000057,95.52967200000057,95.52967200000057,95.52967200000057,95.52967200000057,95.52967200000057,95.52967200000057,95.52967200000057,,009,P016,2025_Mar_07_1448,ConditionRich,2021.2.3,59.935689005729756,
68.0,68.75,29,0.75,Stimuli/P016/things_mouse1_08s.jpg,0,0,0.0,0,129,129,129,,,,,,,,,,,,,68.00982840000142,0.009828400001424598,None,95.79659829999946,95.79659829999946,95.79659829999946,95.79659829999946,95.79659829999946,95.79659829999946,95.79659829999946,95.79659829999946,95.79659829999946,95.79659829999946,,009,P016,2025_Mar_07_1448,ConditionRich,2021.2.3,59.935689005729756,
68.75,69.0,41,0.0,Stimuli/Blank.png,0,0,0.0,0,130,130,130,,,,,,,,,,,,,68.85434350000287,0.1043435000028694,None,96.63065370000186,96.63065370000186,96.63065370000186,96.63065370000186,96.63065370000186,96.63065370000186,96.63065370000186,96.63065370000186,96.63065370000186,96.63065370000186,,009,P016,2025_Mar_07_1448,ConditionRich,2021.2.3,59.935689005729756,
69.0,69.75,29,0.75,Stimuli/P016/things_mouse1_08s.jpg,0,0,0.0,0,131,131,131,,,,,,,,,,,,,69.01113729999997,0.011137299999973038,None,96.7807799000002,96.7807799000002,96.7807799000002,96.7807799000002,96.7807799000002,96.7807799000002,96.7807799000002,96.7807799000002,96.7807799000002,96.7807799000002,,009,P016,2025_Mar_07_1448,ConditionRich,2021.2.3,59.935689005729756,
69.75,70.0,41,0.0,Stimuli/Blank.png,0,0,0.0,0,132,132,132,,,,,,,,,,,,,69.76193039999998,0.01193039999998291,None,97.53144350000002,97.53144350000002,97.53144350000002,97.53144350000002,97.53144350000002,97.53144350000002,97.53144350000002,97.53144350000002,97.53144350000002,97.53144350000002,,009,P016,2025_Mar_07_1448,ConditionRich,2021.2.3,59.935689005729756,
70.0,70.75,29,0.75,Stimuli/P016/things_mouse1_08s.jpg,0,0,0.0,0,133,133,133,,,,,,,,,,,,,70.01281930000187,0.012819300001865486,None,97.79834820000178,97.79834820000178,97.79834820000178,97.79834820000178,97.79834820000178,97.79834820000178,97.79834820000178,97.79834820000178,97.79834820000178,97.79834820000178,,009,P016,2025_Mar_07_1448,ConditionRich,2021.2.3,59.935689005729756,
70.75,71.0,41,0.0,Stimuli/Blank.png,0,0,0.0,0,134,134,134,,,,,,,,,,,,,70.77986400000009,0.02986400000008871,None,98.54901370000152,98.54901370000152,98.54901370000152,98.54901370000152,98.54901370000152,98.54901370000152,98.54901370000152,98.54901370000152,98.54901370000152,98.54901370000152,,009,P016,2025_Mar_07_1448,ConditionRich,2021.2.3,59.935689005729756,
71.0,71.75,29,0.75,Stimuli/P016/things_mouse1_08s.jpg,0,0,0.0,0,135,135,135,,,,,,,,,,,,,71.01409570000033,0.01409570000032545,None,98.79922520000036,98.79922520000036,98.79922520000036,98.79922520000036,98.79922520000036,98.79922520000036,98.79922520000036,98.79922520000036,98.79922520000036,98.79922520000036,,009,P016,2025_Mar_07_1448,ConditionRich,2021.2.3,59.935689005729756,
71.75,72.0,41,0.0,Stimuli/Blank.png,0,0,0.0,0,136,136,136,,,,,,,,,,,,,71.78227660000266,0.032276600002660416,None,99.56659919999947,99.56659919999947,99.56659919999947,99.56659919999947,99.56659919999947,99.56659919999947,99.56659919999947,99.56659919999947,99.56659919999947,99.56659919999947,,009,P016,2025_Mar_07_1448,ConditionRich,2021.2.3,59.935689005729756,
72.0,72.75,3,0.75,Stimuli/P016/sun_aiogwnavezqxkzfg.jpg,0,0,0.0,0,137,137,137,,,,,,,,,,,,,72.01382860000012,0.013828600000124425,None,99.7834272,99.7834272,99.7834272,99.7834272,99.7834272,99.7834272,99.7834272,99.7834272,99.7834272,99.7834272,,009,P016,2025_Mar_07_1448,ConditionRich,2021.2.3,59.935689005729756,
72.75,73.0,41,0.0,Stimuli/Blank.png,0,0,0.0,0,138,138,138,,,,,,,,,,,,,72.76402810000218,0.01402810000217869,None,100.53409900000042,100.53409900000042,100.53409900000042,100.53409900000042,100.53409900000042,100.53409900000042,100.53409900000042,100.53409900000042,100.53409900000042,100.53409900000042,,009,P016,2025_Mar_07_1448,ConditionRich,2021.2.3,59.935689005729756,
73.0,73.75,3,0.75,Stimuli/P016/sun_aiogwnavezqxkzfg.jpg,0,0,0.0,0,139,139,139,,,,,,,,,,,,,73.01446940000096,0.014469400000962196,None,100.7843157999996,100.7843157999996,100.7843157999996,100.7843157999996,100.7843157999996,100.7843157999996,100.7843157999996,100.7843157999996,100.7843157999996,100.7843157999996,,009,P016,2025_Mar_07_1448,ConditionRich,2021.2.3,59.935689005729756,
73.75,74.0,41,0.0,Stimuli/Blank.png,0,0,0.0,0,140,140,140,,,,,,,,,,,,,73.76467200000116,0.014672000001155538,None,101.53498229999968,101.53498229999968,101.53498229999968,101.53498229999968,101.53498229999968,101.53498229999968,101.53498229999968,101.53498229999968,101.53498229999968,101.53498229999968,,009,P016,2025_Mar_07_1448,ConditionRich,2021.2.3,59.935689005729756,
74.0,74.75,3,0.75,Stimuli/P016/sun_aiogwnavezqxkzfg.jpg,0,0,0.0,0,141,141,141,,,,,,,,,,,,,74.01505950000137,0.015059500001370907,None,101.80190760000187,101.80190760000187,101.80190760000187,101.80190760000187,101.80190760000187,101.80190760000187,101.80190760000187,101.80190760000187,101.80190760000187,101.80190760000187,,009,P016,2025_Mar_07_1448,ConditionRich,2021.2.3,59.935689005729756,
74.75,75.0,41,0.0,Stimuli/Blank.png,0,0,0.0,0,142,142,142,,,,,,,,,,,,,74.76922560000094,0.019225600000936538,None,102.55257820000043,102.55257820000043,102.55257820000043,102.55257820000043,102.55257820000043,102.55257820000043,102.55257820000043,102.55257820000043,102.55257820000043,102.55257820000043,,009,P016,2025_Mar_07_1448,ConditionRich,2021.2.3,59.935689005729756,
75.0,75.75,3,0.75,Stimuli/P016/sun_aiogwnavezqxkzfg.jpg,0,0,0.0,0,143,143,143,,,,,,,,,,,,,75.01658800000223,0.01658800000222982,None,102.78609549999965,102.78609549999965,102.78609549999965,102.78609549999965,102.78609549999965,102.78609549999965,102.78609549999965,102.78609549999965,102.78609549999965,102.78609549999965,,009,P016,2025_Mar_07_1448,ConditionRich,2021.2.3,59.935689005729756,
75.75,76.0,41,0.0,Stimuli/Blank.png,0,0,0.0,0,144,144,144,,,,,,,,,,,,,75.75264290000268,0.0026429000026837457,None,103.53675750000184,103.53675750000184,103.53675750000184,103.53675750000184,103.53675750000184,103.53675750000184,103.53675750000184,103.53675750000184,103.53675750000184,103.53675750000184,,009,P016,2025_Mar_07_1448,ConditionRich,2021.2.3,59.935689005729756,
76.0,76.75,40,0.75,Stimuli/P016/things_woman_08s.jpg,0,0,0.0,0,145,145,145,,,,,,,,,,,,,76.01753649999955,0.01753649999955087,None,103.7869763000017,103.7869763000017,103.7869763000017,103.7869763000017,103.7869763000017,103.7869763000017,103.7869763000017,103.7869763000017,103.7869763000017,103.7869763000017,,009,P016,2025_Mar_07_1448,ConditionRich,2021.2.3,59.935689005729756,
76.75,77.0,41,0.0,Stimuli/Blank.png,0,0,0.0,0,146,146,146,,,,,,,,,,,,,76.75302880000163,0.003028800001629861,None,104.53765930000009,104.53765930000009,104.53765930000009,104.53765930000009,104.53765930000009,104.53765930000009,104.53765930000009,104.53765930000009,104.53765930000009,104.53765930000009,,009,P016,2025_Mar_07_1448,ConditionRich,2021.2.3,59.935689005729756,
77.0,77.75,40,0.75,Stimuli/P016/things_woman_08s.jpg,0,0,0.0,0,147,147,147,,,,,,,,,,,,,77.01831030000176,0.01831030000175815,None,104.80448289999913,104.80448289999913,104.80448289999913,104.80448289999913,104.80448289999913,104.80448289999913,104.80448289999913,104.80448289999913,104.80448289999913,104.80448289999913,,009,P016,2025_Mar_07_1448,ConditionRich,2021.2.3,59.935689005729756,
77.75,78.0,41,0.0,Stimuli/Blank.png,0,0,0.0,0,148,148,148,,,,,,,,,,,,,77.76899460000277,0.018994600002770312,None,105.5385219000018,105.5385219000018,105.5385219000018,105.5385219000018,105.5385219000018,105.5385219000018,105.5385219000018,105.5385219000018,105.5385219000018,105.5385219000018,,009,P016,2025_Mar_07_1448,ConditionRich,2021.2.3,59.935689005729756,
78.0,78.75,40,0.75,Stimuli/P016/things_woman_08s.jpg,0,0,0.0,0,149,149,149,,,,,,,,,,,,,78.003174700003,0.0031747000030009076,None,105.78875569999946,105.78875569999946,105.78875569999946,105.78875569999946,105.78875569999946,105.78875569999946,105.78875569999946,105.78875569999946,105.78875569999946,105.78875569999946,,009,P016,2025_Mar_07_1448,ConditionRich,2021.2.3,59.935689005729756,
78.75,79.0,41,0.0,Stimuli/Blank.png,0,0,0.0,0,150,150,150,,,,,,,,,,,,,78.77066760000162,0.020667600001615938,None,106.53938240000207,106.53938240000207,106.53938240000207,106.53938240000207,106.53938240000207,106.53938240000207,106.53938240000207,106.53938240000207,106.53938240000207,106.53938240000207,,009,P016,2025_Mar_07_1448,ConditionRich,2021.2.3,59.935689005729756,
79.0,79.75,40,0.75,Stimuli/P016/things_woman_08s.jpg,0,0,0.0,0,151,151,151,,,,,,,,,,,,,79.00321450000047,0.003214500000467524,None,106.77295650000087,106.77295650000087,106.77295650000087,106.77295650000087,106.77295650000087,106.77295650000087,106.77295650000087,106.77295650000087,106.77295650000087,106.77295650000087,,009,P016,2025_Mar_07_1448,ConditionRich,2021.2.3,59.935689005729756,
79.75,80.0,41,0.0,Stimuli/Blank.png,0,0,0.0,0,152,152,152,,,,,,,,,,,,,79.75365800000145,0.0036580000014510006,None,107.52361380000002,107.52361380000002,107.52361380000002,107.52361380000002,107.52361380000002,107.52361380000002,107.52361380000002,107.52361380000002,107.52361380000002,107.52361380000002,,009,P016,2025_Mar_07_1448,ConditionRich,2021.2.3,59.935689005729756,
80.0,80.75,34,0.75,Stimuli/P016/things_shower_cap_08s.jpg,0,0,0.0,0,153,153,153,,,,,,,,,,,,,80.00433460000204,0.004334600002039224,None,107.79051669999899,107.79051669999899,107.79051669999899,107.79051669999899,107.79051669999899,107.79051669999899,107.79051669999899,107.79051669999899,107.79051669999899,107.79051669999899,,009,P016,2025_Mar_07_1448,ConditionRich,2021.2.3,59.935689005729756,
80.75,81.0,41,0.0,Stimuli/Blank.png,0,0,0.0,0,154,154,154,,,,,,,,,,,,,80.77251420000175,0.022514200001751306,None,108.54119840000203,108.54119840000203,108.54119840000203,108.54119840000203,108.54119840000203,108.54119840000203,108.54119840000203,108.54119840000203,108.54119840000203,108.54119840000203,,009,P016,2025_Mar_07_1448,ConditionRich,2021.2.3,59.935689005729756,
81.0,81.75,34,0.75,Stimuli/P016/things_shower_cap_08s.jpg,0,0,0.0,0,155,155,155,,,,,,,,,,,,,81.00523360000079,0.005233600000792649,None,108.79140009999901,108.79140009999901,108.79140009999901,108.79140009999901,108.79140009999901,108.79140009999901,108.79140009999901,108.79140009999901,108.79140009999901,108.79140009999901,,009,P016,2025_Mar_07_1448,ConditionRich,2021.2.3,59.935689005729756,
81.75,82.0,41,0.0,Stimuli/Blank.png,0,0,0.0,0,156,156,156,,,,,,,,,,,,,81.77297030000045,0.02297030000045197,None,109.55877740000142,109.55877740000142,109.55877740000142,109.55877740000142,109.55877740000142,109.55877740000142,109.55877740000142,109.55877740000142,109.55877740000142,109.55877740000142,,009,P016,2025_Mar_07_1448,ConditionRich,2021.2.3,59.935689005729756,
82.0,82.75,34,0.75,Stimuli/P016/things_shower_cap_08s.jpg,0,0,0.0,0,157,157,157,,,,,,,,,,,,,82.02301450000232,0.023014500002318528,None,109.79228390000208,109.79228390000208,109.79228390000208,109.79228390000208,109.79228390000208,109.79228390000208,109.79228390000208,109.79228390000208,109.79228390000208,109.79228390000208,,009,P016,2025_Mar_07_1448,ConditionRich,2021.2.3,59.935689005729756,
82.75,83.0,41,0.0,Stimuli/Blank.png,0,0,0.0,0,158,158,158,,,,,,,,,,,,,82.75603730000148,0.006037300001480617,None,110.52627410000059,110.52627410000059,110.52627410000059,110.52627410000059,110.52627410000059,110.52627410000059,110.52627410000059,110.52627410000059,110.52627410000059,110.52627410000059,,009,P016,2025_Mar_07_1448,ConditionRich,2021.2.3,59.935689005729756,
83.0,83.75,34,0.75,Stimuli/P016/things_shower_cap_08s.jpg,0,0,0.0,0,159,159,159,,,,,,,,,,,,,83.00718590000179,0.007185900001786649,None,110.79318359999888,110.79318359999888,110.79318359999888,110.79318359999888,110.79318359999888,110.79318359999888,110.79318359999888,110.79318359999888,110.79318359999888,110.79318359999888,,009,P016,2025_Mar_07_1448,ConditionRich,2021.2.3,59.935689005729756,
83.75,84.0,41,0.0,Stimuli/Blank.png,0,0,0.0,0,160,160,160,,,,,,,,,,,,,83.77409389999957,0.024093899999570567,None,111.54382729999998,111.54382729999998,111.54382729999998,111.54382729999998,111.54382729999998,111.54382729999998,111.54382729999998,111.54382729999998,111.54382729999998,111.54382729999998,,009,P016,2025_Mar_07_1448,ConditionRich,2021.2.3,59.935689005729756,
84.0,100.0,0,0.0,Stimuli/Blank.png,1,3,3.75,0,161,161,161,,,,,,,,,,,,,84.0076095000004,0.007609500000398839,1,111.77737569999954,111.77737569999954,111.77737569999954,111.77737569999954,111.77737569999954,111.77737569999954,114.7633496999988,115.51411029999872,111.77737569999954,111.77737569999954,3.3150280000008934,009,P016,2025_Mar_07_1448,ConditionRich,2021.2.3,59.935689005729756,
100.0,100.75,14,0.75,Stimuli/P016/sun_bpvmkbyglkraoxhh.jpg,0,0,0.0,0,162,162,162,,,,,,,,,,,,,100.0051921000013,0.00519210000129533,None,127.79152560000148,127.79152560000148,127.79152560000148,127.79152560000148,127.79152560000148,127.79152560000148,127.79152560000148,127.79152560000148,127.79152560000148,127.79152560000148,,009,P016,2025_Mar_07_1448,ConditionRich,2021.2.3,59.935689005729756,
100.75,101.0,41,0.0,Stimuli/Blank.png,0,0,0.0,0,163,163,163,,,,,,,,,,,,,100.77195190000202,0.02195190000202274,None,128.54218899999978,128.54218899999978,128.54218899999978,128.54218899999978,128.54218899999978,128.54218899999978,128.54218899999978,128.54218899999978,128.54218899999978,128.54218899999978,,009,P016,2025_Mar_07_1448,ConditionRich,2021.2.3,59.935689005729756,
101.0,101.75,14,0.75,Stimuli/P016/sun_bpvmkbyglkraoxhh.jpg,0,0,0.0,0,164,164,164,,,,,,,,,,,,,101.00765719999981,0.007657199999812292,None,128.79244409999956,128.79244409999956,128.79244409999956,128.79244409999956,128.79244409999956,128.79244409999956,128.79244409999956,128.79244409999956,128.79244409999956,128.79244409999956,,009,P016,2025_Mar_07_1448,ConditionRich,2021.2.3,59.935689005729756,
101.75,102.0,41,0.0,Stimuli/Blank.png,0,0,0.0,0,165,165,165,,,,,,,,,,,,,101.772995000003,0.022995000002993038,None,129.54307680000056,129.54307680000056,129.54307680000056,129.54307680000056,129.54307680000056,129.54307680000056,129.54307680000056,129.54307680000056,129.54307680000056,129.54307680000056,,009,P016,2025_Mar_07_1448,ConditionRich,2021.2.3,59.935689005729756,
102.0,102.75,14,0.75,Stimuli/P016/sun_bpvmkbyglkraoxhh.jpg,0,0,0.0,0,166,166,166,,,,,,,,,,,,,102.00781140000254,0.007811400002537994,None,129.79333260000203,129.79333260000203,129.79333260000203,129.79333260000203,129.79333260000203,129.79333260000203,129.79333260000203,129.79333260000203,129.79333260000203,129.79333260000203,,009,P016,2025_Mar_07_1448,ConditionRich,2021.2.3,59.935689005729756,
102.75,103.0,41,0.0,Stimuli/Blank.png,0,0,0.0,0,167,167,167,,,,,,,,,,,,,102.77454070000022,0.02454070000021602,None,130.54392089999965,130.54392089999965,130.54392089999965,130.54392089999965,130.54392089999965,130.54392089999965,130.54392089999965,130.54392089999965,130.54392089999965,130.54392089999965,,009,P016,2025_Mar_07_1448,ConditionRich,2021.2.3,59.935689005729756,
103.0,103.75,14,0.75,Stimuli/P016/sun_bpvmkbyglkraoxhh.jpg,0,0,0.0,0,168,168,168,,,,,,,,,,,,,103.00810020000063,0.0081002000006265,None,130.7941748000012,130.7941748000012,130.7941748000012,130.7941748000012,130.7941748000012,130.7941748000012,130.7941748000012,130.7941748000012,130.7941748000012,130.7941748000012,,009,P016,2025_Mar_07_1448,ConditionRich,2021.2.3,59.935689005729756,
103.75,104.0,41,0.0,Stimuli/Blank.png,0,0,0.0,0,169,169,169,,,,,,,,,,,,,103.77715330000137,0.02715330000137328,None,131.56153020000056,131.56153020000056,131.56153020000056,131.56153020000056,131.56153020000056,131.56153020000056,131.56153020000056,131.56153020000056,131.56153020000056,131.56153020000056,,009,P016,2025_Mar_07_1448,ConditionRich,2021.2.3,59.935689005729756,
104.0,104.75,31,0.75,Stimuli/P016/things_outlet_08s.jpg,0,0,0.0,0,170,170,170,,,,,,,,,,,,,104.02740450000056,0.027404500000557164,None,131.81174910000118,131.81174910000118,131.81174910000118,131.81174910000118,131.81174910000118,131.81174910000118,131.81174910000118,131.81174910000118,131.81174910000118,131.81174910000118,,009,P016,2025_Mar_07_1448,ConditionRich,2021.2.3,59.935689005729756,
104.75,105.0,41,0.0,Stimuli/Blank.png,0,0,0.0,0,171,171,171,,,,,,,,,,,,,104.7784642000006,0.028464200000598794,None,132.56242230000134,132.56242230000134,132.56242230000134,132.56242230000134,132.56242230000134,132.56242230000134,132.56242230000134,132.56242230000134,132.56242230000134,132.56242230000134,,009,P016,2025_Mar_07_1448,ConditionRich,2021.2.3,59.935689005729756,
105.0,105.75,31,0.75,Stimuli/P016/things_outlet_08s.jpg,0,0,0.0,0,172,172,172,,,,,,,,,,,,,105.02779620000001,0.027796200000011595,None,132.81263899999976,132.81263899999976,132.81263899999976,132.81263899999976,132.81263899999976,132.81263899999976,132.81263899999976,132.81263899999976,132.81263899999976,132.81263899999976,,009,P016,2025_Mar_07_1448,ConditionRich,2021.2.3,59.935689005729756,
105.75,106.0,41,0.0,Stimuli/Blank.png,0,0,0.0,0,173,173,173,,,,,,,,,,,,,105.77705760000026,0.027057600000262028,None,133.5466317999999,133.5466317999999,133.5466317999999,133.5466317999999,133.5466317999999,133.5466317999999,133.5466317999999,133.5466317999999,133.5466317999999,133.5466317999999,,009,P016,2025_Mar_07_1448,ConditionRich,2021.2.3,59.935689005729756,
106.0,106.75,31,0.75,Stimuli/P016/things_outlet_08s.jpg,0,0,0.0,0,174,174,174,,,,,,,,,,,,,106.01262739999947,0.01262739999947371,None,133.79683759999898,133.79683759999898,133.79683759999898,133.79683759999898,133.79683759999898,133.79683759999898,133.79683759999898,133.79683759999898,133.79683759999898,133.79683759999898,,009,P016,2025_Mar_07_1448,ConditionRich,2021.2.3,59.935689005729756,
106.75,107.0,41,0.0,Stimuli/Blank.png,0,0,0.0,0,175,175,175,,,,,,,,,,,,,106.77800930000012,0.028009300000121584,None,134.54749209999864,134.54749209999864,134.54749209999864,134.54749209999864,134.54749209999864,134.54749209999864,134.54749209999864,134.54749209999864,134.54749209999864,134.54749209999864,,009,P016,2025_Mar_07_1448,ConditionRich,2021.2.3,59.935689005729756,
107.0,107.75,31,0.75,Stimuli/P016/things_outlet_08s.jpg,0,0,0.0,0,176,176,176,,,,,,,,,,,,,107.01287760000196,0.012877600001957035,None,134.7977221000001,134.7977221000001,134.7977221000001,134.7977221000001,134.7977221000001,134.7977221000001,134.7977221000001,134.7977221000001,134.7977221000001,134.7977221000001,,009,P016,2025_Mar_07_1448,ConditionRich,2021.2.3,59.935689005729756,
107.75,108.0,41,0.0,Stimuli/Blank.png,0,0,0.0,0,177,177,177,,,,,,,,,,,,,107.77835340000092,0.02835340000092401,None,135.54838050000035,135.54838050000035,135.54838050000035,135.54838050000035,135.54838050000035,135.54838050000035,135.54838050000035,135.54838050000035,135.54838050000035,135.54838050000035,,009,P016,2025_Mar_07_1448,ConditionRich,2021.2.3,59.935689005729756,
108.0,108.75,22,0.75,Stimuli/P016/things_baby_08s.jpg,0,0,0.0,0,178,178,178,,,,,,,,,,,,,108.01315550000072,0.013155500000721077,None,135.78192219999983,135.78192219999983,135.78192219999983,135.78192219999983,135.78192219999983,135.78192219999983,135.78192219999983,135.78192219999983,135.78192219999983,135.78192219999983,,009,P016,2025_Mar_07_1448,ConditionRich,2021.2.3,59.935689005729756,
108.75,109.0,41,0.0,Stimuli/Blank.png,0,0,0.0,0,179,179,179,,,,,,,,,,,,,108.76248940000005,0.0124894000000495,None,136.53259239999898,136.53259239999898,136.53259239999898,136.53259239999898,136.53259239999898,136.53259239999898,136.53259239999898,136.53259239999898,136.53259239999898,136.53259239999898,,009,P016,2025_Mar_07_1448,ConditionRich,2021.2.3,59.935689005729756,
109.0,109.75,22,0.75,Stimuli/P016/things_baby_08s.jpg,0,0,0.0,0,180,180,180,,,,,,,,,,,,,109.01269410000168,0.012694100001681363,None,136.7827811999996,136.7827811999996,136.7827811999996,136.7827811999996,136.7827811999996,136.7827811999996,136.7827811999996,136.7827811999996,136.7827811999996,136.7827811999996,,009,P016,2025_Mar_07_1448,ConditionRich,2021.2.3,59.935689005729756,
109.75,110.0,41,0.0,Stimuli/Blank.png,0,0,0.0,0,181,181,181,,,,,,,,,,,,,109.76402539999981,0.014025399999809451,None,137.53347660000145,137.53347660000145,137.53347660000145,137.53347660000145,137.53347660000145,137.53347660000145,137.53347660000145,137.53347660000145,137.53347660000145,137.53347660000145,,009,P016,2025_Mar_07_1448,ConditionRich,2021.2.3,59.935689005729756,
110.0,110.75,22,0.75,Stimuli/P016/things_baby_08s.jpg,0,0,0.0,0,182,182,182,,,,,,,,,,,,,110.01451790000283,0.014517900002829265,None,137.78369340000063,137.78369340000063,137.78369340000063,137.78369340000063,137.78369340000063,137.78369340000063,137.78369340000063,137.78369340000063,137.78369340000063,137.78369340000063,,009,P016,2025_Mar_07_1448,ConditionRich,2021.2.3,59.935689005729756,
110.75,111.0,41,0.0,Stimuli/Blank.png,0,0,0.0,0,183,183,183,,,,,,,,,,,,,110.76451540000198,0.014515400001982925,None,138.53437789999953,138.53437789999953,138.53437789999953,138.53437789999953,138.53437789999953,138.53437789999953,138.53437789999953,138.53437789999953,138.53437789999953,138.53437789999953,,009,P016,2025_Mar_07_1448,ConditionRich,2021.2.3,59.935689005729756,
111.0,111.75,22,0.75,Stimuli/P016/things_baby_08s.jpg,0,0,0.0,0,184,184,184,,,,,,,,,,,,,111.01447330000155,0.01447330000155489,None,138.78457360000175,138.78457360000175,138.78457360000175,138.78457360000175,138.78457360000175,138.78457360000175,138.78457360000175,138.78457360000175,138.78457360000175,138.78457360000175,,009,P016,2025_Mar_07_1448,ConditionRich,2021.2.3,59.935689005729756,
111.75,112.0,41,0.0,Stimuli/Blank.png,0,0,0.0,0,185,185,185,,,,,,,,,,,,,111.76560950000203,0.015609500002028653,None,139.53531440000006,139.53531440000006,139.53531440000006,139.53531440000006,139.53531440000006,139.53531440000006,139.53531440000006,139.53531440000006,139.53531440000006,139.53531440000006,,009,P016,2025_Mar_07_1448,ConditionRich,2021.2.3,59.935689005729756,
112.0,112.75,11,0.75,Stimuli/P016/sun_bnwmcjuinqbdsbho.jpg,0,0,0.0,0,186,186,186,,,,,,,,,,,,,111.9986807000023,-0.001319299997703638,None,139.76874580000003,139.76874580000003,139.76874580000003,139.76874580000003,139.76874580000003,139.76874580000003,139.76874580000003,139.76874580000003,139.76874580000003,139.76874580000003,,009,P016,2025_Mar_07_1448,ConditionRich,2021.2.3,59.935689005729756,
112.75,113.0,41,0.0,Stimuli/Blank.png,0,0,0.0,0,187,187,187,,,,,,,,,,,,,112.74970720000056,-0.00029279999944265,None,140.51944290000029,140.51944290000029,140.51944290000029,140.51944290000029,140.51944290000029,140.51944290000029,140.51944290000029,140.51944290000029,140.51944290000029,140.51944290000029,,009,P016,2025_Mar_07_1448,ConditionRich,2021.2.3,59.935689005729756,
113.0,113.75,11,0.75,Stimuli/P016/sun_bnwmcjuinqbdsbho.jpg,0,0,0.0,0,188,188,188,,,,,,,,,,,,,113.0004168000014,0.00041680000140331686,None,140.7863408000012,140.7863408000012,140.7863408000012,140.7863408000012,140.7863408000012,140.7863408000012,140.7863408000012,140.7863408000012,140.7863408000012,140.7863408000012,,009,P016,2025_Mar_07_1448,ConditionRich,2021.2.3,59.935689005729756,
113.75,114.0,41,0.0,Stimuli/Blank.png,0,0,0.0,0,189,189,189,,,,,,,,,,,,,113.76862819999951,0.018628199999511708,None,141.53769119999924,141.53769119999924,141.53769119999924,141.53769119999924,141.53769119999924,141.53769119999924,141.53769119999924,141.53769119999924,141.53769119999924,141.53769119999924,,009,P016,2025_Mar_07_1448,ConditionRich,2021.2.3,59.935689005729756,
114.0,114.75,11,0.75,Stimuli/P016/sun_bnwmcjuinqbdsbho.jpg,0,0,0.0,0,190,190,190,,,,,,,,,,,,,114.00131730000066,0.0013173000006645452,None,141.77057250000144,141.77057250000144,141.77057250000144,141.77057250000144,141.77057250000144,141.77057250000144,141.77057250000144,141.77057250000144,141.77057250000144,141.77057250000144,,009,P016,2025_Mar_07_1448,ConditionRich,2021.2.3,59.935689005729756,
114.75,115.0,41,0.0,Stimuli/Blank.png,0,0,0.0,0,191,191,191,,,,,,,,,,,,,114.75210330000118,0.0021033000011811964,None,142.52120859999923,142.52120859999923,142.52120859999923,142.52120859999923,142.52120859999923,142.52120859999923,142.52120859999923,142.52120859999923,142.52120859999923,142.52120859999923,,009,P016,2025_Mar_07_1448,ConditionRich,2021.2.3,59.935689005729756,
115.0,115.75,11,0.75,Stimuli/P016/sun_bnwmcjuinqbdsbho.jpg,0,0,0.0,0,192,192,192,,,,,,,,,,,,,115.0028929,0.0028929000000061933,None,142.78813889999947,142.78813889999947,142.78813889999947,142.78813889999947,142.78813889999947,142.78813889999947,142.78813889999947,142.78813889999947,142.78813889999947,142.78813889999947,,009,P016,2025_Mar_07_1448,ConditionRich,2021.2.3,59.935689005729756,
115.75,116.0,41,0.0,Stimuli/Blank.png,0,0,0.0,0,193,193,193,,,,,,,,,,,,,115.76875440000003,0.018754400000034366,None,143.5387918000015,143.5387918000015,143.5387918000015,143.5387918000015,143.5387918000015,143.5387918000015,143.5387918000015,143.5387918000015,143.5387918000015,143.5387918000015,,009,P016,2025_Mar_07_1448,ConditionRich,2021.2.3,59.935689005729756,
116.0,116.75,15,0.75,Stimuli/P016/sun_bvfcijehgdsndfbg.jpg,0,0,0.0,0,194,194,194,,,,,,,,,,,,,116.00281080000059,0.0028108000005886424,None,143.78902559999915,143.78902559999915,143.78902559999915,143.78902559999915,143.78902559999915,143.78902559999915,143.78902559999915,143.78902559999915,143.78902559999915,143.78902559999915,,009,P016,2025_Mar_07_1448,ConditionRich,2021.2.3,59.935689005729756,
116.75,117.0,41,0.0,Stimuli/Blank.png,0,0,0.0,0,195,195,195,,,,,,,,,,,,,116.77265270000134,0.022652700001344783,None,144.5563469000008,144.5563469000008,144.5563469000008,144.5563469000008,144.5563469000008,144.5563469000008,144.5563469000008,144.5563469000008,144.5563469000008,144.5563469000008,,009,P016,2025_Mar_07_1448,ConditionRich,2021.2.3,59.935689005729756,
117.0,117.75,15,0.75,Stimuli/P016/sun_bvfcijehgdsndfbg.jpg,0,0,0.0,0,196,196,196,,,,,,,,,,,,,117.01981460000025,0.019814600000245264,None,144.78988609999942,144.78988609999942,144.78988609999942,144.78988609999942,144.78988609999942,144.78988609999942,144.78988609999942,144.78988609999942,144.78988609999942,144.78988609999942,,009,P016,2025_Mar_07_1448,ConditionRich,2021.2.3,59.935689005729756,
117.75,118.0,41,0.0,Stimuli/Blank.png,0,0,0.0,0,197,197,197,,,,,,,,,,,,,117.75470390000191,0.004703900001914008,None,145.5238621999997,145.5238621999997,145.5238621999997,145.5238621999997,145.5238621999997,145.5238621999997,145.5238621999997,145.5238621999997,145.5238621999997,145.5238621999997,,009,P016,2025_Mar_07_1448,ConditionRich,2021.2.3,59.935689005729756,
118.0,118.75,15,0.75,Stimuli/P016/sun_bvfcijehgdsndfbg.jpg,0,0,0.0,0,198,198,198,,,,,,,,,,,,,118.00533280000309,0.005332800003088778,None,145.7907696000002,145.7907696000002,145.7907696000002,145.7907696000002,145.7907696000002,145.7907696000002,145.7907696000002,145.7907696000002,145.7907696000002,145.7907696000002,,009,P016,2025_Mar_07_1448,ConditionRich,2021.2.3,59.935689005729756,
118.75,119.0,41,0.0,Stimuli/Blank.png,0,0,0.0,0,199,199,199,,,,,,,,,,,,,118.77249940000183,0.022499400001834147,None,146.54146820000096,146.54146820000096,146.54146820000096,146.54146820000096,146.54146820000096,146.54146820000096,146.54146820000096,146.54146820000096,146.54146820000096,146.54146820000096,,009,P016,2025_Mar_07_1448,ConditionRich,2021.2.3,59.935689005729756,
119.0,119.75,15,0.75,Stimuli/P016/sun_bvfcijehgdsndfbg.jpg,0,0,0.0,0,200,200,200,,,,,,,,,,,,,119.00585430000137,0.005854300001374213,None,146.7916507000009,146.7916507000009,146.7916507000009,146.7916507000009,146.7916507000009,146.7916507000009,146.7916507000009,146.7916507000009,146.7916507000009,146.7916507000009,,009,P016,2025_Mar_07_1448,ConditionRich,2021.2.3,59.935689005729756,
119.75,120.0,41,0.0,Stimuli/Blank.png,0,0,0.0,0,201,201,201,,,,,,,,,,,,,119.77400100000159,0.02400100000159,None,147.5590271000001,147.5590271000001,147.5590271000001,147.5590271000001,147.5590271000001,147.5590271000001,147.5590271000001,147.5590271000001,147.5590271000001,147.5590271000001,,009,P016,2025_Mar_07_1448,ConditionRich,2021.2.3,59.935689005729756,
120.0,120.75,38,0.75,Stimuli/P016/things_trumpet_08s.jpg,0,0,0.0,0,202,202,202,,,,,,,,,,,,,120.02295550000053,0.022955500000534812,None,147.79253400000016,147.79253400000016,147.79253400000016,147.79253400000016,147.79253400000016,147.79253400000016,147.79253400000016,147.79253400000016,147.79253400000016,147.79253400000016,,009,P016,2025_Mar_07_1448,ConditionRich,2021.2.3,59.935689005729756,
120.75,121.0,41,0.0,Stimuli/Blank.png,0,0,0.0,0,203,203,203,,,,,,,,,,,,,120.75705690000177,0.007056900001771282,None,148.5265287000002,148.5265287000002,148.5265287000002,148.5265287000002,148.5265287000002,148.5265287000002,148.5265287000002,148.5265287000002,148.5265287000002,148.5265287000002,,009,P016,2025_Mar_07_1448,ConditionRich,2021.2.3,59.935689005729756,
121.0,121.75,38,0.75,Stimuli/P016/things_trumpet_08s.jpg,0,0,0.0,0,204,204,204,,,,,,,,,,,,,121.00721700000213,0.007217000002128771,None,148.79343030000018,148.79343030000018,148.79343030000018,148.79343030000018,148.79343030000018,148.79343030000018,148.79343030000018,148.79343030000018,148.79343030000018,148.79343030000018,,009,P016,2025_Mar_07_1448,ConditionRich,2021.2.3,59.935689005729756,
121.75,122.0,41,0.0,Stimuli/Blank.png,0,0,0.0,0,205,205,205,,,,,,,,,,,,,121.77455490000284,0.02455490000284044,None,149.54408179999882,149.54408179999882,149.54408179999882,149.54408179999882,149.54408179999882,149.54408179999882,149.54408179999882,149.54408179999882,149.54408179999882,149.54408179999882,,009,P016,2025_Mar_07_1448,ConditionRich,2021.2.3,59.935689005729756,
122.0,122.75,38,0.75,Stimuli/P016/things_trumpet_08s.jpg,0,0,0.0,0,206,206,206,,,,,,,,,,,,,122.00774850000016,0.0077485000001615845,None,149.7776187999989,149.7776187999989,149.7776187999989,149.7776187999989,149.7776187999989,149.7776187999989,149.7776187999989,149.7776187999989,149.7776187999989,149.7776187999989,,009,P016,2025_Mar_07_1448,ConditionRich,2021.2.3,59.935689005729756,
122.75,123.0,41,0.0,Stimuli/Blank.png,0,0,0.0,0,207,207,207,,,,,,,,,,,,,122.75878150000062,0.008781500000623055,None,150.52828239999872,150.52828239999872,150.52828239999872,150.52828239999872,150.52828239999872,150.52828239999872,150.52828239999872,150.52828239999872,150.52828239999872,150.52828239999872,,009,P016,2025_Mar_07_1448,ConditionRich,2021.2.3,59.935689005729756,
123.0,123.75,38,0.75,Stimuli/P016/things_trumpet_08s.jpg,0,0,0.0,0,208,208,208,,,,,,,,,,,,,123.0087268999996,0.0087268999996013,None,150.77850409999883,150.77850409999883,150.77850409999883,150.77850409999883,150.77850409999883,150.77850409999883,150.77850409999883,150.77850409999883,150.77850409999883,150.77850409999883,,009,P016,2025_Mar_07_1448,ConditionRich,2021.2.3,59.935689005729756,
123.75,124.0,41,0.0,Stimuli/Blank.png,0,0,0.0,0,209,209,209,,,,,,,,,,,,,123.75896629999988,0.008966299999883631,None,151.52919660000043,151.52919660000043,151.52919660000043,151.52919660000043,151.52919660000043,151.52919660000043,151.52919660000043,151.52919660000043,151.52919660000043,151.52919660000043,,009,P016,2025_Mar_07_1448,ConditionRich,2021.2.3,59.935689005729756,
124.0,124.75,4,0.75,Stimuli/P016/sun_aiwuqxdqzftsfyeg.jpg,0,0,0.0,0,210,210,210,,,,,,,,,,,,,124.00961699999971,0.009616999999707332,None,151.77938820000054,151.77938820000054,151.77938820000054,151.77938820000054,151.77938820000054,151.77938820000054,151.77938820000054,151.77938820000054,151.77938820000054,151.77938820000054,,009,P016,2025_Mar_07_1448,ConditionRich,2021.2.3,59.935689005729756,
124.75,125.0,41,0.0,Stimuli/Blank.png,0,0,0.0,0,211,211,211,,,,,,,,,,,,,124.7623291000018,0.012329100001807092,None,152.54675390000193,152.54675390000193,152.54675390000193,152.54675390000193,152.54675390000193,152.54675390000193,152.54675390000193,152.54675390000193,152.54675390000193,152.54675390000193,,009,P016,2025_Mar_07_1448,ConditionRich,2021.2.3,59.935689005729756,
125.0,125.75,4,0.75,Stimuli/P016/sun_aiwuqxdqzftsfyeg.jpg,0,0,0.0,0,212,212,212,,,,,,,,,,,,,125.0278416000001,0.027841600000101607,None,152.79695820000052,152.79695820000052,152.79695820000052,152.79695820000052,152.79695820000052,152.79695820000052,152.79695820000052,152.79695820000052,152.79695820000052,152.79695820000052,,009,P016,2025_Mar_07_1448,ConditionRich,2021.2.3,59.935689005729756,
125.75,126.0,41,0.0,Stimuli/Blank.png,0,0,0.0,0,213,213,213,,,,,,,,,,,,,125.76278090000051,0.012780900000507245,None,153.547665099999,153.547665099999,153.547665099999,153.547665099999,153.547665099999,153.547665099999,153.547665099999,153.547665099999,153.547665099999,153.547665099999,,009,P016,2025_Mar_07_1448,ConditionRich,2021.2.3,59.935689005729756,
126.0,126.75,4,0.75,Stimuli/P016/sun_aiwuqxdqzftsfyeg.jpg,0,0,0.0,0,214,214,214,,,,,,,,,,,,,126.02788580000197,0.027885800001968164,None,153.7978519999997,153.7978519999997,153.7978519999997,153.7978519999997,153.7978519999997,153.7978519999997,153.7978519999997,153.7978519999997,153.7978519999997,153.7978519999997,,009,P016,2025_Mar_07_1448,ConditionRich,2021.2.3,59.935689005729756,
126.75,127.0,41,0.0,Stimuli/Blank.png,0,0,0.0,0,215,215,215,,,,,,,,,,,,,126.76282550000178,0.01282550000178162,None,154.531831100001,154.531831100001,154.531831100001,154.531831100001,154.531831100001,154.531831100001,154.531831100001,154.531831100001,154.531831100001,154.531831100001,,009,P016,2025_Mar_07_1448,ConditionRich,2021.2.3,59.935689005729756,
127.0,127.75,4,0.75,Stimuli/P016/sun_aiwuqxdqzftsfyeg.jpg,0,0,0.0,0,216,216,216,,,,,,,,,,,,,127.01196450000134,0.011964500001340639,None,154.7820931999995,154.7820931999995,154.7820931999995,154.7820931999995,154.7820931999995,154.7820931999995,154.7820931999995,154.7820931999995,154.7820931999995,154.7820931999995,,009,P016,2025_Mar_07_1448,ConditionRich,2021.2.3,59.935689005729756,
127.75,128.0,41,0.0,Stimuli/Blank.png,0,0,0.0,0,217,217,217,,,,,,,,,,,,,127.76307440000164,0.013074400001642061,None,155.53272070000094,155.53272070000094,155.53272070000094,155.53272070000094,155.53272070000094,155.53272070000094,155.53272070000094,155.53272070000094,155.53272070000094,155.53272070000094,,009,P016,2025_Mar_07_1448,ConditionRich,2021.2.3,59.935689005729756,
128.0,128.75,8,0.75,Stimuli/P016/sun_arldxotvfucvuudk.jpg,0,0,0.0,0,218,218,218,,,,,,,,,,,,,128.01274019999983,0.012740199999825563,None,155.7829363000019,155.7829363000019,155.7829363000019,155.7829363000019,155.7829363000019,155.7829363000019,155.7829363000019,155.7829363000019,155.7829363000019,155.7829363000019,,009,P016,2025_Mar_07_1448,ConditionRich,2021.2.3,59.935689005729756,
128.75,129.0,41,0.0,Stimuli/Blank.png,0,0,0.0,0,219,219,219,,,,,,,,,,,,,128.7636057000018,0.013605700001789955,None,156.53360109999994,156.53360109999994,156.53360109999994,156.53360109999994,156.53360109999994,156.53360109999994,156.53360109999994,156.53360109999994,156.53360109999994,156.53360109999994,,009,P016,2025_Mar_07_1448,ConditionRich,2021.2.3,59.935689005729756,
129.0,129.75,8,0.75,Stimuli/P016/sun_arldxotvfucvuudk.jpg,0,0,0.0,0,220,220,220,,,,,,,,,,,,,129.01437100000112,0.014371000001119683,None,156.80051090000052,156.80051090000052,156.80051090000052,156.80051090000052,156.80051090000052,156.80051090000052,156.80051090000052,156.80051090000052,156.80051090000052,156.80051090000052,,009,P016,2025_Mar_07_1448,ConditionRich,2021.2.3,59.935689005729756,
129.75,130.0,41,0.0,Stimuli/Blank.png,0,0,0.0,0,221,221,221,,,,,,,,,,,,,129.7816410000014,0.031641000001400243,None,157.5511695999994,157.5511695999994,157.5511695999994,157.5511695999994,157.5511695999994,157.5511695999994,157.5511695999994,157.5511695999994,157.5511695999994,157.5511695999994,,009,P016,2025_Mar_07_1448,ConditionRich,2021.2.3,59.935689005729756,
130.0,130.75,8,0.75,Stimuli/P016/sun_arldxotvfucvuudk.jpg,0,0,0.0,0,222,222,222,,,,,,,,,,,,,130.01545220000116,0.015452200001163874,None,157.7846888999993,157.7846888999993,157.7846888999993,157.7846888999993,157.7846888999993,157.7846888999993,157.7846888999993,157.7846888999993,157.7846888999993,157.7846888999993,,009,P016,2025_Mar_07_1448,ConditionRich,2021.2.3,59.935689005729756,
130.75,131.0,41,0.0,Stimuli/Blank.png,0,0,0.0,0,223,223,223,,,,,,,,,,,,,130.74852600000304,-0.0014739999969606288,None,158.5186848000012,158.5186848000012,158.5186848000012,158.5186848000012,158.5186848000012,158.5186848000012,158.5186848000012,158.5186848000012,158.5186848000012,158.5186848000012,,009,P016,2025_Mar_07_1448,ConditionRich,2021.2.3,59.935689005729756,
131.0,131.75,8,0.75,Stimuli/P016/sun_arldxotvfucvuudk.jpg,0,0,0.0,0,224,224,224,,,,,,,,,,,,,131.01771940000253,0.017719400002533803,None,158.8022662000003,158.8022662000003,158.8022662000003,158.8022662000003,158.8022662000003,158.8022662000003,158.8022662000003,158.8022662000003,158.8022662000003,158.8022662000003,,009,P016,2025_Mar_07_1448,ConditionRich,2021.2.3,59.935689005729756,
131.75,132.0,41,0.0,Stimuli/Blank.png,0,0,0.0,0,225,225,225,,,,,,,,,,,,,131.76749810000183,0.017498100001830608,None,159.53625730000203,159.53625730000203,159.53625730000203,159.53625730000203,159.53625730000203,159.53625730000203,159.53625730000203,159.53625730000203,159.53625730000203,159.53625730000203,,009,P016,2025_Mar_07_1448,ConditionRich,2021.2.3,59.935689005729756,
132.0,132.75,27,0.75,Stimuli/P016/things_girl_08s.jpg,0,0,0.0,0,226,226,226,,,,,,,,,,,,,132.00004570000237,4.570000237436034e-05,None,159.78661060000013,159.78661060000013,159.78661060000013,159.78661060000013,159.78661060000013,159.78661060000013,159.78661060000013,159.78661060000013,159.78661060000013,159.78661060000013,,009,P016,2025_Mar_07_1448,ConditionRich,2021.2.3,59.935689005729756,
132.75,133.0,41,0.0,Stimuli/Blank.png,0,0,0.0,0,227,227,227,,,,,,,,,,,,,132.76808050000182,0.01808050000181538,None,160.53714070000206,160.53714070000206,160.53714070000206,160.53714070000206,160.53714070000206,160.53714070000206,160.53714070000206,160.53714070000206,160.53714070000206,160.53714070000206,,009,P016,2025_Mar_07_1448,ConditionRich,2021.2.3,59.935689005729756,
133.0,133.75,27,0.75,Stimuli/P016/things_girl_08s.jpg,0,0,0.0,0,228,228,228,,,,,,,,,,,,,133.00244380000004,0.0024438000000372995,None,160.787366200002,160.787366200002,160.787366200002,160.787366200002,160.787366200002,160.787366200002,160.787366200002,160.787366200002,160.787366200002,160.787366200002,,009,P016,2025_Mar_07_1448,ConditionRich,2021.2.3,59.935689005729756,
133.75,134.0,41,0.0,Stimuli/Blank.png,0,0,0.0,0,229,229,229,,,,,,,,,,,,,133.76784560000306,0.01784560000305646,None,161.53801999999996,161.53801999999996,161.53801999999996,161.53801999999996,161.53801999999996,161.53801999999996,161.53801999999996,161.53801999999996,161.53801999999996,161.53801999999996,,009,P016,2025_Mar_07_1448,ConditionRich,2021.2.3,59.935689005729756,
134.0,134.75,27,0.75,Stimuli/P016/things_girl_08s.jpg,0,0,0.0,0,230,230,230,,,,,,,,,,,,,134.00218320000204,0.002183200002036756,None,161.78824819999863,161.78824819999863,161.78824819999863,161.78824819999863,161.78824819999863,161.78824819999863,161.78824819999863,161.78824819999863,161.78824819999863,161.78824819999863,,009,P016,2025_Mar_07_1448,ConditionRich,2021.2.3,59.935689005729756,
134.75,135.0,41,0.0,Stimuli/Blank.png,0,0,0.0,0,231,231,231,,,,,,,,,,,,,134.7688460999998,0.018846099999791477,None,162.5388974999987,162.5388974999987,162.5388974999987,162.5388974999987,162.5388974999987,162.5388974999987,162.5388974999987,162.5388974999987,162.5388974999987,162.5388974999987,,009,P016,2025_Mar_07_1448,ConditionRich,2021.2.3,59.935689005729756,
135.0,135.75,27,0.75,Stimuli/P016/things_girl_08s.jpg,1,0,0.75,0,232,232,232,,,,,,,,,,,,,135.00306940000155,0.0030694000015500933,1,162.78912459999992,162.78912459999992,162.78912459999992,162.78912459999992,162.78912459999992,162.78912459999992,162.78912459999992,163.50642399999924,162.78912459999992,162.78912459999992,0.42344280000179424,009,P016,2025_Mar_07_1448,ConditionRich,2021.2.3,59.935689005729756,
135.75,136.0,41,0.0,Stimuli/Blank.png,0,0,0.0,0,233,233,233,,,,,,,,,,,,,135.77014790000248,0.020147900002484675,None,163.5398673000018,163.5398673000018,163.5398673000018,163.5398673000018,163.5398673000018,163.5398673000018,163.5398673000018,163.5398673000018,163.5398673000018,163.5398673000018,,009,P016,2025_Mar_07_1448,ConditionRich,2021.2.3,59.935689005729756,
136.0,136.75,2,0.75,Stimuli/P016/sun_agzfkftryitnqpxc.jpg,0,0,0.0,0,234,234,234,,,,,,,,,,,,,136.00312540000232,0.0031254000023182016,None,163.7732845999999,163.7732845999999,163.7732845999999,163.7732845999999,163.7732845999999,163.7732845999999,163.7732845999999,163.7732845999999,163.7732845999999,163.7732845999999,,009,P016,2025_Mar_07_1448,ConditionRich,2021.2.3,59.935689005729756,
136.75,137.0,41,0.0,Stimuli/Blank.png,0,0,0.0,0,235,235,235,,,,,,,,,,,,,136.75449579999986,0.004495799999858718,None,164.52399109999897,164.52399109999897,164.52399109999897,164.52399109999897,164.52399109999897,164.52399109999897,164.52399109999897,164.52399109999897,164.52399109999897,164.52399109999897,,009,P016,2025_Mar_07_1448,ConditionRich,2021.2.3,59.935689005729756,
137.0,137.75,2,0.75,Stimuli/P016/sun_agzfkftryitnqpxc.jpg,0,0,0.0,0,236,236,236,,,,,,,,,,,,,137.00421650000135,0.004216500001348322,None,164.77421120000145,164.77421120000145,164.77421120000145,164.77421120000145,164.77421120000145,164.77421120000145,164.77421120000145,164.77421120000145,164.77421120000145,164.77421120000145,,009,P016,2025_Mar_07_1448,ConditionRich,2021.2.3,59.935689005729756,
137.75,138.0,41,0.0,Stimuli/Blank.png,0,0,0.0,0,237,237,237,,,,,,,,,,,,,137.75542649999988,0.005426499999884982,None,165.52488780000203,165.52488780000203,165.52488780000203,165.52488780000203,165.52488780000203,165.52488780000203,165.52488780000203,165.52488780000203,165.52488780000203,165.52488780000203,,009,P016,2025_Mar_07_1448,ConditionRich,2021.2.3,59.935689005729756,
138.0,138.75,2,0.75,Stimuli/P016/sun_agzfkftryitnqpxc.jpg,1,0,0.75,0,238,238,238,,,,,,,,,,,,,138.00538130000132,0.005381300001317868,1,165.79179849999855,165.79179849999855,165.79179849999855,165.79179849999855,165.79179849999855,165.79179849999855,165.79179849999855,166.50913090000176,165.79179849999855,165.79179849999855,0.3506395000003977,009,P016,2025_Mar_07_1448,ConditionRich,2021.2.3,59.935689005729756,
138.75,139.0,41,0.0,Stimuli/Blank.png,0,0,0.0,0,239,239,239,,,,,,,,,,,,,138.77222260000053,0.02222260000053211,None,166.54244219999964,166.54244219999964,166.54244219999964,166.54244219999964,166.54244219999964,166.54244219999964,166.54244219999964,166.54244219999964,166.54244219999964,166.54244219999964,,009,P016,2025_Mar_07_1448,ConditionRich,2021.2.3,59.935689005729756,
139.0,139.75,2,0.75,Stimuli/P016/sun_agzfkftryitnqpxc.jpg,0,0,0.0,0,240,240,240,,,,,,,,,,,,,139.00966980000157,0.009669800001574913,None,166.79268140000204,166.79268140000204,166.79268140000204,166.79268140000204,166.79268140000204,166.79268140000204,166.79268140000204,166.79268140000204,166.79268140000204,166.79268140000204,,009,P016,2025_Mar_07_1448,ConditionRich,2021.2.3,59.935689005729756,
139.75,140.0,41,0.0,Stimuli/Blank.png,0,0,0.0,0,241,241,241,,,,,,,,,,,,,139.7739298000015,0.023929800001496915,None,167.54331730000195,167.54331730000195,167.54331730000195,167.54331730000195,167.54331730000195,167.54331730000195,167.54331730000195,167.54331730000195,167.54331730000195,167.54331730000195,,009,P016,2025_Mar_07_1448,ConditionRich,2021.2.3,59.935689005729756,
140.0,140.75,18,0.75,Stimuli/P016/sun_byavixgfuhzioilz.jpg,1,0,0.75,0,242,242,242,,,,,,,,,,,,,140.00689930000226,0.006899300002260134,1,167.77686480000193,167.77686480000193,167.77686480000193,167.77686480000193,167.77686480000193,167.77686480000193,167.77686480000193,168.51081590000103,167.77686480000193,167.77686480000193,0.4495557000009285,009,P016,2025_Mar_07_1448,ConditionRich,2021.2.3,59.935689005729756,
140.75,141.0,41,0.0,Stimuli/Blank.png,0,0,0.0,0,243,243,243,,,,,,,,,,,,,140.75807619999978,0.0080761999997776,None,168.52752920000057,168.52752920000057,168.52752920000057,168.52752920000057,168.52752920000057,168.52752920000057,168.52752920000057,168.52752920000057,168.52752920000057,168.52752920000057,,009,P016,2025_Mar_07_1448,ConditionRich,2021.2.3,59.935689005729756,
141.0,141.75,18,0.75,Stimuli/P016/sun_byavixgfuhzioilz.jpg,0,0,0.0,0,244,244,244,,,,,,,,,,,,,141.00795140000264,0.007951400002639275,None,168.77774770000178,168.77774770000178,168.77774770000178,168.77774770000178,168.77774770000178,168.77774770000178,168.77774770000178,168.77774770000178,168.77774770000178,168.77774770000178,,009,P016,2025_Mar_07_1448,ConditionRich,2021.2.3,59.935689005729756,
141.75,142.0,41,0.0,Stimuli/Blank.png,0,0,0.0,0,245,245,245,,,,,,,,,,,,,141.75903280000057,0.009032800000568386,None,169.52841900000203,169.52841900000203,169.52841900000203,169.52841900000203,169.52841900000203,169.52841900000203,169.52841900000203,169.52841900000203,169.52841900000203,169.52841900000203,,009,P016,2025_Mar_07_1448,ConditionRich,2021.2.3,59.935689005729756,
142.0,142.75,18,0.75,Stimuli/P016/sun_byavixgfuhzioilz.jpg,0,0,0.0,0,246,246,246,,,,,,,,,,,,,142.00852990000203,0.008529900002031354,None,169.77862989999994,169.77862989999994,169.77862989999994,169.77862989999994,169.77862989999994,169.77862989999994,169.77862989999994,169.77862989999994,169.77862989999994,169.77862989999994,,009,P016,2025_Mar_07_1448,ConditionRich,2021.2.3,59.935689005729756,
142.75,143.0,41,0.0,Stimuli/Blank.png,0,0,0.0,0,247,247,247,,,,,,,,,,,,,142.75983380000253,0.009833800002525095,None,170.52938039999935,170.52938039999935,170.52938039999935,170.52938039999935,170.52938039999935,170.52938039999935,170.52938039999935,170.52938039999935,170.52938039999935,170.52938039999935,,009,P016,2025_Mar_07_1448,ConditionRich,2021.2.3,59.935689005729756,
143.0,143.75,18,0.75,Stimuli/P016/sun_byavixgfuhzioilz.jpg,0,0,0.0,0,248,248,248,,,,,,,,,,,,,143.00931590000255,0.009315900002548005,None,170.79621380000026,170.79621380000026,170.79621380000026,170.79621380000026,170.79621380000026,170.79621380000026,170.79621380000026,170.79621380000026,170.79621380000026,170.79621380000026,,009,P016,2025_Mar_07_1448,ConditionRich,2021.2.3,59.935689005729756,
143.75,144.0,41,0.0,Stimuli/Blank.png,0,0,0.0,0,249,249,249,,,,,,,,,,,,,143.77785960000256,0.027859600002557272,None,171.5468617000006,171.5468617000006,171.5468617000006,171.5468617000006,171.5468617000006,171.5468617000006,171.5468617000006,171.5468617000006,171.5468617000006,171.5468617000006,,009,P016,2025_Mar_07_1448,ConditionRich,2021.2.3,59.935689005729756,
144.0,144.75,7,0.75,Stimuli/P016/sun_aqdfrmtvewaapuqs.jpg,0,0,0.0,0,250,250,250,,,,,,,,,,,,,144.01091400000223,0.01091400000223075,None,171.79711490000045,171.79711490000045,171.79711490000045,171.79711490000045,171.79711490000045,171.79711490000045,171.79711490000045,171.79711490000045,171.79711490000045,171.79711490000045,,009,P016,2025_Mar_07_1448,ConditionRich,2021.2.3,59.935689005729756,
144.75,145.0,41,0.0,Stimuli/Blank.png,0,0,0.0,0,251,251,251,,,,,,,,,,,,,144.77822809999998,0.02822809999997844,None,172.54775700000027,172.54775700000027,172.54775700000027,172.54775700000027,172.54775700000027,172.54775700000027,172.54775700000027,172.54775700000027,172.54775700000027,172.54775700000027,,009,P016,2025_Mar_07_1448,ConditionRich,2021.2.3,59.935689005729756,
145.0,145.75,7,0.75,Stimuli/P016/sun_aqdfrmtvewaapuqs.jpg,0,0,0.0,0,252,252,252,,,,,,,,,,,,,145.0126889000021,0.012688900002103765,None,172.79796970000098,172.79796970000098,172.79796970000098,172.79796970000098,172.79796970000098,172.79796970000098,172.79796970000098,172.79796970000098,172.79796970000098,172.79796970000098,,009,P016,2025_Mar_07_1448,ConditionRich,2021.2.3,59.935689005729756,
145.75,146.0,41,0.0,Stimuli/Blank.png,0,0,0.0,0,253,253,253,,,,,,,,,,,,,145.77841059999992,0.028410599999915576,None,173.54863739999928,173.54863739999928,173.54863739999928,173.54863739999928,173.54863739999928,173.54863739999928,173.54863739999928,173.54863739999928,173.54863739999928,173.54863739999928,,009,P016,2025_Mar_07_1448,ConditionRich,2021.2.3,59.935689005729756,
146.0,146.75,7,0.75,Stimuli/P016/sun_aqdfrmtvewaapuqs.jpg,0,0,0.0,0,254,254,254,,,,,,,,,,,,,146.01210750000246,0.012107500002457527,None,173.7821772999996,173.7821772999996,173.7821772999996,173.7821772999996,173.7821772999996,173.7821772999996,173.7821772999996,173.7821772999996,173.7821772999996,173.7821772999996,,009,P016,2025_Mar_07_1448,ConditionRich,2021.2.3,59.935689005729756,
146.75,147.0,41,0.0,Stimuli/Blank.png,0,0,0.0,0,255,255,255,,,,,,,,,,,,,146.76273930000025,0.012739300000248477,None,174.53284749999875,174.53284749999875,174.53284749999875,174.53284749999875,174.53284749999875,174.53284749999875,174.53284749999875,174.53284749999875,174.53284749999875,174.53284749999875,,009,P016,2025_Mar_07_1448,ConditionRich,2021.2.3,59.935689005729756,
147.0,147.75,7,0.75,Stimuli/P016/sun_aqdfrmtvewaapuqs.jpg,0,0,0.0,0,256,256,256,,,,,,,,,,,,,147.01278880000245,0.012788800002454082,None,174.78306650000013,174.78306650000013,174.78306650000013,174.78306650000013,174.78306650000013,174.78306650000013,174.78306650000013,174.78306650000013,174.78306650000013,174.78306650000013,,009,P016,2025_Mar_07_1448,ConditionRich,2021.2.3,59.935689005729756,
147.75,148.0,41,0.0,Stimuli/Blank.png,0,0,0.0,0,257,257,257,,,,,,,,,,,,,147.7635724000029,0.013572400002885843,None,175.53372450000097,175.53372450000097,175.53372450000097,175.53372450000097,175.53372450000097,175.53372450000097,175.53372450000097,175.53372450000097,175.53372450000097,175.53372450000097,,009,P016,2025_Mar_07_1448,ConditionRich,2021.2.3,59.935689005729756,
148.0,148.75,23,0.75,Stimuli/P016/things_boy_08s.jpg,0,0,0.0,0,258,258,258,,,,,,,,,,,,,148.01420250000228,0.014202500002284069,None,175.78394539999863,175.78394539999863,175.78394539999863,175.78394539999863,175.78394539999863,175.78394539999863,175.78394539999863,175.78394539999863,175.78394539999863,175.78394539999863,,009,P016,2025_Mar_07_1448,ConditionRich,2021.2.3,59.935689005729756,
148.75,149.0,41,0.0,Stimuli/Blank.png,0,0,0.0,0,259,259,259,,,,,,,,,,,,,148.76744189999954,0.0174418999995396,None,176.55129060000036,176.55129060000036,176.55129060000036,176.55129060000036,176.55129060000036,176.55129060000036,176.55129060000036,176.55129060000036,176.55129060000036,176.55129060000036,,009,P016,2025_Mar_07_1448,ConditionRich,2021.2.3,59.935689005729756,
149.0,149.75,23,0.75,Stimuli/P016/things_boy_08s.jpg,0,0,0.0,0,260,260,260,,,,,,,,,,,,,149.01743900000292,0.01743900000292342,None,176.80151689999911,176.80151689999911,176.80151689999911,176.80151689999911,176.80151689999911,176.80151689999911,176.80151689999911,176.80151689999911,176.80151689999911,176.80151689999911,,009,P016,2025_Mar_07_1448,ConditionRich,2021.2.3,59.935689005729756,
149.75,150.0,41,0.0,Stimuli/Blank.png,0,0,0.0,0,261,261,261,,,,,,,,,,,,,149.76745740000115,0.017457400001148926,None,177.55219450000004,177.55219450000004,177.55219450000004,177.55219450000004,177.55219450000004,177.55219450000004,177.55219450000004,177.55219450000004,177.55219450000004,177.55219450000004,,009,P016,2025_Mar_07_1448,ConditionRich,2021.2.3,59.935689005729756,
