eventStartTime,eventEndTime,eventCond,imSize,imFile,responseEvent,fixRespStart,fixRespEnd,Events.thisRepN,Events.thisTrialN,Events.thisN,Events.thisIndex,Instructions.started,Instructions.stopped,participantReadyResponse.keys,participantReadyResponse.rt,participantReadyResponse.started,participantReadyResponse.stopped,startWaitforTrigger,triggerResponse.keys,triggerResponse.rt,triggerResponse.started,triggerResponse.stopped,globalTimer,actualStartTime,startTimingDiff,participantResponse.keys,participantResponse.started,participantResponse.stopped,image.started,image.stopped,fixationOutside.started,fixationOutside.stopped,fixationResponse.started,fixationResponse.stopped,fixationInside.started,fixationInside.stopped,participantResponse.rt,session,participant,date,expName,psychopyVersion,frameRate,
,,,,,,,,,,,,14.536872099997709,None,1,41.50906209999812,14.536872099997709,None,,,,,,,,,,,,,,,,,,,,,003,P016,2025_Mar_07_1349,ConditionRich,2021.2.3,59.92958274085926,
,,,,,,,,,,,,,,,,,,56.05813909999779,5,14.973409099999117,56.0714444999976,None,,,,,,,,,,,,,,,,003,P016,2025_Mar_07_1349,ConditionRich,2021.2.3,59.92958274085926,
0.0,4.0,0,0.0,Stimuli/Blank.png,0,0,0.0,0,0,0,0,,,,,,,,,,,,71.05427039999995,0.043324000002030516,0.043324000002030516,None,71.11809139999968,None,71.11809139999968,None,71.11809139999968,None,71.11809139999968,71.11809139999968,71.11809139999968,None,,003,P016,2025_Mar_07_1349,ConditionRich,2021.2.3,59.92958274085926,
4.0,4.75,36,0.75,Stimuli/P016/things_streetlight_08s.jpg,0,0,0.0,0,1,1,1,,,,,,,,,,,,,4.026334599999245,0.026334599999245256,None,75.1051688999978,75.1051688999978,75.1051688999978,75.1051688999978,75.1051688999978,75.1051688999978,75.1051688999978,75.1051688999978,75.1051688999978,75.1051688999978,,003,P016,2025_Mar_07_1349,ConditionRich,2021.2.3,59.92958274085926,
4.75,5.0,41,0.0,Stimuli/Blank.png,0,0,0.0,0,2,2,2,,,,,,,,,,,,,4.771570699998847,0.021570699998846976,None,75.83921319999718,75.83921319999718,75.83921319999718,75.83921319999718,75.83921319999718,75.83921319999718,75.83921319999718,75.83921319999718,75.83921319999718,75.83921319999718,,003,P016,2025_Mar_07_1349,ConditionRich,2021.2.3,59.92958274085926,
5.0,5.75,36,0.75,Stimuli/P016/things_streetlight_08s.jpg,0,0,0.0,0,3,3,3,,,,,,,,,,,,,5.003627400001278,0.003627400001278147,None,76.07246289999966,76.07246289999966,76.07246289999966,76.07246289999966,76.07246289999966,76.07246289999966,76.07246289999966,76.07246289999966,76.07246289999966,76.07246289999966,,003,P016,2025_Mar_07_1349,ConditionRich,2021.2.3,59.92958274085926,
5.75,6.0,41,0.0,Stimuli/Blank.png,0,0,0.0,0,4,4,4,,,,,,,,,,,,,5.757288900000276,0.007288900000276044,None,76.83981499999936,76.83981499999936,76.83981499999936,76.83981499999936,76.83981499999936,76.83981499999936,76.83981499999936,76.83981499999936,76.83981499999936,76.83981499999936,,003,P016,2025_Mar_07_1349,ConditionRich,2021.2.3,59.92958274085926,
6.0,6.75,36,0.75,Stimuli/P016/things_streetlight_08s.jpg,0,0,0.0,0,5,5,5,,,,,,,,,,,,,6.021250699999655,0.0212506999996549,None,77.09002630000032,77.09002630000032,77.09002630000032,77.09002630000032,77.09002630000032,77.09002630000032,77.09002630000032,77.09002630000032,77.09002630000032,77.09002630000032,,003,P016,2025_Mar_07_1349,ConditionRich,2021.2.3,59.92958274085926,
6.75,7.0,41,0.0,Stimuli/Blank.png,0,0,0.0,0,6,6,6,,,,,,,,,,,,,6.758160900000803,0.00816090000080294,None,77.84069669999735,77.84069669999735,77.84069669999735,77.84069669999735,77.84069669999735,77.84069669999735,77.84069669999735,77.84069669999735,77.84069669999735,77.84069669999735,,003,P016,2025_Mar_07_1349,ConditionRich,2021.2.3,59.92958274085926,
7.0,7.75,36,0.75,Stimuli/P016/things_streetlight_08s.jpg,0,0,0.0,0,7,7,7,,,,,,,,,,,,,7.0229896000018925,0.02298960000189254,None,78.09091719999924,78.09091719999924,78.09091719999924,78.09091719999924,78.09091719999924,78.09091719999924,78.09091719999924,78.09091719999924,78.09091719999924,78.09091719999924,,003,P016,2025_Mar_07_1349,ConditionRich,2021.2.3,59.92958274085926,
7.75,8.0,41,0.0,Stimuli/Blank.png,0,0,0.0,0,8,8,8,,,,,,,,,,,,,7.756858000000648,0.006858000000647735,None,78.82490459999826,78.82490459999826,78.82490459999826,78.82490459999826,78.82490459999826,78.82490459999826,78.82490459999826,78.82490459999826,78.82490459999826,78.82490459999826,,003,P016,2025_Mar_07_1349,ConditionRich,2021.2.3,59.92958274085926,
8.0,8.75,14,0.75,Stimuli/P016/sun_bpvmkbyglkraoxhh.jpg,0,0,0.0,0,9,9,9,,,,,,,,,,,,,8.007051000000502,0.007051000000501517,None,79.07512809999753,79.07512809999753,79.07512809999753,79.07512809999753,79.07512809999753,79.07512809999753,79.07512809999753,79.07512809999753,79.07512809999753,79.07512809999753,,003,P016,2025_Mar_07_1349,ConditionRich,2021.2.3,59.92958274085926,
8.75,9.0,41,0.0,Stimuli/Blank.png,0,0,0.0,0,10,10,10,,,,,,,,,,,,,8.757874400002038,0.007874400002037873,None,79.82578849999845,79.82578849999845,79.82578849999845,79.82578849999845,79.82578849999845,79.82578849999845,79.82578849999845,79.82578849999845,79.82578849999845,79.82578849999845,,003,P016,2025_Mar_07_1349,ConditionRich,2021.2.3,59.92958274085926,
9.0,9.75,14,0.75,Stimuli/P016/sun_bpvmkbyglkraoxhh.jpg,0,0,0.0,0,11,11,11,,,,,,,,,,,,,9.007215699999506,0.007215699999505887,None,80.07600959999763,80.07600959999763,80.07600959999763,80.07600959999763,80.07600959999763,80.07600959999763,80.07600959999763,80.07600959999763,80.07600959999763,80.07600959999763,,003,P016,2025_Mar_07_1349,ConditionRich,2021.2.3,59.92958274085926,
9.75,10.0,41,0.0,Stimuli/Blank.png,0,0,0.0,0,12,12,12,,,,,,,,,,,,,9.758593099999416,0.008593099999416154,None,80.82666619999873,80.82666619999873,80.82666619999873,80.82666619999873,80.82666619999873,80.82666619999873,80.82666619999873,80.82666619999873,80.82666619999873,80.82666619999873,,003,P016,2025_Mar_07_1349,ConditionRich,2021.2.3,59.92958274085926,
10.0,10.75,14,0.75,Stimuli/P016/sun_bpvmkbyglkraoxhh.jpg,0,0,0.0,0,13,13,13,,,,,,,,,,,,,10.008535000000848,0.008535000000847504,None,81.09359739999854,81.09359739999854,81.09359739999854,81.09359739999854,81.09359739999854,81.09359739999854,81.09359739999854,81.09359739999854,81.09359739999854,81.09359739999854,,003,P016,2025_Mar_07_1349,ConditionRich,2021.2.3,59.92958274085926,
10.75,11.0,41,0.0,Stimuli/Blank.png,0,0,0.0,0,14,14,14,,,,,,,,,,,,,10.778463499998907,0.028463499998906627,None,81.86091119999764,81.86091119999764,81.86091119999764,81.86091119999764,81.86091119999764,81.86091119999764,81.86091119999764,81.86091119999764,81.86091119999764,81.86091119999764,,003,P016,2025_Mar_07_1349,ConditionRich,2021.2.3,59.92958274085926,
11.0,11.75,14,0.75,Stimuli/P016/sun_bpvmkbyglkraoxhh.jpg,0,0,0.0,0,15,15,15,,,,,,,,,,,,,11.026312300000427,0.026312300000427058,None,82.1111447000003,82.1111447000003,82.1111447000003,82.1111447000003,82.1111447000003,82.1111447000003,82.1111447000003,82.1111447000003,82.1111447000003,82.1111447000003,,003,P016,2025_Mar_07_1349,ConditionRich,2021.2.3,59.92958274085926,
11.75,12.0,41,0.0,Stimuli/Blank.png,0,0,0.0,0,16,16,16,,,,,,,,,,,,,11.776208899998892,0.026208899998891866,None,82.8451255,82.8451255,82.8451255,82.8451255,82.8451255,82.8451255,82.8451255,82.8451255,82.8451255,82.8451255,,003,P016,2025_Mar_07_1349,ConditionRich,2021.2.3,59.92958274085926,
12.0,12.75,18,0.75,Stimuli/P016/sun_byavixgfuhzioilz.jpg,0,0,0.0,0,17,17,17,,,,,,,,,,,,,12.009819900002185,0.009819900002185022,None,83.07866169999761,83.07866169999761,83.07866169999761,83.07866169999761,83.07866169999761,83.07866169999761,83.07866169999761,83.07866169999761,83.07866169999761,83.07866169999761,,003,P016,2025_Mar_07_1349,ConditionRich,2021.2.3,59.92958274085926,
12.75,13.0,41,0.0,Stimuli/Blank.png,0,0,0.0,0,18,18,18,,,,,,,,,,,,,12.762892999999167,0.012892999999166932,None,83.84614569999758,83.84614569999758,83.84614569999758,83.84614569999758,83.84614569999758,83.84614569999758,83.84614569999758,83.84614569999758,83.84614569999758,83.84614569999758,,003,P016,2025_Mar_07_1349,ConditionRich,2021.2.3,59.92958274085926,
13.0,13.75,18,0.75,Stimuli/P016/sun_byavixgfuhzioilz.jpg,1,0,0.75,0,19,19,19,,,,,,,,,,,,,13.027466499999719,0.027466499999718508,1,84.0962182000003,84.0962182000003,84.0962182000003,84.0962182000003,84.0962182000003,84.0962182000003,84.0962182000003,None,84.0962182000003,84.0962182000003,0.45394810000289,003,P016,2025_Mar_07_1349,ConditionRich,2021.2.3,59.92958274085926,
13.75,14.0,41,0.0,Stimuli/Blank.png,0,0,0.0,0,20,20,20,,,,,,,,,,,,,13.762952699999005,0.012952699999004835,None,84.84691469999962,84.84691469999962,84.84691469999962,84.84691469999962,84.84691469999962,84.84691469999962,84.84691469999962,84.84691469999962,84.84691469999962,84.84691469999962,,003,P016,2025_Mar_07_1349,ConditionRich,2021.2.3,59.92958274085926,
14.0,14.75,18,0.75,Stimuli/P016/sun_byavixgfuhzioilz.jpg,0,0,0.0,0,21,21,21,,,,,,,,,,,,,14.028361399999994,0.02836139999999432,None,85.11382120000053,85.11382120000053,85.11382120000053,85.11382120000053,85.11382120000053,85.11382120000053,85.11382120000053,85.11382120000053,85.11382120000053,85.11382120000053,,003,P016,2025_Mar_07_1349,ConditionRich,2021.2.3,59.92958274085926,
14.75,15.0,41,0.0,Stimuli/Blank.png,0,0,0.0,0,22,22,22,,,,,,,,,,,,,14.779323099999601,0.029323099999601254,None,85.84781449999718,85.84781449999718,85.84781449999718,85.84781449999718,85.84781449999718,85.84781449999718,85.84781449999718,85.84781449999718,85.84781449999718,85.84781449999718,,003,P016,2025_Mar_07_1349,ConditionRich,2021.2.3,59.92958274085926,
15.0,15.75,18,0.75,Stimuli/P016/sun_byavixgfuhzioilz.jpg,0,0,0.0,0,23,23,23,,,,,,,,,,,,,15.01434159999917,0.014341599999170285,None,86.09799249999924,86.09799249999924,86.09799249999924,86.09799249999924,86.09799249999924,86.09799249999924,86.09799249999924,86.09799249999924,86.09799249999924,86.09799249999924,,003,P016,2025_Mar_07_1349,ConditionRich,2021.2.3,59.92958274085926,
15.75,16.0,41,0.0,Stimuli/Blank.png,0,0,0.0,0,24,24,24,,,,,,,,,,,,,15.780477600001177,0.030477600001177052,None,86.8486677999972,86.8486677999972,86.8486677999972,86.8486677999972,86.8486677999972,86.8486677999972,86.8486677999972,86.8486677999972,86.8486677999972,86.8486677999972,,003,P016,2025_Mar_07_1349,ConditionRich,2021.2.3,59.92958274085926,
16.0,16.75,9,0.75,Stimuli/P016/sun_bbdgftzhpkaklkll.jpg,0,0,0.0,0,25,25,25,,,,,,,,,,,,,16.014031499998964,0.014031499998964136,None,87.08221219999905,87.08221219999905,87.08221219999905,87.08221219999905,87.08221219999905,87.08221219999905,87.08221219999905,87.08221219999905,87.08221219999905,87.08221219999905,,003,P016,2025_Mar_07_1349,ConditionRich,2021.2.3,59.92958274085926,
16.75,17.0,41,0.0,Stimuli/Blank.png,0,0,0.0,0,26,26,26,,,,,,,,,,,,,16.764770400000998,0.014770400000998052,None,87.83286959999896,87.83286959999896,87.83286959999896,87.83286959999896,87.83286959999896,87.83286959999896,87.83286959999896,87.83286959999896,87.83286959999896,87.83286959999896,,003,P016,2025_Mar_07_1349,ConditionRich,2021.2.3,59.92958274085926,
17.0,17.75,9,0.75,Stimuli/P016/sun_bbdgftzhpkaklkll.jpg,0,0,0.0,0,27,27,27,,,,,,,,,,,,,17.0172335999996,0.01723359999959939,None,88.09976529999767,88.09976529999767,88.09976529999767,88.09976529999767,88.09976529999767,88.09976529999767,88.09976529999767,88.09976529999767,88.09976529999767,88.09976529999767,,003,P016,2025_Mar_07_1349,ConditionRich,2021.2.3,59.92958274085926,
17.75,18.0,41,0.0,Stimuli/Blank.png,0,0,0.0,0,28,28,28,,,,,,,,,,,,,17.767582600001333,0.01758260000133305,None,88.85043229999792,88.85043229999792,88.85043229999792,88.85043229999792,88.85043229999792,88.85043229999792,88.85043229999792,88.85043229999792,88.85043229999792,88.85043229999792,,003,P016,2025_Mar_07_1349,ConditionRich,2021.2.3,59.92958274085926,
18.0,18.75,9,0.75,Stimuli/P016/sun_bbdgftzhpkaklkll.jpg,0,0,0.0,0,29,29,29,,,,,,,,,,,,,18.01564270000017,0.015642700000171317,None,89.08397010000044,89.08397010000044,89.08397010000044,89.08397010000044,89.08397010000044,89.08397010000044,89.08397010000044,89.08397010000044,89.08397010000044,89.08397010000044,,003,P016,2025_Mar_07_1349,ConditionRich,2021.2.3,59.92958274085926,
18.75,19.0,41,0.0,Stimuli/Blank.png,0,0,0.0,0,30,30,30,,,,,,,,,,,,,18.749921700000414,-7.829999958630651e-05,None,89.81795369999963,89.81795369999963,89.81795369999963,89.81795369999963,89.81795369999963,89.81795369999963,89.81795369999963,89.81795369999963,89.81795369999963,89.81795369999963,,003,P016,2025_Mar_07_1349,ConditionRich,2021.2.3,59.92958274085926,
19.0,19.75,9,0.75,Stimuli/P016/sun_bbdgftzhpkaklkll.jpg,0,0,0.0,0,31,31,31,,,,,,,,,,,,,18.999253699999826,-0.0007463000001735054,None,90.08485440000004,90.08485440000004,90.08485440000004,90.08485440000004,90.08485440000004,90.08485440000004,90.08485440000004,90.08485440000004,90.08485440000004,90.08485440000004,,003,P016,2025_Mar_07_1349,ConditionRich,2021.2.3,59.92958274085926,
19.75,20.0,41,0.0,Stimuli/Blank.png,0,0,0.0,0,32,32,32,,,,,,,,,,,,,19.76736140000139,0.017361400001391303,None,90.83552019999843,90.83552019999843,90.83552019999843,90.83552019999843,90.83552019999843,90.83552019999843,90.83552019999843,90.83552019999843,90.83552019999843,90.83552019999843,,003,P016,2025_Mar_07_1349,ConditionRich,2021.2.3,59.92958274085926,
20.0,20.75,3,0.75,Stimuli/P016/sun_aiogwnavezqxkzfg.jpg,0,0,0.0,0,33,33,33,,,,,,,,,,,,,20.00228590000188,0.0022859000018797815,None,91.08578660000057,91.08578660000057,91.08578660000057,91.08578660000057,91.08578660000057,91.08578660000057,91.08578660000057,91.08578660000057,91.08578660000057,91.08578660000057,,003,P016,2025_Mar_07_1349,ConditionRich,2021.2.3,59.92958274085926,
20.75,21.0,41,0.0,Stimuli/Blank.png,0,0,0.0,0,34,34,34,,,,,,,,,,,,,20.76814600000216,0.0181460000021616,None,91.83640659999946,91.83640659999946,91.83640659999946,91.83640659999946,91.83640659999946,91.83640659999946,91.83640659999946,91.83640659999946,91.83640659999946,91.83640659999946,,003,P016,2025_Mar_07_1349,ConditionRich,2021.2.3,59.92958274085926,
21.0,21.75,3,0.75,Stimuli/P016/sun_aiogwnavezqxkzfg.jpg,0,0,0.0,0,35,35,35,,,,,,,,,,,,,21.001951300000655,0.0019513000006554648,None,92.06993909999801,92.06993909999801,92.06993909999801,92.06993909999801,92.06993909999801,92.06993909999801,92.06993909999801,92.06993909999801,92.06993909999801,92.06993909999801,,003,P016,2025_Mar_07_1349,ConditionRich,2021.2.3,59.92958274085926,
21.75,22.0,41,0.0,Stimuli/Blank.png,0,0,0.0,0,36,36,36,,,,,,,,,,,,,21.751684900002147,0.0016849000021466054,None,92.82060339999953,92.82060339999953,92.82060339999953,92.82060339999953,92.82060339999953,92.82060339999953,92.82060339999953,92.82060339999953,92.82060339999953,92.82060339999953,,003,P016,2025_Mar_07_1349,ConditionRich,2021.2.3,59.92958274085926,
22.0,22.75,3,0.75,Stimuli/P016/sun_aiogwnavezqxkzfg.jpg,0,0,0.0,0,37,37,37,,,,,,,,,,,,,22.003256700001657,0.003256700001657009,None,93.08752969999841,93.08752969999841,93.08752969999841,93.08752969999841,93.08752969999841,93.08752969999841,93.08752969999841,93.08752969999841,93.08752969999841,93.08752969999841,,003,P016,2025_Mar_07_1349,ConditionRich,2021.2.3,59.92958274085926,
22.75,23.0,41,0.0,Stimuli/Blank.png,0,0,0.0,0,38,38,38,,,,,,,,,,,,,22.76931490000061,0.01931490000060876,None,93.83819129999756,93.83819129999756,93.83819129999756,93.83819129999756,93.83819129999756,93.83819129999756,93.83819129999756,93.83819129999756,93.83819129999756,93.83819129999756,,003,P016,2025_Mar_07_1349,ConditionRich,2021.2.3,59.92958274085926,
23.0,23.75,3,0.75,Stimuli/P016/sun_aiogwnavezqxkzfg.jpg,0,0,0.0,0,39,39,39,,,,,,,,,,,,,23.003522499999235,0.0035224999992351513,None,94.07170179999957,94.07170179999957,94.07170179999957,94.07170179999957,94.07170179999957,94.07170179999957,94.07170179999957,94.07170179999957,94.07170179999957,94.07170179999957,,003,P016,2025_Mar_07_1349,ConditionRich,2021.2.3,59.92958274085926,
23.75,24.0,41,0.0,Stimuli/Blank.png,0,0,0.0,0,40,40,40,,,,,,,,,,,,,23.753520800000842,0.003520800000842428,None,94.8223717999972,94.8223717999972,94.8223717999972,94.8223717999972,94.8223717999972,94.8223717999972,94.8223717999972,94.8223717999972,94.8223717999972,94.8223717999972,,003,P016,2025_Mar_07_1349,ConditionRich,2021.2.3,59.92958274085926,
24.0,24.75,24,0.75,Stimuli/P016/things_bunkbed_08s.jpg,0,0,0.0,0,41,41,41,,,,,,,,,,,,,24.0037513999996,0.003751399999600835,None,95.07259489999706,95.07259489999706,95.07259489999706,95.07259489999706,95.07259489999706,95.07259489999706,95.07259489999706,95.07259489999706,95.07259489999706,95.07259489999706,,003,P016,2025_Mar_07_1349,ConditionRich,2021.2.3,59.92958274085926,
24.75,25.0,41,0.0,Stimuli/Blank.png,0,0,0.0,0,42,42,42,,,,,,,,,,,,,24.755384899999626,0.005384899999626214,None,95.82327259999875,95.82327259999875,95.82327259999875,95.82327259999875,95.82327259999875,95.82327259999875,95.82327259999875,95.82327259999875,95.82327259999875,95.82327259999875,,003,P016,2025_Mar_07_1349,ConditionRich,2021.2.3,59.92958274085926,
25.0,25.75,24,0.75,Stimuli/P016/things_bunkbed_08s.jpg,0,0,0.0,0,43,43,43,,,,,,,,,,,,,25.007284600000276,0.007284600000275532,None,96.09016639999754,96.09016639999754,96.09016639999754,96.09016639999754,96.09016639999754,96.09016639999754,96.09016639999754,96.09016639999754,96.09016639999754,96.09016639999754,,003,P016,2025_Mar_07_1349,ConditionRich,2021.2.3,59.92958274085926,
25.75,26.0,41,0.0,Stimuli/Blank.png,0,0,0.0,0,44,44,44,,,,,,,,,,,,,25.77249010000014,0.022490100000140956,None,96.84083339999779,96.84083339999779,96.84083339999779,96.84083339999779,96.84083339999779,96.84083339999779,96.84083339999779,96.84083339999779,96.84083339999779,96.84083339999779,,003,P016,2025_Mar_07_1349,ConditionRich,2021.2.3,59.92958274085926,
26.0,26.75,24,0.75,Stimuli/P016/things_bunkbed_08s.jpg,0,0,0.0,0,45,45,45,,,,,,,,,,,,,26.00549460000184,0.0054946000018389896,None,97.09112370000003,97.09112370000003,97.09112370000003,97.09112370000003,97.09112370000003,97.09112370000003,97.09112370000003,97.09112370000003,97.09112370000003,97.09112370000003,,003,P016,2025_Mar_07_1349,ConditionRich,2021.2.3,59.92958274085926,
26.75,27.0,41,0.0,Stimuli/Blank.png,0,0,0.0,0,46,46,46,,,,,,,,,,,,,26.773853700000473,0.0238537000004726,None,97.8417062999979,97.8417062999979,97.8417062999979,97.8417062999979,97.8417062999979,97.8417062999979,97.8417062999979,97.8417062999979,97.8417062999979,97.8417062999979,,003,P016,2025_Mar_07_1349,ConditionRich,2021.2.3,59.92958274085926,
27.0,27.75,24,0.75,Stimuli/P016/things_bunkbed_08s.jpg,0,0,0.0,0,47,47,47,,,,,,,,,,,,,27.00721220000196,0.0072122000019589905,None,98.0753005000006,98.0753005000006,98.0753005000006,98.0753005000006,98.0753005000006,98.0753005000006,98.0753005000006,98.0753005000006,98.0753005000006,98.0753005000006,,003,P016,2025_Mar_07_1349,ConditionRich,2021.2.3,59.92958274085926,
27.75,28.0,41,0.0,Stimuli/Blank.png,0,0,0.0,0,48,48,48,,,,,,,,,,,,,27.757942500000354,0.007942500000353903,None,98.82591630000024,98.82591630000024,98.82591630000024,98.82591630000024,98.82591630000024,98.82591630000024,98.82591630000024,98.82591630000024,98.82591630000024,98.82591630000024,,003,P016,2025_Mar_07_1349,ConditionRich,2021.2.3,59.92958274085926,
28.0,28.75,16,0.75,Stimuli/P016/sun_bwhuwxazfqwuqhik.jpg,0,0,0.0,0,49,49,49,,,,,,,,,,,,,28.00787280000077,0.00787280000076862,None,99.07612940000035,99.07612940000035,99.07612940000035,99.07612940000035,99.07612940000035,99.07612940000035,99.07612940000035,99.07612940000035,99.07612940000035,99.07612940000035,,003,P016,2025_Mar_07_1349,ConditionRich,2021.2.3,59.92958274085926,
28.75,29.0,41,0.0,Stimuli/Blank.png,0,0,0.0,0,50,50,50,,,,,,,,,,,,,28.757838000001357,0.007838000001356704,None,99.82677019999755,99.82677019999755,99.82677019999755,99.82677019999755,99.82677019999755,99.82677019999755,99.82677019999755,99.82677019999755,99.82677019999755,99.82677019999755,,003,P016,2025_Mar_07_1349,ConditionRich,2021.2.3,59.92958274085926,
29.0,29.75,16,0.75,Stimuli/P016/sun_bwhuwxazfqwuqhik.jpg,0,0,0.0,0,51,51,51,,,,,,,,,,,,,29.00905749999947,0.009057499999471474,None,100.09371159999864,100.09371159999864,100.09371159999864,100.09371159999864,100.09371159999864,100.09371159999864,100.09371159999864,100.09371159999864,100.09371159999864,100.09371159999864,,003,P016,2025_Mar_07_1349,ConditionRich,2021.2.3,59.92958274085926,
29.75,30.0,41,0.0,Stimuli/Blank.png,0,0,0.0,0,52,52,52,,,,,,,,,,,,,29.775550599999406,0.025550599999405676,None,100.84443349999856,100.84443349999856,100.84443349999856,100.84443349999856,100.84443349999856,100.84443349999856,100.84443349999856,100.84443349999856,100.84443349999856,100.84443349999856,,003,P016,2025_Mar_07_1349,ConditionRich,2021.2.3,59.92958274085926,
30.0,30.75,16,0.75,Stimuli/P016/sun_bwhuwxazfqwuqhik.jpg,0,0,0.0,0,53,53,53,,,,,,,,,,,,,30.009461100002227,0.009461100002226885,None,101.094591699999,101.094591699999,101.094591699999,101.094591699999,101.094591699999,101.094591699999,101.094591699999,101.094591699999,101.094591699999,101.094591699999,,003,P016,2025_Mar_07_1349,ConditionRich,2021.2.3,59.92958274085926,
30.75,31.0,41,0.0,Stimuli/Blank.png,0,0,0.0,0,54,54,54,,,,,,,,,,,,,30.777507900002092,0.027507900002092356,None,101.84611020000011,101.84611020000011,101.84611020000011,101.84611020000011,101.84611020000011,101.84611020000011,101.84611020000011,101.84611020000011,101.84611020000011,101.84611020000011,,003,P016,2025_Mar_07_1349,ConditionRich,2021.2.3,59.92958274085926,
31.0,31.75,16,0.75,Stimuli/P016/sun_bwhuwxazfqwuqhik.jpg,0,0,0.0,0,55,55,55,,,,,,,,,,,,,31.012312999999267,0.01231299999926705,None,102.09555149999869,102.09555149999869,102.09555149999869,102.09555149999869,102.09555149999869,102.09555149999869,102.09555149999869,102.09555149999869,102.09555149999869,102.09555149999869,,003,P016,2025_Mar_07_1349,ConditionRich,2021.2.3,59.92958274085926,
31.75,32.0,41,0.0,Stimuli/Blank.png,0,0,0.0,0,56,56,56,,,,,,,,,,,,,31.778085000001738,0.02808500000173808,None,102.84613869999885,102.84613869999885,102.84613869999885,102.84613869999885,102.84613869999885,102.84613869999885,102.84613869999885,102.84613869999885,102.84613869999885,102.84613869999885,,003,P016,2025_Mar_07_1349,ConditionRich,2021.2.3,59.92958274085926,
32.0,32.75,5,0.75,Stimuli/P016/sun_ajgmxbrxdpmsaext.jpg,0,0,0.0,0,57,57,57,,,,,,,,,,,,,32.01175460000013,0.011754600000131177,None,103.07966739999756,103.07966739999756,103.07966739999756,103.07966739999756,103.07966739999756,103.07966739999756,103.07966739999756,103.07966739999756,103.07966739999756,103.07966739999756,,003,P016,2025_Mar_07_1349,ConditionRich,2021.2.3,59.92958274085926,
32.75,33.0,41,0.0,Stimuli/Blank.png,0,0,0.0,0,58,58,58,,,,,,,,,,,,,32.762005299999146,0.012005299999145791,None,103.83032879999882,103.83032879999882,103.83032879999882,103.83032879999882,103.83032879999882,103.83032879999882,103.83032879999882,103.83032879999882,103.83032879999882,103.83032879999882,,003,P016,2025_Mar_07_1349,ConditionRich,2021.2.3,59.92958274085926,
33.0,33.75,5,0.75,Stimuli/P016/sun_ajgmxbrxdpmsaext.jpg,0,0,0.0,0,59,59,59,,,,,,,,,,,,,33.01235000000088,0.012350000000878936,None,104.08055889999741,104.08055889999741,104.08055889999741,104.08055889999741,104.08055889999741,104.08055889999741,104.08055889999741,104.08055889999741,104.08055889999741,104.08055889999741,,003,P016,2025_Mar_07_1349,ConditionRich,2021.2.3,59.92958274085926,
33.75,34.0,41,0.0,Stimuli/Blank.png,0,0,0.0,0,60,60,60,,,,,,,,,,,,,33.76395279999997,0.013952799999970011,None,104.83122849999927,104.83122849999927,104.83122849999927,104.83122849999927,104.83122849999927,104.83122849999927,104.83122849999927,104.83122849999927,104.83122849999927,104.83122849999927,,003,P016,2025_Mar_07_1349,ConditionRich,2021.2.3,59.92958274085926,
34.0,34.75,5,0.75,Stimuli/P016/sun_ajgmxbrxdpmsaext.jpg,0,0,0.0,0,61,61,61,,,,,,,,,,,,,34.01282970000102,0.012829700001020683,None,105.08143259999997,105.08143259999997,105.08143259999997,105.08143259999997,105.08143259999997,105.08143259999997,105.08143259999997,105.08143259999997,105.08143259999997,105.08143259999997,,003,P016,2025_Mar_07_1349,ConditionRich,2021.2.3,59.92958274085926,
34.75,35.0,41,0.0,Stimuli/Blank.png,0,0,0.0,0,62,62,62,,,,,,,,,,,,,34.76394090000031,0.01394090000030701,None,105.83209729999726,105.83209729999726,105.83209729999726,105.83209729999726,105.83209729999726,105.83209729999726,105.83209729999726,105.83209729999726,105.83209729999726,105.83209729999726,,003,P016,2025_Mar_07_1349,ConditionRich,2021.2.3,59.92958274085926,
35.0,35.75,5,0.75,Stimuli/P016/sun_ajgmxbrxdpmsaext.jpg,0,0,0.0,0,63,63,63,,,,,,,,,,,,,35.01355229999899,0.013552299998991657,None,106.08232399999906,106.08232399999906,106.08232399999906,106.08232399999906,106.08232399999906,106.08232399999906,106.08232399999906,106.08232399999906,106.08232399999906,106.08232399999906,,003,P016,2025_Mar_07_1349,ConditionRich,2021.2.3,59.92958274085926,
35.75,36.0,41,0.0,Stimuli/Blank.png,0,0,0.0,0,64,64,64,,,,,,,,,,,,,35.764119200001005,0.014119200001005083,None,106.83302379999805,106.83302379999805,106.83302379999805,106.83302379999805,106.83302379999805,106.83302379999805,106.83302379999805,106.83302379999805,106.83302379999805,106.83302379999805,,003,P016,2025_Mar_07_1349,ConditionRich,2021.2.3,59.92958274085926,
36.0,36.75,22,0.75,Stimuli/P016/things_baby_08s.jpg,0,0,0.0,0,65,65,65,,,,,,,,,,,,,36.018098000000464,0.0180980000004638,None,107.09989669999777,107.09989669999777,107.09989669999777,107.09989669999777,107.09989669999777,107.09989669999777,107.09989669999777,107.09989669999777,107.09989669999777,107.09989669999777,,003,P016,2025_Mar_07_1349,ConditionRich,2021.2.3,59.92958274085926,
36.75,37.0,41,0.0,Stimuli/Blank.png,0,0,0.0,0,66,66,66,,,,,,,,,,,,,36.76732040000206,0.017320400002063252,None,107.85055490000013,107.85055490000013,107.85055490000013,107.85055490000013,107.85055490000013,107.85055490000013,107.85055490000013,107.85055490000013,107.85055490000013,107.85055490000013,,003,P016,2025_Mar_07_1349,ConditionRich,2021.2.3,59.92958274085926,
37.0,37.75,22,0.75,Stimuli/P016/things_baby_08s.jpg,0,0,0.0,0,67,67,67,,,,,,,,,,,,,37.01816400000098,0.018164000000979286,None,108.10078439999779,108.10078439999779,108.10078439999779,108.10078439999779,108.10078439999779,108.10078439999779,108.10078439999779,108.10078439999779,108.10078439999779,108.10078439999779,,003,P016,2025_Mar_07_1349,ConditionRich,2021.2.3,59.92958274085926,
37.75,38.0,41,0.0,Stimuli/Blank.png,0,0,0.0,0,68,68,68,,,,,,,,,,,,,37.7666773000019,0.01667730000190204,None,108.83476449999944,108.83476449999944,108.83476449999944,108.83476449999944,108.83476449999944,108.83476449999944,108.83476449999944,108.83476449999944,108.83476449999944,108.83476449999944,,003,P016,2025_Mar_07_1349,ConditionRich,2021.2.3,59.92958274085926,
38.0,38.75,22,0.75,Stimuli/P016/things_baby_08s.jpg,0,0,0.0,0,69,69,69,,,,,,,,,,,,,37.99963539999953,-0.0003646000004664529,None,109.08498499999769,109.08498499999769,109.08498499999769,109.08498499999769,109.08498499999769,109.08498499999769,109.08498499999769,109.08498499999769,109.08498499999769,109.08498499999769,,003,P016,2025_Mar_07_1349,ConditionRich,2021.2.3,59.92958274085926,
38.75,39.0,41,0.0,Stimuli/Blank.png,0,0,0.0,0,70,70,70,,,,,,,,,,,,,38.76789650000137,0.01789650000137044,None,109.83564230000047,109.83564230000047,109.83564230000047,109.83564230000047,109.83564230000047,109.83564230000047,109.83564230000047,109.83564230000047,109.83564230000047,109.83564230000047,,003,P016,2025_Mar_07_1349,ConditionRich,2021.2.3,59.92958274085926,
39.0,39.75,22,0.75,Stimuli/P016/things_baby_08s.jpg,0,0,0.0,0,71,71,71,,,,,,,,,,,,,39.00266969999939,0.002669699999387376,None,110.08587199999965,110.08587199999965,110.08587199999965,110.08587199999965,110.08587199999965,110.08587199999965,110.08587199999965,110.08587199999965,110.08587199999965,110.08587199999965,,003,P016,2025_Mar_07_1349,ConditionRich,2021.2.3,59.92958274085926,
39.75,40.0,41,0.0,Stimuli/Blank.png,0,0,0.0,0,72,72,72,,,,,,,,,,,,,39.76829980000184,0.018299800001841504,None,110.83652859999711,110.83652859999711,110.83652859999711,110.83652859999711,110.83652859999711,110.83652859999711,110.83652859999711,110.83652859999711,110.83652859999711,110.83652859999711,,003,P016,2025_Mar_07_1349,ConditionRich,2021.2.3,59.92958274085926,
40.0,40.75,32,0.75,Stimuli/P016/things_pheasant_08s.jpg,0,0,0.0,0,73,73,73,,,,,,,,,,,,,40.001380400000926,0.0013804000009258743,None,111.07002079999802,111.07002079999802,111.07002079999802,111.07002079999802,111.07002079999802,111.07002079999802,111.07002079999802,111.07002079999802,111.07002079999802,111.07002079999802,,003,P016,2025_Mar_07_1349,ConditionRich,2021.2.3,59.92958274085926,
40.75,41.0,41,0.0,Stimuli/Blank.png,0,0,0.0,0,74,74,74,,,,,,,,,,,,,40.75194550000015,0.001945500000147149,None,111.82072870000047,111.82072870000047,111.82072870000047,111.82072870000047,111.82072870000047,111.82072870000047,111.82072870000047,111.82072870000047,111.82072870000047,111.82072870000047,,003,P016,2025_Mar_07_1349,ConditionRich,2021.2.3,59.92958274085926,
41.0,41.75,32,0.75,Stimuli/P016/things_pheasant_08s.jpg,0,0,0.0,0,75,75,75,,,,,,,,,,,,,41.002821199999744,0.0028211999997438397,None,112.07095289999779,112.07095289999779,112.07095289999779,112.07095289999779,112.07095289999779,112.07095289999779,112.07095289999779,112.07095289999779,112.07095289999779,112.07095289999779,,003,P016,2025_Mar_07_1349,ConditionRich,2021.2.3,59.92958274085926,
41.75,42.0,41,0.0,Stimuli/Blank.png,0,0,0.0,0,76,76,76,,,,,,,,,,,,,41.752876400001696,0.002876400001696311,None,112.82161949999863,112.82161949999863,112.82161949999863,112.82161949999863,112.82161949999863,112.82161949999863,112.82161949999863,112.82161949999863,112.82161949999863,112.82161949999863,,003,P016,2025_Mar_07_1349,ConditionRich,2021.2.3,59.92958274085926,
42.0,42.75,32,0.75,Stimuli/P016/things_pheasant_08s.jpg,0,0,0.0,0,77,77,77,,,,,,,,,,,,,42.00303609999901,0.0030360999990080018,None,113.07180510000035,113.07180510000035,113.07180510000035,113.07180510000035,113.07180510000035,113.07180510000035,113.07180510000035,113.07180510000035,113.07180510000035,113.07180510000035,,003,P016,2025_Mar_07_1349,ConditionRich,2021.2.3,59.92958274085926,
42.75,43.0,41,0.0,Stimuli/Blank.png,0,0,0.0,0,78,78,78,,,,,,,,,,,,,42.753744699999515,0.003744699999515433,None,113.82252130000052,113.82252130000052,113.82252130000052,113.82252130000052,113.82252130000052,113.82252130000052,113.82252130000052,113.82252130000052,113.82252130000052,113.82252130000052,,003,P016,2025_Mar_07_1349,ConditionRich,2021.2.3,59.92958274085926,
43.0,43.75,32,0.75,Stimuli/P016/things_pheasant_08s.jpg,0,0,0.0,0,79,79,79,,,,,,,,,,,,,43.00417170000219,0.004171700002189027,None,114.07272639999792,114.07272639999792,114.07272639999792,114.07272639999792,114.07272639999792,114.07272639999792,114.07272639999792,114.07272639999792,114.07272639999792,114.07272639999792,,003,P016,2025_Mar_07_1349,ConditionRich,2021.2.3,59.92958274085926,
43.75,44.0,41,0.0,Stimuli/Blank.png,0,0,0.0,0,80,80,80,,,,,,,,,,,,,43.75734300000113,0.00734300000112853,None,114.84008579999863,114.84008579999863,114.84008579999863,114.84008579999863,114.84008579999863,114.84008579999863,114.84008579999863,114.84008579999863,114.84008579999863,114.84008579999863,,003,P016,2025_Mar_07_1349,ConditionRich,2021.2.3,59.92958274085926,
44.0,44.75,13,0.75,Stimuli/P016/sun_bphvjnowixlryxot.jpg,0,0,0.0,0,81,81,81,,,,,,,,,,,,,44.02136270000119,0.021362700001191115,None,115.09029579999697,115.09029579999697,115.09029579999697,115.09029579999697,115.09029579999697,115.09029579999697,115.09029579999697,115.09029579999697,115.09029579999697,115.09029579999697,,003,P016,2025_Mar_07_1349,ConditionRich,2021.2.3,59.92958274085926,
44.75,45.0,41,0.0,Stimuli/Blank.png,0,0,0.0,0,82,82,82,,,,,,,,,,,,,44.75749809999979,0.0074980999997933395,None,115.8409791999984,115.8409791999984,115.8409791999984,115.8409791999984,115.8409791999984,115.8409791999984,115.8409791999984,115.8409791999984,115.8409791999984,115.8409791999984,,003,P016,2025_Mar_07_1349,ConditionRich,2021.2.3,59.92958274085926,
45.0,45.75,13,0.75,Stimuli/P016/sun_bphvjnowixlryxot.jpg,0,0,0.0,0,83,83,83,,,,,,,,,,,,,45.022401700000046,0.02240170000004582,None,116.09117459999834,116.09117459999834,116.09117459999834,116.09117459999834,116.09117459999834,116.09117459999834,116.09117459999834,116.09117459999834,116.09117459999834,116.09117459999834,,003,P016,2025_Mar_07_1349,ConditionRich,2021.2.3,59.92958274085926,
45.75,46.0,41,0.0,Stimuli/Blank.png,0,0,0.0,0,84,84,84,,,,,,,,,,,,,45.756289600001764,0.006289600001764484,None,116.82522239999889,116.82522239999889,116.82522239999889,116.82522239999889,116.82522239999889,116.82522239999889,116.82522239999889,116.82522239999889,116.82522239999889,116.82522239999889,,003,P016,2025_Mar_07_1349,ConditionRich,2021.2.3,59.92958274085926,
46.0,46.75,13,0.75,Stimuli/P016/sun_bphvjnowixlryxot.jpg,0,0,0.0,0,85,85,85,,,,,,,,,,,,,46.00772539999889,0.00772539999888977,None,117.09209379999811,117.09209379999811,117.09209379999811,117.09209379999811,117.09209379999811,117.09209379999811,117.09209379999811,117.09209379999811,117.09209379999811,117.09209379999811,,003,P016,2025_Mar_07_1349,ConditionRich,2021.2.3,59.92958274085926,
46.75,47.0,41,0.0,Stimuli/Blank.png,0,0,0.0,0,86,86,86,,,,,,,,,,,,,46.774440799999866,0.024440799999865703,None,117.8427520999976,117.8427520999976,117.8427520999976,117.8427520999976,117.8427520999976,117.8427520999976,117.8427520999976,117.8427520999976,117.8427520999976,117.8427520999976,,003,P016,2025_Mar_07_1349,ConditionRich,2021.2.3,59.92958274085926,
47.0,47.75,13,0.75,Stimuli/P016/sun_bphvjnowixlryxot.jpg,0,0,0.0,0,87,87,87,,,,,,,,,,,,,47.00822809999954,0.008228099999541882,None,118.07626959999834,118.07626959999834,118.07626959999834,118.07626959999834,118.07626959999834,118.07626959999834,118.07626959999834,118.07626959999834,118.07626959999834,118.07626959999834,,003,P016,2025_Mar_07_1349,ConditionRich,2021.2.3,59.92958274085926,
47.75,48.0,41,0.0,Stimuli/Blank.png,0,0,0.0,0,88,88,88,,,,,,,,,,,,,47.7590440999993,0.00904409999930067,None,118.82692689999749,118.82692689999749,118.82692689999749,118.82692689999749,118.82692689999749,118.82692689999749,118.82692689999749,118.82692689999749,118.82692689999749,118.82692689999749,,003,P016,2025_Mar_07_1349,ConditionRich,2021.2.3,59.92958274085926,
48.0,48.75,15,0.75,Stimuli/P016/sun_bvfcijehgdsndfbg.jpg,1,0,0.75,0,89,89,89,,,,,,,,,,,,,48.008836200002406,0.008836200002406258,1,119.09384279999722,119.09384279999722,119.09384279999722,119.09384279999722,119.09384279999722,119.09384279999722,119.09384279999722,119.81112569999823,119.09384279999722,119.09384279999722,0.4610333000018727,003,P016,2025_Mar_07_1349,ConditionRich,2021.2.3,59.92958274085926,
48.75,49.0,41,0.0,Stimuli/Blank.png,0,0,0.0,0,90,90,90,,,,,,,,,,,,,48.77830360000007,0.028303600000072038,None,119.86116099999708,119.86116099999708,119.86116099999708,119.86116099999708,119.86116099999708,119.86116099999708,119.86116099999708,119.86116099999708,119.86116099999708,119.86116099999708,,003,P016,2025_Mar_07_1349,ConditionRich,2021.2.3,59.92958274085926,
49.0,49.75,15,0.75,Stimuli/P016/sun_bvfcijehgdsndfbg.jpg,0,0,0.0,0,91,91,91,,,,,,,,,,,,,49.02666450000106,0.026664500001061242,None,120.11144520000016,120.11144520000016,120.11144520000016,120.11144520000016,120.11144520000016,120.11144520000016,120.11144520000016,120.11144520000016,120.11144520000016,120.11144520000016,,003,P016,2025_Mar_07_1349,ConditionRich,2021.2.3,59.92958274085926,
49.75,50.0,41,0.0,Stimuli/Blank.png,0,0,0.0,0,92,92,92,,,,,,,,,,,,,49.777195599999686,0.027195599999686237,None,120.84539099999893,120.84539099999893,120.84539099999893,120.84539099999893,120.84539099999893,120.84539099999893,120.84539099999893,120.84539099999893,120.84539099999893,120.84539099999893,,003,P016,2025_Mar_07_1349,ConditionRich,2021.2.3,59.92958274085926,
50.0,50.75,15,0.75,Stimuli/P016/sun_bvfcijehgdsndfbg.jpg,0,0,0.0,0,93,93,93,,,,,,,,,,,,,50.010463000002346,0.010463000002346234,None,121.07891369999925,121.07891369999925,121.07891369999925,121.07891369999925,121.07891369999925,121.07891369999925,121.07891369999925,121.07891369999925,121.07891369999925,121.07891369999925,,003,P016,2025_Mar_07_1349,ConditionRich,2021.2.3,59.92958274085926,
50.75,51.0,41,0.0,Stimuli/Blank.png,0,0,0.0,0,94,94,94,,,,,,,,,,,,,50.76197039999897,0.011970399998972425,None,121.82963530000052,121.82963530000052,121.82963530000052,121.82963530000052,121.82963530000052,121.82963530000052,121.82963530000052,121.82963530000052,121.82963530000052,121.82963530000052,,003,P016,2025_Mar_07_1349,ConditionRich,2021.2.3,59.92958274085926,
51.0,51.75,15,0.75,Stimuli/P016/sun_bvfcijehgdsndfbg.jpg,0,0,0.0,0,95,95,95,,,,,,,,,,,,,51.01200700000118,0.012007000001176493,None,122.09645799999998,122.09645799999998,122.09645799999998,122.09645799999998,122.09645799999998,122.09645799999998,122.09645799999998,122.09645799999998,122.09645799999998,122.09645799999998,,003,P016,2025_Mar_07_1349,ConditionRich,2021.2.3,59.92958274085926,
51.75,52.0,41,0.0,Stimuli/Blank.png,0,0,0.0,0,96,96,96,,,,,,,,,,,,,51.77838880000127,0.028388800001266645,None,122.8471486999988,122.8471486999988,122.8471486999988,122.8471486999988,122.8471486999988,122.8471486999988,122.8471486999988,122.8471486999988,122.8471486999988,122.8471486999988,,003,P016,2025_Mar_07_1349,ConditionRich,2021.2.3,59.92958274085926,
52.0,52.75,29,0.75,Stimuli/P016/things_mouse1_08s.jpg,0,0,0.0,0,97,97,97,,,,,,,,,,,,,52.013790200002404,0.013790200002404163,None,123.09736879999764,123.09736879999764,123.09736879999764,123.09736879999764,123.09736879999764,123.09736879999764,123.09736879999764,123.09736879999764,123.09736879999764,123.09736879999764,,003,P016,2025_Mar_07_1349,ConditionRich,2021.2.3,59.92958274085926,
52.75,53.0,41,0.0,Stimuli/Blank.png,0,0,0.0,0,98,98,98,,,,,,,,,,,,,52.779099600000336,0.029099600000336068,None,123.84802669999772,123.84802669999772,123.84802669999772,123.84802669999772,123.84802669999772,123.84802669999772,123.84802669999772,123.84802669999772,123.84802669999772,123.84802669999772,,003,P016,2025_Mar_07_1349,ConditionRich,2021.2.3,59.92958274085926,
53.0,53.75,29,0.75,Stimuli/P016/things_mouse1_08s.jpg,0,0,0.0,0,99,99,99,,,,,,,,,,,,,53.01336570000058,0.013365700000576908,None,124.08156959999906,124.08156959999906,124.08156959999906,124.08156959999906,124.08156959999906,124.08156959999906,124.08156959999906,124.08156959999906,124.08156959999906,124.08156959999906,,003,P016,2025_Mar_07_1349,ConditionRich,2021.2.3,59.92958274085926,
53.75,54.0,41,0.0,Stimuli/Blank.png,0,0,0.0,0,100,100,100,,,,,,,,,,,,,53.76415030000135,0.014150300001347205,None,124.83223419999922,124.83223419999922,124.83223419999922,124.83223419999922,124.83223419999922,124.83223419999922,124.83223419999922,124.83223419999922,124.83223419999922,124.83223419999922,,003,P016,2025_Mar_07_1349,ConditionRich,2021.2.3,59.92958274085926,
54.0,54.75,29,0.75,Stimuli/P016/things_mouse1_08s.jpg,0,0,0.0,0,101,101,101,,,,,,,,,,,,,54.01470809999955,0.01470809999955236,None,125.0991546999976,125.0991546999976,125.0991546999976,125.0991546999976,125.0991546999976,125.0991546999976,125.0991546999976,125.0991546999976,125.0991546999976,125.0991546999976,,003,P016,2025_Mar_07_1349,ConditionRich,2021.2.3,59.92958274085926,
54.75,55.0,41,0.0,Stimuli/Blank.png,0,0,0.0,0,102,102,102,,,,,,,,,,,,,54.78259529999923,0.03259529999922961,None,125.8498096000003,125.8498096000003,125.8498096000003,125.8498096000003,125.8498096000003,125.8498096000003,125.8498096000003,125.8498096000003,125.8498096000003,125.8498096000003,,003,P016,2025_Mar_07_1349,ConditionRich,2021.2.3,59.92958274085926,
55.0,55.75,29,0.75,Stimuli/P016/things_mouse1_08s.jpg,0,0,0.0,0,103,103,103,,,,,,,,,,,,,54.99806360000002,-0.0019363999999768566,None,126.06665280000016,126.06665280000016,126.06665280000016,126.06665280000016,126.06665280000016,126.06665280000016,126.06665280000016,126.06665280000016,126.06665280000016,126.06665280000016,,003,P016,2025_Mar_07_1349,ConditionRich,2021.2.3,59.92958274085926,
55.75,56.0,41,0.0,Stimuli/Blank.png,0,0,0.0,0,104,104,104,,,,,,,,,,,,,55.767572000000655,0.017572000000654953,None,126.85069399999702,126.85069399999702,126.85069399999702,126.85069399999702,126.85069399999702,126.85069399999702,126.85069399999702,126.85069399999702,126.85069399999702,126.85069399999702,,003,P016,2025_Mar_07_1349,ConditionRich,2021.2.3,59.92958274085926,
56.0,56.75,19,0.75,Stimuli/P016/sun_bzhwvgrzvttqoexa.jpg,1,0,0.75,0,105,105,105,,,,,,,,,,,,,56.016038699999626,0.01603869999962626,1,127.08421979999912,127.08421979999912,127.08421979999912,127.08421979999912,127.08421979999912,127.08421979999912,127.08421979999912,None,127.08421979999912,127.08421979999912,0.5116342000001168,003,P016,2025_Mar_07_1349,ConditionRich,2021.2.3,59.92958274085926,
56.75,57.0,41,0.0,Stimuli/Blank.png,0,0,0.0,0,106,106,106,,,,,,,,,,,,,56.752272300000186,0.0022723000001860783,None,127.83489460000055,127.83489460000055,127.83489460000055,127.83489460000055,127.83489460000055,127.83489460000055,127.83489460000055,127.83489460000055,127.83489460000055,127.83489460000055,,003,P016,2025_Mar_07_1349,ConditionRich,2021.2.3,59.92958274085926,
57.0,57.75,19,0.75,Stimuli/P016/sun_bzhwvgrzvttqoexa.jpg,0,0,0.0,0,107,107,107,,,,,,,,,,,,,57.0177571000022,0.017757100002199877,None,128.08511290000024,128.08511290000024,128.08511290000024,128.08511290000024,128.08511290000024,128.08511290000024,128.08511290000024,128.08511290000024,128.08511290000024,128.08511290000024,,003,P016,2025_Mar_07_1349,ConditionRich,2021.2.3,59.92958274085926,
57.75,58.0,41,0.0,Stimuli/Blank.png,0,0,0.0,0,108,108,108,,,,,,,,,,,,,57.752167999999074,0.0021679999990737997,None,128.83578469999702,128.83578469999702,128.83578469999702,128.83578469999702,128.83578469999702,128.83578469999702,128.83578469999702,128.83578469999702,128.83578469999702,128.83578469999702,,003,P016,2025_Mar_07_1349,ConditionRich,2021.2.3,59.92958274085926,
58.0,58.75,19,0.75,Stimuli/P016/sun_bzhwvgrzvttqoexa.jpg,0,0,0.0,0,109,109,109,,,,,,,,,,,,,58.01703590000034,0.01703590000033728,None,129.08599029999823,129.08599029999823,129.08599029999823,129.08599029999823,129.08599029999823,129.08599029999823,129.08599029999823,129.08599029999823,129.08599029999823,129.08599029999823,,003,P016,2025_Mar_07_1349,ConditionRich,2021.2.3,59.92958274085926,
58.75,59.0,41,0.0,Stimuli/Blank.png,0,0,0.0,0,110,110,110,,,,,,,,,,,,,58.752315100002306,0.0023151000023062807,None,129.81998649999878,129.81998649999878,129.81998649999878,129.81998649999878,129.81998649999878,129.81998649999878,129.81998649999878,129.81998649999878,129.81998649999878,129.81998649999878,,003,P016,2025_Mar_07_1349,ConditionRich,2021.2.3,59.92958274085926,
59.0,59.75,19,0.75,Stimuli/P016/sun_bzhwvgrzvttqoexa.jpg,0,0,0.0,0,111,111,111,,,,,,,,,,,,,59.00212090000059,0.002120900000591064,None,130.0701984999978,130.0701984999978,130.0701984999978,130.0701984999978,130.0701984999978,130.0701984999978,130.0701984999978,130.0701984999978,130.0701984999978,130.0701984999978,,003,P016,2025_Mar_07_1349,ConditionRich,2021.2.3,59.92958274085926,
59.75,60.0,41,0.0,Stimuli/Blank.png,0,0,0.0,0,112,112,112,,,,,,,,,,,,,59.75266399999964,0.0026639999996405095,None,130.82085259999803,130.82085259999803,130.82085259999803,130.82085259999803,130.82085259999803,130.82085259999803,130.82085259999803,130.82085259999803,130.82085259999803,130.82085259999803,,003,P016,2025_Mar_07_1349,ConditionRich,2021.2.3,59.92958274085926,
60.0,60.75,28,0.75,Stimuli/P016/things_latte_08s.jpg,0,0,0.0,0,113,113,113,,,,,,,,,,,,,60.002724599999055,0.002724599999055499,None,131.07109259999925,131.07109259999925,131.07109259999925,131.07109259999925,131.07109259999925,131.07109259999925,131.07109259999925,131.07109259999925,131.07109259999925,131.07109259999925,,003,P016,2025_Mar_07_1349,ConditionRich,2021.2.3,59.92958274085926,
60.75,61.0,41,0.0,Stimuli/Blank.png,0,0,0.0,0,114,114,114,,,,,,,,,,,,,60.75367700000061,0.0036770000006072223,None,131.82174039999882,131.82174039999882,131.82174039999882,131.82174039999882,131.82174039999882,131.82174039999882,131.82174039999882,131.82174039999882,131.82174039999882,131.82174039999882,,003,P016,2025_Mar_07_1349,ConditionRich,2021.2.3,59.92958274085926,
61.0,61.75,28,0.75,Stimuli/P016/things_latte_08s.jpg,0,0,0.0,0,115,115,115,,,,,,,,,,,,,61.00387790000241,0.0038779000024078414,None,132.07194030000028,132.07194030000028,132.07194030000028,132.07194030000028,132.07194030000028,132.07194030000028,132.07194030000028,132.07194030000028,132.07194030000028,132.07194030000028,,003,P016,2025_Mar_07_1349,ConditionRich,2021.2.3,59.92958274085926,
61.75,62.0,41,0.0,Stimuli/Blank.png,0,0,0.0,0,116,116,116,,,,,,,,,,,,,61.75385119999919,0.003851199999189703,None,132.8226302999974,132.8226302999974,132.8226302999974,132.8226302999974,132.8226302999974,132.8226302999974,132.8226302999974,132.8226302999974,132.8226302999974,132.8226302999974,,003,P016,2025_Mar_07_1349,ConditionRich,2021.2.3,59.92958274085926,
62.0,62.75,28,0.75,Stimuli/P016/things_latte_08s.jpg,0,0,0.0,0,117,117,117,,,,,,,,,,,,,62.00498460000017,0.004984600000170758,None,133.0728554999987,133.0728554999987,133.0728554999987,133.0728554999987,133.0728554999987,133.0728554999987,133.0728554999987,133.0728554999987,133.0728554999987,133.0728554999987,,003,P016,2025_Mar_07_1349,ConditionRich,2021.2.3,59.92958274085926,
62.75,63.0,41,0.0,Stimuli/Blank.png,0,0,0.0,0,118,118,118,,,,,,,,,,,,,62.75735590000113,0.007355900001130067,None,133.84020379999856,133.84020379999856,133.84020379999856,133.84020379999856,133.84020379999856,133.84020379999856,133.84020379999856,133.84020379999856,133.84020379999856,133.84020379999856,,003,P016,2025_Mar_07_1349,ConditionRich,2021.2.3,59.92958274085926,
63.0,63.75,28,0.75,Stimuli/P016/things_latte_08s.jpg,0,0,0.0,0,119,119,119,,,,,,,,,,,,,63.02237810000224,0.022378100002242718,None,134.10711929999889,134.10711929999889,134.10711929999889,134.10711929999889,134.10711929999889,134.10711929999889,134.10711929999889,134.10711929999889,134.10711929999889,134.10711929999889,,003,P016,2025_Mar_07_1349,ConditionRich,2021.2.3,59.92958274085926,
63.75,64.0,41,0.0,Stimuli/Blank.png,0,0,0.0,0,120,120,120,,,,,,,,,,,,,63.77213770000162,0.02213770000162185,None,134.8410530000001,134.8410530000001,134.8410530000001,134.8410530000001,134.8410530000001,134.8410530000001,134.8410530000001,134.8410530000001,134.8410530000001,134.8410530000001,,003,P016,2025_Mar_07_1349,ConditionRich,2021.2.3,59.92958274085926,
64.0,64.75,37,0.75,Stimuli/P016/things_swizzle_stick_08s.jpg,0,0,0.0,0,121,121,121,,,,,,,,,,,,,64.00596610000139,0.005966100001387531,None,135.07461669999975,135.07461669999975,135.07461669999975,135.07461669999975,135.07461669999975,135.07461669999975,135.07461669999975,135.07461669999975,135.07461669999975,135.07461669999975,,003,P016,2025_Mar_07_1349,ConditionRich,2021.2.3,59.92958274085926,
64.75,65.0,41,0.0,Stimuli/Blank.png,0,0,0.0,0,122,122,122,,,,,,,,,,,,,64.75642779999907,0.0064277999990736134,None,135.82528269999966,135.82528269999966,135.82528269999966,135.82528269999966,135.82528269999966,135.82528269999966,135.82528269999966,135.82528269999966,135.82528269999966,135.82528269999966,,003,P016,2025_Mar_07_1349,ConditionRich,2021.2.3,59.92958274085926,
65.0,65.75,37,0.75,Stimuli/P016/things_swizzle_stick_08s.jpg,0,0,0.0,0,123,123,123,,,,,,,,,,,,,65.00670499999978,0.0067049999997834675,None,136.07550179999816,136.07550179999816,136.07550179999816,136.07550179999816,136.07550179999816,136.07550179999816,136.07550179999816,136.07550179999816,136.07550179999816,136.07550179999816,,003,P016,2025_Mar_07_1349,ConditionRich,2021.2.3,59.92958274085926,
65.75,66.0,41,0.0,Stimuli/Blank.png,0,0,0.0,0,124,124,124,,,,,,,,,,,,,65.7573169999996,0.007316999999602558,None,136.82616849999977,136.82616849999977,136.82616849999977,136.82616849999977,136.82616849999977,136.82616849999977,136.82616849999977,136.82616849999977,136.82616849999977,136.82616849999977,,003,P016,2025_Mar_07_1349,ConditionRich,2021.2.3,59.92958274085926,
66.0,66.75,37,0.75,Stimuli/P016/things_swizzle_stick_08s.jpg,0,0,0.0,0,125,125,125,,,,,,,,,,,,,66.00795650000146,0.007956500001455424,None,137.0763866999987,137.0763866999987,137.0763866999987,137.0763866999987,137.0763866999987,137.0763866999987,137.0763866999987,137.0763866999987,137.0763866999987,137.0763866999987,,003,P016,2025_Mar_07_1349,ConditionRich,2021.2.3,59.92958274085926,
66.75,67.0,41,0.0,Stimuli/Blank.png,0,0,0.0,0,126,126,126,,,,,,,,,,,,,66.75817169999937,0.008171699999365956,None,137.82705290000013,137.82705290000013,137.82705290000013,137.82705290000013,137.82705290000013,137.82705290000013,137.82705290000013,137.82705290000013,137.82705290000013,137.82705290000013,,003,P016,2025_Mar_07_1349,ConditionRich,2021.2.3,59.92958274085926,
67.0,67.75,37,0.75,Stimuli/P016/things_swizzle_stick_08s.jpg,0,0,0.0,0,127,127,127,,,,,,,,,,,,,67.00946889999977,0.009468899999774294,None,138.0778922999998,138.0778922999998,138.0778922999998,138.0778922999998,138.0778922999998,138.0778922999998,138.0778922999998,138.0778922999998,138.0778922999998,138.0778922999998,,003,P016,2025_Mar_07_1349,ConditionRich,2021.2.3,59.92958274085926,
67.75,68.0,41,0.0,Stimuli/Blank.png,0,0,0.0,0,128,128,128,,,,,,,,,,,,,67.75999769999908,0.009997699999075849,None,138.82794079999803,138.82794079999803,138.82794079999803,138.82794079999803,138.82794079999803,138.82794079999803,138.82794079999803,138.82794079999803,138.82794079999803,138.82794079999803,,003,P016,2025_Mar_07_1349,ConditionRich,2021.2.3,59.92958274085926,
68.0,68.75,7,0.75,Stimuli/P016/sun_aqdfrmtvewaapuqs.jpg,0,0,0.0,0,129,129,129,,,,,,,,,,,,,68.00943750000079,0.009437500000785803,None,139.07815839999967,139.07815839999967,139.07815839999967,139.07815839999967,139.07815839999967,139.07815839999967,139.07815839999967,139.07815839999967,139.07815839999967,139.07815839999967,,003,P016,2025_Mar_07_1349,ConditionRich,2021.2.3,59.92958274085926,
68.75,69.0,41,0.0,Stimuli/Blank.png,0,0,0.0,0,130,130,130,,,,,,,,,,,,,68.76301779999994,0.013017799999943236,None,139.8455200999997,139.8455200999997,139.8455200999997,139.8455200999997,139.8455200999997,139.8455200999997,139.8455200999997,139.8455200999997,139.8455200999997,139.8455200999997,,003,P016,2025_Mar_07_1349,ConditionRich,2021.2.3,59.92958274085926,
69.0,69.75,7,0.75,Stimuli/P016/sun_aqdfrmtvewaapuqs.jpg,0,0,0.0,0,131,131,131,,,,,,,,,,,,,69.02699410000059,0.02699410000059288,None,140.0957208999971,140.0957208999971,140.0957208999971,140.0957208999971,140.0957208999971,140.0957208999971,140.0957208999971,140.0957208999971,140.0957208999971,140.0957208999971,,003,P016,2025_Mar_07_1349,ConditionRich,2021.2.3,59.92958274085926,
69.75,70.0,41,0.0,Stimuli/Blank.png,0,0,0.0,0,132,132,132,,,,,,,,,,,,,69.76198619999923,0.01198619999922812,None,140.82972410000002,140.82972410000002,140.82972410000002,140.82972410000002,140.82972410000002,140.82972410000002,140.82972410000002,140.82972410000002,140.82972410000002,140.82972410000002,,003,P016,2025_Mar_07_1349,ConditionRich,2021.2.3,59.92958274085926,
70.0,70.75,7,0.75,Stimuli/P016/sun_aqdfrmtvewaapuqs.jpg,0,0,0.0,0,133,133,133,,,,,,,,,,,,,70.01187729999947,0.01187729999946896,None,141.09661889999916,141.09661889999916,141.09661889999916,141.09661889999916,141.09661889999916,141.09661889999916,141.09661889999916,141.09661889999916,141.09661889999916,141.09661889999916,,003,P016,2025_Mar_07_1349,ConditionRich,2021.2.3,59.92958274085926,
70.75,71.0,41,0.0,Stimuli/Blank.png,0,0,0.0,0,134,134,134,,,,,,,,,,,,,70.7785251000023,0.02852510000229813,None,141.84726930000033,141.84726930000033,141.84726930000033,141.84726930000033,141.84726930000033,141.84726930000033,141.84726930000033,141.84726930000033,141.84726930000033,141.84726930000033,,003,P016,2025_Mar_07_1349,ConditionRich,2021.2.3,59.92958274085926,
71.0,71.75,7,0.75,Stimuli/P016/sun_aqdfrmtvewaapuqs.jpg,0,0,0.0,0,135,135,135,,,,,,,,,,,,,71.01299619999918,0.012996199999179225,None,142.08081599999787,142.08081599999787,142.08081599999787,142.08081599999787,142.08081599999787,142.08081599999787,142.08081599999787,142.08081599999787,142.08081599999787,142.08081599999787,,003,P016,2025_Mar_07_1349,ConditionRich,2021.2.3,59.92958274085926,
71.75,72.0,41,0.0,Stimuli/Blank.png,0,0,0.0,0,136,136,136,,,,,,,,,,,,,71.76318040000115,0.013180400001147063,None,142.831447499997,142.831447499997,142.831447499997,142.831447499997,142.831447499997,142.831447499997,142.831447499997,142.831447499997,142.831447499997,142.831447499997,,003,P016,2025_Mar_07_1349,ConditionRich,2021.2.3,59.92958274085926,
72.0,72.75,10,0.75,Stimuli/P016/sun_bfojpvrlsrtfyzio.jpg,0,0,0.0,0,137,137,137,,,,,,,,,,,,,72.01273510000101,0.012735100001009414,None,143.08169049999924,143.08169049999924,143.08169049999924,143.08169049999924,143.08169049999924,143.08169049999924,143.08169049999924,143.08169049999924,143.08169049999924,143.08169049999924,,003,P016,2025_Mar_07_1349,ConditionRich,2021.2.3,59.92958274085926,
72.75,73.0,41,0.0,Stimuli/Blank.png,0,0,0.0,0,138,138,138,,,,,,,,,,,,,72.76436060000196,0.014360600001964485,None,143.8323562000005,143.8323562000005,143.8323562000005,143.8323562000005,143.8323562000005,143.8323562000005,143.8323562000005,143.8323562000005,143.8323562000005,143.8323562000005,,003,P016,2025_Mar_07_1349,ConditionRich,2021.2.3,59.92958274085926,
73.0,73.75,10,0.75,Stimuli/P016/sun_bfojpvrlsrtfyzio.jpg,0,0,0.0,0,139,139,139,,,,,,,,,,,,,73.01384039999903,0.013840399999025976,None,144.08259700000053,144.08259700000053,144.08259700000053,144.08259700000053,144.08259700000053,144.08259700000053,144.08259700000053,144.08259700000053,144.08259700000053,144.08259700000053,,003,P016,2025_Mar_07_1349,ConditionRich,2021.2.3,59.92958274085926,
73.75,74.0,41,0.0,Stimuli/Blank.png,0,0,0.0,0,140,140,140,,,,,,,,,,,,,73.76464510000005,0.01464510000005248,None,144.83324979999816,144.83324979999816,144.83324979999816,144.83324979999816,144.83324979999816,144.83324979999816,144.83324979999816,144.83324979999816,144.83324979999816,144.83324979999816,,003,P016,2025_Mar_07_1349,ConditionRich,2021.2.3,59.92958274085926,
74.0,74.75,10,0.75,Stimuli/P016/sun_bfojpvrlsrtfyzio.jpg,0,0,0.0,0,141,141,141,,,,,,,,,,,,,74.0148732000016,0.014873200001602527,None,145.08346449999954,145.08346449999954,145.08346449999954,145.08346449999954,145.08346449999954,145.08346449999954,145.08346449999954,145.08346449999954,145.08346449999954,145.08346449999954,,003,P016,2025_Mar_07_1349,ConditionRich,2021.2.3,59.92958274085926,
74.75,75.0,41,0.0,Stimuli/Blank.png,0,0,0.0,0,142,142,142,,,,,,,,,,,,,74.76853720000145,0.018537200001446763,None,145.85083870000017,145.85083870000017,145.85083870000017,145.85083870000017,145.85083870000017,145.85083870000017,145.85083870000017,145.85083870000017,145.85083870000017,145.85083870000017,,003,P016,2025_Mar_07_1349,ConditionRich,2021.2.3,59.92958274085926,
75.0,75.75,10,0.75,Stimuli/P016/sun_bfojpvrlsrtfyzio.jpg,0,0,0.0,0,143,143,143,,,,,,,,,,,,,75.01807760000156,0.018077600001561223,None,146.1010811999986,146.1010811999986,146.1010811999986,146.1010811999986,146.1010811999986,146.1010811999986,146.1010811999986,146.1010811999986,146.1010811999986,146.1010811999986,,003,P016,2025_Mar_07_1349,ConditionRich,2021.2.3,59.92958274085926,
75.75,76.0,41,0.0,Stimuli/Blank.png,0,0,0.0,0,144,144,144,,,,,,,,,,,,,75.76768770000126,0.017687700001260964,None,146.8350141999981,146.8350141999981,146.8350141999981,146.8350141999981,146.8350141999981,146.8350141999981,146.8350141999981,146.8350141999981,146.8350141999981,146.8350141999981,,003,P016,2025_Mar_07_1349,ConditionRich,2021.2.3,59.92958274085926,
76.0,76.75,17,0.75,Stimuli/P016/sun_bxhbltvqnpaciuzt.jpg,1,0,0.75,0,145,145,145,,,,,,,,,,,,,76.00207579999915,0.0020757999991474207,1,147.08520080000017,147.08520080000017,147.08520080000017,147.08520080000017,147.08520080000017,147.08520080000017,147.08520080000017,147.81924289999733,147.08520080000017,147.08520080000017,0.556744699999399,003,P016,2025_Mar_07_1349,ConditionRich,2021.2.3,59.92958274085926,
76.75,77.0,41,0.0,Stimuli/Blank.png,0,0,0.0,0,146,146,146,,,,,,,,,,,,,76.76799870000104,0.0179987000010442,None,147.83590249999907,147.83590249999907,147.83590249999907,147.83590249999907,147.83590249999907,147.83590249999907,147.83590249999907,147.83590249999907,147.83590249999907,147.83590249999907,,003,P016,2025_Mar_07_1349,ConditionRich,2021.2.3,59.92958274085926,
77.0,77.75,17,0.75,Stimuli/P016/sun_bxhbltvqnpaciuzt.jpg,0,0,0.0,0,147,147,147,,,,,,,,,,,,,77.00259759999972,0.002597599999717204,None,148.08612449999782,148.08612449999782,148.08612449999782,148.08612449999782,148.08612449999782,148.08612449999782,148.08612449999782,148.08612449999782,148.08612449999782,148.08612449999782,,003,P016,2025_Mar_07_1349,ConditionRich,2021.2.3,59.92958274085926,
77.75,78.0,41,0.0,Stimuli/Blank.png,0,0,0.0,0,148,148,148,,,,,,,,,,,,,77.76816450000115,0.018164500001148554,None,148.83679009999832,148.83679009999832,148.83679009999832,148.83679009999832,148.83679009999832,148.83679009999832,148.83679009999832,148.83679009999832,148.83679009999832,148.83679009999832,,003,P016,2025_Mar_07_1349,ConditionRich,2021.2.3,59.92958274085926,
78.0,78.75,17,0.75,Stimuli/P016/sun_bxhbltvqnpaciuzt.jpg,0,0,0.0,0,149,149,149,,,,,,,,,,,,,78.00140839999949,0.001408399999490939,None,149.0703255999979,149.0703255999979,149.0703255999979,149.0703255999979,149.0703255999979,149.0703255999979,149.0703255999979,149.0703255999979,149.0703255999979,149.0703255999979,,003,P016,2025_Mar_07_1349,ConditionRich,2021.2.3,59.92958274085926,
78.75,79.0,41,0.0,Stimuli/Blank.png,0,0,0.0,0,150,150,150,,,,,,,,,,,,,78.75219130000187,0.0021913000018685125,None,149.82098760000008,149.82098760000008,149.82098760000008,149.82098760000008,149.82098760000008,149.82098760000008,149.82098760000008,149.82098760000008,149.82098760000008,149.82098760000008,,003,P016,2025_Mar_07_1349,ConditionRich,2021.2.3,59.92958274085926,
79.0,79.75,17,0.75,Stimuli/P016/sun_bxhbltvqnpaciuzt.jpg,0,0,0.0,0,151,151,151,,,,,,,,,,,,,79.0022925000012,0.0022925000012037344,None,150.071202799998,150.071202799998,150.071202799998,150.071202799998,150.071202799998,150.071202799998,150.071202799998,150.071202799998,150.071202799998,150.071202799998,,003,P016,2025_Mar_07_1349,ConditionRich,2021.2.3,59.92958274085926,
79.75,80.0,41,0.0,Stimuli/Blank.png,0,0,0.0,0,152,152,152,,,,,,,,,,,,,79.7530098999996,0.00300989999959711,None,150.82186399999773,150.82186399999773,150.82186399999773,150.82186399999773,150.82186399999773,150.82186399999773,150.82186399999773,150.82186399999773,150.82186399999773,150.82186399999773,,003,P016,2025_Mar_07_1349,ConditionRich,2021.2.3,59.92958274085926,
80.0,80.75,4,0.75,Stimuli/P016/sun_aiwuqxdqzftsfyeg.jpg,0,0,0.0,0,153,153,153,,,,,,,,,,,,,80.0033970000004,0.0033970000004046597,None,151.07209629999852,151.07209629999852,151.07209629999852,151.07209629999852,151.07209629999852,151.07209629999852,151.07209629999852,151.07209629999852,151.07209629999852,151.07209629999852,,003,P016,2025_Mar_07_1349,ConditionRich,2021.2.3,59.92958274085926,
80.75,81.0,41,0.0,Stimuli/Blank.png,0,0,0.0,0,154,154,154,,,,,,,,,,,,,80.75488799999948,0.0048879999994824175,None,151.82276689999708,151.82276689999708,151.82276689999708,151.82276689999708,151.82276689999708,151.82276689999708,151.82276689999708,151.82276689999708,151.82276689999708,151.82276689999708,,003,P016,2025_Mar_07_1349,ConditionRich,2021.2.3,59.92958274085926,
81.0,81.75,4,0.75,Stimuli/P016/sun_aiwuqxdqzftsfyeg.jpg,0,0,0.0,0,155,155,155,,,,,,,,,,,,,81.00457820000156,0.004578200001560617,None,152.08967199999825,152.08967199999825,152.08967199999825,152.08967199999825,152.08967199999825,152.08967199999825,152.08967199999825,152.08967199999825,152.08967199999825,152.08967199999825,,003,P016,2025_Mar_07_1349,ConditionRich,2021.2.3,59.92958274085926,
81.75,82.0,41,0.0,Stimuli/Blank.png,0,0,0.0,0,156,156,156,,,,,,,,,,,,,81.77140800000052,0.021408000000519678,None,152.84032639999714,152.84032639999714,152.84032639999714,152.84032639999714,152.84032639999714,152.84032639999714,152.84032639999714,152.84032639999714,152.84032639999714,152.84032639999714,,003,P016,2025_Mar_07_1349,ConditionRich,2021.2.3,59.92958274085926,
82.0,82.75,4,0.75,Stimuli/P016/sun_aiwuqxdqzftsfyeg.jpg,0,0,0.0,0,157,157,157,,,,,,,,,,,,,82.0050235000017,0.005023500001698267,None,153.09055609999996,153.09055609999996,153.09055609999996,153.09055609999996,153.09055609999996,153.09055609999996,153.09055609999996,153.09055609999996,153.09055609999996,153.09055609999996,,003,P016,2025_Mar_07_1349,ConditionRich,2021.2.3,59.92958274085926,
82.75,83.0,41,0.0,Stimuli/Blank.png,0,0,0.0,0,158,158,158,,,,,,,,,,,,,82.77242780000233,0.022427800002333242,None,153.8412090999991,153.8412090999991,153.8412090999991,153.8412090999991,153.8412090999991,153.8412090999991,153.8412090999991,153.8412090999991,153.8412090999991,153.8412090999991,,003,P016,2025_Mar_07_1349,ConditionRich,2021.2.3,59.92958274085926,
83.0,83.75,4,0.75,Stimuli/P016/sun_aiwuqxdqzftsfyeg.jpg,0,0,0.0,0,159,159,159,,,,,,,,,,,,,83.00656080000044,0.006560800000443123,None,154.07475299999714,154.07475299999714,154.07475299999714,154.07475299999714,154.07475299999714,154.07475299999714,154.07475299999714,154.07475299999714,154.07475299999714,154.07475299999714,,003,P016,2025_Mar_07_1349,ConditionRich,2021.2.3,59.92958274085926,
83.75,84.0,41,0.0,Stimuli/Blank.png,0,0,0.0,0,160,160,160,,,,,,,,,,,,,83.7565938000007,0.006593800000700867,None,154.8254156999974,154.8254156999974,154.8254156999974,154.8254156999974,154.8254156999974,154.8254156999974,154.8254156999974,154.8254156999974,154.8254156999974,154.8254156999974,,003,P016,2025_Mar_07_1349,ConditionRich,2021.2.3,59.92958274085926,
84.0,100.0,0,0.0,Stimuli/Blank.png,1,6,6.75,0,161,161,161,,,,,,,,,,,,,84.0073513999996,0.007351399999606656,1,155.0756442999991,155.0756442999991,155.0756442999991,155.0756442999991,155.0756442999991,155.0756442999991,161.06423359999826,161.81497749999835,155.0756442999991,155.0756442999991,6.4314904999991995,003,P016,2025_Mar_07_1349,ConditionRich,2021.2.3,59.92958274085926,
100.0,100.75,12,0.75,Stimuli/P016/sun_boffixsnbbloarty.jpg,0,0,0.0,0,162,162,162,,,,,,,,,,,,,100.00424969999949,0.004249699999490986,None,171.0897886999992,171.0897886999992,171.0897886999992,171.0897886999992,171.0897886999992,171.0897886999992,171.0897886999992,171.0897886999992,171.0897886999992,171.0897886999992,,003,P016,2025_Mar_07_1349,ConditionRich,2021.2.3,59.92958274085926,
100.75,101.0,41,0.0,Stimuli/Blank.png,0,0,0.0,0,163,163,163,,,,,,,,,,,,,100.77154810000138,0.02154810000138241,None,171.8404477999975,171.8404477999975,171.8404477999975,171.8404477999975,171.8404477999975,171.8404477999975,171.8404477999975,171.8404477999975,171.8404477999975,171.8404477999975,,003,P016,2025_Mar_07_1349,ConditionRich,2021.2.3,59.92958274085926,
101.0,101.75,12,0.75,Stimuli/P016/sun_boffixsnbbloarty.jpg,0,0,0.0,0,164,164,164,,,,,,,,,,,,,101.00637920000008,0.006379200000083074,None,172.09069669999735,172.09069669999735,172.09069669999735,172.09069669999735,172.09069669999735,172.09069669999735,172.09069669999735,172.09069669999735,172.09069669999735,172.09069669999735,,003,P016,2025_Mar_07_1349,ConditionRich,2021.2.3,59.92958274085926,
101.75,102.0,41,0.0,Stimuli/Blank.png,0,0,0.0,0,165,165,165,,,,,,,,,,,,,101.77250350000031,0.02250350000031176,None,172.84133389999988,172.84133389999988,172.84133389999988,172.84133389999988,172.84133389999988,172.84133389999988,172.84133389999988,172.84133389999988,172.84133389999988,172.84133389999988,,003,P016,2025_Mar_07_1349,ConditionRich,2021.2.3,59.92958274085926,
102.0,102.75,12,0.75,Stimuli/P016/sun_boffixsnbbloarty.jpg,0,0,0.0,0,166,166,166,,,,,,,,,,,,,102.00664600000164,0.006646000001637731,None,173.07487409999885,173.07487409999885,173.07487409999885,173.07487409999885,173.07487409999885,173.07487409999885,173.07487409999885,173.07487409999885,173.07487409999885,173.07487409999885,,003,P016,2025_Mar_07_1349,ConditionRich,2021.2.3,59.92958274085926,
102.75,103.0,41,0.0,Stimuli/Blank.png,0,0,0.0,0,167,167,167,,,,,,,,,,,,,102.75836150000032,0.00836150000031921,None,173.8422509999982,173.8422509999982,173.8422509999982,173.8422509999982,173.8422509999982,173.8422509999982,173.8422509999982,173.8422509999982,173.8422509999982,173.8422509999982,,003,P016,2025_Mar_07_1349,ConditionRich,2021.2.3,59.92958274085926,
103.0,103.75,12,0.75,Stimuli/P016/sun_boffixsnbbloarty.jpg,0,0,0.0,0,168,168,168,,,,,,,,,,,,,103.02354660000128,0.02354660000128206,None,174.10914559999947,174.10914559999947,174.10914559999947,174.10914559999947,174.10914559999947,174.10914559999947,174.10914559999947,174.10914559999947,174.10914559999947,174.10914559999947,,003,P016,2025_Mar_07_1349,ConditionRich,2021.2.3,59.92958274085926,
103.75,104.0,41,0.0,Stimuli/Blank.png,0,0,0.0,0,169,169,169,,,,,,,,,,,,,103.77715230000103,0.027152300001034746,None,174.85979450000013,174.85979450000013,174.85979450000013,174.85979450000013,174.85979450000013,174.85979450000013,174.85979450000013,174.85979450000013,174.85979450000013,174.85979450000013,,003,P016,2025_Mar_07_1349,ConditionRich,2021.2.3,59.92958274085926,
104.0,104.75,39,0.75,Stimuli/P016/things_window_08s.jpg,0,0,0.0,0,170,170,170,,,,,,,,,,,,,104.02724750000198,0.027247500001976732,None,175.11001699999906,175.11001699999906,175.11001699999906,175.11001699999906,175.11001699999906,175.11001699999906,175.11001699999906,175.11001699999906,175.11001699999906,175.11001699999906,,003,P016,2025_Mar_07_1349,ConditionRich,2021.2.3,59.92958274085926,
104.75,105.0,41,0.0,Stimuli/Blank.png,0,0,0.0,0,171,171,171,,,,,,,,,,,,,104.77766260000135,0.027662600001349347,None,175.86068259999956,175.86068259999956,175.86068259999956,175.86068259999956,175.86068259999956,175.86068259999956,175.86068259999956,175.86068259999956,175.86068259999956,175.86068259999956,,003,P016,2025_Mar_07_1349,ConditionRich,2021.2.3,59.92958274085926,
105.0,105.75,39,0.75,Stimuli/P016/things_window_08s.jpg,0,0,0.0,0,172,172,172,,,,,,,,,,,,,105.02647330000036,0.026473300000361633,None,176.1108987999978,176.1108987999978,176.1108987999978,176.1108987999978,176.1108987999978,176.1108987999978,176.1108987999978,176.1108987999978,176.1108987999978,176.1108987999978,,003,P016,2025_Mar_07_1349,ConditionRich,2021.2.3,59.92958274085926,
105.75,106.0,41,0.0,Stimuli/Blank.png,0,0,0.0,0,173,173,173,,,,,,,,,,,,,105.77721380000003,0.027213800000026822,None,176.8448763999986,176.8448763999986,176.8448763999986,176.8448763999986,176.8448763999986,176.8448763999986,176.8448763999986,176.8448763999986,176.8448763999986,176.8448763999986,,003,P016,2025_Mar_07_1349,ConditionRich,2021.2.3,59.92958274085926,
106.0,106.75,39,0.75,Stimuli/P016/things_window_08s.jpg,0,0,0.0,0,174,174,174,,,,,,,,,,,,,106.00958630000241,0.009586300002411008,None,177.09511099999872,177.09511099999872,177.09511099999872,177.09511099999872,177.09511099999872,177.09511099999872,177.09511099999872,177.09511099999872,177.09511099999872,177.09511099999872,,003,P016,2025_Mar_07_1349,ConditionRich,2021.2.3,59.92958274085926,
106.75,107.0,41,0.0,Stimuli/Blank.png,0,0,0.0,0,175,175,175,,,,,,,,,,,,,106.77850910000052,0.02850910000051954,None,177.84577619999982,177.84577619999982,177.84577619999982,177.84577619999982,177.84577619999982,177.84577619999982,177.84577619999982,177.84577619999982,177.84577619999982,177.84577619999982,,003,P016,2025_Mar_07_1349,ConditionRich,2021.2.3,59.92958274085926,
107.0,107.75,39,0.75,Stimuli/P016/things_window_08s.jpg,1,0,0.75,0,176,176,176,,,,,,,,,,,,,107.0126831000016,0.012683100001595449,1,178.09598239999832,178.09598239999832,178.09598239999832,178.09598239999832,178.09598239999832,178.09598239999832,178.09598239999832,178.82996789999743,178.09598239999832,178.09598239999832,0.49789789999704226,003,P016,2025_Mar_07_1349,ConditionRich,2021.2.3,59.92958274085926,
107.75,108.0,41,0.0,Stimuli/Blank.png,0,0,0.0,0,177,177,177,,,,,,,,,,,,,107.77885070000048,0.028850700000475626,None,178.84664829999747,178.84664829999747,178.84664829999747,178.84664829999747,178.84664829999747,178.84664829999747,178.84664829999747,178.84664829999747,178.84664829999747,178.84664829999747,,003,P016,2025_Mar_07_1349,ConditionRich,2021.2.3,59.92958274085926,
108.0,108.75,30,0.75,Stimuli/P016/things_ottoman_08s.jpg,0,0,0.0,0,178,178,178,,,,,,,,,,,,,108.01200669999889,0.012006699998892145,None,179.08017769999788,179.08017769999788,179.08017769999788,179.08017769999788,179.08017769999788,179.08017769999788,179.08017769999788,179.08017769999788,179.08017769999788,179.08017769999788,,003,P016,2025_Mar_07_1349,ConditionRich,2021.2.3,59.92958274085926,
108.75,109.0,41,0.0,Stimuli/Blank.png,0,0,0.0,0,179,179,179,,,,,,,,,,,,,108.76265830000193,0.012658300001930911,None,179.8308408999983,179.8308408999983,179.8308408999983,179.8308408999983,179.8308408999983,179.8308408999983,179.8308408999983,179.8308408999983,179.8308408999983,179.8308408999983,,003,P016,2025_Mar_07_1349,ConditionRich,2021.2.3,59.92958274085926,
109.0,109.75,30,0.75,Stimuli/P016/things_ottoman_08s.jpg,0,0,0.0,0,180,180,180,,,,,,,,,,,,,109.01322920000166,0.013229200001660502,None,180.0977485000003,180.0977485000003,180.0977485000003,180.0977485000003,180.0977485000003,180.0977485000003,180.0977485000003,180.0977485000003,180.0977485000003,180.0977485000003,,003,P016,2025_Mar_07_1349,ConditionRich,2021.2.3,59.92958274085926,
109.75,110.0,41,0.0,Stimuli/Blank.png,0,0,0.0,0,181,181,181,,,,,,,,,,,,,109.78251830000227,0.03251830000226619,None,180.86510139999882,180.86510139999882,180.86510139999882,180.86510139999882,180.86510139999882,180.86510139999882,180.86510139999882,180.86510139999882,180.86510139999882,180.86510139999882,,003,P016,2025_Mar_07_1349,ConditionRich,2021.2.3,59.92958274085926,
110.0,110.75,30,0.75,Stimuli/P016/things_ottoman_08s.jpg,0,0,0.0,0,182,182,182,,,,,,,,,,,,,110.01373479999893,0.013734799998928793,None,181.08194960000037,181.08194960000037,181.08194960000037,181.08194960000037,181.08194960000037,181.08194960000037,181.08194960000037,181.08194960000037,181.08194960000037,181.08194960000037,,003,P016,2025_Mar_07_1349,ConditionRich,2021.2.3,59.92958274085926,
110.75,111.0,41,0.0,Stimuli/Blank.png,0,0,0.0,0,183,183,183,,,,,,,,,,,,,110.7637132000018,0.013713200001802761,None,181.8326156999974,181.8326156999974,181.8326156999974,181.8326156999974,181.8326156999974,181.8326156999974,181.8326156999974,181.8326156999974,181.8326156999974,181.8326156999974,,003,P016,2025_Mar_07_1349,ConditionRich,2021.2.3,59.92958274085926,
111.0,111.75,30,0.75,Stimuli/P016/things_ottoman_08s.jpg,0,0,0.0,0,184,184,184,,,,,,,,,,,,,111.01451219999944,0.01451219999944442,None,182.0828440999976,182.0828440999976,182.0828440999976,182.0828440999976,182.0828440999976,182.0828440999976,182.0828440999976,182.0828440999976,182.0828440999976,182.0828440999976,,003,P016,2025_Mar_07_1349,ConditionRich,2021.2.3,59.92958274085926,
111.75,112.0,41,0.0,Stimuli/Blank.png,0,0,0.0,0,185,185,185,,,,,,,,,,,,,111.76557479999974,0.015574799999740208,None,182.83351419999963,182.83351419999963,182.83351419999963,182.83351419999963,182.83351419999963,182.83351419999963,182.83351419999963,182.83351419999963,182.83351419999963,182.83351419999963,,003,P016,2025_Mar_07_1349,ConditionRich,2021.2.3,59.92958274085926,
112.0,112.75,40,0.75,Stimuli/P016/things_woman_08s.jpg,0,0,0.0,0,186,186,186,,,,,,,,,,,,,111.99833800000124,-0.0016619999987597112,None,183.06703859999834,183.06703859999834,183.06703859999834,183.06703859999834,183.06703859999834,183.06703859999834,183.06703859999834,183.06703859999834,183.06703859999834,183.06703859999834,,003,P016,2025_Mar_07_1349,ConditionRich,2021.2.3,59.92958274085926,
112.75,113.0,41,0.0,Stimuli/Blank.png,0,0,0.0,0,187,187,187,,,,,,,,,,,,,112.74898269999903,-0.001017300000967225,None,183.81769729999723,183.81769729999723,183.81769729999723,183.81769729999723,183.81769729999723,183.81769729999723,183.81769729999723,183.81769729999723,183.81769729999723,183.81769729999723,,003,P016,2025_Mar_07_1349,ConditionRich,2021.2.3,59.92958274085926,
113.0,113.75,40,0.75,Stimuli/P016/things_woman_08s.jpg,0,0,0.0,0,188,188,188,,,,,,,,,,,,,112.99898170000233,-0.001018299997667782,None,184.06792169999972,184.06792169999972,184.06792169999972,184.06792169999972,184.06792169999972,184.06792169999972,184.06792169999972,184.06792169999972,184.06792169999972,184.06792169999972,,003,P016,2025_Mar_07_1349,ConditionRich,2021.2.3,59.92958274085926,
113.75,114.0,41,0.0,Stimuli/Blank.png,0,0,0.0,0,189,189,189,,,,,,,,,,,,,113.7523043000001,0.002304300000105286,None,184.83529879999696,184.83529879999696,184.83529879999696,184.83529879999696,184.83529879999696,184.83529879999696,184.83529879999696,184.83529879999696,184.83529879999696,184.83529879999696,,003,P016,2025_Mar_07_1349,ConditionRich,2021.2.3,59.92958274085926,
114.0,114.75,40,0.75,Stimuli/P016/things_woman_08s.jpg,0,0,0.0,0,190,190,190,,,,,,,,,,,,,114.01719460000095,0.017194600000948412,None,185.08549429999766,185.08549429999766,185.08549429999766,185.08549429999766,185.08549429999766,185.08549429999766,185.08549429999766,185.08549429999766,185.08549429999766,185.08549429999766,,003,P016,2025_Mar_07_1349,ConditionRich,2021.2.3,59.92958274085926,
114.75,115.0,41,0.0,Stimuli/Blank.png,0,0,0.0,0,191,191,191,,,,,,,,,,,,,114.7525753000009,0.0025753000008990057,None,185.83616029999757,185.83616029999757,185.83616029999757,185.83616029999757,185.83616029999757,185.83616029999757,185.83616029999757,185.83616029999757,185.83616029999757,185.83616029999757,,003,P016,2025_Mar_07_1349,ConditionRich,2021.2.3,59.92958274085926,
115.0,115.75,40,0.75,Stimuli/P016/things_woman_08s.jpg,0,0,0.0,0,192,192,192,,,,,,,,,,,,,115.01772340000025,0.017723400000249967,None,186.08637269999963,186.08637269999963,186.08637269999963,186.08637269999963,186.08637269999963,186.08637269999963,186.08637269999963,186.08637269999963,186.08637269999963,186.08637269999963,,003,P016,2025_Mar_07_1349,ConditionRich,2021.2.3,59.92958274085926,
115.75,116.0,41,0.0,Stimuli/Blank.png,0,0,0.0,0,193,193,193,,,,,,,,,,,,,115.75306700000147,0.0030670000014652032,None,186.82036709999738,186.82036709999738,186.82036709999738,186.82036709999738,186.82036709999738,186.82036709999738,186.82036709999738,186.82036709999738,186.82036709999738,186.82036709999738,,003,P016,2025_Mar_07_1349,ConditionRich,2021.2.3,59.92958274085926,
116.0,116.75,38,0.75,Stimuli/P016/things_trumpet_08s.jpg,0,0,0.0,0,194,194,194,,,,,,,,,,,,,116.0024196000013,0.002419600001303479,None,187.07053900000028,187.07053900000028,187.07053900000028,187.07053900000028,187.07053900000028,187.07053900000028,187.07053900000028,187.07053900000028,187.07053900000028,187.07053900000028,,003,P016,2025_Mar_07_1349,ConditionRich,2021.2.3,59.92958274085926,
116.75,117.0,41,0.0,Stimuli/Blank.png,0,0,0.0,0,195,195,195,,,,,,,,,,,,,116.75326209999912,0.0032620999991195276,None,187.83795009999812,187.83795009999812,187.83795009999812,187.83795009999812,187.83795009999812,187.83795009999812,187.83795009999812,187.83795009999812,187.83795009999812,187.83795009999812,,003,P016,2025_Mar_07_1349,ConditionRich,2021.2.3,59.92958274085926,
117.0,117.75,38,0.75,Stimuli/P016/things_trumpet_08s.jpg,0,0,0.0,0,196,196,196,,,,,,,,,,,,,117.02229300000181,0.02229300000180956,None,188.10483100000056,188.10483100000056,188.10483100000056,188.10483100000056,188.10483100000056,188.10483100000056,188.10483100000056,188.10483100000056,188.10483100000056,188.10483100000056,,003,P016,2025_Mar_07_1349,ConditionRich,2021.2.3,59.92958274085926,
117.75,118.0,41,0.0,Stimuli/Blank.png,0,0,0.0,0,197,197,197,,,,,,,,,,,,,117.77001899999959,0.02001899999959278,None,188.83884199999738,188.83884199999738,188.83884199999738,188.83884199999738,188.83884199999738,188.83884199999738,188.83884199999738,188.83884199999738,188.83884199999738,188.83884199999738,,003,P016,2025_Mar_07_1349,ConditionRich,2021.2.3,59.92958274085926,
118.0,118.75,38,0.75,Stimuli/P016/things_trumpet_08s.jpg,0,0,0.0,0,198,198,198,,,,,,,,,,,,,118.00355820000186,0.003558200001862133,None,189.0723231999982,189.0723231999982,189.0723231999982,189.0723231999982,189.0723231999982,189.0723231999982,189.0723231999982,189.0723231999982,189.0723231999982,189.0723231999982,,003,P016,2025_Mar_07_1349,ConditionRich,2021.2.3,59.92958274085926,
118.75,119.0,41,0.0,Stimuli/Blank.png,0,0,0.0,0,199,199,199,,,,,,,,,,,,,118.75514320000002,0.0051432000000204425,None,189.82301720000032,189.82301720000032,189.82301720000032,189.82301720000032,189.82301720000032,189.82301720000032,189.82301720000032,189.82301720000032,189.82301720000032,189.82301720000032,,003,P016,2025_Mar_07_1349,ConditionRich,2021.2.3,59.92958274085926,
119.0,119.75,38,0.75,Stimuli/P016/things_trumpet_08s.jpg,0,0,0.0,0,200,200,200,,,,,,,,,,,,,119.00511910000205,0.0051191000020480715,None,190.0899344999998,190.0899344999998,190.0899344999998,190.0899344999998,190.0899344999998,190.0899344999998,190.0899344999998,190.0899344999998,190.0899344999998,190.0899344999998,,003,P016,2025_Mar_07_1349,ConditionRich,2021.2.3,59.92958274085926,
119.75,120.0,41,0.0,Stimuli/Blank.png,0,0,0.0,0,201,201,201,,,,,,,,,,,,,119.77246020000166,0.02246020000166027,None,190.8405774999992,190.8405774999992,190.8405774999992,190.8405774999992,190.8405774999992,190.8405774999992,190.8405774999992,190.8405774999992,190.8405774999992,190.8405774999992,,003,P016,2025_Mar_07_1349,ConditionRich,2021.2.3,59.92958274085926,
120.0,120.75,6,0.75,Stimuli/P016/sun_akecfasimgpbqcnt.jpg,0,0,0.0,0,202,202,202,,,,,,,,,,,,,120.00589450000189,0.005894500001886627,None,191.07411270000011,191.07411270000011,191.07411270000011,191.07411270000011,191.07411270000011,191.07411270000011,191.07411270000011,191.07411270000011,191.07411270000011,191.07411270000011,,003,P016,2025_Mar_07_1349,ConditionRich,2021.2.3,59.92958274085926,
120.75,121.0,41,0.0,Stimuli/Blank.png,0,0,0.0,0,203,203,203,,,,,,,,,,,,,120.7570603000022,0.007060300002194708,None,191.82479310000053,191.82479310000053,191.82479310000053,191.82479310000053,191.82479310000053,191.82479310000053,191.82479310000053,191.82479310000053,191.82479310000053,191.82479310000053,,003,P016,2025_Mar_07_1349,ConditionRich,2021.2.3,59.92958274085926,
121.0,121.75,6,0.75,Stimuli/P016/sun_akecfasimgpbqcnt.jpg,0,0,0.0,0,204,204,204,,,,,,,,,,,,,121.00684530000217,0.006845300002169097,None,192.07494210000004,192.07494210000004,192.07494210000004,192.07494210000004,192.07494210000004,192.07494210000004,192.07494210000004,192.07494210000004,192.07494210000004,192.07494210000004,,003,P016,2025_Mar_07_1349,ConditionRich,2021.2.3,59.92958274085926,
121.75,122.0,41,0.0,Stimuli/Blank.png,0,0,0.0,0,205,205,205,,,,,,,,,,,,,121.75752590000047,0.007525900000473484,None,192.82566629999928,192.82566629999928,192.82566629999928,192.82566629999928,192.82566629999928,192.82566629999928,192.82566629999928,192.82566629999928,192.82566629999928,192.82566629999928,,003,P016,2025_Mar_07_1349,ConditionRich,2021.2.3,59.92958274085926,
122.0,122.75,6,0.75,Stimuli/P016/sun_akecfasimgpbqcnt.jpg,0,0,0.0,0,206,206,206,,,,,,,,,,,,,122.00764490000074,0.0076449000007414725,None,193.09260259999792,193.09260259999792,193.09260259999792,193.09260259999792,193.09260259999792,193.09260259999792,193.09260259999792,193.09260259999792,193.09260259999792,193.09260259999792,,003,P016,2025_Mar_07_1349,ConditionRich,2021.2.3,59.92958274085926,
122.75,123.0,41,0.0,Stimuli/Blank.png,0,0,0.0,0,207,207,207,,,,,,,,,,,,,122.77708530000018,0.027085300000180723,None,193.85992319999787,193.85992319999787,193.85992319999787,193.85992319999787,193.85992319999787,193.85992319999787,193.85992319999787,193.85992319999787,193.85992319999787,193.85992319999787,,003,P016,2025_Mar_07_1349,ConditionRich,2021.2.3,59.92958274085926,
123.0,123.75,6,0.75,Stimuli/P016/sun_akecfasimgpbqcnt.jpg,0,0,0.0,0,208,208,208,,,,,,,,,,,,,123.02757579999889,0.027575799998885486,None,194.11014339999747,194.11014339999747,194.11014339999747,194.11014339999747,194.11014339999747,194.11014339999747,194.11014339999747,194.11014339999747,194.11014339999747,194.11014339999747,,003,P016,2025_Mar_07_1349,ConditionRich,2021.2.3,59.92958274085926,
123.75,124.0,41,0.0,Stimuli/Blank.png,0,0,0.0,0,209,209,209,,,,,,,,,,,,,123.77732900000046,0.027329000000463566,None,194.8608177999995,194.8608177999995,194.8608177999995,194.8608177999995,194.8608177999995,194.8608177999995,194.8608177999995,194.8608177999995,194.8608177999995,194.8608177999995,,003,P016,2025_Mar_07_1349,ConditionRich,2021.2.3,59.92958274085926,
124.0,124.75,8,0.75,Stimuli/P016/sun_arldxotvfucvuudk.jpg,0,0,0.0,0,210,210,210,,,,,,,,,,,,,124.02833950000058,0.02833950000058394,None,195.1110293999991,195.1110293999991,195.1110293999991,195.1110293999991,195.1110293999991,195.1110293999991,195.1110293999991,195.1110293999991,195.1110293999991,195.1110293999991,,003,P016,2025_Mar_07_1349,ConditionRich,2021.2.3,59.92958274085926,
124.75,125.0,41,0.0,Stimuli/Blank.png,0,0,0.0,0,211,211,211,,,,,,,,,,,,,124.7769515,0.026951499999995576,None,195.8450051999971,195.8450051999971,195.8450051999971,195.8450051999971,195.8450051999971,195.8450051999971,195.8450051999971,195.8450051999971,195.8450051999971,195.8450051999971,,003,P016,2025_Mar_07_1349,ConditionRich,2021.2.3,59.92958274085926,
125.0,125.75,8,0.75,Stimuli/P016/sun_arldxotvfucvuudk.jpg,0,0,0.0,0,212,212,212,,,,,,,,,,,,,125.00965290000022,0.009652900000219233,None,196.0952350999978,196.0952350999978,196.0952350999978,196.0952350999978,196.0952350999978,196.0952350999978,196.0952350999978,196.0952350999978,196.0952350999978,196.0952350999978,,003,P016,2025_Mar_07_1349,ConditionRich,2021.2.3,59.92958274085926,
125.75,126.0,41,0.0,Stimuli/Blank.png,0,0,0.0,0,213,213,213,,,,,,,,,,,,,125.77800790000038,0.02800790000037523,None,196.84589029999916,196.84589029999916,196.84589029999916,196.84589029999916,196.84589029999916,196.84589029999916,196.84589029999916,196.84589029999916,196.84589029999916,196.84589029999916,,003,P016,2025_Mar_07_1349,ConditionRich,2021.2.3,59.92958274085926,
126.0,126.75,8,0.75,Stimuli/P016/sun_arldxotvfucvuudk.jpg,0,0,0.0,0,214,214,214,,,,,,,,,,,,,126.0125134000009,0.0125134000008984,None,197.0961126000002,197.0961126000002,197.0961126000002,197.0961126000002,197.0961126000002,197.0961126000002,197.0961126000002,197.0961126000002,197.0961126000002,197.0961126000002,,003,P016,2025_Mar_07_1349,ConditionRich,2021.2.3,59.92958274085926,
126.75,127.0,41,0.0,Stimuli/Blank.png,0,0,0.0,0,215,215,215,,,,,,,,,,,,,126.77859620000163,0.028596200001629768,None,197.84677259999808,197.84677259999808,197.84677259999808,197.84677259999808,197.84677259999808,197.84677259999808,197.84677259999808,197.84677259999808,197.84677259999808,197.84677259999808,,003,P016,2025_Mar_07_1349,ConditionRich,2021.2.3,59.92958274085926,
127.0,127.75,8,0.75,Stimuli/P016/sun_arldxotvfucvuudk.jpg,0,0,0.0,0,216,216,216,,,,,,,,,,,,,127.01204270000017,0.012042700000165496,None,198.09699669999827,198.09699669999827,198.09699669999827,198.09699669999827,198.09699669999827,198.09699669999827,198.09699669999827,198.09699669999827,198.09699669999827,198.09699669999827,,003,P016,2025_Mar_07_1349,ConditionRich,2021.2.3,59.92958274085926,
127.75,128.0,41,0.0,Stimuli/Blank.png,0,0,0.0,0,217,217,217,,,,,,,,,,,,,127.77900610000142,0.029006100001424784,None,198.84765519999928,198.84765519999928,198.84765519999928,198.84765519999928,198.84765519999928,198.84765519999928,198.84765519999928,198.84765519999928,198.84765519999928,198.84765519999928,,003,P016,2025_Mar_07_1349,ConditionRich,2021.2.3,59.92958274085926,
128.0,128.75,35,0.75,Stimuli/P016/things_squid_08s.jpg,0,0,0.0,0,218,218,218,,,,,,,,,,,,,128.0127919000006,0.01279190000059316,None,199.0811896999985,199.0811896999985,199.0811896999985,199.0811896999985,199.0811896999985,199.0811896999985,199.0811896999985,199.0811896999985,199.0811896999985,199.0811896999985,,003,P016,2025_Mar_07_1349,ConditionRich,2021.2.3,59.92958274085926,
128.75,129.0,41,0.0,Stimuli/Blank.png,0,0,0.0,0,219,219,219,,,,,,,,,,,,,128.76305460000003,0.013054600000032224,None,199.83185179999782,199.83185179999782,199.83185179999782,199.83185179999782,199.83185179999782,199.83185179999782,199.83185179999782,199.83185179999782,199.83185179999782,199.83185179999782,,003,P016,2025_Mar_07_1349,ConditionRich,2021.2.3,59.92958274085926,
129.0,129.75,35,0.75,Stimuli/P016/things_squid_08s.jpg,0,0,0.0,0,220,220,220,,,,,,,,,,,,,129.01319330000115,0.0131933000011486,None,200.0820509999976,200.0820509999976,200.0820509999976,200.0820509999976,200.0820509999976,200.0820509999976,200.0820509999976,200.0820509999976,200.0820509999976,200.0820509999976,,003,P016,2025_Mar_07_1349,ConditionRich,2021.2.3,59.92958274085926,
129.75,130.0,41,0.0,Stimuli/Blank.png,0,0,0.0,0,221,221,221,,,,,,,,,,,,,129.76446629999919,0.01446629999918514,None,200.83273899999767,200.83273899999767,200.83273899999767,200.83273899999767,200.83273899999767,200.83273899999767,200.83273899999767,200.83273899999767,200.83273899999767,200.83273899999767,,003,P016,2025_Mar_07_1349,ConditionRich,2021.2.3,59.92958274085926,
130.0,130.75,35,0.75,Stimuli/P016/things_squid_08s.jpg,0,0,0.0,0,222,222,222,,,,,,,,,,,,,130.01462820000233,0.014628200002334779,None,201.09966539999732,201.09966539999732,201.09966539999732,201.09966539999732,201.09966539999732,201.09966539999732,201.09966539999732,201.09966539999732,201.09966539999732,201.09966539999732,,003,P016,2025_Mar_07_1349,ConditionRich,2021.2.3,59.92958274085926,
130.75,131.0,41,0.0,Stimuli/Blank.png,0,0,0.0,0,223,223,223,,,,,,,,,,,,,130.78154709999944,0.03154709999944316,None,201.85030740000002,201.85030740000002,201.85030740000002,201.85030740000002,201.85030740000002,201.85030740000002,201.85030740000002,201.85030740000002,201.85030740000002,201.85030740000002,,003,P016,2025_Mar_07_1349,ConditionRich,2021.2.3,59.92958274085926,
131.0,131.75,35,0.75,Stimuli/P016/things_squid_08s.jpg,0,0,0.0,0,224,224,224,,,,,,,,,,,,,131.01709180000034,0.017091800000343937,None,202.10053139999945,202.10053139999945,202.10053139999945,202.10053139999945,202.10053139999945,202.10053139999945,202.10053139999945,202.10053139999945,202.10053139999945,202.10053139999945,,003,P016,2025_Mar_07_1349,ConditionRich,2021.2.3,59.92958274085926,
131.75,132.0,41,0.0,Stimuli/Blank.png,0,0,0.0,0,225,225,225,,,,,,,,,,,,,131.76767290000134,0.017672900001343805,None,202.85121539999818,202.85121539999818,202.85121539999818,202.85121539999818,202.85121539999818,202.85121539999818,202.85121539999818,202.85121539999818,202.85121539999818,202.85121539999818,,003,P016,2025_Mar_07_1349,ConditionRich,2021.2.3,59.92958274085926,
132.0,132.75,34,0.75,Stimuli/P016/things_shower_cap_08s.jpg,0,0,0.0,0,226,226,226,,,,,,,,,,,,,132.01663439999902,0.01663439999902039,None,203.08473439999943,203.08473439999943,203.08473439999943,203.08473439999943,203.08473439999943,203.08473439999943,203.08473439999943,203.08473439999943,203.08473439999943,203.08473439999943,,003,P016,2025_Mar_07_1349,ConditionRich,2021.2.3,59.92958274085926,
132.75,133.0,41,0.0,Stimuli/Blank.png,0,0,0.0,0,227,227,227,,,,,,,,,,,,,132.74978810000175,-0.00021189999824855477,None,203.81871859999956,203.81871859999956,203.81871859999956,203.81871859999956,203.81871859999956,203.81871859999956,203.81871859999956,203.81871859999956,203.81871859999956,203.81871859999956,,003,P016,2025_Mar_07_1349,ConditionRich,2021.2.3,59.92958274085926,
133.0,133.75,34,0.75,Stimuli/P016/things_shower_cap_08s.jpg,1,0,0.75,0,228,228,228,,,,,,,,,,,,,133.00218780000068,0.0021878000006836373,1,204.08561949999785,204.08561949999785,204.08561949999785,204.08561949999785,204.08561949999785,204.08561949999785,204.08561949999785,None,204.08561949999785,204.08561949999785,0.4874067999990075,003,P016,2025_Mar_07_1349,ConditionRich,2021.2.3,59.92958274085926,
133.75,134.0,41,0.0,Stimuli/Blank.png,0,0,0.0,0,229,229,229,,,,,,,,,,,,,133.76845220000178,0.018452200001775054,None,204.83627839999826,204.83627839999826,204.83627839999826,204.83627839999826,204.83627839999826,204.83627839999826,204.83627839999826,204.83627839999826,204.83627839999826,204.83627839999826,,003,P016,2025_Mar_07_1349,ConditionRich,2021.2.3,59.92958274085926,
134.0,134.75,34,0.75,Stimuli/P016/things_shower_cap_08s.jpg,0,0,0.0,0,230,230,230,,,,,,,,,,,,,134.00093930000003,0.0009393000000272878,None,205.069821699999,205.069821699999,205.069821699999,205.069821699999,205.069821699999,205.069821699999,205.069821699999,205.069821699999,205.069821699999,205.069821699999,,003,P016,2025_Mar_07_1349,ConditionRich,2021.2.3,59.92958274085926,
134.75,135.0,41,0.0,Stimuli/Blank.png,0,0,0.0,0,231,231,231,,,,,,,,,,,,,134.75292909999916,0.002929099999164464,None,205.82049059999918,205.82049059999918,205.82049059999918,205.82049059999918,205.82049059999918,205.82049059999918,205.82049059999918,205.82049059999918,205.82049059999918,205.82049059999918,,003,P016,2025_Mar_07_1349,ConditionRich,2021.2.3,59.92958274085926,
135.0,135.75,34,0.75,Stimuli/P016/things_shower_cap_08s.jpg,0,0,0.0,0,232,232,232,,,,,,,,,,,,,135.002751,0.00275099999998929,None,206.07071290000022,206.07071290000022,206.07071290000022,206.07071290000022,206.07071290000022,206.07071290000022,206.07071290000022,206.07071290000022,206.07071290000022,206.07071290000022,,003,P016,2025_Mar_07_1349,ConditionRich,2021.2.3,59.92958274085926,
135.75,136.0,41,0.0,Stimuli/Blank.png,0,0,0.0,0,233,233,233,,,,,,,,,,,,,135.7533000000003,0.0033000000003085006,None,206.82136829999945,206.82136829999945,206.82136829999945,206.82136829999945,206.82136829999945,206.82136829999945,206.82136829999945,206.82136829999945,206.82136829999945,206.82136829999945,,003,P016,2025_Mar_07_1349,ConditionRich,2021.2.3,59.92958274085926,
136.0,136.75,33,0.75,Stimuli/P016/things_raccoon_08n.jpg,0,0,0.0,0,234,234,234,,,,,,,,,,,,,136.00354770000195,0.0035477000019454863,None,207.07155489999786,207.07155489999786,207.07155489999786,207.07155489999786,207.07155489999786,207.07155489999786,207.07155489999786,207.07155489999786,207.07155489999786,207.07155489999786,,003,P016,2025_Mar_07_1349,ConditionRich,2021.2.3,59.92958274085926,
136.75,137.0,41,0.0,Stimuli/Blank.png,0,0,0.0,0,235,235,235,,,,,,,,,,,,,136.75427240000135,0.004272400001354981,None,207.8222586999982,207.8222586999982,207.8222586999982,207.8222586999982,207.8222586999982,207.8222586999982,207.8222586999982,207.8222586999982,207.8222586999982,207.8222586999982,,003,P016,2025_Mar_07_1349,ConditionRich,2021.2.3,59.92958274085926,
137.0,137.75,33,0.75,Stimuli/P016/things_raccoon_08n.jpg,1,0,0.75,0,236,236,236,,,,,,,,,,,,,137.00364600000103,0.0036460000010265503,1,208.07248339999933,208.07248339999933,208.07248339999933,208.07248339999933,208.07248339999933,208.07248339999933,208.07248339999933,208.8064338999975,208.07248339999933,208.07248339999933,0.49561009999888483,003,P016,2025_Mar_07_1349,ConditionRich,2021.2.3,59.92958274085926,
137.75,138.0,41,0.0,Stimuli/Blank.png,0,0,0.0,0,237,237,237,,,,,,,,,,,,,137.754957000001,0.004957000001013512,None,208.8231424000005,208.8231424000005,208.8231424000005,208.8231424000005,208.8231424000005,208.8231424000005,208.8231424000005,208.8231424000005,208.8231424000005,208.8231424000005,,003,P016,2025_Mar_07_1349,ConditionRich,2021.2.3,59.92958274085926,
138.0,138.75,33,0.75,Stimuli/P016/things_raccoon_08n.jpg,0,0,0.0,0,238,238,238,,,,,,,,,,,,,138.0072575000013,0.0072575000012875535,None,209.09004189999905,209.09004189999905,209.09004189999905,209.09004189999905,209.09004189999905,209.09004189999905,209.09004189999905,209.09004189999905,209.09004189999905,209.09004189999905,,003,P016,2025_Mar_07_1349,ConditionRich,2021.2.3,59.92958274085926,
138.75,139.0,41,0.0,Stimuli/Blank.png,0,0,0.0,0,239,239,239,,,,,,,,,,,,,138.77274269999907,0.022742699999071192,None,209.84072679999736,209.84072679999736,209.84072679999736,209.84072679999736,209.84072679999736,209.84072679999736,209.84072679999736,209.84072679999736,209.84072679999736,209.84072679999736,,003,P016,2025_Mar_07_1349,ConditionRich,2021.2.3,59.92958274085926,
139.0,139.75,33,0.75,Stimuli/P016/things_raccoon_08n.jpg,0,0,0.0,0,240,240,240,,,,,,,,,,,,,139.0066317000019,0.00663170000188984,None,210.09094639999967,210.09094639999967,210.09094639999967,210.09094639999967,210.09094639999967,210.09094639999967,210.09094639999967,210.09094639999967,210.09094639999967,210.09094639999967,,003,P016,2025_Mar_07_1349,ConditionRich,2021.2.3,59.92958274085926,
139.75,140.0,41,0.0,Stimuli/Blank.png,0,0,0.0,0,241,241,241,,,,,,,,,,,,,139.77273849999983,0.02273849999983213,None,210.84169249999832,210.84169249999832,210.84169249999832,210.84169249999832,210.84169249999832,210.84169249999832,210.84169249999832,210.84169249999832,210.84169249999832,210.84169249999832,,003,P016,2025_Mar_07_1349,ConditionRich,2021.2.3,59.92958274085926,
140.0,140.75,21,0.75,Stimuli/P016/things_arch_08s.jpg,0,0,0.0,0,242,242,242,,,,,,,,,,,,,140.00691350000125,0.006913500001246575,None,211.09181460000036,211.09181460000036,211.09181460000036,211.09181460000036,211.09181460000036,211.09181460000036,211.09181460000036,211.09181460000036,211.09181460000036,211.09181460000036,,003,P016,2025_Mar_07_1349,ConditionRich,2021.2.3,59.92958274085926,
140.75,141.0,41,0.0,Stimuli/Blank.png,0,0,0.0,0,243,243,243,,,,,,,,,,,,,140.77429549999943,0.024295499999425374,None,211.84248149999985,211.84248149999985,211.84248149999985,211.84248149999985,211.84248149999985,211.84248149999985,211.84248149999985,211.84248149999985,211.84248149999985,211.84248149999985,,003,P016,2025_Mar_07_1349,ConditionRich,2021.2.3,59.92958274085926,
141.0,141.75,21,0.75,Stimuli/P016/things_arch_08s.jpg,0,0,0.0,0,244,244,244,,,,,,,,,,,,,141.00939880000078,0.009398800000781193,None,212.0927042000003,212.0927042000003,212.0927042000003,212.0927042000003,212.0927042000003,212.0927042000003,212.0927042000003,212.0927042000003,212.0927042000003,212.0927042000003,,003,P016,2025_Mar_07_1349,ConditionRich,2021.2.3,59.92958274085926,
141.75,142.0,41,0.0,Stimuli/Blank.png,0,0,0.0,0,245,245,245,,,,,,,,,,,,,141.775437100001,0.025437100000999635,None,212.84337009999945,212.84337009999945,212.84337009999945,212.84337009999945,212.84337009999945,212.84337009999945,212.84337009999945,212.84337009999945,212.84337009999945,212.84337009999945,,003,P016,2025_Mar_07_1349,ConditionRich,2021.2.3,59.92958274085926,
142.0,142.75,21,0.75,Stimuli/P016/things_arch_08s.jpg,0,0,0.0,0,246,246,246,,,,,,,,,,,,,142.00826620000225,0.008266200002253754,None,213.07690119999825,213.07690119999825,213.07690119999825,213.07690119999825,213.07690119999825,213.07690119999825,213.07690119999825,213.07690119999825,213.07690119999825,213.07690119999825,,003,P016,2025_Mar_07_1349,ConditionRich,2021.2.3,59.92958274085926,
142.75,143.0,41,0.0,Stimuli/Blank.png,0,0,0.0,0,247,247,247,,,,,,,,,,,,,142.75911590000032,0.009115900000324473,None,213.82756229999723,213.82756229999723,213.82756229999723,213.82756229999723,213.82756229999723,213.82756229999723,213.82756229999723,213.82756229999723,213.82756229999723,213.82756229999723,,003,P016,2025_Mar_07_1349,ConditionRich,2021.2.3,59.92958274085926,
143.0,143.75,21,0.75,Stimuli/P016/things_arch_08s.jpg,0,0,0.0,0,248,248,248,,,,,,,,,,,,,143.00924920000034,0.009249200000340352,None,214.07778250000047,214.07778250000047,214.07778250000047,214.07778250000047,214.07778250000047,214.07778250000047,214.07778250000047,214.07778250000047,214.07778250000047,214.07778250000047,,003,P016,2025_Mar_07_1349,ConditionRich,2021.2.3,59.92958274085926,
143.75,144.0,41,0.0,Stimuli/Blank.png,0,0,0.0,0,249,249,249,,,,,,,,,,,,,143.7595156999996,0.00951569999961066,None,214.82844569999725,214.82844569999725,214.82844569999725,214.82844569999725,214.82844569999725,214.82844569999725,214.82844569999725,214.82844569999725,214.82844569999725,214.82844569999725,,003,P016,2025_Mar_07_1349,ConditionRich,2021.2.3,59.92958274085926,
144.0,144.75,20,0.75,Stimuli/P016/sun_bzmxulijbnmshodq.jpg,0,0,0.0,0,250,250,250,,,,,,,,,,,,,144.0102540000007,0.010254000000713859,None,215.09535440000036,215.09535440000036,215.09535440000036,215.09535440000036,215.09535440000036,215.09535440000036,215.09535440000036,215.09535440000036,215.09535440000036,215.09535440000036,,003,P016,2025_Mar_07_1349,ConditionRich,2021.2.3,59.92958274085926,
144.75,145.0,41,0.0,Stimuli/Blank.png,0,0,0.0,0,251,251,251,,,,,,,,,,,,,144.777801799999,0.027801799998997012,None,215.84601529999782,215.84601529999782,215.84601529999782,215.84601529999782,215.84601529999782,215.84601529999782,215.84601529999782,215.84601529999782,215.84601529999782,215.84601529999782,,003,P016,2025_Mar_07_1349,ConditionRich,2021.2.3,59.92958274085926,
145.0,145.75,20,0.75,Stimuli/P016/sun_bzmxulijbnmshodq.jpg,0,0,0.0,0,252,252,252,,,,,,,,,,,,,145.01315239999894,0.01315239999894402,None,216.09624189999886,216.09624189999886,216.09624189999886,216.09624189999886,216.09624189999886,216.09624189999886,216.09624189999886,216.09624189999886,216.09624189999886,216.09624189999886,,003,P016,2025_Mar_07_1349,ConditionRich,2021.2.3,59.92958274085926,
145.75,146.0,41,0.0,Stimuli/Blank.png,0,0,0.0,0,253,253,253,,,,,,,,,,,,,145.7782847999988,0.028284799998800736,None,216.84690409999894,216.84690409999894,216.84690409999894,216.84690409999894,216.84690409999894,216.84690409999894,216.84690409999894,216.84690409999894,216.84690409999894,216.84690409999894,,003,P016,2025_Mar_07_1349,ConditionRich,2021.2.3,59.92958274085926,
146.0,146.75,20,0.75,Stimuli/P016/sun_bzmxulijbnmshodq.jpg,0,0,0.0,0,254,254,254,,,,,,,,,,,,,146.0121411,0.01214110000000801,None,217.08044299999892,217.08044299999892,217.08044299999892,217.08044299999892,217.08044299999892,217.08044299999892,217.08044299999892,217.08044299999892,217.08044299999892,217.08044299999892,,003,P016,2025_Mar_07_1349,ConditionRich,2021.2.3,59.92958274085926,
146.75,147.0,41,0.0,Stimuli/Blank.png,0,0,0.0,0,255,255,255,,,,,,,,,,,,,146.76373650000096,0.013736500000959495,None,217.84781989999829,217.84781989999829,217.84781989999829,217.84781989999829,217.84781989999829,217.84781989999829,217.84781989999829,217.84781989999829,217.84781989999829,217.84781989999829,,003,P016,2025_Mar_07_1349,ConditionRich,2021.2.3,59.92958274085926,
147.0,147.75,20,0.75,Stimuli/P016/sun_bzmxulijbnmshodq.jpg,1,0,0.75,0,256,256,256,,,,,,,,,,,,,147.03211809999993,0.0321180999999342,1,218.1146962999992,218.83199149999928,218.1146962999992,218.83199149999928,218.1146962999992,218.83199149999928,218.1146962999992,None,218.1146962999992,218.83199149999928,0.42524690000209375,003,P016,2025_Mar_07_1349,ConditionRich,2021.2.3,59.92958274085926,
147.75,148.0,41,0.0,Stimuli/Blank.png,0,0,0.0,0,257,257,257,,,,,,,,,,,,,147.77981980000186,0.02981980000186013,None,218.84866369999872,None,218.84866369999872,None,218.84866369999872,None,218.84866369999872,218.84866369999872,218.84866369999872,None,,003,P016,2025_Mar_07_1349,ConditionRich,2021.2.3,59.92958274085926,
148.0,148.75,26,0.75,Stimuli/P016/things_face_08s.jpg,0,0,0.0,0,258,258,258,,,,,,,,,,,,,148.01389539999946,0.013895399999455549,None,219.08221419999973,219.08221419999973,219.08221419999973,219.08221419999973,219.08221419999973,219.08221419999973,219.08221419999973,219.08221419999973,219.08221419999973,219.08221419999973,,003,P016,2025_Mar_07_1349,ConditionRich,2021.2.3,59.92958274085926,
148.75,149.0,41,0.0,Stimuli/Blank.png,0,0,0.0,0,259,259,259,,,,,,,,,,,,,148.76716560000204,0.017165600002044812,None,219.8495621999973,219.8495621999973,219.8495621999973,219.8495621999973,219.8495621999973,219.8495621999973,219.8495621999973,219.8495621999973,219.8495621999973,219.8495621999973,,003,P016,2025_Mar_07_1349,ConditionRich,2021.2.3,59.92958274085926,
149.0,149.75,26,0.75,Stimuli/P016/things_face_08s.jpg,0,0,0.0,0,260,260,260,,,,,,,,,,,,,149.01742269999886,0.01742269999886048,None,220.09978509999928,220.09978509999928,220.09978509999928,220.09978509999928,220.09978509999928,220.09978509999928,220.09978509999928,220.09978509999928,220.09978509999928,220.09978509999928,,003,P016,2025_Mar_07_1349,ConditionRich,2021.2.3,59.92958274085926,
