eventStartTime,eventEndTime,eventCond,imSize,imFile,responseEvent,fixRespStart,fixRespEnd,Events.thisRepN,Events.thisTrialN,Events.thisN,Events.thisIndex,Instructions.started,Instructions.stopped,participantReadyResponse.keys,participantReadyResponse.rt,participantReadyResponse.started,participantReadyResponse.stopped,startWaitforTrigger,triggerResponse.keys,triggerResponse.rt,triggerResponse.started,triggerResponse.stopped,globalTimer,actualStartTime,startTimingDiff,participantResponse.keys,participantResponse.started,participantResponse.stopped,image.started,image.stopped,fixationOutside.started,fixationOutside.stopped,fixationResponse.started,fixationResponse.stopped,fixationInside.started,fixationInside.stopped,participantResponse.rt,session,participant,date,expName,psychopyVersion,frameRate,
,,,,,,,,,,,,11.282350900000893,None,1,16.075624799999787,11.282350900000893,None,,,,,,,,,,,,,,,,,,,,,002,P016,2025_Mar_07_1342,ConditionRich,2021.2.3,59.94197616792467,
,,,,,,,,,,,,,,,,,,27.36997419999898,5,14.137839099999837,27.382952600000863,None,,,,,,,,,,,,,,,,002,P016,2025_Mar_07_1342,ConditionRich,2021.2.3,59.94197616792467,
0.0,4.0,0,0.0,Stimuli/Blank.png,0,0,0.0,0,0,0,0,,,,,,,,,,,,41.532865900000616,0.02952770000047167,0.02952770000047167,None,41.57866920000015,None,41.57866920000015,None,41.57866920000015,None,41.57866920000015,41.57866920000015,41.57866920000015,None,,002,P016,2025_Mar_07_1342,ConditionRich,2021.2.3,59.94197616792467,
4.0,7.75,34,0.75,Stimuli/P016/things_shower_cap_08s.jpg,0,0,0.0,0,1,1,1,,,,,,,,,,,,,4.002526100000978,0.002526100000977749,None,45.54914590000044,45.54914590000044,45.54914590000044,45.54914590000044,45.54914590000044,45.54914590000044,45.54914590000044,45.54914590000044,45.54914590000044,45.54914590000044,,002,P016,2025_Mar_07_1342,ConditionRich,2021.2.3,59.94197616792467,
7.75,8.0,41,0.0,Stimuli/Blank.png,0,0,0.0,0,2,2,2,,,,,,,,,,,,,7.7553994999980205,0.005399499998020474,None,49.302452100000664,49.302452100000664,49.302452100000664,49.302452100000664,49.302452100000664,49.302452100000664,49.302452100000664,49.302452100000664,49.302452100000664,49.302452100000664,,002,P016,2025_Mar_07_1342,ConditionRich,2021.2.3,59.94197616792467,
8.0,11.75,16,0.75,Stimuli/P016/sun_bwhuwxazfqwuqhik.jpg,0,0,0.0,0,3,3,3,,,,,,,,,,,,,8.006066400001146,0.0060664000011456665,None,49.55237870000201,49.55237870000201,49.55237870000201,49.55237870000201,49.55237870000201,49.55237870000201,49.55237870000201,49.55237870000201,49.55237870000201,49.55237870000201,,002,P016,2025_Mar_07_1342,ConditionRich,2021.2.3,59.94197616792467,
11.75,12.0,41,0.0,Stimuli/Blank.png,0,0,0.0,0,4,4,4,,,,,,,,,,,,,11.761215800001082,0.011215800001082243,None,53.32239330000084,53.32239330000084,53.32239330000084,53.32239330000084,53.32239330000084,53.32239330000084,53.32239330000084,53.32239330000084,53.32239330000084,53.32239330000084,,002,P016,2025_Mar_07_1342,ConditionRich,2021.2.3,59.94197616792467,
12.0,15.75,7,0.75,Stimuli/P016/sun_aqdfrmtvewaapuqs.jpg,0,0,0.0,0,5,5,5,,,,,,,,,,,,,12.025355999998283,0.02535599999828264,None,53.57259619999968,53.57259619999968,53.57259619999968,53.57259619999968,53.57259619999968,53.57259619999968,53.57259619999968,53.57259619999968,53.57259619999968,53.57259619999968,,002,P016,2025_Mar_07_1342,ConditionRich,2021.2.3,59.94197616792467,
15.75,16.0,41,0.0,Stimuli/Blank.png,0,0,0.0,0,6,6,6,,,,,,,,,,,,,15.763700299998163,0.013700299998163246,None,57.30926399999953,57.30926399999953,57.30926399999953,57.30926399999953,57.30926399999953,57.30926399999953,57.30926399999953,57.30926399999953,57.30926399999953,57.30926399999953,,002,P016,2025_Mar_07_1342,ConditionRich,2021.2.3,59.94197616792467,
16.0,19.75,10,0.75,Stimuli/P016/sun_bfojpvrlsrtfyzio.jpg,0,0,0.0,0,7,7,7,,,,,,,,,,,,,16.01263839999956,0.012638399999559624,None,57.57615530000112,57.57615530000112,57.57615530000112,57.57615530000112,57.57615530000112,57.57615530000112,57.57615530000112,57.57615530000112,57.57615530000112,57.57615530000112,,002,P016,2025_Mar_07_1342,ConditionRich,2021.2.3,59.94197616792467,
19.75,20.0,41,0.0,Stimuli/Blank.png,0,0,0.0,0,8,8,8,,,,,,,,,,,,,19.765898599998764,0.01589859999876353,None,61.31279809999978,61.31279809999978,61.31279809999978,61.31279809999978,61.31279809999978,61.31279809999978,61.31279809999978,61.31279809999978,61.31279809999978,61.31279809999978,,002,P016,2025_Mar_07_1342,ConditionRich,2021.2.3,59.94197616792467,
20.0,23.75,39,0.75,Stimuli/P016/things_window_08s.jpg,0,0,0.0,0,9,9,9,,,,,,,,,,,,,20.00035310000021,0.0003531000002112705,None,61.56304010000167,61.56304010000167,61.56304010000167,61.56304010000167,61.56304010000167,61.56304010000167,61.56304010000167,61.56304010000167,61.56304010000167,61.56304010000167,,002,P016,2025_Mar_07_1342,ConditionRich,2021.2.3,59.94197616792467,
23.75,24.0,41,0.0,Stimuli/Blank.png,0,0,0.0,0,10,10,10,,,,,,,,,,,,,23.76965040000141,0.019650400001410162,None,65.31633499999953,65.31633499999953,65.31633499999953,65.31633499999953,65.31633499999953,65.31633499999953,65.31633499999953,65.31633499999953,65.31633499999953,65.31633499999953,,002,P016,2025_Mar_07_1342,ConditionRich,2021.2.3,59.94197616792467,
24.0,27.75,24,0.75,Stimuli/P016/things_bunkbed_08s.jpg,1,2,2.75,0,11,11,11,,,,,,,,,,,,,24.002346400000533,0.002346400000533322,1,65.5498606000001,65.5498606000001,65.5498606000001,65.5498606000001,65.5498606000001,65.5498606000001,67.53492410000035,68.2856079000012,65.5498606000001,65.5498606000001,2.445751299997937,002,P016,2025_Mar_07_1342,ConditionRich,2021.2.3,59.94197616792467,
27.75,28.0,41,0.0,Stimuli/Blank.png,0,0,0.0,0,12,12,12,,,,,,,,,,,,,27.755942399999185,0.005942399999185,None,69.3031727000016,69.3031727000016,69.3031727000016,69.3031727000016,69.3031727000016,69.3031727000016,69.3031727000016,69.3031727000016,69.3031727000016,69.3031727000016,,002,P016,2025_Mar_07_1342,ConditionRich,2021.2.3,59.94197616792467,
28.0,31.75,29,0.75,Stimuli/P016/things_mouse1_08s.jpg,0,0,0.0,0,13,13,13,,,,,,,,,,,,,28.00680459999785,0.0068045999978494365,None,69.55352710000079,69.55352710000079,69.55352710000079,69.55352710000079,69.55352710000079,69.55352710000079,69.55352710000079,69.55352710000079,69.55352710000079,69.55352710000079,,002,P016,2025_Mar_07_1342,ConditionRich,2021.2.3,59.94197616792467,
31.75,32.0,41,0.0,Stimuli/Blank.png,0,0,0.0,0,14,14,14,,,,,,,,,,,,,31.760946300000796,0.010946300000796327,None,73.30672390000109,73.30672390000109,73.30672390000109,73.30672390000109,73.30672390000109,73.30672390000109,73.30672390000109,73.30672390000109,73.30672390000109,73.30672390000109,,002,P016,2025_Mar_07_1342,ConditionRich,2021.2.3,59.94197616792467,
32.0,35.75,1,0.75,Stimuli/P016/sun_aacpzgqrortyhyss.jpg,0,0,0.0,0,15,15,15,,,,,,,,,,,,,32.01016929999969,0.01016929999968852,None,73.55693769999925,73.55693769999925,73.55693769999925,73.55693769999925,73.55693769999925,73.55693769999925,73.55693769999925,73.55693769999925,73.55693769999925,73.55693769999925,,002,P016,2025_Mar_07_1342,ConditionRich,2021.2.3,59.94197616792467,
35.75,36.0,41,0.0,Stimuli/Blank.png,0,0,0.0,0,16,16,16,,,,,,,,,,,,,35.76531559999785,0.01531559999784804,None,77.32694270000138,77.32694270000138,77.32694270000138,77.32694270000138,77.32694270000138,77.32694270000138,77.32694270000138,77.32694270000138,77.32694270000138,77.32694270000138,,002,P016,2025_Mar_07_1342,ConditionRich,2021.2.3,59.94197616792467,
36.0,39.75,11,0.75,Stimuli/P016/sun_bnwmcjuinqbdsbho.jpg,1,0,0.75,0,17,17,17,,,,,,,,,,,,,36.029711099999986,0.02971109999998589,1,77.57715280000048,77.57715280000048,77.57715280000048,77.57715280000048,77.57715280000048,77.57715280000048,77.57715280000048,78.31120459999875,77.57715280000048,77.57715280000048,0.5155747999997402,002,P016,2025_Mar_07_1342,ConditionRich,2021.2.3,59.94197616792467,
39.75,40.0,41,0.0,Stimuli/Blank.png,0,0,0.0,0,18,18,18,,,,,,,,,,,,,39.75032799999826,0.0003279999982623849,None,81.2971232000018,81.2971232000018,81.2971232000018,81.2971232000018,81.2971232000018,81.2971232000018,81.2971232000018,81.2971232000018,81.2971232000018,81.2971232000018,,002,P016,2025_Mar_07_1342,ConditionRich,2021.2.3,59.94197616792467,
40.0,43.75,22,0.75,Stimuli/P016/things_baby_08s.jpg,1,1,1.75,0,19,19,19,,,,,,,,,,,,,40.000331799998094,0.00033179999809362926,1,81.54730439999912,81.54730439999912,81.54730439999912,81.54730439999912,81.54730439999912,81.54730439999912,82.53154329999961,83.28219710000121,81.54730439999912,81.54730439999912,1.4392846999980975,002,P016,2025_Mar_07_1342,ConditionRich,2021.2.3,59.94197616792467,
43.75,44.0,41,0.0,Stimuli/Blank.png,0,0,0.0,0,20,20,20,,,,,,,,,,,,,43.75558969999838,0.005589699998381548,None,85.31735150000168,85.31735150000168,85.31735150000168,85.31735150000168,85.31735150000168,85.31735150000168,85.31735150000168,85.31735150000168,85.31735150000168,85.31735150000168,,002,P016,2025_Mar_07_1342,ConditionRich,2021.2.3,59.94197616792467,
44.0,47.75,6,0.75,Stimuli/P016/sun_akecfasimgpbqcnt.jpg,0,0,0.0,0,21,21,21,,,,,,,,,,,,,44.021181699998124,0.021181699998123804,None,85.56755980000162,85.56755980000162,85.56755980000162,85.56755980000162,85.56755980000162,85.56755980000162,85.56755980000162,85.56755980000162,85.56755980000162,85.56755980000162,,002,P016,2025_Mar_07_1342,ConditionRich,2021.2.3,59.94197616792467,
47.75,48.0,41,0.0,Stimuli/Blank.png,0,0,0.0,0,22,22,22,,,,,,,,,,,,,47.75742639999953,0.007426399999530986,None,89.30419439999969,89.30419439999969,89.30419439999969,89.30419439999969,89.30419439999969,89.30419439999969,89.30419439999969,89.30419439999969,89.30419439999969,89.30419439999969,,002,P016,2025_Mar_07_1342,ConditionRich,2021.2.3,59.94197616792467,
48.0,51.75,23,0.75,Stimuli/P016/things_boy_08s.jpg,0,0,0.0,0,23,23,23,,,,,,,,,,,,,48.00713669999823,0.007136699998227414,None,89.55441699999938,89.55441699999938,89.55441699999938,89.55441699999938,89.55441699999938,89.55441699999938,89.55441699999938,89.55441699999938,89.55441699999938,89.55441699999938,,002,P016,2025_Mar_07_1342,ConditionRich,2021.2.3,59.94197616792467,
51.75,52.0,41,0.0,Stimuli/Blank.png,0,0,0.0,0,24,24,24,,,,,,,,,,,,,51.7617797999992,0.011779799999203533,None,93.3077400000002,93.3077400000002,93.3077400000002,93.3077400000002,93.3077400000002,93.3077400000002,93.3077400000002,93.3077400000002,93.3077400000002,93.3077400000002,,002,P016,2025_Mar_07_1342,ConditionRich,2021.2.3,59.94197616792467,
52.0,55.75,25,0.75,Stimuli/P016/things_deer_08s.jpg,0,0,0.0,0,25,25,25,,,,,,,,,,,,,52.01129589999982,0.011295899999822723,None,93.55795919999946,93.55795919999946,93.55795919999946,93.55795919999946,93.55795919999946,93.55795919999946,93.55795919999946,93.55795919999946,93.55795919999946,93.55795919999946,,002,P016,2025_Mar_07_1342,ConditionRich,2021.2.3,59.94197616792467,
55.75,56.0,41,0.0,Stimuli/Blank.png,0,0,0.0,0,26,26,26,,,,,,,,,,,,,55.76582079999935,0.01582079999934649,None,97.3279700000021,97.3279700000021,97.3279700000021,97.3279700000021,97.3279700000021,97.3279700000021,97.3279700000021,97.3279700000021,97.3279700000021,97.3279700000021,,002,P016,2025_Mar_07_1342,ConditionRich,2021.2.3,59.94197616792467,
56.0,59.75,13,0.75,Stimuli/P016/sun_bphvjnowixlryxot.jpg,0,0,0.0,0,27,27,27,,,,,,,,,,,,,56.014580700000806,0.014580700000806246,None,97.56149899999946,97.56149899999946,97.56149899999946,97.56149899999946,97.56149899999946,97.56149899999946,97.56149899999946,97.56149899999946,97.56149899999946,97.56149899999946,,002,P016,2025_Mar_07_1342,ConditionRich,2021.2.3,59.94197616792467,
59.75,60.0,41,0.0,Stimuli/Blank.png,0,0,0.0,0,28,28,28,,,,,,,,,,,,,59.75068689999898,0.0006868999989819713,None,101.29814619999888,101.29814619999888,101.29814619999888,101.29814619999888,101.29814619999888,101.29814619999888,101.29814619999888,101.29814619999888,101.29814619999888,101.29814619999888,,002,P016,2025_Mar_07_1342,ConditionRich,2021.2.3,59.94197616792467,
60.0,63.75,37,0.75,Stimuli/P016/things_swizzle_stick_08s.jpg,0,0,0.0,0,29,29,29,,,,,,,,,,,,,60.00150709999798,0.0015070999979798216,None,101.54836330000035,101.54836330000035,101.54836330000035,101.54836330000035,101.54836330000035,101.54836330000035,101.54836330000035,101.54836330000035,101.54836330000035,101.54836330000035,,002,P016,2025_Mar_07_1342,ConditionRich,2021.2.3,59.94197616792467,
63.75,64.0,41,0.0,Stimuli/Blank.png,0,0,0.0,0,30,30,30,,,,,,,,,,,,,63.755761899999925,0.005761899999924935,None,105.30168490000142,105.30168490000142,105.30168490000142,105.30168490000142,105.30168490000142,105.30168490000142,105.30168490000142,105.30168490000142,105.30168490000142,105.30168490000142,,002,P016,2025_Mar_07_1342,ConditionRich,2021.2.3,59.94197616792467,
64.0,67.75,20,0.75,Stimuli/P016/sun_bzmxulijbnmshodq.jpg,0,0,0.0,0,31,31,31,,,,,,,,,,,,,64.00457610000012,0.004576100000122096,None,105.55189470000187,105.55189470000187,105.55189470000187,105.55189470000187,105.55189470000187,105.55189470000187,105.55189470000187,105.55189470000187,105.55189470000187,105.55189470000187,,002,P016,2025_Mar_07_1342,ConditionRich,2021.2.3,59.94197616792467,
67.75,68.0,41,0.0,Stimuli/Blank.png,0,0,0.0,0,32,32,32,,,,,,,,,,,,,67.76067400000102,0.010674000001017703,None,109.32191070000044,109.32191070000044,109.32191070000044,109.32191070000044,109.32191070000044,109.32191070000044,109.32191070000044,109.32191070000044,109.32191070000044,109.32191070000044,,002,P016,2025_Mar_07_1342,ConditionRich,2021.2.3,59.94197616792467,
68.0,71.75,5,0.75,Stimuli/P016/sun_ajgmxbrxdpmsaext.jpg,1,3,3.75,0,33,33,33,,,,,,,,,,,,,68.0255001000005,0.025500100000499515,1,109.57212110000182,109.57212110000182,109.57212110000182,109.57212110000182,109.57212110000182,109.57212110000182,112.55808869999964,None,109.57212110000182,109.57212110000182,3.6895160999993095,002,P016,2025_Mar_07_1342,ConditionRich,2021.2.3,59.94197616792467,
71.75,72.0,41,0.0,Stimuli/Blank.png,0,0,0.0,0,34,34,34,,,,,,,,,,,,,71.76210290000017,0.012102900000172667,None,113.3087642999999,113.3087642999999,113.3087642999999,113.3087642999999,113.3087642999999,113.3087642999999,113.3087642999999,113.3087642999999,113.3087642999999,113.3087642999999,,002,P016,2025_Mar_07_1342,ConditionRich,2021.2.3,59.94197616792467,
72.0,75.75,38,0.75,Stimuli/P016/things_trumpet_08s.jpg,1,0,0.75,0,35,35,35,,,,,,,,,,,,,72.01163359999919,0.011633599999186117,1,113.55898960000195,113.55898960000195,113.55898960000195,113.55898960000195,113.55898960000195,113.55898960000195,113.55898960000195,114.29296379999869,113.55898960000195,113.55898960000195,0.6657516999985091,002,P016,2025_Mar_07_1342,ConditionRich,2021.2.3,59.94197616792467,
75.75,76.0,41,0.0,Stimuli/Blank.png,0,0,0.0,0,36,36,36,,,,,,,,,,,,,75.76561690000017,0.015616900000168243,None,117.31230270000015,117.31230270000015,117.31230270000015,117.31230270000015,117.31230270000015,117.31230270000015,117.31230270000015,117.31230270000015,117.31230270000015,117.31230270000015,,002,P016,2025_Mar_07_1342,ConditionRich,2021.2.3,59.94197616792467,
76.0,79.75,9,0.75,Stimuli/P016/sun_bbdgftzhpkaklkll.jpg,0,0,0.0,0,37,37,37,,,,,,,,,,,,,75.99902120000115,-0.0009787999988475349,None,117.54580050000004,117.54580050000004,117.54580050000004,117.54580050000004,117.54580050000004,117.54580050000004,117.54580050000004,117.54580050000004,117.54580050000004,117.54580050000004,,002,P016,2025_Mar_07_1342,ConditionRich,2021.2.3,59.94197616792467,
79.75,80.0,41,0.0,Stimuli/Blank.png,0,0,0.0,0,38,38,38,,,,,,,,,,,,,79.7526770000004,0.0026770000004034955,None,121.29915859999892,121.29915859999892,121.29915859999892,121.29915859999892,121.29915859999892,121.29915859999892,121.29915859999892,121.29915859999892,121.29915859999892,121.29915859999892,,002,P016,2025_Mar_07_1342,ConditionRich,2021.2.3,59.94197616792467,
80.0,83.75,19,0.75,Stimuli/P016/sun_bzhwvgrzvttqoexa.jpg,0,0,0.0,0,39,39,39,,,,,,,,,,,,,80.00202920000083,0.002029200000833953,None,121.5493776000003,121.5493776000003,121.5493776000003,121.5493776000003,121.5493776000003,121.5493776000003,121.5493776000003,121.5493776000003,121.5493776000003,121.5493776000003,,002,P016,2025_Mar_07_1342,ConditionRich,2021.2.3,59.94197616792467,
83.75,84.0,41,0.0,Stimuli/Blank.png,0,0,0.0,0,40,40,40,,,,,,,,,,,,,83.75617680000141,0.00617680000141263,None,125.30270229999951,125.30270229999951,125.30270229999951,125.30270229999951,125.30270229999951,125.30270229999951,125.30270229999951,125.30270229999951,125.30270229999951,125.30270229999951,,002,P016,2025_Mar_07_1342,ConditionRich,2021.2.3,59.94197616792467,
84.0,100.0,0,0.0,Stimuli/Blank.png,1,5,5.75,0,41,41,41,,,,,,,,,,,,,84.00609210000039,0.0060921000003872905,1,125.55292180000106,125.55292180000106,125.55292180000106,125.55292180000106,125.55292180000106,125.55292180000106,130.54066299999977,131.2913221000017,125.55292180000106,125.55292180000106,5.465054299998883,002,P016,2025_Mar_07_1342,ConditionRich,2021.2.3,59.94197616792467,
100.0,103.75,28,0.75,Stimuli/P016/things_latte_08s.jpg,0,0,0.0,0,42,42,42,,,,,,,,,,,,,100.00299610000002,0.0029961000000184868,None,141.56709119999869,141.56709119999869,141.56709119999869,141.56709119999869,141.56709119999869,141.56709119999869,141.56709119999869,141.56709119999869,141.56709119999869,141.56709119999869,,002,P016,2025_Mar_07_1342,ConditionRich,2021.2.3,59.94197616792467,
103.75,104.0,41,0.0,Stimuli/Blank.png,0,0,0.0,0,43,43,43,,,,,,,,,,,,,103.77286029999959,0.022860299999592826,None,145.32046719999926,145.32046719999926,145.32046719999926,145.32046719999926,145.32046719999926,145.32046719999926,145.32046719999926,145.32046719999926,145.32046719999926,145.32046719999926,,002,P016,2025_Mar_07_1342,ConditionRich,2021.2.3,59.94197616792467,
104.0,107.75,27,0.75,Stimuli/P016/things_girl_08s.jpg,0,0,0.0,0,44,44,44,,,,,,,,,,,,,104.00643299999865,0.006432999998651212,None,145.55393600000025,145.55393600000025,145.55393600000025,145.55393600000025,145.55393600000025,145.55393600000025,145.55393600000025,145.55393600000025,145.55393600000025,145.55393600000025,,002,P016,2025_Mar_07_1342,ConditionRich,2021.2.3,59.94197616792467,
107.75,108.0,41,0.0,Stimuli/Blank.png,0,0,0.0,0,45,45,45,,,,,,,,,,,,,107.75990230000025,0.009902300000248943,None,149.30725449999954,149.30725449999954,149.30725449999954,149.30725449999954,149.30725449999954,149.30725449999954,149.30725449999954,149.30725449999954,149.30725449999954,149.30725449999954,,002,P016,2025_Mar_07_1342,ConditionRich,2021.2.3,59.94197616792467,
108.0,111.75,40,0.75,Stimuli/P016/things_woman_08s.jpg,0,0,0.0,0,46,46,46,,,,,,,,,,,,,108.01059410000016,0.010594100000162143,None,149.55747020000126,149.55747020000126,149.55747020000126,149.55747020000126,149.55747020000126,149.55747020000126,149.55747020000126,149.55747020000126,149.55747020000126,149.55747020000126,,002,P016,2025_Mar_07_1342,ConditionRich,2021.2.3,59.94197616792467,
111.75,112.0,41,0.0,Stimuli/Blank.png,0,0,0.0,0,47,47,47,,,,,,,,,,,,,111.7655537999999,0.015553799999906914,None,153.32748360000187,153.32748360000187,153.32748360000187,153.32748360000187,153.32748360000187,153.32748360000187,153.32748360000187,153.32748360000187,153.32748360000187,153.32748360000187,,002,P016,2025_Mar_07_1342,ConditionRich,2021.2.3,59.94197616792467,
112.0,115.75,32,0.75,Stimuli/P016/things_pheasant_08s.jpg,0,0,0.0,0,48,48,48,,,,,,,,,,,,,112.01495589999831,0.014955899998312816,None,153.5776893000002,153.5776893000002,153.5776893000002,153.5776893000002,153.5776893000002,153.5776893000002,153.5776893000002,153.5776893000002,153.5776893000002,153.5776893000002,,002,P016,2025_Mar_07_1342,ConditionRich,2021.2.3,59.94197616792467,
115.75,116.0,41,0.0,Stimuli/Blank.png,0,0,0.0,0,49,49,49,,,,,,,,,,,,,115.76693109999906,0.016931099999055732,None,157.3143366000004,157.3143366000004,157.3143366000004,157.3143366000004,157.3143366000004,157.3143366000004,157.3143366000004,157.3143366000004,157.3143366000004,157.3143366000004,,002,P016,2025_Mar_07_1342,ConditionRich,2021.2.3,59.94197616792467,
116.0,119.75,4,0.75,Stimuli/P016/sun_aiwuqxdqzftsfyeg.jpg,0,0,0.0,0,50,50,50,,,,,,,,,,,,,116.00110249999852,0.0011024999985238537,None,157.5478734999997,157.5478734999997,157.5478734999997,157.5478734999997,157.5478734999997,157.5478734999997,157.5478734999997,157.5478734999997,157.5478734999997,157.5478734999997,,002,P016,2025_Mar_07_1342,ConditionRich,2021.2.3,59.94197616792467,
119.75,120.0,41,0.0,Stimuli/Blank.png,0,0,0.0,0,51,51,51,,,,,,,,,,,,,119.75452339999902,0.004523399999015965,None,161.30120270000043,161.30120270000043,161.30120270000043,161.30120270000043,161.30120270000043,161.30120270000043,161.30120270000043,161.30120270000043,161.30120270000043,161.30120270000043,,002,P016,2025_Mar_07_1342,ConditionRich,2021.2.3,59.94197616792467,
120.0,123.75,30,0.75,Stimuli/P016/things_ottoman_08s.jpg,0,0,0.0,0,52,52,52,,,,,,,,,,,,,120.0046297000008,0.004629700000805315,None,161.56810150000092,161.56810150000092,161.56810150000092,161.56810150000092,161.56810150000092,161.56810150000092,161.56810150000092,161.56810150000092,161.56810150000092,161.56810150000092,,002,P016,2025_Mar_07_1342,ConditionRich,2021.2.3,59.94197616792467,
123.75,124.0,41,0.0,Stimuli/Blank.png,0,0,0.0,0,53,53,53,,,,,,,,,,,,,123.77406029999838,0.024060299998382106,None,165.3214654000003,165.3214654000003,165.3214654000003,165.3214654000003,165.3214654000003,165.3214654000003,165.3214654000003,165.3214654000003,165.3214654000003,165.3214654000003,,002,P016,2025_Mar_07_1342,ConditionRich,2021.2.3,59.94197616792467,
124.0,127.75,12,0.75,Stimuli/P016/sun_boffixsnbbloarty.jpg,0,0,0.0,0,54,54,54,,,,,,,,,,,,,124.01057419999779,0.010574199997790856,None,165.57214060000115,165.57214060000115,165.57214060000115,165.57214060000115,165.57214060000115,165.57214060000115,165.57214060000115,165.57214060000115,165.57214060000115,165.57214060000115,,002,P016,2025_Mar_07_1342,ConditionRich,2021.2.3,59.94197616792467,
127.75,128.0,41,0.0,Stimuli/Blank.png,0,0,0.0,0,55,55,55,,,,,,,,,,,,,127.78122639999856,0.031226399998558918,None,169.3416529999995,169.3416529999995,169.3416529999995,169.3416529999995,169.3416529999995,169.3416529999995,169.3416529999995,169.3416529999995,169.3416529999995,169.3416529999995,,002,P016,2025_Mar_07_1342,ConditionRich,2021.2.3,59.94197616792467,
128.0,131.75,17,0.75,Stimuli/P016/sun_bxhbltvqnpaciuzt.jpg,1,3,3.75,0,56,56,56,,,,,,,,,,,,,128.0303930000009,0.030393000000913162,1,169.5918617999996,173.31181450000076,169.5918617999996,173.31181450000076,169.5918617999996,173.31181450000076,172.57785200000217,None,169.5918617999996,173.31181450000076,3.346942100000888,002,P016,2025_Mar_07_1342,ConditionRich,2021.2.3,59.94197616792467,
131.75,132.0,41,0.0,Stimuli/Blank.png,0,0,0.0,0,57,57,57,,,,,,,,,,,,,131.7818570999989,0.03185709999888786,None,173.32849089999945,None,173.32849089999945,None,173.32849089999945,None,173.32849089999945,173.32849089999945,173.32849089999945,None,,002,P016,2025_Mar_07_1342,ConditionRich,2021.2.3,59.94197616792467,
132.0,135.75,26,0.75,Stimuli/P016/things_face_08s.jpg,1,3,3.75,0,58,58,58,,,,,,,,,,,,,132.01496340000085,0.014963400000851834,1,173.5620353000013,173.5620353000013,173.5620353000013,173.5620353000013,173.5620353000013,173.5620353000013,176.54805900000065,None,173.5620353000013,173.5620353000013,3.680571900000359,002,P016,2025_Mar_07_1342,ConditionRich,2021.2.3,59.94197616792467,
135.75,136.0,41,0.0,Stimuli/Blank.png,0,0,0.0,0,59,59,59,,,,,,,,,,,,,135.75171620000037,0.0017162000003736466,None,177.29868150000038,177.29868150000038,177.29868150000038,177.29868150000038,177.29868150000038,177.29868150000038,177.29868150000038,177.29868150000038,177.29868150000038,177.29868150000038,,002,P016,2025_Mar_07_1342,ConditionRich,2021.2.3,59.94197616792467,
136.0,139.75,31,0.75,Stimuli/P016/things_outlet_08s.jpg,0,0,0.0,0,60,60,60,,,,,,,,,,,,,136.00258630000098,0.00258630000098492,None,177.54888930000016,177.54888930000016,177.54888930000016,177.54888930000016,177.54888930000016,177.54888930000016,177.54888930000016,177.54888930000016,177.54888930000016,177.54888930000016,,002,P016,2025_Mar_07_1342,ConditionRich,2021.2.3,59.94197616792467,
139.75,140.0,41,0.0,Stimuli/Blank.png,0,0,0.0,0,61,61,61,,,,,,,,,,,,,139.75556180000058,0.005561800000577932,None,181.30220840000038,181.30220840000038,181.30220840000038,181.30220840000038,181.30220840000038,181.30220840000038,181.30220840000038,181.30220840000038,181.30220840000038,181.30220840000038,,002,P016,2025_Mar_07_1342,ConditionRich,2021.2.3,59.94197616792467,
140.0,143.75,18,0.75,Stimuli/P016/sun_byavixgfuhzioilz.jpg,0,0,0.0,0,62,62,62,,,,,,,,,,,,,140.00561749999906,0.0056174999990616925,None,181.5691134000008,181.5691134000008,181.5691134000008,181.5691134000008,181.5691134000008,181.5691134000008,181.5691134000008,181.5691134000008,181.5691134000008,181.5691134000008,,002,P016,2025_Mar_07_1342,ConditionRich,2021.2.3,59.94197616792467,
143.75,144.0,41,0.0,Stimuli/Blank.png,0,0,0.0,0,63,63,63,,,,,,,,,,,,,143.77626709999822,0.026267099998221966,None,185.32243279999966,185.32243279999966,185.32243279999966,185.32243279999966,185.32243279999966,185.32243279999966,185.32243279999966,185.32243279999966,185.32243279999966,185.32243279999966,,002,P016,2025_Mar_07_1342,ConditionRich,2021.2.3,59.94197616792467,
144.0,147.75,3,0.75,Stimuli/P016/sun_aiogwnavezqxkzfg.jpg,0,0,0.0,0,64,64,64,,,,,,,,,,,,,144.00937499999782,0.009374999997817213,None,185.55596230000083,185.55596230000083,185.55596230000083,185.55596230000083,185.55596230000083,185.55596230000083,185.55596230000083,185.55596230000083,185.55596230000083,185.55596230000083,,002,P016,2025_Mar_07_1342,ConditionRich,2021.2.3,59.94197616792467,
147.75,148.0,41,0.0,Stimuli/Blank.png,0,0,0.0,0,65,65,65,,,,,,,,,,,,,147.76244120000047,0.012441200000466779,None,189.3093004000002,189.3093004000002,189.3093004000002,189.3093004000002,189.3093004000002,189.3093004000002,189.3093004000002,189.3093004000002,189.3093004000002,189.3093004000002,,002,P016,2025_Mar_07_1342,ConditionRich,2021.2.3,59.94197616792467,
148.0,151.75,36,0.75,Stimuli/P016/things_streetlight_08s.jpg,0,0,0.0,0,66,66,66,,,,,,,,,,,,,148.01260589999947,0.012605899999471148,None,189.55950239999947,189.55950239999947,189.55950239999947,189.55950239999947,189.55950239999947,189.55950239999947,189.55950239999947,189.55950239999947,189.55950239999947,189.55950239999947,,002,P016,2025_Mar_07_1342,ConditionRich,2021.2.3,59.94197616792467,
151.75,152.0,41,0.0,Stimuli/Blank.png,0,0,0.0,0,67,67,67,,,,,,,,,,,,,151.75061089999872,0.0006108999987191055,None,193.3127987000007,193.3127987000007,193.3127987000007,193.3127987000007,193.3127987000007,193.3127987000007,193.3127987000007,193.3127987000007,193.3127987000007,193.3127987000007,,002,P016,2025_Mar_07_1342,ConditionRich,2021.2.3,59.94197616792467,
152.0,155.75,35,0.75,Stimuli/P016/things_squid_08s.jpg,0,0,0.0,0,68,68,68,,,,,,,,,,,,,152.01669720000064,0.016697200000635348,None,193.5797534000012,193.5797534000012,193.5797534000012,193.5797534000012,193.5797534000012,193.5797534000012,193.5797534000012,193.5797534000012,193.5797534000012,193.5797534000012,,002,P016,2025_Mar_07_1342,ConditionRich,2021.2.3,59.94197616792467,
155.75,156.0,41,0.0,Stimuli/Blank.png,0,0,0.0,0,69,69,69,,,,,,,,,,,,,155.7701374999997,0.0201374999996915,None,197.31636269999944,197.31636269999944,197.31636269999944,197.31636269999944,197.31636269999944,197.31636269999944,197.31636269999944,197.31636269999944,197.31636269999944,197.31636269999944,,002,P016,2025_Mar_07_1342,ConditionRich,2021.2.3,59.94197616792467,
156.0,159.75,14,0.75,Stimuli/P016/sun_bpvmkbyglkraoxhh.jpg,1,2,2.75,0,70,70,70,,,,,,,,,,,,,156.0029399999985,0.002939999998488929,1,197.56658629999947,197.56658629999947,197.56658629999947,197.56658629999947,197.56658629999947,197.56658629999947,199.5349911000012,200.2856553999991,197.56658629999947,197.56658629999947,2.542049499999848,002,P016,2025_Mar_07_1342,ConditionRich,2021.2.3,59.94197616792467,
159.75,160.0,41,0.0,Stimuli/Blank.png,0,0,0.0,0,71,71,71,,,,,,,,,,,,,159.77289290000044,0.02289290000044275,None,201.3199738000003,201.3199738000003,201.3199738000003,201.3199738000003,201.3199738000003,201.3199738000003,201.3199738000003,201.3199738000003,201.3199738000003,201.3199738000003,,002,P016,2025_Mar_07_1342,ConditionRich,2021.2.3,59.94197616792467,
160.0,163.75,15,0.75,Stimuli/P016/sun_bvfcijehgdsndfbg.jpg,0,0,0.0,0,72,72,72,,,,,,,,,,,,,160.00650379999934,0.006503799999336479,None,201.55344519999926,201.55344519999926,201.55344519999926,201.55344519999926,201.55344519999926,201.55344519999926,201.55344519999926,201.55344519999926,201.55344519999926,201.55344519999926,,002,P016,2025_Mar_07_1342,ConditionRich,2021.2.3,59.94197616792467,
163.75,164.0,41,0.0,Stimuli/Blank.png,0,0,0.0,0,73,73,73,,,,,,,,,,,,,163.76002739999967,0.010027399999671616,None,205.30677020000076,205.30677020000076,205.30677020000076,205.30677020000076,205.30677020000076,205.30677020000076,205.30677020000076,205.30677020000076,205.30677020000076,205.30677020000076,,002,P016,2025_Mar_07_1342,ConditionRich,2021.2.3,59.94197616792467,
164.0,167.75,21,0.75,Stimuli/P016/things_arch_08s.jpg,0,0,0.0,0,74,74,74,,,,,,,,,,,,,164.009833600001,0.009833600001002196,None,205.55698499999926,205.55698499999926,205.55698499999926,205.55698499999926,205.55698499999926,205.55698499999926,205.55698499999926,205.55698499999926,205.55698499999926,205.55698499999926,,002,P016,2025_Mar_07_1342,ConditionRich,2021.2.3,59.94197616792467,
167.75,168.0,41,0.0,Stimuli/Blank.png,0,0,0.0,0,75,75,75,,,,,,,,,,,,,167.763552299999,0.013552299998991657,None,209.31031580000126,209.31031580000126,209.31031580000126,209.31031580000126,209.31031580000126,209.31031580000126,209.31031580000126,209.31031580000126,209.31031580000126,209.31031580000126,,002,P016,2025_Mar_07_1342,ConditionRich,2021.2.3,59.94197616792467,
168.0,171.75,8,0.75,Stimuli/P016/sun_arldxotvfucvuudk.jpg,0,0,0.0,0,76,76,76,,,,,,,,,,,,,168.0140094999988,0.014009499998792307,None,209.56052959999943,209.56052959999943,209.56052959999943,209.56052959999943,209.56052959999943,209.56052959999943,209.56052959999943,209.56052959999943,209.56052959999943,209.56052959999943,,002,P016,2025_Mar_07_1342,ConditionRich,2021.2.3,59.94197616792467,
171.75,172.0,41,0.0,Stimuli/Blank.png,0,0,0.0,0,77,77,77,,,,,,,,,,,,,171.74961360000088,-0.00038639999911538325,None,213.29716310000003,213.29716310000003,213.29716310000003,213.29716310000003,213.29716310000003,213.29716310000003,213.29716310000003,213.29716310000003,213.29716310000003,213.29716310000003,,002,P016,2025_Mar_07_1342,ConditionRich,2021.2.3,59.94197616792467,
172.0,175.75,2,0.75,Stimuli/P016/sun_agzfkftryitnqpxc.jpg,0,0,0.0,0,78,78,78,,,,,,,,,,,,,172.00111399999878,0.001113999998779036,None,213.5641441000007,213.5641441000007,213.5641441000007,213.5641441000007,213.5641441000007,213.5641441000007,213.5641441000007,213.5641441000007,213.5641441000007,213.5641441000007,,002,P016,2025_Mar_07_1342,ConditionRich,2021.2.3,59.94197616792467,
175.75,176.0,41,0.0,Stimuli/Blank.png,0,0,0.0,0,79,79,79,,,,,,,,,,,,,175.77100090000022,0.02100090000021737,None,217.31738849999965,217.31738849999965,217.31738849999965,217.31738849999965,217.31738849999965,217.31738849999965,217.31738849999965,217.31738849999965,217.31738849999965,217.31738849999965,,002,P016,2025_Mar_07_1342,ConditionRich,2021.2.3,59.94197616792467,
176.0,179.75,33,0.75,Stimuli/P016/things_raccoon_08n.jpg,1,2,2.75,0,80,80,80,,,,,,,,,,,,,176.00733720000062,0.007337200000620214,1,217.56764269999985,217.56764269999985,217.56764269999985,217.56764269999985,217.56764269999985,217.56764269999985,219.55272719999994,220.30345529999977,217.56764269999985,217.56764269999985,2.460046100000909,002,P016,2025_Mar_07_1342,ConditionRich,2021.2.3,59.94197616792467,
179.75,180.0,41,0.0,Stimuli/Blank.png,0,0,0.0,0,81,81,81,,,,,,,,,,,,,179.77669859999878,0.026698599998780992,None,221.33761439999944,221.33761439999944,221.33761439999944,221.33761439999944,221.33761439999944,221.33761439999944,221.33761439999944,221.33761439999944,221.33761439999944,221.33761439999944,,002,P016,2025_Mar_07_1342,ConditionRich,2021.2.3,59.94197616792467,
180.0,196.0,0,0.0,Stimuli/Blank.png,1,5,5.75,0,82,82,82,,,,,,,,,,,,,180.0247507999993,0.024750799999310402,1,221.57114340000044,221.57114340000044,221.57114340000044,221.57114340000044,221.57114340000044,221.57114340000044,226.55888140000025,227.30962920000093,221.57114340000044,221.57114340000044,5.568505600000208,002,P016,2025_Mar_07_1342,ConditionRich,2021.2.3,59.94197616792467,
196.0,199.75,11,0.75,Stimuli/P016/sun_bnwmcjuinqbdsbho.jpg,0,0,0.0,0,83,83,83,,,,,,,,,,,,,196.0052422000008,0.005242200000793673,None,237.55196330000035,237.55196330000035,237.55196330000035,237.55196330000035,237.55196330000035,237.55196330000035,237.55196330000035,237.55196330000035,237.55196330000035,237.55196330000035,,002,P016,2025_Mar_07_1342,ConditionRich,2021.2.3,59.94197616792467,
199.75,200.0,41,0.0,Stimuli/Blank.png,0,0,0.0,0,84,84,84,,,,,,,,,,,,,199.76120609999998,0.011206099999981234,None,241.32194779999918,241.32194779999918,241.32194779999918,241.32194779999918,241.32194779999918,241.32194779999918,241.32194779999918,241.32194779999918,241.32194779999918,241.32194779999918,,002,P016,2025_Mar_07_1342,ConditionRich,2021.2.3,59.94197616792467,
200.0,203.75,8,0.75,Stimuli/P016/sun_arldxotvfucvuudk.jpg,0,0,0.0,0,85,85,85,,,,,,,,,,,,,200.02705330000026,0.027053300000261515,None,241.5888382000012,241.5888382000012,241.5888382000012,241.5888382000012,241.5888382000012,241.5888382000012,241.5888382000012,241.5888382000012,241.5888382000012,241.5888382000012,,002,P016,2025_Mar_07_1342,ConditionRich,2021.2.3,59.94197616792467,
203.75,204.0,41,0.0,Stimuli/Blank.png,0,0,0.0,0,86,86,86,,,,,,,,,,,,,203.77808110000115,0.028081100001145387,None,245.32554589999927,245.32554589999927,245.32554589999927,245.32554589999927,245.32554589999927,245.32554589999927,245.32554589999927,245.32554589999927,245.32554589999927,245.32554589999927,,002,P016,2025_Mar_07_1342,ConditionRich,2021.2.3,59.94197616792467,
204.0,207.75,17,0.75,Stimuli/P016/sun_bxhbltvqnpaciuzt.jpg,0,0,0.0,0,87,87,87,,,,,,,,,,,,,204.0124360000009,0.01243600000088918,None,245.55902530000094,245.55902530000094,245.55902530000094,245.55902530000094,245.55902530000094,245.55902530000094,245.55902530000094,245.55902530000094,245.55902530000094,245.55902530000094,,002,P016,2025_Mar_07_1342,ConditionRich,2021.2.3,59.94197616792467,
207.75,208.0,41,0.0,Stimuli/Blank.png,0,0,0.0,0,88,88,88,,,,,,,,,,,,,207.74819080000088,-0.0018091999991156626,None,249.29565600000205,249.29565600000205,249.29565600000205,249.29565600000205,249.29565600000205,249.29565600000205,249.29565600000205,249.29565600000205,249.29565600000205,249.29565600000205,,002,P016,2025_Mar_07_1342,ConditionRich,2021.2.3,59.94197616792467,
208.0,211.75,5,0.75,Stimuli/P016/sun_ajgmxbrxdpmsaext.jpg,0,0,0.0,0,89,89,89,,,,,,,,,,,,,208.015105399998,0.015105399997992208,None,249.56255410000085,249.56255410000085,249.56255410000085,249.56255410000085,249.56255410000085,249.56255410000085,249.56255410000085,249.56255410000085,249.56255410000085,249.56255410000085,,002,P016,2025_Mar_07_1342,ConditionRich,2021.2.3,59.94197616792467,
211.75,212.0,41,0.0,Stimuli/Blank.png,0,0,0.0,0,90,90,90,,,,,,,,,,,,,211.752304499998,0.002304499997990206,None,253.29919860000155,253.29919860000155,253.29919860000155,253.29919860000155,253.29919860000155,253.29919860000155,253.29919860000155,253.29919860000155,253.29919860000155,253.29919860000155,,002,P016,2025_Mar_07_1342,ConditionRich,2021.2.3,59.94197616792467,
212.0,215.75,25,0.75,Stimuli/P016/things_deer_08s.jpg,0,0,0.0,0,91,91,91,,,,,,,,,,,,,212.00196119999964,0.0019611999996413942,None,253.54940910000005,253.54940910000005,253.54940910000005,253.54940910000005,253.54940910000005,253.54940910000005,253.54940910000005,253.54940910000005,253.54940910000005,253.54940910000005,,002,P016,2025_Mar_07_1342,ConditionRich,2021.2.3,59.94197616792467,
215.75,216.0,41,0.0,Stimuli/Blank.png,0,0,0.0,0,92,92,92,,,,,,,,,,,,,215.75622310000108,0.006223100001079729,None,257.30274420000205,257.30274420000205,257.30274420000205,257.30274420000205,257.30274420000205,257.30274420000205,257.30274420000205,257.30274420000205,257.30274420000205,257.30274420000205,,002,P016,2025_Mar_07_1342,ConditionRich,2021.2.3,59.94197616792467,
216.0,219.75,16,0.75,Stimuli/P016/sun_bwhuwxazfqwuqhik.jpg,0,0,0.0,0,93,93,93,,,,,,,,,,,,,216.00698779999948,0.006987799999478739,None,257.5696452000011,257.5696452000011,257.5696452000011,257.5696452000011,257.5696452000011,257.5696452000011,257.5696452000011,257.5696452000011,257.5696452000011,257.5696452000011,,002,P016,2025_Mar_07_1342,ConditionRich,2021.2.3,59.94197616792467,
219.75,220.0,41,0.0,Stimuli/Blank.png,0,0,0.0,0,94,94,94,,,,,,,,,,,,,219.77639319999798,0.026393199997983174,None,261.3229659999997,261.3229659999997,261.3229659999997,261.3229659999997,261.3229659999997,261.3229659999997,261.3229659999997,261.3229659999997,261.3229659999997,261.3229659999997,,002,P016,2025_Mar_07_1342,ConditionRich,2021.2.3,59.94197616792467,
220.0,223.75,2,0.75,Stimuli/P016/sun_agzfkftryitnqpxc.jpg,0,0,0.0,0,95,95,95,,,,,,,,,,,,,220.0102024000007,0.010202400000707712,None,261.5731861999993,261.5731861999993,261.5731861999993,261.5731861999993,261.5731861999993,261.5731861999993,261.5731861999993,261.5731861999993,261.5731861999993,261.5731861999993,,002,P016,2025_Mar_07_1342,ConditionRich,2021.2.3,59.94197616792467,
223.75,224.0,41,0.0,Stimuli/Blank.png,0,0,0.0,0,96,96,96,,,,,,,,,,,,,223.77913700000136,0.029137000001355773,None,265.32651650000116,265.32651650000116,265.32651650000116,265.32651650000116,265.32651650000116,265.32651650000116,265.32651650000116,265.32651650000116,265.32651650000116,265.32651650000116,,002,P016,2025_Mar_07_1342,ConditionRich,2021.2.3,59.94197616792467,
224.0,227.75,12,0.75,Stimuli/P016/sun_boffixsnbbloarty.jpg,0,0,0.0,0,97,97,97,,,,,,,,,,,,,224.01256659999854,0.012566599998535821,None,265.5767255999999,265.5767255999999,265.5767255999999,265.5767255999999,265.5767255999999,265.5767255999999,265.5767255999999,265.5767255999999,265.5767255999999,265.5767255999999,,002,P016,2025_Mar_07_1342,ConditionRich,2021.2.3,59.94197616792467,
227.75,228.0,41,0.0,Stimuli/Blank.png,0,0,0.0,0,98,98,98,,,,,,,,,,,,,227.76651049999782,0.01651049999782117,None,269.31334770000103,269.31334770000103,269.31334770000103,269.31334770000103,269.31334770000103,269.31334770000103,269.31334770000103,269.31334770000103,269.31334770000103,269.31334770000103,,002,P016,2025_Mar_07_1342,ConditionRich,2021.2.3,59.94197616792467,
228.0,231.75,26,0.75,Stimuli/P016/things_face_08s.jpg,1,0,0.75,0,99,99,99,,,,,,,,,,,,,228.00069330000042,0.0006933000004210044,1,269.5635910000019,269.5635910000019,269.5635910000019,269.5635910000019,269.5635910000019,269.5635910000019,269.5635910000019,270.2808929000021,269.5635910000019,269.5635910000019,0.5200755999976536,002,P016,2025_Mar_07_1342,ConditionRich,2021.2.3,59.94197616792467,
231.75,232.0,41,0.0,Stimuli/Blank.png,0,0,0.0,0,100,100,100,,,,,,,,,,,,,231.76959609999903,0.019596099999034777,None,273.31686700000137,273.31686700000137,273.31686700000137,273.31686700000137,273.31686700000137,273.31686700000137,273.31686700000137,273.31686700000137,273.31686700000137,273.31686700000137,,002,P016,2025_Mar_07_1342,ConditionRich,2021.2.3,59.94197616792467,
232.0,235.75,19,0.75,Stimuli/P016/sun_bzhwvgrzvttqoexa.jpg,0,0,0.0,0,101,101,101,,,,,,,,,,,,,232.00560620000033,0.005606200000329409,None,273.56707370000004,273.56707370000004,273.56707370000004,273.56707370000004,273.56707370000004,273.56707370000004,273.56707370000004,273.56707370000004,273.56707370000004,273.56707370000004,,002,P016,2025_Mar_07_1342,ConditionRich,2021.2.3,59.94197616792467,
235.75,236.0,41,0.0,Stimuli/Blank.png,0,0,0.0,0,102,102,102,,,,,,,,,,,,,235.77540500000032,0.025405000000318978,None,277.3371335000011,277.3371335000011,277.3371335000011,277.3371335000011,277.3371335000011,277.3371335000011,277.3371335000011,277.3371335000011,277.3371335000011,277.3371335000011,,002,P016,2025_Mar_07_1342,ConditionRich,2021.2.3,59.94197616792467,
236.0,239.75,27,0.75,Stimuli/P016/things_girl_08s.jpg,0,0,0.0,0,103,103,103,,,,,,,,,,,,,236.0239901999994,0.023990199999389006,None,277.57064629999877,277.57064629999877,277.57064629999877,277.57064629999877,277.57064629999877,277.57064629999877,277.57064629999877,277.57064629999877,277.57064629999877,277.57064629999877,,002,P016,2025_Mar_07_1342,ConditionRich,2021.2.3,59.94197616792467,
239.75,240.0,41,0.0,Stimuli/Blank.png,0,0,0.0,0,104,104,104,,,,,,,,,,,,,239.76076610000018,0.010766100000182632,None,281.3072987000014,281.3072987000014,281.3072987000014,281.3072987000014,281.3072987000014,281.3072987000014,281.3072987000014,281.3072987000014,281.3072987000014,281.3072987000014,,002,P016,2025_Mar_07_1342,ConditionRich,2021.2.3,59.94197616792467,
240.0,243.75,35,0.75,Stimuli/P016/things_squid_08s.jpg,0,0,0.0,0,105,105,105,,,,,,,,,,,,,240.01092280000012,0.010922800000116695,None,281.557504299999,281.557504299999,281.557504299999,281.557504299999,281.557504299999,281.557504299999,281.557504299999,281.557504299999,281.557504299999,281.557504299999,,002,P016,2025_Mar_07_1342,ConditionRich,2021.2.3,59.94197616792467,
243.75,244.0,41,0.0,Stimuli/Blank.png,0,0,0.0,0,106,106,106,,,,,,,,,,,,,243.76495419999992,0.014954199999920093,None,285.31083529999887,285.31083529999887,285.31083529999887,285.31083529999887,285.31083529999887,285.31083529999887,285.31083529999887,285.31083529999887,285.31083529999887,285.31083529999887,,002,P016,2025_Mar_07_1342,ConditionRich,2021.2.3,59.94197616792467,
244.0,247.75,23,0.75,Stimuli/P016/things_boy_08s.jpg,0,0,0.0,0,107,107,107,,,,,,,,,,,,,244.01349860000118,0.013498600001184968,None,285.5610259999994,285.5610259999994,285.5610259999994,285.5610259999994,285.5610259999994,285.5610259999994,285.5610259999994,285.5610259999994,285.5610259999994,285.5610259999994,,002,P016,2025_Mar_07_1342,ConditionRich,2021.2.3,59.94197616792467,
247.75,248.0,41,0.0,Stimuli/Blank.png,0,0,0.0,0,108,108,108,,,,,,,,,,,,,247.75019099999918,0.00019099999917671084,None,289.29767379999976,289.29767379999976,289.29767379999976,289.29767379999976,289.29767379999976,289.29767379999976,289.29767379999976,289.29767379999976,289.29767379999976,289.29767379999976,,002,P016,2025_Mar_07_1342,ConditionRich,2021.2.3,59.94197616792467,
248.0,251.75,1,0.75,Stimuli/P016/sun_aacpzgqrortyhyss.jpg,1,0,0.75,0,109,109,109,,,,,,,,,,,,,248.00114459999895,0.0011445999989518896,1,289.56462069999907,289.56462069999907,289.56462069999907,289.56462069999907,289.56462069999907,289.56462069999907,289.56462069999907,290.28188560000126,289.56462069999907,289.56462069999907,0.594205299999885,002,P016,2025_Mar_07_1342,ConditionRich,2021.2.3,59.94197616792467,
251.75,252.0,41,0.0,Stimuli/Blank.png,0,0,0.0,0,110,110,110,,,,,,,,,,,,,251.77116549999846,0.02116549999846029,None,293.3179052000014,293.3179052000014,293.3179052000014,293.3179052000014,293.3179052000014,293.3179052000014,293.3179052000014,293.3179052000014,293.3179052000014,293.3179052000014,,002,P016,2025_Mar_07_1342,ConditionRich,2021.2.3,59.94197616792467,
252.0,255.75,38,0.75,Stimuli/P016/things_trumpet_08s.jpg,0,0,0.0,0,111,111,111,,,,,,,,,,,,,252.00496589999966,0.0049658999996609055,None,293.5514393000012,293.5514393000012,293.5514393000012,293.5514393000012,293.5514393000012,293.5514393000012,293.5514393000012,293.5514393000012,293.5514393000012,293.5514393000012,,002,P016,2025_Mar_07_1342,ConditionRich,2021.2.3,59.94197616792467,
255.75,256.0,41,0.0,Stimuli/Blank.png,0,0,0.0,0,112,112,112,,,,,,,,,,,,,255.75743839999996,0.007438399999955436,None,297.3047528999996,297.3047528999996,297.3047528999996,297.3047528999996,297.3047528999996,297.3047528999996,297.3047528999996,297.3047528999996,297.3047528999996,297.3047528999996,,002,P016,2025_Mar_07_1342,ConditionRich,2021.2.3,59.94197616792467,
256.0,259.75,9,0.75,Stimuli/P016/sun_bbdgftzhpkaklkll.jpg,0,0,0.0,0,113,113,113,,,,,,,,,,,,,256.00829069999963,0.008290699999633944,None,297.5716618000006,297.5716618000006,297.5716618000006,297.5716618000006,297.5716618000006,297.5716618000006,297.5716618000006,297.5716618000006,297.5716618000006,297.5716618000006,,002,P016,2025_Mar_07_1342,ConditionRich,2021.2.3,59.94197616792467,
259.75,260.0,41,0.0,Stimuli/Blank.png,0,0,0.0,0,114,114,114,,,,,,,,,,,,,259.7801345000007,0.03013450000071316,None,301.34167119999984,301.34167119999984,301.34167119999984,301.34167119999984,301.34167119999984,301.34167119999984,301.34167119999984,301.34167119999984,301.34167119999984,301.34167119999984,,002,P016,2025_Mar_07_1342,ConditionRich,2021.2.3,59.94197616792467,
260.0,263.75,30,0.75,Stimuli/P016/things_ottoman_08s.jpg,1,0,0.75,0,115,115,115,,,,,,,,,,,,,260.0294283000003,0.02942830000029062,None,301.5918849000009,301.5918849000009,301.5918849000009,301.5918849000009,301.5918849000009,301.5918849000009,301.5918849000009,302.3092159000007,301.5918849000009,301.5918849000009,,002,P016,2025_Mar_07_1342,ConditionRich,2021.2.3,59.94197616792467,
263.75,264.0,41,0.0,Stimuli/Blank.png,0,0,0.0,0,116,116,116,,,,,,,,,,,,,263.7644634999997,0.01446349999969243,None,305.31195180000213,305.31195180000213,305.31195180000213,305.31195180000213,305.31195180000213,305.31195180000213,305.31195180000213,305.31195180000213,305.31195180000213,305.31195180000213,,002,P016,2025_Mar_07_1342,ConditionRich,2021.2.3,59.94197616792467,
264.0,267.75,7,0.75,Stimuli/P016/sun_aqdfrmtvewaapuqs.jpg,0,0,0.0,0,117,117,117,,,,,,,,,,,,,264.015742399999,0.015742399998998735,None,305.5787734000005,305.5787734000005,305.5787734000005,305.5787734000005,305.5787734000005,305.5787734000005,305.5787734000005,305.5787734000005,305.5787734000005,305.5787734000005,,002,P016,2025_Mar_07_1342,ConditionRich,2021.2.3,59.94197616792467,
267.75,268.0,41,0.0,Stimuli/Blank.png,0,0,0.0,0,118,118,118,,,,,,,,,,,,,267.7682715999981,0.018271599998115562,None,309.3153891000002,309.3153891000002,309.3153891000002,309.3153891000002,309.3153891000002,309.3153891000002,309.3153891000002,309.3153891000002,309.3153891000002,309.3153891000002,,002,P016,2025_Mar_07_1342,ConditionRich,2021.2.3,59.94197616792467,
268.0,271.75,21,0.75,Stimuli/P016/things_arch_08s.jpg,1,2,2.75,0,119,119,119,,,,,,,,,,,,,268.0025934000005,0.002593400000478141,1,309.5656143999986,309.5656143999986,309.5656143999986,309.5656143999986,309.5656143999986,309.5656143999986,311.55065430000104,312.284706800001,309.5656143999986,309.5656143999986,2.449994100003096,002,P016,2025_Mar_07_1342,ConditionRich,2021.2.3,59.94197616792467,
271.75,272.0,41,0.0,Stimuli/Blank.png,0,0,0.0,0,120,120,120,,,,,,,,,,,,,271.7717913999986,0.021791399998619454,None,313.31891819999873,313.31891819999873,313.31891819999873,313.31891819999873,313.31891819999873,313.31891819999873,313.31891819999873,313.31891819999873,313.31891819999873,313.31891819999873,,002,P016,2025_Mar_07_1342,ConditionRich,2021.2.3,59.94197616792467,
272.0,275.75,14,0.75,Stimuli/P016/sun_bpvmkbyglkraoxhh.jpg,0,0,0.0,0,121,121,121,,,,,,,,,,,,,272.0057835999978,0.005783599997812416,None,313.56918320000113,313.56918320000113,313.56918320000113,313.56918320000113,313.56918320000113,313.56918320000113,313.56918320000113,313.56918320000113,313.56918320000113,313.56918320000113,,002,P016,2025_Mar_07_1342,ConditionRich,2021.2.3,59.94197616792467,
275.75,276.0,41,0.0,Stimuli/Blank.png,0,0,0.0,0,122,122,122,,,,,,,,,,,,,275.7757167999989,0.02571679999891785,None,317.32248230000187,317.32248230000187,317.32248230000187,317.32248230000187,317.32248230000187,317.32248230000187,317.32248230000187,317.32248230000187,317.32248230000187,317.32248230000187,,002,P016,2025_Mar_07_1342,ConditionRich,2021.2.3,59.94197616792467,
276.0,292.0,0,0.0,Stimuli/Blank.png,1,9,9.75,0,123,123,123,,,,,,,,,,,,,276.01145299999916,0.011452999999164604,1,317.5726864999997,317.5726864999997,317.5726864999997,317.5726864999997,317.5726864999997,317.5726864999997,326.54730779999954,327.2979435999987,317.5726864999997,317.5726864999997,9.382288500000868,002,P016,2025_Mar_07_1342,ConditionRich,2021.2.3,59.94197616792467,
292.0,295.75,20,0.75,Stimuli/P016/sun_bzmxulijbnmshodq.jpg,0,0,0.0,0,124,124,124,,,,,,,,,,,,,292.02275590000136,0.022755900001357077,None,333.57018230000176,333.57018230000176,333.57018230000176,333.57018230000176,333.57018230000176,333.57018230000176,333.57018230000176,333.57018230000176,333.57018230000176,333.57018230000176,,002,P016,2025_Mar_07_1342,ConditionRich,2021.2.3,59.94197616792467,
295.75,296.0,41,0.0,Stimuli/Blank.png,0,0,0.0,0,125,125,125,,,,,,,,,,,,,295.7613844000007,0.011384400000679307,None,337.32351330000165,337.32351330000165,337.32351330000165,337.32351330000165,337.32351330000165,337.32351330000165,337.32351330000165,337.32351330000165,337.32351330000165,337.32351330000165,,002,P016,2025_Mar_07_1342,ConditionRich,2021.2.3,59.94197616792467,
296.0,299.75,4,0.75,Stimuli/P016/sun_aiwuqxdqzftsfyeg.jpg,0,0,0.0,0,126,126,126,,,,,,,,,,,,,296.0262409999996,0.026240999999572523,None,337.5736738000014,337.5736738000014,337.5736738000014,337.5736738000014,337.5736738000014,337.5736738000014,337.5736738000014,337.5736738000014,337.5736738000014,337.5736738000014,,002,P016,2025_Mar_07_1342,ConditionRich,2021.2.3,59.94197616792467,
299.75,300.0,41,0.0,Stimuli/Blank.png,0,0,0.0,0,127,127,127,,,,,,,,,,,,,299.76279480000085,0.012794800000847317,None,341.3107622999996,341.3107622999996,341.3107622999996,341.3107622999996,341.3107622999996,341.3107622999996,341.3107622999996,341.3107622999996,341.3107622999996,341.3107622999996,,002,P016,2025_Mar_07_1342,ConditionRich,2021.2.3,59.94197616792467,
300.0,303.75,10,0.75,Stimuli/P016/sun_bfojpvrlsrtfyzio.jpg,0,0,0.0,0,128,128,128,,,,,,,,,,,,,300.0155507999989,0.015550799998891307,None,341.5773411000009,341.5773411000009,341.5773411000009,341.5773411000009,341.5773411000009,341.5773411000009,341.5773411000009,341.5773411000009,341.5773411000009,341.5773411000009,,002,P016,2025_Mar_07_1342,ConditionRich,2021.2.3,59.94197616792467,
303.75,304.0,41,0.0,Stimuli/Blank.png,0,0,0.0,0,129,129,129,,,,,,,,,,,,,303.7671889000012,0.017188900001201546,None,345.3138652000016,345.3138652000016,345.3138652000016,345.3138652000016,345.3138652000016,345.3138652000016,345.3138652000016,345.3138652000016,345.3138652000016,345.3138652000016,,002,P016,2025_Mar_07_1342,ConditionRich,2021.2.3,59.94197616792467,
304.0,307.75,33,0.75,Stimuli/P016/things_raccoon_08n.jpg,0,0,0.0,0,130,130,130,,,,,,,,,,,,,304.002145800001,0.002145800001017051,None,345.5640901000006,345.5640901000006,345.5640901000006,345.5640901000006,345.5640901000006,345.5640901000006,345.5640901000006,345.5640901000006,345.5640901000006,345.5640901000006,,002,P016,2025_Mar_07_1342,ConditionRich,2021.2.3,59.94197616792467,
307.75,308.0,41,0.0,Stimuli/Blank.png,0,0,0.0,0,131,131,131,,,,,,,,,,,,,307.77117799999905,0.02117799999905401,None,349.3174082000005,349.3174082000005,349.3174082000005,349.3174082000005,349.3174082000005,349.3174082000005,349.3174082000005,349.3174082000005,349.3174082000005,349.3174082000005,,002,P016,2025_Mar_07_1342,ConditionRich,2021.2.3,59.94197616792467,
308.0,311.75,40,0.75,Stimuli/P016/things_woman_08s.jpg,1,2,2.75,0,132,132,132,,,,,,,,,,,,,308.00563630000033,0.005636300000332994,1,349.5676363999992,349.5676363999992,349.5676363999992,349.5676363999992,349.5676363999992,349.5676363999992,351.5527250000014,352.30338539999866,349.5676363999992,349.5676363999992,2.654069399999571,002,P016,2025_Mar_07_1342,ConditionRich,2021.2.3,59.94197616792467,
311.75,312.0,41,0.0,Stimuli/Blank.png,0,0,0.0,0,133,133,133,,,,,,,,,,,,,311.7767243999988,0.026724399998784065,None,353.3376351000006,353.3376351000006,353.3376351000006,353.3376351000006,353.3376351000006,353.3376351000006,353.3376351000006,353.3376351000006,353.3376351000006,353.3376351000006,,002,P016,2025_Mar_07_1342,ConditionRich,2021.2.3,59.94197616792467,
312.0,315.75,32,0.75,Stimuli/P016/things_pheasant_08s.jpg,0,0,0.0,0,134,134,134,,,,,,,,,,,,,312.0263515000006,0.026351500000600936,None,353.58785310000167,353.58785310000167,353.58785310000167,353.58785310000167,353.58785310000167,353.58785310000167,353.58785310000167,353.58785310000167,353.58785310000167,353.58785310000167,,002,P016,2025_Mar_07_1342,ConditionRich,2021.2.3,59.94197616792467,
315.75,316.0,41,0.0,Stimuli/Blank.png,0,0,0.0,0,135,135,135,,,,,,,,,,,,,315.77704729999823,0.0270472999982303,None,357.32448360000126,357.32448360000126,357.32448360000126,357.32448360000126,357.32448360000126,357.32448360000126,357.32448360000126,357.32448360000126,357.32448360000126,357.32448360000126,,002,P016,2025_Mar_07_1342,ConditionRich,2021.2.3,59.94197616792467,
316.0,319.75,15,0.75,Stimuli/P016/sun_bvfcijehgdsndfbg.jpg,1,1,1.75,0,136,136,136,,,,,,,,,,,,,316.0121646999978,0.012164699997811113,1,357.5747130999989,357.5747130999989,357.5747130999989,357.5747130999989,357.5747130999989,357.5747130999989,358.54222899999877,359.29290480000054,357.5747130999989,357.5747130999989,1.7010163000013563,002,P016,2025_Mar_07_1342,ConditionRich,2021.2.3,59.94197616792467,
319.75,320.0,41,0.0,Stimuli/Blank.png,0,0,0.0,0,137,137,137,,,,,,,,,,,,,319.78153179999936,0.031531799999356735,None,361.32802470000024,361.32802470000024,361.32802470000024,361.32802470000024,361.32802470000024,361.32802470000024,361.32802470000024,361.32802470000024,361.32802470000024,361.32802470000024,,002,P016,2025_Mar_07_1342,ConditionRich,2021.2.3,59.94197616792467,
320.0,323.75,3,0.75,Stimuli/P016/sun_aiogwnavezqxkzfg.jpg,0,0,0.0,0,138,138,138,,,,,,,,,,,,,320.01492620000136,0.014926200001355028,None,361.5782500999994,361.5782500999994,361.5782500999994,361.5782500999994,361.5782500999994,361.5782500999994,361.5782500999994,361.5782500999994,361.5782500999994,361.5782500999994,,002,P016,2025_Mar_07_1342,ConditionRich,2021.2.3,59.94197616792467,
323.75,324.0,41,0.0,Stimuli/Blank.png,0,0,0.0,0,139,139,139,,,,,,,,,,,,,323.7703658999999,0.020365899999887915,None,365.33158360000016,365.33158360000016,365.33158360000016,365.33158360000016,365.33158360000016,365.33158360000016,365.33158360000016,365.33158360000016,365.33158360000016,365.33158360000016,,002,P016,2025_Mar_07_1342,ConditionRich,2021.2.3,59.94197616792467,
324.0,327.75,24,0.75,Stimuli/P016/things_bunkbed_08s.jpg,0,0,0.0,0,140,140,140,,,,,,,,,,,,,324.0186305999996,0.018630599999596598,None,365.5817926000018,365.5817926000018,365.5817926000018,365.5817926000018,365.5817926000018,365.5817926000018,365.5817926000018,365.5817926000018,365.5817926000018,365.5817926000018,,002,P016,2025_Mar_07_1342,ConditionRich,2021.2.3,59.94197616792467,
327.75,328.0,41,0.0,Stimuli/Blank.png,0,0,0.0,0,141,141,141,,,,,,,,,,,,,327.7711959999979,0.021195999997871695,None,369.31842340000003,369.31842340000003,369.31842340000003,369.31842340000003,369.31842340000003,369.31842340000003,369.31842340000003,369.31842340000003,369.31842340000003,369.31842340000003,,002,P016,2025_Mar_07_1342,ConditionRich,2021.2.3,59.94197616792467,
328.0,331.75,28,0.75,Stimuli/P016/things_latte_08s.jpg,0,0,0.0,0,142,142,142,,,,,,,,,,,,,328.00453130000096,0.004531300000962801,None,369.55196179999984,369.55196179999984,369.55196179999984,369.55196179999984,369.55196179999984,369.55196179999984,369.55196179999984,369.55196179999984,369.55196179999984,369.55196179999984,,002,P016,2025_Mar_07_1342,ConditionRich,2021.2.3,59.94197616792467,
331.75,332.0,41,0.0,Stimuli/Blank.png,0,0,0.0,0,143,143,143,,,,,,,,,,,,,331.76034359999903,0.010343599999032449,None,373.3219762000008,373.3219762000008,373.3219762000008,373.3219762000008,373.3219762000008,373.3219762000008,373.3219762000008,373.3219762000008,373.3219762000008,373.3219762000008,,002,P016,2025_Mar_07_1342,ConditionRich,2021.2.3,59.94197616792467,
332.0,335.75,29,0.75,Stimuli/P016/things_mouse1_08s.jpg,0,0,0.0,0,144,144,144,,,,,,,,,,,,,332.0257789999996,0.025778999999602092,None,373.58888260000094,373.58888260000094,373.58888260000094,373.58888260000094,373.58888260000094,373.58888260000094,373.58888260000094,373.58888260000094,373.58888260000094,373.58888260000094,,002,P016,2025_Mar_07_1342,ConditionRich,2021.2.3,59.94197616792467,
335.75,336.0,41,0.0,Stimuli/Blank.png,0,0,0.0,0,145,145,145,,,,,,,,,,,,,335.7804533999988,0.030453399998805253,None,377.342199900002,377.342199900002,377.342199900002,377.342199900002,377.342199900002,377.342199900002,377.342199900002,377.342199900002,377.342199900002,377.342199900002,,002,P016,2025_Mar_07_1342,ConditionRich,2021.2.3,59.94197616792467,
336.0,339.75,6,0.75,Stimuli/P016/sun_akecfasimgpbqcnt.jpg,0,0,0.0,0,146,146,146,,,,,,,,,,,,,336.0295652999994,0.029565299999376293,1,377.5924656999996,377.5924656999996,377.5924656999996,377.5924656999996,377.5924656999996,377.5924656999996,377.5924656999996,377.5924656999996,377.5924656999996,377.5924656999996,2.174196600000869,002,P016,2025_Mar_07_1342,ConditionRich,2021.2.3,59.94197616792467,
339.75,340.0,41,0.0,Stimuli/Blank.png,0,0,0.0,0,147,147,147,,,,,,,,,,,,,339.76512809999986,0.015128099999856204,None,381.3123495,381.3123495,381.3123495,381.3123495,381.3123495,381.3123495,381.3123495,381.3123495,381.3123495,381.3123495,,002,P016,2025_Mar_07_1342,ConditionRich,2021.2.3,59.94197616792467,
340.0,343.75,31,0.75,Stimuli/P016/things_outlet_08s.jpg,0,0,0.0,0,148,148,148,,,,,,,,,,,,,340.01583480000045,0.015834800000448013,None,381.5792629999996,381.5792629999996,381.5792629999996,381.5792629999996,381.5792629999996,381.5792629999996,381.5792629999996,381.5792629999996,381.5792629999996,381.5792629999996,,002,P016,2025_Mar_07_1342,ConditionRich,2021.2.3,59.94197616792467,
343.75,344.0,41,0.0,Stimuli/Blank.png,0,0,0.0,0,149,149,149,,,,,,,,,,,,,343.77046469999914,0.020464699999138247,None,385.3326006999996,385.3326006999996,385.3326006999996,385.3326006999996,385.3326006999996,385.3326006999996,385.3326006999996,385.3326006999996,385.3326006999996,385.3326006999996,,002,P016,2025_Mar_07_1342,ConditionRich,2021.2.3,59.94197616792467,
344.0,347.75,37,0.75,Stimuli/P016/things_swizzle_stick_08s.jpg,0,0,0.0,0,150,150,150,,,,,,,,,,,,,344.0213838999989,0.021383899998909328,None,385.5828017999993,385.5828017999993,385.5828017999993,385.5828017999993,385.5828017999993,385.5828017999993,385.5828017999993,385.5828017999993,385.5828017999993,385.5828017999993,,002,P016,2025_Mar_07_1342,ConditionRich,2021.2.3,59.94197616792467,
347.75,348.0,41,0.0,Stimuli/Blank.png,0,0,0.0,0,151,151,151,,,,,,,,,,,,,347.77257929999905,0.022579299999051727,None,389.31940889999896,389.31940889999896,389.31940889999896,389.31940889999896,389.31940889999896,389.31940889999896,389.31940889999896,389.31940889999896,389.31940889999896,389.31940889999896,,002,P016,2025_Mar_07_1342,ConditionRich,2021.2.3,59.94197616792467,
348.0,351.75,18,0.75,Stimuli/P016/sun_byavixgfuhzioilz.jpg,1,2,2.75,0,152,152,152,,,,,,,,,,,,,348.0059172000001,0.0059172000001126435,1,389.5696577000017,389.5696577000017,389.5696577000017,389.5696577000017,389.5696577000017,389.5696577000017,391.53805510000166,392.28876350000064,389.5696577000017,389.5696577000017,2.4822423000005074,002,P016,2025_Mar_07_1342,ConditionRich,2021.2.3,59.94197616792467,
351.75,352.0,41,0.0,Stimuli/Blank.png,0,0,0.0,0,153,153,153,,,,,,,,,,,,,351.7754969999987,0.025496999998722458,None,393.3229828000003,393.3229828000003,393.3229828000003,393.3229828000003,393.3229828000003,393.3229828000003,393.3229828000003,393.3229828000003,393.3229828000003,393.3229828000003,,002,P016,2025_Mar_07_1342,ConditionRich,2021.2.3,59.94197616792467,
352.0,355.75,13,0.75,Stimuli/P016/sun_bphvjnowixlryxot.jpg,1,2,2.75,0,154,154,154,,,,,,,,,,,,,352.0101509999986,0.010150999998586485,1,393.57323389999874,393.57323389999874,393.57323389999874,393.57323389999874,393.57323389999874,393.57323389999874,395.54161960000056,396.2922574000004,393.57323389999874,393.57323389999874,2.4224476999988838,002,P016,2025_Mar_07_1342,ConditionRich,2021.2.3,59.94197616792467,
355.75,356.0,41,0.0,Stimuli/Blank.png,0,0,0.0,0,155,155,155,,,,,,,,,,,,,355.7790832999999,0.029083299999911105,None,397.3265085000021,397.3265085000021,397.3265085000021,397.3265085000021,397.3265085000021,397.3265085000021,397.3265085000021,397.3265085000021,397.3265085000021,397.3265085000021,,002,P016,2025_Mar_07_1342,ConditionRich,2021.2.3,59.94197616792467,
356.0,359.75,36,0.75,Stimuli/P016/things_streetlight_08s.jpg,0,0,0.0,0,156,156,156,,,,,,,,,,,,,356.0127732000001,0.012773200000083307,None,397.56005300000106,397.56005300000106,397.56005300000106,397.56005300000106,397.56005300000106,397.56005300000106,397.56005300000106,397.56005300000106,397.56005300000106,397.56005300000106,,002,P016,2025_Mar_07_1342,ConditionRich,2021.2.3,59.94197616792467,
359.75,360.0,41,0.0,Stimuli/Blank.png,0,0,0.0,0,157,157,157,,,,,,,,,,,,,359.7502797999987,0.000279799998679664,None,401.2966899000021,401.2966899000021,401.2966899000021,401.2966899000021,401.2966899000021,401.2966899000021,401.2966899000021,401.2966899000021,401.2966899000021,401.2966899000021,,002,P016,2025_Mar_07_1342,ConditionRich,2021.2.3,59.94197616792467,
360.0,363.75,22,0.75,Stimuli/P016/things_baby_08s.jpg,0,0,0.0,0,158,158,158,,,,,,,,,,,,,360.00037370000064,0.00037370000063674524,None,401.5469085000004,401.5469085000004,401.5469085000004,401.5469085000004,401.5469085000004,401.5469085000004,401.5469085000004,401.5469085000004,401.5469085000004,401.5469085000004,,002,P016,2025_Mar_07_1342,ConditionRich,2021.2.3,59.94197616792467,
363.75,364.0,41,0.0,Stimuli/Blank.png,0,0,0.0,0,159,159,159,,,,,,,,,,,,,363.7535005999998,0.0035005999998247717,None,405.3002449000014,405.3002449000014,405.3002449000014,405.3002449000014,405.3002449000014,405.3002449000014,405.3002449000014,405.3002449000014,405.3002449000014,405.3002449000014,,002,P016,2025_Mar_07_1342,ConditionRich,2021.2.3,59.94197616792467,
364.0,367.75,34,0.75,Stimuli/P016/things_shower_cap_08s.jpg,0,0,0.0,0,160,160,160,,,,,,,,,,,,,364.00421749999805,0.004217499998048879,None,405.5504854999999,405.5504854999999,405.5504854999999,405.5504854999999,405.5504854999999,405.5504854999999,405.5504854999999,405.5504854999999,405.5504854999999,405.5504854999999,,002,P016,2025_Mar_07_1342,ConditionRich,2021.2.3,59.94197616792467,
367.75,368.0,41,0.0,Stimuli/Blank.png,0,0,0.0,0,161,161,161,,,,,,,,,,,,,367.7566536999984,0.00665369999842369,None,409.30376940000133,409.30376940000133,409.30376940000133,409.30376940000133,409.30376940000133,409.30376940000133,409.30376940000133,409.30376940000133,409.30376940000133,409.30376940000133,,002,P016,2025_Mar_07_1342,ConditionRich,2021.2.3,59.94197616792467,
368.0,371.75,39,0.75,Stimuli/P016/things_window_08s.jpg,0,0,0.0,0,162,162,162,,,,,,,,,,,,,368.00644100000136,0.006441000001359498,None,409.55398440000135,409.55398440000135,409.55398440000135,409.55398440000135,409.55398440000135,409.55398440000135,409.55398440000135,409.55398440000135,409.55398440000135,409.55398440000135,,002,P016,2025_Mar_07_1342,ConditionRich,2021.2.3,59.94197616792467,
371.75,372.0,41,0.0,Stimuli/Blank.png,0,0,0.0,0,163,163,163,,,,,,,,,,,,,371.75980379999964,0.00980379999964498,None,413.30731020000167,413.30731020000167,413.30731020000167,413.30731020000167,413.30731020000167,413.30731020000167,413.30731020000167,413.30731020000167,413.30731020000167,413.30731020000167,,002,P016,2025_Mar_07_1342,ConditionRich,2021.2.3,59.94197616792467,
372.0,388.0,0,0.0,Stimuli/Blank.png,1,3,3.75,0,164,164,164,,,,,,,,,,,,,372.0107528999979,0.010752899997896748,1,413.5575401999995,413.5575401999995,413.5575401999995,413.5575401999995,413.5575401999995,413.5575401999995,416.54354199999943,417.2942053000006,413.5575401999995,413.5575401999995,3.7131183999990753,002,P016,2025_Mar_07_1342,ConditionRich,2021.2.3,59.94197616792467,
