eventStartTime,eventEndTime,eventCond,imSize,imFile,responseEvent,fixRespStart,fixRespEnd,Events.thisRepN,Events.thisTrialN,Events.thisN,Events.thisIndex,Instructions.started,Instructions.stopped,participantReadyResponse.keys,participantReadyResponse.rt,participantReadyResponse.started,participantReadyResponse.stopped,startWaitforTrigger,triggerResponse.keys,triggerResponse.rt,triggerResponse.started,triggerResponse.stopped,globalTimer,actualStartTime,startTimingDiff,participantResponse.keys,participantResponse.started,participantResponse.stopped,image.started,image.stopped,fixationOutside.started,fixationOutside.stopped,fixationResponse.started,fixationResponse.stopped,fixationInside.started,fixationInside.stopped,participantResponse.rt,session,participant,date,expName,psychopyVersion,frameRate,
,,,,,,,,,,,,10.15379689999827,None,1,0.29354700000112643,10.15379689999827,None,,,,,,,,,,,,,,,,,,,,,007,P016,2025_Mar_07_1434,ConditionRich,2021.2.3,59.94452733376985,
,,,,,,,,,,,,,,,,,,10.456421300001239,5,15.161550400000124,10.470671799997945,None,,,,,,,,,,,,,,,,007,P016,2025_Mar_07_1434,ConditionRich,2021.2.3,59.94452733376985,
0.0,4.0,0,0.0,Stimuli/Blank.png,0,0.0,0.0,0,0,0,0,,,,,,,,,,,,25.638028500001383,0.02493559999857098,0.02493559999857098,None,25.684284999999363,None,25.684284999999363,None,25.684284999999363,None,25.684284999999363,25.684284999999363,25.684284999999363,None,,007,P016,2025_Mar_07_1434,ConditionRich,2021.2.3,59.94452733376985,
4.0,4.75,33,0.75,Stimuli/P016/things_raccoon_08n.jpg,0,0.0,0.0,0,1,1,1,,,,,,,,,,,,,4.019839699998556,0.01983969999855617,None,29.6880670999999,29.6880670999999,29.6880670999999,29.6880670999999,29.6880670999999,29.6880670999999,29.6880670999999,29.6880670999999,29.6880670999999,29.6880670999999,,007,P016,2025_Mar_07_1434,ConditionRich,2021.2.3,59.94452733376985,
4.75,8.0,41,0.0,Stimuli/Blank.png,0,0.0,0.0,0,2,2,2,,,,,,,,,,,,,4.769912100000511,0.01991210000051069,None,30.42232370000056,30.42232370000056,30.42232370000056,30.42232370000056,30.42232370000056,30.42232370000056,30.42232370000056,30.42232370000056,30.42232370000056,30.42232370000056,,007,P016,2025_Mar_07_1434,ConditionRich,2021.2.3,59.94452733376985,
8.0,8.75,39,0.75,Stimuli/P016/things_window_08s.jpg,0,0.0,0.0,0,3,3,3,,,,,,,,,,,,,8.005316400001902,0.005316400001902366,None,33.65790619999825,33.65790619999825,33.65790619999825,33.65790619999825,33.65790619999825,33.65790619999825,33.65790619999825,33.65790619999825,33.65790619999825,33.65790619999825,,007,P016,2025_Mar_07_1434,ConditionRich,2021.2.3,59.94452733376985,
8.75,12.0,41,0.0,Stimuli/Blank.png,0,0.0,0.0,0,4,4,4,,,,,,,,,,,,,8.759017000000313,0.009017000000312692,None,34.42531059999965,34.42531059999965,34.42531059999965,34.42531059999965,34.42531059999965,34.42531059999965,34.42531059999965,34.42531059999965,34.42531059999965,34.42531059999965,,007,P016,2025_Mar_07_1434,ConditionRich,2021.2.3,59.94452733376985,
12.0,12.75,34,0.75,Stimuli/P016/things_shower_cap_08s.jpg,0,0.0,0.0,0,5,5,5,,,,,,,,,,,,,12.02845460000026,0.028454600000259234,None,37.69486010000037,37.69486010000037,37.69486010000037,37.69486010000037,37.69486010000037,37.69486010000037,37.69486010000037,37.69486010000037,37.69486010000037,37.69486010000037,,007,P016,2025_Mar_07_1434,ConditionRich,2021.2.3,59.94452733376985,
12.75,16.0,41,0.0,Stimuli/Blank.png,0,0.0,0.0,0,6,6,6,,,,,,,,,,,,,12.778610199999093,0.02861019999909331,None,38.44553470000028,38.44553470000028,38.44553470000028,38.44553470000028,38.44553470000028,38.44553470000028,38.44553470000028,38.44553470000028,38.44553470000028,38.44553470000028,,007,P016,2025_Mar_07_1434,ConditionRich,2021.2.3,59.94452733376985,
16.0,16.75,14,0.75,Stimuli/P016/sun_bpvmkbyglkraoxhh.jpg,0,0.0,0.0,0,7,7,7,,,,,,,,,,,,,16.029190699999162,0.02919069999916246,None,41.698400199999014,41.698400199999014,41.698400199999014,41.698400199999014,41.698400199999014,41.698400199999014,41.698400199999014,41.698400199999014,41.698400199999014,41.698400199999014,,007,P016,2025_Mar_07_1434,ConditionRich,2021.2.3,59.94452733376985,
16.75,20.0,41,0.0,Stimuli/Blank.png,1,1.25,2.0,0,8,8,8,,,,,,,,,,,,,16.77977060000194,0.029770600001938874,1,42.43236859999888,42.43236859999888,42.43236859999888,42.43236859999888,42.43236859999888,42.43236859999888,43.73352719999821,44.41745989999981,42.43236859999888,42.43236859999888,1.7108484000018507,007,P016,2025_Mar_07_1434,ConditionRich,2021.2.3,59.94452733376985,
20.0,20.75,11,0.75,Stimuli/P016/sun_bnwmcjuinqbdsbho.jpg,0,0.0,0.0,0,9,9,9,,,,,,,,,,,,,20.000562100001844,0.0005621000018436462,None,45.66871710000123,45.66871710000123,45.66871710000123,45.66871710000123,45.66871710000123,45.66871710000123,45.66871710000123,45.66871710000123,45.66871710000123,45.66871710000123,,007,P016,2025_Mar_07_1434,ConditionRich,2021.2.3,59.94452733376985,
20.75,24.0,41,0.0,Stimuli/Blank.png,0,0.0,0.0,0,10,10,10,,,,,,,,,,,,,20.767715000001772,0.01771500000177184,None,46.41924250000011,46.41924250000011,46.41924250000011,46.41924250000011,46.41924250000011,46.41924250000011,46.41924250000011,46.41924250000011,46.41924250000011,46.41924250000011,,007,P016,2025_Mar_07_1434,ConditionRich,2021.2.3,59.94452733376985,
24.0,24.75,12,0.75,Stimuli/P016/sun_boffixsnbbloarty.jpg,0,0.0,0.0,0,11,11,11,,,,,,,,,,,,,24.00382779999927,0.0038277999992715195,None,49.672107599999435,49.672107599999435,49.672107599999435,49.672107599999435,49.672107599999435,49.672107599999435,49.672107599999435,49.672107599999435,49.672107599999435,49.672107599999435,,007,P016,2025_Mar_07_1434,ConditionRich,2021.2.3,59.94452733376985,
24.75,28.0,41,0.0,Stimuli/Blank.png,0,0.0,0.0,0,12,12,12,,,,,,,,,,,,,24.77257499999905,0.022574999999051215,None,50.4394601999993,50.4394601999993,50.4394601999993,50.4394601999993,50.4394601999993,50.4394601999993,50.4394601999993,50.4394601999993,50.4394601999993,50.4394601999993,,007,P016,2025_Mar_07_1434,ConditionRich,2021.2.3,59.94452733376985,
28.0,28.75,35,0.75,Stimuli/P016/things_squid_08s.jpg,0,0.0,0.0,0,13,13,13,,,,,,,,,,,,,28.02305989999877,0.02305989999877056,None,53.67563959999825,53.67563959999825,53.67563959999825,53.67563959999825,53.67563959999825,53.67563959999825,53.67563959999825,53.67563959999825,53.67563959999825,53.67563959999825,,007,P016,2025_Mar_07_1434,ConditionRich,2021.2.3,59.94452733376985,
28.75,32.0,41,0.0,Stimuli/Blank.png,1,1.25,2.0,0,14,14,14,,,,,,,,,,,,,28.757063600001857,0.007063600001856685,1,54.40962969999964,54.40962969999964,54.40962969999964,54.40962969999964,54.40962969999964,54.40962969999964,55.64405020000049,56.39467449999938,54.40962969999964,54.40962969999964,1.531615599997167,007,P016,2025_Mar_07_1434,ConditionRich,2021.2.3,59.94452733376985,
32.0,32.75,27,0.75,Stimuli/P016/things_girl_08s.jpg,0,0.0,0.0,0,15,15,15,,,,,,,,,,,,,32.01042750000124,0.010427500001242151,None,57.662504299998545,57.662504299998545,57.662504299998545,57.662504299998545,57.662504299998545,57.662504299998545,57.662504299998545,57.662504299998545,57.662504299998545,57.662504299998545,,007,P016,2025_Mar_07_1434,ConditionRich,2021.2.3,59.94452733376985,
32.75,36.0,41,0.0,Stimuli/Blank.png,1,2.25,3.0,0,16,16,16,,,,,,,,,,,,,32.763070799999696,0.013070799999695737,1,58.429864499998075,58.429864499998075,58.429864499998075,58.429864499998075,58.429864499998075,58.429864499998075,60.6651626999992,61.415785199998936,58.429864499998075,58.429864499998075,2.6047364000005473,007,P016,2025_Mar_07_1434,ConditionRich,2021.2.3,59.94452733376985,
36.0,36.75,36,0.75,Stimuli/P016/things_streetlight_08s.jpg,0,0.0,0.0,0,17,17,17,,,,,,,,,,,,,36.01424219999899,0.014242199998989236,None,61.66609320000134,61.66609320000134,61.66609320000134,61.66609320000134,61.66609320000134,61.66609320000134,61.66609320000134,61.66609320000134,61.66609320000134,61.66609320000134,,007,P016,2025_Mar_07_1434,ConditionRich,2021.2.3,59.94452733376985,
36.75,40.0,41,0.0,Stimuli/Blank.png,0,0.0,0.0,0,18,18,18,,,,,,,,,,,,,36.76492689999941,0.014926899999409216,None,62.4167028999982,62.4167028999982,62.4167028999982,62.4167028999982,62.4167028999982,62.4167028999982,62.4167028999982,62.4167028999982,62.4167028999982,62.4167028999982,,007,P016,2025_Mar_07_1434,ConditionRich,2021.2.3,59.94452733376985,
40.0,40.75,19,0.75,Stimuli/P016/sun_bzhwvgrzvttqoexa.jpg,0,0.0,0.0,0,19,19,19,,,,,,,,,,,,,40.000428600000305,0.00042860000030486844,None,65.66959399999905,65.66959399999905,65.66959399999905,65.66959399999905,65.66959399999905,65.66959399999905,65.66959399999905,65.66959399999905,65.66959399999905,65.66959399999905,,007,P016,2025_Mar_07_1434,ConditionRich,2021.2.3,59.94452733376985,
40.75,44.0,41,0.0,Stimuli/Blank.png,0,0.0,0.0,0,20,20,20,,,,,,,,,,,,,40.76885899999979,0.018858999999793014,None,66.42023909999989,66.42023909999989,66.42023909999989,66.42023909999989,66.42023909999989,66.42023909999989,66.42023909999989,66.42023909999989,66.42023909999989,66.42023909999989,,007,P016,2025_Mar_07_1434,ConditionRich,2021.2.3,59.94452733376985,
44.0,44.75,32,0.75,Stimuli/P016/things_pheasant_08s.jpg,0,0.0,0.0,0,21,21,21,,,,,,,,,,,,,44.00410159999956,0.004101599999557948,None,69.67307879999862,69.67307879999862,69.67307879999862,69.67307879999862,69.67307879999862,69.67307879999862,69.67307879999862,69.67307879999862,69.67307879999862,69.67307879999862,,007,P016,2025_Mar_07_1434,ConditionRich,2021.2.3,59.94452733376985,
44.75,48.0,41,0.0,Stimuli/Blank.png,0,0.0,0.0,0,22,22,22,,,,,,,,,,,,,44.774096199998894,0.024096199998894008,None,70.44046719999824,70.44046719999824,70.44046719999824,70.44046719999824,70.44046719999824,70.44046719999824,70.44046719999824,70.44046719999824,70.44046719999824,70.44046719999824,,007,P016,2025_Mar_07_1434,ConditionRich,2021.2.3,59.94452733376985,
48.0,48.75,20,0.75,Stimuli/P016/sun_bzmxulijbnmshodq.jpg,0,0.0,0.0,0,23,23,23,,,,,,,,,,,,,48.0250363999985,0.025036399998498382,None,73.69335929999943,73.69335929999943,73.69335929999943,73.69335929999943,73.69335929999943,73.69335929999943,73.69335929999943,73.69335929999943,73.69335929999943,73.69335929999943,,007,P016,2025_Mar_07_1434,ConditionRich,2021.2.3,59.94452733376985,
48.75,52.0,41,0.0,Stimuli/Blank.png,0,0.0,0.0,0,24,24,24,,,,,,,,,,,,,48.775592199999664,0.025592199999664444,None,74.4273237999987,74.4273237999987,74.4273237999987,74.4273237999987,74.4273237999987,74.4273237999987,74.4273237999987,74.4273237999987,74.4273237999987,74.4273237999987,,007,P016,2025_Mar_07_1434,ConditionRich,2021.2.3,59.94452733376985,
52.0,52.75,2,0.75,Stimuli/P016/sun_agzfkftryitnqpxc.jpg,0,0.0,0.0,0,25,25,25,,,,,,,,,,,,,52.01170210000055,0.011702100000547944,None,77.6635110999996,77.6635110999996,77.6635110999996,77.6635110999996,77.6635110999996,77.6635110999996,77.6635110999996,77.6635110999996,77.6635110999996,77.6635110999996,,007,P016,2025_Mar_07_1434,ConditionRich,2021.2.3,59.94452733376985,
52.75,56.0,41,0.0,Stimuli/Blank.png,0,0.0,0.0,0,26,26,26,,,,,,,,,,,,,52.76332510000066,0.013325100000656676,None,78.41419150000002,78.41419150000002,78.41419150000002,78.41419150000002,78.41419150000002,78.41419150000002,78.41419150000002,78.41419150000002,78.41419150000002,78.41419150000002,,007,P016,2025_Mar_07_1434,ConditionRich,2021.2.3,59.94452733376985,
56.0,56.75,40,0.75,Stimuli/P016/things_woman_08s.jpg,0,0.0,0.0,0,27,27,27,,,,,,,,,,,,,55.99849750000067,-0.0015024999993329402,None,81.66704599999866,81.66704599999866,81.66704599999866,81.66704599999866,81.66704599999866,81.66704599999866,81.66704599999866,81.66704599999866,81.66704599999866,81.66704599999866,,007,P016,2025_Mar_07_1434,ConditionRich,2021.2.3,59.94452733376985,
56.75,60.0,41,0.0,Stimuli/Blank.png,0,0.0,0.0,0,28,28,28,,,,,,,,,,,,,56.765140300001804,0.015140300001803553,None,82.4177165000001,82.4177165000001,82.4177165000001,82.4177165000001,82.4177165000001,82.4177165000001,82.4177165000001,82.4177165000001,82.4177165000001,82.4177165000001,,007,P016,2025_Mar_07_1434,ConditionRich,2021.2.3,59.94452733376985,
60.0,60.75,15,0.75,Stimuli/P016/sun_bvfcijehgdsndfbg.jpg,0,0.0,0.0,0,29,29,29,,,,,,,,,,,,,60.00199369999973,0.00199369999972987,None,85.67058729999917,85.67058729999917,85.67058729999917,85.67058729999917,85.67058729999917,85.67058729999917,85.67058729999917,85.67058729999917,85.67058729999917,85.67058729999917,,007,P016,2025_Mar_07_1434,ConditionRich,2021.2.3,59.94452733376985,
60.75,64.0,41,0.0,Stimuli/Blank.png,0,0.0,0.0,0,30,30,30,,,,,,,,,,,,,60.76857129999917,0.018571299999166513,None,86.42124049999984,86.42124049999984,86.42124049999984,86.42124049999984,86.42124049999984,86.42124049999984,86.42124049999984,86.42124049999984,86.42124049999984,86.42124049999984,,007,P016,2025_Mar_07_1434,ConditionRich,2021.2.3,59.94452733376985,
64.0,64.75,29,0.75,Stimuli/P016/things_mouse1_08s.jpg,0,0.0,0.0,0,31,31,31,,,,,,,,,,,,,64.00531340000089,0.005313400000886759,None,89.67414310000095,89.67414310000095,89.67414310000095,89.67414310000095,89.67414310000095,89.67414310000095,89.67414310000095,89.67414310000095,89.67414310000095,89.67414310000095,,007,P016,2025_Mar_07_1434,ConditionRich,2021.2.3,59.94452733376985,
64.75,68.0,41,0.0,Stimuli/Blank.png,0,0.0,0.0,0,32,32,32,,,,,,,,,,,,,64.77242470000056,0.022424700000556186,None,90.42478819999815,90.42478819999815,90.42478819999815,90.42478819999815,90.42478819999815,90.42478819999815,90.42478819999815,90.42478819999815,90.42478819999815,90.42478819999815,,007,P016,2025_Mar_07_1434,ConditionRich,2021.2.3,59.94452733376985,
68.0,68.75,25,0.75,Stimuli/P016/things_deer_08s.jpg,0,0.0,0.0,0,33,33,33,,,,,,,,,,,,,68.00834640000176,0.008346400001755683,None,93.66097770000124,93.66097770000124,93.66097770000124,93.66097770000124,93.66097770000124,93.66097770000124,93.66097770000124,93.66097770000124,93.66097770000124,93.66097770000124,,007,P016,2025_Mar_07_1434,ConditionRich,2021.2.3,59.94452733376985,
68.75,72.0,41,0.0,Stimuli/Blank.png,0,0.0,0.0,0,34,34,34,,,,,,,,,,,,,68.75935070000196,0.009350700001959922,None,94.41165650000039,94.41165650000039,94.41165650000039,94.41165650000039,94.41165650000039,94.41165650000039,94.41165650000039,94.41165650000039,94.41165650000039,94.41165650000039,,007,P016,2025_Mar_07_1434,ConditionRich,2021.2.3,59.94452733376985,
72.0,72.75,8,0.75,Stimuli/P016/sun_arldxotvfucvuudk.jpg,0,0.0,0.0,0,35,35,35,,,,,,,,,,,,,72.0127438999989,0.012743899998895358,None,97.66452270000082,97.66452270000082,97.66452270000082,97.66452270000082,97.66452270000082,97.66452270000082,97.66452270000082,97.66452270000082,97.66452270000082,97.66452270000082,,007,P016,2025_Mar_07_1434,ConditionRich,2021.2.3,59.94452733376985,
72.75,76.0,41,0.0,Stimuli/Blank.png,0,0.0,0.0,0,36,36,36,,,,,,,,,,,,,72.7625388000015,0.012538800001493655,None,98.4151841999992,98.4151841999992,98.4151841999992,98.4151841999992,98.4151841999992,98.4151841999992,98.4151841999992,98.4151841999992,98.4151841999992,98.4151841999992,,007,P016,2025_Mar_07_1434,ConditionRich,2021.2.3,59.94452733376985,
76.0,76.75,28,0.75,Stimuli/P016/things_latte_08s.jpg,0,0.0,0.0,0,37,37,37,,,,,,,,,,,,,76.01710140000068,0.017101400000683498,None,101.68476399999781,101.68476399999781,101.68476399999781,101.68476399999781,101.68476399999781,101.68476399999781,101.68476399999781,101.68476399999781,101.68476399999781,101.68476399999781,,007,P016,2025_Mar_07_1434,ConditionRich,2021.2.3,59.94452733376985,
76.75,80.0,41,0.0,Stimuli/Blank.png,0,0.0,0.0,0,38,38,38,,,,,,,,,,,,,76.76664280000114,0.016642800001136493,None,102.41868830000021,102.41868830000021,102.41868830000021,102.41868830000021,102.41868830000021,102.41868830000021,102.41868830000021,102.41868830000021,102.41868830000021,102.41868830000021,,007,P016,2025_Mar_07_1434,ConditionRich,2021.2.3,59.94452733376985,
80.0,80.75,13,0.75,Stimuli/P016/sun_bphvjnowixlryxot.jpg,0,0.0,0.0,0,39,39,39,,,,,,,,,,,,,80.00376189999952,0.0037618999995174818,None,105.67159619999802,105.67159619999802,105.67159619999802,105.67159619999802,105.67159619999802,105.67159619999802,105.67159619999802,105.67159619999802,105.67159619999802,105.67159619999802,,007,P016,2025_Mar_07_1434,ConditionRich,2021.2.3,59.94452733376985,
80.75,84.0,41,0.0,Stimuli/Blank.png,1,2.25,3.0,0,40,40,40,,,,,,,,,,,,,80.76954810000097,0.019548100000974955,1,106.4222351999997,106.4222351999997,106.4222351999997,106.4222351999997,106.4222351999997,106.4222351999997,108.65759179999804,109.40828269999838,106.4222351999997,106.4222351999997,2.6339614000025904,007,P016,2025_Mar_07_1434,ConditionRich,2021.2.3,59.94452733376985,
84.0,100.0,0,0.0,Stimuli/Blank.png,1,13.0,13.75,0,41,41,41,,,,,,,,,,,,,84.00590029999876,0.005900299998756964,1,109.65850669999782,109.65850669999782,109.65850669999782,109.65850669999782,109.65850669999782,109.65850669999782,122.63664249999783,123.3873104000013,109.65850669999782,109.65850669999782,13.425675399998,007,P016,2025_Mar_07_1434,ConditionRich,2021.2.3,59.94452733376985,
100.0,100.75,5,0.75,Stimuli/P016/sun_ajgmxbrxdpmsaext.jpg,0,0.0,0.0,0,42,42,42,,,,,,,,,,,,,100.00436199999967,0.0043619999996735714,None,125.65589539999928,125.65589539999928,125.65589539999928,125.65589539999928,125.65589539999928,125.65589539999928,125.65589539999928,125.65589539999928,125.65589539999928,125.65589539999928,,007,P016,2025_Mar_07_1434,ConditionRich,2021.2.3,59.94452733376985,
100.75,104.0,41,0.0,Stimuli/Blank.png,0,0.0,0.0,0,43,43,43,,,,,,,,,,,,,100.75469460000022,0.004694600000220817,None,126.40669139999954,126.40669139999954,126.40669139999954,126.40669139999954,126.40669139999954,126.40669139999954,126.40669139999954,126.40669139999954,126.40669139999954,126.40669139999954,,007,P016,2025_Mar_07_1434,ConditionRich,2021.2.3,59.94452733376985,
104.0,104.75,18,0.75,Stimuli/P016/sun_byavixgfuhzioilz.jpg,0,0.0,0.0,0,44,44,44,,,,,,,,,,,,,104.00774140000067,0.007741400000668364,None,129.6594670000013,129.6594670000013,129.6594670000013,129.6594670000013,129.6594670000013,129.6594670000013,129.6594670000013,129.6594670000013,129.6594670000013,129.6594670000013,,007,P016,2025_Mar_07_1434,ConditionRich,2021.2.3,59.94452733376985,
104.75,108.0,41,0.0,Stimuli/Blank.png,0,0.0,0.0,0,45,45,45,,,,,,,,,,,,,104.75849970000127,0.00849970000126632,None,130.41013419999945,130.41013419999945,130.41013419999945,130.41013419999945,130.41013419999945,130.41013419999945,130.41013419999945,130.41013419999945,130.41013419999945,130.41013419999945,,007,P016,2025_Mar_07_1434,ConditionRich,2021.2.3,59.94452733376985,
108.0,108.75,30,0.75,Stimuli/P016/things_ottoman_08s.jpg,0,0.0,0.0,0,46,46,46,,,,,,,,,,,,,108.01093400000173,0.010934000001725508,None,133.6630010000008,133.6630010000008,133.6630010000008,133.6630010000008,133.6630010000008,133.6630010000008,133.6630010000008,133.6630010000008,133.6630010000008,133.6630010000008,,007,P016,2025_Mar_07_1434,ConditionRich,2021.2.3,59.94452733376985,
108.75,112.0,41,0.0,Stimuli/Blank.png,0,0.0,0.0,0,47,47,47,,,,,,,,,,,,,108.76266079999914,0.012660799999139272,None,134.41369489999852,134.41369489999852,134.41369489999852,134.41369489999852,134.41369489999852,134.41369489999852,134.41369489999852,134.41369489999852,134.41369489999852,134.41369489999852,,007,P016,2025_Mar_07_1434,ConditionRich,2021.2.3,59.94452733376985,
112.0,112.75,3,0.75,Stimuli/P016/sun_aiogwnavezqxkzfg.jpg,0,0.0,0.0,0,48,48,48,,,,,,,,,,,,,112.01399769999989,0.013997699999890756,None,137.6665432000009,137.6665432000009,137.6665432000009,137.6665432000009,137.6665432000009,137.6665432000009,137.6665432000009,137.6665432000009,137.6665432000009,137.6665432000009,,007,P016,2025_Mar_07_1434,ConditionRich,2021.2.3,59.94452733376985,
112.75,116.0,41,0.0,Stimuli/Blank.png,0,0.0,0.0,0,49,49,49,,,,,,,,,,,,,112.76538699999946,0.015386999999464024,None,138.4172957999981,138.4172957999981,138.4172957999981,138.4172957999981,138.4172957999981,138.4172957999981,138.4172957999981,138.4172957999981,138.4172957999981,138.4172957999981,,007,P016,2025_Mar_07_1434,ConditionRich,2021.2.3,59.94452733376985,
116.0,116.75,31,0.75,Stimuli/P016/things_outlet_08s.jpg,0,0.0,0.0,0,50,50,50,,,,,,,,,,,,,116.00209320000067,0.0020932000006723683,None,141.6700845000014,141.6700845000014,141.6700845000014,141.6700845000014,141.6700845000014,141.6700845000014,141.6700845000014,141.6700845000014,141.6700845000014,141.6700845000014,,007,P016,2025_Mar_07_1434,ConditionRich,2021.2.3,59.94452733376985,
116.75,120.0,41,0.0,Stimuli/Blank.png,0,0.0,0.0,0,51,51,51,,,,,,,,,,,,,116.76809779999894,0.0180977999989409,None,142.42074810000122,142.42074810000122,142.42074810000122,142.42074810000122,142.42074810000122,142.42074810000122,142.42074810000122,142.42074810000122,142.42074810000122,142.42074810000122,,007,P016,2025_Mar_07_1434,ConditionRich,2021.2.3,59.94452733376985,
120.0,120.75,17,0.75,Stimuli/P016/sun_bxhbltvqnpaciuzt.jpg,0,0.0,0.0,0,52,52,52,,,,,,,,,,,,,120.00510660000145,0.005106600001454353,None,145.6568989999978,145.6568989999978,145.6568989999978,145.6568989999978,145.6568989999978,145.6568989999978,145.6568989999978,145.6568989999978,145.6568989999978,145.6568989999978,,007,P016,2025_Mar_07_1434,ConditionRich,2021.2.3,59.94452733376985,
120.75,124.0,41,0.0,Stimuli/Blank.png,0,0.0,0.0,0,53,53,53,,,,,,,,,,,,,120.7560596000003,0.006059600000298815,None,146.4075793000011,146.4075793000011,146.4075793000011,146.4075793000011,146.4075793000011,146.4075793000011,146.4075793000011,146.4075793000011,146.4075793000011,146.4075793000011,,007,P016,2025_Mar_07_1434,ConditionRich,2021.2.3,59.94452733376985,
124.0,124.75,26,0.75,Stimuli/P016/things_face_08s.jpg,0,0.0,0.0,0,54,54,54,,,,,,,,,,,,,124.00897519999853,0.008975199998531025,None,149.67717830000038,149.67717830000038,149.67717830000038,149.67717830000038,149.67717830000038,149.67717830000038,149.67717830000038,149.67717830000038,149.67717830000038,149.67717830000038,,007,P016,2025_Mar_07_1434,ConditionRich,2021.2.3,59.94452733376985,
124.75,128.0,41,0.0,Stimuli/Blank.png,0,0.0,0.0,0,55,55,55,,,,,,,,,,,,,124.77512170000045,0.02512170000045444,None,150.4278936999981,150.4278936999981,150.4278936999981,150.4278936999981,150.4278936999981,150.4278936999981,150.4278936999981,150.4278936999981,150.4278936999981,150.4278936999981,,007,P016,2025_Mar_07_1434,ConditionRich,2021.2.3,59.94452733376985,
128.0,128.75,23,0.75,Stimuli/P016/things_boy_08s.jpg,0,0.0,0.0,0,56,56,56,,,,,,,,,,,,,128.0125463000004,0.012546300000394695,None,153.68066850000105,153.68066850000105,153.68066850000105,153.68066850000105,153.68066850000105,153.68066850000105,153.68066850000105,153.68066850000105,153.68066850000105,153.68066850000105,,007,P016,2025_Mar_07_1434,ConditionRich,2021.2.3,59.94452733376985,
128.75,132.0,41,0.0,Stimuli/Blank.png,0,0.0,0.0,0,57,57,57,,,,,,,,,,,,,128.77908060000118,0.029080600001179846,None,154.4314845000008,154.4314845000008,154.4314845000008,154.4314845000008,154.4314845000008,154.4314845000008,154.4314845000008,154.4314845000008,154.4314845000008,154.4314845000008,,007,P016,2025_Mar_07_1434,ConditionRich,2021.2.3,59.94452733376985,
132.0,132.75,6,0.75,Stimuli/P016/sun_akecfasimgpbqcnt.jpg,0,0.0,0.0,0,58,58,58,,,,,,,,,,,,,132.0156191999995,0.015619199999491684,None,157.68425639999987,157.68425639999987,157.68425639999987,157.68425639999987,157.68425639999987,157.68425639999987,157.68425639999987,157.68425639999987,157.68425639999987,157.68425639999987,,007,P016,2025_Mar_07_1434,ConditionRich,2021.2.3,59.94452733376985,
132.75,136.0,41,0.0,Stimuli/Blank.png,0,0.0,0.0,0,59,59,59,,,,,,,,,,,,,132.76767779999864,0.017677799998637056,None,158.43491160000121,158.43491160000121,158.43491160000121,158.43491160000121,158.43491160000121,158.43491160000121,158.43491160000121,158.43491160000121,158.43491160000121,158.43491160000121,,007,P016,2025_Mar_07_1434,ConditionRich,2021.2.3,59.94452733376985,
136.0,136.75,4,0.75,Stimuli/P016/sun_aiwuqxdqzftsfyeg.jpg,0,0.0,0.0,0,60,60,60,,,,,,,,,,,,,136.01861199999985,0.018611999999848194,None,161.67109490000075,161.67109490000075,161.67109490000075,161.67109490000075,161.67109490000075,161.67109490000075,161.67109490000075,161.67109490000075,161.67109490000075,161.67109490000075,,007,P016,2025_Mar_07_1434,ConditionRich,2021.2.3,59.94452733376985,
136.75,140.0,41,0.0,Stimuli/Blank.png,0,0.0,0.0,0,61,61,61,,,,,,,,,,,,,136.75341440000193,0.0034144000019296072,None,162.4050782000013,162.4050782000013,162.4050782000013,162.4050782000013,162.4050782000013,162.4050782000013,162.4050782000013,162.4050782000013,162.4050782000013,162.4050782000013,,007,P016,2025_Mar_07_1434,ConditionRich,2021.2.3,59.94452733376985,
140.0,140.75,38,0.75,Stimuli/P016/things_trumpet_08s.jpg,1,0.0,0.75,0,62,62,62,,,,,,,,,,,,,140.00627199999872,0.0062719999987166375,1,165.65791360000003,165.65791360000003,165.65791360000003,165.65791360000003,165.65791360000003,165.65791360000003,165.65791360000003,166.39197390000118,165.65791360000003,165.65791360000003,0.501373600000079,007,P016,2025_Mar_07_1434,ConditionRich,2021.2.3,59.94452733376985,
140.75,144.0,41,0.0,Stimuli/Blank.png,0,0.0,0.0,0,63,63,63,,,,,,,,,,,,,140.75912189999872,0.009121899998717709,None,166.4253170999982,166.4253170999982,166.4253170999982,166.4253170999982,166.4253170999982,166.4253170999982,166.4253170999982,166.4253170999982,166.4253170999982,166.4253170999982,,007,P016,2025_Mar_07_1434,ConditionRich,2021.2.3,59.94452733376985,
144.0,144.75,10,0.75,Stimuli/P016/sun_bfojpvrlsrtfyzio.jpg,0,0.0,0.0,0,64,64,64,,,,,,,,,,,,,144.02781270000196,0.027812700001959456,None,169.69486699999834,169.69486699999834,169.69486699999834,169.69486699999834,169.69486699999834,169.69486699999834,169.69486699999834,169.69486699999834,169.69486699999834,169.69486699999834,,007,P016,2025_Mar_07_1434,ConditionRich,2021.2.3,59.94452733376985,
144.75,148.0,41,0.0,Stimuli/Blank.png,0,0.0,0.0,0,65,65,65,,,,,,,,,,,,,144.77889979999964,0.028899799999635434,None,170.4455221999997,170.4455221999997,170.4455221999997,170.4455221999997,170.4455221999997,170.4455221999997,170.4455221999997,170.4455221999997,170.4455221999997,170.4455221999997,,007,P016,2025_Mar_07_1434,ConditionRich,2021.2.3,59.94452733376985,
148.0,148.75,9,0.75,Stimuli/P016/sun_bbdgftzhpkaklkll.jpg,0,0.0,0.0,0,66,66,66,,,,,,,,,,,,,148.02906259999872,0.02906259999872418,None,173.68167289999838,173.68167289999838,173.68167289999838,173.68167289999838,173.68167289999838,173.68167289999838,173.68167289999838,173.68167289999838,173.68167289999838,173.68167289999838,,007,P016,2025_Mar_07_1434,ConditionRich,2021.2.3,59.94452733376985,
148.75,152.0,41,0.0,Stimuli/Blank.png,0,0.0,0.0,0,67,67,67,,,,,,,,,,,,,148.76300690000062,0.01300690000061877,None,174.41569119999986,174.41569119999986,174.41569119999986,174.41569119999986,174.41569119999986,174.41569119999986,174.41569119999986,174.41569119999986,174.41569119999986,174.41569119999986,,007,P016,2025_Mar_07_1434,ConditionRich,2021.2.3,59.94452733376985,
152.0,152.75,24,0.75,Stimuli/P016/things_bunkbed_08s.jpg,0,0.0,0.0,0,68,68,68,,,,,,,,,,,,,151.999261500001,-0.000738499998988118,None,177.65183969999998,177.65183969999998,177.65183969999998,177.65183969999998,177.65183969999998,177.65183969999998,177.65183969999998,177.65183969999998,177.65183969999998,177.65183969999998,,007,P016,2025_Mar_07_1434,ConditionRich,2021.2.3,59.94452733376985,
152.75,156.0,41,0.0,Stimuli/Blank.png,1,1.25,2.0,0,69,69,69,,,,,,,,,,,,,152.75358290000077,0.003582900000765221,1,178.41928840000037,178.41928840000037,178.41928840000037,178.41928840000037,178.41928840000037,178.41928840000037,179.65361309999935,180.4043227000002,178.41928840000037,178.41928840000037,1.7160573000001023,007,P016,2025_Mar_07_1434,ConditionRich,2021.2.3,59.94452733376985,
156.0,156.75,22,0.75,Stimuli/P016/things_baby_08s.jpg,0,0.0,0.0,0,70,70,70,,,,,,,,,,,,,156.01980480000202,0.019804800002020784,None,181.68882759999906,181.68882759999906,181.68882759999906,181.68882759999906,181.68882759999906,181.68882759999906,181.68882759999906,181.68882759999906,181.68882759999906,181.68882759999906,,007,P016,2025_Mar_07_1434,ConditionRich,2021.2.3,59.94452733376985,
156.75,160.0,41,0.0,Stimuli/Blank.png,0,0.0,0.0,0,71,71,71,,,,,,,,,,,,,156.7728313000007,0.022831300000689225,None,182.43946040000083,182.43946040000083,182.43946040000083,182.43946040000083,182.43946040000083,182.43946040000083,182.43946040000083,182.43946040000083,182.43946040000083,182.43946040000083,,007,P016,2025_Mar_07_1434,ConditionRich,2021.2.3,59.94452733376985,
160.0,160.75,7,0.75,Stimuli/P016/sun_aqdfrmtvewaapuqs.jpg,0,0.0,0.0,0,72,72,72,,,,,,,,,,,,,160.02385530000174,0.023855300001741853,None,185.67564119999952,185.67564119999952,185.67564119999952,185.67564119999952,185.67564119999952,185.67564119999952,185.67564119999952,185.67564119999952,185.67564119999952,185.67564119999952,,007,P016,2025_Mar_07_1434,ConditionRich,2021.2.3,59.94452733376985,
160.75,164.0,41,0.0,Stimuli/Blank.png,1,0.25,1.0,0,73,73,73,,,,,,,,,,,,,160.75758979999955,0.007589799999550451,1,186.40962170000057,186.40962170000057,186.40962170000057,186.40962170000057,186.40962170000057,186.40962170000057,186.64318899999853,187.39382159999877,186.40962170000057,186.40962170000057,0.628638599999249,007,P016,2025_Mar_07_1434,ConditionRich,2021.2.3,59.94452733376985,
164.0,164.75,21,0.75,Stimuli/P016/things_arch_08s.jpg,0,0.0,0.0,0,74,74,74,,,,,,,,,,,,,164.0099525000005,0.009952500000508735,None,189.66250030000083,189.66250030000083,189.66250030000083,189.66250030000083,189.66250030000083,189.66250030000083,189.66250030000083,189.66250030000083,189.66250030000083,189.66250030000083,,007,P016,2025_Mar_07_1434,ConditionRich,2021.2.3,59.94452733376985,
164.75,168.0,41,0.0,Stimuli/Blank.png,0,0.0,0.0,0,75,75,75,,,,,,,,,,,,,164.76183300000048,0.011833000000478933,None,190.41317100000015,190.41317100000015,190.41317100000015,190.41317100000015,190.41317100000015,190.41317100000015,190.41317100000015,190.41317100000015,190.41317100000015,190.41317100000015,,007,P016,2025_Mar_07_1434,ConditionRich,2021.2.3,59.94452733376985,
168.0,168.75,16,0.75,Stimuli/P016/sun_bwhuwxazfqwuqhik.jpg,0,0.0,0.0,0,76,76,76,,,,,,,,,,,,,168.01421760000085,0.014217600000847597,None,193.6660394999999,193.6660394999999,193.6660394999999,193.6660394999999,193.6660394999999,193.6660394999999,193.6660394999999,193.6660394999999,193.6660394999999,193.6660394999999,,007,P016,2025_Mar_07_1434,ConditionRich,2021.2.3,59.94452733376985,
168.75,172.0,41,0.0,Stimuli/Blank.png,0,0.0,0.0,0,77,77,77,,,,,,,,,,,,,168.7648541999988,0.014854199998808326,None,194.41677269999855,194.41677269999855,194.41677269999855,194.41677269999855,194.41677269999855,194.41677269999855,194.41677269999855,194.41677269999855,194.41677269999855,194.41677269999855,,007,P016,2025_Mar_07_1434,ConditionRich,2021.2.3,59.94452733376985,
172.0,172.75,37,0.75,Stimuli/P016/things_swizzle_stick_08s.jpg,0,0.0,0.0,0,78,78,78,,,,,,,,,,,,,172.00121389999913,0.001213899999129353,None,197.65290789999926,197.65290789999926,197.65290789999926,197.65290789999926,197.65290789999926,197.65290789999926,197.65290789999926,197.65290789999926,197.65290789999926,197.65290789999926,,007,P016,2025_Mar_07_1434,ConditionRich,2021.2.3,59.94452733376985,
172.75,176.0,41,0.0,Stimuli/Blank.png,1,1.25,2.0,0,79,79,79,,,,,,,,,,,,,172.75334750000184,0.0033475000018370338,1,198.420248800001,198.420248800001,198.420248800001,198.420248800001,198.420248800001,198.420248800001,199.6547165000011,200.4053309999981,198.420248800001,198.420248800001,1.5550483000006352,007,P016,2025_Mar_07_1434,ConditionRich,2021.2.3,59.94452733376985,
176.0,176.75,1,0.75,Stimuli/P016/sun_aacpzgqrortyhyss.jpg,0,0.0,0.0,0,80,80,80,,,,,,,,,,,,,176.02053629999864,0.02053629999863915,None,201.67311549999795,201.67311549999795,201.67311549999795,201.67311549999795,201.67311549999795,201.67311549999795,201.67311549999795,201.67311549999795,201.67311549999795,201.67311549999795,,007,P016,2025_Mar_07_1434,ConditionRich,2021.2.3,59.94452733376985,
176.75,180.0,41,0.0,Stimuli/Blank.png,0,0.0,0.0,0,81,81,81,,,,,,,,,,,,,176.75496049999856,0.004960499998560408,None,202.4070991999979,202.4070991999979,202.4070991999979,202.4070991999979,202.4070991999979,202.4070991999979,202.4070991999979,202.4070991999979,202.4070991999979,202.4070991999979,,007,P016,2025_Mar_07_1434,ConditionRich,2021.2.3,59.94452733376985,
180.0,196.0,0,0.0,Stimuli/Blank.png,1,13.0,13.75,0,82,82,82,,,,,,,,,,,,,180.00799430000188,0.007994300001882948,1,205.65997789999892,205.65997789999892,205.65997789999892,205.65997789999892,205.65997789999892,205.65997789999892,218.6380949000013,219.38880069999868,205.65997789999892,205.65997789999892,13.363375500000984,007,P016,2025_Mar_07_1434,ConditionRich,2021.2.3,59.94452733376985,
196.0,196.75,35,0.75,Stimuli/P016/things_squid_08s.jpg,0,0.0,0.0,0,83,83,83,,,,,,,,,,,,,196.00543390000166,0.0054339000016625505,None,221.67415179999807,221.67415179999807,221.67415179999807,221.67415179999807,221.67415179999807,221.67415179999807,221.67415179999807,221.67415179999807,221.67415179999807,221.67415179999807,,007,P016,2025_Mar_07_1434,ConditionRich,2021.2.3,59.94452733376985,
196.75,200.0,41,0.0,Stimuli/Blank.png,0,0.0,0.0,0,84,84,84,,,,,,,,,,,,,196.77279049999925,0.022790499999246094,None,222.42479489999823,222.42479489999823,222.42479489999823,222.42479489999823,222.42479489999823,222.42479489999823,222.42479489999823,222.42479489999823,222.42479489999823,222.42479489999823,,007,P016,2025_Mar_07_1434,ConditionRich,2021.2.3,59.94452733376985,
200.0,200.75,21,0.75,Stimuli/P016/things_arch_08s.jpg,0,0.0,0.0,0,85,85,85,,,,,,,,,,,,,200.00850790000186,0.008507900001859525,None,225.66098039999997,225.66098039999997,225.66098039999997,225.66098039999997,225.66098039999997,225.66098039999997,225.66098039999997,225.66098039999997,225.66098039999997,225.66098039999997,,007,P016,2025_Mar_07_1434,ConditionRich,2021.2.3,59.94452733376985,
200.75,204.0,41,0.0,Stimuli/Blank.png,1,2.25,3.0,0,86,86,86,,,,,,,,,,,,,200.75960610000038,0.009606100000382867,1,226.4116572999992,226.4116572999992,226.4116572999992,226.4116572999992,226.4116572999992,226.4116572999992,228.64694650000092,229.3976584000011,226.4116572999992,226.4116572999992,2.5985551000012492,007,P016,2025_Mar_07_1434,ConditionRich,2021.2.3,59.94452733376985,
204.0,204.75,18,0.75,Stimuli/P016/sun_byavixgfuhzioilz.jpg,0,0.0,0.0,0,87,87,87,,,,,,,,,,,,,204.0135463000006,0.013546300000598421,None,229.68122279999807,229.68122279999807,229.68122279999807,229.68122279999807,229.68122279999807,229.68122279999807,229.68122279999807,229.68122279999807,229.68122279999807,229.68122279999807,,007,P016,2025_Mar_07_1434,ConditionRich,2021.2.3,59.94452733376985,
204.75,208.0,41,0.0,Stimuli/Blank.png,1,1.25,2.0,0,88,88,88,,,,,,,,,,,,,204.77933420000045,0.029334200000448618,1,230.43188699999882,230.43188699999882,230.43188699999882,230.43188699999882,230.43188699999882,230.43188699999882,231.6663430999979,232.4170355999995,230.43188699999882,230.43188699999882,1.637663399997109,007,P016,2025_Mar_07_1434,ConditionRich,2021.2.3,59.94452733376985,
208.0,208.75,40,0.75,Stimuli/P016/things_woman_08s.jpg,0,0.0,0.0,0,89,89,89,,,,,,,,,,,,,208.01655720000053,0.016557200000534067,None,233.68474330000026,233.68474330000026,233.68474330000026,233.68474330000026,233.68474330000026,233.68474330000026,233.68474330000026,233.68474330000026,233.68474330000026,233.68474330000026,,007,P016,2025_Mar_07_1434,ConditionRich,2021.2.3,59.94452733376985,
208.75,212.0,41,0.0,Stimuli/Blank.png,0,0.0,0.0,0,90,90,90,,,,,,,,,,,,,208.76905429999897,0.019054299998970237,None,234.4354304999979,234.4354304999979,234.4354304999979,234.4354304999979,234.4354304999979,234.4354304999979,234.4354304999979,234.4354304999979,234.4354304999979,234.4354304999979,,007,P016,2025_Mar_07_1434,ConditionRich,2021.2.3,59.94452733376985,
212.0,212.75,11,0.75,Stimuli/P016/sun_bnwmcjuinqbdsbho.jpg,0,0.0,0.0,0,91,91,91,,,,,,,,,,,,,212.01937950000138,0.019379500001377892,None,237.67158819999895,237.67158819999895,237.67158819999895,237.67158819999895,237.67158819999895,237.67158819999895,237.67158819999895,237.67158819999895,237.67158819999895,237.67158819999895,,007,P016,2025_Mar_07_1434,ConditionRich,2021.2.3,59.94452733376985,
212.75,216.0,41,0.0,Stimuli/Blank.png,0,0.0,0.0,0,92,92,92,,,,,,,,,,,,,212.75393710000208,0.003937100002076477,None,238.40558070000043,238.40558070000043,238.40558070000043,238.40558070000043,238.40558070000043,238.40558070000043,238.40558070000043,238.40558070000043,238.40558070000043,238.40558070000043,,007,P016,2025_Mar_07_1434,ConditionRich,2021.2.3,59.94452733376985,
216.0,216.75,13,0.75,Stimuli/P016/sun_bphvjnowixlryxot.jpg,0,0.0,0.0,0,93,93,93,,,,,,,,,,,,,216.00791820000086,0.007918200000858633,None,241.67513880000115,241.67513880000115,241.67513880000115,241.67513880000115,241.67513880000115,241.67513880000115,241.67513880000115,241.67513880000115,241.67513880000115,241.67513880000115,,007,P016,2025_Mar_07_1434,ConditionRich,2021.2.3,59.94452733376985,
216.75,220.0,41,0.0,Stimuli/Blank.png,0,0.0,0.0,0,94,94,94,,,,,,,,,,,,,216.7730773000003,0.02307730000029551,None,242.4258039999986,242.4258039999986,242.4258039999986,242.4258039999986,242.4258039999986,242.4258039999986,242.4258039999986,242.4258039999986,242.4258039999986,242.4258039999986,,007,P016,2025_Mar_07_1434,ConditionRich,2021.2.3,59.94452733376985,
220.0,220.75,1,0.75,Stimuli/P016/sun_aacpzgqrortyhyss.jpg,0,0.0,0.0,0,95,95,95,,,,,,,,,,,,,220.0095160000019,0.009516000001895009,None,245.66198489999806,245.66198489999806,245.66198489999806,245.66198489999806,245.66198489999806,245.66198489999806,245.66198489999806,245.66198489999806,245.66198489999806,245.66198489999806,,007,P016,2025_Mar_07_1434,ConditionRich,2021.2.3,59.94452733376985,
220.75,224.0,41,0.0,Stimuli/Blank.png,0,0.0,0.0,0,96,96,96,,,,,,,,,,,,,220.76001389999874,0.010013899998739362,None,246.41264619999856,246.41264619999856,246.41264619999856,246.41264619999856,246.41264619999856,246.41264619999856,246.41264619999856,246.41264619999856,246.41264619999856,246.41264619999856,,007,P016,2025_Mar_07_1434,ConditionRich,2021.2.3,59.94452733376985,
224.0,224.75,9,0.75,Stimuli/P016/sun_bbdgftzhpkaklkll.jpg,0,0.0,0.0,0,97,97,97,,,,,,,,,,,,,224.01288249999925,0.012882499999250285,None,249.66553019999992,249.66553019999992,249.66553019999992,249.66553019999992,249.66553019999992,249.66553019999992,249.66553019999992,249.66553019999992,249.66553019999992,249.66553019999992,,007,P016,2025_Mar_07_1434,ConditionRich,2021.2.3,59.94452733376985,
224.75,228.0,41,0.0,Stimuli/Blank.png,1,0.25,1.0,0,98,98,98,,,,,,,,,,,,,224.76361280000128,0.013612800001283176,1,250.41618680000101,250.41618680000101,250.41618680000101,250.41618680000101,250.41618680000101,250.41618680000101,250.6497285000005,251.40039270000125,250.41618680000101,250.41618680000101,0.5201075000004494,007,P016,2025_Mar_07_1434,ConditionRich,2021.2.3,59.94452733376985,
228.0,228.75,30,0.75,Stimuli/P016/things_ottoman_08s.jpg,0,0.0,0.0,0,99,99,99,,,,,,,,,,,,,227.99989629999982,-0.00010370000018156134,None,253.66908580000018,253.66908580000018,253.66908580000018,253.66908580000018,253.66908580000018,253.66908580000018,253.66908580000018,253.66908580000018,253.66908580000018,253.66908580000018,,007,P016,2025_Mar_07_1434,ConditionRich,2021.2.3,59.94452733376985,
228.75,232.0,41,0.0,Stimuli/Blank.png,0,0.0,0.0,0,100,100,100,,,,,,,,,,,,,228.76804210000046,0.01804210000045714,None,254.41973099999814,254.41973099999814,254.41973099999814,254.41973099999814,254.41973099999814,254.41973099999814,254.41973099999814,254.41973099999814,254.41973099999814,254.41973099999814,,007,P016,2025_Mar_07_1434,ConditionRich,2021.2.3,59.94452733376985,
232.0,232.75,16,0.75,Stimuli/P016/sun_bwhuwxazfqwuqhik.jpg,0,0.0,0.0,0,101,101,101,,,,,,,,,,,,,232.0043786999995,0.0043786999995063525,None,257.67262969999865,257.67262969999865,257.67262969999865,257.67262969999865,257.67262969999865,257.67262969999865,257.67262969999865,257.67262969999865,257.67262969999865,257.67262969999865,,007,P016,2025_Mar_07_1434,ConditionRich,2021.2.3,59.94452733376985,
232.75,236.0,41,0.0,Stimuli/Blank.png,1,1.25,2.0,0,102,102,102,,,,,,,,,,,,,232.77280339999925,0.02280339999924763,1,258.439962299999,258.439962299999,258.439962299999,258.439962299999,258.439962299999,258.439962299999,259.6744031999988,260.42504310000004,258.439962299999,258.439962299999,1.6123403999990842,007,P016,2025_Mar_07_1434,ConditionRich,2021.2.3,59.94452733376985,
236.0,236.75,29,0.75,Stimuli/P016/things_mouse1_08s.jpg,0,0.0,0.0,0,103,103,103,,,,,,,,,,,,,236.0237245999997,0.023724599999695783,None,261.67615379999916,261.67615379999916,261.67615379999916,261.67615379999916,261.67615379999916,261.67615379999916,261.67615379999916,261.67615379999916,261.67615379999916,261.67615379999916,,007,P016,2025_Mar_07_1434,ConditionRich,2021.2.3,59.94452733376985,
236.75,240.0,41,0.0,Stimuli/Blank.png,0,0.0,0.0,0,104,104,104,,,,,,,,,,,,,236.758505400001,0.008505400001013186,None,262.4101257000002,262.4101257000002,262.4101257000002,262.4101257000002,262.4101257000002,262.4101257000002,262.4101257000002,262.4101257000002,262.4101257000002,262.4101257000002,,007,P016,2025_Mar_07_1434,ConditionRich,2021.2.3,59.94452733376985,
240.0,240.75,25,0.75,Stimuli/P016/things_deer_08s.jpg,0,0.0,0.0,0,105,105,105,,,,,,,,,,,,,240.01134570000067,0.011345700000674697,None,265.6630026999992,265.6630026999992,265.6630026999992,265.6630026999992,265.6630026999992,265.6630026999992,265.6630026999992,265.6630026999992,265.6630026999992,265.6630026999992,,007,P016,2025_Mar_07_1434,ConditionRich,2021.2.3,59.94452733376985,
240.75,244.0,41,0.0,Stimuli/Blank.png,0,0.0,0.0,0,106,106,106,,,,,,,,,,,,,240.76407219999965,0.014072199999645818,None,266.4303527000011,266.4303527000011,266.4303527000011,266.4303527000011,266.4303527000011,266.4303527000011,266.4303527000011,266.4303527000011,266.4303527000011,266.4303527000011,,007,P016,2025_Mar_07_1434,ConditionRich,2021.2.3,59.94452733376985,
244.0,244.75,2,0.75,Stimuli/P016/sun_agzfkftryitnqpxc.jpg,0,0.0,0.0,0,107,107,107,,,,,,,,,,,,,244.01387239999895,0.013872399998945184,None,269.666533399999,269.666533399999,269.666533399999,269.666533399999,269.666533399999,269.666533399999,269.666533399999,269.666533399999,269.666533399999,269.666533399999,,007,P016,2025_Mar_07_1434,ConditionRich,2021.2.3,59.94452733376985,
244.75,248.0,41,0.0,Stimuli/Blank.png,0,0.0,0.0,0,108,108,108,,,,,,,,,,,,,244.76454450000165,0.014544500001647975,None,270.4171998999991,270.4171998999991,270.4171998999991,270.4171998999991,270.4171998999991,270.4171998999991,270.4171998999991,270.4171998999991,270.4171998999991,270.4171998999991,,007,P016,2025_Mar_07_1434,ConditionRich,2021.2.3,59.94452733376985,
248.0,248.75,5,0.75,Stimuli/P016/sun_ajgmxbrxdpmsaext.jpg,0,0.0,0.0,0,109,109,109,,,,,,,,,,,,,248.0040474999987,0.004047499998705462,None,273.67007490000105,273.67007490000105,273.67007490000105,273.67007490000105,273.67007490000105,273.67007490000105,273.67007490000105,273.67007490000105,273.67007490000105,273.67007490000105,,007,P016,2025_Mar_07_1434,ConditionRich,2021.2.3,59.94452733376985,
248.75,252.0,41,0.0,Stimuli/Blank.png,0,0.0,0.0,0,110,110,110,,,,,,,,,,,,,248.7687403000018,0.018740300001809373,None,274.42073919999893,274.42073919999893,274.42073919999893,274.42073919999893,274.42073919999893,274.42073919999893,274.42073919999893,274.42073919999893,274.42073919999893,274.42073919999893,,007,P016,2025_Mar_07_1434,ConditionRich,2021.2.3,59.94452733376985,
252.0,252.75,32,0.75,Stimuli/P016/things_pheasant_08s.jpg,0,0.0,0.0,0,111,111,111,,,,,,,,,,,,,252.00442580000163,0.004425800001627067,None,277.673640099998,277.673640099998,277.673640099998,277.673640099998,277.673640099998,277.673640099998,277.673640099998,277.673640099998,277.673640099998,277.673640099998,,007,P016,2025_Mar_07_1434,ConditionRich,2021.2.3,59.94452733376985,
252.75,256.0,41,0.0,Stimuli/Blank.png,0,0.0,0.0,0,112,112,112,,,,,,,,,,,,,252.77272060000178,0.022720600001775892,None,278.4242907000007,278.4242907000007,278.4242907000007,278.4242907000007,278.4242907000007,278.4242907000007,278.4242907000007,278.4242907000007,278.4242907000007,278.4242907000007,,007,P016,2025_Mar_07_1434,ConditionRich,2021.2.3,59.94452733376985,
256.0,256.75,33,0.75,Stimuli/P016/things_raccoon_08n.jpg,0,0.0,0.0,0,113,113,113,,,,,,,,,,,,,256.0084922999995,0.00849229999948875,None,281.6771736999981,281.6771736999981,281.6771736999981,281.6771736999981,281.6771736999981,281.6771736999981,281.6771736999981,281.6771736999981,281.6771736999981,281.6771736999981,,007,P016,2025_Mar_07_1434,ConditionRich,2021.2.3,59.94452733376985,
256.75,260.0,41,0.0,Stimuli/Blank.png,0,0.0,0.0,0,114,114,114,,,,,,,,,,,,,256.77602710000065,0.026027100000646897,None,282.4278505000002,282.4278505000002,282.4278505000002,282.4278505000002,282.4278505000002,282.4278505000002,282.4278505000002,282.4278505000002,282.4278505000002,282.4278505000002,,007,P016,2025_Mar_07_1434,ConditionRich,2021.2.3,59.94452733376985,
260.0,260.75,28,0.75,Stimuli/P016/things_latte_08s.jpg,0,0.0,0.0,0,115,115,115,,,,,,,,,,,,,260.01547109999956,0.015471099999558646,None,285.68070539999826,285.68070539999826,285.68070539999826,285.68070539999826,285.68070539999826,285.68070539999826,285.68070539999826,285.68070539999826,285.68070539999826,285.68070539999826,,007,P016,2025_Mar_07_1434,ConditionRich,2021.2.3,59.94452733376985,
260.75,264.0,41,0.0,Stimuli/Blank.png,0,0.0,0.0,0,116,116,116,,,,,,,,,,,,,260.7633233999986,0.013323399998625973,None,286.4146777999995,286.4146777999995,286.4146777999995,286.4146777999995,286.4146777999995,286.4146777999995,286.4146777999995,286.4146777999995,286.4146777999995,286.4146777999995,,007,P016,2025_Mar_07_1434,ConditionRich,2021.2.3,59.94452733376985,
264.0,264.75,14,0.75,Stimuli/P016/sun_bpvmkbyglkraoxhh.jpg,0,0.0,0.0,0,117,117,117,,,,,,,,,,,,,263.99895520000064,-0.001044799999363022,None,289.6508594000006,289.6508594000006,289.6508594000006,289.6508594000006,289.6508594000006,289.6508594000006,289.6508594000006,289.6508594000006,289.6508594000006,289.6508594000006,,007,P016,2025_Mar_07_1434,ConditionRich,2021.2.3,59.94452733376985,
264.75,268.0,41,0.0,Stimuli/Blank.png,1,1.25,2.0,0,118,118,118,,,,,,,,,,,,,264.74891969999953,-0.0010803000004671048,1,290.40154299999995,290.40154299999995,290.40154299999995,290.40154299999995,290.40154299999995,290.40154299999995,291.63599740000063,292.3866646999995,290.40154299999995,290.40154299999995,1.7047719000001962,007,P016,2025_Mar_07_1434,ConditionRich,2021.2.3,59.94452733376985,
268.0,268.75,39,0.75,Stimuli/P016/things_window_08s.jpg,0,0.0,0.0,0,119,119,119,,,,,,,,,,,,,268.003523899999,0.0035238999989815056,None,293.67108559999906,293.67108559999906,293.67108559999906,293.67108559999906,293.67108559999906,293.67108559999906,293.67108559999906,293.67108559999906,293.67108559999906,293.67108559999906,,007,P016,2025_Mar_07_1434,ConditionRich,2021.2.3,59.94452733376985,
268.75,272.0,41,0.0,Stimuli/Blank.png,0,0.0,0.0,0,120,120,120,,,,,,,,,,,,,268.76924560000043,0.019245600000431295,None,294.4217908999999,294.4217908999999,294.4217908999999,294.4217908999999,294.4217908999999,294.4217908999999,294.4217908999999,294.4217908999999,294.4217908999999,294.4217908999999,,007,P016,2025_Mar_07_1434,ConditionRich,2021.2.3,59.94452733376985,
272.0,272.75,38,0.75,Stimuli/P016/things_trumpet_08s.jpg,0,0.0,0.0,0,121,121,121,,,,,,,,,,,,,272.00521780000054,0.005217800000536954,None,297.6579481999979,297.6579481999979,297.6579481999979,297.6579481999979,297.6579481999979,297.6579481999979,297.6579481999979,297.6579481999979,297.6579481999979,297.6579481999979,,007,P016,2025_Mar_07_1434,ConditionRich,2021.2.3,59.94452733376985,
272.75,276.0,41,0.0,Stimuli/Blank.png,0,0.0,0.0,0,122,122,122,,,,,,,,,,,,,272.75751200000013,0.007512000000133412,None,298.4086188000001,298.4086188000001,298.4086188000001,298.4086188000001,298.4086188000001,298.4086188000001,298.4086188000001,298.4086188000001,298.4086188000001,298.4086188000001,,007,P016,2025_Mar_07_1434,ConditionRich,2021.2.3,59.94452733376985,
276.0,292.0,0,0.0,Stimuli/Blank.png,1,5.0,5.75,0,123,123,123,,,,,,,,,,,,,276.0088687999996,0.008868799999618204,1,301.6614837999987,301.6614837999987,301.6614837999987,301.6614837999987,301.6614837999987,301.6614837999987,306.6492169999983,307.3998900000006,301.6614837999987,301.6614837999987,5.390723100001196,007,P016,2025_Mar_07_1434,ConditionRich,2021.2.3,59.94452733376985,
292.0,292.75,19,0.75,Stimuli/P016/sun_bzhwvgrzvttqoexa.jpg,0,0.0,0.0,0,124,124,124,,,,,,,,,,,,,292.0085833000012,0.008583300001191674,None,317.675714099998,317.675714099998,317.675714099998,317.675714099998,317.675714099998,317.675714099998,317.675714099998,317.675714099998,317.675714099998,317.675714099998,,007,P016,2025_Mar_07_1434,ConditionRich,2021.2.3,59.94452733376985,
292.75,296.0,41,0.0,Stimuli/Blank.png,0,0.0,0.0,0,125,125,125,,,,,,,,,,,,,292.7743198999997,0.024319899999682093,None,318.4262966999995,318.4262966999995,318.4262966999995,318.4262966999995,318.4262966999995,318.4262966999995,318.4262966999995,318.4262966999995,318.4262966999995,318.4262966999995,,007,P016,2025_Mar_07_1434,ConditionRich,2021.2.3,59.94452733376985,
296.0,296.75,7,0.75,Stimuli/P016/sun_aqdfrmtvewaapuqs.jpg,0,0.0,0.0,0,126,126,126,,,,,,,,,,,,,296.0103353000013,0.010335300001315773,None,321.6792119999991,321.6792119999991,321.6792119999991,321.6792119999991,321.6792119999991,321.6792119999991,321.6792119999991,321.6792119999991,321.6792119999991,321.6792119999991,,007,P016,2025_Mar_07_1434,ConditionRich,2021.2.3,59.94452733376985,
296.75,300.0,41,0.0,Stimuli/Blank.png,0,0.0,0.0,0,127,127,127,,,,,,,,,,,,,296.77787349999926,0.027873499999259366,None,322.42983679999816,322.42983679999816,322.42983679999816,322.42983679999816,322.42983679999816,322.42983679999816,322.42983679999816,322.42983679999816,322.42983679999816,322.42983679999816,,007,P016,2025_Mar_07_1434,ConditionRich,2021.2.3,59.94452733376985,
300.0,300.75,17,0.75,Stimuli/P016/sun_bxhbltvqnpaciuzt.jpg,0,0.0,0.0,0,128,128,128,,,,,,,,,,,,,300.0136734000007,0.013673400000698166,None,325.6660293999994,325.6660293999994,325.6660293999994,325.6660293999994,325.6660293999994,325.6660293999994,325.6660293999994,325.6660293999994,325.6660293999994,325.6660293999994,,007,P016,2025_Mar_07_1434,ConditionRich,2021.2.3,59.94452733376985,
300.75,304.0,41,0.0,Stimuli/Blank.png,0,0.0,0.0,0,129,129,129,,,,,,,,,,,,,300.7641001000011,0.014100100001087412,None,326.41669470000124,326.41669470000124,326.41669470000124,326.41669470000124,326.41669470000124,326.41669470000124,326.41669470000124,326.41669470000124,326.41669470000124,326.41669470000124,,007,P016,2025_Mar_07_1434,ConditionRich,2021.2.3,59.94452733376985,
304.0,304.75,37,0.75,Stimuli/P016/things_swizzle_stick_08s.jpg,0,0.0,0.0,0,130,130,130,,,,,,,,,,,,,304.0003918000002,0.00039180000021588057,None,329.66958149999846,329.66958149999846,329.66958149999846,329.66958149999846,329.66958149999846,329.66958149999846,329.66958149999846,329.66958149999846,329.66958149999846,329.66958149999846,,007,P016,2025_Mar_07_1434,ConditionRich,2021.2.3,59.94452733376985,
304.75,308.0,41,0.0,Stimuli/Blank.png,1,0.25,1.0,0,131,131,131,,,,,,,,,,,,,304.76834210000015,0.01834210000015446,None,330.42023979999794,330.42023979999794,330.42023979999794,330.42023979999794,330.42023979999794,330.42023979999794,330.6537962000002,331.4044456999982,330.42023979999794,330.42023979999794,,007,P016,2025_Mar_07_1434,ConditionRich,2021.2.3,59.94452733376985,
308.0,308.75,3,0.75,Stimuli/P016/sun_aiogwnavezqxkzfg.jpg,0,0.0,0.0,0,132,132,132,,,,,,,,,,,,,308.0043774000005,0.0043774000005214475,None,333.6564236000013,333.6564236000013,333.6564236000013,333.6564236000013,333.6564236000013,333.6564236000013,333.6564236000013,333.6564236000013,333.6564236000013,333.6564236000013,,007,P016,2025_Mar_07_1434,ConditionRich,2021.2.3,59.94452733376985,
308.75,312.0,41,0.0,Stimuli/Blank.png,0,0.0,0.0,0,133,133,133,,,,,,,,,,,,,308.7545738000008,0.004573800000798656,None,334.4071022999997,334.4071022999997,334.4071022999997,334.4071022999997,334.4071022999997,334.4071022999997,334.4071022999997,334.4071022999997,334.4071022999997,334.4071022999997,,007,P016,2025_Mar_07_1434,ConditionRich,2021.2.3,59.94452733376985,
312.0,312.75,15,0.75,Stimuli/P016/sun_bvfcijehgdsndfbg.jpg,0,0.0,0.0,0,134,134,134,,,,,,,,,,,,,312.0088648000019,0.00886480000190204,None,337.67664969999896,337.67664969999896,337.67664969999896,337.67664969999896,337.67664969999896,337.67664969999896,337.67664969999896,337.67664969999896,337.67664969999896,337.67664969999896,,007,P016,2025_Mar_07_1434,ConditionRich,2021.2.3,59.94452733376985,
312.75,316.0,41,0.0,Stimuli/Blank.png,0,0.0,0.0,0,135,135,135,,,,,,,,,,,,,312.77477310000177,0.02477310000176658,None,338.42739919999804,338.42739919999804,338.42739919999804,338.42739919999804,338.42739919999804,338.42739919999804,338.42739919999804,338.42739919999804,338.42739919999804,338.42739919999804,,007,P016,2025_Mar_07_1434,ConditionRich,2021.2.3,59.94452733376985,
316.0,316.75,27,0.75,Stimuli/P016/things_girl_08s.jpg,1,0.0,0.75,0,136,136,136,,,,,,,,,,,,,316.0131223999997,0.013122399999701884,1,341.68020500000057,341.68020500000057,341.68020500000057,341.68020500000057,341.68020500000057,341.68020500000057,341.68020500000057,342.4141716999984,341.68020500000057,341.68020500000057,0.6123022000028868,007,P016,2025_Mar_07_1434,ConditionRich,2021.2.3,59.94452733376985,
316.75,320.0,41,0.0,Stimuli/Blank.png,0,0.0,0.0,0,137,137,137,,,,,,,,,,,,,316.7786347000001,0.02863470000011148,None,342.4308619000003,342.4308619000003,342.4308619000003,342.4308619000003,342.4308619000003,342.4308619000003,342.4308619000003,342.4308619000003,342.4308619000003,342.4308619000003,,007,P016,2025_Mar_07_1434,ConditionRich,2021.2.3,59.94452733376985,
320.0,320.75,26,0.75,Stimuli/P016/things_face_08s.jpg,0,0.0,0.0,0,138,138,138,,,,,,,,,,,,,320.01457070000106,0.014570700001058867,None,345.66704519999985,345.66704519999985,345.66704519999985,345.66704519999985,345.66704519999985,345.66704519999985,345.66704519999985,345.66704519999985,345.66704519999985,345.66704519999985,,007,P016,2025_Mar_07_1434,ConditionRich,2021.2.3,59.94452733376985,
320.75,324.0,41,0.0,Stimuli/Blank.png,0,0.0,0.0,0,139,139,139,,,,,,,,,,,,,320.7650317000007,0.015031700000690762,None,346.41770149999866,346.41770149999866,346.41770149999866,346.41770149999866,346.41770149999866,346.41770149999866,346.41770149999866,346.41770149999866,346.41770149999866,346.41770149999866,,007,P016,2025_Mar_07_1434,ConditionRich,2021.2.3,59.94452733376985,
324.0,324.75,24,0.75,Stimuli/P016/things_bunkbed_08s.jpg,0,0.0,0.0,0,140,140,140,,,,,,,,,,,,,324.0033422000015,0.003342200001497986,None,349.67058859999815,349.67058859999815,349.67058859999815,349.67058859999815,349.67058859999815,349.67058859999815,349.67058859999815,349.67058859999815,349.67058859999815,349.67058859999815,,007,P016,2025_Mar_07_1434,ConditionRich,2021.2.3,59.94452733376985,
324.75,328.0,41,0.0,Stimuli/Blank.png,0,0.0,0.0,0,141,141,141,,,,,,,,,,,,,324.7694603000018,0.019460300001810538,None,350.4212382000005,350.4212382000005,350.4212382000005,350.4212382000005,350.4212382000005,350.4212382000005,350.4212382000005,350.4212382000005,350.4212382000005,350.4212382000005,,007,P016,2025_Mar_07_1434,ConditionRich,2021.2.3,59.94452733376985,
328.0,328.75,31,0.75,Stimuli/P016/things_outlet_08s.jpg,0,0.0,0.0,0,142,142,142,,,,,,,,,,,,,328.00495969999974,0.004959699999744771,None,353.65743980000116,353.65743980000116,353.65743980000116,353.65743980000116,353.65743980000116,353.65743980000116,353.65743980000116,353.65743980000116,353.65743980000116,353.65743980000116,,007,P016,2025_Mar_07_1434,ConditionRich,2021.2.3,59.94452733376985,
328.75,332.0,41,0.0,Stimuli/Blank.png,1,1.25,2.0,0,143,143,143,,,,,,,,,,,,,328.7579138000001,0.007913800000096671,1,354.4247985000002,354.4247985000002,354.4247985000002,354.4247985000002,354.4247985000002,354.4247985000002,355.65920729999925,356.40992969999934,354.4247985000002,354.4247985000002,1.594799200000125,007,P016,2025_Mar_07_1434,ConditionRich,2021.2.3,59.94452733376985,
332.0,332.75,8,0.75,Stimuli/P016/sun_arldxotvfucvuudk.jpg,0,0.0,0.0,0,144,144,144,,,,,,,,,,,,,332.0257223000008,0.025722300000779796,None,357.6776858999983,357.6776858999983,357.6776858999983,357.6776858999983,357.6776858999983,357.6776858999983,357.6776858999983,357.6776858999983,357.6776858999983,357.6776858999983,,007,P016,2025_Mar_07_1434,ConditionRich,2021.2.3,59.94452733376985,
332.75,336.0,41,0.0,Stimuli/Blank.png,0,0.0,0.0,0,145,145,145,,,,,,,,,,,,,332.7598633000016,0.009863300001597963,None,358.41164299999946,358.41164299999946,358.41164299999946,358.41164299999946,358.41164299999946,358.41164299999946,358.41164299999946,358.41164299999946,358.41164299999946,358.41164299999946,,007,P016,2025_Mar_07_1434,ConditionRich,2021.2.3,59.94452733376985,
336.0,336.75,4,0.75,Stimuli/P016/sun_aiwuqxdqzftsfyeg.jpg,0,0.0,0.0,0,146,146,146,,,,,,,,,,,,,336.0127057999998,0.012705799999821465,None,361.68119659999866,361.68119659999866,361.68119659999866,361.68119659999866,361.68119659999866,361.68119659999866,361.68119659999866,361.68119659999866,361.68119659999866,361.68119659999866,,007,P016,2025_Mar_07_1434,ConditionRich,2021.2.3,59.94452733376985,
336.75,340.0,41,0.0,Stimuli/Blank.png,0,0.0,0.0,0,147,147,147,,,,,,,,,,,,,336.7800137000013,0.030013700001291,None,362.43186480000077,362.43186480000077,362.43186480000077,362.43186480000077,362.43186480000077,362.43186480000077,362.43186480000077,362.43186480000077,362.43186480000077,362.43186480000077,,007,P016,2025_Mar_07_1434,ConditionRich,2021.2.3,59.94452733376985,
340.0,340.75,10,0.75,Stimuli/P016/sun_bfojpvrlsrtfyzio.jpg,0,0.0,0.0,0,148,148,148,,,,,,,,,,,,,339.9992286000015,-0.0007713999984844122,None,365.6680486000005,365.6680486000005,365.6680486000005,365.6680486000005,365.6680486000005,365.6680486000005,365.6680486000005,365.6680486000005,365.6680486000005,365.6680486000005,,007,P016,2025_Mar_07_1434,ConditionRich,2021.2.3,59.94452733376985,
340.75,344.0,41,0.0,Stimuli/Blank.png,0,0.0,0.0,0,149,149,149,,,,,,,,,,,,,340.7677756000012,0.01777560000118683,None,366.4187037999982,366.4187037999982,366.4187037999982,366.4187037999982,366.4187037999982,366.4187037999982,366.4187037999982,366.4187037999982,366.4187037999982,366.4187037999982,,007,P016,2025_Mar_07_1434,ConditionRich,2021.2.3,59.94452733376985,
344.0,344.75,12,0.75,Stimuli/P016/sun_boffixsnbbloarty.jpg,0,0.0,0.0,0,150,150,150,,,,,,,,,,,,,344.00303469999926,0.0030346999992616475,None,369.6716075000004,369.6716075000004,369.6716075000004,369.6716075000004,369.6716075000004,369.6716075000004,369.6716075000004,369.6716075000004,369.6716075000004,369.6716075000004,,007,P016,2025_Mar_07_1434,ConditionRich,2021.2.3,59.94452733376985,
344.75,348.0,41,0.0,Stimuli/Blank.png,0,0.0,0.0,0,151,151,151,,,,,,,,,,,,,344.7727707000013,0.022770700001274236,None,370.4389489999994,370.4389489999994,370.4389489999994,370.4389489999994,370.4389489999994,370.4389489999994,370.4389489999994,370.4389489999994,370.4389489999994,370.4389489999994,,007,P016,2025_Mar_07_1434,ConditionRich,2021.2.3,59.94452733376985,
348.0,348.75,23,0.75,Stimuli/P016/things_boy_08s.jpg,0,0.0,0.0,0,152,152,152,,,,,,,,,,,,,348.023358800001,0.023358800001005875,None,373.69186439999976,373.69186439999976,373.69186439999976,373.69186439999976,373.69186439999976,373.69186439999976,373.69186439999976,373.69186439999976,373.69186439999976,373.69186439999976,,007,P016,2025_Mar_07_1434,ConditionRich,2021.2.3,59.94452733376985,
348.75,352.0,41,0.0,Stimuli/Blank.png,0,0.0,0.0,0,153,153,153,,,,,,,,,,,,,348.7731855999991,0.02318559999912395,None,374.42578739999954,374.42578739999954,374.42578739999954,374.42578739999954,374.42578739999954,374.42578739999954,374.42578739999954,374.42578739999954,374.42578739999954,374.42578739999954,,007,P016,2025_Mar_07_1434,ConditionRich,2021.2.3,59.94452733376985,
352.0,352.75,20,0.75,Stimuli/P016/sun_bzmxulijbnmshodq.jpg,0,0.0,0.0,0,154,154,154,,,,,,,,,,,,,352.00964139999996,0.009641399999964051,None,377.67868100000123,377.67868100000123,377.67868100000123,377.67868100000123,377.67868100000123,377.67868100000123,377.67868100000123,377.67868100000123,377.67868100000123,377.67868100000123,,007,P016,2025_Mar_07_1434,ConditionRich,2021.2.3,59.94452733376985,
352.75,356.0,41,0.0,Stimuli/Blank.png,0,0.0,0.0,0,155,155,155,,,,,,,,,,,,,352.777299100002,0.02729910000198288,None,378.42932799999835,378.42932799999835,378.42932799999835,378.42932799999835,378.42932799999835,378.42932799999835,378.42932799999835,378.42932799999835,378.42932799999835,378.42932799999835,,007,P016,2025_Mar_07_1434,ConditionRich,2021.2.3,59.94452733376985,
356.0,356.75,6,0.75,Stimuli/P016/sun_akecfasimgpbqcnt.jpg,0,0.0,0.0,0,156,156,156,,,,,,,,,,,,,356.0131074000019,0.013107400001899805,None,381.66551940000136,381.66551940000136,381.66551940000136,381.66551940000136,381.66551940000136,381.66551940000136,381.66551940000136,381.66551940000136,381.66551940000136,381.66551940000136,,007,P016,2025_Mar_07_1434,ConditionRich,2021.2.3,59.94452733376985,
356.75,360.0,41,0.0,Stimuli/Blank.png,0,0.0,0.0,0,157,157,157,,,,,,,,,,,,,356.7636485000003,0.013648500000272179,None,382.4161826999989,382.4161826999989,382.4161826999989,382.4161826999989,382.4161826999989,382.4161826999989,382.4161826999989,382.4161826999989,382.4161826999989,382.4161826999989,,007,P016,2025_Mar_07_1434,ConditionRich,2021.2.3,59.94452733376985,
360.0,360.75,22,0.75,Stimuli/P016/things_baby_08s.jpg,0,0.0,0.0,0,158,158,158,,,,,,,,,,,,,359.9997183000014,-0.00028169999859528616,None,385.6523754000009,385.6523754000009,385.6523754000009,385.6523754000009,385.6523754000009,385.6523754000009,385.6523754000009,385.6523754000009,385.6523754000009,385.6523754000009,,007,P016,2025_Mar_07_1434,ConditionRich,2021.2.3,59.94452733376985,
360.75,364.0,41,0.0,Stimuli/Blank.png,0,0.0,0.0,0,159,159,159,,,,,,,,,,,,,360.7505142000009,0.0005142000009072945,None,386.4030450999999,386.4030450999999,386.4030450999999,386.4030450999999,386.4030450999999,386.4030450999999,386.4030450999999,386.4030450999999,386.4030450999999,386.4030450999999,,007,P016,2025_Mar_07_1434,ConditionRich,2021.2.3,59.94452733376985,
364.0,364.75,36,0.75,Stimuli/P016/things_streetlight_08s.jpg,0,0.0,0.0,0,160,160,160,,,,,,,,,,,,,364.00340399999914,0.003403999999136431,None,389.65593029999945,389.65593029999945,389.65593029999945,389.65593029999945,389.65593029999945,389.65593029999945,389.65593029999945,389.65593029999945,389.65593029999945,389.65593029999945,,007,P016,2025_Mar_07_1434,ConditionRich,2021.2.3,59.94452733376985,
364.75,368.0,41,0.0,Stimuli/Blank.png,0,0.0,0.0,0,161,161,161,,,,,,,,,,,,,364.7539691999991,0.003969199999119155,None,390.4066050000001,390.4066050000001,390.4066050000001,390.4066050000001,390.4066050000001,390.4066050000001,390.4066050000001,390.4066050000001,390.4066050000001,390.4066050000001,,007,P016,2025_Mar_07_1434,ConditionRich,2021.2.3,59.94452733376985,
368.0,368.75,34,0.75,Stimuli/P016/things_shower_cap_08s.jpg,0,0.0,0.0,0,162,162,162,,,,,,,,,,,,,368.0075590999986,0.007559099998616148,None,393.67613450000135,393.67613450000135,393.67613450000135,393.67613450000135,393.67613450000135,393.67613450000135,393.67613450000135,393.67613450000135,393.67613450000135,393.67613450000135,,007,P016,2025_Mar_07_1434,ConditionRich,2021.2.3,59.94452733376985,
368.75,372.0,41,0.0,Stimuli/Blank.png,1,0.25,1.0,0,163,163,163,,,,,,,,,,,,,368.77412280000135,0.024122800001350697,1,394.4268016999995,394.4268016999995,394.4268016999995,394.4268016999995,394.4268016999995,394.4268016999995,394.66033089999837,395.4109931999992,394.4268016999995,394.4268016999995,0.7377716000009968,007,P016,2025_Mar_07_1434,ConditionRich,2021.2.3,59.94452733376985,
372.0,388.0,0,0.0,Stimuli/Blank.png,1,5.0,5.75,0,164,164,164,,,,,,,,,,,,,372.01373629999944,0.013736299999436596,1,397.67968069999915,397.67968069999915,397.67968069999915,397.67968069999915,397.67968069999915,397.67968069999915,402.66746559999956,403.4014036000008,397.67968069999915,397.67968069999915,5.435867699998198,007,P016,2025_Mar_07_1434,ConditionRich,2021.2.3,59.94452733376985,
