eventStartTime,eventEndTime,eventCond,imSize,imFile,responseEvent,fixRespStart,fixRespEnd,Events.thisRepN,Events.thisTrialN,Events.thisN,Events.thisIndex,Instructions.started,Instructions.stopped,participantReadyResponse.keys,participantReadyResponse.rt,participantReadyResponse.started,participantReadyResponse.stopped,startWaitforTrigger,triggerResponse.keys,triggerResponse.rt,triggerResponse.started,triggerResponse.stopped,globalTimer,actualStartTime,startTimingDiff,participantResponse.keys,participantResponse.started,participantResponse.stopped,image.started,image.stopped,fixationOutside.started,fixationOutside.stopped,fixationResponse.started,fixationResponse.stopped,fixationInside.started,fixationInside.stopped,participantResponse.rt,session,participant,date,expName,psychopyVersion,frameRate,
,,,,,,,,,,,,10.825943499999994,None,1,2.568625500000053,10.825943499999994,None,,,,,,,,,,,,,,,,,,,,,005,P016,2025_Mar_07_1412,ConditionRich,2021.2.3,59.94125756688776,
,,,,,,,,,,,,,,,,,,13.410539000000426,5,15.170863700001064,13.423452999999427,None,,,,,,,,,,,,,,,,005,P016,2025_Mar_07_1412,ConditionRich,2021.2.3,59.94125756688776,
0.0,4.0,0,0.0,Stimuli/Blank.png,0,0,0.0,0,0,0,0,,,,,,,,,,,,28.607870800002274,0.01696779999838327,0.01696779999838327,None,28.636988099999144,None,28.636988099999144,None,28.636988099999144,None,28.636988099999144,28.636988099999144,28.636988099999144,None,,005,P016,2025_Mar_07_1412,ConditionRich,2021.2.3,59.94125756688776,
4.0,7.75,29,0.75,Stimuli/P016/things_mouse1_08s.jpg,0,0,0.0,0,1,1,1,,,,,,,,,,,,,4.00315259999843,0.0031525999984296504,None,32.64071740000145,32.64071740000145,32.64071740000145,32.64071740000145,32.64071740000145,32.64071740000145,32.64071740000145,32.64071740000145,32.64071740000145,32.64071740000145,,005,P016,2025_Mar_07_1412,ConditionRich,2021.2.3,59.94125756688776,
7.75,8.0,41,0.0,Stimuli/Blank.png,0,0,0.0,0,2,2,2,,,,,,,,,,,,,7.771825199997693,0.021825199997692835,None,36.39421450000009,36.39421450000009,36.39421450000009,36.39421450000009,36.39421450000009,36.39421450000009,36.39421450000009,36.39421450000009,36.39421450000009,36.39421450000009,,005,P016,2025_Mar_07_1412,ConditionRich,2021.2.3,59.94125756688776,
8.0,11.75,38,0.75,Stimuli/P016/things_trumpet_08s.jpg,0,0,0.0,0,3,3,3,,,,,,,,,,,,,8.005560400000832,0.005560400000831578,None,36.64405610000176,36.64405610000176,36.64405610000176,36.64405610000176,36.64405610000176,36.64405610000176,36.64405610000176,36.64405610000176,36.64405610000176,36.64405610000176,,005,P016,2025_Mar_07_1412,ConditionRich,2021.2.3,59.94125756688776,
11.75,12.0,41,0.0,Stimuli/Blank.png,0,0,0.0,0,4,4,4,,,,,,,,,,,,,11.77801510000063,0.0280151000006299,None,40.4140647000022,40.4140647000022,40.4140647000022,40.4140647000022,40.4140647000022,40.4140647000022,40.4140647000022,40.4140647000022,40.4140647000022,40.4140647000022,,005,P016,2025_Mar_07_1412,ConditionRich,2021.2.3,59.94125756688776,
12.0,15.75,4,0.75,Stimuli/P016/sun_aiwuqxdqzftsfyeg.jpg,0,0,0.0,0,5,5,5,,,,,,,,,,,,,12.025145100000373,0.025145100000372622,None,40.64761290000024,40.64761290000024,40.64761290000024,40.64761290000024,40.64761290000024,40.64761290000024,40.64761290000024,40.64761290000024,40.64761290000024,40.64761290000024,,005,P016,2025_Mar_07_1412,ConditionRich,2021.2.3,59.94125756688776,
15.75,16.0,41,0.0,Stimuli/Blank.png,0,0,0.0,0,6,6,6,,,,,,,,,,,,,15.762419099999534,0.0124190999995335,None,44.38423669999975,44.38423669999975,44.38423669999975,44.38423669999975,44.38423669999975,44.38423669999975,44.38423669999975,44.38423669999975,44.38423669999975,44.38423669999975,,005,P016,2025_Mar_07_1412,ConditionRich,2021.2.3,59.94125756688776,
16.0,19.75,28,0.75,Stimuli/P016/things_latte_08s.jpg,0,0,0.0,0,7,7,7,,,,,,,,,,,,,16.012830899999244,0.012830899999244139,None,44.634461500001635,44.634461500001635,44.634461500001635,44.634461500001635,44.634461500001635,44.634461500001635,44.634461500001635,44.634461500001635,44.634461500001635,44.634461500001635,,005,P016,2025_Mar_07_1412,ConditionRich,2021.2.3,59.94125756688776,
19.75,20.0,41,0.0,Stimuli/Blank.png,0,0,0.0,0,8,8,8,,,,,,,,,,,,,19.748831499997323,-0.0011685000026773196,None,48.37198609999905,48.37198609999905,48.37198609999905,48.37198609999905,48.37198609999905,48.37198609999905,48.37198609999905,48.37198609999905,48.37198609999905,48.37198609999905,,005,P016,2025_Mar_07_1412,ConditionRich,2021.2.3,59.94125756688776,
20.0,23.75,9,0.75,Stimuli/P016/sun_bbdgftzhpkaklkll.jpg,0,0,0.0,0,9,9,9,,,,,,,,,,,,,20.015665899998567,0.0156658999985666,None,48.65478150000126,48.65478150000126,48.65478150000126,48.65478150000126,48.65478150000126,48.65478150000126,48.65478150000126,48.65478150000126,48.65478150000126,48.65478150000126,,005,P016,2025_Mar_07_1412,ConditionRich,2021.2.3,59.94125756688776,
23.75,24.0,41,0.0,Stimuli/Blank.png,0,0,0.0,0,10,10,10,,,,,,,,,,,,,23.768861799999286,0.018861799999285722,None,52.391304600001604,52.391304600001604,52.391304600001604,52.391304600001604,52.391304600001604,52.391304600001604,52.391304600001604,52.391304600001604,52.391304600001604,52.391304600001604,,005,P016,2025_Mar_07_1412,ConditionRich,2021.2.3,59.94125756688776,
24.0,27.75,17,0.75,Stimuli/P016/sun_bxhbltvqnpaciuzt.jpg,1,3,3.75,0,11,11,11,,,,,,,,,,,,,24.003506999997626,0.003506999997625826,1,52.6415287000018,52.6415287000018,52.6415287000018,52.6415287000018,52.6415287000018,52.6415287000018,55.61081600000034,56.361483299999236,52.6415287000018,52.6415287000018,3.3617118000001938,005,P016,2025_Mar_07_1412,ConditionRich,2021.2.3,59.94125756688776,
27.75,28.0,41,0.0,Stimuli/Blank.png,0,0,0.0,0,12,12,12,,,,,,,,,,,,,27.772386299999198,0.022386299999197945,None,56.39484950000042,56.39484950000042,56.39484950000042,56.39484950000042,56.39484950000042,56.39484950000042,56.39484950000042,56.39484950000042,56.39484950000042,56.39484950000042,,005,P016,2025_Mar_07_1412,ConditionRich,2021.2.3,59.94125756688776,
28.0,31.75,25,0.75,Stimuli/P016/things_deer_08s.jpg,0,0,0.0,0,13,13,13,,,,,,,,,,,,,28.005965399999695,0.005965399999695364,None,56.62839040000108,56.62839040000108,56.62839040000108,56.62839040000108,56.62839040000108,56.62839040000108,56.62839040000108,56.62839040000108,56.62839040000108,56.62839040000108,,005,P016,2025_Mar_07_1412,ConditionRich,2021.2.3,59.94125756688776,
31.75,32.0,41,0.0,Stimuli/Blank.png,0,0,0.0,0,14,14,14,,,,,,,,,,,,,31.759264199998142,0.00926419999814243,None,60.38170750000063,60.38170750000063,60.38170750000063,60.38170750000063,60.38170750000063,60.38170750000063,60.38170750000063,60.38170750000063,60.38170750000063,60.38170750000063,,005,P016,2025_Mar_07_1412,ConditionRich,2021.2.3,59.94125756688776,
32.0,35.75,34,0.75,Stimuli/P016/things_shower_cap_08s.jpg,1,3,3.75,0,15,15,15,,,,,,,,,,,,,32.01024529999995,0.010245299999951385,1,60.63193070000125,60.63193070000125,60.63193070000125,60.63193070000125,60.63193070000125,60.63193070000125,63.6178989,64.36861180000051,60.63193070000125,60.63193070000125,3.4153321999983746,005,P016,2025_Mar_07_1412,ConditionRich,2021.2.3,59.94125756688776,
35.75,36.0,41,0.0,Stimuli/Blank.png,0,0,0.0,0,16,16,16,,,,,,,,,,,,,35.764009099999384,0.014009099999384489,None,64.38525550000122,64.38525550000122,64.38525550000122,64.38525550000122,64.38525550000122,64.38525550000122,64.38525550000122,64.38525550000122,64.38525550000122,64.38525550000122,,005,P016,2025_Mar_07_1412,ConditionRich,2021.2.3,59.94125756688776,
36.0,39.75,30,0.75,Stimuli/P016/things_ottoman_08s.jpg,0,0,0.0,0,17,17,17,,,,,,,,,,,,,36.01371759999893,0.013717599998926744,None,64.63546090000091,64.63546090000091,64.63546090000091,64.63546090000091,64.63546090000091,64.63546090000091,64.63546090000091,64.63546090000091,64.63546090000091,64.63546090000091,,005,P016,2025_Mar_07_1412,ConditionRich,2021.2.3,59.94125756688776,
39.75,40.0,41,0.0,Stimuli/Blank.png,0,0,0.0,0,18,18,18,,,,,,,,,,,,,39.74953859999732,-0.0004614000026776921,None,68.37209900000016,68.37209900000016,68.37209900000016,68.37209900000016,68.37209900000016,68.37209900000016,68.37209900000016,68.37209900000016,68.37209900000016,68.37209900000016,,005,P016,2025_Mar_07_1412,ConditionRich,2021.2.3,59.94125756688776,
40.0,43.75,23,0.75,Stimuli/P016/things_boy_08s.jpg,0,0,0.0,0,19,19,19,,,,,,,,,,,,,40.00055330000032,0.000553300000319723,None,68.63900550000108,68.63900550000108,68.63900550000108,68.63900550000108,68.63900550000108,68.63900550000108,68.63900550000108,68.63900550000108,68.63900550000108,68.63900550000108,,005,P016,2025_Mar_07_1412,ConditionRich,2021.2.3,59.94125756688776,
43.75,44.0,41,0.0,Stimuli/Blank.png,0,0,0.0,0,20,20,20,,,,,,,,,,,,,43.77068909999798,0.02068909999798052,None,72.39233330000206,72.39233330000206,72.39233330000206,72.39233330000206,72.39233330000206,72.39233330000206,72.39233330000206,72.39233330000206,72.39233330000206,72.39233330000206,,005,P016,2025_Mar_07_1412,ConditionRich,2021.2.3,59.94125756688776,
44.0,47.75,2,0.75,Stimuli/P016/sun_agzfkftryitnqpxc.jpg,0,0,0.0,0,21,21,21,,,,,,,,,,,,,44.00345290000041,0.0034529000004113186,None,72.62585989999934,72.62585989999934,72.62585989999934,72.62585989999934,72.62585989999934,72.62585989999934,72.62585989999934,72.62585989999934,72.62585989999934,72.62585989999934,,005,P016,2025_Mar_07_1412,ConditionRich,2021.2.3,59.94125756688776,
47.75,48.0,41,0.0,Stimuli/Blank.png,0,0,0.0,0,22,22,22,,,,,,,,,,,,,47.757781699998304,0.007781699998304248,None,76.37918400000126,76.37918400000126,76.37918400000126,76.37918400000126,76.37918400000126,76.37918400000126,76.37918400000126,76.37918400000126,76.37918400000126,76.37918400000126,,005,P016,2025_Mar_07_1412,ConditionRich,2021.2.3,59.94125756688776,
48.0,51.75,22,0.75,Stimuli/P016/things_baby_08s.jpg,0,0,0.0,0,23,23,23,,,,,,,,,,,,,48.007505599998694,0.007505599998694379,None,76.62940000000162,76.62940000000162,76.62940000000162,76.62940000000162,76.62940000000162,76.62940000000162,76.62940000000162,76.62940000000162,76.62940000000162,76.62940000000162,,005,P016,2025_Mar_07_1412,ConditionRich,2021.2.3,59.94125756688776,
51.75,52.0,41,0.0,Stimuli/Blank.png,0,0,0.0,0,24,24,24,,,,,,,,,,,,,51.760224699999526,0.01022469999952591,None,80.38272240000151,80.38272240000151,80.38272240000151,80.38272240000151,80.38272240000151,80.38272240000151,80.38272240000151,80.38272240000151,80.38272240000151,80.38272240000151,,005,P016,2025_Mar_07_1412,ConditionRich,2021.2.3,59.94125756688776,
52.0,55.75,24,0.75,Stimuli/P016/things_bunkbed_08s.jpg,1,1,1.75,0,25,25,25,,,,,,,,,,,,,52.01123169999846,0.011231699998461409,1,80.63294420000238,80.63294420000238,80.63294420000238,80.63294420000238,80.63294420000238,80.63294420000238,81.61713529999906,82.36782690000109,80.63294420000238,80.63294420000238,1.4283242000019527,005,P016,2025_Mar_07_1412,ConditionRich,2021.2.3,59.94125756688776,
55.75,56.0,41,0.0,Stimuli/Blank.png,0,0,0.0,0,26,26,26,,,,,,,,,,,,,55.763832299999194,0.01383229999919422,None,84.3862704000021,84.3862704000021,84.3862704000021,84.3862704000021,84.3862704000021,84.3862704000021,84.3862704000021,84.3862704000021,84.3862704000021,84.3862704000021,,005,P016,2025_Mar_07_1412,ConditionRich,2021.2.3,59.94125756688776,
56.0,59.75,33,0.75,Stimuli/P016/things_raccoon_08n.jpg,1,0,0.75,0,27,27,27,,,,,,,,,,,,,56.014857300000585,0.014857300000585383,1,84.63695870000083,84.63695870000083,84.63695870000083,84.63695870000083,84.63695870000083,84.63695870000083,84.63695870000083,85.3705102999993,84.63695870000083,84.63695870000083,1.1765157999980147,005,P016,2025_Mar_07_1412,ConditionRich,2021.2.3,59.94125756688776,
59.75,60.0,41,0.0,Stimuli/Blank.png,0,0,0.0,0,28,28,28,,,,,,,,,,,,,59.75160959999994,0.0016095999999379274,None,88.37311520000003,88.37311520000003,88.37311520000003,88.37311520000003,88.37311520000003,88.37311520000003,88.37311520000003,88.37311520000003,88.37311520000003,88.37311520000003,,005,P016,2025_Mar_07_1412,ConditionRich,2021.2.3,59.94125756688776,
60.0,63.75,16,0.75,Stimuli/P016/sun_bwhuwxazfqwuqhik.jpg,0,0,0.0,0,29,29,29,,,,,,,,,,,,,60.002602299999126,0.0026022999991255347,None,88.6400171000023,88.6400171000023,88.6400171000023,88.6400171000023,88.6400171000023,88.6400171000023,88.6400171000023,88.6400171000023,88.6400171000023,88.6400171000023,,005,P016,2025_Mar_07_1412,ConditionRich,2021.2.3,59.94125756688776,
63.75,64.0,41,0.0,Stimuli/Blank.png,0,0,0.0,0,30,30,30,,,,,,,,,,,,,63.773243799998454,0.02324379999845405,None,92.41002370000206,92.41002370000206,92.41002370000206,92.41002370000206,92.41002370000206,92.41002370000206,92.41002370000206,92.41002370000206,92.41002370000206,92.41002370000206,,005,P016,2025_Mar_07_1412,ConditionRich,2021.2.3,59.94125756688776,
64.0,67.75,1,0.75,Stimuli/P016/sun_aacpzgqrortyhyss.jpg,0,0,0.0,0,31,31,31,,,,,,,,,,,,,64.02207949999865,0.022079499998653773,None,92.64355219999925,92.64355219999925,92.64355219999925,92.64355219999925,92.64355219999925,92.64355219999925,92.64355219999925,92.64355219999925,92.64355219999925,92.64355219999925,,005,P016,2025_Mar_07_1412,ConditionRich,2021.2.3,59.94125756688776,
67.75,68.0,41,0.0,Stimuli/Blank.png,0,0,0.0,0,32,32,32,,,,,,,,,,,,,67.75899389999904,0.008993899999040877,None,96.3801953000002,96.3801953000002,96.3801953000002,96.3801953000002,96.3801953000002,96.3801953000002,96.3801953000002,96.3801953000002,96.3801953000002,96.3801953000002,,005,P016,2025_Mar_07_1412,ConditionRich,2021.2.3,59.94125756688776,
68.0,71.75,14,0.75,Stimuli/P016/sun_bpvmkbyglkraoxhh.jpg,0,0,0.0,0,33,33,33,,,,,,,,,,,,,68.00853709999865,0.008537099998648046,None,96.64709389999916,96.64709389999916,96.64709389999916,96.64709389999916,96.64709389999916,96.64709389999916,96.64709389999916,96.64709389999916,96.64709389999916,96.64709389999916,,005,P016,2025_Mar_07_1412,ConditionRich,2021.2.3,59.94125756688776,
71.75,72.0,41,0.0,Stimuli/Blank.png,0,0,0.0,0,34,34,34,,,,,,,,,,,,,71.7780731999992,0.02807319999919855,None,100.4004171000015,100.4004171000015,100.4004171000015,100.4004171000015,100.4004171000015,100.4004171000015,100.4004171000015,100.4004171000015,100.4004171000015,100.4004171000015,,005,P016,2025_Mar_07_1412,ConditionRich,2021.2.3,59.94125756688776,
72.0,75.75,20,0.75,Stimuli/P016/sun_bzmxulijbnmshodq.jpg,1,0,0.75,0,35,35,35,,,,,,,,,,,,,72.01142830000026,0.011428300000261515,1,100.63396450000073,100.63396450000073,100.63396450000073,100.63396450000073,100.63396450000073,100.63396450000073,100.63396450000073,101.36797320000187,100.63396450000073,100.63396450000073,0.3033413000011933,005,P016,2025_Mar_07_1412,ConditionRich,2021.2.3,59.94125756688776,
75.75,76.0,41,0.0,Stimuli/Blank.png,0,0,0.0,0,36,36,36,,,,,,,,,,,,,75.76522929999919,0.015229299999191426,None,104.38726769999994,104.38726769999994,104.38726769999994,104.38726769999994,104.38726769999994,104.38726769999994,104.38726769999994,104.38726769999994,104.38726769999994,104.38726769999994,,005,P016,2025_Mar_07_1412,ConditionRich,2021.2.3,59.94125756688776,
76.0,79.75,21,0.75,Stimuli/P016/things_arch_08s.jpg,0,0,0.0,0,37,37,37,,,,,,,,,,,,,76.01569799999925,0.01569799999924726,None,104.65418800000043,104.65418800000043,104.65418800000043,104.65418800000043,104.65418800000043,104.65418800000043,104.65418800000043,104.65418800000043,104.65418800000043,104.65418800000043,,005,P016,2025_Mar_07_1412,ConditionRich,2021.2.3,59.94125756688776,
79.75,80.0,41,0.0,Stimuli/Blank.png,0,0,0.0,0,38,38,38,,,,,,,,,,,,,79.76843050000025,0.018430500000249594,None,108.39081100000112,108.39081100000112,108.39081100000112,108.39081100000112,108.39081100000112,108.39081100000112,108.39081100000112,108.39081100000112,108.39081100000112,108.39081100000112,,005,P016,2025_Mar_07_1412,ConditionRich,2021.2.3,59.94125756688776,
80.0,83.75,37,0.75,Stimuli/P016/things_swizzle_stick_08s.jpg,0,0,0.0,0,39,39,39,,,,,,,,,,,,,80.00191020000057,0.0019102000005659647,None,108.62435600000026,108.62435600000026,108.62435600000026,108.62435600000026,108.62435600000026,108.62435600000026,108.62435600000026,108.62435600000026,108.62435600000026,108.62435600000026,,005,P016,2025_Mar_07_1412,ConditionRich,2021.2.3,59.94125756688776,
83.75,84.0,41,0.0,Stimuli/Blank.png,0,0,0.0,0,40,40,40,,,,,,,,,,,,,83.75515889999951,0.005158899999514688,None,112.37766030000057,112.37766030000057,112.37766030000057,112.37766030000057,112.37766030000057,112.37766030000057,112.37766030000057,112.37766030000057,112.37766030000057,112.37766030000057,,005,P016,2025_Mar_07_1412,ConditionRich,2021.2.3,59.94125756688776,
84.0,100.0,0,0.0,Stimuli/Blank.png,1,13,13.75,0,41,41,41,,,,,,,,,,,,,84.00541359999988,0.005413599999883445,1,112.6278983000011,112.6278983000011,112.6278983000011,112.6278983000011,112.6278983000011,112.6278983000011,125.60602949999884,126.35673270000188,112.6278983000011,112.6278983000011,13.366355000001931,005,P016,2025_Mar_07_1412,ConditionRich,2021.2.3,59.94125756688776,
100.0,103.75,40,0.75,Stimuli/P016/things_woman_08s.jpg,0,0,0.0,0,42,42,42,,,,,,,,,,,,,100.0034811000005,0.003481100000499282,None,128.62535460000072,128.62535460000072,128.62535460000072,128.62535460000072,128.62535460000072,128.62535460000072,128.62535460000072,128.62535460000072,128.62535460000072,128.62535460000072,,005,P016,2025_Mar_07_1412,ConditionRich,2021.2.3,59.94125756688776,
103.75,104.0,41,0.0,Stimuli/Blank.png,0,0,0.0,0,43,43,43,,,,,,,,,,,,,103.75820029999886,0.008200299998861738,None,132.39536249999946,132.39536249999946,132.39536249999946,132.39536249999946,132.39536249999946,132.39536249999946,132.39536249999946,132.39536249999946,132.39536249999946,132.39536249999946,,005,P016,2025_Mar_07_1412,ConditionRich,2021.2.3,59.94125756688776,
104.0,107.75,36,0.75,Stimuli/P016/things_streetlight_08s.jpg,0,0,0.0,0,44,44,44,,,,,,,,,,,,,104.02439139999842,0.024391399998421548,None,132.66231089999928,132.66231089999928,132.66231089999928,132.66231089999928,132.66231089999928,132.66231089999928,132.66231089999928,132.66231089999928,132.66231089999928,132.66231089999928,,005,P016,2025_Mar_07_1412,ConditionRich,2021.2.3,59.94125756688776,
107.75,108.0,41,0.0,Stimuli/Blank.png,0,0,0.0,0,45,45,45,,,,,,,,,,,,,107.77837399999771,0.028373999997711508,None,136.41558889999942,136.41558889999942,136.41558889999942,136.41558889999942,136.41558889999942,136.41558889999942,136.41558889999942,136.41558889999942,136.41558889999942,136.41558889999942,,005,P016,2025_Mar_07_1412,ConditionRich,2021.2.3,59.94125756688776,
108.0,111.75,11,0.75,Stimuli/P016/sun_bnwmcjuinqbdsbho.jpg,0,0,0.0,0,46,46,46,,,,,,,,,,,,,108.02737889999844,0.02737889999843901,None,136.64912679999907,136.64912679999907,136.64912679999907,136.64912679999907,136.64912679999907,136.64912679999907,136.64912679999907,136.64912679999907,136.64912679999907,136.64912679999907,,005,P016,2025_Mar_07_1412,ConditionRich,2021.2.3,59.94125756688776,
111.75,112.0,41,0.0,Stimuli/Blank.png,0,0,0.0,0,47,47,47,,,,,,,,,,,,,111.76386249999996,0.013862499999959255,None,140.385749699999,140.385749699999,140.385749699999,140.385749699999,140.385749699999,140.385749699999,140.385749699999,140.385749699999,140.385749699999,140.385749699999,,005,P016,2025_Mar_07_1412,ConditionRich,2021.2.3,59.94125756688776,
112.0,115.75,15,0.75,Stimuli/P016/sun_bvfcijehgdsndfbg.jpg,0,0,0.0,0,48,48,48,,,,,,,,,,,,,112.01401989999795,0.014019899997947505,None,140.63598049999928,140.63598049999928,140.63598049999928,140.63598049999928,140.63598049999928,140.63598049999928,140.63598049999928,140.63598049999928,140.63598049999928,140.63598049999928,,005,P016,2025_Mar_07_1412,ConditionRich,2021.2.3,59.94125756688776,
115.75,116.0,41,0.0,Stimuli/Blank.png,0,0,0.0,0,49,49,49,,,,,,,,,,,,,115.7529226000006,0.0029226000006019603,None,144.3893076000022,144.3893076000022,144.3893076000022,144.3893076000022,144.3893076000022,144.3893076000022,144.3893076000022,144.3893076000022,144.3893076000022,144.3893076000022,,005,P016,2025_Mar_07_1412,ConditionRich,2021.2.3,59.94125756688776,
116.0,119.75,3,0.75,Stimuli/P016/sun_aiogwnavezqxkzfg.jpg,0,0,0.0,0,50,50,50,,,,,,,,,,,,,116.01712290000069,0.01712290000068606,None,144.63950780000232,144.63950780000232,144.63950780000232,144.63950780000232,144.63950780000232,144.63950780000232,144.63950780000232,144.63950780000232,144.63950780000232,144.63950780000232,,005,P016,2025_Mar_07_1412,ConditionRich,2021.2.3,59.94125756688776,
119.75,120.0,41,0.0,Stimuli/Blank.png,0,0,0.0,0,51,51,51,,,,,,,,,,,,,119.75428239999746,0.004282399997464381,None,148.37615379999988,148.37615379999988,148.37615379999988,148.37615379999988,148.37615379999988,148.37615379999988,148.37615379999988,148.37615379999988,148.37615379999988,148.37615379999988,,005,P016,2025_Mar_07_1412,ConditionRich,2021.2.3,59.94125756688776,
120.0,123.75,18,0.75,Stimuli/P016/sun_byavixgfuhzioilz.jpg,0,0,0.0,0,52,52,52,,,,,,,,,,,,,120.00412589999905,0.0041258999990532175,None,148.6263672999994,148.6263672999994,148.6263672999994,148.6263672999994,148.6263672999994,148.6263672999994,148.6263672999994,148.6263672999994,148.6263672999994,148.6263672999994,,005,P016,2025_Mar_07_1412,ConditionRich,2021.2.3,59.94125756688776,
123.75,124.0,41,0.0,Stimuli/Blank.png,0,0,0.0,0,53,53,53,,,,,,,,,,,,,123.7577566,0.007756599999993341,None,152.37966679999954,152.37966679999954,152.37966679999954,152.37966679999954,152.37966679999954,152.37966679999954,152.37966679999954,152.37966679999954,152.37966679999954,152.37966679999954,,005,P016,2025_Mar_07_1412,ConditionRich,2021.2.3,59.94125756688776,
124.0,127.75,27,0.75,Stimuli/P016/things_girl_08s.jpg,0,0,0.0,0,54,54,54,,,,,,,,,,,,,124.00800499999968,0.008004999999684514,None,152.62991150000016,152.62991150000016,152.62991150000016,152.62991150000016,152.62991150000016,152.62991150000016,152.62991150000016,152.62991150000016,152.62991150000016,152.62991150000016,,005,P016,2025_Mar_07_1412,ConditionRich,2021.2.3,59.94125756688776,
127.75,128.0,41,0.0,Stimuli/Blank.png,0,0,0.0,0,55,55,55,,,,,,,,,,,,,127.76338329999999,0.013383299999986775,None,156.39994600000136,156.39994600000136,156.39994600000136,156.39994600000136,156.39994600000136,156.39994600000136,156.39994600000136,156.39994600000136,156.39994600000136,156.39994600000136,,005,P016,2025_Mar_07_1412,ConditionRich,2021.2.3,59.94125756688776,
128.0,131.75,13,0.75,Stimuli/P016/sun_bphvjnowixlryxot.jpg,1,2,2.75,0,56,56,56,,,,,,,,,,,,,128.02770210000017,0.027702100000169594,1,156.65016370000012,156.65016370000012,156.65016370000012,156.65016370000012,156.65016370000012,156.65016370000012,158.6352193999992,159.38588100000197,156.65016370000012,156.65016370000012,2.3942974000019603,005,P016,2025_Mar_07_1412,ConditionRich,2021.2.3,59.94125756688776,
131.75,132.0,41,0.0,Stimuli/Blank.png,0,0,0.0,0,57,57,57,,,,,,,,,,,,,131.76453409999885,0.0145340999988548,None,160.38676940000005,160.38676940000005,160.38676940000005,160.38676940000005,160.38676940000005,160.38676940000005,160.38676940000005,160.38676940000005,160.38676940000005,160.38676940000005,,005,P016,2025_Mar_07_1412,ConditionRich,2021.2.3,59.94125756688776,
132.0,135.75,5,0.75,Stimuli/P016/sun_ajgmxbrxdpmsaext.jpg,0,0,0.0,0,58,58,58,,,,,,,,,,,,,132.0145135999992,0.014513599999190774,None,160.63699310000084,160.63699310000084,160.63699310000084,160.63699310000084,160.63699310000084,160.63699310000084,160.63699310000084,160.63699310000084,160.63699310000084,160.63699310000084,,005,P016,2025_Mar_07_1412,ConditionRich,2021.2.3,59.94125756688776,
135.75,136.0,41,0.0,Stimuli/Blank.png,0,0,0.0,0,59,59,59,,,,,,,,,,,,,135.75247780000063,0.0024778000006335787,None,164.37363180000102,164.37363180000102,164.37363180000102,164.37363180000102,164.37363180000102,164.37363180000102,164.37363180000102,164.37363180000102,164.37363180000102,164.37363180000102,,005,P016,2025_Mar_07_1412,ConditionRich,2021.2.3,59.94125756688776,
136.0,139.75,32,0.75,Stimuli/P016/things_pheasant_08s.jpg,1,1,1.75,0,60,60,60,,,,,,,,,,,,,136.00153219999993,0.0015321999999287073,1,164.6238439000008,164.6238439000008,164.6238439000008,164.6238439000008,164.6238439000008,164.6238439000008,165.6081008000001,166.35874719999993,164.6238439000008,164.6238439000008,1.4214499999980035,005,P016,2025_Mar_07_1412,ConditionRich,2021.2.3,59.94125756688776,
139.75,140.0,41,0.0,Stimuli/Blank.png,0,0,0.0,0,61,61,61,,,,,,,,,,,,,139.75531430000046,0.005314300000463845,None,168.37724040000103,168.37724040000103,168.37724040000103,168.37724040000103,168.37724040000103,168.37724040000103,168.37724040000103,168.37724040000103,168.37724040000103,168.37724040000103,,005,P016,2025_Mar_07_1412,ConditionRich,2021.2.3,59.94125756688776,
140.0,143.75,6,0.75,Stimuli/P016/sun_akecfasimgpbqcnt.jpg,0,0,0.0,0,62,62,62,,,,,,,,,,,,,140.00493149999966,0.004931499999656808,None,168.62741280000046,168.62741280000046,168.62741280000046,168.62741280000046,168.62741280000046,168.62741280000046,168.62741280000046,168.62741280000046,168.62741280000046,168.62741280000046,,005,P016,2025_Mar_07_1412,ConditionRich,2021.2.3,59.94125756688776,
143.75,144.0,41,0.0,Stimuli/Blank.png,0,0,0.0,0,63,63,63,,,,,,,,,,,,,143.75822549999793,0.008225499997934094,None,172.38070040000093,172.38070040000093,172.38070040000093,172.38070040000093,172.38070040000093,172.38070040000093,172.38070040000093,172.38070040000093,172.38070040000093,172.38070040000093,,005,P016,2025_Mar_07_1412,ConditionRich,2021.2.3,59.94125756688776,
144.0,147.75,7,0.75,Stimuli/P016/sun_aqdfrmtvewaapuqs.jpg,0,0,0.0,0,64,64,64,,,,,,,,,,,,,144.00833879999846,0.008338799998455215,None,172.63092730000062,172.63092730000062,172.63092730000062,172.63092730000062,172.63092730000062,172.63092730000062,172.63092730000062,172.63092730000062,172.63092730000062,172.63092730000062,,005,P016,2025_Mar_07_1412,ConditionRich,2021.2.3,59.94125756688776,
147.75,148.0,41,0.0,Stimuli/Blank.png,0,0,0.0,0,65,65,65,,,,,,,,,,,,,147.76264989999981,0.012649899999814807,None,176.38424579999992,176.38424579999992,176.38424579999992,176.38424579999992,176.38424579999992,176.38424579999992,176.38424579999992,176.38424579999992,176.38424579999992,176.38424579999992,,005,P016,2025_Mar_07_1412,ConditionRich,2021.2.3,59.94125756688776,
148.0,151.75,39,0.75,Stimuli/P016/things_window_08s.jpg,0,0,0.0,0,66,66,66,,,,,,,,,,,,,148.01267279999956,0.012672799999563722,None,176.65114190000168,176.65114190000168,176.65114190000168,176.65114190000168,176.65114190000168,176.65114190000168,176.65114190000168,176.65114190000168,176.65114190000168,176.65114190000168,,005,P016,2025_Mar_07_1412,ConditionRich,2021.2.3,59.94125756688776,
151.75,152.0,41,0.0,Stimuli/Blank.png,0,0,0.0,0,67,67,67,,,,,,,,,,,,,151.7684554999978,0.018455499997799052,None,180.40447190000123,180.40447190000123,180.40447190000123,180.40447190000123,180.40447190000123,180.40447190000123,180.40447190000123,180.40447190000123,180.40447190000123,180.40447190000123,,005,P016,2025_Mar_07_1412,ConditionRich,2021.2.3,59.94125756688776,
152.0,155.75,10,0.75,Stimuli/P016/sun_bfojpvrlsrtfyzio.jpg,0,0,0.0,0,68,68,68,,,,,,,,,,,,,152.01866299999892,0.018662999998923624,None,180.65470579999965,180.65470579999965,180.65470579999965,180.65470579999965,180.65470579999965,180.65470579999965,180.65470579999965,180.65470579999965,180.65470579999965,180.65470579999965,,005,P016,2025_Mar_07_1412,ConditionRich,2021.2.3,59.94125756688776,
155.75,156.0,41,0.0,Stimuli/Blank.png,0,0,0.0,0,69,69,69,,,,,,,,,,,,,155.76968729999862,0.01968729999862262,None,184.3913145000006,184.3913145000006,184.3913145000006,184.3913145000006,184.3913145000006,184.3913145000006,184.3913145000006,184.3913145000006,184.3913145000006,184.3913145000006,,005,P016,2025_Mar_07_1412,ConditionRich,2021.2.3,59.94125756688776,
156.0,159.75,31,0.75,Stimuli/P016/things_outlet_08s.jpg,0,0,0.0,0,70,70,70,,,,,,,,,,,,,156.00313959999767,0.0031395999976666644,None,184.6248540000015,184.6248540000015,184.6248540000015,184.6248540000015,184.6248540000015,184.6248540000015,184.6248540000015,184.6248540000015,184.6248540000015,184.6248540000015,,005,P016,2025_Mar_07_1412,ConditionRich,2021.2.3,59.94125756688776,
159.75,160.0,41,0.0,Stimuli/Blank.png,0,0,0.0,0,71,71,71,,,,,,,,,,,,,159.7586803999984,0.008680399998411303,None,188.3948679999994,188.3948679999994,188.3948679999994,188.3948679999994,188.3948679999994,188.3948679999994,188.3948679999994,188.3948679999994,188.3948679999994,188.3948679999994,,005,P016,2025_Mar_07_1412,ConditionRich,2021.2.3,59.94125756688776,
160.0,163.75,12,0.75,Stimuli/P016/sun_boffixsnbbloarty.jpg,0,0,0.0,0,72,72,72,,,,,,,,,,,,,160.02266279999822,0.022662799998215633,None,188.64507539999977,188.64507539999977,188.64507539999977,188.64507539999977,188.64507539999977,188.64507539999977,188.64507539999977,188.64507539999977,188.64507539999977,188.64507539999977,,005,P016,2025_Mar_07_1412,ConditionRich,2021.2.3,59.94125756688776,
163.75,164.0,41,0.0,Stimuli/Blank.png,0,0,0.0,0,73,73,73,,,,,,,,,,,,,163.7591919999977,0.009191999997710809,None,192.38171290000173,192.38171290000173,192.38171290000173,192.38171290000173,192.38171290000173,192.38171290000173,192.38171290000173,192.38171290000173,192.38171290000173,192.38171290000173,,005,P016,2025_Mar_07_1412,ConditionRich,2021.2.3,59.94125756688776,
164.0,167.75,35,0.75,Stimuli/P016/things_squid_08s.jpg,0,0,0.0,0,74,74,74,,,,,,,,,,,,,164.01054730000033,0.010547300000325777,None,192.64862139999968,192.64862139999968,192.64862139999968,192.64862139999968,192.64862139999968,192.64862139999968,192.64862139999968,192.64862139999968,192.64862139999968,192.64862139999968,,005,P016,2025_Mar_07_1412,ConditionRich,2021.2.3,59.94125756688776,
167.75,168.0,41,0.0,Stimuli/Blank.png,0,0,0.0,0,75,75,75,,,,,,,,,,,,,167.7795643999998,0.029564399999799207,None,196.40193030000228,196.40193030000228,196.40193030000228,196.40193030000228,196.40193030000228,196.40193030000228,196.40193030000228,196.40193030000228,196.40193030000228,196.40193030000228,,005,P016,2025_Mar_07_1412,ConditionRich,2021.2.3,59.94125756688776,
168.0,171.75,8,0.75,Stimuli/P016/sun_arldxotvfucvuudk.jpg,1,1,1.75,0,76,76,76,,,,,,,,,,,,,168.01351539999814,0.01351539999814122,1,196.63547370000015,196.63547370000015,196.63547370000015,196.63547370000015,196.63547370000015,196.63547370000015,197.6196885999998,198.37034610000046,196.63547370000015,196.63547370000015,1.4267968000021938,005,P016,2025_Mar_07_1412,ConditionRich,2021.2.3,59.94125756688776,
171.75,172.0,41,0.0,Stimuli/Blank.png,0,0,0.0,0,77,77,77,,,,,,,,,,,,,171.7503519999991,0.00035199999911128543,None,200.37220159999924,200.37220159999924,200.37220159999924,200.37220159999924,200.37220159999924,200.37220159999924,200.37220159999924,200.37220159999924,200.37220159999924,200.37220159999924,,005,P016,2025_Mar_07_1412,ConditionRich,2021.2.3,59.94125756688776,
172.0,175.75,19,0.75,Stimuli/P016/sun_bzhwvgrzvttqoexa.jpg,0,0,0.0,0,78,78,78,,,,,,,,,,,,,172.00069529999746,0.0006952999974600971,None,200.63902479999888,200.63902479999888,200.63902479999888,200.63902479999888,200.63902479999888,200.63902479999888,200.63902479999888,200.63902479999888,200.63902479999888,200.63902479999888,,005,P016,2025_Mar_07_1412,ConditionRich,2021.2.3,59.94125756688776,
175.75,176.0,41,0.0,Stimuli/Blank.png,0,0,0.0,0,79,79,79,,,,,,,,,,,,,175.77288430000044,0.022884300000441726,None,204.40901900000244,204.40901900000244,204.40901900000244,204.40901900000244,204.40901900000244,204.40901900000244,204.40901900000244,204.40901900000244,204.40901900000244,204.40901900000244,,005,P016,2025_Mar_07_1412,ConditionRich,2021.2.3,59.94125756688776,
176.0,179.75,26,0.75,Stimuli/P016/things_face_08s.jpg,1,2,2.75,0,80,80,80,,,,,,,,,,,,,176.02007410000078,0.0200741000007838,1,204.64253689999896,204.64253689999896,204.64253689999896,204.64253689999896,204.64253689999896,204.64253689999896,206.62763570000243,207.37833880000107,204.64253689999896,204.64253689999896,2.395701800000097,005,P016,2025_Mar_07_1412,ConditionRich,2021.2.3,59.94125756688776,
179.75,180.0,41,0.0,Stimuli/Blank.png,0,0,0.0,0,81,81,81,,,,,,,,,,,,,179.75697099999888,0.006970999998884508,None,208.37925910000195,208.37925910000195,208.37925910000195,208.37925910000195,208.37925910000195,208.37925910000195,208.37925910000195,208.37925910000195,208.37925910000195,208.37925910000195,,005,P016,2025_Mar_07_1412,ConditionRich,2021.2.3,59.94125756688776,
180.0,196.0,0,0.0,Stimuli/Blank.png,1,4,4.75,0,82,82,82,,,,,,,,,,,,,180.00888379999742,0.008883799997420283,1,208.62942150000163,208.62942150000163,208.62942150000163,208.62942150000163,208.62942150000163,208.62942150000163,212.6163110000016,213.36689670000123,208.62942150000163,208.62942150000163,4.35412510000242,005,P016,2025_Mar_07_1412,ConditionRich,2021.2.3,59.94125756688776,
196.0,199.75,32,0.75,Stimuli/P016/things_pheasant_08s.jpg,0,0,0.0,0,83,83,83,,,,,,,,,,,,,196.00513069999943,0.005130699999426724,1,224.6268811000009,224.6268811000009,224.6268811000009,224.6268811000009,224.6268811000009,224.6268811000009,224.6268811000009,224.6268811000009,224.6268811000009,224.6268811000009,0.4045034000009764,005,P016,2025_Mar_07_1412,ConditionRich,2021.2.3,59.94125756688776,
199.75,200.0,41,0.0,Stimuli/Blank.png,0,0,0.0,0,84,84,84,,,,,,,,,,,,,199.758715699998,0.008715699997992488,None,228.38020510000206,228.38020510000206,228.38020510000206,228.38020510000206,228.38020510000206,228.38020510000206,228.38020510000206,228.38020510000206,228.38020510000206,228.38020510000206,,005,P016,2025_Mar_07_1412,ConditionRich,2021.2.3,59.94125756688776,
200.0,203.75,38,0.75,Stimuli/P016/things_trumpet_08s.jpg,1,3,3.75,0,85,85,85,,,,,,,,,,,,,200.0086835000002,0.00868350000018836,1,228.64713449999908,228.64713449999908,228.64713449999908,228.64713449999908,228.64713449999908,228.64713449999908,231.61646699999983,232.36707430000024,228.64713449999908,228.64713449999908,3.3584754999974393,005,P016,2025_Mar_07_1412,ConditionRich,2021.2.3,59.94125756688776,
203.75,204.0,41,0.0,Stimuli/Blank.png,0,0,0.0,0,86,86,86,,,,,,,,,,,,,203.77883419999853,0.028834199998527765,None,232.40043069999956,232.40043069999956,232.40043069999956,232.40043069999956,232.40043069999956,232.40043069999956,232.40043069999956,232.40043069999956,232.40043069999956,232.40043069999956,,005,P016,2025_Mar_07_1412,ConditionRich,2021.2.3,59.94125756688776,
204.0,207.75,21,0.75,Stimuli/P016/things_arch_08s.jpg,1,2,2.75,0,87,87,87,,,,,,,,,,,,,204.0118963999994,0.011896399999386631,1,232.6339592000004,232.6339592000004,232.6339592000004,232.6339592000004,232.6339592000004,232.6339592000004,234.61905330000081,235.36971429999903,232.6339592000004,232.6339592000004,2.3086218999997072,005,P016,2025_Mar_07_1412,ConditionRich,2021.2.3,59.94125756688776,
207.75,208.0,41,0.0,Stimuli/Blank.png,0,0,0.0,0,88,88,88,,,,,,,,,,,,,207.76490790000025,0.014907900000252994,None,236.3872846000013,236.3872846000013,236.3872846000013,236.3872846000013,236.3872846000013,236.3872846000013,236.3872846000013,236.3872846000013,236.3872846000013,236.3872846000013,,005,P016,2025_Mar_07_1412,ConditionRich,2021.2.3,59.94125756688776,
208.0,211.75,15,0.75,Stimuli/P016/sun_bvfcijehgdsndfbg.jpg,0,0,0.0,0,89,89,89,,,,,,,,,,,,,208.01789690000078,0.01789690000077826,None,236.65419420000035,236.65419420000035,236.65419420000035,236.65419420000035,236.65419420000035,236.65419420000035,236.65419420000035,236.65419420000035,236.65419420000035,236.65419420000035,,005,P016,2025_Mar_07_1412,ConditionRich,2021.2.3,59.94125756688776,
211.75,212.0,41,0.0,Stimuli/Blank.png,0,0,0.0,0,90,90,90,,,,,,,,,,,,,211.76915309999822,0.01915309999822057,None,240.39079839999977,240.39079839999977,240.39079839999977,240.39079839999977,240.39079839999977,240.39079839999977,240.39079839999977,240.39079839999977,240.39079839999977,240.39079839999977,,005,P016,2025_Mar_07_1412,ConditionRich,2021.2.3,59.94125756688776,
212.0,215.75,12,0.75,Stimuli/P016/sun_boffixsnbbloarty.jpg,0,0,0.0,0,91,91,91,,,,,,,,,,,,,212.00386289999733,0.003862899997329805,None,240.64104919999954,240.64104919999954,240.64104919999954,240.64104919999954,240.64104919999954,240.64104919999954,240.64104919999954,240.64104919999954,240.64104919999954,240.64104919999954,,005,P016,2025_Mar_07_1412,ConditionRich,2021.2.3,59.94125756688776,
215.75,216.0,41,0.0,Stimuli/Blank.png,0,0,0.0,0,92,92,92,,,,,,,,,,,,,215.77291110000078,0.022911100000783335,None,244.39437610000095,244.39437610000095,244.39437610000095,244.39437610000095,244.39437610000095,244.39437610000095,244.39437610000095,244.39437610000095,244.39437610000095,244.39437610000095,,005,P016,2025_Mar_07_1412,ConditionRich,2021.2.3,59.94125756688776,
216.0,219.75,2,0.75,Stimuli/P016/sun_agzfkftryitnqpxc.jpg,0,0,0.0,0,93,93,93,,,,,,,,,,,,,216.00824939999802,0.008249399998021545,None,244.64459790000183,244.64459790000183,244.64459790000183,244.64459790000183,244.64459790000183,244.64459790000183,244.64459790000183,244.64459790000183,244.64459790000183,244.64459790000183,,005,P016,2025_Mar_07_1412,ConditionRich,2021.2.3,59.94125756688776,
219.75,220.0,41,0.0,Stimuli/Blank.png,0,0,0.0,0,94,94,94,,,,,,,,,,,,,219.7753649999977,0.025364999997691484,None,248.39790530000028,248.39790530000028,248.39790530000028,248.39790530000028,248.39790530000028,248.39790530000028,248.39790530000028,248.39790530000028,248.39790530000028,248.39790530000028,,005,P016,2025_Mar_07_1412,ConditionRich,2021.2.3,59.94125756688776,
220.0,223.75,29,0.75,Stimuli/P016/things_mouse1_08s.jpg,0,0,0.0,0,95,95,95,,,,,,,,,,,,,220.00900909999837,0.009009099998365855,None,248.63144029999967,248.63144029999967,248.63144029999967,248.63144029999967,248.63144029999967,248.63144029999967,248.63144029999967,248.63144029999967,248.63144029999967,248.63144029999967,,005,P016,2025_Mar_07_1412,ConditionRich,2021.2.3,59.94125756688776,
223.75,224.0,41,0.0,Stimuli/Blank.png,0,0,0.0,0,96,96,96,,,,,,,,,,,,,223.7625005000009,0.012500500000896864,None,252.3847566000004,252.3847566000004,252.3847566000004,252.3847566000004,252.3847566000004,252.3847566000004,252.3847566000004,252.3847566000004,252.3847566000004,252.3847566000004,,005,P016,2025_Mar_07_1412,ConditionRich,2021.2.3,59.94125756688776,
224.0,227.75,40,0.75,Stimuli/P016/things_woman_08s.jpg,0,0,0.0,0,97,97,97,,,,,,,,,,,,,224.01344649999737,0.013446499997371575,None,252.6349811,252.6349811,252.6349811,252.6349811,252.6349811,252.6349811,252.6349811,252.6349811,252.6349811,252.6349811,,005,P016,2025_Mar_07_1412,ConditionRich,2021.2.3,59.94125756688776,
227.75,228.0,41,0.0,Stimuli/Blank.png,0,0,0.0,0,98,98,98,,,,,,,,,,,,,227.74912330000006,-0.0008766999999352265,None,256.3716104000014,256.3716104000014,256.3716104000014,256.3716104000014,256.3716104000014,256.3716104000014,256.3716104000014,256.3716104000014,256.3716104000014,256.3716104000014,,005,P016,2025_Mar_07_1412,ConditionRich,2021.2.3,59.94125756688776,
228.0,231.75,23,0.75,Stimuli/P016/things_boy_08s.jpg,0,0,0.0,0,99,99,99,,,,,,,,,,,,,228.00027399999817,0.0002739999981713481,None,256.6385369000018,256.6385369000018,256.6385369000018,256.6385369000018,256.6385369000018,256.6385369000018,256.6385369000018,256.6385369000018,256.6385369000018,256.6385369000018,,005,P016,2025_Mar_07_1412,ConditionRich,2021.2.3,59.94125756688776,
231.75,232.0,41,0.0,Stimuli/Blank.png,0,0,0.0,0,100,100,100,,,,,,,,,,,,,231.77025890000004,0.020258900000044378,None,260.39196860000084,260.39196860000084,260.39196860000084,260.39196860000084,260.39196860000084,260.39196860000084,260.39196860000084,260.39196860000084,260.39196860000084,260.39196860000084,,005,P016,2025_Mar_07_1412,ConditionRich,2021.2.3,59.94125756688776,
232.0,235.75,35,0.75,Stimuli/P016/things_squid_08s.jpg,0,0,0.0,0,101,101,101,,,,,,,,,,,,,232.00358699999924,0.0035869999992428347,None,260.62537330000123,260.62537330000123,260.62537330000123,260.62537330000123,260.62537330000123,260.62537330000123,260.62537330000123,260.62537330000123,260.62537330000123,260.62537330000123,,005,P016,2025_Mar_07_1412,ConditionRich,2021.2.3,59.94125756688776,
235.75,236.0,41,0.0,Stimuli/Blank.png,0,0,0.0,0,102,102,102,,,,,,,,,,,,,235.75780649999797,0.0078064999979687855,None,264.37869950000095,264.37869950000095,264.37869950000095,264.37869950000095,264.37869950000095,264.37869950000095,264.37869950000095,264.37869950000095,264.37869950000095,264.37869950000095,,005,P016,2025_Mar_07_1412,ConditionRich,2021.2.3,59.94125756688776,
236.0,239.75,7,0.75,Stimuli/P016/sun_aqdfrmtvewaapuqs.jpg,0,0,0.0,0,103,103,103,,,,,,,,,,,,,236.00932869999815,0.009328699998150114,None,264.6456070999993,264.6456070999993,264.6456070999993,264.6456070999993,264.6456070999993,264.6456070999993,264.6456070999993,264.6456070999993,264.6456070999993,264.6456070999993,,005,P016,2025_Mar_07_1412,ConditionRich,2021.2.3,59.94125756688776,
239.75,240.0,41,0.0,Stimuli/Blank.png,0,0,0.0,0,104,104,104,,,,,,,,,,,,,239.77927210000053,0.029272100000525825,None,268.41562970000086,268.41562970000086,268.41562970000086,268.41562970000086,268.41562970000086,268.41562970000086,268.41562970000086,268.41562970000086,268.41562970000086,268.41562970000086,,005,P016,2025_Mar_07_1412,ConditionRich,2021.2.3,59.94125756688776,
240.0,243.75,36,0.75,Stimuli/P016/things_streetlight_08s.jpg,0,0,0.0,0,105,105,105,,,,,,,,,,,,,240.02668769999946,0.026687699999456527,None,268.6491391000018,268.6491391000018,268.6491391000018,268.6491391000018,268.6491391000018,268.6491391000018,268.6491391000018,268.6491391000018,268.6491391000018,268.6491391000018,,005,P016,2025_Mar_07_1412,ConditionRich,2021.2.3,59.94125756688776,
243.75,244.0,41,0.0,Stimuli/Blank.png,0,0,0.0,0,106,106,106,,,,,,,,,,,,,243.76479610000024,0.014796100000239676,None,272.4025001000009,272.4025001000009,272.4025001000009,272.4025001000009,272.4025001000009,272.4025001000009,272.4025001000009,272.4025001000009,272.4025001000009,272.4025001000009,,005,P016,2025_Mar_07_1412,ConditionRich,2021.2.3,59.94125756688776,
244.0,247.75,11,0.75,Stimuli/P016/sun_bnwmcjuinqbdsbho.jpg,0,0,0.0,0,107,107,107,,,,,,,,,,,,,244.03131349999967,0.03131349999966915,None,272.669372700002,272.669372700002,272.669372700002,272.669372700002,272.669372700002,272.669372700002,272.669372700002,272.669372700002,272.669372700002,272.669372700002,,005,P016,2025_Mar_07_1412,ConditionRich,2021.2.3,59.94125756688776,
247.75,248.0,41,0.0,Stimuli/Blank.png,0,0,0.0,0,108,108,108,,,,,,,,,,,,,247.76677019999988,0.016770199999882607,None,276.3893018000017,276.3893018000017,276.3893018000017,276.3893018000017,276.3893018000017,276.3893018000017,276.3893018000017,276.3893018000017,276.3893018000017,276.3893018000017,,005,P016,2025_Mar_07_1412,ConditionRich,2021.2.3,59.94125756688776,
248.0,251.75,22,0.75,Stimuli/P016/things_baby_08s.jpg,0,0,0.0,0,109,109,109,,,,,,,,,,,,,248.00292450000052,0.0029245000005175825,None,276.6395306000013,276.6395306000013,276.6395306000013,276.6395306000013,276.6395306000013,276.6395306000013,276.6395306000013,276.6395306000013,276.6395306000013,276.6395306000013,,005,P016,2025_Mar_07_1412,ConditionRich,2021.2.3,59.94125756688776,
251.75,252.0,41,0.0,Stimuli/Blank.png,0,0,0.0,0,110,110,110,,,,,,,,,,,,,251.7703278000008,0.020327800000814022,None,280.39294560000053,280.39294560000053,280.39294560000053,280.39294560000053,280.39294560000053,280.39294560000053,280.39294560000053,280.39294560000053,280.39294560000053,280.39294560000053,,005,P016,2025_Mar_07_1412,ConditionRich,2021.2.3,59.94125756688776,
252.0,255.75,17,0.75,Stimuli/P016/sun_bxhbltvqnpaciuzt.jpg,1,3,3.75,0,111,111,111,,,,,,,,,,,,,252.00414699999965,0.00414699999964796,1,280.6263856000005,280.6263856000005,280.6263856000005,280.6263856000005,280.6263856000005,280.6263856000005,283.6123241000023,284.36311840000053,280.6263856000005,280.6263856000005,3.3799694999979693,005,P016,2025_Mar_07_1412,ConditionRich,2021.2.3,59.94125756688776,
255.75,256.0,41,0.0,Stimuli/Blank.png,0,0,0.0,0,112,112,112,,,,,,,,,,,,,255.75857769999857,0.008577699998568278,None,284.3797924999999,284.3797924999999,284.3797924999999,284.3797924999999,284.3797924999999,284.3797924999999,284.3797924999999,284.3797924999999,284.3797924999999,284.3797924999999,,005,P016,2025_Mar_07_1412,ConditionRich,2021.2.3,59.94125756688776,
256.0,259.75,14,0.75,Stimuli/P016/sun_bpvmkbyglkraoxhh.jpg,0,0,0.0,0,113,113,113,,,,,,,,,,,,,256.0076475999995,0.007647599999472732,None,284.62992040000245,284.62992040000245,284.62992040000245,284.62992040000245,284.62992040000245,284.62992040000245,284.62992040000245,284.62992040000245,284.62992040000245,284.62992040000245,,005,P016,2025_Mar_07_1412,ConditionRich,2021.2.3,59.94125756688776,
259.75,260.0,41,0.0,Stimuli/Blank.png,0,0,0.0,0,114,114,114,,,,,,,,,,,,,259.76232569999775,0.012325699997745687,None,288.38325780000014,288.38325780000014,288.38325780000014,288.38325780000014,288.38325780000014,288.38325780000014,288.38325780000014,288.38325780000014,288.38325780000014,288.38325780000014,,005,P016,2025_Mar_07_1412,ConditionRich,2021.2.3,59.94125756688776,
260.0,263.75,6,0.75,Stimuli/P016/sun_akecfasimgpbqcnt.jpg,0,0,0.0,0,115,115,115,,,,,,,,,,,,,260.0142756999994,0.014275699999416247,None,288.650147700002,288.650147700002,288.650147700002,288.650147700002,288.650147700002,288.650147700002,288.650147700002,288.650147700002,288.650147700002,288.650147700002,,005,P016,2025_Mar_07_1412,ConditionRich,2021.2.3,59.94125756688776,
263.75,264.0,41,0.0,Stimuli/Blank.png,0,0,0.0,0,116,116,116,,,,,,,,,,,,,263.7650092999975,0.015009299997473136,None,292.386747200002,292.386747200002,292.386747200002,292.386747200002,292.386747200002,292.386747200002,292.386747200002,292.386747200002,292.386747200002,292.386747200002,,005,P016,2025_Mar_07_1412,ConditionRich,2021.2.3,59.94125756688776,
264.0,267.75,3,0.75,Stimuli/P016/sun_aiogwnavezqxkzfg.jpg,1,1,1.75,0,117,117,117,,,,,,,,,,,,,264.0147312000008,0.014731200000824174,1,292.6369964000005,292.6369964000005,292.6369964000005,292.6369964000005,292.6369964000005,292.6369964000005,293.62126609999905,294.3719314000009,292.6369964000005,292.6369964000005,1.390651199999411,005,P016,2025_Mar_07_1412,ConditionRich,2021.2.3,59.94125756688776,
267.75,268.0,41,0.0,Stimuli/Blank.png,0,0,0.0,0,118,118,118,,,,,,,,,,,,,267.75185950000014,0.0018595000001369044,None,296.37363560000085,296.37363560000085,296.37363560000085,296.37363560000085,296.37363560000085,296.37363560000085,296.37363560000085,296.37363560000085,296.37363560000085,296.37363560000085,,005,P016,2025_Mar_07_1412,ConditionRich,2021.2.3,59.94125756688776,
268.0,271.75,9,0.75,Stimuli/P016/sun_bbdgftzhpkaklkll.jpg,0,0,0.0,0,119,119,119,,,,,,,,,,,,,268.0025069999974,0.002506999997422099,None,296.64053609999974,296.64053609999974,296.64053609999974,296.64053609999974,296.64053609999974,296.64053609999974,296.64053609999974,296.64053609999974,296.64053609999974,296.64053609999974,,005,P016,2025_Mar_07_1412,ConditionRich,2021.2.3,59.94125756688776,
271.75,272.0,41,0.0,Stimuli/Blank.png,0,0,0.0,0,120,120,120,,,,,,,,,,,,,271.77158599999893,0.021585999998933403,None,300.39386509999895,300.39386509999895,300.39386509999895,300.39386509999895,300.39386509999895,300.39386509999895,300.39386509999895,300.39386509999895,300.39386509999895,300.39386509999895,,005,P016,2025_Mar_07_1412,ConditionRich,2021.2.3,59.94125756688776,
272.0,275.75,19,0.75,Stimuli/P016/sun_bzhwvgrzvttqoexa.jpg,0,0,0.0,0,121,121,121,,,,,,,,,,,,,272.00556890000007,0.005568900000071153,None,300.64410209999915,300.64410209999915,300.64410209999915,300.64410209999915,300.64410209999915,300.64410209999915,300.64410209999915,300.64410209999915,300.64410209999915,300.64410209999915,,005,P016,2025_Mar_07_1412,ConditionRich,2021.2.3,59.94125756688776,
275.75,276.0,41,0.0,Stimuli/Blank.png,0,0,0.0,0,122,122,122,,,,,,,,,,,,,275.7757383999997,0.02573839999968186,None,304.3973928000014,304.3973928000014,304.3973928000014,304.3973928000014,304.3973928000014,304.3973928000014,304.3973928000014,304.3973928000014,304.3973928000014,304.3973928000014,,005,P016,2025_Mar_07_1412,ConditionRich,2021.2.3,59.94125756688776,
276.0,292.0,0,0.0,Stimuli/Blank.png,1,7,7.75,0,123,123,123,,,,,,,,,,,,,276.00941690000036,0.009416900000360329,1,304.63093110000045,304.63093110000045,304.63093110000045,304.63093110000045,304.63093110000045,304.63093110000045,311.62042440000005,312.37111110000114,304.63093110000045,304.63093110000045,7.332586199998332,005,P016,2025_Mar_07_1412,ConditionRich,2021.2.3,59.94125756688776,
292.0,295.75,37,0.75,Stimuli/P016/things_swizzle_stick_08s.jpg,1,0,0.75,0,124,124,124,,,,,,,,,,,,,292.00824739999734,0.008247399997344473,1,320.645169899999,320.645169899999,320.645169899999,320.645169899999,320.645169899999,320.645169899999,320.645169899999,321.379103700001,320.645169899999,320.645169899999,0.3694498000004387,005,P016,2025_Mar_07_1412,ConditionRich,2021.2.3,59.94125756688776,
295.75,296.0,41,0.0,Stimuli/Blank.png,0,0,0.0,0,125,125,125,,,,,,,,,,,,,295.7784299999985,0.028429999998479616,None,324.4150934999998,324.4150934999998,324.4150934999998,324.4150934999998,324.4150934999998,324.4150934999998,324.4150934999998,324.4150934999998,324.4150934999998,324.4150934999998,,005,P016,2025_Mar_07_1412,ConditionRich,2021.2.3,59.94125756688776,
296.0,299.75,18,0.75,Stimuli/P016/sun_byavixgfuhzioilz.jpg,0,0,0.0,0,126,126,126,,,,,,,,,,,,,296.0289675999993,0.028967599999305094,None,324.6653413999993,324.6653413999993,324.6653413999993,324.6653413999993,324.6653413999993,324.6653413999993,324.6653413999993,324.6653413999993,324.6653413999993,324.6653413999993,,005,P016,2025_Mar_07_1412,ConditionRich,2021.2.3,59.94125756688776,
299.75,300.0,41,0.0,Stimuli/Blank.png,0,0,0.0,0,127,127,127,,,,,,,,,,,,,299.7795600999998,0.029560099999798695,None,328.40194650000194,328.40194650000194,328.40194650000194,328.40194650000194,328.40194650000194,328.40194650000194,328.40194650000194,328.40194650000194,328.40194650000194,328.40194650000194,,005,P016,2025_Mar_07_1412,ConditionRich,2021.2.3,59.94125756688776,
300.0,303.75,5,0.75,Stimuli/P016/sun_ajgmxbrxdpmsaext.jpg,0,0,0.0,0,128,128,128,,,,,,,,,,,,,300.0143618000002,0.014361800000187941,None,328.63548789999913,328.63548789999913,328.63548789999913,328.63548789999913,328.63548789999913,328.63548789999913,328.63548789999913,328.63548789999913,328.63548789999913,328.63548789999913,,005,P016,2025_Mar_07_1412,ConditionRich,2021.2.3,59.94125756688776,
303.75,304.0,41,0.0,Stimuli/Blank.png,0,0,0.0,0,129,129,129,,,,,,,,,,,,,303.75083529999756,0.0008352999975613784,None,332.37214479999966,332.37214479999966,332.37214479999966,332.37214479999966,332.37214479999966,332.37214479999966,332.37214479999966,332.37214479999966,332.37214479999966,332.37214479999966,,005,P016,2025_Mar_07_1412,ConditionRich,2021.2.3,59.94125756688776,
304.0,307.75,26,0.75,Stimuli/P016/things_face_08s.jpg,1,1,1.75,0,130,130,130,,,,,,,,,,,,,304.00303429999985,0.003034299999853829,1,332.63902959999905,332.63902959999905,332.63902959999905,332.63902959999905,332.63902959999905,332.63902959999905,333.6232598000024,334.37392190000173,332.63902959999905,332.63902959999905,1.387256800000614,005,P016,2025_Mar_07_1412,ConditionRich,2021.2.3,59.94125756688776,
307.75,308.0,41,0.0,Stimuli/Blank.png,0,0,0.0,0,131,131,131,,,,,,,,,,,,,307.7705896999978,0.02058969999779947,None,336.3924334000003,336.3924334000003,336.3924334000003,336.3924334000003,336.3924334000003,336.3924334000003,336.3924334000003,336.3924334000003,336.3924334000003,336.3924334000003,,005,P016,2025_Mar_07_1412,ConditionRich,2021.2.3,59.94125756688776,
308.0,311.75,1,0.75,Stimuli/P016/sun_aacpzgqrortyhyss.jpg,0,0,0.0,0,132,132,132,,,,,,,,,,,,,308.0041495999976,0.00414959999761777,None,336.62588479999977,336.62588479999977,336.62588479999977,336.62588479999977,336.62588479999977,336.62588479999977,336.62588479999977,336.62588479999977,336.62588479999977,336.62588479999977,,005,P016,2025_Mar_07_1412,ConditionRich,2021.2.3,59.94125756688776,
311.75,312.0,41,0.0,Stimuli/Blank.png,0,0,0.0,0,133,133,133,,,,,,,,,,,,,311.7567382999987,0.00673829999868758,None,340.37920099999974,340.37920099999974,340.37920099999974,340.37920099999974,340.37920099999974,340.37920099999974,340.37920099999974,340.37920099999974,340.37920099999974,340.37920099999974,,005,P016,2025_Mar_07_1412,ConditionRich,2021.2.3,59.94125756688776,
312.0,315.75,34,0.75,Stimuli/P016/things_shower_cap_08s.jpg,0,0,0.0,0,134,134,134,,,,,,,,,,,,,312.0079647999992,0.0079647999991721,None,340.6294248000013,340.6294248000013,340.6294248000013,340.6294248000013,340.6294248000013,340.6294248000013,340.6294248000013,340.6294248000013,340.6294248000013,340.6294248000013,,005,P016,2025_Mar_07_1412,ConditionRich,2021.2.3,59.94125756688776,
315.75,316.0,41,0.0,Stimuli/Blank.png,0,0,0.0,0,135,135,135,,,,,,,,,,,,,315.7638530000004,0.013853000000381144,None,344.39947210000173,344.39947210000173,344.39947210000173,344.39947210000173,344.39947210000173,344.39947210000173,344.39947210000173,344.39947210000173,344.39947210000173,344.39947210000173,,005,P016,2025_Mar_07_1412,ConditionRich,2021.2.3,59.94125756688776,
316.0,319.75,8,0.75,Stimuli/P016/sun_arldxotvfucvuudk.jpg,0,0,0.0,0,136,136,136,,,,,,,,,,,,,316.0272425999974,0.027242599997407524,None,344.6496398999989,344.6496398999989,344.6496398999989,344.6496398999989,344.6496398999989,344.6496398999989,344.6496398999989,344.6496398999989,344.6496398999989,344.6496398999989,,005,P016,2025_Mar_07_1412,ConditionRich,2021.2.3,59.94125756688776,
319.75,320.0,41,0.0,Stimuli/Blank.png,0,0,0.0,0,137,137,137,,,,,,,,,,,,,319.76466269999946,0.014662699999462347,None,348.386277900001,348.386277900001,348.386277900001,348.386277900001,348.386277900001,348.386277900001,348.386277900001,348.386277900001,348.386277900001,348.386277900001,,005,P016,2025_Mar_07_1412,ConditionRich,2021.2.3,59.94125756688776,
320.0,323.75,31,0.75,Stimuli/P016/things_outlet_08s.jpg,0,0,0.0,0,138,138,138,,,,,,,,,,,,,320.0141958999993,0.014195899999322137,None,348.6365048000007,348.6365048000007,348.6365048000007,348.6365048000007,348.6365048000007,348.6365048000007,348.6365048000007,348.6365048000007,348.6365048000007,348.6365048000007,,005,P016,2025_Mar_07_1412,ConditionRich,2021.2.3,59.94125756688776,
323.75,324.0,41,0.0,Stimuli/Blank.png,0,0,0.0,0,139,139,139,,,,,,,,,,,,,323.7533645000003,0.003364500000316184,None,352.38983279999957,352.38983279999957,352.38983279999957,352.38983279999957,352.38983279999957,352.38983279999957,352.38983279999957,352.38983279999957,352.38983279999957,352.38983279999957,,005,P016,2025_Mar_07_1412,ConditionRich,2021.2.3,59.94125756688776,
324.0,327.75,27,0.75,Stimuli/P016/things_girl_08s.jpg,0,0,0.0,0,140,140,140,,,,,,,,,,,,,324.01754679999794,0.017546799997944618,None,352.64004320000095,352.64004320000095,352.64004320000095,352.64004320000095,352.64004320000095,352.64004320000095,352.64004320000095,352.64004320000095,352.64004320000095,352.64004320000095,,005,P016,2025_Mar_07_1412,ConditionRich,2021.2.3,59.94125756688776,
327.75,328.0,41,0.0,Stimuli/Blank.png,0,0,0.0,0,141,141,141,,,,,,,,,,,,,327.7543207999988,0.004320799998822622,None,356.3766704000009,356.3766704000009,356.3766704000009,356.3766704000009,356.3766704000009,356.3766704000009,356.3766704000009,356.3766704000009,356.3766704000009,356.3766704000009,,005,P016,2025_Mar_07_1412,ConditionRich,2021.2.3,59.94125756688776,
328.0,331.75,39,0.75,Stimuli/P016/things_window_08s.jpg,0,0,0.0,0,142,142,142,,,,,,,,,,,,,328.00551039999846,0.005510399998456705,None,356.6268974000013,356.6268974000013,356.6268974000013,356.6268974000013,356.6268974000013,356.6268974000013,356.6268974000013,356.6268974000013,356.6268974000013,356.6268974000013,,005,P016,2025_Mar_07_1412,ConditionRich,2021.2.3,59.94125756688776,
331.75,332.0,41,0.0,Stimuli/Blank.png,0,0,0.0,0,143,143,143,,,,,,,,,,,,,331.75874079999994,0.008740799999941373,None,360.39691270000185,360.39691270000185,360.39691270000185,360.39691270000185,360.39691270000185,360.39691270000185,360.39691270000185,360.39691270000185,360.39691270000185,360.39691270000185,,005,P016,2025_Mar_07_1412,ConditionRich,2021.2.3,59.94125756688776,
332.0,335.75,24,0.75,Stimuli/P016/things_bunkbed_08s.jpg,1,3,3.75,0,144,144,144,,,,,,,,,,,,,332.02478789999805,0.02478789999804576,1,360.64712470000086,360.64712470000086,360.64712470000086,360.64712470000086,360.64712470000086,360.64712470000086,363.6331143999996,None,360.64712470000086,360.64712470000086,3.43832349999866,005,P016,2025_Mar_07_1412,ConditionRich,2021.2.3,59.94125756688776,
335.75,336.0,41,0.0,Stimuli/Blank.png,0,0,0.0,0,145,145,145,,,,,,,,,,,,,335.7618516000002,0.011851600000227336,None,364.3837929000001,364.3837929000001,364.3837929000001,364.3837929000001,364.3837929000001,364.3837929000001,364.3837929000001,364.3837929000001,364.3837929000001,364.3837929000001,,005,P016,2025_Mar_07_1412,ConditionRich,2021.2.3,59.94125756688776,
336.0,339.75,16,0.75,Stimuli/P016/sun_bwhuwxazfqwuqhik.jpg,0,0,0.0,0,146,146,146,,,,,,,,,,,,,336.0124988999996,0.01249889999962761,None,364.6506608999989,364.6506608999989,364.6506608999989,364.6506608999989,364.6506608999989,364.6506608999989,364.6506608999989,364.6506608999989,364.6506608999989,364.6506608999989,,005,P016,2025_Mar_07_1412,ConditionRich,2021.2.3,59.94125756688776,
339.75,340.0,41,0.0,Stimuli/Blank.png,0,0,0.0,0,147,147,147,,,,,,,,,,,,,339.76562869999907,0.015628699999069795,None,368.38729220000096,368.38729220000096,368.38729220000096,368.38729220000096,368.38729220000096,368.38729220000096,368.38729220000096,368.38729220000096,368.38729220000096,368.38729220000096,,005,P016,2025_Mar_07_1412,ConditionRich,2021.2.3,59.94125756688776,
340.0,343.75,30,0.75,Stimuli/P016/things_ottoman_08s.jpg,0,0,0.0,0,148,148,148,,,,,,,,,,,,,339.99907579999854,-0.0009242000014637597,None,368.6208316000011,368.6208316000011,368.6208316000011,368.6208316000011,368.6208316000011,368.6208316000011,368.6208316000011,368.6208316000011,368.6208316000011,368.6208316000011,,005,P016,2025_Mar_07_1412,ConditionRich,2021.2.3,59.94125756688776,
343.75,344.0,41,0.0,Stimuli/Blank.png,0,0,0.0,0,149,149,149,,,,,,,,,,,,,343.7542976000004,0.004297600000427337,None,372.3907996000016,372.3907996000016,372.3907996000016,372.3907996000016,372.3907996000016,372.3907996000016,372.3907996000016,372.3907996000016,372.3907996000016,372.3907996000016,,005,P016,2025_Mar_07_1412,ConditionRich,2021.2.3,59.94125756688776,
344.0,347.75,25,0.75,Stimuli/P016/things_deer_08s.jpg,0,0,0.0,0,150,150,150,,,,,,,,,,,,,344.01861709999866,0.018617099998664344,None,372.64106750000064,372.64106750000064,372.64106750000064,372.64106750000064,372.64106750000064,372.64106750000064,372.64106750000064,372.64106750000064,372.64106750000064,372.64106750000064,,005,P016,2025_Mar_07_1412,ConditionRich,2021.2.3,59.94125756688776,
347.75,348.0,41,0.0,Stimuli/Blank.png,0,0,0.0,0,151,151,151,,,,,,,,,,,,,347.7586793999981,0.008679399998072768,None,376.394397,376.394397,376.394397,376.394397,376.394397,376.394397,376.394397,376.394397,376.394397,376.394397,,005,P016,2025_Mar_07_1412,ConditionRich,2021.2.3,59.94125756688776,
348.0,351.75,20,0.75,Stimuli/P016/sun_bzmxulijbnmshodq.jpg,0,0,0.0,0,152,152,152,,,,,,,,,,,,,348.02293839999766,0.022938399997656234,None,376.661282699999,376.661282699999,376.661282699999,376.661282699999,376.661282699999,376.661282699999,376.661282699999,376.661282699999,376.661282699999,376.661282699999,,005,P016,2025_Mar_07_1412,ConditionRich,2021.2.3,59.94125756688776,
351.75,352.0,41,0.0,Stimuli/Blank.png,0,0,0.0,0,153,153,153,,,,,,,,,,,,,351.77890470000057,0.028904700000566663,None,380.41460799999913,380.41460799999913,380.41460799999913,380.41460799999913,380.41460799999913,380.41460799999913,380.41460799999913,380.41460799999913,380.41460799999913,380.41460799999913,,005,P016,2025_Mar_07_1412,ConditionRich,2021.2.3,59.94125756688776,
352.0,355.75,10,0.75,Stimuli/P016/sun_bfojpvrlsrtfyzio.jpg,0,0,0.0,0,154,154,154,,,,,,,,,,,,,352.0280504000002,0.028050400000211084,None,380.6648232000007,380.6648232000007,380.6648232000007,380.6648232000007,380.6648232000007,380.6648232000007,380.6648232000007,380.6648232000007,380.6648232000007,380.6648232000007,,005,P016,2025_Mar_07_1412,ConditionRich,2021.2.3,59.94125756688776,
355.75,356.0,41,0.0,Stimuli/Blank.png,0,0,0.0,0,155,155,155,,,,,,,,,,,,,355.7790411999995,0.02904119999948307,None,384.4014472000017,384.4014472000017,384.4014472000017,384.4014472000017,384.4014472000017,384.4014472000017,384.4014472000017,384.4014472000017,384.4014472000017,384.4014472000017,,005,P016,2025_Mar_07_1412,ConditionRich,2021.2.3,59.94125756688776,
356.0,359.75,4,0.75,Stimuli/P016/sun_aiwuqxdqzftsfyeg.jpg,0,0,0.0,0,156,156,156,,,,,,,,,,,,,356.0136620999983,0.013662099998327903,None,384.63501220000035,384.63501220000035,384.63501220000035,384.63501220000035,384.63501220000035,384.63501220000035,384.63501220000035,384.63501220000035,384.63501220000035,384.63501220000035,,005,P016,2025_Mar_07_1412,ConditionRich,2021.2.3,59.94125756688776,
359.75,360.0,41,0.0,Stimuli/Blank.png,0,0,0.0,0,157,157,157,,,,,,,,,,,,,359.7502733000001,0.0002733000001171604,None,388.3716306999995,388.3716306999995,388.3716306999995,388.3716306999995,388.3716306999995,388.3716306999995,388.3716306999995,388.3716306999995,388.3716306999995,388.3716306999995,,005,P016,2025_Mar_07_1412,ConditionRich,2021.2.3,59.94125756688776,
360.0,363.75,28,0.75,Stimuli/P016/things_latte_08s.jpg,0,0,0.0,0,158,158,158,,,,,,,,,,,,,359.999966899999,-3.310000101919286e-05,None,388.6390734000015,388.6390734000015,388.6390734000015,388.6390734000015,388.6390734000015,388.6390734000015,388.6390734000015,388.6390734000015,388.6390734000015,388.6390734000015,,005,P016,2025_Mar_07_1412,ConditionRich,2021.2.3,59.94125756688776,
363.75,364.0,41,0.0,Stimuli/Blank.png,0,0,0.0,0,159,159,159,,,,,,,,,,,,,363.7700248000001,0.020024800000101095,None,392.39188090000243,392.39188090000243,392.39188090000243,392.39188090000243,392.39188090000243,392.39188090000243,392.39188090000243,392.39188090000243,392.39188090000243,392.39188090000243,,005,P016,2025_Mar_07_1412,ConditionRich,2021.2.3,59.94125756688776,
364.0,367.75,13,0.75,Stimuli/P016/sun_bphvjnowixlryxot.jpg,1,1,1.75,0,160,160,160,,,,,,,,,,,,,364.00354289999814,0.0035428999981377274,2,392.6254250999991,392.6254250999991,392.6254250999991,392.6254250999991,392.6254250999991,392.6254250999991,393.6095664000022,394.3602533000012,392.6254250999991,392.6254250999991,1.636012099999789,005,P016,2025_Mar_07_1412,ConditionRich,2021.2.3,59.94125756688776,
367.75,368.0,41,0.0,Stimuli/Blank.png,0,0,0.0,0,161,161,161,,,,,,,,,,,,,367.7583225999988,0.008322599998791702,None,396.3954010000016,396.3954010000016,396.3954010000016,396.3954010000016,396.3954010000016,396.3954010000016,396.3954010000016,396.3954010000016,396.3954010000016,396.3954010000016,,005,P016,2025_Mar_07_1412,ConditionRich,2021.2.3,59.94125756688776,
368.0,371.75,33,0.75,Stimuli/P016/things_raccoon_08n.jpg,0,0,0.0,0,162,162,162,,,,,,,,,,,,,368.02406749999864,0.024067499998636777,None,396.6622935000014,396.6622935000014,396.6622935000014,396.6622935000014,396.6622935000014,396.6622935000014,396.6622935000014,396.6622935000014,396.6622935000014,396.6622935000014,,005,P016,2025_Mar_07_1412,ConditionRich,2021.2.3,59.94125756688776,
371.75,372.0,41,0.0,Stimuli/Blank.png,0,0,0.0,0,163,163,163,,,,,,,,,,,,,371.7784802999995,0.028480299999500858,None,400.41561360000196,400.41561360000196,400.41561360000196,400.41561360000196,400.41561360000196,400.41561360000196,400.41561360000196,400.41561360000196,400.41561360000196,400.41561360000196,,005,P016,2025_Mar_07_1412,ConditionRich,2021.2.3,59.94125756688776,
372.0,388.0,0,0.0,Stimuli/Blank.png,1,2,2.75,0,164,164,164,,,,,,,,,,,,,372.02932879999935,0.02932879999934812,1,400.6658320000024,400.6658320000024,400.6658320000024,400.6658320000024,400.6658320000024,400.6658320000024,402.65095719999954,403.4016317000023,400.6658320000024,400.6658320000024,2.5124835000024177,005,P016,2025_Mar_07_1412,ConditionRich,2021.2.3,59.94125756688776,
