eventStartTime,eventEndTime,eventCond,imSize,imFile,responseEvent,fixRespStart,fixRespEnd,Events.thisRepN,Events.thisTrialN,Events.thisN,Events.thisIndex,Instructions.started,Instructions.stopped,participantReadyResponse.keys,participantReadyResponse.rt,participantReadyResponse.started,participantReadyResponse.stopped,startWaitforTrigger,triggerResponse.keys,triggerResponse.rt,triggerResponse.started,triggerResponse.stopped,globalTimer,actualStartTime,startTimingDiff,participantResponse.keys,participantResponse.started,participantResponse.stopped,image.started,image.stopped,fixationOutside.started,fixationOutside.stopped,fixationResponse.started,fixationResponse.stopped,fixationInside.started,fixationInside.stopped,participantResponse.rt,session,participant,date,expName,psychopyVersion,frameRate,
,,,,,,,,,,,,11.128360999999131,None,1,19.943211099998734,11.128360999999131,None,,,,,,,,,,,,,,,,,,,,,004,P016,2025_Mar_07_1405,ConditionRich,2021.2.3,59.93382107495383,
,,,,,,,,,,,,,,,,,,31.088486299999204,5,15.61521310000171,31.101287100002082,None,,,,,,,,,,,,,,,,004,P016,2025_Mar_07_1405,ConditionRich,2021.2.3,59.93382107495383,
0.0,4.0,0,0.0,Stimuli/Blank.png,0,0.0,0.0,0,0,0,0,,,,,,,,,,,,46.73515939999925,0.04273570000077598,0.04273570000077598,None,46.798318400000426,None,46.798318400000426,None,46.798318400000426,None,46.798318400000426,46.798318400000426,46.798318400000426,None,,004,P016,2025_Mar_07_1405,ConditionRich,2021.2.3,59.93382107495383,
4.0,4.75,2,0.75,Stimuli/P016/sun_agzfkftryitnqpxc.jpg,0,0.0,0.0,0,1,1,1,,,,,,,,,,,,,4.020516900000075,0.02051690000007511,None,50.78543379999974,50.78543379999974,50.78543379999974,50.78543379999974,50.78543379999974,50.78543379999974,50.78543379999974,50.78543379999974,50.78543379999974,50.78543379999974,,004,P016,2025_Mar_07_1405,ConditionRich,2021.2.3,59.93382107495383,
4.75,8.0,41,0.0,Stimuli/Blank.png,0,0.0,0.0,0,2,2,2,,,,,,,,,,,,,4.770603400000255,0.020603400000254624,None,51.51946360000147,51.51946360000147,51.51946360000147,51.51946360000147,51.51946360000147,51.51946360000147,51.51946360000147,51.51946360000147,51.51946360000147,51.51946360000147,,004,P016,2025_Mar_07_1405,ConditionRich,2021.2.3,59.93382107495383,
8.0,8.75,33,0.75,Stimuli/P016/things_raccoon_08n.jpg,0,0.0,0.0,0,3,3,3,,,,,,,,,,,,,8.005800700000691,0.005800700000690995,None,54.75535609999861,54.75535609999861,54.75535609999861,54.75535609999861,54.75535609999861,54.75535609999861,54.75535609999861,54.75535609999861,54.75535609999861,54.75535609999861,,004,P016,2025_Mar_07_1405,ConditionRich,2021.2.3,59.93382107495383,
8.75,12.0,41,0.0,Stimuli/Blank.png,0,0.0,0.0,0,4,4,4,,,,,,,,,,,,,8.757049800002278,0.007049800002278062,None,55.50601480000114,55.50601480000114,55.50601480000114,55.50601480000114,55.50601480000114,55.50601480000114,55.50601480000114,55.50601480000114,55.50601480000114,55.50601480000114,,004,P016,2025_Mar_07_1405,ConditionRich,2021.2.3,59.93382107495383,
12.0,12.75,29,0.75,Stimuli/P016/things_mouse1_08s.jpg,0,0.0,0.0,0,5,5,5,,,,,,,,,,,,,12.010022000002209,0.010022000002209097,None,58.7588923000003,58.7588923000003,58.7588923000003,58.7588923000003,58.7588923000003,58.7588923000003,58.7588923000003,58.7588923000003,58.7588923000003,58.7588923000003,,004,P016,2025_Mar_07_1405,ConditionRich,2021.2.3,59.93382107495383,
12.75,16.0,41,0.0,Stimuli/Blank.png,0,0.0,0.0,0,6,6,6,,,,,,,,,,,,,12.760338399999455,0.01033839999945485,None,59.509636099999625,59.509636099999625,59.509636099999625,59.509636099999625,59.509636099999625,59.509636099999625,59.509636099999625,59.509636099999625,59.509636099999625,59.509636099999625,,004,P016,2025_Mar_07_1405,ConditionRich,2021.2.3,59.93382107495383,
16.0,16.75,12,0.75,Stimuli/P016/sun_boffixsnbbloarty.jpg,0,0.0,0.0,0,7,7,7,,,,,,,,,,,,,16.0151807000002,0.015180700000200886,None,62.77911419999873,62.77911419999873,62.77911419999873,62.77911419999873,62.77911419999873,62.77911419999873,62.77911419999873,62.77911419999873,62.77911419999873,62.77911419999873,,004,P016,2025_Mar_07_1405,ConditionRich,2021.2.3,59.93382107495383,
16.75,20.0,41,0.0,Stimuli/Blank.png,0,0.0,0.0,0,8,8,8,,,,,,,,,,,,,16.76534150000225,0.015341500002250541,None,63.5297759999994,63.5297759999994,63.5297759999994,63.5297759999994,63.5297759999994,63.5297759999994,63.5297759999994,63.5297759999994,63.5297759999994,63.5297759999994,,004,P016,2025_Mar_07_1405,ConditionRich,2021.2.3,59.93382107495383,
20.0,20.75,23,0.75,Stimuli/P016/things_boy_08s.jpg,0,0.0,0.0,0,9,9,9,,,,,,,,,,,,,20.016814700000396,0.016814700000395533,None,66.76595699999962,66.76595699999962,66.76595699999962,66.76595699999962,66.76595699999962,66.76595699999962,66.76595699999962,66.76595699999962,66.76595699999962,66.76595699999962,,004,P016,2025_Mar_07_1405,ConditionRich,2021.2.3,59.93382107495383,
20.75,24.0,41,0.0,Stimuli/Blank.png,1,1.25,2.0,0,10,10,10,,,,,,,,,,,,,20.750423900000897,0.0004239000008965377,1,67.49994330000118,67.49994330000118,67.49994330000118,67.49994330000118,67.49994330000118,67.49994330000118,68.7343452999994,69.48511839999992,67.49994330000118,67.49994330000118,1.7059296000006725,004,P016,2025_Mar_07_1405,ConditionRich,2021.2.3,59.93382107495383,
24.0,24.75,38,0.75,Stimuli/P016/things_trumpet_08s.jpg,0,0.0,0.0,0,11,11,11,,,,,,,,,,,,,24.00331830000141,0.0033183000014105346,None,70.7528224000016,70.7528224000016,70.7528224000016,70.7528224000016,70.7528224000016,70.7528224000016,70.7528224000016,70.7528224000016,70.7528224000016,70.7528224000016,,004,P016,2025_Mar_07_1405,ConditionRich,2021.2.3,59.93382107495383,
24.75,28.0,41,0.0,Stimuli/Blank.png,0,0.0,0.0,0,12,12,12,,,,,,,,,,,,,24.754899400002614,0.004899400002614129,None,71.50348999999915,71.50348999999915,71.50348999999915,71.50348999999915,71.50348999999915,71.50348999999915,71.50348999999915,71.50348999999915,71.50348999999915,71.50348999999915,,004,P016,2025_Mar_07_1405,ConditionRich,2021.2.3,59.93382107495383,
28.0,28.75,17,0.75,Stimuli/P016/sun_bxhbltvqnpaciuzt.jpg,0,0.0,0.0,0,13,13,13,,,,,,,,,,,,,28.006833700001152,0.006833700001152465,None,74.75635049999983,74.75635049999983,74.75635049999983,74.75635049999983,74.75635049999983,74.75635049999983,74.75635049999983,74.75635049999983,74.75635049999983,74.75635049999983,,004,P016,2025_Mar_07_1405,ConditionRich,2021.2.3,59.93382107495383,
28.75,32.0,41,0.0,Stimuli/Blank.png,0,0.0,0.0,0,14,14,14,,,,,,,,,,,,,28.760066099999676,0.010066099999676226,None,75.52382750000106,75.52382750000106,75.52382750000106,75.52382750000106,75.52382750000106,75.52382750000106,75.52382750000106,75.52382750000106,75.52382750000106,75.52382750000106,,004,P016,2025_Mar_07_1405,ConditionRich,2021.2.3,59.93382107495383,
32.0,32.75,31,0.75,Stimuli/P016/things_outlet_08s.jpg,0,0.0,0.0,0,15,15,15,,,,,,,,,,,,,32.02846490000229,0.02846490000229096,None,78.79325779999999,78.79325779999999,78.79325779999999,78.79325779999999,78.79325779999999,78.79325779999999,78.79325779999999,78.79325779999999,78.79325779999999,78.79325779999999,,004,P016,2025_Mar_07_1405,ConditionRich,2021.2.3,59.93382107495383,
32.75,36.0,41,0.0,Stimuli/Blank.png,0,0.0,0.0,0,16,16,16,,,,,,,,,,,,,32.778204400001414,0.028204400001413887,None,79.52724949999902,79.52724949999902,79.52724949999902,79.52724949999902,79.52724949999902,79.52724949999902,79.52724949999902,79.52724949999902,79.52724949999902,79.52724949999902,,004,P016,2025_Mar_07_1405,ConditionRich,2021.2.3,59.93382107495383,
36.0,36.75,28,0.75,Stimuli/P016/things_latte_08s.jpg,0,0.0,0.0,0,17,17,17,,,,,,,,,,,,,36.01374310000028,0.013743100000283448,None,82.76343709999855,82.76343709999855,82.76343709999855,82.76343709999855,82.76343709999855,82.76343709999855,82.76343709999855,82.76343709999855,82.76343709999855,82.76343709999855,,004,P016,2025_Mar_07_1405,ConditionRich,2021.2.3,59.93382107495383,
36.75,40.0,41,0.0,Stimuli/Blank.png,0,0.0,0.0,0,18,18,18,,,,,,,,,,,,,36.765479600002436,0.0154796000024362,None,83.51411000000007,83.51411000000007,83.51411000000007,83.51411000000007,83.51411000000007,83.51411000000007,83.51411000000007,83.51411000000007,83.51411000000007,83.51411000000007,,004,P016,2025_Mar_07_1405,ConditionRich,2021.2.3,59.93382107495383,
40.0,40.75,18,0.75,Stimuli/P016/sun_byavixgfuhzioilz.jpg,0,0.0,0.0,0,19,19,19,,,,,,,,,,,,,40.00068910000118,0.0006891000011819415,None,86.75029780000114,86.75029780000114,86.75029780000114,86.75029780000114,86.75029780000114,86.75029780000114,86.75029780000114,86.75029780000114,86.75029780000114,86.75029780000114,,004,P016,2025_Mar_07_1405,ConditionRich,2021.2.3,59.93382107495383,
40.75,44.0,41,0.0,Stimuli/Blank.png,0,0.0,0.0,0,20,20,20,,,,,,,,,,,,,40.75115970000115,0.0011597000011533964,None,87.50095670000155,87.50095670000155,87.50095670000155,87.50095670000155,87.50095670000155,87.50095670000155,87.50095670000155,87.50095670000155,87.50095670000155,87.50095670000155,,004,P016,2025_Mar_07_1405,ConditionRich,2021.2.3,59.93382107495383,
44.0,44.75,11,0.75,Stimuli/P016/sun_bnwmcjuinqbdsbho.jpg,0,0.0,0.0,0,21,21,21,,,,,,,,,,,,,44.00447870000062,0.004478700000618119,None,90.7538444999991,90.7538444999991,90.7538444999991,90.7538444999991,90.7538444999991,90.7538444999991,90.7538444999991,90.7538444999991,90.7538444999991,90.7538444999991,,004,P016,2025_Mar_07_1405,ConditionRich,2021.2.3,59.93382107495383,
44.75,48.0,41,0.0,Stimuli/Blank.png,0,0.0,0.0,0,22,22,22,,,,,,,,,,,,,44.755617200000415,0.005617200000415323,None,91.50449890000164,91.50449890000164,91.50449890000164,91.50449890000164,91.50449890000164,91.50449890000164,91.50449890000164,91.50449890000164,91.50449890000164,91.50449890000164,,004,P016,2025_Mar_07_1405,ConditionRich,2021.2.3,59.93382107495383,
48.0,48.75,1,0.75,Stimuli/P016/sun_aacpzgqrortyhyss.jpg,0,0.0,0.0,0,23,23,23,,,,,,,,,,,,,48.00811969999995,0.00811969999995199,None,94.7573725000002,94.7573725000002,94.7573725000002,94.7573725000002,94.7573725000002,94.7573725000002,94.7573725000002,94.7573725000002,94.7573725000002,94.7573725000002,,004,P016,2025_Mar_07_1405,ConditionRich,2021.2.3,59.93382107495383,
48.75,52.0,41,0.0,Stimuli/Blank.png,0,0.0,0.0,0,24,24,24,,,,,,,,,,,,,48.75868030000129,0.008680300001287833,None,95.5080792000008,95.5080792000008,95.5080792000008,95.5080792000008,95.5080792000008,95.5080792000008,95.5080792000008,95.5080792000008,95.5080792000008,95.5080792000008,,004,P016,2025_Mar_07_1405,ConditionRich,2021.2.3,59.93382107495383,
52.0,52.75,10,0.75,Stimuli/P016/sun_bfojpvrlsrtfyzio.jpg,0,0.0,0.0,0,25,25,25,,,,,,,,,,,,,52.01173689999996,0.01173689999995986,None,98.77760630000193,98.77760630000193,98.77760630000193,98.77760630000193,98.77760630000193,98.77760630000193,98.77760630000193,98.77760630000193,98.77760630000193,98.77760630000193,,004,P016,2025_Mar_07_1405,ConditionRich,2021.2.3,59.93382107495383,
52.75,56.0,41,0.0,Stimuli/Blank.png,0,0.0,0.0,0,26,26,26,,,,,,,,,,,,,52.77926450000086,0.029264500000863336,None,99.52826560000176,99.52826560000176,99.52826560000176,99.52826560000176,99.52826560000176,99.52826560000176,99.52826560000176,99.52826560000176,99.52826560000176,99.52826560000176,,004,P016,2025_Mar_07_1405,ConditionRich,2021.2.3,59.93382107495383,
56.0,56.75,30,0.75,Stimuli/P016/things_ottoman_08s.jpg,0,0.0,0.0,0,27,27,27,,,,,,,,,,,,,56.014690600000904,0.014690600000903942,None,102.76444999999876,102.76444999999876,102.76444999999876,102.76444999999876,102.76444999999876,102.76444999999876,102.76444999999876,102.76444999999876,102.76444999999876,102.76444999999876,,004,P016,2025_Mar_07_1405,ConditionRich,2021.2.3,59.93382107495383,
56.75,60.0,41,0.0,Stimuli/Blank.png,0,0.0,0.0,0,28,28,28,,,,,,,,,,,,,56.766016199999285,0.016016199999285163,None,103.51510889999918,103.51510889999918,103.51510889999918,103.51510889999918,103.51510889999918,103.51510889999918,103.51510889999918,103.51510889999918,103.51510889999918,103.51510889999918,,004,P016,2025_Mar_07_1405,ConditionRich,2021.2.3,59.93382107495383,
60.0,60.75,32,0.75,Stimuli/P016/things_pheasant_08s.jpg,0,0.0,0.0,0,29,29,29,,,,,,,,,,,,,60.00157890000264,0.0015789000026416034,None,106.75131150000016,106.75131150000016,106.75131150000016,106.75131150000016,106.75131150000016,106.75131150000016,106.75131150000016,106.75131150000016,106.75131150000016,106.75131150000016,,004,P016,2025_Mar_07_1405,ConditionRich,2021.2.3,59.93382107495383,
60.75,64.0,41,0.0,Stimuli/Blank.png,0,0.0,0.0,0,30,30,30,,,,,,,,,,,,,60.75223790000018,0.0022379000001819804,None,107.50205180000194,107.50205180000194,107.50205180000194,107.50205180000194,107.50205180000194,107.50205180000194,107.50205180000194,107.50205180000194,107.50205180000194,107.50205180000194,,004,P016,2025_Mar_07_1405,ConditionRich,2021.2.3,59.93382107495383,
64.0,64.75,35,0.75,Stimuli/P016/things_squid_08s.jpg,0,0.0,0.0,0,31,31,31,,,,,,,,,,,,,64.0060994000014,0.00609940000140341,None,110.7548506000021,110.7548506000021,110.7548506000021,110.7548506000021,110.7548506000021,110.7548506000021,110.7548506000021,110.7548506000021,110.7548506000021,110.7548506000021,,004,P016,2025_Mar_07_1405,ConditionRich,2021.2.3,59.93382107495383,
64.75,68.0,41,0.0,Stimuli/Blank.png,0,0.0,0.0,0,32,32,32,,,,,,,,,,,,,64.75656280000112,0.006562800001120195,None,111.50550780000049,111.50550780000049,111.50550780000049,111.50550780000049,111.50550780000049,111.50550780000049,111.50550780000049,111.50550780000049,111.50550780000049,111.50550780000049,,004,P016,2025_Mar_07_1405,ConditionRich,2021.2.3,59.93382107495383,
68.0,68.75,5,0.75,Stimuli/P016/sun_ajgmxbrxdpmsaext.jpg,0,0.0,0.0,0,33,33,33,,,,,,,,,,,,,68.00904440000159,0.009044400001585018,None,114.75838640000075,114.75838640000075,114.75838640000075,114.75838640000075,114.75838640000075,114.75838640000075,114.75838640000075,114.75838640000075,114.75838640000075,114.75838640000075,,004,P016,2025_Mar_07_1405,ConditionRich,2021.2.3,59.93382107495383,
68.75,72.0,41,0.0,Stimuli/Blank.png,0,0.0,0.0,0,34,34,34,,,,,,,,,,,,,68.76005970000188,0.010059700001875171,None,115.50906110000142,115.50906110000142,115.50906110000142,115.50906110000142,115.50906110000142,115.50906110000142,115.50906110000142,115.50906110000142,115.50906110000142,115.50906110000142,,004,P016,2025_Mar_07_1405,ConditionRich,2021.2.3,59.93382107495383,
72.0,72.75,4,0.75,Stimuli/P016/sun_aiwuqxdqzftsfyeg.jpg,0,0.0,0.0,0,35,35,35,,,,,,,,,,,,,72.01276350000262,0.012763500002620276,None,118.76193390000117,118.76193390000117,118.76193390000117,118.76193390000117,118.76193390000117,118.76193390000117,118.76193390000117,118.76193390000117,118.76193390000117,118.76193390000117,,004,P016,2025_Mar_07_1405,ConditionRich,2021.2.3,59.93382107495383,
72.75,76.0,41,0.0,Stimuli/Blank.png,1,2.25,3.0,0,36,36,36,,,,,,,,,,,,,72.76507530000163,0.015075300001626601,1,119.52927850000196,119.52927850000196,119.52927850000196,119.52927850000196,119.52927850000196,119.52927850000196,121.76457160000064,122.51528150000013,119.52927850000196,119.52927850000196,2.74628070000108,004,P016,2025_Mar_07_1405,ConditionRich,2021.2.3,59.93382107495383,
76.0,76.75,37,0.75,Stimuli/P016/things_swizzle_stick_08s.jpg,1,0.0,0.75,0,37,37,37,,,,,,,,,,,,,76.01663340000232,0.01663340000231983,1,122.76546640000015,122.76546640000015,122.76546640000015,122.76546640000015,122.76546640000015,122.76546640000015,122.76546640000015,None,122.76546640000015,122.76546640000015,0.45316169999932754,004,P016,2025_Mar_07_1405,ConditionRich,2021.2.3,59.93382107495383,
76.75,80.0,41,0.0,Stimuli/Blank.png,0,0.0,0.0,0,38,38,38,,,,,,,,,,,,,76.75011740000264,0.00011740000263671391,None,123.49944310000137,123.49944310000137,123.49944310000137,123.49944310000137,123.49944310000137,123.49944310000137,123.49944310000137,123.49944310000137,123.49944310000137,123.49944310000137,,004,P016,2025_Mar_07_1405,ConditionRich,2021.2.3,59.93382107495383,
80.0,80.75,15,0.75,Stimuli/P016/sun_bvfcijehgdsndfbg.jpg,1,0.0,0.75,0,39,39,39,,,,,,,,,,,,,80.00554170000032,0.005541700000321725,1,126.76900310000201,126.76900310000201,126.76900310000201,126.76900310000201,126.76900310000201,126.76900310000201,126.76900310000201,127.50301609999951,126.76900310000201,126.76900310000201,0.4927008999984537,004,P016,2025_Mar_07_1405,ConditionRich,2021.2.3,59.93382107495383,
80.75,84.0,41,0.0,Stimuli/Blank.png,0,0.0,0.0,0,40,40,40,,,,,,,,,,,,,80.77059910000025,0.02059910000025411,None,127.51967259999947,127.51967259999947,127.51967259999947,127.51967259999947,127.51967259999947,127.51967259999947,127.51967259999947,127.51967259999947,127.51967259999947,127.51967259999947,,004,P016,2025_Mar_07_1405,ConditionRich,2021.2.3,59.93382107495383,
84.0,100.0,0,0.0,Stimuli/Blank.png,1,8.0,8.75,0,41,41,41,,,,,,,,,,,,,84.00710190000245,0.007101900002453476,1,130.75594139999885,130.75594139999885,130.75594139999885,130.75594139999885,130.75594139999885,130.75594139999885,138.746295500001,139.49695950000023,130.75594139999885,130.75594139999885,8.49167419999867,004,P016,2025_Mar_07_1405,ConditionRich,2021.2.3,59.93382107495383,
100.0,100.75,22,0.75,Stimuli/P016/things_baby_08s.jpg,0,0.0,0.0,0,42,42,42,,,,,,,,,,,,,100.00400530000115,0.004005300001153955,None,146.75333410000167,146.75333410000167,146.75333410000167,146.75333410000167,146.75333410000167,146.75333410000167,146.75333410000167,146.75333410000167,146.75333410000167,146.75333410000167,,004,P016,2025_Mar_07_1405,ConditionRich,2021.2.3,59.93382107495383,
100.75,104.0,41,0.0,Stimuli/Blank.png,0,0.0,0.0,0,43,43,43,,,,,,,,,,,,,100.75505850000263,0.005058500002633082,None,147.50401090000014,147.50401090000014,147.50401090000014,147.50401090000014,147.50401090000014,147.50401090000014,147.50401090000014,147.50401090000014,147.50401090000014,147.50401090000014,,004,P016,2025_Mar_07_1405,ConditionRich,2021.2.3,59.93382107495383,
104.0,104.75,14,0.75,Stimuli/P016/sun_bpvmkbyglkraoxhh.jpg,1,0.0,0.75,0,44,44,44,,,,,,,,,,,,,104.00713800000085,0.0071380000008502975,1,150.77356159999908,150.77356159999908,150.77356159999908,150.77356159999908,150.77356159999908,150.77356159999908,150.77356159999908,151.4908327000012,150.77356159999908,150.77356159999908,0.39001989999815123,004,P016,2025_Mar_07_1405,ConditionRich,2021.2.3,59.93382107495383,
104.75,108.0,41,0.0,Stimuli/Blank.png,0,0.0,0.0,0,45,45,45,,,,,,,,,,,,,104.77505329999985,0.025053299999854062,None,151.52420880000136,151.52420880000136,151.52420880000136,151.52420880000136,151.52420880000136,151.52420880000136,151.52420880000136,151.52420880000136,151.52420880000136,151.52420880000136,,004,P016,2025_Mar_07_1405,ConditionRich,2021.2.3,59.93382107495383,
108.0,108.75,26,0.75,Stimuli/P016/things_face_08s.jpg,0,0.0,0.0,0,46,46,46,,,,,,,,,,,,,108.01136620000034,0.011366200000338722,None,154.76041009999972,154.76041009999972,154.76041009999972,154.76041009999972,154.76041009999972,154.76041009999972,154.76041009999972,154.76041009999972,154.76041009999972,154.76041009999972,,004,P016,2025_Mar_07_1405,ConditionRich,2021.2.3,59.93382107495383,
108.75,112.0,41,0.0,Stimuli/Blank.png,0,0.0,0.0,0,47,47,47,,,,,,,,,,,,,108.76154759999918,0.011547599999175873,None,155.51106739999886,155.51106739999886,155.51106739999886,155.51106739999886,155.51106739999886,155.51106739999886,155.51106739999886,155.51106739999886,155.51106739999886,155.51106739999886,,004,P016,2025_Mar_07_1405,ConditionRich,2021.2.3,59.93382107495383,
112.0,112.75,24,0.75,Stimuli/P016/things_bunkbed_08s.jpg,0,0.0,0.0,0,48,48,48,,,,,,,,,,,,,112.01426650000212,0.014266500002122484,None,158.76394300000175,158.76394300000175,158.76394300000175,158.76394300000175,158.76394300000175,158.76394300000175,158.76394300000175,158.76394300000175,158.76394300000175,158.76394300000175,,004,P016,2025_Mar_07_1405,ConditionRich,2021.2.3,59.93382107495383,
112.75,116.0,41,0.0,Stimuli/Blank.png,1,2.25,3.0,0,49,49,49,,,,,,,,,,,,,112.76555240000016,0.01555240000016056,1,159.51461090000157,159.51461090000157,159.51461090000157,159.51461090000157,159.51461090000157,159.51461090000157,161.74991579999914,162.5005560999998,159.51461090000157,159.51461090000157,2.672090100000787,004,P016,2025_Mar_07_1405,ConditionRich,2021.2.3,59.93382107495383,
116.0,116.75,39,0.75,Stimuli/P016/things_window_08s.jpg,0,0.0,0.0,0,50,50,50,,,,,,,,,,,,,116.00135050000245,0.0013505000024451874,None,162.7508111999996,162.7508111999996,162.7508111999996,162.7508111999996,162.7508111999996,162.7508111999996,162.7508111999996,162.7508111999996,162.7508111999996,162.7508111999996,,004,P016,2025_Mar_07_1405,ConditionRich,2021.2.3,59.93382107495383,
116.75,120.0,41,0.0,Stimuli/Blank.png,0,0.0,0.0,0,51,51,51,,,,,,,,,,,,,116.75201089999973,0.002010899999731919,None,163.50146569999924,163.50146569999924,163.50146569999924,163.50146569999924,163.50146569999924,163.50146569999924,163.50146569999924,163.50146569999924,163.50146569999924,163.50146569999924,,004,P016,2025_Mar_07_1405,ConditionRich,2021.2.3,59.93382107495383,
120.0,120.75,16,0.75,Stimuli/P016/sun_bwhuwxazfqwuqhik.jpg,0,0.0,0.0,0,52,52,52,,,,,,,,,,,,,120.00564049999957,0.005640499999572057,None,166.77102960000047,166.77102960000047,166.77102960000047,166.77102960000047,166.77102960000047,166.77102960000047,166.77102960000047,166.77102960000047,166.77102960000047,166.77102960000047,,004,P016,2025_Mar_07_1405,ConditionRich,2021.2.3,59.93382107495383,
120.75,124.0,41,0.0,Stimuli/Blank.png,0,0.0,0.0,0,53,53,53,,,,,,,,,,,,,120.77268150000236,0.022681500002363464,None,167.52165510000123,167.52165510000123,167.52165510000123,167.52165510000123,167.52165510000123,167.52165510000123,167.52165510000123,167.52165510000123,167.52165510000123,167.52165510000123,,004,P016,2025_Mar_07_1405,ConditionRich,2021.2.3,59.93382107495383,
124.0,124.75,6,0.75,Stimuli/P016/sun_akecfasimgpbqcnt.jpg,0,0.0,0.0,0,54,54,54,,,,,,,,,,,,,124.00864700000238,0.00864700000238372,None,170.7578852000006,170.7578852000006,170.7578852000006,170.7578852000006,170.7578852000006,170.7578852000006,170.7578852000006,170.7578852000006,170.7578852000006,170.7578852000006,,004,P016,2025_Mar_07_1405,ConditionRich,2021.2.3,59.93382107495383,
124.75,128.0,41,0.0,Stimuli/Blank.png,1,1.25,2.0,0,55,55,55,,,,,,,,,,,,,124.75955780000004,0.009557800000038696,1,171.50855270000102,171.50855270000102,171.50855270000102,171.50855270000102,171.50855270000102,171.50855270000102,172.74301230000128,173.49363599999924,171.50855270000102,171.50855270000102,1.645061999999598,004,P016,2025_Mar_07_1405,ConditionRich,2021.2.3,59.93382107495383,
128.0,128.75,9,0.75,Stimuli/P016/sun_bbdgftzhpkaklkll.jpg,0,0.0,0.0,0,56,56,56,,,,,,,,,,,,,128.0118650000004,0.01186500000039814,None,174.76143299999967,174.76143299999967,174.76143299999967,174.76143299999967,174.76143299999967,174.76143299999967,174.76143299999967,174.76143299999967,174.76143299999967,174.76143299999967,,004,P016,2025_Mar_07_1405,ConditionRich,2021.2.3,59.93382107495383,
128.75,132.0,41,0.0,Stimuli/Blank.png,0,0.0,0.0,0,57,57,57,,,,,,,,,,,,,128.76227719999952,0.012277199999516597,None,175.5121528000018,175.5121528000018,175.5121528000018,175.5121528000018,175.5121528000018,175.5121528000018,175.5121528000018,175.5121528000018,175.5121528000018,175.5121528000018,,004,P016,2025_Mar_07_1405,ConditionRich,2021.2.3,59.93382107495383,
132.0,132.75,34,0.75,Stimuli/P016/things_shower_cap_08s.jpg,0,0.0,0.0,0,58,58,58,,,,,,,,,,,,,132.0151736000007,0.015173600000707665,None,178.76495870000144,178.76495870000144,178.76495870000144,178.76495870000144,178.76495870000144,178.76495870000144,178.76495870000144,178.76495870000144,178.76495870000144,178.76495870000144,,004,P016,2025_Mar_07_1405,ConditionRich,2021.2.3,59.93382107495383,
132.75,136.0,41,0.0,Stimuli/Blank.png,0,0.0,0.0,0,59,59,59,,,,,,,,,,,,,132.75065320000067,0.00065320000067004,None,179.51563570000144,179.51563570000144,179.51563570000144,179.51563570000144,179.51563570000144,179.51563570000144,179.51563570000144,179.51563570000144,179.51563570000144,179.51563570000144,,004,P016,2025_Mar_07_1405,ConditionRich,2021.2.3,59.93382107495383,
136.0,136.75,25,0.75,Stimuli/P016/things_deer_08s.jpg,0,0.0,0.0,0,60,60,60,,,,,,,,,,,,,136.01871910000045,0.01871910000045318,None,182.76850080000077,182.76850080000077,182.76850080000077,182.76850080000077,182.76850080000077,182.76850080000077,182.76850080000077,182.76850080000077,182.76850080000077,182.76850080000077,,004,P016,2025_Mar_07_1405,ConditionRich,2021.2.3,59.93382107495383,
136.75,140.0,41,0.0,Stimuli/Blank.png,0,0.0,0.0,0,61,61,61,,,,,,,,,,,,,136.75501280000026,0.005012800000258721,None,183.5191718999995,183.5191718999995,183.5191718999995,183.5191718999995,183.5191718999995,183.5191718999995,183.5191718999995,183.5191718999995,183.5191718999995,183.5191718999995,,004,P016,2025_Mar_07_1405,ConditionRich,2021.2.3,59.93382107495383,
140.0,140.75,20,0.75,Stimuli/P016/sun_bzmxulijbnmshodq.jpg,0,0.0,0.0,0,62,62,62,,,,,,,,,,,,,140.02304880000156,0.023048800001561176,None,186.78872620000038,186.78872620000038,186.78872620000038,186.78872620000038,186.78872620000038,186.78872620000038,186.78872620000038,186.78872620000038,186.78872620000038,186.78872620000038,,004,P016,2025_Mar_07_1405,ConditionRich,2021.2.3,59.93382107495383,
140.75,144.0,41,0.0,Stimuli/Blank.png,0,0.0,0.0,0,63,63,63,,,,,,,,,,,,,140.77490170000237,0.024901700002374128,None,187.53939309999987,187.53939309999987,187.53939309999987,187.53939309999987,187.53939309999987,187.53939309999987,187.53939309999987,187.53939309999987,187.53939309999987,187.53939309999987,,004,P016,2025_Mar_07_1405,ConditionRich,2021.2.3,59.93382107495383,
144.0,144.75,8,0.75,Stimuli/P016/sun_arldxotvfucvuudk.jpg,0,0.0,0.0,0,64,64,64,,,,,,,,,,,,,144.0258023000024,0.025802300002396805,None,190.77557309999975,190.77557309999975,190.77557309999975,190.77557309999975,190.77557309999975,190.77557309999975,190.77557309999975,190.77557309999975,190.77557309999975,190.77557309999975,,004,P016,2025_Mar_07_1405,ConditionRich,2021.2.3,59.93382107495383,
144.75,148.0,41,0.0,Stimuli/Blank.png,0,0.0,0.0,0,65,65,65,,,,,,,,,,,,,144.75995479999983,0.009954799999832176,None,191.5095250000013,191.5095250000013,191.5095250000013,191.5095250000013,191.5095250000013,191.5095250000013,191.5095250000013,191.5095250000013,191.5095250000013,191.5095250000013,,004,P016,2025_Mar_07_1405,ConditionRich,2021.2.3,59.93382107495383,
148.0,148.75,13,0.75,Stimuli/P016/sun_bphvjnowixlryxot.jpg,0,0.0,0.0,0,66,66,66,,,,,,,,,,,,,148.01309129999936,0.013091299999359762,None,194.7624294999987,194.7624294999987,194.7624294999987,194.7624294999987,194.7624294999987,194.7624294999987,194.7624294999987,194.7624294999987,194.7624294999987,194.7624294999987,,004,P016,2025_Mar_07_1405,ConditionRich,2021.2.3,59.93382107495383,
148.75,152.0,41,0.0,Stimuli/Blank.png,0,0.0,0.0,0,67,67,67,,,,,,,,,,,,,148.76611279999997,0.016112799999973504,None,195.52978970000186,195.52978970000186,195.52978970000186,195.52978970000186,195.52978970000186,195.52978970000186,195.52978970000186,195.52978970000186,195.52978970000186,195.52978970000186,,004,P016,2025_Mar_07_1405,ConditionRich,2021.2.3,59.93382107495383,
152.0,152.75,19,0.75,Stimuli/P016/sun_bzhwvgrzvttqoexa.jpg,0,0.0,0.0,0,68,68,68,,,,,,,,,,,,,152.01626670000041,0.016266700000414858,None,198.765972600002,198.765972600002,198.765972600002,198.765972600002,198.765972600002,198.765972600002,198.765972600002,198.765972600002,198.765972600002,198.765972600002,,004,P016,2025_Mar_07_1405,ConditionRich,2021.2.3,59.93382107495383,
152.75,156.0,41,0.0,Stimuli/Blank.png,0,0.0,0.0,0,69,69,69,,,,,,,,,,,,,152.75082180000027,0.0008218000002671033,None,199.4999616999994,199.4999616999994,199.4999616999994,199.4999616999994,199.4999616999994,199.4999616999994,199.4999616999994,199.4999616999994,199.4999616999994,199.4999616999994,,004,P016,2025_Mar_07_1405,ConditionRich,2021.2.3,59.93382107495383,
156.0,156.75,21,0.75,Stimuli/P016/things_arch_08s.jpg,0,0.0,0.0,0,70,70,70,,,,,,,,,,,,,156.003335100002,0.003335100002004765,None,202.75282320000042,202.75282320000042,202.75282320000042,202.75282320000042,202.75282320000042,202.75282320000042,202.75282320000042,202.75282320000042,202.75282320000042,202.75282320000042,,004,P016,2025_Mar_07_1405,ConditionRich,2021.2.3,59.93382107495383,
156.75,160.0,41,0.0,Stimuli/Blank.png,0,0.0,0.0,0,71,71,71,,,,,,,,,,,,,156.75452829999995,0.004528299999947194,None,203.50350049999906,203.50350049999906,203.50350049999906,203.50350049999906,203.50350049999906,203.50350049999906,203.50350049999906,203.50350049999906,203.50350049999906,203.50350049999906,,004,P016,2025_Mar_07_1405,ConditionRich,2021.2.3,59.93382107495383,
160.0,160.75,40,0.75,Stimuli/P016/things_woman_08s.jpg,0,0.0,0.0,0,72,72,72,,,,,,,,,,,,,160.00672450000275,0.006724500002746936,None,206.75637560000177,206.75637560000177,206.75637560000177,206.75637560000177,206.75637560000177,206.75637560000177,206.75637560000177,206.75637560000177,206.75637560000177,206.75637560000177,,004,P016,2025_Mar_07_1405,ConditionRich,2021.2.3,59.93382107495383,
160.75,164.0,41,0.0,Stimuli/Blank.png,0,0.0,0.0,0,73,73,73,,,,,,,,,,,,,160.75720340000044,0.007203400000435067,None,207.50712280000153,207.50712280000153,207.50712280000153,207.50712280000153,207.50712280000153,207.50712280000153,207.50712280000153,207.50712280000153,207.50712280000153,207.50712280000153,,004,P016,2025_Mar_07_1405,ConditionRich,2021.2.3,59.93382107495383,
164.0,164.75,3,0.75,Stimuli/P016/sun_aiogwnavezqxkzfg.jpg,0,0.0,0.0,0,74,74,74,,,,,,,,,,,,,164.01084850000188,0.010848500001884531,None,210.7599119000006,210.7599119000006,210.7599119000006,210.7599119000006,210.7599119000006,210.7599119000006,210.7599119000006,210.7599119000006,210.7599119000006,210.7599119000006,,004,P016,2025_Mar_07_1405,ConditionRich,2021.2.3,59.93382107495383,
164.75,168.0,41,0.0,Stimuli/Blank.png,1,1.25,2.0,0,75,75,75,,,,,,,,,,,,,164.7616295000007,0.011629500000708504,1,211.51065860000017,211.51065860000017,211.51065860000017,211.51065860000017,211.51065860000017,211.51065860000017,212.7449908000017,213.4956517999999,211.51065860000017,211.51065860000017,1.5931057000016153,004,P016,2025_Mar_07_1405,ConditionRich,2021.2.3,59.93382107495383,
168.0,168.75,36,0.75,Stimuli/P016/things_streetlight_08s.jpg,0,0.0,0.0,0,76,76,76,,,,,,,,,,,,,168.01414429999932,0.01414429999931599,None,214.76345109999966,214.76345109999966,214.76345109999966,214.76345109999966,214.76345109999966,214.76345109999966,214.76345109999966,214.76345109999966,214.76345109999966,214.76345109999966,,004,P016,2025_Mar_07_1405,ConditionRich,2021.2.3,59.93382107495383,
168.75,172.0,41,0.0,Stimuli/Blank.png,0,0.0,0.0,0,77,77,77,,,,,,,,,,,,,168.76453270000275,0.014532700002746424,None,215.51410930000202,215.51410930000202,215.51410930000202,215.51410930000202,215.51410930000202,215.51410930000202,215.51410930000202,215.51410930000202,215.51410930000202,215.51410930000202,,004,P016,2025_Mar_07_1405,ConditionRich,2021.2.3,59.93382107495383,
172.0,172.75,27,0.75,Stimuli/P016/things_girl_08s.jpg,0,0.0,0.0,0,78,78,78,,,,,,,,,,,,,172.0006831999999,0.0006831999999121763,None,218.7670203000016,218.7670203000016,218.7670203000016,218.7670203000016,218.7670203000016,218.7670203000016,218.7670203000016,218.7670203000016,218.7670203000016,218.7670203000016,,004,P016,2025_Mar_07_1405,ConditionRich,2021.2.3,59.93382107495383,
172.75,176.0,41,0.0,Stimuli/Blank.png,0,0.0,0.0,0,79,79,79,,,,,,,,,,,,,172.77033140000276,0.020331400002760347,None,219.53432969999994,219.53432969999994,219.53432969999994,219.53432969999994,219.53432969999994,219.53432969999994,219.53432969999994,219.53432969999994,219.53432969999994,219.53432969999994,,004,P016,2025_Mar_07_1405,ConditionRich,2021.2.3,59.93382107495383,
176.0,176.75,7,0.75,Stimuli/P016/sun_aqdfrmtvewaapuqs.jpg,0,0.0,0.0,0,80,80,80,,,,,,,,,,,,,176.0215238000019,0.02152380000188714,None,222.77053069999965,222.77053069999965,222.77053069999965,222.77053069999965,222.77053069999965,222.77053069999965,222.77053069999965,222.77053069999965,222.77053069999965,222.77053069999965,,004,P016,2025_Mar_07_1405,ConditionRich,2021.2.3,59.93382107495383,
176.75,180.0,41,0.0,Stimuli/Blank.png,0,0.0,0.0,0,81,81,81,,,,,,,,,,,,,176.75472060000175,0.004720600001746789,None,223.5045073000001,223.5045073000001,223.5045073000001,223.5045073000001,223.5045073000001,223.5045073000001,223.5045073000001,223.5045073000001,223.5045073000001,223.5045073000001,,004,P016,2025_Mar_07_1405,ConditionRich,2021.2.3,59.93382107495383,
180.0,196.0,0,0.0,Stimuli/Blank.png,1,12.0,12.75,0,82,82,82,,,,,,,,,,,,,180.00839260000066,0.008392600000661332,1,226.75739260000046,226.75739260000046,226.75739260000046,226.75739260000046,226.75739260000046,226.75739260000046,238.75141150000127,239.50197670000125,226.75739260000046,226.75739260000046,12.355315900000278,004,P016,2025_Mar_07_1405,ConditionRich,2021.2.3,59.93382107495383,
196.0,196.75,31,0.75,Stimuli/P016/things_outlet_08s.jpg,0,0.0,0.0,0,83,83,83,,,,,,,,,,,,,196.00545830000192,0.0054583000019192696,None,242.7548429999988,242.7548429999988,242.7548429999988,242.7548429999988,242.7548429999988,242.7548429999988,242.7548429999988,242.7548429999988,242.7548429999988,242.7548429999988,,004,P016,2025_Mar_07_1405,ConditionRich,2021.2.3,59.93382107495383,
196.75,200.0,41,0.0,Stimuli/Blank.png,0,0.0,0.0,0,84,84,84,,,,,,,,,,,,,196.7558609000007,0.005860900000698166,None,243.50551890000133,243.50551890000133,243.50551890000133,243.50551890000133,243.50551890000133,243.50551890000133,243.50551890000133,243.50551890000133,243.50551890000133,243.50551890000133,,004,P016,2025_Mar_07_1405,ConditionRich,2021.2.3,59.93382107495383,
200.0,200.75,33,0.75,Stimuli/P016/things_raccoon_08n.jpg,0,0.0,0.0,0,85,85,85,,,,,,,,,,,,,200.00991540000177,0.009915400001773378,None,246.77509819999977,246.77509819999977,246.77509819999977,246.77509819999977,246.77509819999977,246.77509819999977,246.77509819999977,246.77509819999977,246.77509819999977,246.77509819999977,,004,P016,2025_Mar_07_1405,ConditionRich,2021.2.3,59.93382107495383,
200.75,204.0,41,0.0,Stimuli/Blank.png,0,0.0,0.0,0,86,86,86,,,,,,,,,,,,,200.77593379999962,0.025933799999620533,None,247.52573539999867,247.52573539999867,247.52573539999867,247.52573539999867,247.52573539999867,247.52573539999867,247.52573539999867,247.52573539999867,247.52573539999867,247.52573539999867,,004,P016,2025_Mar_07_1405,ConditionRich,2021.2.3,59.93382107495383,
204.0,204.75,6,0.75,Stimuli/P016/sun_akecfasimgpbqcnt.jpg,0,0.0,0.0,0,87,87,87,,,,,,,,,,,,,204.01520200000232,0.015202000002318528,None,250.77861620000112,250.77861620000112,250.77861620000112,250.77861620000112,250.77861620000112,250.77861620000112,250.77861620000112,250.77861620000112,250.77861620000112,250.77861620000112,,004,P016,2025_Mar_07_1405,ConditionRich,2021.2.3,59.93382107495383,
204.75,208.0,41,0.0,Stimuli/Blank.png,0,0.0,0.0,0,88,88,88,,,,,,,,,,,,,204.7640702000026,0.014070200002606725,None,251.51259460000074,251.51259460000074,251.51259460000074,251.51259460000074,251.51259460000074,251.51259460000074,251.51259460000074,251.51259460000074,251.51259460000074,251.51259460000074,,004,P016,2025_Mar_07_1405,ConditionRich,2021.2.3,59.93382107495383,
208.0,208.75,10,0.75,Stimuli/P016/sun_bfojpvrlsrtfyzio.jpg,0,0.0,0.0,0,89,89,89,,,,,,,,,,,,,207.99970980000217,-0.0002901999978348613,None,254.74880660000053,254.74880660000053,254.74880660000053,254.74880660000053,254.74880660000053,254.74880660000053,254.74880660000053,254.74880660000053,254.74880660000053,254.74880660000053,,004,P016,2025_Mar_07_1405,ConditionRich,2021.2.3,59.93382107495383,
208.75,212.0,41,0.0,Stimuli/Blank.png,0,0.0,0.0,0,90,90,90,,,,,,,,,,,,,208.75090060000002,0.0009006000000226777,None,255.49945750000188,255.49945750000188,255.49945750000188,255.49945750000188,255.49945750000188,255.49945750000188,255.49945750000188,255.49945750000188,255.49945750000188,255.49945750000188,,004,P016,2025_Mar_07_1405,ConditionRich,2021.2.3,59.93382107495383,
212.0,212.75,16,0.75,Stimuli/P016/sun_bwhuwxazfqwuqhik.jpg,0,0.0,0.0,0,91,91,91,,,,,,,,,,,,,212.0033426000009,0.0033426000009058043,None,258.7690082000008,258.7690082000008,258.7690082000008,258.7690082000008,258.7690082000008,258.7690082000008,258.7690082000008,258.7690082000008,258.7690082000008,258.7690082000008,,004,P016,2025_Mar_07_1405,ConditionRich,2021.2.3,59.93382107495383,
212.75,216.0,41,0.0,Stimuli/Blank.png,0,0.0,0.0,0,92,92,92,,,,,,,,,,,,,212.77037399999972,0.020373999999719672,None,259.5196848000014,259.5196848000014,259.5196848000014,259.5196848000014,259.5196848000014,259.5196848000014,259.5196848000014,259.5196848000014,259.5196848000014,259.5196848000014,,004,P016,2025_Mar_07_1405,ConditionRich,2021.2.3,59.93382107495383,
216.0,216.75,21,0.75,Stimuli/P016/things_arch_08s.jpg,0,0.0,0.0,0,93,93,93,,,,,,,,,,,,,216.00665280000248,0.006652800002484582,None,262.75586079999994,262.75586079999994,262.75586079999994,262.75586079999994,262.75586079999994,262.75586079999994,262.75586079999994,262.75586079999994,262.75586079999994,262.75586079999994,,004,P016,2025_Mar_07_1405,ConditionRich,2021.2.3,59.93382107495383,
216.75,220.0,41,0.0,Stimuli/Blank.png,0,0.0,0.0,0,94,94,94,,,,,,,,,,,,,216.7575265000014,0.007526500001404202,None,263.5066337999997,263.5066337999997,263.5066337999997,263.5066337999997,263.5066337999997,263.5066337999997,263.5066337999997,263.5066337999997,263.5066337999997,263.5066337999997,,004,P016,2025_Mar_07_1405,ConditionRich,2021.2.3,59.93382107495383,
220.0,220.75,4,0.75,Stimuli/P016/sun_aiwuqxdqzftsfyeg.jpg,0,0.0,0.0,0,95,95,95,,,,,,,,,,,,,220.00967540000056,0.00967540000056033,None,266.7593987,266.7593987,266.7593987,266.7593987,266.7593987,266.7593987,266.7593987,266.7593987,266.7593987,266.7593987,,004,P016,2025_Mar_07_1405,ConditionRich,2021.2.3,59.93382107495383,
220.75,224.0,41,0.0,Stimuli/Blank.png,0,0.0,0.0,0,96,96,96,,,,,,,,,,,,,220.76096759999928,0.01096759999927599,None,267.5100710000006,267.5100710000006,267.5100710000006,267.5100710000006,267.5100710000006,267.5100710000006,267.5100710000006,267.5100710000006,267.5100710000006,267.5100710000006,,004,P016,2025_Mar_07_1405,ConditionRich,2021.2.3,59.93382107495383,
224.0,224.75,30,0.75,Stimuli/P016/things_ottoman_08s.jpg,0,0.0,0.0,0,97,97,97,,,,,,,,,,,,,224.01540930000192,0.015409300001920201,None,270.7796325999989,270.7796325999989,270.7796325999989,270.7796325999989,270.7796325999989,270.7796325999989,270.7796325999989,270.7796325999989,270.7796325999989,270.7796325999989,,004,P016,2025_Mar_07_1405,ConditionRich,2021.2.3,59.93382107495383,
224.75,228.0,41,0.0,Stimuli/Blank.png,0,0.0,0.0,0,98,98,98,,,,,,,,,,,,,224.76442940000197,0.014429400001972681,None,271.51365760000044,271.51365760000044,271.51365760000044,271.51365760000044,271.51365760000044,271.51365760000044,271.51365760000044,271.51365760000044,271.51365760000044,271.51365760000044,,004,P016,2025_Mar_07_1405,ConditionRich,2021.2.3,59.93382107495383,
228.0,228.75,14,0.75,Stimuli/P016/sun_bpvmkbyglkraoxhh.jpg,0,0.0,0.0,0,99,99,99,,,,,,,,,,,,,228.00170029999936,0.0017002999993565027,None,274.7668928999992,274.7668928999992,274.7668928999992,274.7668928999992,274.7668928999992,274.7668928999992,274.7668928999992,274.7668928999992,274.7668928999992,274.7668928999992,,004,P016,2025_Mar_07_1405,ConditionRich,2021.2.3,59.93382107495383,
228.75,232.0,41,0.0,Stimuli/Blank.png,0,0.0,0.0,0,100,100,100,,,,,,,,,,,,,228.76840889999949,0.018408899999485584,None,275.51716730000044,275.51716730000044,275.51716730000044,275.51716730000044,275.51716730000044,275.51716730000044,275.51716730000044,275.51716730000044,275.51716730000044,275.51716730000044,,004,P016,2025_Mar_07_1405,ConditionRich,2021.2.3,59.93382107495383,
232.0,232.75,35,0.75,Stimuli/P016/things_squid_08s.jpg,0,0.0,0.0,0,101,101,101,,,,,,,,,,,,,232.004650400002,0.004650400001992239,None,278.7699838000008,278.7699838000008,278.7699838000008,278.7699838000008,278.7699838000008,278.7699838000008,278.7699838000008,278.7699838000008,278.7699838000008,278.7699838000008,,004,P016,2025_Mar_07_1405,ConditionRich,2021.2.3,59.93382107495383,
232.75,236.0,41,0.0,Stimuli/Blank.png,1,2.25,3.0,0,102,102,102,,,,,,,,,,,,,232.77155850000054,0.021558500000537606,1,279.52067589999933,279.52067589999933,279.52067589999933,279.52067589999933,279.52067589999933,279.52067589999933,281.7560345999991,282.50669539999944,279.52067589999933,279.52067589999933,2.6839741000003414,004,P016,2025_Mar_07_1405,ConditionRich,2021.2.3,59.93382107495383,
236.0,236.75,1,0.75,Stimuli/P016/sun_aacpzgqrortyhyss.jpg,0,0.0,0.0,0,103,103,103,,,,,,,,,,,,,236.01051189999998,0.010511899999983143,None,282.77355629999875,282.77355629999875,282.77355629999875,282.77355629999875,282.77355629999875,282.77355629999875,282.77355629999875,282.77355629999875,282.77355629999875,282.77355629999875,,004,P016,2025_Mar_07_1405,ConditionRich,2021.2.3,59.93382107495383,
236.75,240.0,41,0.0,Stimuli/Blank.png,0,0.0,0.0,0,104,104,104,,,,,,,,,,,,,236.77568080000128,0.025680800001282478,None,283.524225000001,283.524225000001,283.524225000001,283.524225000001,283.524225000001,283.524225000001,283.524225000001,283.524225000001,283.524225000001,283.524225000001,,004,P016,2025_Mar_07_1405,ConditionRich,2021.2.3,59.93382107495383,
240.0,240.75,26,0.75,Stimuli/P016/things_face_08s.jpg,0,0.0,0.0,0,105,105,105,,,,,,,,,,,,,240.01131739999983,0.011317399999825284,None,286.7604127000013,286.7604127000013,286.7604127000013,286.7604127000013,286.7604127000013,286.7604127000013,286.7604127000013,286.7604127000013,286.7604127000013,286.7604127000013,,004,P016,2025_Mar_07_1405,ConditionRich,2021.2.3,59.93382107495383,
240.75,244.0,41,0.0,Stimuli/Blank.png,0,0.0,0.0,0,106,106,106,,,,,,,,,,,,,240.76196440000058,0.01196440000057919,None,287.51107390000107,287.51107390000107,287.51107390000107,287.51107390000107,287.51107390000107,287.51107390000107,287.51107390000107,287.51107390000107,287.51107390000107,287.51107390000107,,004,P016,2025_Mar_07_1405,ConditionRich,2021.2.3,59.93382107495383,
244.0,244.75,15,0.75,Stimuli/P016/sun_bvfcijehgdsndfbg.jpg,0,0.0,0.0,0,107,107,107,,,,,,,,,,,,,244.01412250000067,0.01412250000066706,None,290.7639296000016,290.7639296000016,290.7639296000016,290.7639296000016,290.7639296000016,290.7639296000016,290.7639296000016,290.7639296000016,290.7639296000016,290.7639296000016,,004,P016,2025_Mar_07_1405,ConditionRich,2021.2.3,59.93382107495383,
244.75,248.0,41,0.0,Stimuli/Blank.png,1,0.25,1.0,0,108,108,108,,,,,,,,,,,,,244.76576750000095,0.01576750000094762,1,291.5146167999992,291.5146167999992,291.5146167999992,291.5146167999992,291.5146167999992,291.5146167999992,291.748150899999,292.49879059999876,291.5146167999992,291.5146167999992,0.5890077000003657,004,P016,2025_Mar_07_1405,ConditionRich,2021.2.3,59.93382107495383,
248.0,248.75,19,0.75,Stimuli/P016/sun_bzhwvgrzvttqoexa.jpg,1,0.0,0.75,0,109,109,109,,,,,,,,,,,,,248.00191690000065,0.001916900000651367,1,294.7675184,294.7675184,294.7675184,294.7675184,294.7675184,294.7675184,294.7675184,295.4847965000008,294.7675184,294.7675184,0.4091512999984843,004,P016,2025_Mar_07_1405,ConditionRich,2021.2.3,59.93382107495383,
248.75,252.0,41,0.0,Stimuli/Blank.png,0,0.0,0.0,0,110,110,110,,,,,,,,,,,,,248.77151070000036,0.021510700000362704,None,295.53486519999933,295.53486519999933,295.53486519999933,295.53486519999933,295.53486519999933,295.53486519999933,295.53486519999933,295.53486519999933,295.53486519999933,295.53486519999933,,004,P016,2025_Mar_07_1405,ConditionRich,2021.2.3,59.93382107495383,
252.0,252.75,38,0.75,Stimuli/P016/things_trumpet_08s.jpg,0,0.0,0.0,0,111,111,111,,,,,,,,,,,,,252.0215403000002,0.02154030000019702,None,298.7710197000015,298.7710197000015,298.7710197000015,298.7710197000015,298.7710197000015,298.7710197000015,298.7710197000015,298.7710197000015,298.7710197000015,298.7710197000015,,004,P016,2025_Mar_07_1405,ConditionRich,2021.2.3,59.93382107495383,
252.75,256.0,41,0.0,Stimuli/Blank.png,0,0.0,0.0,0,112,112,112,,,,,,,,,,,,,252.75521760000265,0.005217600002652034,None,299.5050072000013,299.5050072000013,299.5050072000013,299.5050072000013,299.5050072000013,299.5050072000013,299.5050072000013,299.5050072000013,299.5050072000013,299.5050072000013,,004,P016,2025_Mar_07_1405,ConditionRich,2021.2.3,59.93382107495383,
256.0,256.75,17,0.75,Stimuli/P016/sun_bxhbltvqnpaciuzt.jpg,0,0.0,0.0,0,113,113,113,,,,,,,,,,,,,256.0089934000025,0.008993400002509588,None,302.77457700000014,302.77457700000014,302.77457700000014,302.77457700000014,302.77457700000014,302.77457700000014,302.77457700000014,302.77457700000014,302.77457700000014,302.77457700000014,,004,P016,2025_Mar_07_1405,ConditionRich,2021.2.3,59.93382107495383,
256.75,260.0,41,0.0,Stimuli/Blank.png,1,2.25,3.0,0,114,114,114,,,,,,,,,,,,,256.7767067999994,0.026706799999374198,1,303.52531480000107,303.52531480000107,303.52531480000107,303.52531480000107,303.52531480000107,303.52531480000107,305.7605395999999,306.511255100002,303.52531480000107,303.52531480000107,2.797312700000475,004,P016,2025_Mar_07_1405,ConditionRich,2021.2.3,59.93382107495383,
260.0,260.75,29,0.75,Stimuli/P016/things_mouse1_08s.jpg,0,0.0,0.0,0,115,115,115,,,,,,,,,,,,,260.01245740000013,0.012457400000130292,None,306.77812600000107,306.77812600000107,306.77812600000107,306.77812600000107,306.77812600000107,306.77812600000107,306.77812600000107,306.77812600000107,306.77812600000107,306.77812600000107,,004,P016,2025_Mar_07_1405,ConditionRich,2021.2.3,59.93382107495383,
260.75,264.0,41,0.0,Stimuli/Blank.png,0,0.0,0.0,0,116,116,116,,,,,,,,,,,,,260.7796659000014,0.029665900001418777,None,307.52878079999937,307.52878079999937,307.52878079999937,307.52878079999937,307.52878079999937,307.52878079999937,307.52878079999937,307.52878079999937,307.52878079999937,307.52878079999937,,004,P016,2025_Mar_07_1405,ConditionRich,2021.2.3,59.93382107495383,
264.0,264.75,23,0.75,Stimuli/P016/things_boy_08s.jpg,0,0.0,0.0,0,117,117,117,,,,,,,,,,,,,264.0011431999992,0.0011431999992055353,None,310.76500619999933,310.76500619999933,310.76500619999933,310.76500619999933,310.76500619999933,310.76500619999933,310.76500619999933,310.76500619999933,310.76500619999933,310.76500619999933,,004,P016,2025_Mar_07_1405,ConditionRich,2021.2.3,59.93382107495383,
264.75,268.0,41,0.0,Stimuli/Blank.png,1,0.25,1.0,0,118,118,118,,,,,,,,,,,,,264.7664375000022,0.01643750000221189,1,311.51562249999915,311.51562249999915,311.51562249999915,311.51562249999915,311.51562249999915,311.51562249999915,311.7491795999995,312.4998321999992,311.51562249999915,311.51562249999915,0.7161216999993485,004,P016,2025_Mar_07_1405,ConditionRich,2021.2.3,59.93382107495383,
268.0,268.75,37,0.75,Stimuli/P016/things_swizzle_stick_08s.jpg,0,0.0,0.0,0,119,119,119,,,,,,,,,,,,,268.00281280000127,0.002812800001265714,None,314.76854159999857,314.76854159999857,314.76854159999857,314.76854159999857,314.76854159999857,314.76854159999857,314.76854159999857,314.76854159999857,314.76854159999857,314.76854159999857,,004,P016,2025_Mar_07_1405,ConditionRich,2021.2.3,59.93382107495383,
268.75,272.0,41,0.0,Stimuli/Blank.png,0,0.0,0.0,0,120,120,120,,,,,,,,,,,,,268.77058860000034,0.020588600000337465,None,315.5191679000018,315.5191679000018,315.5191679000018,315.5191679000018,315.5191679000018,315.5191679000018,315.5191679000018,315.5191679000018,315.5191679000018,315.5191679000018,,004,P016,2025_Mar_07_1405,ConditionRich,2021.2.3,59.93382107495383,
272.0,272.75,2,0.75,Stimuli/P016/sun_agzfkftryitnqpxc.jpg,0,0.0,0.0,0,121,121,121,,,,,,,,,,,,,272.00567130000127,0.005671300001267809,None,318.7553599000021,318.7553599000021,318.7553599000021,318.7553599000021,318.7553599000021,318.7553599000021,318.7553599000021,318.7553599000021,318.7553599000021,318.7553599000021,,004,P016,2025_Mar_07_1405,ConditionRich,2021.2.3,59.93382107495383,
272.75,276.0,41,0.0,Stimuli/Blank.png,0,0.0,0.0,0,122,122,122,,,,,,,,,,,,,272.75621800000226,0.0062180000022635795,None,319.5060540000013,319.5060540000013,319.5060540000013,319.5060540000013,319.5060540000013,319.5060540000013,319.5060540000013,319.5060540000013,319.5060540000013,319.5060540000013,,004,P016,2025_Mar_07_1405,ConditionRich,2021.2.3,59.93382107495383,
276.0,292.0,0,0.0,Stimuli/Blank.png,1,5.0,5.75,0,123,123,123,,,,,,,,,,,,,276.01000810000187,0.010008100001869025,1,322.75891870000123,322.75891870000123,322.75891870000123,322.75891870000123,322.75891870000123,322.75891870000123,327.74669229999927,328.49729659999866,322.75891870000123,322.75891870000123,5.3750641000006,004,P016,2025_Mar_07_1405,ConditionRich,2021.2.3,59.93382107495383,
292.0,292.75,3,0.75,Stimuli/P016/sun_aiogwnavezqxkzfg.jpg,0,0.0,0.0,0,124,124,124,,,,,,,,,,,,,292.0067994000019,0.006799400001909817,None,338.7563663000001,338.7563663000001,338.7563663000001,338.7563663000001,338.7563663000001,338.7563663000001,338.7563663000001,338.7563663000001,338.7563663000001,338.7563663000001,,004,P016,2025_Mar_07_1405,ConditionRich,2021.2.3,59.93382107495383,
292.75,296.0,41,0.0,Stimuli/Blank.png,0,0.0,0.0,0,125,125,125,,,,,,,,,,,,,292.7599792000001,0.009979200000088895,None,339.5237248000012,339.5237248000012,339.5237248000012,339.5237248000012,339.5237248000012,339.5237248000012,339.5237248000012,339.5237248000012,339.5237248000012,339.5237248000012,,004,P016,2025_Mar_07_1405,ConditionRich,2021.2.3,59.93382107495383,
296.0,296.75,34,0.75,Stimuli/P016/things_shower_cap_08s.jpg,0,0.0,0.0,0,126,126,126,,,,,,,,,,,,,296.02811199999996,0.02811199999996461,None,342.79327719999856,342.79327719999856,342.79327719999856,342.79327719999856,342.79327719999856,342.79327719999856,342.79327719999856,342.79327719999856,342.79327719999856,342.79327719999856,,004,P016,2025_Mar_07_1405,ConditionRich,2021.2.3,59.93382107495383,
296.75,300.0,41,0.0,Stimuli/Blank.png,1,0.25,1.0,0,127,127,127,,,,,,,,,,,,,296.77809360000174,0.028093600001739105,1,343.5272628999992,343.5272628999992,343.5272628999992,343.5272628999992,343.5272628999992,343.5272628999992,343.76078739999866,344.5114644999994,343.5272628999992,343.5272628999992,0.6524457000014081,004,P016,2025_Mar_07_1405,ConditionRich,2021.2.3,59.93382107495383,
300.0,300.75,24,0.75,Stimuli/P016/things_bunkbed_08s.jpg,0,0.0,0.0,0,128,128,128,,,,,,,,,,,,,300.0137996000012,0.013799600001220824,None,346.7634665000005,346.7634665000005,346.7634665000005,346.7634665000005,346.7634665000005,346.7634665000005,346.7634665000005,346.7634665000005,346.7634665000005,346.7634665000005,,004,P016,2025_Mar_07_1405,ConditionRich,2021.2.3,59.93382107495383,
300.75,304.0,41,0.0,Stimuli/Blank.png,0,0.0,0.0,0,129,129,129,,,,,,,,,,,,,300.76456560000224,0.014565600002242718,None,347.51413479999974,347.51413479999974,347.51413479999974,347.51413479999974,347.51413479999974,347.51413479999974,347.51413479999974,347.51413479999974,347.51413479999974,347.51413479999974,,004,P016,2025_Mar_07_1405,ConditionRich,2021.2.3,59.93382107495383,
304.0,304.75,12,0.75,Stimuli/P016/sun_boffixsnbbloarty.jpg,1,0.0,0.75,0,130,130,130,,,,,,,,,,,,,304.0011474999992,0.0011474999992060475,1,350.7503008999993,350.7503008999993,350.7503008999993,350.7503008999993,350.7503008999993,350.7503008999993,350.7503008999993,351.4842804,350.7503008999993,350.7503008999993,0.6624386000003142,004,P016,2025_Mar_07_1405,ConditionRich,2021.2.3,59.93382107495383,
304.75,308.0,41,0.0,Stimuli/Blank.png,0,0.0,0.0,0,131,131,131,,,,,,,,,,,,,304.75133650000134,0.0013365000013436656,None,351.5009687999991,351.5009687999991,351.5009687999991,351.5009687999991,351.5009687999991,351.5009687999991,351.5009687999991,351.5009687999991,351.5009687999991,351.5009687999991,,004,P016,2025_Mar_07_1405,ConditionRich,2021.2.3,59.93382107495383,
308.0,308.75,28,0.75,Stimuli/P016/things_latte_08s.jpg,0,0.0,0.0,0,132,132,132,,,,,,,,,,,,,308.00512030000027,0.005120300000271527,None,354.77054080000016,354.77054080000016,354.77054080000016,354.77054080000016,354.77054080000016,354.77054080000016,354.77054080000016,354.77054080000016,354.77054080000016,354.77054080000016,,004,P016,2025_Mar_07_1405,ConditionRich,2021.2.3,59.93382107495383,
308.75,312.0,41,0.0,Stimuli/Blank.png,0,0.0,0.0,0,133,133,133,,,,,,,,,,,,,308.7714229000012,0.021422900001198286,None,355.52118039999914,355.52118039999914,355.52118039999914,355.52118039999914,355.52118039999914,355.52118039999914,355.52118039999914,355.52118039999914,355.52118039999914,355.52118039999914,,004,P016,2025_Mar_07_1405,ConditionRich,2021.2.3,59.93382107495383,
312.0,312.75,36,0.75,Stimuli/P016/things_streetlight_08s.jpg,0,0.0,0.0,0,134,134,134,,,,,,,,,,,,,312.01012959999935,0.010129599999345373,None,358.77407460000177,358.77407460000177,358.77407460000177,358.77407460000177,358.77407460000177,358.77407460000177,358.77407460000177,358.77407460000177,358.77407460000177,358.77407460000177,,004,P016,2025_Mar_07_1405,ConditionRich,2021.2.3,59.93382107495383,
312.75,316.0,41,0.0,Stimuli/Blank.png,0,0.0,0.0,0,135,135,135,,,,,,,,,,,,,312.7756932000011,0.025693200001114747,None,359.5247163999993,359.5247163999993,359.5247163999993,359.5247163999993,359.5247163999993,359.5247163999993,359.5247163999993,359.5247163999993,359.5247163999993,359.5247163999993,,004,P016,2025_Mar_07_1405,ConditionRich,2021.2.3,59.93382107495383,
316.0,316.75,9,0.75,Stimuli/P016/sun_bbdgftzhpkaklkll.jpg,0,0.0,0.0,0,136,136,136,,,,,,,,,,,,,316.0112998000004,0.011299800000415416,None,362.7609212999996,362.7609212999996,362.7609212999996,362.7609212999996,362.7609212999996,362.7609212999996,362.7609212999996,362.7609212999996,362.7609212999996,362.7609212999996,,004,P016,2025_Mar_07_1405,ConditionRich,2021.2.3,59.93382107495383,
316.75,320.0,41,0.0,Stimuli/Blank.png,0,0.0,0.0,0,137,137,137,,,,,,,,,,,,,316.7621255000013,0.012125500001275213,None,363.51158919999943,363.51158919999943,363.51158919999943,363.51158919999943,363.51158919999943,363.51158919999943,363.51158919999943,363.51158919999943,363.51158919999943,363.51158919999943,,004,P016,2025_Mar_07_1405,ConditionRich,2021.2.3,59.93382107495383,
320.0,320.75,40,0.75,Stimuli/P016/things_woman_08s.jpg,0,0.0,0.0,0,138,138,138,,,,,,,,,,,,,320.0153315999996,0.015331599999626633,None,366.7644551000012,366.7644551000012,366.7644551000012,366.7644551000012,366.7644551000012,366.7644551000012,366.7644551000012,366.7644551000012,366.7644551000012,366.7644551000012,,004,P016,2025_Mar_07_1405,ConditionRich,2021.2.3,59.93382107495383,
320.75,324.0,41,0.0,Stimuli/Blank.png,1,1.25,2.0,0,139,139,139,,,,,,,,,,,,,320.7494977000024,-0.0005022999976063147,1,367.49843150000015,367.49843150000015,367.49843150000015,367.49843150000015,367.49843150000015,367.49843150000015,368.73290420000194,369.4835215999992,367.49843150000015,367.49843150000015,1.8782609999980195,004,P016,2025_Mar_07_1405,ConditionRich,2021.2.3,59.93382107495383,
324.0,324.75,27,0.75,Stimuli/P016/things_girl_08s.jpg,0,0.0,0.0,0,140,140,140,,,,,,,,,,,,,324.0019237000015,0.0019237000014982186,None,370.7680231000013,370.7680231000013,370.7680231000013,370.7680231000013,370.7680231000013,370.7680231000013,370.7680231000013,370.7680231000013,370.7680231000013,370.7680231000013,,004,P016,2025_Mar_07_1405,ConditionRich,2021.2.3,59.93382107495383,
324.75,328.0,41,0.0,Stimuli/Blank.png,0,0.0,0.0,0,141,141,141,,,,,,,,,,,,,324.76949009999953,0.019490099999529775,None,371.5186734000017,371.5186734000017,371.5186734000017,371.5186734000017,371.5186734000017,371.5186734000017,371.5186734000017,371.5186734000017,371.5186734000017,371.5186734000017,,004,P016,2025_Mar_07_1405,ConditionRich,2021.2.3,59.93382107495383,
328.0,328.75,39,0.75,Stimuli/P016/things_window_08s.jpg,0,0.0,0.0,0,142,142,142,,,,,,,,,,,,,328.00582810000196,0.005828100001963321,None,374.75486699999965,374.75486699999965,374.75486699999965,374.75486699999965,374.75486699999965,374.75486699999965,374.75486699999965,374.75486699999965,374.75486699999965,374.75486699999965,,004,P016,2025_Mar_07_1405,ConditionRich,2021.2.3,59.93382107495383,
328.75,332.0,41,0.0,Stimuli/Blank.png,0,0.0,0.0,0,143,143,143,,,,,,,,,,,,,328.75652590000027,0.006525900000269758,None,375.50550750000184,375.50550750000184,375.50550750000184,375.50550750000184,375.50550750000184,375.50550750000184,375.50550750000184,375.50550750000184,375.50550750000184,375.50550750000184,,004,P016,2025_Mar_07_1405,ConditionRich,2021.2.3,59.93382107495383,
332.0,332.75,11,0.75,Stimuli/P016/sun_bnwmcjuinqbdsbho.jpg,0,0.0,0.0,0,144,144,144,,,,,,,,,,,,,332.00878750000265,0.00878750000265427,None,378.75839389999965,378.75839389999965,378.75839389999965,378.75839389999965,378.75839389999965,378.75839389999965,378.75839389999965,378.75839389999965,378.75839389999965,378.75839389999965,,004,P016,2025_Mar_07_1405,ConditionRich,2021.2.3,59.93382107495383,
332.75,336.0,41,0.0,Stimuli/Blank.png,0,0.0,0.0,0,145,145,145,,,,,,,,,,,,,332.75921799999924,0.009217999999236781,None,379.50905540000167,379.50905540000167,379.50905540000167,379.50905540000167,379.50905540000167,379.50905540000167,379.50905540000167,379.50905540000167,379.50905540000167,379.50905540000167,,004,P016,2025_Mar_07_1405,ConditionRich,2021.2.3,59.93382107495383,
336.0,336.75,32,0.75,Stimuli/P016/things_pheasant_08s.jpg,0,0.0,0.0,0,146,146,146,,,,,,,,,,,,,336.01344360000076,0.013443600000755396,None,382.77861010000197,382.77861010000197,382.77861010000197,382.77861010000197,382.77861010000197,382.77861010000197,382.77861010000197,382.77861010000197,382.77861010000197,382.77861010000197,,004,P016,2025_Mar_07_1405,ConditionRich,2021.2.3,59.93382107495383,
336.75,340.0,41,0.0,Stimuli/Blank.png,0,0.0,0.0,0,147,147,147,,,,,,,,,,,,,336.7801780000009,0.03017800000088755,None,383.5292840000002,383.5292840000002,383.5292840000002,383.5292840000002,383.5292840000002,383.5292840000002,383.5292840000002,383.5292840000002,383.5292840000002,383.5292840000002,,004,P016,2025_Mar_07_1405,ConditionRich,2021.2.3,59.93382107495383,
340.0,340.75,22,0.75,Stimuli/P016/things_baby_08s.jpg,1,0.0,0.75,0,148,148,148,,,,,,,,,,,,,340.0015609000002,0.0015609000001859386,1,386.7654728999987,386.7654728999987,386.7654728999987,386.7654728999987,386.7654728999987,386.7654728999987,386.7654728999987,387.4994466999997,386.7654728999987,386.7654728999987,0.5141958000021987,004,P016,2025_Mar_07_1405,ConditionRich,2021.2.3,59.93382107495383,
340.75,344.0,41,0.0,Stimuli/Blank.png,0,0.0,0.0,0,149,149,149,,,,,,,,,,,,,340.7664119000001,0.016411900000093738,None,387.51613290000023,387.51613290000023,387.51613290000023,387.51613290000023,387.51613290000023,387.51613290000023,387.51613290000023,387.51613290000023,387.51613290000023,387.51613290000023,,004,P016,2025_Mar_07_1405,ConditionRich,2021.2.3,59.93382107495383,
344.0,344.75,18,0.75,Stimuli/P016/sun_byavixgfuhzioilz.jpg,0,0.0,0.0,0,150,150,150,,,,,,,,,,,,,344.0033261999997,0.0033261999997193925,None,390.76900770000066,390.76900770000066,390.76900770000066,390.76900770000066,390.76900770000066,390.76900770000066,390.76900770000066,390.76900770000066,390.76900770000066,390.76900770000066,,004,P016,2025_Mar_07_1405,ConditionRich,2021.2.3,59.93382107495383,
344.75,348.0,41,0.0,Stimuli/Blank.png,0,0.0,0.0,0,151,151,151,,,,,,,,,,,,,344.7698780999999,0.01987809999991441,None,391.5196797999997,391.5196797999997,391.5196797999997,391.5196797999997,391.5196797999997,391.5196797999997,391.5196797999997,391.5196797999997,391.5196797999997,391.5196797999997,,004,P016,2025_Mar_07_1405,ConditionRich,2021.2.3,59.93382107495383,
348.0,348.75,7,0.75,Stimuli/P016/sun_aqdfrmtvewaapuqs.jpg,0,0.0,0.0,0,152,152,152,,,,,,,,,,,,,348.006228000002,0.006228000002010958,None,394.7558730000019,394.7558730000019,394.7558730000019,394.7558730000019,394.7558730000019,394.7558730000019,394.7558730000019,394.7558730000019,394.7558730000019,394.7558730000019,,004,P016,2025_Mar_07_1405,ConditionRich,2021.2.3,59.93382107495383,
348.75,352.0,41,0.0,Stimuli/Blank.png,0,0.0,0.0,0,153,153,153,,,,,,,,,,,,,348.75776170000245,0.007761700002447469,None,395.50660680000146,395.50660680000146,395.50660680000146,395.50660680000146,395.50660680000146,395.50660680000146,395.50660680000146,395.50660680000146,395.50660680000146,395.50660680000146,,004,P016,2025_Mar_07_1405,ConditionRich,2021.2.3,59.93382107495383,
352.0,352.75,5,0.75,Stimuli/P016/sun_ajgmxbrxdpmsaext.jpg,0,0.0,0.0,0,154,154,154,,,,,,,,,,,,,352.01193950000015,0.011939500000153203,None,398.7761023000021,398.7761023000021,398.7761023000021,398.7761023000021,398.7761023000021,398.7761023000021,398.7761023000021,398.7761023000021,398.7761023000021,398.7761023000021,,004,P016,2025_Mar_07_1405,ConditionRich,2021.2.3,59.93382107495383,
352.75,356.0,41,0.0,Stimuli/Blank.png,0,0.0,0.0,0,155,155,155,,,,,,,,,,,,,352.7778204000024,0.027820400002383394,None,399.52681830000074,399.52681830000074,399.52681830000074,399.52681830000074,399.52681830000074,399.52681830000074,399.52681830000074,399.52681830000074,399.52681830000074,399.52681830000074,,004,P016,2025_Mar_07_1405,ConditionRich,2021.2.3,59.93382107495383,
356.0,356.75,20,0.75,Stimuli/P016/sun_bzmxulijbnmshodq.jpg,0,0.0,0.0,0,156,156,156,,,,,,,,,,,,,356.0160896000016,0.01608960000157822,None,402.7796492000016,402.7796492000016,402.7796492000016,402.7796492000016,402.7796492000016,402.7796492000016,402.7796492000016,402.7796492000016,402.7796492000016,402.7796492000016,,004,P016,2025_Mar_07_1405,ConditionRich,2021.2.3,59.93382107495383,
356.75,360.0,41,0.0,Stimuli/Blank.png,0,0.0,0.0,0,157,157,157,,,,,,,,,,,,,356.76384170000165,0.01384170000164886,None,403.5136516999992,403.5136516999992,403.5136516999992,403.5136516999992,403.5136516999992,403.5136516999992,403.5136516999992,403.5136516999992,403.5136516999992,403.5136516999992,,004,P016,2025_Mar_07_1405,ConditionRich,2021.2.3,59.93382107495383,
360.0,360.75,13,0.75,Stimuli/P016/sun_bphvjnowixlryxot.jpg,0,0.0,0.0,0,158,158,158,,,,,,,,,,,,,360.0006945000023,0.0006945000022824388,None,406.7664786999994,406.7664786999994,406.7664786999994,406.7664786999994,406.7664786999994,406.7664786999994,406.7664786999994,406.7664786999994,406.7664786999994,406.7664786999994,,004,P016,2025_Mar_07_1405,ConditionRich,2021.2.3,59.93382107495383,
360.75,364.0,41,0.0,Stimuli/Blank.png,0,0.0,0.0,0,159,159,159,,,,,,,,,,,,,360.7704080000003,0.02040800000031595,None,407.53383179999946,407.53383179999946,407.53383179999946,407.53383179999946,407.53383179999946,407.53383179999946,407.53383179999946,407.53383179999946,407.53383179999946,407.53383179999946,,004,P016,2025_Mar_07_1405,ConditionRich,2021.2.3,59.93382107495383,
364.0,364.75,25,0.75,Stimuli/P016/things_deer_08s.jpg,0,0.0,0.0,0,160,160,160,,,,,,,,,,,,,364.0219934000015,0.021993400001520058,None,410.7867026999993,410.7867026999993,410.7867026999993,410.7867026999993,410.7867026999993,410.7867026999993,410.7867026999993,410.7867026999993,410.7867026999993,410.7867026999993,,004,P016,2025_Mar_07_1405,ConditionRich,2021.2.3,59.93382107495383,
364.75,368.0,41,0.0,Stimuli/Blank.png,0,0.0,0.0,0,161,161,161,,,,,,,,,,,,,364.77159400000164,0.02159400000164169,None,411.5206779,411.5206779,411.5206779,411.5206779,411.5206779,411.5206779,411.5206779,411.5206779,411.5206779,411.5206779,,004,P016,2025_Mar_07_1405,ConditionRich,2021.2.3,59.93382107495383,
368.0,368.75,8,0.75,Stimuli/P016/sun_arldxotvfucvuudk.jpg,1,0.0,0.75,0,162,162,162,,,,,,,,,,,,,368.00847500000236,0.008475000002363231,1,414.7735653000018,414.7735653000018,414.7735653000018,414.7735653000018,414.7735653000018,414.7735653000018,414.7735653000018,415.490916499999,414.7735653000018,414.7735653000018,0.5560611999972025,004,P016,2025_Mar_07_1405,ConditionRich,2021.2.3,59.93382107495383,
368.75,372.0,41,0.0,Stimuli/Blank.png,0,0.0,0.0,0,163,163,163,,,,,,,,,,,,,368.7756279000023,0.025627900002291426,None,415.52423890000136,415.52423890000136,415.52423890000136,415.52423890000136,415.52423890000136,415.52423890000136,415.52423890000136,415.52423890000136,415.52423890000136,415.52423890000136,,004,P016,2025_Mar_07_1405,ConditionRich,2021.2.3,59.93382107495383,
372.0,388.0,0,0.0,Stimuli/Blank.png,1,2.0,2.75,0,164,164,164,,,,,,,,,,,,,372.0113416000022,0.011341600002197083,1,418.7604151000014,418.7604151000014,418.7604151000014,418.7604151000014,418.7604151000014,418.7604151000014,420.7455427999994,421.4961699000014,418.7604151000014,418.7604151000014,2.4244666999984474,004,P016,2025_Mar_07_1405,ConditionRich,2021.2.3,59.93382107495383,
