eventStartTime,eventEndTime,eventCond,imSize,imFile,responseEvent,fixRespStart,fixRespEnd,Events.thisRepN,Events.thisTrialN,Events.thisN,Events.thisIndex,Instructions.started,Instructions.stopped,participantReadyResponse.keys,participantReadyResponse.rt,participantReadyResponse.started,participantReadyResponse.stopped,startWaitforTrigger,triggerResponse.keys,triggerResponse.rt,triggerResponse.started,triggerResponse.stopped,globalTimer,actualStartTime,startTimingDiff,participantResponse.keys,participantResponse.started,participantResponse.stopped,image.started,image.stopped,fixationOutside.started,fixationOutside.stopped,fixationResponse.started,fixationResponse.stopped,fixationInside.started,fixationInside.stopped,participantResponse.rt,session,participant,date,expName,psychopyVersion,frameRate,
,,,,,,,,,,,,16.6680551999998,None,1,6.407059400000435,16.6680551999998,None,,,,,,,,,,,,,,,,,,,,,006,P016,2025_Mar_07_1420,ConditionRich,2021.2.3,59.93662301543458,
,,,,,,,,,,,,,,,,,,23.09051890000046,5,16.330608699998265,23.104484900002717,None,,,,,,,,,,,,,,,,006,P016,2025_Mar_07_1420,ConditionRich,2021.2.3,59.93662301543458,
0.0,4.0,0,0.0,Stimuli/Blank.png,0,0,0.0,0,0,0,0,,,,,,,,,,,,39.43793039999946,0.05057370000213268,0.05057370000213268,None,39.50231960000019,None,39.50231960000019,None,39.50231960000019,None,39.50231960000019,39.50231960000019,39.50231960000019,None,,006,P016,2025_Mar_07_1420,ConditionRich,2021.2.3,59.93662301543458,
4.0,4.75,12,0.75,Stimuli/P016/sun_boffixsnbbloarty.jpg,0,0,0.0,0,1,1,1,,,,,,,,,,,,,4.004957199998898,0.004957199998898432,None,43.47281280000243,43.47281280000243,43.47281280000243,43.47281280000243,43.47281280000243,43.47281280000243,43.47281280000243,43.47281280000243,43.47281280000243,43.47281280000243,,006,P016,2025_Mar_07_1420,ConditionRich,2021.2.3,59.93662301543458,
4.75,5.0,41,0.0,Stimuli/Blank.png,0,0,0.0,0,2,2,2,,,,,,,,,,,,,4.771436800001538,0.02143680000153836,None,44.22346330000073,44.22346330000073,44.22346330000073,44.22346330000073,44.22346330000073,44.22346330000073,44.22346330000073,44.22346330000073,44.22346330000073,44.22346330000073,,006,P016,2025_Mar_07_1420,ConditionRich,2021.2.3,59.93662301543458,
5.0,5.75,12,0.75,Stimuli/P016/sun_boffixsnbbloarty.jpg,0,0,0.0,0,3,3,3,,,,,,,,,,,,,5.004323799999838,0.004323799999838229,None,44.4567003000011,44.4567003000011,44.4567003000011,44.4567003000011,44.4567003000011,44.4567003000011,44.4567003000011,44.4567003000011,44.4567003000011,44.4567003000011,,006,P016,2025_Mar_07_1420,ConditionRich,2021.2.3,59.93662301543458,
5.75,6.0,41,0.0,Stimuli/Blank.png,0,0,0.0,0,4,4,4,,,,,,,,,,,,,5.7551247000010335,0.005124700001033489,None,45.20736200000101,45.20736200000101,45.20736200000101,45.20736200000101,45.20736200000101,45.20736200000101,45.20736200000101,45.20736200000101,45.20736200000101,45.20736200000101,,006,P016,2025_Mar_07_1420,ConditionRich,2021.2.3,59.93662301543458,
6.0,6.75,12,0.75,Stimuli/P016/sun_boffixsnbbloarty.jpg,0,0,0.0,0,5,5,5,,,,,,,,,,,,,6.005931700001383,0.005931700001383433,None,45.47427040000184,45.47427040000184,45.47427040000184,45.47427040000184,45.47427040000184,45.47427040000184,45.47427040000184,45.47427040000184,45.47427040000184,45.47427040000184,,006,P016,2025_Mar_07_1420,ConditionRich,2021.2.3,59.93662301543458,
6.75,7.0,41,0.0,Stimuli/Blank.png,0,0,0.0,0,6,6,6,,,,,,,,,,,,,6.7744259999999485,0.024425999999948544,None,46.24163039999985,46.24163039999985,46.24163039999985,46.24163039999985,46.24163039999985,46.24163039999985,46.24163039999985,46.24163039999985,46.24163039999985,46.24163039999985,,006,P016,2025_Mar_07_1420,ConditionRich,2021.2.3,59.93662301543458,
7.0,7.75,12,0.75,Stimuli/P016/sun_boffixsnbbloarty.jpg,0,0,0.0,0,7,7,7,,,,,,,,,,,,,7.023283900001843,0.023283900001842994,None,46.49183410000114,46.49183410000114,46.49183410000114,46.49183410000114,46.49183410000114,46.49183410000114,46.49183410000114,46.49183410000114,46.49183410000114,46.49183410000114,,006,P016,2025_Mar_07_1420,ConditionRich,2021.2.3,59.93662301543458,
7.75,8.0,41,0.0,Stimuli/Blank.png,0,0,0.0,0,8,8,8,,,,,,,,,,,,,7.773446100000001,0.023446100000001024,None,47.22582060000059,47.22582060000059,47.22582060000059,47.22582060000059,47.22582060000059,47.22582060000059,47.22582060000059,47.22582060000059,47.22582060000059,47.22582060000059,,006,P016,2025_Mar_07_1420,ConditionRich,2021.2.3,59.93662301543458,
8.0,8.75,24,0.75,Stimuli/P016/things_bunkbed_08s.jpg,0,0,0.0,0,9,9,9,,,,,,,,,,,,,8.008086900001217,0.008086900001217145,None,47.47603900000104,47.47603900000104,47.47603900000104,47.47603900000104,47.47603900000104,47.47603900000104,47.47603900000104,47.47603900000104,47.47603900000104,47.47603900000104,,006,P016,2025_Mar_07_1420,ConditionRich,2021.2.3,59.93662301543458,
8.75,9.0,41,0.0,Stimuli/Blank.png,0,0,0.0,0,10,10,10,,,,,,,,,,,,,8.774190500000259,0.024190500000258908,None,48.226696800000354,48.226696800000354,48.226696800000354,48.226696800000354,48.226696800000354,48.226696800000354,48.226696800000354,48.226696800000354,48.226696800000354,48.226696800000354,,006,P016,2025_Mar_07_1420,ConditionRich,2021.2.3,59.93662301543458,
9.0,9.75,24,0.75,Stimuli/P016/things_bunkbed_08s.jpg,0,0,0.0,0,11,11,11,,,,,,,,,,,,,9.007529800001066,0.007529800001066178,None,48.46023559999958,48.46023559999958,48.46023559999958,48.46023559999958,48.46023559999958,48.46023559999958,48.46023559999958,48.46023559999958,48.46023559999958,48.46023559999958,,006,P016,2025_Mar_07_1420,ConditionRich,2021.2.3,59.93662301543458,
9.75,10.0,41,0.0,Stimuli/Blank.png,0,0,0.0,0,12,12,12,,,,,,,,,,,,,9.759003400002257,0.009003400002256967,None,49.210905800002365,49.210905800002365,49.210905800002365,49.210905800002365,49.210905800002365,49.210905800002365,49.210905800002365,49.210905800002365,49.210905800002365,49.210905800002365,,006,P016,2025_Mar_07_1420,ConditionRich,2021.2.3,59.93662301543458,
10.0,10.75,24,0.75,Stimuli/P016/things_bunkbed_08s.jpg,0,0,0.0,0,13,13,13,,,,,,,,,,,,,10.009252300002117,0.009252300002117408,None,49.46108530000129,49.46108530000129,49.46108530000129,49.46108530000129,49.46108530000129,49.46108530000129,49.46108530000129,49.46108530000129,49.46108530000129,49.46108530000129,,006,P016,2025_Mar_07_1420,ConditionRich,2021.2.3,59.93662301543458,
10.75,11.0,41,0.0,Stimuli/Blank.png,0,0,0.0,0,14,14,14,,,,,,,,,,,,,10.75972080000065,0.009720800000650343,None,50.21183120000205,50.21183120000205,50.21183120000205,50.21183120000205,50.21183120000205,50.21183120000205,50.21183120000205,50.21183120000205,50.21183120000205,50.21183120000205,,006,P016,2025_Mar_07_1420,ConditionRich,2021.2.3,59.93662301543458,
11.0,11.75,24,0.75,Stimuli/P016/things_bunkbed_08s.jpg,0,0,0.0,0,15,15,15,,,,,,,,,,,,,11.010368900002504,0.010368900002504233,None,50.46197300000131,50.46197300000131,50.46197300000131,50.46197300000131,50.46197300000131,50.46197300000131,50.46197300000131,50.46197300000131,50.46197300000131,50.46197300000131,,006,P016,2025_Mar_07_1420,ConditionRich,2021.2.3,59.93662301543458,
11.75,12.0,41,0.0,Stimuli/Blank.png,0,0,0.0,0,16,16,16,,,,,,,,,,,,,11.760265500000969,0.010265500000969041,None,51.21271350000097,51.21271350000097,51.21271350000097,51.21271350000097,51.21271350000097,51.21271350000097,51.21271350000097,51.21271350000097,51.21271350000097,51.21271350000097,,006,P016,2025_Mar_07_1420,ConditionRich,2021.2.3,59.93662301543458,
12.0,12.75,22,0.75,Stimuli/P016/things_baby_08s.jpg,0,0,0.0,0,17,17,17,,,,,,,,,,,,,12.011361400000169,0.011361400000168942,None,51.47958260000087,51.47958260000087,51.47958260000087,51.47958260000087,51.47958260000087,51.47958260000087,51.47958260000087,51.47958260000087,51.47958260000087,51.47958260000087,,006,P016,2025_Mar_07_1420,ConditionRich,2021.2.3,59.93662301543458,
12.75,13.0,41,0.0,Stimuli/Blank.png,0,0,0.0,0,18,18,18,,,,,,,,,,,,,12.778352400000585,0.028352400000585476,None,52.230239399999846,52.230239399999846,52.230239399999846,52.230239399999846,52.230239399999846,52.230239399999846,52.230239399999846,52.230239399999846,52.230239399999846,52.230239399999846,,006,P016,2025_Mar_07_1420,ConditionRich,2021.2.3,59.93662301543458,
13.0,13.75,22,0.75,Stimuli/P016/things_baby_08s.jpg,0,0,0.0,0,19,19,19,,,,,,,,,,,,,13.01177540000208,0.01177540000207955,None,52.46377230000144,52.46377230000144,52.46377230000144,52.46377230000144,52.46377230000144,52.46377230000144,52.46377230000144,52.46377230000144,52.46377230000144,52.46377230000144,,006,P016,2025_Mar_07_1420,ConditionRich,2021.2.3,59.93662301543458,
13.75,14.0,41,0.0,Stimuli/Blank.png,0,0,0.0,0,20,20,20,,,,,,,,,,,,,13.763855000001058,0.013855000001058215,None,53.23113569999987,53.23113569999987,53.23113569999987,53.23113569999987,53.23113569999987,53.23113569999987,53.23113569999987,53.23113569999987,53.23113569999987,53.23113569999987,,006,P016,2025_Mar_07_1420,ConditionRich,2021.2.3,59.93662301543458,
14.0,14.75,22,0.75,Stimuli/P016/things_baby_08s.jpg,0,0,0.0,0,21,21,21,,,,,,,,,,,,,14.03004460000011,0.030044600000110222,None,53.498049800000445,53.498049800000445,53.498049800000445,53.498049800000445,53.498049800000445,53.498049800000445,53.498049800000445,53.498049800000445,53.498049800000445,53.498049800000445,,006,P016,2025_Mar_07_1420,ConditionRich,2021.2.3,59.93662301543458,
14.75,15.0,41,0.0,Stimuli/Blank.png,0,0,0.0,0,22,22,22,,,,,,,,,,,,,14.780532100001437,0.030532100001437357,None,54.232006000002,54.232006000002,54.232006000002,54.232006000002,54.232006000002,54.232006000002,54.232006000002,54.232006000002,54.232006000002,54.232006000002,,006,P016,2025_Mar_07_1420,ConditionRich,2021.2.3,59.93662301543458,
15.0,15.75,22,0.75,Stimuli/P016/things_baby_08s.jpg,0,0,0.0,0,23,23,23,,,,,,,,,,,,,15.013054099999863,0.013054099999862956,None,54.46554500000275,54.46554500000275,54.46554500000275,54.46554500000275,54.46554500000275,54.46554500000275,54.46554500000275,54.46554500000275,54.46554500000275,54.46554500000275,,006,P016,2025_Mar_07_1420,ConditionRich,2021.2.3,59.93662301543458,
15.75,16.0,41,0.0,Stimuli/Blank.png,0,0,0.0,0,24,24,24,,,,,,,,,,,,,15.765232600002491,0.015232600002491381,None,55.232915700002195,55.232915700002195,55.232915700002195,55.232915700002195,55.232915700002195,55.232915700002195,55.232915700002195,55.232915700002195,55.232915700002195,55.232915700002195,,006,P016,2025_Mar_07_1420,ConditionRich,2021.2.3,59.93662301543458,
16.0,16.75,6,0.75,Stimuli/P016/sun_akecfasimgpbqcnt.jpg,0,0,0.0,0,25,25,25,,,,,,,,,,,,,16.031438699999853,0.03143869999985327,None,55.48312200000146,55.48312200000146,55.48312200000146,55.48312200000146,55.48312200000146,55.48312200000146,55.48312200000146,55.48312200000146,55.48312200000146,55.48312200000146,,006,P016,2025_Mar_07_1420,ConditionRich,2021.2.3,59.93662301543458,
16.75,17.0,41,0.0,Stimuli/Blank.png,0,0,0.0,0,26,26,26,,,,,,,,,,,,,16.764651199999207,0.014651199999207165,None,56.21710600000006,56.21710600000006,56.21710600000006,56.21710600000006,56.21710600000006,56.21710600000006,56.21710600000006,56.21710600000006,56.21710600000006,56.21710600000006,,006,P016,2025_Mar_07_1420,ConditionRich,2021.2.3,59.93662301543458,
17.0,17.75,6,0.75,Stimuli/P016/sun_akecfasimgpbqcnt.jpg,0,0,0.0,0,27,27,27,,,,,,,,,,,,,17.015797200001543,0.015797200001543388,None,56.48402940000233,56.48402940000233,56.48402940000233,56.48402940000233,56.48402940000233,56.48402940000233,56.48402940000233,56.48402940000233,56.48402940000233,56.48402940000233,,006,P016,2025_Mar_07_1420,ConditionRich,2021.2.3,59.93662301543458,
17.75,18.0,41,0.0,Stimuli/Blank.png,0,0,0.0,0,28,28,28,,,,,,,,,,,,,17.765473999999813,0.015473999999812804,None,57.2179744999994,57.2179744999994,57.2179744999994,57.2179744999994,57.2179744999994,57.2179744999994,57.2179744999994,57.2179744999994,57.2179744999994,57.2179744999994,,006,P016,2025_Mar_07_1420,ConditionRich,2021.2.3,59.93662301543458,
18.0,18.75,6,0.75,Stimuli/P016/sun_akecfasimgpbqcnt.jpg,0,0,0.0,0,29,29,29,,,,,,,,,,,,,17.9999413000005,-5.869999949936755e-05,None,57.451488400001836,57.451488400001836,57.451488400001836,57.451488400001836,57.451488400001836,57.451488400001836,57.451488400001836,57.451488400001836,57.451488400001836,57.451488400001836,,006,P016,2025_Mar_07_1420,ConditionRich,2021.2.3,59.93662301543458,
18.75,19.0,41,0.0,Stimuli/Blank.png,0,0,0.0,0,30,30,30,,,,,,,,,,,,,18.750854900001286,0.0008549000012862962,None,58.20235479999974,58.20235479999974,58.20235479999974,58.20235479999974,58.20235479999974,58.20235479999974,58.20235479999974,58.20235479999974,58.20235479999974,58.20235479999974,,006,P016,2025_Mar_07_1420,ConditionRich,2021.2.3,59.93662301543458,
19.0,19.75,6,0.75,Stimuli/P016/sun_akecfasimgpbqcnt.jpg,0,0,0.0,0,31,31,31,,,,,,,,,,,,,19.000860600001033,0.0008606000010331627,None,58.45240030000059,58.45240030000059,58.45240030000059,58.45240030000059,58.45240030000059,58.45240030000059,58.45240030000059,58.45240030000059,58.45240030000059,58.45240030000059,,006,P016,2025_Mar_07_1420,ConditionRich,2021.2.3,59.93662301543458,
19.75,20.0,41,0.0,Stimuli/Blank.png,0,0,0.0,0,32,32,32,,,,,,,,,,,,,19.750408399999287,0.00040839999928721227,None,59.20307569999932,59.20307569999932,59.20307569999932,59.20307569999932,59.20307569999932,59.20307569999932,59.20307569999932,59.20307569999932,59.20307569999932,59.20307569999932,,006,P016,2025_Mar_07_1420,ConditionRich,2021.2.3,59.93662301543458,
20.0,20.75,38,0.75,Stimuli/P016/things_trumpet_08s.jpg,0,0,0.0,0,33,33,33,,,,,,,,,,,,,20.001216799999384,0.001216799999383511,None,59.4699741000004,59.4699741000004,59.4699741000004,59.4699741000004,59.4699741000004,59.4699741000004,59.4699741000004,59.4699741000004,59.4699741000004,59.4699741000004,,006,P016,2025_Mar_07_1420,ConditionRich,2021.2.3,59.93662301543458,
20.75,21.0,41,0.0,Stimuli/Blank.png,0,0,0.0,0,34,34,34,,,,,,,,,,,,,20.768502800001443,0.018502800001442665,None,60.22063550000166,60.22063550000166,60.22063550000166,60.22063550000166,60.22063550000166,60.22063550000166,60.22063550000166,60.22063550000166,60.22063550000166,60.22063550000166,,006,P016,2025_Mar_07_1420,ConditionRich,2021.2.3,59.93662301543458,
21.0,21.75,38,0.75,Stimuli/P016/things_trumpet_08s.jpg,0,0,0.0,0,35,35,35,,,,,,,,,,,,,21.002336300000024,0.002336300000024494,None,60.454166300001816,60.454166300001816,60.454166300001816,60.454166300001816,60.454166300001816,60.454166300001816,60.454166300001816,60.454166300001816,60.454166300001816,60.454166300001816,,006,P016,2025_Mar_07_1420,ConditionRich,2021.2.3,59.93662301543458,
21.75,22.0,41,0.0,Stimuli/Blank.png,0,0,0.0,0,36,36,36,,,,,,,,,,,,,21.753270799999882,0.0032707999998820014,None,61.20484960000249,61.20484960000249,61.20484960000249,61.20484960000249,61.20484960000249,61.20484960000249,61.20484960000249,61.20484960000249,61.20484960000249,61.20484960000249,,006,P016,2025_Mar_07_1420,ConditionRich,2021.2.3,59.93662301543458,
22.0,22.75,38,0.75,Stimuli/P016/things_trumpet_08s.jpg,0,0,0.0,0,37,37,37,,,,,,,,,,,,,22.00323600000047,0.003236000000470085,None,61.47179800000231,61.47179800000231,61.47179800000231,61.47179800000231,61.47179800000231,61.47179800000231,61.47179800000231,61.47179800000231,61.47179800000231,61.47179800000231,,006,P016,2025_Mar_07_1420,ConditionRich,2021.2.3,59.93662301543458,
22.75,23.0,41,0.0,Stimuli/Blank.png,0,0,0.0,0,38,38,38,,,,,,,,,,,,,22.769984000002296,0.019984000002295943,None,62.22239990000162,62.22239990000162,62.22239990000162,62.22239990000162,62.22239990000162,62.22239990000162,62.22239990000162,62.22239990000162,62.22239990000162,62.22239990000162,,006,P016,2025_Mar_07_1420,ConditionRich,2021.2.3,59.93662301543458,
23.0,23.75,38,0.75,Stimuli/P016/things_trumpet_08s.jpg,0,0,0.0,0,39,39,39,,,,,,,,,,,,,23.00343459999931,0.0034345999993092846,None,62.45593980000194,62.45593980000194,62.45593980000194,62.45593980000194,62.45593980000194,62.45593980000194,62.45593980000194,62.45593980000194,62.45593980000194,62.45593980000194,,006,P016,2025_Mar_07_1420,ConditionRich,2021.2.3,59.93662301543458,
23.75,24.0,41,0.0,Stimuli/Blank.png,0,0,0.0,0,40,40,40,,,,,,,,,,,,,23.75473790000251,0.004737900002510287,None,63.206604200000584,63.206604200000584,63.206604200000584,63.206604200000584,63.206604200000584,63.206604200000584,63.206604200000584,63.206604200000584,63.206604200000584,63.206604200000584,,006,P016,2025_Mar_07_1420,ConditionRich,2021.2.3,59.93662301543458,
24.0,24.75,7,0.75,Stimuli/P016/sun_aqdfrmtvewaapuqs.jpg,0,0,0.0,0,41,41,41,,,,,,,,,,,,,24.004410300000018,0.004410300000017742,None,63.456830700000864,63.456830700000864,63.456830700000864,63.456830700000864,63.456830700000864,63.456830700000864,63.456830700000864,63.456830700000864,63.456830700000864,63.456830700000864,,006,P016,2025_Mar_07_1420,ConditionRich,2021.2.3,59.93662301543458,
24.75,25.0,41,0.0,Stimuli/Blank.png,0,0,0.0,0,42,42,42,,,,,,,,,,,,,24.75506580000001,0.0050658000000112224,None,64.20749500000238,64.20749500000238,64.20749500000238,64.20749500000238,64.20749500000238,64.20749500000238,64.20749500000238,64.20749500000238,64.20749500000238,64.20749500000238,,006,P016,2025_Mar_07_1420,ConditionRich,2021.2.3,59.93662301543458,
25.0,25.75,7,0.75,Stimuli/P016/sun_aqdfrmtvewaapuqs.jpg,0,0,0.0,0,43,43,43,,,,,,,,,,,,,25.005124800001795,0.005124800001794938,None,64.45771149999928,64.45771149999928,64.45771149999928,64.45771149999928,64.45771149999928,64.45771149999928,64.45771149999928,64.45771149999928,64.45771149999928,64.45771149999928,,006,P016,2025_Mar_07_1420,ConditionRich,2021.2.3,59.93662301543458,
25.75,26.0,41,0.0,Stimuli/Blank.png,0,0,0.0,0,44,44,44,,,,,,,,,,,,,25.757443900001817,0.007443900001817383,None,65.20838920000097,65.20838920000097,65.20838920000097,65.20838920000097,65.20838920000097,65.20838920000097,65.20838920000097,65.20838920000097,65.20838920000097,65.20838920000097,,006,P016,2025_Mar_07_1420,ConditionRich,2021.2.3,59.93662301543458,
26.0,26.75,7,0.75,Stimuli/P016/sun_aqdfrmtvewaapuqs.jpg,1,0,0.75,0,45,45,45,,,,,,,,,,,,,26.006509999999253,0.006509999999252614,1,65.47529700000086,65.47529700000086,65.47529700000086,65.47529700000086,65.47529700000086,65.47529700000086,65.47529700000086,66.19257410000137,65.47529700000086,65.47529700000086,0.45079460000124527,006,P016,2025_Mar_07_1420,ConditionRich,2021.2.3,59.93662301543458,
26.75,27.0,41,0.0,Stimuli/Blank.png,0,0,0.0,0,46,46,46,,,,,,,,,,,,,26.774461600001814,0.024461600001814077,None,66.22594240000035,66.22594240000035,66.22594240000035,66.22594240000035,66.22594240000035,66.22594240000035,66.22594240000035,66.22594240000035,66.22594240000035,66.22594240000035,,006,P016,2025_Mar_07_1420,ConditionRich,2021.2.3,59.93662301543458,
27.0,27.75,7,0.75,Stimuli/P016/sun_aqdfrmtvewaapuqs.jpg,0,0,0.0,0,47,47,47,,,,,,,,,,,,,27.006832800001575,0.006832800001575379,None,66.45953390000068,66.45953390000068,66.45953390000068,66.45953390000068,66.45953390000068,66.45953390000068,66.45953390000068,66.45953390000068,66.45953390000068,66.45953390000068,,006,P016,2025_Mar_07_1420,ConditionRich,2021.2.3,59.93662301543458,
27.75,28.0,41,0.0,Stimuli/Blank.png,0,0,0.0,0,48,48,48,,,,,,,,,,,,,27.758730400000786,0.008730400000786176,None,67.21016299999974,67.21016299999974,67.21016299999974,67.21016299999974,67.21016299999974,67.21016299999974,67.21016299999974,67.21016299999974,67.21016299999974,67.21016299999974,,006,P016,2025_Mar_07_1420,ConditionRich,2021.2.3,59.93662301543458,
28.0,28.75,32,0.75,Stimuli/P016/things_pheasant_08s.jpg,0,0,0.0,0,49,49,49,,,,,,,,,,,,,28.008676199999172,0.00867619999917224,None,67.47704970000268,67.47704970000268,67.47704970000268,67.47704970000268,67.47704970000268,67.47704970000268,67.47704970000268,67.47704970000268,67.47704970000268,67.47704970000268,,006,P016,2025_Mar_07_1420,ConditionRich,2021.2.3,59.93662301543458,
28.75,29.0,41,0.0,Stimuli/Blank.png,0,0,0.0,0,50,50,50,,,,,,,,,,,,,28.775961899998947,0.025961899998947047,None,68.22786300000007,68.22786300000007,68.22786300000007,68.22786300000007,68.22786300000007,68.22786300000007,68.22786300000007,68.22786300000007,68.22786300000007,68.22786300000007,,006,P016,2025_Mar_07_1420,ConditionRich,2021.2.3,59.93662301543458,
29.0,29.75,32,0.75,Stimuli/P016/things_pheasant_08s.jpg,0,0,0.0,0,51,51,51,,,,,,,,,,,,,29.009389800001372,0.00938980000137235,None,68.46121680000215,68.46121680000215,68.46121680000215,68.46121680000215,68.46121680000215,68.46121680000215,68.46121680000215,68.46121680000215,68.46121680000215,68.46121680000215,,006,P016,2025_Mar_07_1420,ConditionRich,2021.2.3,59.93662301543458,
29.75,30.0,41,0.0,Stimuli/Blank.png,0,0,0.0,0,52,52,52,,,,,,,,,,,,,29.759610000000976,0.00961000000097556,None,69.21191430000181,69.21191430000181,69.21191430000181,69.21191430000181,69.21191430000181,69.21191430000181,69.21191430000181,69.21191430000181,69.21191430000181,69.21191430000181,,006,P016,2025_Mar_07_1420,ConditionRich,2021.2.3,59.93662301543458,
30.0,30.75,32,0.75,Stimuli/P016/things_pheasant_08s.jpg,0,0,0.0,0,53,53,53,,,,,,,,,,,,,30.009926300001098,0.009926300001097843,None,69.46210419999989,69.46210419999989,69.46210419999989,69.46210419999989,69.46210419999989,69.46210419999989,69.46210419999989,69.46210419999989,69.46210419999989,69.46210419999989,,006,P016,2025_Mar_07_1420,ConditionRich,2021.2.3,59.93662301543458,
30.75,31.0,41,0.0,Stimuli/Blank.png,0,0,0.0,0,54,54,54,,,,,,,,,,,,,30.760807300001034,0.010807300001033582,None,70.2128002999998,70.2128002999998,70.2128002999998,70.2128002999998,70.2128002999998,70.2128002999998,70.2128002999998,70.2128002999998,70.2128002999998,70.2128002999998,,006,P016,2025_Mar_07_1420,ConditionRich,2021.2.3,59.93662301543458,
31.0,31.75,32,0.75,Stimuli/P016/things_pheasant_08s.jpg,0,0,0.0,0,55,55,55,,,,,,,,,,,,,31.011038700002246,0.011038700002245605,None,70.4630184000016,70.4630184000016,70.4630184000016,70.4630184000016,70.4630184000016,70.4630184000016,70.4630184000016,70.4630184000016,70.4630184000016,70.4630184000016,,006,P016,2025_Mar_07_1420,ConditionRich,2021.2.3,59.93662301543458,
31.75,32.0,41,0.0,Stimuli/Blank.png,0,0,0.0,0,56,56,56,,,,,,,,,,,,,31.761117800000648,0.011117800000647549,None,71.2137395000027,71.2137395000027,71.2137395000027,71.2137395000027,71.2137395000027,71.2137395000027,71.2137395000027,71.2137395000027,71.2137395000027,71.2137395000027,,006,P016,2025_Mar_07_1420,ConditionRich,2021.2.3,59.93662301543458,
32.0,32.75,3,0.75,Stimuli/P016/sun_aiogwnavezqxkzfg.jpg,0,0,0.0,0,57,57,57,,,,,,,,,,,,,32.0118865000004,0.011886500000400702,None,71.48061750000124,71.48061750000124,71.48061750000124,71.48061750000124,71.48061750000124,71.48061750000124,71.48061750000124,71.48061750000124,71.48061750000124,71.48061750000124,,006,P016,2025_Mar_07_1420,ConditionRich,2021.2.3,59.93662301543458,
32.75,33.0,41,0.0,Stimuli/Blank.png,0,0,0.0,0,58,58,58,,,,,,,,,,,,,32.77981340000042,0.029813400000421098,None,72.23125010000149,72.23125010000149,72.23125010000149,72.23125010000149,72.23125010000149,72.23125010000149,72.23125010000149,72.23125010000149,72.23125010000149,72.23125010000149,,006,P016,2025_Mar_07_1420,ConditionRich,2021.2.3,59.93662301543458,
33.0,33.75,3,0.75,Stimuli/P016/sun_aiogwnavezqxkzfg.jpg,0,0,0.0,0,59,59,59,,,,,,,,,,,,,33.0150089000017,0.015008900001703296,None,72.48147570000219,72.48147570000219,72.48147570000219,72.48147570000219,72.48147570000219,72.48147570000219,72.48147570000219,72.48147570000219,72.48147570000219,72.48147570000219,,006,P016,2025_Mar_07_1420,ConditionRich,2021.2.3,59.93662301543458,
33.75,34.0,41,0.0,Stimuli/Blank.png,0,0,0.0,0,60,60,60,,,,,,,,,,,,,33.763559499999246,0.013559499999246327,None,73.21545500000138,73.21545500000138,73.21545500000138,73.21545500000138,73.21545500000138,73.21545500000138,73.21545500000138,73.21545500000138,73.21545500000138,73.21545500000138,,006,P016,2025_Mar_07_1420,ConditionRich,2021.2.3,59.93662301543458,
34.0,34.75,3,0.75,Stimuli/P016/sun_aiogwnavezqxkzfg.jpg,0,0,0.0,0,61,61,61,,,,,,,,,,,,,34.0134438999994,0.013443899999401765,None,73.46567230000073,73.46567230000073,73.46567230000073,73.46567230000073,73.46567230000073,73.46567230000073,73.46567230000073,73.46567230000073,73.46567230000073,73.46567230000073,,006,P016,2025_Mar_07_1420,ConditionRich,2021.2.3,59.93662301543458,
34.75,35.0,41,0.0,Stimuli/Blank.png,0,0,0.0,0,62,62,62,,,,,,,,,,,,,34.76566040000034,0.015660400000342634,None,74.21635640000022,74.21635640000022,74.21635640000022,74.21635640000022,74.21635640000022,74.21635640000022,74.21635640000022,74.21635640000022,74.21635640000022,74.21635640000022,,006,P016,2025_Mar_07_1420,ConditionRich,2021.2.3,59.93662301543458,
35.0,35.75,3,0.75,Stimuli/P016/sun_aiogwnavezqxkzfg.jpg,0,0,0.0,0,63,63,63,,,,,,,,,,,,,34.99800510000205,-0.0019948999979533255,None,74.44987949999995,74.44987949999995,74.44987949999995,74.44987949999995,74.44987949999995,74.44987949999995,74.44987949999995,74.44987949999995,74.44987949999995,74.44987949999995,,006,P016,2025_Mar_07_1420,ConditionRich,2021.2.3,59.93662301543458,
35.75,36.0,41,0.0,Stimuli/Blank.png,0,0,0.0,0,64,64,64,,,,,,,,,,,,,35.76467000000048,0.014670000000478467,None,75.21833379999953,75.21833379999953,75.21833379999953,75.21833379999953,75.21833379999953,75.21833379999953,75.21833379999953,75.21833379999953,75.21833379999953,75.21833379999953,,006,P016,2025_Mar_07_1420,ConditionRich,2021.2.3,59.93662301543458,
36.0,36.75,4,0.75,Stimuli/P016/sun_aiwuqxdqzftsfyeg.jpg,1,0,0.75,0,65,65,65,,,,,,,,,,,,,36.015477400000236,0.01547740000023623,1,75.4674417999995,75.4674417999995,75.4674417999995,75.4674417999995,75.4674417999995,75.4674417999995,75.4674417999995,None,75.4674417999995,75.4674417999995,0.42984310000247206,006,P016,2025_Mar_07_1420,ConditionRich,2021.2.3,59.93662301543458,
36.75,37.0,41,0.0,Stimuli/Blank.png,0,0,0.0,0,66,66,66,,,,,,,,,,,,,36.751834900001995,0.0018349000019952655,None,76.21811970000272,76.21811970000272,76.21811970000272,76.21811970000272,76.21811970000272,76.21811970000272,76.21811970000272,76.21811970000272,76.21811970000272,76.21811970000272,,006,P016,2025_Mar_07_1420,ConditionRich,2021.2.3,59.93662301543458,
37.0,37.75,4,0.75,Stimuli/P016/sun_aiwuqxdqzftsfyeg.jpg,0,0,0.0,0,67,67,67,,,,,,,,,,,,,37.015754600000946,0.015754600000946084,None,76.48502160000135,76.48502160000135,76.48502160000135,76.48502160000135,76.48502160000135,76.48502160000135,76.48502160000135,76.48502160000135,76.48502160000135,76.48502160000135,,006,P016,2025_Mar_07_1420,ConditionRich,2021.2.3,59.93662301543458,
37.75,38.0,41,0.0,Stimuli/Blank.png,0,0,0.0,0,68,68,68,,,,,,,,,,,,,37.76741570000013,0.01741570000012871,None,77.21900989999995,77.21900989999995,77.21900989999995,77.21900989999995,77.21900989999995,77.21900989999995,77.21900989999995,77.21900989999995,77.21900989999995,77.21900989999995,,006,P016,2025_Mar_07_1420,ConditionRich,2021.2.3,59.93662301543458,
38.0,38.75,4,0.75,Stimuli/P016/sun_aiwuqxdqzftsfyeg.jpg,0,0,0.0,0,69,69,69,,,,,,,,,,,,,38.000006599999324,6.599999323952943e-06,None,77.45249230000263,77.45249230000263,77.45249230000263,77.45249230000263,77.45249230000263,77.45249230000263,77.45249230000263,77.45249230000263,77.45249230000263,77.45249230000263,,006,P016,2025_Mar_07_1420,ConditionRich,2021.2.3,59.93662301543458,
38.75,39.0,41,0.0,Stimuli/Blank.png,0,0,0.0,0,70,70,70,,,,,,,,,,,,,38.75137790000008,0.001377900000079535,None,78.20319700000255,78.20319700000255,78.20319700000255,78.20319700000255,78.20319700000255,78.20319700000255,78.20319700000255,78.20319700000255,78.20319700000255,78.20319700000255,,006,P016,2025_Mar_07_1420,ConditionRich,2021.2.3,59.93662301543458,
39.0,39.75,4,0.75,Stimuli/P016/sun_aiwuqxdqzftsfyeg.jpg,0,0,0.0,0,71,71,71,,,,,,,,,,,,,39.00374509999892,0.0037450999989232514,None,78.47009919999982,78.47009919999982,78.47009919999982,78.47009919999982,78.47009919999982,78.47009919999982,78.47009919999982,78.47009919999982,78.47009919999982,78.47009919999982,,006,P016,2025_Mar_07_1420,ConditionRich,2021.2.3,59.93662301543458,
39.75,40.0,41,0.0,Stimuli/Blank.png,0,0,0.0,0,72,72,72,,,,,,,,,,,,,39.76907260000007,0.01907260000007227,None,79.22077350000109,79.22077350000109,79.22077350000109,79.22077350000109,79.22077350000109,79.22077350000109,79.22077350000109,79.22077350000109,79.22077350000109,79.22077350000109,,006,P016,2025_Mar_07_1420,ConditionRich,2021.2.3,59.93662301543458,
40.0,40.75,30,0.75,Stimuli/P016/things_ottoman_08s.jpg,0,0,0.0,0,73,73,73,,,,,,,,,,,,,40.00391390000004,0.003913900000043213,None,79.47098390000247,79.47098390000247,79.47098390000247,79.47098390000247,79.47098390000247,79.47098390000247,79.47098390000247,79.47098390000247,79.47098390000247,79.47098390000247,,006,P016,2025_Mar_07_1420,ConditionRich,2021.2.3,59.93662301543458,
40.75,41.0,41,0.0,Stimuli/Blank.png,0,0,0.0,0,74,74,74,,,,,,,,,,,,,40.769203600000765,0.01920360000076471,None,80.22164500000144,80.22164500000144,80.22164500000144,80.22164500000144,80.22164500000144,80.22164500000144,80.22164500000144,80.22164500000144,80.22164500000144,80.22164500000144,,006,P016,2025_Mar_07_1420,ConditionRich,2021.2.3,59.93662301543458,
41.0,41.75,30,0.75,Stimuli/P016/things_ottoman_08s.jpg,0,0,0.0,0,75,75,75,,,,,,,,,,,,,41.00345350000134,0.003453500001342036,None,80.45519010000135,80.45519010000135,80.45519010000135,80.45519010000135,80.45519010000135,80.45519010000135,80.45519010000135,80.45519010000135,80.45519010000135,80.45519010000135,,006,P016,2025_Mar_07_1420,ConditionRich,2021.2.3,59.93662301543458,
41.75,42.0,41,0.0,Stimuli/Blank.png,0,0,0.0,0,76,76,76,,,,,,,,,,,,,41.75405600000158,0.0040560000015830155,None,81.20585760000176,81.20585760000176,81.20585760000176,81.20585760000176,81.20585760000176,81.20585760000176,81.20585760000176,81.20585760000176,81.20585760000176,81.20585760000176,,006,P016,2025_Mar_07_1420,ConditionRich,2021.2.3,59.93662301543458,
42.0,42.75,30,0.75,Stimuli/P016/things_ottoman_08s.jpg,0,0,0.0,0,77,77,77,,,,,,,,,,,,,42.00420920000033,0.004209200000332203,None,81.45603450000272,81.45603450000272,81.45603450000272,81.45603450000272,81.45603450000272,81.45603450000272,81.45603450000272,81.45603450000272,81.45603450000272,81.45603450000272,,006,P016,2025_Mar_07_1420,ConditionRich,2021.2.3,59.93662301543458,
42.75,43.0,41,0.0,Stimuli/Blank.png,0,0,0.0,0,78,78,78,,,,,,,,,,,,,42.75428160000229,0.004281600002286723,None,82.20675219999976,82.20675219999976,82.20675219999976,82.20675219999976,82.20675219999976,82.20675219999976,82.20675219999976,82.20675219999976,82.20675219999976,82.20675219999976,,006,P016,2025_Mar_07_1420,ConditionRich,2021.2.3,59.93662301543458,
43.0,43.75,30,0.75,Stimuli/P016/things_ottoman_08s.jpg,0,0,0.0,0,79,79,79,,,,,,,,,,,,,43.00453740000012,0.004537400000117486,None,82.4569561999997,82.4569561999997,82.4569561999997,82.4569561999997,82.4569561999997,82.4569561999997,82.4569561999997,82.4569561999997,82.4569561999997,82.4569561999997,,006,P016,2025_Mar_07_1420,ConditionRich,2021.2.3,59.93662301543458,
43.75,44.0,41,0.0,Stimuli/Blank.png,0,0,0.0,0,80,80,80,,,,,,,,,,,,,43.75507440000001,0.005074400000012247,None,83.20762409999952,83.20762409999952,83.20762409999952,83.20762409999952,83.20762409999952,83.20762409999952,83.20762409999952,83.20762409999952,83.20762409999952,83.20762409999952,,006,P016,2025_Mar_07_1420,ConditionRich,2021.2.3,59.93662301543458,
44.0,44.75,35,0.75,Stimuli/P016/things_squid_08s.jpg,0,0,0.0,0,81,81,81,,,,,,,,,,,,,44.0059497000002,0.005949700000201119,None,83.45785230000183,83.45785230000183,83.45785230000183,83.45785230000183,83.45785230000183,83.45785230000183,83.45785230000183,83.45785230000183,83.45785230000183,83.45785230000183,,006,P016,2025_Mar_07_1420,ConditionRich,2021.2.3,59.93662301543458,
44.75,45.0,41,0.0,Stimuli/Blank.png,0,0,0.0,0,82,82,82,,,,,,,,,,,,,44.75856230000136,0.00856230000135838,None,84.2252221000017,84.2252221000017,84.2252221000017,84.2252221000017,84.2252221000017,84.2252221000017,84.2252221000017,84.2252221000017,84.2252221000017,84.2252221000017,,006,P016,2025_Mar_07_1420,ConditionRich,2021.2.3,59.93662301543458,
45.0,45.75,35,0.75,Stimuli/P016/things_squid_08s.jpg,0,0,0.0,0,83,83,83,,,,,,,,,,,,,45.02375699999902,0.02375699999902281,None,84.47540669999944,84.47540669999944,84.47540669999944,84.47540669999944,84.47540669999944,84.47540669999944,84.47540669999944,84.47540669999944,84.47540669999944,84.47540669999944,,006,P016,2025_Mar_07_1420,ConditionRich,2021.2.3,59.93662301543458,
45.75,46.0,41,0.0,Stimuli/Blank.png,0,0,0.0,0,84,84,84,,,,,,,,,,,,,45.757495100002416,0.007495100002415711,None,85.209384400001,85.209384400001,85.209384400001,85.209384400001,85.209384400001,85.209384400001,85.209384400001,85.209384400001,85.209384400001,85.209384400001,,006,P016,2025_Mar_07_1420,ConditionRich,2021.2.3,59.93662301543458,
46.0,46.75,35,0.75,Stimuli/P016/things_squid_08s.jpg,0,0,0.0,0,85,85,85,,,,,,,,,,,,,46.008363900000404,0.0083639000004041,None,85.47630260000005,85.47630260000005,85.47630260000005,85.47630260000005,85.47630260000005,85.47630260000005,85.47630260000005,85.47630260000005,85.47630260000005,85.47630260000005,,006,P016,2025_Mar_07_1420,ConditionRich,2021.2.3,59.93662301543458,
46.75,47.0,41,0.0,Stimuli/Blank.png,0,0,0.0,0,86,86,86,,,,,,,,,,,,,46.77521490000072,0.025214900000719354,None,86.22780029999922,86.22780029999922,86.22780029999922,86.22780029999922,86.22780029999922,86.22780029999922,86.22780029999922,86.22780029999922,86.22780029999922,86.22780029999922,,006,P016,2025_Mar_07_1420,ConditionRich,2021.2.3,59.93662301543458,
47.0,47.75,35,0.75,Stimuli/P016/things_squid_08s.jpg,0,0,0.0,0,87,87,87,,,,,,,,,,,,,47.009883400001854,0.00988340000185417,None,86.47726189999958,86.47726189999958,86.47726189999958,86.47726189999958,86.47726189999958,86.47726189999958,86.47726189999958,86.47726189999958,86.47726189999958,86.47726189999958,,006,P016,2025_Mar_07_1420,ConditionRich,2021.2.3,59.93662301543458,
47.75,48.0,41,0.0,Stimuli/Blank.png,0,0,0.0,0,88,88,88,,,,,,,,,,,,,47.77542170000015,0.02542170000015176,None,87.22783640000125,87.22783640000125,87.22783640000125,87.22783640000125,87.22783640000125,87.22783640000125,87.22783640000125,87.22783640000125,87.22783640000125,87.22783640000125,,006,P016,2025_Mar_07_1420,ConditionRich,2021.2.3,59.93662301543458,
48.0,48.75,36,0.75,Stimuli/P016/things_streetlight_08s.jpg,0,0,0.0,0,89,89,89,,,,,,,,,,,,,48.00882950000232,0.008829500002320856,None,87.46138260000225,87.46138260000225,87.46138260000225,87.46138260000225,87.46138260000225,87.46138260000225,87.46138260000225,87.46138260000225,87.46138260000225,87.46138260000225,,006,P016,2025_Mar_07_1420,ConditionRich,2021.2.3,59.93662301543458,
48.75,49.0,41,0.0,Stimuli/Blank.png,0,0,0.0,0,90,90,90,,,,,,,,,,,,,48.760040500001196,0.010040500001196051,None,88.21204500000022,88.21204500000022,88.21204500000022,88.21204500000022,88.21204500000022,88.21204500000022,88.21204500000022,88.21204500000022,88.21204500000022,88.21204500000022,,006,P016,2025_Mar_07_1420,ConditionRich,2021.2.3,59.93662301543458,
49.0,49.75,36,0.75,Stimuli/P016/things_streetlight_08s.jpg,0,0,0.0,0,91,91,91,,,,,,,,,,,,,49.00968330000251,0.009683300002507167,None,88.46226240000033,88.46226240000033,88.46226240000033,88.46226240000033,88.46226240000033,88.46226240000033,88.46226240000033,88.46226240000033,88.46226240000033,88.46226240000033,,006,P016,2025_Mar_07_1420,ConditionRich,2021.2.3,59.93662301543458,
49.75,50.0,41,0.0,Stimuli/Blank.png,0,0,0.0,0,92,92,92,,,,,,,,,,,,,49.76031850000072,0.010318500000721542,None,89.21292010000252,89.21292010000252,89.21292010000252,89.21292010000252,89.21292010000252,89.21292010000252,89.21292010000252,89.21292010000252,89.21292010000252,89.21292010000252,,006,P016,2025_Mar_07_1420,ConditionRich,2021.2.3,59.93662301543458,
50.0,50.75,36,0.75,Stimuli/P016/things_streetlight_08s.jpg,0,0,0.0,0,93,93,93,,,,,,,,,,,,,50.011589199999435,0.01158919999943464,None,89.46314820000043,89.46314820000043,89.46314820000043,89.46314820000043,89.46314820000043,89.46314820000043,89.46314820000043,89.46314820000043,89.46314820000043,89.46314820000043,,006,P016,2025_Mar_07_1420,ConditionRich,2021.2.3,59.93662301543458,
50.75,51.0,41,0.0,Stimuli/Blank.png,0,0,0.0,0,94,94,94,,,,,,,,,,,,,50.761233500001254,0.01123350000125356,None,90.2138046,90.2138046,90.2138046,90.2138046,90.2138046,90.2138046,90.2138046,90.2138046,90.2138046,90.2138046,,006,P016,2025_Mar_07_1420,ConditionRich,2021.2.3,59.93662301543458,
51.0,51.75,36,0.75,Stimuli/P016/things_streetlight_08s.jpg,1,0,0.75,0,95,95,95,,,,,,,,,,,,,51.01357149999967,0.013571499999670777,1,90.48071759999948,90.48071759999948,90.48071759999948,90.48071759999948,90.48071759999948,90.48071759999948,90.48071759999948,91.21469870000146,90.48071759999948,90.48071759999948,0.4285078000029898,006,P016,2025_Mar_07_1420,ConditionRich,2021.2.3,59.93662301543458,
51.75,52.0,41,0.0,Stimuli/Blank.png,0,0,0.0,0,96,96,96,,,,,,,,,,,,,51.7789823000021,0.028982300002098782,None,91.2313802000026,91.2313802000026,91.2313802000026,91.2313802000026,91.2313802000026,91.2313802000026,91.2313802000026,91.2313802000026,91.2313802000026,91.2313802000026,,006,P016,2025_Mar_07_1420,ConditionRich,2021.2.3,59.93662301543458,
52.0,52.75,33,0.75,Stimuli/P016/things_raccoon_08n.jpg,0,0,0.0,0,97,97,97,,,,,,,,,,,,,52.01232979999986,0.01232979999986128,None,91.46490830000039,91.46490830000039,91.46490830000039,91.46490830000039,91.46490830000039,91.46490830000039,91.46490830000039,91.46490830000039,91.46490830000039,91.46490830000039,,006,P016,2025_Mar_07_1420,ConditionRich,2021.2.3,59.93662301543458,
52.75,53.0,41,0.0,Stimuli/Blank.png,0,0,0.0,0,98,98,98,,,,,,,,,,,,,52.76433840000027,0.014338400000269758,None,92.21558730000106,92.21558730000106,92.21558730000106,92.21558730000106,92.21558730000106,92.21558730000106,92.21558730000106,92.21558730000106,92.21558730000106,92.21558730000106,,006,P016,2025_Mar_07_1420,ConditionRich,2021.2.3,59.93662301543458,
53.0,53.75,33,0.75,Stimuli/P016/things_raccoon_08n.jpg,0,0,0.0,0,99,99,99,,,,,,,,,,,,,53.01388890000089,0.013888900000893045,None,92.46579390000261,92.46579390000261,92.46579390000261,92.46579390000261,92.46579390000261,92.46579390000261,92.46579390000261,92.46579390000261,92.46579390000261,92.46579390000261,,006,P016,2025_Mar_07_1420,ConditionRich,2021.2.3,59.93662301543458,
53.75,54.0,41,0.0,Stimuli/Blank.png,0,0,0.0,0,100,100,100,,,,,,,,,,,,,53.764702899999975,0.014702899999974761,None,93.21645880000142,93.21645880000142,93.21645880000142,93.21645880000142,93.21645880000142,93.21645880000142,93.21645880000142,93.21645880000142,93.21645880000142,93.21645880000142,,006,P016,2025_Mar_07_1420,ConditionRich,2021.2.3,59.93662301543458,
54.0,54.75,33,0.75,Stimuli/P016/things_raccoon_08n.jpg,0,0,0.0,0,101,101,101,,,,,,,,,,,,,54.01472470000226,0.01472470000226167,None,93.46672600000238,93.46672600000238,93.46672600000238,93.46672600000238,93.46672600000238,93.46672600000238,93.46672600000238,93.46672600000238,93.46672600000238,93.46672600000238,,006,P016,2025_Mar_07_1420,ConditionRich,2021.2.3,59.93662301543458,
54.75,55.0,41,0.0,Stimuli/Blank.png,0,0,0.0,0,102,102,102,,,,,,,,,,,,,54.765432500000315,0.015432500000315486,None,94.21733870000025,94.21733870000025,94.21733870000025,94.21733870000025,94.21733870000025,94.21733870000025,94.21733870000025,94.21733870000025,94.21733870000025,94.21733870000025,,006,P016,2025_Mar_07_1420,ConditionRich,2021.2.3,59.93662301543458,
55.0,55.75,33,0.75,Stimuli/P016/things_raccoon_08n.jpg,0,0,0.0,0,103,103,103,,,,,,,,,,,,,55.01500379999925,0.015003799999249168,None,94.46756770000138,94.46756770000138,94.46756770000138,94.46756770000138,94.46756770000138,94.46756770000138,94.46756770000138,94.46756770000138,94.46756770000138,94.46756770000138,,006,P016,2025_Mar_07_1420,ConditionRich,2021.2.3,59.93662301543458,
55.75,56.0,41,0.0,Stimuli/Blank.png,0,0,0.0,0,104,104,104,,,,,,,,,,,,,55.75326700000005,0.003267000000050757,None,95.21823760000188,95.21823760000188,95.21823760000188,95.21823760000188,95.21823760000188,95.21823760000188,95.21823760000188,95.21823760000188,95.21823760000188,95.21823760000188,,006,P016,2025_Mar_07_1420,ConditionRich,2021.2.3,59.93662301543458,
56.0,56.75,21,0.75,Stimuli/P016/things_arch_08s.jpg,0,0,0.0,0,105,105,105,,,,,,,,,,,,,56.01611570000023,0.016115700000227662,None,95.46846329999971,95.46846329999971,95.46846329999971,95.46846329999971,95.46846329999971,95.46846329999971,95.46846329999971,95.46846329999971,95.46846329999971,95.46846329999971,,006,P016,2025_Mar_07_1420,ConditionRich,2021.2.3,59.93662301543458,
56.75,57.0,41,0.0,Stimuli/Blank.png,0,0,0.0,0,106,106,106,,,,,,,,,,,,,56.750556900002266,0.0005569000022660475,None,96.20244660000026,96.20244660000026,96.20244660000026,96.20244660000026,96.20244660000026,96.20244660000026,96.20244660000026,96.20244660000026,96.20244660000026,96.20244660000026,,006,P016,2025_Mar_07_1420,ConditionRich,2021.2.3,59.93662301543458,
57.0,57.75,21,0.75,Stimuli/P016/things_arch_08s.jpg,0,0,0.0,0,107,107,107,,,,,,,,,,,,,57.00073329999941,0.0007332999994105194,None,96.45265380000274,96.45265380000274,96.45265380000274,96.45265380000274,96.45265380000274,96.45265380000274,96.45265380000274,96.45265380000274,96.45265380000274,96.45265380000274,,006,P016,2025_Mar_07_1420,ConditionRich,2021.2.3,59.93662301543458,
57.75,58.0,41,0.0,Stimuli/Blank.png,0,0,0.0,0,108,108,108,,,,,,,,,,,,,57.75377610000214,0.0037761000021419022,None,97.22001420000015,97.22001420000015,97.22001420000015,97.22001420000015,97.22001420000015,97.22001420000015,97.22001420000015,97.22001420000015,97.22001420000015,97.22001420000015,,006,P016,2025_Mar_07_1420,ConditionRich,2021.2.3,59.93662301543458,
58.0,58.75,21,0.75,Stimuli/P016/things_arch_08s.jpg,0,0,0.0,0,109,109,109,,,,,,,,,,,,,58.018306300000404,0.018306300000404008,None,97.4869088000014,97.4869088000014,97.4869088000014,97.4869088000014,97.4869088000014,97.4869088000014,97.4869088000014,97.4869088000014,97.4869088000014,97.4869088000014,,006,P016,2025_Mar_07_1420,ConditionRich,2021.2.3,59.93662301543458,
58.75,59.0,41,0.0,Stimuli/Blank.png,0,0,0.0,0,110,110,110,,,,,,,,,,,,,58.76945290000003,0.01945290000003297,None,98.22090279999975,98.22090279999975,98.22090279999975,98.22090279999975,98.22090279999975,98.22090279999975,98.22090279999975,98.22090279999975,98.22090279999975,98.22090279999975,,006,P016,2025_Mar_07_1420,ConditionRich,2021.2.3,59.93662301543458,
59.0,59.75,21,0.75,Stimuli/P016/things_arch_08s.jpg,0,0,0.0,0,111,111,111,,,,,,,,,,,,,59.003774200002226,0.00377420000222628,None,98.47111360000054,98.47111360000054,98.47111360000054,98.47111360000054,98.47111360000054,98.47111360000054,98.47111360000054,98.47111360000054,98.47111360000054,98.47111360000054,,006,P016,2025_Mar_07_1420,ConditionRich,2021.2.3,59.93662301543458,
59.75,60.0,41,0.0,Stimuli/Blank.png,0,0,0.0,0,112,112,112,,,,,,,,,,,,,59.77017100000012,0.02017100000011851,None,99.22177640000154,99.22177640000154,99.22177640000154,99.22177640000154,99.22177640000154,99.22177640000154,99.22177640000154,99.22177640000154,99.22177640000154,99.22177640000154,,006,P016,2025_Mar_07_1420,ConditionRich,2021.2.3,59.93662301543458,
60.0,60.75,17,0.75,Stimuli/P016/sun_bxhbltvqnpaciuzt.jpg,0,0,0.0,0,113,113,113,,,,,,,,,,,,,60.003439800002525,0.003439800002524862,None,99.47200090000115,99.47200090000115,99.47200090000115,99.47200090000115,99.47200090000115,99.47200090000115,99.47200090000115,99.47200090000115,99.47200090000115,99.47200090000115,,006,P016,2025_Mar_07_1420,ConditionRich,2021.2.3,59.93662301543458,
60.75,61.0,41,0.0,Stimuli/Blank.png,0,0,0.0,0,114,114,114,,,,,,,,,,,,,60.77012409999952,0.020124099999520695,None,100.22265379999953,100.22265379999953,100.22265379999953,100.22265379999953,100.22265379999953,100.22265379999953,100.22265379999953,100.22265379999953,100.22265379999953,100.22265379999953,,006,P016,2025_Mar_07_1420,ConditionRich,2021.2.3,59.93662301543458,
61.0,61.75,17,0.75,Stimuli/P016/sun_bxhbltvqnpaciuzt.jpg,0,0,0.0,0,115,115,115,,,,,,,,,,,,,61.00363610000204,0.003636100002040621,None,100.45619660000011,100.45619660000011,100.45619660000011,100.45619660000011,100.45619660000011,100.45619660000011,100.45619660000011,100.45619660000011,100.45619660000011,100.45619660000011,,006,P016,2025_Mar_07_1420,ConditionRich,2021.2.3,59.93662301543458,
61.75,62.0,41,0.0,Stimuli/Blank.png,0,0,0.0,0,116,116,116,,,,,,,,,,,,,61.75512080000044,0.005120800000440795,None,101.20684110000002,101.20684110000002,101.20684110000002,101.20684110000002,101.20684110000002,101.20684110000002,101.20684110000002,101.20684110000002,101.20684110000002,101.20684110000002,,006,P016,2025_Mar_07_1420,ConditionRich,2021.2.3,59.93662301543458,
62.0,62.75,17,0.75,Stimuli/P016/sun_bxhbltvqnpaciuzt.jpg,1,0,0.75,0,117,117,117,,,,,,,,,,,,,62.005332600001566,0.005332600001565879,1,101.45705230000021,101.45705230000021,101.45705230000021,101.45705230000021,101.45705230000021,101.45705230000021,101.45705230000021,102.1910678000022,101.45705230000021,101.45705230000021,0.6092184000008274,006,P016,2025_Mar_07_1420,ConditionRich,2021.2.3,59.93662301543458,
62.75,63.0,41,0.0,Stimuli/Blank.png,0,0,0.0,0,118,118,118,,,,,,,,,,,,,62.75536700000157,0.005367000001569977,None,102.20774920000258,102.20774920000258,102.20774920000258,102.20774920000258,102.20774920000258,102.20774920000258,102.20774920000258,102.20774920000258,102.20774920000258,102.20774920000258,,006,P016,2025_Mar_07_1420,ConditionRich,2021.2.3,59.93662301543458,
63.0,63.75,17,0.75,Stimuli/P016/sun_bxhbltvqnpaciuzt.jpg,0,0,0.0,0,119,119,119,,,,,,,,,,,,,63.00543090000065,0.005430900000646943,None,102.45797360000142,102.45797360000142,102.45797360000142,102.45797360000142,102.45797360000142,102.45797360000142,102.45797360000142,102.45797360000142,102.45797360000142,102.45797360000142,,006,P016,2025_Mar_07_1420,ConditionRich,2021.2.3,59.93662301543458,
63.75,64.0,41,0.0,Stimuli/Blank.png,0,0,0.0,0,120,120,120,,,,,,,,,,,,,63.759757899999386,0.0097578999993857,None,103.22532510000019,103.22532510000019,103.22532510000019,103.22532510000019,103.22532510000019,103.22532510000019,103.22532510000019,103.22532510000019,103.22532510000019,103.22532510000019,,006,P016,2025_Mar_07_1420,ConditionRich,2021.2.3,59.93662301543458,
64.0,64.75,28,0.75,Stimuli/P016/things_latte_08s.jpg,0,0,0.0,0,121,121,121,,,,,,,,,,,,,64.02318930000183,0.023189300001831725,None,103.4755393000014,103.4755393000014,103.4755393000014,103.4755393000014,103.4755393000014,103.4755393000014,103.4755393000014,103.4755393000014,103.4755393000014,103.4755393000014,,006,P016,2025_Mar_07_1420,ConditionRich,2021.2.3,59.93662301543458,
64.75,65.0,41,0.0,Stimuli/Blank.png,0,0,0.0,0,122,122,122,,,,,,,,,,,,,64.75913320000109,0.009133200001087971,None,104.22620989999996,104.22620989999996,104.22620989999996,104.22620989999996,104.22620989999996,104.22620989999996,104.22620989999996,104.22620989999996,104.22620989999996,104.22620989999996,,006,P016,2025_Mar_07_1420,ConditionRich,2021.2.3,59.93662301543458,
65.0,65.75,28,0.75,Stimuli/P016/things_latte_08s.jpg,0,0,0.0,0,123,123,123,,,,,,,,,,,,,65.02417930000229,0.024179300002288073,None,104.47659550000026,104.47659550000026,104.47659550000026,104.47659550000026,104.47659550000026,104.47659550000026,104.47659550000026,104.47659550000026,104.47659550000026,104.47659550000026,,006,P016,2025_Mar_07_1420,ConditionRich,2021.2.3,59.93662301543458,
65.75,66.0,41,0.0,Stimuli/Blank.png,0,0,0.0,0,124,124,124,,,,,,,,,,,,,65.75899170000048,0.008991700000478886,None,105.21039680000104,105.21039680000104,105.21039680000104,105.21039680000104,105.21039680000104,105.21039680000104,105.21039680000104,105.21039680000104,105.21039680000104,105.21039680000104,,006,P016,2025_Mar_07_1420,ConditionRich,2021.2.3,59.93662301543458,
66.0,66.75,28,0.75,Stimuli/P016/things_latte_08s.jpg,0,0,0.0,0,125,125,125,,,,,,,,,,,,,66.00934799999959,0.009347999999590684,None,105.47733290000178,105.47733290000178,105.47733290000178,105.47733290000178,105.47733290000178,105.47733290000178,105.47733290000178,105.47733290000178,105.47733290000178,105.47733290000178,,006,P016,2025_Mar_07_1420,ConditionRich,2021.2.3,59.93662301543458,
66.75,67.0,41,0.0,Stimuli/Blank.png,0,0,0.0,0,126,126,126,,,,,,,,,,,,,66.77595220000148,0.025952200001484016,None,106.22796770000059,106.22796770000059,106.22796770000059,106.22796770000059,106.22796770000059,106.22796770000059,106.22796770000059,106.22796770000059,106.22796770000059,106.22796770000059,,006,P016,2025_Mar_07_1420,ConditionRich,2021.2.3,59.93662301543458,
67.0,67.75,28,0.75,Stimuli/P016/things_latte_08s.jpg,0,0,0.0,0,127,127,127,,,,,,,,,,,,,67.00985729999957,0.009857299999566749,None,106.46150440000201,106.46150440000201,106.46150440000201,106.46150440000201,106.46150440000201,106.46150440000201,106.46150440000201,106.46150440000201,106.46150440000201,106.46150440000201,,006,P016,2025_Mar_07_1420,ConditionRich,2021.2.3,59.93662301543458,
67.75,68.0,41,0.0,Stimuli/Blank.png,0,0,0.0,0,128,128,128,,,,,,,,,,,,,67.76061839999966,0.010618399999657413,None,107.21219860000201,107.21219860000201,107.21219860000201,107.21219860000201,107.21219860000201,107.21219860000201,107.21219860000201,107.21219860000201,107.21219860000201,107.21219860000201,,006,P016,2025_Mar_07_1420,ConditionRich,2021.2.3,59.93662301543458,
68.0,68.75,25,0.75,Stimuli/P016/things_deer_08s.jpg,0,0,0.0,0,129,129,129,,,,,,,,,,,,,68.01021200000105,0.010212000001047272,None,107.46241060000102,107.46241060000102,107.46241060000102,107.46241060000102,107.46241060000102,107.46241060000102,107.46241060000102,107.46241060000102,107.46241060000102,107.46241060000102,,006,P016,2025_Mar_07_1420,ConditionRich,2021.2.3,59.93662301543458,
68.75,69.0,41,0.0,Stimuli/Blank.png,0,0,0.0,0,130,130,130,,,,,,,,,,,,,68.76048040000023,0.010480400000233203,None,108.21305869999924,108.21305869999924,108.21305869999924,108.21305869999924,108.21305869999924,108.21305869999924,108.21305869999924,108.21305869999924,108.21305869999924,108.21305869999924,,006,P016,2025_Mar_07_1420,ConditionRich,2021.2.3,59.93662301543458,
69.0,69.75,25,0.75,Stimuli/P016/things_deer_08s.jpg,0,0,0.0,0,131,131,131,,,,,,,,,,,,,69.01395400000183,0.013954000001831446,None,108.47997050000049,108.47997050000049,108.47997050000049,108.47997050000049,108.47997050000049,108.47997050000049,108.47997050000049,108.47997050000049,108.47997050000049,108.47997050000049,,006,P016,2025_Mar_07_1420,ConditionRich,2021.2.3,59.93662301543458,
69.75,70.0,41,0.0,Stimuli/Blank.png,0,0,0.0,0,132,132,132,,,,,,,,,,,,,69.77846890000001,0.028468900000007125,None,109.23061629999938,109.23061629999938,109.23061629999938,109.23061629999938,109.23061629999938,109.23061629999938,109.23061629999938,109.23061629999938,109.23061629999938,109.23061629999938,,006,P016,2025_Mar_07_1420,ConditionRich,2021.2.3,59.93662301543458,
70.0,70.75,25,0.75,Stimuli/P016/things_deer_08s.jpg,0,0,0.0,0,133,133,133,,,,,,,,,,,,,70.01314330000241,0.013143300002411706,None,109.48084270000254,109.48084270000254,109.48084270000254,109.48084270000254,109.48084270000254,109.48084270000254,109.48084270000254,109.48084270000254,109.48084270000254,109.48084270000254,,006,P016,2025_Mar_07_1420,ConditionRich,2021.2.3,59.93662301543458,
70.75,71.0,41,0.0,Stimuli/Blank.png,0,0,0.0,0,134,134,134,,,,,,,,,,,,,70.77961309999955,0.029613099999551196,None,110.23150490000262,110.23150490000262,110.23150490000262,110.23150490000262,110.23150490000262,110.23150490000262,110.23150490000262,110.23150490000262,110.23150490000262,110.23150490000262,,006,P016,2025_Mar_07_1420,ConditionRich,2021.2.3,59.93662301543458,
71.0,71.75,25,0.75,Stimuli/P016/things_deer_08s.jpg,0,0,0.0,0,135,135,135,,,,,,,,,,,,,71.0125463000004,0.012546300000394695,None,110.46509180000066,110.46509180000066,110.46509180000066,110.46509180000066,110.46509180000066,110.46509180000066,110.46509180000066,110.46509180000066,110.46509180000066,110.46509180000066,,006,P016,2025_Mar_07_1420,ConditionRich,2021.2.3,59.93662301543458,
71.75,72.0,41,0.0,Stimuli/Blank.png,0,0,0.0,0,136,136,136,,,,,,,,,,,,,71.76327619999938,0.013276199999381788,None,111.21571300000141,111.21571300000141,111.21571300000141,111.21571300000141,111.21571300000141,111.21571300000141,111.21571300000141,111.21571300000141,111.21571300000141,111.21571300000141,,006,P016,2025_Mar_07_1420,ConditionRich,2021.2.3,59.93662301543458,
72.0,72.75,1,0.75,Stimuli/P016/sun_aacpzgqrortyhyss.jpg,0,0,0.0,0,137,137,137,,,,,,,,,,,,,72.01401370000167,0.01401370000166935,None,111.46592629999941,111.46592629999941,111.46592629999941,111.46592629999941,111.46592629999941,111.46592629999941,111.46592629999941,111.46592629999941,111.46592629999941,111.46592629999941,,006,P016,2025_Mar_07_1420,ConditionRich,2021.2.3,59.93662301543458,
72.75,73.0,41,0.0,Stimuli/Blank.png,0,0,0.0,0,138,138,138,,,,,,,,,,,,,72.76416769999923,0.014167699999234173,None,112.21659659999932,112.21659659999932,112.21659659999932,112.21659659999932,112.21659659999932,112.21659659999932,112.21659659999932,112.21659659999932,112.21659659999932,112.21659659999932,,006,P016,2025_Mar_07_1420,ConditionRich,2021.2.3,59.93662301543458,
73.0,73.75,1,0.75,Stimuli/P016/sun_aacpzgqrortyhyss.jpg,0,0,0.0,0,139,139,139,,,,,,,,,,,,,73.01460829999996,0.014608299999963492,None,112.48348950000218,112.48348950000218,112.48348950000218,112.48348950000218,112.48348950000218,112.48348950000218,112.48348950000218,112.48348950000218,112.48348950000218,112.48348950000218,,006,P016,2025_Mar_07_1420,ConditionRich,2021.2.3,59.93662301543458,
73.75,74.0,41,0.0,Stimuli/Blank.png,0,0,0.0,0,140,140,140,,,,,,,,,,,,,73.783826400002,0.03382640000199899,None,113.25084590000188,113.25084590000188,113.25084590000188,113.25084590000188,113.25084590000188,113.25084590000188,113.25084590000188,113.25084590000188,113.25084590000188,113.25084590000188,,006,P016,2025_Mar_07_1420,ConditionRich,2021.2.3,59.93662301543458,
74.0,74.75,1,0.75,Stimuli/P016/sun_aacpzgqrortyhyss.jpg,0,0,0.0,0,141,141,141,,,,,,,,,,,,,74.0151345000013,0.015134500001295237,None,113.46772290000081,113.46772290000081,113.46772290000081,113.46772290000081,113.46772290000081,113.46772290000081,113.46772290000081,113.46772290000081,113.46772290000081,113.46772290000081,,006,P016,2025_Mar_07_1420,ConditionRich,2021.2.3,59.93662301543458,
74.75,75.0,41,0.0,Stimuli/Blank.png,0,0,0.0,0,142,142,142,,,,,,,,,,,,,74.74939599999925,-0.0006040000007487833,None,114.20170510000025,114.20170510000025,114.20170510000025,114.20170510000025,114.20170510000025,114.20170510000025,114.20170510000025,114.20170510000025,114.20170510000025,114.20170510000025,,006,P016,2025_Mar_07_1420,ConditionRich,2021.2.3,59.93662301543458,
75.0,75.75,1,0.75,Stimuli/P016/sun_aacpzgqrortyhyss.jpg,0,0,0.0,0,143,143,143,,,,,,,,,,,,,75.00006190000204,6.190000203787349e-05,None,114.4519048000002,114.4519048000002,114.4519048000002,114.4519048000002,114.4519048000002,114.4519048000002,114.4519048000002,114.4519048000002,114.4519048000002,114.4519048000002,,006,P016,2025_Mar_07_1420,ConditionRich,2021.2.3,59.93662301543458,
75.75,76.0,41,0.0,Stimuli/Blank.png,0,0,0.0,0,144,144,144,,,,,,,,,,,,,75.75009110000246,9.110000246437266e-05,None,115.20258060000197,115.20258060000197,115.20258060000197,115.20258060000197,115.20258060000197,115.20258060000197,115.20258060000197,115.20258060000197,115.20258060000197,115.20258060000197,,006,P016,2025_Mar_07_1420,ConditionRich,2021.2.3,59.93662301543458,
76.0,76.75,14,0.75,Stimuli/P016/sun_bpvmkbyglkraoxhh.jpg,0,0,0.0,0,145,145,145,,,,,,,,,,,,,76.00045279999904,0.00045279999903868884,None,115.45275319999928,115.45275319999928,115.45275319999928,115.45275319999928,115.45275319999928,115.45275319999928,115.45275319999928,115.45275319999928,115.45275319999928,115.45275319999928,,006,P016,2025_Mar_07_1420,ConditionRich,2021.2.3,59.93662301543458,
76.75,77.0,41,0.0,Stimuli/Blank.png,0,0,0.0,0,146,146,146,,,,,,,,,,,,,76.75109290000182,0.0010929000018222723,None,116.22013140000126,116.22013140000126,116.22013140000126,116.22013140000126,116.22013140000126,116.22013140000126,116.22013140000126,116.22013140000126,116.22013140000126,116.22013140000126,,006,P016,2025_Mar_07_1420,ConditionRich,2021.2.3,59.93662301543458,
77.0,77.75,14,0.75,Stimuli/P016/sun_bpvmkbyglkraoxhh.jpg,0,0,0.0,0,147,147,147,,,,,,,,,,,,,77.01850879999984,0.0185087999998359,None,116.48703920000116,116.48703920000116,116.48703920000116,116.48703920000116,116.48703920000116,116.48703920000116,116.48703920000116,116.48703920000116,116.48703920000116,116.48703920000116,,006,P016,2025_Mar_07_1420,ConditionRich,2021.2.3,59.93662301543458,
77.75,78.0,41,0.0,Stimuli/Blank.png,0,0,0.0,0,148,148,148,,,,,,,,,,,,,77.76984549999906,0.019845499999064486,None,117.23772649999955,117.23772649999955,117.23772649999955,117.23772649999955,117.23772649999955,117.23772649999955,117.23772649999955,117.23772649999955,117.23772649999955,117.23772649999955,,006,P016,2025_Mar_07_1420,ConditionRich,2021.2.3,59.93662301543458,
78.0,78.75,14,0.75,Stimuli/P016/sun_bpvmkbyglkraoxhh.jpg,0,0,0.0,0,149,149,149,,,,,,,,,,,,,78.01950120000038,0.01950120000037714,None,117.48792189999949,117.48792189999949,117.48792189999949,117.48792189999949,117.48792189999949,117.48792189999949,117.48792189999949,117.48792189999949,117.48792189999949,117.48792189999949,,006,P016,2025_Mar_07_1420,ConditionRich,2021.2.3,59.93662301543458,
78.75,79.0,41,0.0,Stimuli/Blank.png,0,0,0.0,0,150,150,150,,,,,,,,,,,,,78.76997590000246,0.019975900002464186,None,118.22190840000258,118.22190840000258,118.22190840000258,118.22190840000258,118.22190840000258,118.22190840000258,118.22190840000258,118.22190840000258,118.22190840000258,118.22190840000258,,006,P016,2025_Mar_07_1420,ConditionRich,2021.2.3,59.93662301543458,
79.0,79.75,14,0.75,Stimuli/P016/sun_bpvmkbyglkraoxhh.jpg,1,0,0.75,0,151,151,151,,,,,,,,,,,,,79.00290719999975,0.0029071999997540843,1,118.45544270000028,118.45544270000028,118.45544270000028,118.45544270000028,118.45544270000028,118.45544270000028,118.45544270000028,119.1894205000026,118.45544270000028,118.45544270000028,0.37385120000180905,006,P016,2025_Mar_07_1420,ConditionRich,2021.2.3,59.93662301543458,
79.75,80.0,41,0.0,Stimuli/Blank.png,0,0,0.0,0,152,152,152,,,,,,,,,,,,,79.75359170000229,0.0035917000022891443,None,119.20611959999951,119.20611959999951,119.20611959999951,119.20611959999951,119.20611959999951,119.20611959999951,119.20611959999951,119.20611959999951,119.20611959999951,119.20611959999951,,006,P016,2025_Mar_07_1420,ConditionRich,2021.2.3,59.93662301543458,
80.0,80.75,11,0.75,Stimuli/P016/sun_bnwmcjuinqbdsbho.jpg,0,0,0.0,0,153,153,153,,,,,,,,,,,,,80.0053181000003,0.0053181000002950896,None,119.47301040000093,119.47301040000093,119.47301040000093,119.47301040000093,119.47301040000093,119.47301040000093,119.47301040000093,119.47301040000093,119.47301040000093,119.47301040000093,,006,P016,2025_Mar_07_1420,ConditionRich,2021.2.3,59.93662301543458,
80.75,81.0,41,0.0,Stimuli/Blank.png,0,0,0.0,0,154,154,154,,,,,,,,,,,,,80.77187920000142,0.02187920000142185,None,120.22368280000228,120.22368280000228,120.22368280000228,120.22368280000228,120.22368280000228,120.22368280000228,120.22368280000228,120.22368280000228,120.22368280000228,120.22368280000228,,006,P016,2025_Mar_07_1420,ConditionRich,2021.2.3,59.93662301543458,
81.0,81.75,11,0.75,Stimuli/P016/sun_bnwmcjuinqbdsbho.jpg,0,0,0.0,0,155,155,155,,,,,,,,,,,,,81.00457370000004,0.004573700000037206,None,120.45721340000091,120.45721340000091,120.45721340000091,120.45721340000091,120.45721340000091,120.45721340000091,120.45721340000091,120.45721340000091,120.45721340000091,120.45721340000091,,006,P016,2025_Mar_07_1420,ConditionRich,2021.2.3,59.93662301543458,
81.75,82.0,41,0.0,Stimuli/Blank.png,0,0,0.0,0,156,156,156,,,,,,,,,,,,,81.75531570000021,0.0053157000002101995,None,121.20787620000192,121.20787620000192,121.20787620000192,121.20787620000192,121.20787620000192,121.20787620000192,121.20787620000192,121.20787620000192,121.20787620000192,121.20787620000192,,006,P016,2025_Mar_07_1420,ConditionRich,2021.2.3,59.93662301543458,
82.0,82.75,11,0.75,Stimuli/P016/sun_bnwmcjuinqbdsbho.jpg,0,0,0.0,0,157,157,157,,,,,,,,,,,,,82.00608669999929,0.006086699999286793,None,121.47477600000275,121.47477600000275,121.47477600000275,121.47477600000275,121.47477600000275,121.47477600000275,121.47477600000275,121.47477600000275,121.47477600000275,121.47477600000275,,006,P016,2025_Mar_07_1420,ConditionRich,2021.2.3,59.93662301543458,
82.75,83.0,41,0.0,Stimuli/Blank.png,0,0,0.0,0,158,158,158,,,,,,,,,,,,,82.77349329999925,0.02349329999924521,None,122.22545420000097,122.22545420000097,122.22545420000097,122.22545420000097,122.22545420000097,122.22545420000097,122.22545420000097,122.22545420000097,122.22545420000097,122.22545420000097,,006,P016,2025_Mar_07_1420,ConditionRich,2021.2.3,59.93662301543458,
83.0,83.75,11,0.75,Stimuli/P016/sun_bnwmcjuinqbdsbho.jpg,0,0,0.0,0,159,159,159,,,,,,,,,,,,,83.00803000000087,0.00803000000087195,None,122.47578950000025,122.47578950000025,122.47578950000025,122.47578950000025,122.47578950000025,122.47578950000025,122.47578950000025,122.47578950000025,122.47578950000025,122.47578950000025,,006,P016,2025_Mar_07_1420,ConditionRich,2021.2.3,59.93662301543458,
83.75,84.0,41,0.0,Stimuli/Blank.png,0,0,0.0,0,160,160,160,,,,,,,,,,,,,83.77475609999965,0.02475609999964945,None,123.24304069999926,123.24304069999926,123.24304069999926,123.24304069999926,123.24304069999926,123.24304069999926,123.24304069999926,123.24304069999926,123.24304069999926,123.24304069999926,,006,P016,2025_Mar_07_1420,ConditionRich,2021.2.3,59.93662301543458,
84.0,100.0,0,0.0,Stimuli/Blank.png,1,12,12.75,0,161,161,161,,,,,,,,,,,,,84.02482030000101,0.024820300001010764,1,123.47655880000093,123.47655880000093,123.47655880000093,123.47655880000093,123.47655880000093,123.47655880000093,135.4537870000022,136.20450130000245,123.47655880000093,123.47655880000093,12.3316158000016,006,P016,2025_Mar_07_1420,ConditionRich,2021.2.3,59.93662301543458,
100.0,100.75,18,0.75,Stimuli/P016/sun_byavixgfuhzioilz.jpg,0,0,0.0,0,162,162,162,,,,,,,,,,,,,100.00549279999905,0.005492799999046838,None,139.47402180000063,139.47402180000063,139.47402180000063,139.47402180000063,139.47402180000063,139.47402180000063,139.47402180000063,139.47402180000063,139.47402180000063,139.47402180000063,,006,P016,2025_Mar_07_1420,ConditionRich,2021.2.3,59.93662301543458,
100.75,101.0,41,0.0,Stimuli/Blank.png,0,0,0.0,0,163,163,163,,,,,,,,,,,,,100.77471700000024,0.02471700000023702,None,140.24138759999914,140.24138759999914,140.24138759999914,140.24138759999914,140.24138759999914,140.24138759999914,140.24138759999914,140.24138759999914,140.24138759999914,140.24138759999914,,006,P016,2025_Mar_07_1420,ConditionRich,2021.2.3,59.93662301543458,
101.0,101.75,18,0.75,Stimuli/P016/sun_byavixgfuhzioilz.jpg,0,0,0.0,0,164,164,164,,,,,,,,,,,,,101.02425480000238,0.02425480000238167,None,140.49160100000154,140.49160100000154,140.49160100000154,140.49160100000154,140.49160100000154,140.49160100000154,140.49160100000154,140.49160100000154,140.49160100000154,140.49160100000154,,006,P016,2025_Mar_07_1420,ConditionRich,2021.2.3,59.93662301543458,
101.75,102.0,41,0.0,Stimuli/Blank.png,0,0,0.0,0,165,165,165,,,,,,,,,,,,,101.77425270000094,0.02425270000094315,None,141.22557400000005,141.22557400000005,141.22557400000005,141.22557400000005,141.22557400000005,141.22557400000005,141.22557400000005,141.22557400000005,141.22557400000005,141.22557400000005,,006,P016,2025_Mar_07_1420,ConditionRich,2021.2.3,59.93662301543458,
102.0,102.75,18,0.75,Stimuli/P016/sun_byavixgfuhzioilz.jpg,0,0,0.0,0,166,166,166,,,,,,,,,,,,,102.00967390000005,0.009673900000052527,None,141.47580080000262,141.47580080000262,141.47580080000262,141.47580080000262,141.47580080000262,141.47580080000262,141.47580080000262,141.47580080000262,141.47580080000262,141.47580080000262,,006,P016,2025_Mar_07_1420,ConditionRich,2021.2.3,59.93662301543458,
102.75,103.0,41,0.0,Stimuli/Blank.png,0,0,0.0,0,167,167,167,,,,,,,,,,,,,102.77402129999973,0.024021299999731127,None,142.22645270000066,142.22645270000066,142.22645270000066,142.22645270000066,142.22645270000066,142.22645270000066,142.22645270000066,142.22645270000066,142.22645270000066,142.22645270000066,,006,P016,2025_Mar_07_1420,ConditionRich,2021.2.3,59.93662301543458,
103.0,103.75,18,0.75,Stimuli/P016/sun_byavixgfuhzioilz.jpg,0,0,0.0,0,168,168,168,,,,,,,,,,,,,103.0083713999993,0.00837139999930514,None,142.4767107000007,142.4767107000007,142.4767107000007,142.4767107000007,142.4767107000007,142.4767107000007,142.4767107000007,142.4767107000007,142.4767107000007,142.4767107000007,,006,P016,2025_Mar_07_1420,ConditionRich,2021.2.3,59.93662301543458,
103.75,104.0,41,0.0,Stimuli/Blank.png,0,0,0.0,0,169,169,169,,,,,,,,,,,,,103.77532780000183,0.025327800001832657,None,143.2273320000022,143.2273320000022,143.2273320000022,143.2273320000022,143.2273320000022,143.2273320000022,143.2273320000022,143.2273320000022,143.2273320000022,143.2273320000022,,006,P016,2025_Mar_07_1420,ConditionRich,2021.2.3,59.93662301543458,
104.0,104.75,40,0.75,Stimuli/P016/things_woman_08s.jpg,0,0,0.0,0,170,170,170,,,,,,,,,,,,,104.00966410000183,0.009664100001828047,None,143.47755999999936,143.47755999999936,143.47755999999936,143.47755999999936,143.47755999999936,143.47755999999936,143.47755999999936,143.47755999999936,143.47755999999936,143.47755999999936,,006,P016,2025_Mar_07_1420,ConditionRich,2021.2.3,59.93662301543458,
104.75,105.0,41,0.0,Stimuli/Blank.png,0,0,0.0,0,171,171,171,,,,,,,,,,,,,104.77642480000213,0.026424800002132542,None,144.22827959999995,144.22827959999995,144.22827959999995,144.22827959999995,144.22827959999995,144.22827959999995,144.22827959999995,144.22827959999995,144.22827959999995,144.22827959999995,,006,P016,2025_Mar_07_1420,ConditionRich,2021.2.3,59.93662301543458,
105.0,105.75,40,0.75,Stimuli/P016/things_woman_08s.jpg,1,0,0.75,0,172,172,172,,,,,,,,,,,,,105.0099091000011,0.009909100001095794,1,144.46176230000128,144.46176230000128,144.46176230000128,144.46176230000128,144.46176230000128,144.46176230000128,144.46176230000128,145.19573950000267,144.46176230000128,144.46176230000128,0.41040069999871776,006,P016,2025_Mar_07_1420,ConditionRich,2021.2.3,59.93662301543458,
105.75,106.0,41,0.0,Stimuli/Blank.png,0,0,0.0,0,173,173,173,,,,,,,,,,,,,105.75988610000059,0.00988610000058543,None,145.21243949999916,145.21243949999916,145.21243949999916,145.21243949999916,145.21243949999916,145.21243949999916,145.21243949999916,145.21243949999916,145.21243949999916,145.21243949999916,,006,P016,2025_Mar_07_1420,ConditionRich,2021.2.3,59.93662301543458,
106.0,106.75,40,0.75,Stimuli/P016/things_woman_08s.jpg,0,0,0.0,0,174,174,174,,,,,,,,,,,,,106.0106091000016,0.0106091000016022,None,145.47935340000186,145.47935340000186,145.47935340000186,145.47935340000186,145.47935340000186,145.47935340000186,145.47935340000186,145.47935340000186,145.47935340000186,145.47935340000186,,006,P016,2025_Mar_07_1420,ConditionRich,2021.2.3,59.93662301543458,
106.75,107.0,41,0.0,Stimuli/Blank.png,0,0,0.0,0,175,175,175,,,,,,,,,,,,,106.77918399999908,0.02918399999907706,None,146.2300052999999,146.2300052999999,146.2300052999999,146.2300052999999,146.2300052999999,146.2300052999999,146.2300052999999,146.2300052999999,146.2300052999999,146.2300052999999,,006,P016,2025_Mar_07_1420,ConditionRich,2021.2.3,59.93662301543458,
107.0,107.75,40,0.75,Stimuli/P016/things_woman_08s.jpg,0,0,0.0,0,176,176,176,,,,,,,,,,,,,107.01096740000139,0.01096740000139107,None,146.4802172000018,146.4802172000018,146.4802172000018,146.4802172000018,146.4802172000018,146.4802172000018,146.4802172000018,146.4802172000018,146.4802172000018,146.4802172000018,,006,P016,2025_Mar_07_1420,ConditionRich,2021.2.3,59.93662301543458,
107.75,108.0,41,0.0,Stimuli/Blank.png,0,0,0.0,0,177,177,177,,,,,,,,,,,,,107.7795569000009,0.029556900000898167,None,147.23089120000077,147.23089120000077,147.23089120000077,147.23089120000077,147.23089120000077,147.23089120000077,147.23089120000077,147.23089120000077,147.23089120000077,147.23089120000077,,006,P016,2025_Mar_07_1420,ConditionRich,2021.2.3,59.93662301543458,
108.0,108.75,39,0.75,Stimuli/P016/things_window_08s.jpg,0,0,0.0,0,178,178,178,,,,,,,,,,,,,108.01392230000056,0.013922300000558607,None,147.48111040000003,147.48111040000003,147.48111040000003,147.48111040000003,147.48111040000003,147.48111040000003,147.48111040000003,147.48111040000003,147.48111040000003,147.48111040000003,,006,P016,2025_Mar_07_1420,ConditionRich,2021.2.3,59.93662301543458,
108.75,109.0,41,0.0,Stimuli/Blank.png,0,0,0.0,0,179,179,179,,,,,,,,,,,,,108.77991150000162,0.02991150000161724,None,148.2317600000024,148.2317600000024,148.2317600000024,148.2317600000024,148.2317600000024,148.2317600000024,148.2317600000024,148.2317600000024,148.2317600000024,148.2317600000024,,006,P016,2025_Mar_07_1420,ConditionRich,2021.2.3,59.93662301543458,
109.0,109.75,39,0.75,Stimuli/P016/things_window_08s.jpg,0,0,0.0,0,180,180,180,,,,,,,,,,,,,109.01462520000132,0.014625200001319172,None,148.48198240000056,148.48198240000056,148.48198240000056,148.48198240000056,148.48198240000056,148.48198240000056,148.48198240000056,148.48198240000056,148.48198240000056,148.48198240000056,,006,P016,2025_Mar_07_1420,ConditionRich,2021.2.3,59.93662301543458,
109.75,110.0,41,0.0,Stimuli/Blank.png,0,0,0.0,0,181,181,181,,,,,,,,,,,,,109.7802311000014,0.0302311000014015,None,149.2326432000009,149.2326432000009,149.2326432000009,149.2326432000009,149.2326432000009,149.2326432000009,149.2326432000009,149.2326432000009,149.2326432000009,149.2326432000009,,006,P016,2025_Mar_07_1420,ConditionRich,2021.2.3,59.93662301543458,
110.0,110.75,39,0.75,Stimuli/P016/things_window_08s.jpg,0,0,0.0,0,182,182,182,,,,,,,,,,,,,110.01372529999935,0.013725299999350682,None,149.46618920000037,149.46618920000037,149.46618920000037,149.46618920000037,149.46618920000037,149.46618920000037,149.46618920000037,149.46618920000037,149.46618920000037,149.46618920000037,,006,P016,2025_Mar_07_1420,ConditionRich,2021.2.3,59.93662301543458,
110.75,111.0,41,0.0,Stimuli/Blank.png,0,0,0.0,0,183,183,183,,,,,,,,,,,,,110.76439749999918,0.014397499999176944,None,150.21684910000113,150.21684910000113,150.21684910000113,150.21684910000113,150.21684910000113,150.21684910000113,150.21684910000113,150.21684910000113,150.21684910000113,150.21684910000113,,006,P016,2025_Mar_07_1420,ConditionRich,2021.2.3,59.93662301543458,
111.0,111.75,39,0.75,Stimuli/P016/things_window_08s.jpg,0,0,0.0,0,184,184,184,,,,,,,,,,,,,111.0151915000024,0.015191500002401881,None,150.48381630000222,150.48381630000222,150.48381630000222,150.48381630000222,150.48381630000222,150.48381630000222,150.48381630000222,150.48381630000222,150.48381630000222,150.48381630000222,,006,P016,2025_Mar_07_1420,ConditionRich,2021.2.3,59.93662301543458,
111.75,112.0,41,0.0,Stimuli/Blank.png,0,0,0.0,0,185,185,185,,,,,,,,,,,,,111.76579169999968,0.01579169999968144,None,151.2177346000026,151.2177346000026,151.2177346000026,151.2177346000026,151.2177346000026,151.2177346000026,151.2177346000026,151.2177346000026,151.2177346000026,151.2177346000026,,006,P016,2025_Mar_07_1420,ConditionRich,2021.2.3,59.93662301543458,
112.0,112.75,16,0.75,Stimuli/P016/sun_bwhuwxazfqwuqhik.jpg,0,0,0.0,0,186,186,186,,,,,,,,,,,,,111.99954200000138,-0.0004579999986162875,None,151.46795639999982,151.46795639999982,151.46795639999982,151.46795639999982,151.46795639999982,151.46795639999982,151.46795639999982,151.46795639999982,151.46795639999982,151.46795639999982,,006,P016,2025_Mar_07_1420,ConditionRich,2021.2.3,59.93662301543458,
112.75,113.0,41,0.0,Stimuli/Blank.png,0,0,0.0,0,187,187,187,,,,,,,,,,,,,112.76707299999907,0.017072999999072636,None,152.2186404999993,152.2186404999993,152.2186404999993,152.2186404999993,152.2186404999993,152.2186404999993,152.2186404999993,152.2186404999993,152.2186404999993,152.2186404999993,,006,P016,2025_Mar_07_1420,ConditionRich,2021.2.3,59.93662301543458,
113.0,113.75,16,0.75,Stimuli/P016/sun_bwhuwxazfqwuqhik.jpg,0,0,0.0,0,188,188,188,,,,,,,,,,,,,112.99958680000054,-0.00041319999945699237,None,152.45215500000268,152.45215500000268,152.45215500000268,152.45215500000268,152.45215500000268,152.45215500000268,152.45215500000268,152.45215500000268,152.45215500000268,152.45215500000268,,006,P016,2025_Mar_07_1420,ConditionRich,2021.2.3,59.93662301543458,
113.75,114.0,41,0.0,Stimuli/Blank.png,0,0,0.0,0,189,189,189,,,,,,,,,,,,,113.75119460000133,0.0011946000013267621,None,153.20279479999954,153.20279479999954,153.20279479999954,153.20279479999954,153.20279479999954,153.20279479999954,153.20279479999954,153.20279479999954,153.20279479999954,153.20279479999954,,006,P016,2025_Mar_07_1420,ConditionRich,2021.2.3,59.93662301543458,
114.0,114.75,16,0.75,Stimuli/P016/sun_bwhuwxazfqwuqhik.jpg,0,0,0.0,0,190,190,190,,,,,,,,,,,,,114.00050370000099,0.0005037000009906478,None,153.45301760000075,153.45301760000075,153.45301760000075,153.45301760000075,153.45301760000075,153.45301760000075,153.45301760000075,153.45301760000075,153.45301760000075,153.45301760000075,,006,P016,2025_Mar_07_1420,ConditionRich,2021.2.3,59.93662301543458,
114.75,115.0,41,0.0,Stimuli/Blank.png,0,0,0.0,0,191,191,191,,,,,,,,,,,,,114.75107879999996,0.0010787999999593012,None,154.2037823999999,154.2037823999999,154.2037823999999,154.2037823999999,154.2037823999999,154.2037823999999,154.2037823999999,154.2037823999999,154.2037823999999,154.2037823999999,,006,P016,2025_Mar_07_1420,ConditionRich,2021.2.3,59.93662301543458,
115.0,115.75,16,0.75,Stimuli/P016/sun_bwhuwxazfqwuqhik.jpg,0,0,0.0,0,192,192,192,,,,,,,,,,,,,115.00207570000202,0.0020757000020239502,None,154.47061329999997,154.47061329999997,154.47061329999997,154.47061329999997,154.47061329999997,154.47061329999997,154.47061329999997,154.47061329999997,154.47061329999997,154.47061329999997,,006,P016,2025_Mar_07_1420,ConditionRich,2021.2.3,59.93662301543458,
115.75,116.0,41,0.0,Stimuli/Blank.png,0,0,0.0,0,193,193,193,,,,,,,,,,,,,115.76962370000183,0.019623700001830002,None,155.22127000000182,155.22127000000182,155.22127000000182,155.22127000000182,155.22127000000182,155.22127000000182,155.22127000000182,155.22127000000182,155.22127000000182,155.22127000000182,,006,P016,2025_Mar_07_1420,ConditionRich,2021.2.3,59.93662301543458,
116.0,116.75,27,0.75,Stimuli/P016/things_girl_08s.jpg,0,0,0.0,0,194,194,194,,,,,,,,,,,,,116.00510320000103,0.0051032000010309275,None,155.47149410000202,155.47149410000202,155.47149410000202,155.47149410000202,155.47149410000202,155.47149410000202,155.47149410000202,155.47149410000202,155.47149410000202,155.47149410000202,,006,P016,2025_Mar_07_1420,ConditionRich,2021.2.3,59.93662301543458,
116.75,117.0,41,0.0,Stimuli/Blank.png,0,0,0.0,0,195,195,195,,,,,,,,,,,,,116.7705859000016,0.020585900001606205,None,156.22216370000024,156.22216370000024,156.22216370000024,156.22216370000024,156.22216370000024,156.22216370000024,156.22216370000024,156.22216370000024,156.22216370000024,156.22216370000024,,006,P016,2025_Mar_07_1420,ConditionRich,2021.2.3,59.93662301543458,
117.0,117.75,27,0.75,Stimuli/P016/things_girl_08s.jpg,0,0,0.0,0,196,196,196,,,,,,,,,,,,,117.00390800000241,0.003908000002411427,None,156.45570950000183,156.45570950000183,156.45570950000183,156.45570950000183,156.45570950000183,156.45570950000183,156.45570950000183,156.45570950000183,156.45570950000183,156.45570950000183,,006,P016,2025_Mar_07_1420,ConditionRich,2021.2.3,59.93662301543458,
117.75,118.0,41,0.0,Stimuli/Blank.png,0,0,0.0,0,197,197,197,,,,,,,,,,,,,117.75436189999891,0.004361899998912122,None,157.2063804999998,157.2063804999998,157.2063804999998,157.2063804999998,157.2063804999998,157.2063804999998,157.2063804999998,157.2063804999998,157.2063804999998,157.2063804999998,,006,P016,2025_Mar_07_1420,ConditionRich,2021.2.3,59.93662301543458,
118.0,118.75,27,0.75,Stimuli/P016/things_girl_08s.jpg,0,0,0.0,0,198,198,198,,,,,,,,,,,,,118.004159600001,0.0041596000010031275,None,157.45654529999956,157.45654529999956,157.45654529999956,157.45654529999956,157.45654529999956,157.45654529999956,157.45654529999956,157.45654529999956,157.45654529999956,157.45654529999956,,006,P016,2025_Mar_07_1420,ConditionRich,2021.2.3,59.93662301543458,
118.75,119.0,41,0.0,Stimuli/Blank.png,0,0,0.0,0,199,199,199,,,,,,,,,,,,,118.75465410000106,0.004654100001062034,None,158.20725959999982,158.20725959999982,158.20725959999982,158.20725959999982,158.20725959999982,158.20725959999982,158.20725959999982,158.20725959999982,158.20725959999982,158.20725959999982,,006,P016,2025_Mar_07_1420,ConditionRich,2021.2.3,59.93662301543458,
119.0,119.75,27,0.75,Stimuli/P016/things_girl_08s.jpg,0,0,0.0,0,200,200,200,,,,,,,,,,,,,119.00491279999915,0.004912799999146955,None,158.4574673999996,158.4574673999996,158.4574673999996,158.4574673999996,158.4574673999996,158.4574673999996,158.4574673999996,158.4574673999996,158.4574673999996,158.4574673999996,,006,P016,2025_Mar_07_1420,ConditionRich,2021.2.3,59.93662301543458,
119.75,120.0,41,0.0,Stimuli/Blank.png,0,0,0.0,0,201,201,201,,,,,,,,,,,,,119.75705000000016,0.0070500000001629815,None,159.2081442000017,159.2081442000017,159.2081442000017,159.2081442000017,159.2081442000017,159.2081442000017,159.2081442000017,159.2081442000017,159.2081442000017,159.2081442000017,,006,P016,2025_Mar_07_1420,ConditionRich,2021.2.3,59.93662301543458,
120.0,120.75,20,0.75,Stimuli/P016/sun_bzmxulijbnmshodq.jpg,0,0,0.0,0,202,202,202,,,,,,,,,,,,,120.00583069999993,0.005830699999933131,None,159.45834990000003,159.45834990000003,159.45834990000003,159.45834990000003,159.45834990000003,159.45834990000003,159.45834990000003,159.45834990000003,159.45834990000003,159.45834990000003,,006,P016,2025_Mar_07_1420,ConditionRich,2021.2.3,59.93662301543458,
120.75,121.0,41,0.0,Stimuli/Blank.png,0,0,0.0,0,203,203,203,,,,,,,,,,,,,120.75858620000145,0.008586200001445832,None,160.22570990000168,160.22570990000168,160.22570990000168,160.22570990000168,160.22570990000168,160.22570990000168,160.22570990000168,160.22570990000168,160.22570990000168,160.22570990000168,,006,P016,2025_Mar_07_1420,ConditionRich,2021.2.3,59.93662301543458,
121.0,121.75,20,0.75,Stimuli/P016/sun_bzmxulijbnmshodq.jpg,0,0,0.0,0,204,204,204,,,,,,,,,,,,,121.02421669999967,0.0242166999996698,None,160.49263350000183,160.49263350000183,160.49263350000183,160.49263350000183,160.49263350000183,160.49263350000183,160.49263350000183,160.49263350000183,160.49263350000183,160.49263350000183,,006,P016,2025_Mar_07_1420,ConditionRich,2021.2.3,59.93662301543458,
121.75,122.0,41,0.0,Stimuli/Blank.png,0,0,0.0,0,205,205,205,,,,,,,,,,,,,121.77412860000186,0.024128600001859013,None,161.22659159999967,161.22659159999967,161.22659159999967,161.22659159999967,161.22659159999967,161.22659159999967,161.22659159999967,161.22659159999967,161.22659159999967,161.22659159999967,,006,P016,2025_Mar_07_1420,ConditionRich,2021.2.3,59.93662301543458,
122.0,122.75,20,0.75,Stimuli/P016/sun_bzmxulijbnmshodq.jpg,0,0,0.0,0,206,206,206,,,,,,,,,,,,,122.00836160000108,0.00836160000108066,None,161.4601188000015,161.4601188000015,161.4601188000015,161.4601188000015,161.4601188000015,161.4601188000015,161.4601188000015,161.4601188000015,161.4601188000015,161.4601188000015,,006,P016,2025_Mar_07_1420,ConditionRich,2021.2.3,59.93662301543458,
122.75,123.0,41,0.0,Stimuli/Blank.png,0,0,0.0,0,207,207,207,,,,,,,,,,,,,122.75887789999979,0.008877899999788497,None,162.21078080000007,162.21078080000007,162.21078080000007,162.21078080000007,162.21078080000007,162.21078080000007,162.21078080000007,162.21078080000007,162.21078080000007,162.21078080000007,,006,P016,2025_Mar_07_1420,ConditionRich,2021.2.3,59.93662301543458,
123.0,123.75,20,0.75,Stimuli/P016/sun_bzmxulijbnmshodq.jpg,0,0,0.0,0,208,208,208,,,,,,,,,,,,,123.00841260000016,0.00841260000015609,None,162.4610102000006,162.4610102000006,162.4610102000006,162.4610102000006,162.4610102000006,162.4610102000006,162.4610102000006,162.4610102000006,162.4610102000006,162.4610102000006,,006,P016,2025_Mar_07_1420,ConditionRich,2021.2.3,59.93662301543458,
123.75,124.0,41,0.0,Stimuli/Blank.png,0,0,0.0,0,209,209,209,,,,,,,,,,,,,123.7599321000016,0.009932100001606159,None,163.21166520000043,163.21166520000043,163.21166520000043,163.21166520000043,163.21166520000043,163.21166520000043,163.21166520000043,163.21166520000043,163.21166520000043,163.21166520000043,,006,P016,2025_Mar_07_1420,ConditionRich,2021.2.3,59.93662301543458,
124.0,124.75,15,0.75,Stimuli/P016/sun_bvfcijehgdsndfbg.jpg,1,0,0.75,0,210,210,210,,,,,,,,,,,,,124.01043750000099,0.01043750000098953,None,163.4618580000024,163.4618580000024,163.4618580000024,163.4618580000024,163.4618580000024,163.4618580000024,163.4618580000024,164.1958752999999,163.4618580000024,163.4618580000024,,006,P016,2025_Mar_07_1420,ConditionRich,2021.2.3,59.93662301543458,
124.75,125.0,41,0.0,Stimuli/Blank.png,0,0,0.0,0,211,211,211,,,,,,,,,,,,,124.76028880000013,0.010288800000125775,1,164.21255320000273,164.21255320000273,164.21255320000273,164.21255320000273,164.21255320000273,164.21255320000273,164.21255320000273,164.21255320000273,164.21255320000273,164.21255320000273,0.14769670000168844,006,P016,2025_Mar_07_1420,ConditionRich,2021.2.3,59.93662301543458,
125.0,125.75,15,0.75,Stimuli/P016/sun_bvfcijehgdsndfbg.jpg,0,0,0.0,0,212,212,212,,,,,,,,,,,,,125.01047169999947,0.01047169999947073,None,164.46277460000056,164.46277460000056,164.46277460000056,164.46277460000056,164.46277460000056,164.46277460000056,164.46277460000056,164.46277460000056,164.46277460000056,164.46277460000056,,006,P016,2025_Mar_07_1420,ConditionRich,2021.2.3,59.93662301543458,
125.75,126.0,41,0.0,Stimuli/Blank.png,0,0,0.0,0,213,213,213,,,,,,,,,,,,,125.76361770000221,0.013617700002214406,None,165.23013080000237,165.23013080000237,165.23013080000237,165.23013080000237,165.23013080000237,165.23013080000237,165.23013080000237,165.23013080000237,165.23013080000237,165.23013080000237,,006,P016,2025_Mar_07_1420,ConditionRich,2021.2.3,59.93662301543458,
126.0,126.75,15,0.75,Stimuli/P016/sun_bvfcijehgdsndfbg.jpg,0,0,0.0,0,214,214,214,,,,,,,,,,,,,126.02821939999922,0.028219399999215966,None,165.48033790000045,165.48033790000045,165.48033790000045,165.48033790000045,165.48033790000045,165.48033790000045,165.48033790000045,165.48033790000045,165.48033790000045,165.48033790000045,,006,P016,2025_Mar_07_1420,ConditionRich,2021.2.3,59.93662301543458,
126.75,127.0,41,0.0,Stimuli/Blank.png,0,0,0.0,0,215,215,215,,,,,,,,,,,,,126.76427740000145,0.01427740000144695,None,166.2310163000002,166.2310163000002,166.2310163000002,166.2310163000002,166.2310163000002,166.2310163000002,166.2310163000002,166.2310163000002,166.2310163000002,166.2310163000002,,006,P016,2025_Mar_07_1420,ConditionRich,2021.2.3,59.93662301543458,
127.0,127.75,15,0.75,Stimuli/P016/sun_bvfcijehgdsndfbg.jpg,0,0,0.0,0,216,216,216,,,,,,,,,,,,,127.02929009999934,0.02929009999934351,None,166.48123470000064,166.48123470000064,166.48123470000064,166.48123470000064,166.48123470000064,166.48123470000064,166.48123470000064,166.48123470000064,166.48123470000064,166.48123470000064,,006,P016,2025_Mar_07_1420,ConditionRich,2021.2.3,59.93662301543458,
127.75,128.0,41,0.0,Stimuli/Blank.png,0,0,0.0,0,217,217,217,,,,,,,,,,,,,127.7635635000006,0.01356350000060047,None,167.21522399999958,167.21522399999958,167.21522399999958,167.21522399999958,167.21522399999958,167.21522399999958,167.21522399999958,167.21522399999958,167.21522399999958,167.21522399999958,,006,P016,2025_Mar_07_1420,ConditionRich,2021.2.3,59.93662301543458,
128.0,128.75,13,0.75,Stimuli/P016/sun_bphvjnowixlryxot.jpg,0,0,0.0,0,218,218,218,,,,,,,,,,,,,128.01359980000052,0.01359980000052019,None,167.4821187000016,167.4821187000016,167.4821187000016,167.4821187000016,167.4821187000016,167.4821187000016,167.4821187000016,167.4821187000016,167.4821187000016,167.4821187000016,,006,P016,2025_Mar_07_1420,ConditionRich,2021.2.3,59.93662301543458,
128.75,129.0,41,0.0,Stimuli/Blank.png,0,0,0.0,0,219,219,219,,,,,,,,,,,,,128.78032019999955,0.030320199999550823,None,168.2327817000005,168.2327817000005,168.2327817000005,168.2327817000005,168.2327817000005,168.2327817000005,168.2327817000005,168.2327817000005,168.2327817000005,168.2327817000005,,006,P016,2025_Mar_07_1420,ConditionRich,2021.2.3,59.93662301543458,
129.0,129.75,13,0.75,Stimuli/P016/sun_bphvjnowixlryxot.jpg,0,0,0.0,0,220,220,220,,,,,,,,,,,,,129.01375850000113,0.013758500001131324,None,168.46631519999937,168.46631519999937,168.46631519999937,168.46631519999937,168.46631519999937,168.46631519999937,168.46631519999937,168.46631519999937,168.46631519999937,168.46631519999937,,006,P016,2025_Mar_07_1420,ConditionRich,2021.2.3,59.93662301543458,
129.75,130.0,41,0.0,Stimuli/Blank.png,0,0,0.0,0,221,221,221,,,,,,,,,,,,,129.76446639999995,0.014466399999946589,None,169.21698880000258,169.21698880000258,169.21698880000258,169.21698880000258,169.21698880000258,169.21698880000258,169.21698880000258,169.21698880000258,169.21698880000258,169.21698880000258,,006,P016,2025_Mar_07_1420,ConditionRich,2021.2.3,59.93662301543458,
130.0,130.75,13,0.75,Stimuli/P016/sun_bphvjnowixlryxot.jpg,0,0,0.0,0,222,222,222,,,,,,,,,,,,,130.0147606999999,0.014760699999897042,None,169.46720520000235,169.46720520000235,169.46720520000235,169.46720520000235,169.46720520000235,169.46720520000235,169.46720520000235,169.46720520000235,169.46720520000235,169.46720520000235,,006,P016,2025_Mar_07_1420,ConditionRich,2021.2.3,59.93662301543458,
130.75,131.0,41,0.0,Stimuli/Blank.png,0,0,0.0,0,223,223,223,,,,,,,,,,,,,130.76581330000045,0.01581330000044545,None,170.2178586000009,170.2178586000009,170.2178586000009,170.2178586000009,170.2178586000009,170.2178586000009,170.2178586000009,170.2178586000009,170.2178586000009,170.2178586000009,,006,P016,2025_Mar_07_1420,ConditionRich,2021.2.3,59.93662301543458,
131.0,131.75,13,0.75,Stimuli/P016/sun_bphvjnowixlryxot.jpg,0,0,0.0,0,224,224,224,,,,,,,,,,,,,130.99959880000097,-0.0004011999990325421,None,170.45140710000123,170.45140710000123,170.45140710000123,170.45140710000123,170.45140710000123,170.45140710000123,170.45140710000123,170.45140710000123,170.45140710000123,170.45140710000123,,006,P016,2025_Mar_07_1420,ConditionRich,2021.2.3,59.93662301543458,
131.75,132.0,41,0.0,Stimuli/Blank.png,0,0,0.0,0,225,225,225,,,,,,,,,,,,,131.75075239999933,0.0007523999993281905,None,171.2020647999998,171.2020647999998,171.2020647999998,171.2020647999998,171.2020647999998,171.2020647999998,171.2020647999998,171.2020647999998,171.2020647999998,171.2020647999998,,006,P016,2025_Mar_07_1420,ConditionRich,2021.2.3,59.93662301543458,
132.0,132.75,19,0.75,Stimuli/P016/sun_bzhwvgrzvttqoexa.jpg,0,0,0.0,0,226,226,226,,,,,,,,,,,,,131.99990719999914,-9.280000085709617e-05,None,171.45224860000235,171.45224860000235,171.45224860000235,171.45224860000235,171.45224860000235,171.45224860000235,171.45224860000235,171.45224860000235,171.45224860000235,171.45224860000235,,006,P016,2025_Mar_07_1420,ConditionRich,2021.2.3,59.93662301543458,
132.75,133.0,41,0.0,Stimuli/Blank.png,0,0,0.0,0,227,227,227,,,,,,,,,,,,,132.7514489999994,0.0014489999994111713,None,172.20297480000227,172.20297480000227,172.20297480000227,172.20297480000227,172.20297480000227,172.20297480000227,172.20297480000227,172.20297480000227,172.20297480000227,172.20297480000227,,006,P016,2025_Mar_07_1420,ConditionRich,2021.2.3,59.93662301543458,
133.0,133.75,19,0.75,Stimuli/P016/sun_bzhwvgrzvttqoexa.jpg,0,0,0.0,0,228,228,228,,,,,,,,,,,,,133.00077330000204,0.0007733000020380132,None,172.46985430000132,172.46985430000132,172.46985430000132,172.46985430000132,172.46985430000132,172.46985430000132,172.46985430000132,172.46985430000132,172.46985430000132,172.46985430000132,,006,P016,2025_Mar_07_1420,ConditionRich,2021.2.3,59.93662301543458,
133.75,134.0,41,0.0,Stimuli/Blank.png,0,0,0.0,0,229,229,229,,,,,,,,,,,,,133.76844490000076,0.018444900000758935,None,173.22049300000072,173.22049300000072,173.22049300000072,173.22049300000072,173.22049300000072,173.22049300000072,173.22049300000072,173.22049300000072,173.22049300000072,173.22049300000072,,006,P016,2025_Mar_07_1420,ConditionRich,2021.2.3,59.93662301543458,
134.0,134.75,19,0.75,Stimuli/P016/sun_bzhwvgrzvttqoexa.jpg,1,0,0.75,0,230,230,230,,,,,,,,,,,,,134.00407330000235,0.004073300002346514,1,173.47071119999964,173.47071119999964,173.47071119999964,173.47071119999964,173.47071119999964,173.47071119999964,173.47071119999964,174.2047562000007,173.47071119999964,173.47071119999964,0.46634990000166,006,P016,2025_Mar_07_1420,ConditionRich,2021.2.3,59.93662301543458,
134.75,135.0,41,0.0,Stimuli/Blank.png,0,0,0.0,0,231,231,231,,,,,,,,,,,,,134.76976149999973,0.019761499999731313,None,174.221418000001,174.221418000001,174.221418000001,174.221418000001,174.221418000001,174.221418000001,174.221418000001,174.221418000001,174.221418000001,174.221418000001,,006,P016,2025_Mar_07_1420,ConditionRich,2021.2.3,59.93662301543458,
135.0,135.75,19,0.75,Stimuli/P016/sun_bzhwvgrzvttqoexa.jpg,0,0,0.0,0,232,232,232,,,,,,,,,,,,,135.0031955000013,0.003195500001311302,None,174.45494429999962,174.45494429999962,174.45494429999962,174.45494429999962,174.45494429999962,174.45494429999962,174.45494429999962,174.45494429999962,174.45494429999962,174.45494429999962,,006,P016,2025_Mar_07_1420,ConditionRich,2021.2.3,59.93662301543458,
135.75,136.0,41,0.0,Stimuli/Blank.png,0,0,0.0,0,233,233,233,,,,,,,,,,,,,135.7530396000002,0.003039600000192877,None,175.20561280000038,175.20561280000038,175.20561280000038,175.20561280000038,175.20561280000038,175.20561280000038,175.20561280000038,175.20561280000038,175.20561280000038,175.20561280000038,,006,P016,2025_Mar_07_1420,ConditionRich,2021.2.3,59.93662301543458,
136.0,136.75,9,0.75,Stimuli/P016/sun_bbdgftzhpkaklkll.jpg,0,0,0.0,0,234,234,234,,,,,,,,,,,,,136.00425760000144,0.004257600001437822,None,175.45585539999956,175.45585539999956,175.45585539999956,175.45585539999956,175.45585539999956,175.45585539999956,175.45585539999956,175.45585539999956,175.45585539999956,175.45585539999956,,006,P016,2025_Mar_07_1420,ConditionRich,2021.2.3,59.93662301543458,
136.75,137.0,41,0.0,Stimuli/Blank.png,0,0,0.0,0,235,235,235,,,,,,,,,,,,,136.75392880000072,0.0039288000007218216,None,176.20649419999972,176.20649419999972,176.20649419999972,176.20649419999972,176.20649419999972,176.20649419999972,176.20649419999972,176.20649419999972,176.20649419999972,176.20649419999972,,006,P016,2025_Mar_07_1420,ConditionRich,2021.2.3,59.93662301543458,
137.0,137.75,9,0.75,Stimuli/P016/sun_bbdgftzhpkaklkll.jpg,0,0,0.0,0,236,236,236,,,,,,,,,,,,,137.0049082000005,0.004908200000500074,None,176.45664430000033,176.45664430000033,176.45664430000033,176.45664430000033,176.45664430000033,176.45664430000033,176.45664430000033,176.45664430000033,176.45664430000033,176.45664430000033,,006,P016,2025_Mar_07_1420,ConditionRich,2021.2.3,59.93662301543458,
137.75,138.0,41,0.0,Stimuli/Blank.png,0,0,0.0,0,237,237,237,,,,,,,,,,,,,137.75480199999947,0.004801999999472173,None,177.207374900001,177.207374900001,177.207374900001,177.207374900001,177.207374900001,177.207374900001,177.207374900001,177.207374900001,177.207374900001,177.207374900001,,006,P016,2025_Mar_07_1420,ConditionRich,2021.2.3,59.93662301543458,
138.0,138.75,9,0.75,Stimuli/P016/sun_bbdgftzhpkaklkll.jpg,0,0,0.0,0,238,238,238,,,,,,,,,,,,,138.0050747000023,0.005074700002296595,None,177.4575901999997,177.4575901999997,177.4575901999997,177.4575901999997,177.4575901999997,177.4575901999997,177.4575901999997,177.4575901999997,177.4575901999997,177.4575901999997,,006,P016,2025_Mar_07_1420,ConditionRich,2021.2.3,59.93662301543458,
138.75,139.0,41,0.0,Stimuli/Blank.png,0,0,0.0,0,239,239,239,,,,,,,,,,,,,138.75573470000018,0.005734700000175508,None,178.20826250000027,178.20826250000027,178.20826250000027,178.20826250000027,178.20826250000027,178.20826250000027,178.20826250000027,178.20826250000027,178.20826250000027,178.20826250000027,,006,P016,2025_Mar_07_1420,ConditionRich,2021.2.3,59.93662301543458,
139.0,139.75,9,0.75,Stimuli/P016/sun_bbdgftzhpkaklkll.jpg,0,0,0.0,0,240,240,240,,,,,,,,,,,,,139.00593920000028,0.0059392000002844725,None,178.47520900000018,178.47520900000018,178.47520900000018,178.47520900000018,178.47520900000018,178.47520900000018,178.47520900000018,178.47520900000018,178.47520900000018,178.47520900000018,,006,P016,2025_Mar_07_1420,ConditionRich,2021.2.3,59.93662301543458,
139.75,140.0,41,0.0,Stimuli/Blank.png,0,0,0.0,0,241,241,241,,,,,,,,,,,,,139.77446110000164,0.02446110000164481,None,179.2258378000006,179.2258378000006,179.2258378000006,179.2258378000006,179.2258378000006,179.2258378000006,179.2258378000006,179.2258378000006,179.2258378000006,179.2258378000006,,006,P016,2025_Mar_07_1420,ConditionRich,2021.2.3,59.93662301543458,
140.0,140.75,26,0.75,Stimuli/P016/things_face_08s.jpg,0,0,0.0,0,242,242,242,,,,,,,,,,,,,140.0075414999992,0.00754149999920628,None,179.45932209999955,179.45932209999955,179.45932209999955,179.45932209999955,179.45932209999955,179.45932209999955,179.45932209999955,179.45932209999955,179.45932209999955,179.45932209999955,,006,P016,2025_Mar_07_1420,ConditionRich,2021.2.3,59.93662301543458,
140.75,141.0,41,0.0,Stimuli/Blank.png,0,0,0.0,0,243,243,243,,,,,,,,,,,,,140.75838120000117,0.008381200001167599,None,180.21004200000243,180.21004200000243,180.21004200000243,180.21004200000243,180.21004200000243,180.21004200000243,180.21004200000243,180.21004200000243,180.21004200000243,180.21004200000243,,006,P016,2025_Mar_07_1420,ConditionRich,2021.2.3,59.93662301543458,
141.0,141.75,26,0.75,Stimuli/P016/things_face_08s.jpg,0,0,0.0,0,244,244,244,,,,,,,,,,,,,141.00911370000176,0.009113700001762481,None,180.47696840000208,180.47696840000208,180.47696840000208,180.47696840000208,180.47696840000208,180.47696840000208,180.47696840000208,180.47696840000208,180.47696840000208,180.47696840000208,,006,P016,2025_Mar_07_1420,ConditionRich,2021.2.3,59.93662301543458,
141.75,142.0,41,0.0,Stimuli/Blank.png,0,0,0.0,0,245,245,245,,,,,,,,,,,,,141.77548269999897,0.025482699998974567,None,181.2275905000024,181.2275905000024,181.2275905000024,181.2275905000024,181.2275905000024,181.2275905000024,181.2275905000024,181.2275905000024,181.2275905000024,181.2275905000024,,006,P016,2025_Mar_07_1420,ConditionRich,2021.2.3,59.93662301543458,
142.0,142.75,26,0.75,Stimuli/P016/things_face_08s.jpg,0,0,0.0,0,246,246,246,,,,,,,,,,,,,142.00976150000133,0.009761500001332024,None,181.46113820000028,181.46113820000028,181.46113820000028,181.46113820000028,181.46113820000028,181.46113820000028,181.46113820000028,181.46113820000028,181.46113820000028,181.46113820000028,,006,P016,2025_Mar_07_1420,ConditionRich,2021.2.3,59.93662301543458,
142.75,143.0,41,0.0,Stimuli/Blank.png,0,0,0.0,0,247,247,247,,,,,,,,,,,,,142.75985530000253,0.009855300002527656,None,182.21179440000196,182.21179440000196,182.21179440000196,182.21179440000196,182.21179440000196,182.21179440000196,182.21179440000196,182.21179440000196,182.21179440000196,182.21179440000196,,006,P016,2025_Mar_07_1420,ConditionRich,2021.2.3,59.93662301543458,
143.0,143.75,26,0.75,Stimuli/P016/things_face_08s.jpg,0,0,0.0,0,248,248,248,,,,,,,,,,,,,143.00944860000163,0.009448600001633167,None,182.4620173000003,182.4620173000003,182.4620173000003,182.4620173000003,182.4620173000003,182.4620173000003,182.4620173000003,182.4620173000003,182.4620173000003,182.4620173000003,,006,P016,2025_Mar_07_1420,ConditionRich,2021.2.3,59.93662301543458,
143.75,144.0,41,0.0,Stimuli/Blank.png,0,0,0.0,0,249,249,249,,,,,,,,,,,,,143.7602418000024,0.010241800002404489,None,183.21267720000105,183.21267720000105,183.21267720000105,183.21267720000105,183.21267720000105,183.21267720000105,183.21267720000105,183.21267720000105,183.21267720000105,183.21267720000105,,006,P016,2025_Mar_07_1420,ConditionRich,2021.2.3,59.93662301543458,
144.0,144.75,2,0.75,Stimuli/P016/sun_agzfkftryitnqpxc.jpg,0,0,0.0,0,250,250,250,,,,,,,,,,,,,144.0107984000024,0.010798400002386188,None,183.47957470000256,183.47957470000256,183.47957470000256,183.47957470000256,183.47957470000256,183.47957470000256,183.47957470000256,183.47957470000256,183.47957470000256,183.47957470000256,,006,P016,2025_Mar_07_1420,ConditionRich,2021.2.3,59.93662301543458,
144.75,145.0,41,0.0,Stimuli/Blank.png,0,0,0.0,0,251,251,251,,,,,,,,,,,,,144.77923350000128,0.029233500001282664,None,184.23025530000086,184.23025530000086,184.23025530000086,184.23025530000086,184.23025530000086,184.23025530000086,184.23025530000086,184.23025530000086,184.23025530000086,184.23025530000086,,006,P016,2025_Mar_07_1420,ConditionRich,2021.2.3,59.93662301543458,
145.0,145.75,2,0.75,Stimuli/P016/sun_agzfkftryitnqpxc.jpg,0,0,0.0,0,252,252,252,,,,,,,,,,,,,145.0120057000022,0.012005700002191588,None,184.48047360000055,184.48047360000055,184.48047360000055,184.48047360000055,184.48047360000055,184.48047360000055,184.48047360000055,184.48047360000055,184.48047360000055,184.48047360000055,,006,P016,2025_Mar_07_1420,ConditionRich,2021.2.3,59.93662301543458,
145.75,146.0,41,0.0,Stimuli/Blank.png,0,0,0.0,0,253,253,253,,,,,,,,,,,,,145.77956990000166,0.029569900001661154,None,185.23113440000088,185.23113440000088,185.23113440000088,185.23113440000088,185.23113440000088,185.23113440000088,185.23113440000088,185.23113440000088,185.23113440000088,185.23113440000088,,006,P016,2025_Mar_07_1420,ConditionRich,2021.2.3,59.93662301543458,
146.0,146.75,2,0.75,Stimuli/P016/sun_agzfkftryitnqpxc.jpg,0,0,0.0,0,254,254,254,,,,,,,,,,,,,146.01218820000213,0.012188200002128724,None,185.46466940000028,185.46466940000028,185.46466940000028,185.46466940000028,185.46466940000028,185.46466940000028,185.46466940000028,185.46466940000028,185.46466940000028,185.46466940000028,,006,P016,2025_Mar_07_1420,ConditionRich,2021.2.3,59.93662301543458,
146.75,147.0,41,0.0,Stimuli/Blank.png,0,0,0.0,0,255,255,255,,,,,,,,,,,,,146.7634192000005,0.013419200000498677,None,186.2153419999995,186.2153419999995,186.2153419999995,186.2153419999995,186.2153419999995,186.2153419999995,186.2153419999995,186.2153419999995,186.2153419999995,186.2153419999995,,006,P016,2025_Mar_07_1420,ConditionRich,2021.2.3,59.93662301543458,
147.0,147.75,2,0.75,Stimuli/P016/sun_agzfkftryitnqpxc.jpg,0,0,0.0,0,256,256,256,,,,,,,,,,,,,147.01449950000097,0.014499500000965782,None,186.48223209999924,186.48223209999924,186.48223209999924,186.48223209999924,186.48223209999924,186.48223209999924,186.48223209999924,186.48223209999924,186.48223209999924,186.48223209999924,,006,P016,2025_Mar_07_1420,ConditionRich,2021.2.3,59.93662301543458,
147.75,148.0,41,0.0,Stimuli/Blank.png,0,0,0.0,0,257,257,257,,,,,,,,,,,,,147.7805096000011,0.03050960000109626,None,187.23289940000177,187.23289940000177,187.23289940000177,187.23289940000177,187.23289940000177,187.23289940000177,187.23289940000177,187.23289940000177,187.23289940000177,187.23289940000177,,006,P016,2025_Mar_07_1420,ConditionRich,2021.2.3,59.93662301543458,
148.0,148.75,29,0.75,Stimuli/P016/things_mouse1_08s.jpg,0,0,0.0,0,258,258,258,,,,,,,,,,,,,148.0139538000003,0.013953800000308547,None,187.46644240000023,187.46644240000023,187.46644240000023,187.46644240000023,187.46644240000023,187.46644240000023,187.46644240000023,187.46644240000023,187.46644240000023,187.46644240000023,,006,P016,2025_Mar_07_1420,ConditionRich,2021.2.3,59.93662301543458,
148.75,149.0,41,0.0,Stimuli/Blank.png,0,0,0.0,0,259,259,259,,,,,,,,,,,,,148.76455120000173,0.014551200001733378,None,188.21710600000006,188.21710600000006,188.21710600000006,188.21710600000006,188.21710600000006,188.21710600000006,188.21710600000006,188.21710600000006,188.21710600000006,188.21710600000006,,006,P016,2025_Mar_07_1420,ConditionRich,2021.2.3,59.93662301543458,
149.0,149.75,29,0.75,Stimuli/P016/things_mouse1_08s.jpg,0,0,0.0,0,260,260,260,,,,,,,,,,,,,149.01546529999905,0.01546529999905033,None,188.46732690000135,188.46732690000135,188.46732690000135,188.46732690000135,188.46732690000135,188.46732690000135,188.46732690000135,188.46732690000135,188.46732690000135,188.46732690000135,,006,P016,2025_Mar_07_1420,ConditionRich,2021.2.3,59.93662301543458,
149.75,150.0,41,0.0,Stimuli/Blank.png,0,0,0.0,0,261,261,261,,,,,,,,,,,,,149.74962830000004,-0.00037169999995967373,None,189.20131860000038,189.20131860000038,189.20131860000038,189.20131860000038,189.20131860000038,189.20131860000038,189.20131860000038,189.20131860000038,189.20131860000038,189.20131860000038,,006,P016,2025_Mar_07_1420,ConditionRich,2021.2.3,59.93662301543458,
