eventStartTime,eventEndTime,eventCond,imSize,imFile,responseEvent,fixRespStart,fixRespEnd,Events.thisRepN,Events.thisTrialN,Events.thisN,Events.thisIndex,Instructions.started,Instructions.stopped,participantReadyResponse.keys,participantReadyResponse.rt,participantReadyResponse.started,participantReadyResponse.stopped,startWaitforTrigger,triggerResponse.keys,triggerResponse.rt,triggerResponse.started,triggerResponse.stopped,globalTimer,actualStartTime,startTimingDiff,participantResponse.keys,participantResponse.started,participantResponse.stopped,image.started,image.stopped,fixationOutside.started,fixationOutside.stopped,fixationResponse.started,fixationResponse.stopped,fixationInside.started,fixationInside.stopped,participantResponse.rt,session,participant,date,expName,psychopyVersion,frameRate,
,,,,,,,,,,,,9.698019200001,None,1,7.387821199998143,9.698019200001,None,,,,,,,,,,,,,,,,,,,,,002,P017,2025_Mar_07_1558,ConditionRich,2021.2.3,59.93313859080324,
,,,,,,,,,,,,,,,,,,17.09170599999925,5,15.614603199999692,17.10423599999922,None,,,,,,,,,,,,,,,,002,P017,2025_Mar_07_1558,ConditionRich,2021.2.3,59.93313859080324,
0.0,4.0,0,0.0,Stimuli/Blank.png,0,0.0,0.0,0,0,0,0,,,,,,,,,,,,32.72224490000008,0.01629509999838774,0.01629509999838774,None,32.7513426000005,None,32.7513426000005,None,32.7513426000005,None,32.7513426000005,32.7513426000005,32.7513426000005,None,,002,P017,2025_Mar_07_1558,ConditionRich,2021.2.3,59.93313859080324,
4.0,4.75,24,0.75,Stimuli/P017/things_breadbox_09s.jpg,0,0.0,0.0,0,1,1,1,,,,,,,,,,,,,4.002309499999683,0.0023094999996828847,None,36.738480300002266,36.738480300002266,36.738480300002266,36.738480300002266,36.738480300002266,36.738480300002266,36.738480300002266,36.738480300002266,36.738480300002266,36.738480300002266,,002,P017,2025_Mar_07_1558,ConditionRich,2021.2.3,59.93313859080324,
4.75,8.0,41,0.0,Stimuli/Blank.png,0,0.0,0.0,0,2,2,2,,,,,,,,,,,,,4.75248179999835,0.002481799998349743,None,37.48920210000142,37.48920210000142,37.48920210000142,37.48920210000142,37.48920210000142,37.48920210000142,37.48920210000142,37.48920210000142,37.48920210000142,37.48920210000142,,002,P017,2025_Mar_07_1558,ConditionRich,2021.2.3,59.93313859080324,
8.0,8.75,8,0.75,Stimuli/P017/sun_axsmqyyvebrcuhkn.jpg,0,0.0,0.0,0,3,3,3,,,,,,,,,,,,,8.006446999999753,0.006446999999752734,None,40.758424300001934,40.758424300001934,40.758424300001934,40.758424300001934,40.758424300001934,40.758424300001934,40.758424300001934,40.758424300001934,40.758424300001934,40.758424300001934,,002,P017,2025_Mar_07_1558,ConditionRich,2021.2.3,59.93313859080324,
8.75,12.0,41,0.0,Stimuli/Blank.png,0,0.0,0.0,0,4,4,4,,,,,,,,,,,,,8.772795199998654,0.022795199998654425,None,41.50909200000024,41.50909200000024,41.50909200000024,41.50909200000024,41.50909200000024,41.50909200000024,41.50909200000024,41.50909200000024,41.50909200000024,41.50909200000024,,002,P017,2025_Mar_07_1558,ConditionRich,2021.2.3,59.93313859080324,
12.0,12.75,18,0.75,Stimuli/P017/sun_brrvvswweljrvnlq.jpg,0,0.0,0.0,0,5,5,5,,,,,,,,,,,,,12.008532299998478,0.008532299998478265,None,44.7452818999991,44.7452818999991,44.7452818999991,44.7452818999991,44.7452818999991,44.7452818999991,44.7452818999991,44.7452818999991,44.7452818999991,44.7452818999991,,002,P017,2025_Mar_07_1558,ConditionRich,2021.2.3,59.93313859080324,
12.75,16.0,41,0.0,Stimuli/Blank.png,0,0.0,0.0,0,6,6,6,,,,,,,,,,,,,12.76230559999749,0.01230559999748948,None,45.51263789999939,45.51263789999939,45.51263789999939,45.51263789999939,45.51263789999939,45.51263789999939,45.51263789999939,45.51263789999939,45.51263789999939,45.51263789999939,,002,P017,2025_Mar_07_1558,ConditionRich,2021.2.3,59.93313859080324,
16.0,16.75,16,0.75,Stimuli/P017/sun_brfwxjsnmauhmfzf.jpg,0,0.0,0.0,0,7,7,7,,,,,,,,,,,,,16.028672099997493,0.028672099997493206,None,48.76549639999939,48.76549639999939,48.76549639999939,48.76549639999939,48.76549639999939,48.76549639999939,48.76549639999939,48.76549639999939,48.76549639999939,48.76549639999939,,002,P017,2025_Mar_07_1558,ConditionRich,2021.2.3,59.93313859080324,
16.75,20.0,41,0.0,Stimuli/Blank.png,0,0.0,0.0,0,8,8,8,,,,,,,,,,,,,16.76307149999775,0.013071499997749925,None,49.49948779999977,49.49948779999977,49.49948779999977,49.49948779999977,49.49948779999977,49.49948779999977,49.49948779999977,49.49948779999977,49.49948779999977,49.49948779999977,,002,P017,2025_Mar_07_1558,ConditionRich,2021.2.3,59.93313859080324,
20.0,20.75,39,0.75,Stimuli/P017/things_veil_09s.jpg,0,0.0,0.0,0,9,9,9,,,,,,,,,,,,,19.999085999999807,-0.0009140000001934823,None,52.73563529999956,52.73563529999956,52.73563529999956,52.73563529999956,52.73563529999956,52.73563529999956,52.73563529999956,52.73563529999956,52.73563529999956,52.73563529999956,,002,P017,2025_Mar_07_1558,ConditionRich,2021.2.3,59.93313859080324,
20.75,24.0,41,0.0,Stimuli/Blank.png,0,0.0,0.0,0,10,10,10,,,,,,,,,,,,,20.752465899997333,0.002465899997332599,None,53.50303350000104,53.50303350000104,53.50303350000104,53.50303350000104,53.50303350000104,53.50303350000104,53.50303350000104,53.50303350000104,53.50303350000104,53.50303350000104,,002,P017,2025_Mar_07_1558,ConditionRich,2021.2.3,59.93313859080324,
24.0,24.75,5,0.75,Stimuli/P017/sun_apojgqgvdvsksdvo.jpg,0,0.0,0.0,0,11,11,11,,,,,,,,,,,,,24.019929999998567,0.019929999998566927,None,56.7558996000007,56.7558996000007,56.7558996000007,56.7558996000007,56.7558996000007,56.7558996000007,56.7558996000007,56.7558996000007,56.7558996000007,56.7558996000007,,002,P017,2025_Mar_07_1558,ConditionRich,2021.2.3,59.93313859080324,
24.75,28.0,41,0.0,Stimuli/Blank.png,0,0.0,0.0,0,12,12,12,,,,,,,,,,,,,24.753233499999624,0.0032334999996237457,None,57.48991670000032,57.48991670000032,57.48991670000032,57.48991670000032,57.48991670000032,57.48991670000032,57.48991670000032,57.48991670000032,57.48991670000032,57.48991670000032,,002,P017,2025_Mar_07_1558,ConditionRich,2021.2.3,59.93313859080324,
28.0,28.75,30,0.75,Stimuli/P017/things_girl_09s.jpg,0,0.0,0.0,0,13,13,13,,,,,,,,,,,,,28.00699959999838,0.00699959999838029,None,60.7427228000015,60.7427228000015,60.7427228000015,60.7427228000015,60.7427228000015,60.7427228000015,60.7427228000015,60.7427228000015,60.7427228000015,60.7427228000015,,002,P017,2025_Mar_07_1558,ConditionRich,2021.2.3,59.93313859080324,
28.75,32.0,41,0.0,Stimuli/Blank.png,0,0.0,0.0,0,14,14,14,,,,,,,,,,,,,28.75714959999823,0.00714959999822895,None,61.49341869999989,61.49341869999989,61.49341869999989,61.49341869999989,61.49341869999989,61.49341869999989,61.49341869999989,61.49341869999989,61.49341869999989,61.49341869999989,,002,P017,2025_Mar_07_1558,ConditionRich,2021.2.3,59.93313859080324,
32.0,32.75,14,0.75,Stimuli/P017/sun_bljpqnfmmqkjsfvx.jpg,1,0.0,0.75,0,15,15,15,,,,,,,,,,,,,32.00994839999839,0.009948399998393143,1,64.76299429999926,64.76299429999926,64.76299429999926,64.76299429999926,64.76299429999926,64.76299429999926,64.76299429999926,65.48033280000163,64.76299429999926,64.76299429999926,0.4928160999988904,002,P017,2025_Mar_07_1558,ConditionRich,2021.2.3,59.93313859080324,
32.75,36.0,41,0.0,Stimuli/Blank.png,0,0.0,0.0,0,16,16,16,,,,,,,,,,,,,32.7775421999977,0.027542199997697026,None,65.51364209999883,65.51364209999883,65.51364209999883,65.51364209999883,65.51364209999883,65.51364209999883,65.51364209999883,65.51364209999883,65.51364209999883,65.51364209999883,,002,P017,2025_Mar_07_1558,ConditionRich,2021.2.3,59.93313859080324,
36.0,36.75,21,0.75,Stimuli/P017/things_baby_09s.jpg,0,0.0,0.0,0,17,17,17,,,,,,,,,,,,,36.01301079999757,0.013010799997573486,None,68.74979620000158,68.74979620000158,68.74979620000158,68.74979620000158,68.74979620000158,68.74979620000158,68.74979620000158,68.74979620000158,68.74979620000158,68.74979620000158,,002,P017,2025_Mar_07_1558,ConditionRich,2021.2.3,59.93313859080324,
36.75,40.0,41,0.0,Stimuli/Blank.png,0,0.0,0.0,0,18,18,18,,,,,,,,,,,,,36.76417219999712,0.014172199997119606,None,69.50048880000031,69.50048880000031,69.50048880000031,69.50048880000031,69.50048880000031,69.50048880000031,69.50048880000031,69.50048880000031,69.50048880000031,69.50048880000031,,002,P017,2025_Mar_07_1558,ConditionRich,2021.2.3,59.93313859080324,
40.0,40.75,25,0.75,Stimuli/P017/things_cannonball_09s.jpg,0,0.0,0.0,0,19,19,19,,,,,,,,,,,,,40.0020549999972,0.0020549999971990474,None,72.7533696999999,72.7533696999999,72.7533696999999,72.7533696999999,72.7533696999999,72.7533696999999,72.7533696999999,72.7533696999999,72.7533696999999,72.7533696999999,,002,P017,2025_Mar_07_1558,ConditionRich,2021.2.3,59.93313859080324,
40.75,44.0,41,0.0,Stimuli/Blank.png,0,0.0,0.0,0,20,20,20,,,,,,,,,,,,,40.76772619999974,0.017726199999742676,None,73.5040227999998,73.5040227999998,73.5040227999998,73.5040227999998,73.5040227999998,73.5040227999998,73.5040227999998,73.5040227999998,73.5040227999998,73.5040227999998,,002,P017,2025_Mar_07_1558,ConditionRich,2021.2.3,59.93313859080324,
44.0,44.75,28,0.75,Stimuli/P017/things_collar_09s.jpg,0,0.0,0.0,0,21,21,21,,,,,,,,,,,,,44.00351319999754,0.0035131999975419603,None,76.7402261999996,76.7402261999996,76.7402261999996,76.7402261999996,76.7402261999996,76.7402261999996,76.7402261999996,76.7402261999996,76.7402261999996,76.7402261999996,,002,P017,2025_Mar_07_1558,ConditionRich,2021.2.3,59.93313859080324,
44.75,48.0,41,0.0,Stimuli/Blank.png,0,0.0,0.0,0,22,22,22,,,,,,,,,,,,,44.75518109999757,0.005181099997571437,None,77.490886399999,77.490886399999,77.490886399999,77.490886399999,77.490886399999,77.490886399999,77.490886399999,77.490886399999,77.490886399999,77.490886399999,,002,P017,2025_Mar_07_1558,ConditionRich,2021.2.3,59.93313859080324,
48.0,48.75,23,0.75,Stimuli/P017/things_boy_09s.jpg,0,0.0,0.0,0,23,23,23,,,,,,,,,,,,,48.00849559999915,0.008495599999150727,None,80.76048269999956,80.76048269999956,80.76048269999956,80.76048269999956,80.76048269999956,80.76048269999956,80.76048269999956,80.76048269999956,80.76048269999956,80.76048269999956,,002,P017,2025_Mar_07_1558,ConditionRich,2021.2.3,59.93313859080324,
48.75,52.0,41,0.0,Stimuli/Blank.png,0,0.0,0.0,0,24,24,24,,,,,,,,,,,,,48.77490549999857,0.024905499998567393,None,81.5110980999998,81.5110980999998,81.5110980999998,81.5110980999998,81.5110980999998,81.5110980999998,81.5110980999998,81.5110980999998,81.5110980999998,81.5110980999998,,002,P017,2025_Mar_07_1558,ConditionRich,2021.2.3,59.93313859080324,
52.0,52.75,31,0.75,Stimuli/P017/things_highchair_09s.jpg,0,0.0,0.0,0,25,25,25,,,,,,,,,,,,,52.01179809999667,0.011798099996667588,None,84.76398320000226,84.76398320000226,84.76398320000226,84.76398320000226,84.76398320000226,84.76398320000226,84.76398320000226,84.76398320000226,84.76398320000226,84.76398320000226,,002,P017,2025_Mar_07_1558,ConditionRich,2021.2.3,59.93313859080324,
52.75,56.0,41,0.0,Stimuli/Blank.png,0,0.0,0.0,0,26,26,26,,,,,,,,,,,,,52.77783359999739,0.02783359999739332,None,85.51464080000005,85.51464080000005,85.51464080000005,85.51464080000005,85.51464080000005,85.51464080000005,85.51464080000005,85.51464080000005,85.51464080000005,85.51464080000005,,002,P017,2025_Mar_07_1558,ConditionRich,2021.2.3,59.93313859080324,
56.0,56.75,9,0.75,Stimuli/P017/sun_ayidxslzurdumeps.jpg,0,0.0,0.0,0,27,27,27,,,,,,,,,,,,,56.01494839999941,0.014948399999411777,None,88.76752050000141,88.76752050000141,88.76752050000141,88.76752050000141,88.76752050000141,88.76752050000141,88.76752050000141,88.76752050000141,88.76752050000141,88.76752050000141,,002,P017,2025_Mar_07_1558,ConditionRich,2021.2.3,59.93313859080324,
56.75,60.0,41,0.0,Stimuli/Blank.png,1,1.25,2.0,0,28,28,28,,,,,,,,,,,,,56.78269609999916,0.03269609999915701,1,89.5181975000014,89.5181975000014,89.5181975000014,89.5181975000014,89.5181975000014,89.5181975000014,90.75260580000031,91.50328029999946,89.5181975000014,89.5181975000014,1.7015668999993068,002,P017,2025_Mar_07_1558,ConditionRich,2021.2.3,59.93313859080324,
60.0,60.75,12,0.75,Stimuli/P017/sun_bhvaiabdgxjuwoth.jpg,0,0.0,0.0,0,29,29,29,,,,,,,,,,,,,60.00166899999749,0.0016689999974914826,None,92.75438000000213,92.75438000000213,92.75438000000213,92.75438000000213,92.75438000000213,92.75438000000213,92.75438000000213,92.75438000000213,92.75438000000213,92.75438000000213,,002,P017,2025_Mar_07_1558,ConditionRich,2021.2.3,59.93313859080324,
60.75,64.0,41,0.0,Stimuli/Blank.png,0,0.0,0.0,0,30,30,30,,,,,,,,,,,,,60.76817039999878,0.01817039999878034,None,93.50504160000128,93.50504160000128,93.50504160000128,93.50504160000128,93.50504160000128,93.50504160000128,93.50504160000128,93.50504160000128,93.50504160000128,93.50504160000128,,002,P017,2025_Mar_07_1558,ConditionRich,2021.2.3,59.93313859080324,
64.0,64.75,29,0.75,Stimuli/P017/things_face_09s.jpg,0,0.0,0.0,0,31,31,31,,,,,,,,,,,,,64.00713919999907,0.007139199999073753,None,96.75794490000044,96.75794490000044,96.75794490000044,96.75794490000044,96.75794490000044,96.75794490000044,96.75794490000044,96.75794490000044,96.75794490000044,96.75794490000044,,002,P017,2025_Mar_07_1558,ConditionRich,2021.2.3,59.93313859080324,
64.75,68.0,41,0.0,Stimuli/Blank.png,1,0.25,1.0,0,32,32,32,,,,,,,,,,,,,64.77175919999718,0.021759199997177348,1,97.50854880000043,97.50854880000043,97.50854880000043,97.50854880000043,97.50854880000043,97.50854880000043,97.74217800000042,98.49293930000204,97.50854880000043,97.50854880000043,0.6163014000012481,002,P017,2025_Mar_07_1558,ConditionRich,2021.2.3,59.93313859080324,
68.0,68.75,35,0.75,Stimuli/P017/things_lobster_09s.jpg,0,0.0,0.0,0,33,33,33,,,,,,,,,,,,,68.00805809999656,0.008058099996560486,None,100.744776800002,100.744776800002,100.744776800002,100.744776800002,100.744776800002,100.744776800002,100.744776800002,100.744776800002,100.744776800002,100.744776800002,,002,P017,2025_Mar_07_1558,ConditionRich,2021.2.3,59.93313859080324,
68.75,72.0,41,0.0,Stimuli/Blank.png,0,0.0,0.0,0,34,34,34,,,,,,,,,,,,,68.75871869999901,0.008718699999008095,None,101.49545080000098,101.49545080000098,101.49545080000098,101.49545080000098,101.49545080000098,101.49545080000098,101.49545080000098,101.49545080000098,101.49545080000098,101.49545080000098,,002,P017,2025_Mar_07_1558,ConditionRich,2021.2.3,59.93313859080324,
72.0,72.75,10,0.75,Stimuli/P017/sun_bayxprasninnrnle.jpg,0,0.0,0.0,0,35,35,35,,,,,,,,,,,,,72.01206819999788,0.012068199997884221,None,104.74831719999929,104.74831719999929,104.74831719999929,104.74831719999929,104.74831719999929,104.74831719999929,104.74831719999929,104.74831719999929,104.74831719999929,104.74831719999929,,002,P017,2025_Mar_07_1558,ConditionRich,2021.2.3,59.93313859080324,
72.75,76.0,41,0.0,Stimuli/Blank.png,0,0.0,0.0,0,36,36,36,,,,,,,,,,,,,72.76278539999839,0.012785399998392677,None,105.49897649999912,105.49897649999912,105.49897649999912,105.49897649999912,105.49897649999912,105.49897649999912,105.49897649999912,105.49897649999912,105.49897649999912,105.49897649999912,,002,P017,2025_Mar_07_1558,ConditionRich,2021.2.3,59.93313859080324,
76.0,76.75,11,0.75,Stimuli/P017/sun_bdzxsadvniuolmio.jpg,0,0.0,0.0,0,37,37,37,,,,,,,,,,,,,76.01646689999689,0.01646689999688533,None,108.76852700000018,108.76852700000018,108.76852700000018,108.76852700000018,108.76852700000018,108.76852700000018,108.76852700000018,108.76852700000018,108.76852700000018,108.76852700000018,,002,P017,2025_Mar_07_1558,ConditionRich,2021.2.3,59.93313859080324,
76.75,80.0,41,0.0,Stimuli/Blank.png,1,0.25,1.0,0,38,38,38,,,,,,,,,,,,,76.76763989999745,0.017639899997448083,1,109.51920729999983,109.51920729999983,109.51920729999983,109.51920729999983,109.51920729999983,109.51920729999983,109.75273329999982,110.50339130000066,109.51920729999983,109.51920729999983,0.6117678000009619,002,P017,2025_Mar_07_1558,ConditionRich,2021.2.3,59.93313859080324,
80.0,80.75,7,0.75,Stimuli/P017/sun_auadhqmfjsjtjcue.jpg,0,0.0,0.0,0,39,39,39,,,,,,,,,,,,,80.01992149999933,0.019921499999327352,None,112.7553955000003,112.7553955000003,112.7553955000003,112.7553955000003,112.7553955000003,112.7553955000003,112.7553955000003,112.7553955000003,112.7553955000003,112.7553955000003,,002,P017,2025_Mar_07_1558,ConditionRich,2021.2.3,59.93313859080324,
80.75,84.0,41,0.0,Stimuli/Blank.png,0,0.0,0.0,0,40,40,40,,,,,,,,,,,,,80.75245549999818,0.0024554999981774017,None,113.48936999999933,113.48936999999933,113.48936999999933,113.48936999999933,113.48936999999933,113.48936999999933,113.48936999999933,113.48936999999933,113.48936999999933,113.48936999999933,,002,P017,2025_Mar_07_1558,ConditionRich,2021.2.3,59.93313859080324,
84.0,100.0,0,0.0,Stimuli/Blank.png,1,3.0,3.75,0,41,41,41,,,,,,,,,,,,,84.00591469999927,0.005914699999266304,1,116.74236530000053,116.74236530000053,116.74236530000053,116.74236530000053,116.74236530000053,116.74236530000053,119.72820839999986,120.4788797000001,116.74236530000053,116.74236530000053,3.6274549000008847,002,P017,2025_Mar_07_1558,ConditionRich,2021.2.3,59.93313859080324,
100.0,100.75,6,0.75,Stimuli/P017/sun_atuyvunnykjurjgx.jpg,1,0.0,0.75,0,42,42,42,,,,,,,,,,,,,100.00299689999883,0.002996899998834124,1,132.73972660000072,132.73972660000072,132.73972660000072,132.73972660000072,132.73972660000072,132.73972660000072,132.73972660000072,133.47373390000212,132.73972660000072,132.73972660000072,0.41204730000026757,002,P017,2025_Mar_07_1558,ConditionRich,2021.2.3,59.93313859080324,
100.75,104.0,41,0.0,Stimuli/Blank.png,0,0.0,0.0,0,43,43,43,,,,,,,,,,,,,100.75465249999979,0.004652499999792781,None,133.49039540000012,133.49039540000012,133.49039540000012,133.49039540000012,133.49039540000012,133.49039540000012,133.49039540000012,133.49039540000012,133.49039540000012,133.49039540000012,,002,P017,2025_Mar_07_1558,ConditionRich,2021.2.3,59.93313859080324,
104.0,104.75,13,0.75,Stimuli/P017/sun_bizqwyomkqigheyx.jpg,0,0.0,0.0,0,44,44,44,,,,,,,,,,,,,104.00757769999836,0.007577699998364551,None,136.759951,136.759951,136.759951,136.759951,136.759951,136.759951,136.759951,136.759951,136.759951,136.759951,,002,P017,2025_Mar_07_1558,ConditionRich,2021.2.3,59.93313859080324,
104.75,108.0,41,0.0,Stimuli/Blank.png,0,0.0,0.0,0,45,45,45,,,,,,,,,,,,,104.77419989999908,0.02419989999907557,None,137.5105939999994,137.5105939999994,137.5105939999994,137.5105939999994,137.5105939999994,137.5105939999994,137.5105939999994,137.5105939999994,137.5105939999994,137.5105939999994,,002,P017,2025_Mar_07_1558,ConditionRich,2021.2.3,59.93313859080324,
108.0,108.75,34,0.75,Stimuli/P017/things_llama_09s.jpg,0,0.0,0.0,0,46,46,46,,,,,,,,,,,,,108.01038609999887,0.010386099998868303,None,140.74678779999886,140.74678779999886,140.74678779999886,140.74678779999886,140.74678779999886,140.74678779999886,140.74678779999886,140.74678779999886,140.74678779999886,140.74678779999886,,002,P017,2025_Mar_07_1558,ConditionRich,2021.2.3,59.93313859080324,
108.75,112.0,41,0.0,Stimuli/Blank.png,0,0.0,0.0,0,47,47,47,,,,,,,,,,,,,108.76273879999644,0.01273879999644123,None,141.5141423999994,141.5141423999994,141.5141423999994,141.5141423999994,141.5141423999994,141.5141423999994,141.5141423999994,141.5141423999994,141.5141423999994,141.5141423999994,,002,P017,2025_Mar_07_1558,ConditionRich,2021.2.3,59.93313859080324,
112.0,112.75,33,0.75,Stimuli/P017/things_lamb_09s.jpg,0,0.0,0.0,0,48,48,48,,,,,,,,,,,,,112.03211539999756,0.032115399997564964,None,144.7836986000002,144.7836986000002,144.7836986000002,144.7836986000002,144.7836986000002,144.7836986000002,144.7836986000002,144.7836986000002,144.7836986000002,144.7836986000002,,002,P017,2025_Mar_07_1558,ConditionRich,2021.2.3,59.93313859080324,
112.75,116.0,41,0.0,Stimuli/Blank.png,0,0.0,0.0,0,49,49,49,,,,,,,,,,,,,112.76423949999662,0.014239499996619998,None,145.5010743999992,145.5010743999992,145.5010743999992,145.5010743999992,145.5010743999992,145.5010743999992,145.5010743999992,145.5010743999992,145.5010743999992,145.5010743999992,,002,P017,2025_Mar_07_1558,ConditionRich,2021.2.3,59.93313859080324,
116.0,116.75,22,0.75,Stimuli/P017/things_boat_09s.jpg,0,0.0,0.0,0,50,50,50,,,,,,,,,,,,,116.00326139999743,0.003261399997427361,None,148.75387090000004,148.75387090000004,148.75387090000004,148.75387090000004,148.75387090000004,148.75387090000004,148.75387090000004,148.75387090000004,148.75387090000004,148.75387090000004,,002,P017,2025_Mar_07_1558,ConditionRich,2021.2.3,59.93313859080324,
116.75,120.0,41,0.0,Stimuli/Blank.png,1,1.25,2.0,0,51,51,51,,,,,,,,,,,,,116.76757739999812,0.01757739999811747,1,149.50452900000164,149.50452900000164,149.50452900000164,149.50452900000164,149.50452900000164,149.50452900000164,150.73893450000105,151.48965640000097,149.50452900000164,149.50452900000164,1.7352759999994305,002,P017,2025_Mar_07_1558,ConditionRich,2021.2.3,59.93313859080324,
120.0,120.75,2,0.75,Stimuli/P017/sun_acliytrpktltxwsx.jpg,0,0.0,0.0,0,52,52,52,,,,,,,,,,,,,120.00428889999966,0.004288899999664864,None,152.74074440000186,152.74074440000186,152.74074440000186,152.74074440000186,152.74074440000186,152.74074440000186,152.74074440000186,152.74074440000186,152.74074440000186,152.74074440000186,,002,P017,2025_Mar_07_1558,ConditionRich,2021.2.3,59.93313859080324,
120.75,124.0,41,0.0,Stimuli/Blank.png,1,0.25,1.0,0,53,53,53,,,,,,,,,,,,,120.75766559999829,0.007665599998290418,1,153.50807690000147,153.50807690000147,153.50807690000147,153.50807690000147,153.50807690000147,153.50807690000147,153.74167769999985,154.4923060000001,153.50807690000147,153.50807690000147,0.6269065999986196,002,P017,2025_Mar_07_1558,ConditionRich,2021.2.3,59.93313859080324,
124.0,124.75,36,0.75,Stimuli/P017/things_nest_09s.jpg,0,0.0,0.0,0,54,54,54,,,,,,,,,,,,,124.02710879999722,0.027108799997222377,None,156.77762450000228,156.77762450000228,156.77762450000228,156.77762450000228,156.77762450000228,156.77762450000228,156.77762450000228,156.77762450000228,156.77762450000228,156.77762450000228,,002,P017,2025_Mar_07_1558,ConditionRich,2021.2.3,59.93313859080324,
124.75,128.0,41,0.0,Stimuli/Blank.png,0,0.0,0.0,0,55,55,55,,,,,,,,,,,,,124.77755809999871,0.02755809999871417,None,157.52829589999965,157.52829589999965,157.52829589999965,157.52829589999965,157.52829589999965,157.52829589999965,157.52829589999965,157.52829589999965,157.52829589999965,157.52829589999965,,002,P017,2025_Mar_07_1558,ConditionRich,2021.2.3,59.93313859080324,
128.0,128.75,26,0.75,Stimuli/P017/things_chandelier_09s.jpg,0,0.0,0.0,0,56,56,56,,,,,,,,,,,,,128.02856139999858,0.028561399998579873,None,160.7811924000016,160.7811924000016,160.7811924000016,160.7811924000016,160.7811924000016,160.7811924000016,160.7811924000016,160.7811924000016,160.7811924000016,160.7811924000016,,002,P017,2025_Mar_07_1558,ConditionRich,2021.2.3,59.93313859080324,
128.75,132.0,41,0.0,Stimuli/Blank.png,0,0.0,0.0,0,57,57,57,,,,,,,,,,,,,128.7793606999985,0.02936069999850588,None,161.51514329999918,161.51514329999918,161.51514329999918,161.51514329999918,161.51514329999918,161.51514329999918,161.51514329999918,161.51514329999918,161.51514329999918,161.51514329999918,,002,P017,2025_Mar_07_1558,ConditionRich,2021.2.3,59.93313859080324,
132.0,132.75,37,0.75,Stimuli/P017/things_plastic_film_09s.jpg,0,0.0,0.0,0,58,58,58,,,,,,,,,,,,,132.01546049999888,0.01546049999888055,None,164.7680220000002,164.7680220000002,164.7680220000002,164.7680220000002,164.7680220000002,164.7680220000002,164.7680220000002,164.7680220000002,164.7680220000002,164.7680220000002,,002,P017,2025_Mar_07_1558,ConditionRich,2021.2.3,59.93313859080324,
132.75,136.0,41,0.0,Stimuli/Blank.png,0,0.0,0.0,0,59,59,59,,,,,,,,,,,,,132.76759649999804,0.017596499998035142,None,165.51885290000064,165.51885290000064,165.51885290000064,165.51885290000064,165.51885290000064,165.51885290000064,165.51885290000064,165.51885290000064,165.51885290000064,165.51885290000064,,002,P017,2025_Mar_07_1558,ConditionRich,2021.2.3,59.93313859080324,
136.0,136.75,17,0.75,Stimuli/P017/sun_brhndfjxyigqgiwl.jpg,0,0.0,0.0,0,60,60,60,,,,,,,,,,,,,136.0180694999981,0.018069499998091487,None,168.7548792000016,168.7548792000016,168.7548792000016,168.7548792000016,168.7548792000016,168.7548792000016,168.7548792000016,168.7548792000016,168.7548792000016,168.7548792000016,,002,P017,2025_Mar_07_1558,ConditionRich,2021.2.3,59.93313859080324,
136.75,140.0,41,0.0,Stimuli/Blank.png,0,0.0,0.0,0,61,61,61,,,,,,,,,,,,,136.75245919999725,0.0024591999972471967,None,169.4888658000018,169.4888658000018,169.4888658000018,169.4888658000018,169.4888658000018,169.4888658000018,169.4888658000018,169.4888658000018,169.4888658000018,169.4888658000018,,002,P017,2025_Mar_07_1558,ConditionRich,2021.2.3,59.93313859080324,
140.0,140.75,20,0.75,Stimuli/P017/sun_buukivvfbfhosrng.jpg,0,0.0,0.0,0,62,62,62,,,,,,,,,,,,,140.00713689999975,0.007136899999750312,None,172.75841990000117,172.75841990000117,172.75841990000117,172.75841990000117,172.75841990000117,172.75841990000117,172.75841990000117,172.75841990000117,172.75841990000117,172.75841990000117,,002,P017,2025_Mar_07_1558,ConditionRich,2021.2.3,59.93313859080324,
140.75,144.0,41,0.0,Stimuli/Blank.png,1,0.25,1.0,0,63,63,63,,,,,,,,,,,,,140.7738036999981,0.023803699998097727,1,173.50909659999888,173.50909659999888,173.50909659999888,173.50909659999888,173.50909659999888,173.50909659999888,173.74258420000115,174.49328959999912,173.50909659999888,173.50909659999888,0.6366691999974137,002,P017,2025_Mar_07_1558,ConditionRich,2021.2.3,59.93313859080324,
144.0,144.75,3,0.75,Stimuli/P017/sun_acymmczhyuiimeub.jpg,0,0.0,0.0,0,64,64,64,,,,,,,,,,,,,144.00919559999966,0.009195599999657134,None,176.76192599999922,176.76192599999922,176.76192599999922,176.76192599999922,176.76192599999922,176.76192599999922,176.76192599999922,176.76192599999922,176.76192599999922,176.76192599999922,,002,P017,2025_Mar_07_1558,ConditionRich,2021.2.3,59.93313859080324,
144.75,148.0,41,0.0,Stimuli/Blank.png,0,0.0,0.0,0,65,65,65,,,,,,,,,,,,,144.7771182999968,0.027118299996800488,None,177.51262829999905,177.51262829999905,177.51262829999905,177.51262829999905,177.51262829999905,177.51262829999905,177.51262829999905,177.51262829999905,177.51262829999905,177.51262829999905,,002,P017,2025_Mar_07_1558,ConditionRich,2021.2.3,59.93313859080324,
148.0,148.75,27,0.75,Stimuli/P017/things_coffin_09s.jpg,0,0.0,0.0,0,66,66,66,,,,,,,,,,,,,148.0131975999975,0.013197599997511134,None,180.76549850000083,180.76549850000083,180.76549850000083,180.76549850000083,180.76549850000083,180.76549850000083,180.76549850000083,180.76549850000083,180.76549850000083,180.76549850000083,,002,P017,2025_Mar_07_1558,ConditionRich,2021.2.3,59.93313859080324,
148.75,152.0,41,0.0,Stimuli/Blank.png,0,0.0,0.0,0,67,67,67,,,,,,,,,,,,,148.78215709999859,0.03215709999858518,None,181.53285550000146,181.53285550000146,181.53285550000146,181.53285550000146,181.53285550000146,181.53285550000146,181.53285550000146,181.53285550000146,181.53285550000146,181.53285550000146,,002,P017,2025_Mar_07_1558,ConditionRich,2021.2.3,59.93313859080324,
152.0,152.75,1,0.75,Stimuli/P017/sun_aawmwfqqbzauhqkb.jpg,0,0.0,0.0,0,68,68,68,,,,,,,,,,,,,152.0175341999966,0.01753419999658945,None,184.76904529999956,184.76904529999956,184.76904529999956,184.76904529999956,184.76904529999956,184.76904529999956,184.76904529999956,184.76904529999956,184.76904529999956,184.76904529999956,,002,P017,2025_Mar_07_1558,ConditionRich,2021.2.3,59.93313859080324,
152.75,156.0,41,0.0,Stimuli/Blank.png,0,0.0,0.0,0,69,69,69,,,,,,,,,,,,,152.76743579999675,0.017435799996746937,None,185.50301279999985,185.50301279999985,185.50301279999985,185.50301279999985,185.50301279999985,185.50301279999985,185.50301279999985,185.50301279999985,185.50301279999985,185.50301279999985,,002,P017,2025_Mar_07_1558,ConditionRich,2021.2.3,59.93313859080324,
156.0,156.75,19,0.75,Stimuli/P017/sun_brrwzaypucosdcgt.jpg,1,0.0,0.75,0,70,70,70,,,,,,,,,,,,,156.00246519999928,0.0024651999992784113,None,188.73924660000193,188.73924660000193,188.73924660000193,188.73924660000193,188.73924660000193,188.73924660000193,188.73924660000193,189.47318520000044,188.73924660000193,188.73924660000193,,002,P017,2025_Mar_07_1558,ConditionRich,2021.2.3,59.93313859080324,
156.75,160.0,41,0.0,Stimuli/Blank.png,0,0.0,0.0,0,71,71,71,,,,,,,,,,,,,156.75300699999934,0.003006999999342952,1,189.48987430000125,189.48987430000125,189.48987430000125,189.48987430000125,189.48987430000125,189.48987430000125,189.48987430000125,189.48987430000125,189.48987430000125,189.48987430000125,0.4359882999997353,002,P017,2025_Mar_07_1558,ConditionRich,2021.2.3,59.93313859080324,
160.0,160.75,15,0.75,Stimuli/P017/sun_bobznlnnzwznersx.jpg,0,0.0,0.0,0,72,72,72,,,,,,,,,,,,,160.00717179999992,0.007171799999923678,None,192.759391399999,192.759391399999,192.759391399999,192.759391399999,192.759391399999,192.759391399999,192.759391399999,192.759391399999,192.759391399999,192.759391399999,,002,P017,2025_Mar_07_1558,ConditionRich,2021.2.3,59.93313859080324,
160.75,164.0,41,0.0,Stimuli/Blank.png,0,0.0,0.0,0,73,73,73,,,,,,,,,,,,,160.7732354999971,0.023235499997099396,None,193.51008659999934,193.51008659999934,193.51008659999934,193.51008659999934,193.51008659999934,193.51008659999934,193.51008659999934,193.51008659999934,193.51008659999934,193.51008659999934,,002,P017,2025_Mar_07_1558,ConditionRich,2021.2.3,59.93313859080324,
164.0,164.75,32,0.75,Stimuli/P017/things_horse_09s.jpg,0,0.0,0.0,0,74,74,74,,,,,,,,,,,,,164.01236699999936,0.012366999999358086,None,196.7629721000012,196.7629721000012,196.7629721000012,196.7629721000012,196.7629721000012,196.7629721000012,196.7629721000012,196.7629721000012,196.7629721000012,196.7629721000012,,002,P017,2025_Mar_07_1558,ConditionRich,2021.2.3,59.93313859080324,
164.75,168.0,41,0.0,Stimuli/Blank.png,0,0.0,0.0,0,75,75,75,,,,,,,,,,,,,164.77709889999824,0.027098899998236448,None,197.51362879999942,197.51362879999942,197.51362879999942,197.51362879999942,197.51362879999942,197.51362879999942,197.51362879999942,197.51362879999942,197.51362879999942,197.51362879999942,,002,P017,2025_Mar_07_1558,ConditionRich,2021.2.3,59.93313859080324,
168.0,168.75,4,0.75,Stimuli/P017/sun_aibvvqlmlsjnrgdj.jpg,0,0.0,0.0,0,76,76,76,,,,,,,,,,,,,168.0140130999971,0.014013099997100653,None,200.74982230000023,200.74982230000023,200.74982230000023,200.74982230000023,200.74982230000023,200.74982230000023,200.74982230000023,200.74982230000023,200.74982230000023,200.74982230000023,,002,P017,2025_Mar_07_1558,ConditionRich,2021.2.3,59.93313859080324,
168.75,172.0,41,0.0,Stimuli/Blank.png,0,0.0,0.0,0,77,77,77,,,,,,,,,,,,,168.76429899999857,0.014298999998572981,None,201.50048810000226,201.50048810000226,201.50048810000226,201.50048810000226,201.50048810000226,201.50048810000226,201.50048810000226,201.50048810000226,201.50048810000226,201.50048810000226,,002,P017,2025_Mar_07_1558,ConditionRich,2021.2.3,59.93313859080324,
172.0,172.75,40,0.75,Stimuli/P017/things_woman_09s.jpg,0,0.0,0.0,0,78,78,78,,,,,,,,,,,,,172.00235979999707,0.0023597999970661476,None,204.75336460000108,204.75336460000108,204.75336460000108,204.75336460000108,204.75336460000108,204.75336460000108,204.75336460000108,204.75336460000108,204.75336460000108,204.75336460000108,,002,P017,2025_Mar_07_1558,ConditionRich,2021.2.3,59.93313859080324,
172.75,176.0,41,0.0,Stimuli/Blank.png,0,0.0,0.0,0,79,79,79,,,,,,,,,,,,,172.76796299999842,0.017962999998417217,None,205.5207302000017,205.5207302000017,205.5207302000017,205.5207302000017,205.5207302000017,205.5207302000017,205.5207302000017,205.5207302000017,205.5207302000017,205.5207302000017,,002,P017,2025_Mar_07_1558,ConditionRich,2021.2.3,59.93313859080324,
176.0,176.75,38,0.75,Stimuli/P017/things_pony_09s.jpg,0,0.0,0.0,0,80,80,80,,,,,,,,,,,,,176.02228589999868,0.02228589999867836,None,208.77358860000095,208.77358860000095,208.77358860000095,208.77358860000095,208.77358860000095,208.77358860000095,208.77358860000095,208.77358860000095,208.77358860000095,208.77358860000095,,002,P017,2025_Mar_07_1558,ConditionRich,2021.2.3,59.93313859080324,
176.75,180.0,41,0.0,Stimuli/Blank.png,0,0.0,0.0,0,81,81,81,,,,,,,,,,,,,176.77225389999876,0.022253899998759152,None,209.52427610000086,209.52427610000086,209.52427610000086,209.52427610000086,209.52427610000086,209.52427610000086,209.52427610000086,209.52427610000086,209.52427610000086,209.52427610000086,,002,P017,2025_Mar_07_1558,ConditionRich,2021.2.3,59.93313859080324,
180.0,196.0,0,0.0,Stimuli/Blank.png,1,5.0,5.75,0,82,82,82,,,,,,,,,,,,,180.02427889999672,0.024278899996716063,1,212.76044059999913,212.76044059999913,212.76044059999913,212.76044059999913,212.76044059999913,212.76044059999913,217.7481465000019,218.49881110000206,212.76044059999913,212.76044059999913,5.3023241000009875,002,P017,2025_Mar_07_1558,ConditionRich,2021.2.3,59.93313859080324,
196.0,196.75,24,0.75,Stimuli/P017/things_breadbox_09s.jpg,0,0.0,0.0,0,83,83,83,,,,,,,,,,,,,196.00442069999917,0.004420699999172939,None,228.75791620000018,228.75791620000018,228.75791620000018,228.75791620000018,228.75791620000018,228.75791620000018,228.75791620000018,228.75791620000018,228.75791620000018,228.75791620000018,,002,P017,2025_Mar_07_1558,ConditionRich,2021.2.3,59.93313859080324,
196.75,200.0,41,0.0,Stimuli/Blank.png,0,0.0,0.0,0,84,84,84,,,,,,,,,,,,,196.77257109999846,0.02257109999845852,None,229.5085758000023,229.5085758000023,229.5085758000023,229.5085758000023,229.5085758000023,229.5085758000023,229.5085758000023,229.5085758000023,229.5085758000023,229.5085758000023,,002,P017,2025_Mar_07_1558,ConditionRich,2021.2.3,59.93313859080324,
200.0,200.75,28,0.75,Stimuli/P017/things_collar_09s.jpg,0,0.0,0.0,0,85,85,85,,,,,,,,,,,,,200.00904699999955,0.009046999999554828,None,232.7614672999989,232.7614672999989,232.7614672999989,232.7614672999989,232.7614672999989,232.7614672999989,232.7614672999989,232.7614672999989,232.7614672999989,232.7614672999989,,002,P017,2025_Mar_07_1558,ConditionRich,2021.2.3,59.93313859080324,
200.75,204.0,41,0.0,Stimuli/Blank.png,0,0.0,0.0,0,86,86,86,,,,,,,,,,,,,200.777445599997,0.027445599997008685,None,233.52881400000115,233.52881400000115,233.52881400000115,233.52881400000115,233.52881400000115,233.52881400000115,233.52881400000115,233.52881400000115,233.52881400000115,233.52881400000115,,002,P017,2025_Mar_07_1558,ConditionRich,2021.2.3,59.93313859080324,
204.0,204.75,6,0.75,Stimuli/P017/sun_atuyvunnykjurjgx.jpg,0,0.0,0.0,0,87,87,87,,,,,,,,,,,,,204.02913219999755,0.029132199997548014,None,236.76498319999882,236.76498319999882,236.76498319999882,236.76498319999882,236.76498319999882,236.76498319999882,236.76498319999882,236.76498319999882,236.76498319999882,236.76498319999882,,002,P017,2025_Mar_07_1558,ConditionRich,2021.2.3,59.93313859080324,
204.75,208.0,41,0.0,Stimuli/Blank.png,1,1.25,2.0,0,88,88,88,,,,,,,,,,,,,204.76259489999939,0.012594899999385234,1,237.49897200000123,237.49897200000123,237.49897200000123,237.49897200000123,237.49897200000123,237.49897200000123,238.73338290000174,239.48409240000183,237.49897200000123,237.49897200000123,1.6519556000021112,002,P017,2025_Mar_07_1558,ConditionRich,2021.2.3,59.93313859080324,
208.0,208.75,11,0.75,Stimuli/P017/sun_bdzxsadvniuolmio.jpg,0,0.0,0.0,0,89,89,89,,,,,,,,,,,,,208.0173283999975,0.01732839999749558,None,240.7686231000007,240.7686231000007,240.7686231000007,240.7686231000007,240.7686231000007,240.7686231000007,240.7686231000007,240.7686231000007,240.7686231000007,240.7686231000007,,002,P017,2025_Mar_07_1558,ConditionRich,2021.2.3,59.93313859080324,
208.75,212.0,41,0.0,Stimuli/Blank.png,0,0.0,0.0,0,90,90,90,,,,,,,,,,,,,208.76832789999753,0.01832789999753004,None,241.51919790000102,241.51919790000102,241.51919790000102,241.51919790000102,241.51919790000102,241.51919790000102,241.51919790000102,241.51919790000102,241.51919790000102,241.51919790000102,,002,P017,2025_Mar_07_1558,ConditionRich,2021.2.3,59.93313859080324,
212.0,212.75,1,0.75,Stimuli/P017/sun_aawmwfqqbzauhqkb.jpg,0,0.0,0.0,0,91,91,91,,,,,,,,,,,,,212.01894449999963,0.01894449999963399,None,244.75538430000233,244.75538430000233,244.75538430000233,244.75538430000233,244.75538430000233,244.75538430000233,244.75538430000233,244.75538430000233,244.75538430000233,244.75538430000233,,002,P017,2025_Mar_07_1558,ConditionRich,2021.2.3,59.93313859080324,
212.75,216.0,41,0.0,Stimuli/Blank.png,0,0.0,0.0,0,92,92,92,,,,,,,,,,,,,212.7527725,0.002772499999991851,None,245.4893673000006,245.4893673000006,245.4893673000006,245.4893673000006,245.4893673000006,245.4893673000006,245.4893673000006,245.4893673000006,245.4893673000006,245.4893673000006,,002,P017,2025_Mar_07_1558,ConditionRich,2021.2.3,59.93313859080324,
216.0,216.75,10,0.75,Stimuli/P017/sun_bayxprasninnrnle.jpg,0,0.0,0.0,0,93,93,93,,,,,,,,,,,,,216.00752139999895,0.0075213999989500735,None,248.7588848000014,248.7588848000014,248.7588848000014,248.7588848000014,248.7588848000014,248.7588848000014,248.7588848000014,248.7588848000014,248.7588848000014,248.7588848000014,,002,P017,2025_Mar_07_1558,ConditionRich,2021.2.3,59.93313859080324,
216.75,220.0,41,0.0,Stimuli/Blank.png,0,0.0,0.0,0,94,94,94,,,,,,,,,,,,,216.77327119999973,0.023271199999726377,None,249.50960530000157,249.50960530000157,249.50960530000157,249.50960530000157,249.50960530000157,249.50960530000157,249.50960530000157,249.50960530000157,249.50960530000157,249.50960530000157,,002,P017,2025_Mar_07_1558,ConditionRich,2021.2.3,59.93313859080324,
220.0,220.75,27,0.75,Stimuli/P017/things_coffin_09s.jpg,0,0.0,0.0,0,95,95,95,,,,,,,,,,,,,220.00898079999752,0.008980799997516442,None,252.7457667000017,252.7457667000017,252.7457667000017,252.7457667000017,252.7457667000017,252.7457667000017,252.7457667000017,252.7457667000017,252.7457667000017,252.7457667000017,,002,P017,2025_Mar_07_1558,ConditionRich,2021.2.3,59.93313859080324,
220.75,224.0,41,0.0,Stimuli/Blank.png,0,0.0,0.0,0,96,96,96,,,,,,,,,,,,,220.75955169999725,0.009551699997246033,None,253.49644049999915,253.49644049999915,253.49644049999915,253.49644049999915,253.49644049999915,253.49644049999915,253.49644049999915,253.49644049999915,253.49644049999915,253.49644049999915,,002,P017,2025_Mar_07_1558,ConditionRich,2021.2.3,59.93313859080324,
224.0,224.75,32,0.75,Stimuli/P017/things_horse_09s.jpg,0,0.0,0.0,0,97,97,97,,,,,,,,,,,,,224.01263069999914,0.012630699999135686,None,256.7492931000015,256.7492931000015,256.7492931000015,256.7492931000015,256.7492931000015,256.7492931000015,256.7492931000015,256.7492931000015,256.7492931000015,256.7492931000015,,002,P017,2025_Mar_07_1558,ConditionRich,2021.2.3,59.93313859080324,
224.75,228.0,41,0.0,Stimuli/Blank.png,0,0.0,0.0,0,98,98,98,,,,,,,,,,,,,224.76319699999658,0.013196999996580416,None,257.4999554999995,257.4999554999995,257.4999554999995,257.4999554999995,257.4999554999995,257.4999554999995,257.4999554999995,257.4999554999995,257.4999554999995,257.4999554999995,,002,P017,2025_Mar_07_1558,ConditionRich,2021.2.3,59.93313859080324,
228.0,228.75,7,0.75,Stimuli/P017/sun_auadhqmfjsjtjcue.jpg,0,0.0,0.0,0,99,99,99,,,,,,,,,,,,,227.99925379999695,-0.0007462000030500349,None,260.7528147000012,260.7528147000012,260.7528147000012,260.7528147000012,260.7528147000012,260.7528147000012,260.7528147000012,260.7528147000012,260.7528147000012,260.7528147000012,,002,P017,2025_Mar_07_1558,ConditionRich,2021.2.3,59.93313859080324,
228.75,232.0,41,0.0,Stimuli/Blank.png,0,0.0,0.0,0,100,100,100,,,,,,,,,,,,,228.76690309999685,0.01690309999685269,None,261.50347859999965,261.50347859999965,261.50347859999965,261.50347859999965,261.50347859999965,261.50347859999965,261.50347859999965,261.50347859999965,261.50347859999965,261.50347859999965,,002,P017,2025_Mar_07_1558,ConditionRich,2021.2.3,59.93313859080324,
232.0,232.75,2,0.75,Stimuli/P017/sun_acliytrpktltxwsx.jpg,0,0.0,0.0,0,101,101,101,,,,,,,,,,,,,232.00300979999884,0.0030097999988356605,None,264.7397014999988,264.7397014999988,264.7397014999988,264.7397014999988,264.7397014999988,264.7397014999988,264.7397014999988,264.7397014999988,264.7397014999988,264.7397014999988,,002,P017,2025_Mar_07_1558,ConditionRich,2021.2.3,59.93313859080324,
232.75,236.0,41,0.0,Stimuli/Blank.png,0,0.0,0.0,0,102,102,102,,,,,,,,,,,,,232.7541984999989,0.0041984999988926575,None,265.4903703000018,265.4903703000018,265.4903703000018,265.4903703000018,265.4903703000018,265.4903703000018,265.4903703000018,265.4903703000018,265.4903703000018,265.4903703000018,,002,P017,2025_Mar_07_1558,ConditionRich,2021.2.3,59.93313859080324,
236.0,236.75,38,0.75,Stimuli/P017/things_pony_09s.jpg,0,0.0,0.0,0,103,103,103,,,,,,,,,,,,,236.00713109999924,0.0071310999992419966,None,268.7432412999988,268.7432412999988,268.7432412999988,268.7432412999988,268.7432412999988,268.7432412999988,268.7432412999988,268.7432412999988,268.7432412999988,268.7432412999988,,002,P017,2025_Mar_07_1558,ConditionRich,2021.2.3,59.93313859080324,
236.75,240.0,41,0.0,Stimuli/Blank.png,0,0.0,0.0,0,104,104,104,,,,,,,,,,,,,236.7571597999995,0.007159799999499228,None,269.49390739999944,269.49390739999944,269.49390739999944,269.49390739999944,269.49390739999944,269.49390739999944,269.49390739999944,269.49390739999944,269.49390739999944,269.49390739999944,,002,P017,2025_Mar_07_1558,ConditionRich,2021.2.3,59.93313859080324,
240.0,240.75,30,0.75,Stimuli/P017/things_girl_09s.jpg,0,0.0,0.0,0,105,105,105,,,,,,,,,,,,,240.0115401999974,0.011540199997398304,None,272.76346059999923,272.76346059999923,272.76346059999923,272.76346059999923,272.76346059999923,272.76346059999923,272.76346059999923,272.76346059999923,272.76346059999923,272.76346059999923,,002,P017,2025_Mar_07_1558,ConditionRich,2021.2.3,59.93313859080324,
240.75,244.0,41,0.0,Stimuli/Blank.png,0,0.0,0.0,0,106,106,106,,,,,,,,,,,,,240.77881309999793,0.028813099997933023,None,273.5308406000004,273.5308406000004,273.5308406000004,273.5308406000004,273.5308406000004,273.5308406000004,273.5308406000004,273.5308406000004,273.5308406000004,273.5308406000004,,002,P017,2025_Mar_07_1558,ConditionRich,2021.2.3,59.93313859080324,
244.0,244.75,36,0.75,Stimuli/P017/things_nest_09s.jpg,0,0.0,0.0,0,107,107,107,,,,,,,,,,,,,244.0337116999981,0.033711699998093536,None,276.7837072000002,276.7837072000002,276.7837072000002,276.7837072000002,276.7837072000002,276.7837072000002,276.7837072000002,276.7837072000002,276.7837072000002,276.7837072000002,,002,P017,2025_Mar_07_1558,ConditionRich,2021.2.3,59.93313859080324,
244.75,248.0,41,0.0,Stimuli/Blank.png,1,1.25,2.0,0,108,108,108,,,,,,,,,,,,,244.7646010999997,0.014601099999708822,1,277.5009852000003,277.5009852000003,277.5009852000003,277.5009852000003,277.5009852000003,277.5009852000003,278.73537600000054,279.48610700000063,277.5009852000003,277.5009852000003,1.7221271000016714,002,P017,2025_Mar_07_1558,ConditionRich,2021.2.3,59.93313859080324,
248.0,248.75,3,0.75,Stimuli/P017/sun_acymmczhyuiimeub.jpg,0,0.0,0.0,0,109,109,109,,,,,,,,,,,,,248.00296109999908,0.0029610999990836717,None,280.7538600000007,280.7538600000007,280.7538600000007,280.7538600000007,280.7538600000007,280.7538600000007,280.7538600000007,280.7538600000007,280.7538600000007,280.7538600000007,,002,P017,2025_Mar_07_1558,ConditionRich,2021.2.3,59.93313859080324,
248.75,252.0,41,0.0,Stimuli/Blank.png,0,0.0,0.0,0,110,110,110,,,,,,,,,,,,,248.7679786999979,0.017978699997911463,None,281.50452360000054,281.50452360000054,281.50452360000054,281.50452360000054,281.50452360000054,281.50452360000054,281.50452360000054,281.50452360000054,281.50452360000054,281.50452360000054,,002,P017,2025_Mar_07_1558,ConditionRich,2021.2.3,59.93313859080324,
252.0,252.75,16,0.75,Stimuli/P017/sun_brfwxjsnmauhmfzf.jpg,0,0.0,0.0,0,111,111,111,,,,,,,,,,,,,252.0040197999988,0.004019799998786766,None,284.7574252000013,284.7574252000013,284.7574252000013,284.7574252000013,284.7574252000013,284.7574252000013,284.7574252000013,284.7574252000013,284.7574252000013,284.7574252000013,,002,P017,2025_Mar_07_1558,ConditionRich,2021.2.3,59.93313859080324,
252.75,256.0,41,0.0,Stimuli/Blank.png,0,0.0,0.0,0,112,112,112,,,,,,,,,,,,,252.7711707999988,0.02117079999879934,None,285.5080510000007,285.5080510000007,285.5080510000007,285.5080510000007,285.5080510000007,285.5080510000007,285.5080510000007,285.5080510000007,285.5080510000007,285.5080510000007,,002,P017,2025_Mar_07_1558,ConditionRich,2021.2.3,59.93313859080324,
256.0,256.75,17,0.75,Stimuli/P017/sun_brhndfjxyigqgiwl.jpg,1,0.0,0.75,0,113,113,113,,,,,,,,,,,,,256.0076525999975,0.007652599997527432,1,288.7442553000001,288.7442553000001,288.7442553000001,288.7442553000001,288.7442553000001,288.7442553000001,288.7442553000001,289.4782286000009,288.7442553000001,288.7442553000001,0.6556775000026391,002,P017,2025_Mar_07_1558,ConditionRich,2021.2.3,59.93313859080324,
256.75,260.0,41,0.0,Stimuli/Blank.png,0,0.0,0.0,0,114,114,114,,,,,,,,,,,,,256.7580489999964,0.008048999996390194,None,289.494911400001,289.494911400001,289.494911400001,289.494911400001,289.494911400001,289.494911400001,289.494911400001,289.494911400001,289.494911400001,289.494911400001,,002,P017,2025_Mar_07_1558,ConditionRich,2021.2.3,59.93313859080324,
260.0,260.75,34,0.75,Stimuli/P017/things_llama_09s.jpg,1,0.0,0.75,0,115,115,115,,,,,,,,,,,,,260.0110019999993,0.011001999999280088,None,292.74779390000185,292.74779390000185,292.74779390000185,292.74779390000185,292.74779390000185,292.74779390000185,292.74779390000185,293.48183860000063,292.74779390000185,292.74779390000185,,002,P017,2025_Mar_07_1558,ConditionRich,2021.2.3,59.93313859080324,
260.75,264.0,41,0.0,Stimuli/Blank.png,0,0.0,0.0,0,116,116,116,,,,,,,,,,,,,260.7632550999988,0.013255099998787045,None,293.51516520000223,293.51516520000223,293.51516520000223,293.51516520000223,293.51516520000223,293.51516520000223,293.51516520000223,293.51516520000223,293.51516520000223,293.51516520000223,,002,P017,2025_Mar_07_1558,ConditionRich,2021.2.3,59.93313859080324,
264.0,264.75,8,0.75,Stimuli/P017/sun_axsmqyyvebrcuhkn.jpg,0,0.0,0.0,0,117,117,117,,,,,,,,,,,,,264.01714899999934,0.0171489999993355,None,296.7680192000007,296.7680192000007,296.7680192000007,296.7680192000007,296.7680192000007,296.7680192000007,296.7680192000007,296.7680192000007,296.7680192000007,296.7680192000007,,002,P017,2025_Mar_07_1558,ConditionRich,2021.2.3,59.93313859080324,
264.75,268.0,41,0.0,Stimuli/Blank.png,0,0.0,0.0,0,118,118,118,,,,,,,,,,,,,264.76740439999776,0.017404399997758446,None,297.5186341000008,297.5186341000008,297.5186341000008,297.5186341000008,297.5186341000008,297.5186341000008,297.5186341000008,297.5186341000008,297.5186341000008,297.5186341000008,,002,P017,2025_Mar_07_1558,ConditionRich,2021.2.3,59.93313859080324,
268.0,268.75,35,0.75,Stimuli/P017/things_lobster_09s.jpg,0,0.0,0.0,0,119,119,119,,,,,,,,,,,,,268.0184561999995,0.01845619999949122,None,300.7548659999993,300.7548659999993,300.7548659999993,300.7548659999993,300.7548659999993,300.7548659999993,300.7548659999993,300.7548659999993,300.7548659999993,300.7548659999993,,002,P017,2025_Mar_07_1558,ConditionRich,2021.2.3,59.93313859080324,
268.75,272.0,41,0.0,Stimuli/Blank.png,0,0.0,0.0,0,120,120,120,,,,,,,,,,,,,268.7527639,0.0027638999999908265,None,301.48885169999994,301.48885169999994,301.48885169999994,301.48885169999994,301.48885169999994,301.48885169999994,301.48885169999994,301.48885169999994,301.48885169999994,301.48885169999994,,002,P017,2025_Mar_07_1558,ConditionRich,2021.2.3,59.93313859080324,
272.0,272.75,5,0.75,Stimuli/P017/sun_apojgqgvdvsksdvo.jpg,0,0.0,0.0,0,121,121,121,,,,,,,,,,,,,272.00737359999766,0.007373599997663405,None,304.7584128999988,304.7584128999988,304.7584128999988,304.7584128999988,304.7584128999988,304.7584128999988,304.7584128999988,304.7584128999988,304.7584128999988,304.7584128999988,,002,P017,2025_Mar_07_1558,ConditionRich,2021.2.3,59.93313859080324,
272.75,276.0,41,0.0,Stimuli/Blank.png,0,0.0,0.0,0,122,122,122,,,,,,,,,,,,,272.77317409999887,0.02317409999886877,None,305.50908139999956,305.50908139999956,305.50908139999956,305.50908139999956,305.50908139999956,305.50908139999956,305.50908139999956,305.50908139999956,305.50908139999956,305.50908139999956,,002,P017,2025_Mar_07_1558,ConditionRich,2021.2.3,59.93313859080324,
276.0,292.0,0,0.0,Stimuli/Blank.png,1,11.0,11.75,0,123,123,123,,,,,,,,,,,,,276.00843819999864,0.008438199998636264,1,308.74527610000223,308.74527610000223,308.74527610000223,308.74527610000223,308.74527610000223,308.74527610000223,319.7216556000021,320.47232200000144,308.74527610000223,308.74527610000223,11.659726200003206,002,P017,2025_Mar_07_1558,ConditionRich,2021.2.3,59.93313859080324,
292.0,292.75,23,0.75,Stimuli/P017/things_boy_09s.jpg,0,0.0,0.0,0,124,124,124,,,,,,,,,,,,,292.00667539999995,0.00667539999994915,None,324.74272290000226,324.74272290000226,324.74272290000226,324.74272290000226,324.74272290000226,324.74272290000226,324.74272290000226,324.74272290000226,324.74272290000226,324.74272290000226,,002,P017,2025_Mar_07_1558,ConditionRich,2021.2.3,59.93313859080324,
292.75,296.0,41,0.0,Stimuli/Blank.png,0,0.0,0.0,0,125,125,125,,,,,,,,,,,,,292.7570734999972,0.007073499997204635,None,325.49339820000023,325.49339820000023,325.49339820000023,325.49339820000023,325.49339820000023,325.49339820000023,325.49339820000023,325.49339820000023,325.49339820000023,325.49339820000023,,002,P017,2025_Mar_07_1558,ConditionRich,2021.2.3,59.93313859080324,
296.0,296.75,15,0.75,Stimuli/P017/sun_bobznlnnzwznersx.jpg,0,0.0,0.0,0,126,126,126,,,,,,,,,,,,,296.0094132999984,0.009413299998414004,None,328.7462755000015,328.7462755000015,328.7462755000015,328.7462755000015,328.7462755000015,328.7462755000015,328.7462755000015,328.7462755000015,328.7462755000015,328.7462755000015,,002,P017,2025_Mar_07_1558,ConditionRich,2021.2.3,59.93313859080324,
296.75,300.0,41,0.0,Stimuli/Blank.png,0,0.0,0.0,0,127,127,127,,,,,,,,,,,,,296.7604537999978,0.010453799997776514,None,329.49691320000056,329.49691320000056,329.49691320000056,329.49691320000056,329.49691320000056,329.49691320000056,329.49691320000056,329.49691320000056,329.49691320000056,329.49691320000056,,002,P017,2025_Mar_07_1558,ConditionRich,2021.2.3,59.93313859080324,
300.0,300.75,29,0.75,Stimuli/P017/things_face_09s.jpg,0,0.0,0.0,0,128,128,128,,,,,,,,,,,,,300.01315469999827,0.01315469999826746,None,332.74981470000057,332.74981470000057,332.74981470000057,332.74981470000057,332.74981470000057,332.74981470000057,332.74981470000057,332.74981470000057,332.74981470000057,332.74981470000057,,002,P017,2025_Mar_07_1558,ConditionRich,2021.2.3,59.93313859080324,
300.75,304.0,41,0.0,Stimuli/Blank.png,0,0.0,0.0,0,129,129,129,,,,,,,,,,,,,300.7637300999995,0.013730099999520462,None,333.5004755000009,333.5004755000009,333.5004755000009,333.5004755000009,333.5004755000009,333.5004755000009,333.5004755000009,333.5004755000009,333.5004755000009,333.5004755000009,,002,P017,2025_Mar_07_1558,ConditionRich,2021.2.3,59.93313859080324,
304.0,304.75,22,0.75,Stimuli/P017/things_boat_09s.jpg,0,0.0,0.0,0,130,130,130,,,,,,,,,,,,,304.0007939999996,0.0007939999995869584,None,336.7533633000021,336.7533633000021,336.7533633000021,336.7533633000021,336.7533633000021,336.7533633000021,336.7533633000021,336.7533633000021,336.7533633000021,336.7533633000021,,002,P017,2025_Mar_07_1558,ConditionRich,2021.2.3,59.93313859080324,
304.75,308.0,41,0.0,Stimuli/Blank.png,0,0.0,0.0,0,131,131,131,,,,,,,,,,,,,304.7671567999969,0.01715679999688291,None,337.5040818000016,337.5040818000016,337.5040818000016,337.5040818000016,337.5040818000016,337.5040818000016,337.5040818000016,337.5040818000016,337.5040818000016,337.5040818000016,,002,P017,2025_Mar_07_1558,ConditionRich,2021.2.3,59.93313859080324,
308.0,308.75,33,0.75,Stimuli/P017/things_lamb_09s.jpg,0,0.0,0.0,0,132,132,132,,,,,,,,,,,,,308.00356759999704,0.0035675999970408157,None,340.74021300000095,340.74021300000095,340.74021300000095,340.74021300000095,340.74021300000095,340.74021300000095,340.74021300000095,340.74021300000095,340.74021300000095,340.74021300000095,,002,P017,2025_Mar_07_1558,ConditionRich,2021.2.3,59.93313859080324,
308.75,312.0,41,0.0,Stimuli/Blank.png,1,1.25,2.0,0,133,133,133,,,,,,,,,,,,,308.75414779999846,0.004147799998463597,1,341.4908705000016,341.4908705000016,341.4908705000016,341.4908705000016,341.4908705000016,341.4908705000016,342.7253497999991,343.47601510000095,341.4908705000016,341.4908705000016,1.6362869000004139,002,P017,2025_Mar_07_1558,ConditionRich,2021.2.3,59.93313859080324,
312.0,312.75,39,0.75,Stimuli/P017/things_veil_09s.jpg,0,0.0,0.0,0,134,134,134,,,,,,,,,,,,,312.00809579999986,0.008095799999864539,None,344.74374869999883,344.74374869999883,344.74374869999883,344.74374869999883,344.74374869999883,344.74374869999883,344.74374869999883,344.74374869999883,344.74374869999883,344.74374869999883,,002,P017,2025_Mar_07_1558,ConditionRich,2021.2.3,59.93313859080324,
312.75,316.0,41,0.0,Stimuli/Blank.png,0,0.0,0.0,0,135,135,135,,,,,,,,,,,,,312.7575007999985,0.007500799998524599,None,345.4944085999996,345.4944085999996,345.4944085999996,345.4944085999996,345.4944085999996,345.4944085999996,345.4944085999996,345.4944085999996,345.4944085999996,345.4944085999996,,002,P017,2025_Mar_07_1558,ConditionRich,2021.2.3,59.93313859080324,
316.0,316.75,18,0.75,Stimuli/P017/sun_brrvvswweljrvnlq.jpg,0,0.0,0.0,0,136,136,136,,,,,,,,,,,,,316.01353919999747,0.013539199997467222,None,348.76396899999963,348.76396899999963,348.76396899999963,348.76396899999963,348.76396899999963,348.76396899999963,348.76396899999963,348.76396899999963,348.76396899999963,348.76396899999963,,002,P017,2025_Mar_07_1558,ConditionRich,2021.2.3,59.93313859080324,
316.75,320.0,41,0.0,Stimuli/Blank.png,0,0.0,0.0,0,137,137,137,,,,,,,,,,,,,316.7780055999974,0.02800559999741381,None,349.5146292999998,349.5146292999998,349.5146292999998,349.5146292999998,349.5146292999998,349.5146292999998,349.5146292999998,349.5146292999998,349.5146292999998,349.5146292999998,,002,P017,2025_Mar_07_1558,ConditionRich,2021.2.3,59.93313859080324,
320.0,320.75,40,0.75,Stimuli/P017/things_woman_09s.jpg,0,0.0,0.0,0,138,138,138,,,,,,,,,,,,,320.0142437999966,0.01424379999662051,None,352.76750860000175,352.76750860000175,352.76750860000175,352.76750860000175,352.76750860000175,352.76750860000175,352.76750860000175,352.76750860000175,352.76750860000175,352.76750860000175,,002,P017,2025_Mar_07_1558,ConditionRich,2021.2.3,59.93313859080324,
320.75,324.0,41,0.0,Stimuli/Blank.png,0,0.0,0.0,0,139,139,139,,,,,,,,,,,,,320.78291089999766,0.032910899997659726,None,353.51817239999946,353.51817239999946,353.51817239999946,353.51817239999946,353.51817239999946,353.51817239999946,353.51817239999946,353.51817239999946,353.51817239999946,353.51817239999946,,002,P017,2025_Mar_07_1558,ConditionRich,2021.2.3,59.93313859080324,
324.0,324.75,26,0.75,Stimuli/P017/things_chandelier_09s.jpg,0,0.0,0.0,0,140,140,140,,,,,,,,,,,,,324.0015865999994,0.0015865999994275626,None,356.7543645000005,356.7543645000005,356.7543645000005,356.7543645000005,356.7543645000005,356.7543645000005,356.7543645000005,356.7543645000005,356.7543645000005,356.7543645000005,,002,P017,2025_Mar_07_1558,ConditionRich,2021.2.3,59.93313859080324,
324.75,328.0,41,0.0,Stimuli/Blank.png,1,0.25,1.0,0,141,141,141,,,,,,,,,,,,,324.7682902999986,0.018290299998625414,1,357.50504530000035,357.50504530000035,357.50504530000035,357.50504530000035,357.50504530000035,357.50504530000035,357.73857240000143,358.4892233999999,357.50504530000035,357.50504530000035,0.5848489000018162,002,P017,2025_Mar_07_1558,ConditionRich,2021.2.3,59.93313859080324,
328.0,328.75,25,0.75,Stimuli/P017/things_cannonball_09s.jpg,0,0.0,0.0,0,142,142,142,,,,,,,,,,,,,328.00500479999755,0.005004799997550435,None,360.7579236999991,360.7579236999991,360.7579236999991,360.7579236999991,360.7579236999991,360.7579236999991,360.7579236999991,360.7579236999991,360.7579236999991,360.7579236999991,,002,P017,2025_Mar_07_1558,ConditionRich,2021.2.3,59.93313859080324,
328.75,332.0,41,0.0,Stimuli/Blank.png,1,2.25,3.0,0,143,143,143,,,,,,,,,,,,,328.772895099999,0.022895099999004742,1,361.50856869999916,361.50856869999916,361.50856869999916,361.50856869999916,361.50856869999916,361.50856869999916,363.74391280000054,364.49453279999943,361.50856869999916,361.50856869999916,2.6193296000019473,002,P017,2025_Mar_07_1558,ConditionRich,2021.2.3,59.93313859080324,
332.0,332.75,21,0.75,Stimuli/P017/things_baby_09s.jpg,0,0.0,0.0,0,144,144,144,,,,,,,,,,,,,332.00873729999876,0.008737299998756498,None,364.7447714000009,364.7447714000009,364.7447714000009,364.7447714000009,364.7447714000009,364.7447714000009,364.7447714000009,364.7447714000009,364.7447714000009,364.7447714000009,,002,P017,2025_Mar_07_1558,ConditionRich,2021.2.3,59.93313859080324,
332.75,336.0,41,0.0,Stimuli/Blank.png,1,2.25,3.0,0,145,145,145,,,,,,,,,,,,,332.75865859999976,0.008658599999762373,1,365.49541370000225,365.49541370000225,365.49541370000225,365.49541370000225,365.49541370000225,365.49541370000225,367.73072460000185,368.48138240000117,365.49541370000225,365.49541370000225,2.6074891000025673,002,P017,2025_Mar_07_1558,ConditionRich,2021.2.3,59.93313859080324,
336.0,336.75,13,0.75,Stimuli/P017/sun_bizqwyomkqigheyx.jpg,0,0.0,0.0,0,146,146,146,,,,,,,,,,,,,336.01197749999847,0.011977499998465646,None,368.74829370000225,368.74829370000225,368.74829370000225,368.74829370000225,368.74829370000225,368.74829370000225,368.74829370000225,368.74829370000225,368.74829370000225,368.74829370000225,,002,P017,2025_Mar_07_1558,ConditionRich,2021.2.3,59.93313859080324,
336.75,340.0,41,0.0,Stimuli/Blank.png,0,0.0,0.0,0,147,147,147,,,,,,,,,,,,,336.7621328999994,0.012132899999414803,None,369.4989303000002,369.4989303000002,369.4989303000002,369.4989303000002,369.4989303000002,369.4989303000002,369.4989303000002,369.4989303000002,369.4989303000002,369.4989303000002,,002,P017,2025_Mar_07_1558,ConditionRich,2021.2.3,59.93313859080324,
340.0,340.75,37,0.75,Stimuli/P017/things_plastic_film_09s.jpg,0,0.0,0.0,0,148,148,148,,,,,,,,,,,,,340.01720919999934,0.017209199999342673,None,372.76852879999933,372.76852879999933,372.76852879999933,372.76852879999933,372.76852879999933,372.76852879999933,372.76852879999933,372.76852879999933,372.76852879999933,372.76852879999933,,002,P017,2025_Mar_07_1558,ConditionRich,2021.2.3,59.93313859080324,
340.75,344.0,41,0.0,Stimuli/Blank.png,0,0.0,0.0,0,149,149,149,,,,,,,,,,,,,340.7675845999984,0.01758459999837214,None,373.51918020000085,373.51918020000085,373.51918020000085,373.51918020000085,373.51918020000085,373.51918020000085,373.51918020000085,373.51918020000085,373.51918020000085,373.51918020000085,,002,P017,2025_Mar_07_1558,ConditionRich,2021.2.3,59.93313859080324,
344.0,344.75,9,0.75,Stimuli/P017/sun_ayidxslzurdumeps.jpg,0,0.0,0.0,0,150,150,150,,,,,,,,,,,,,344.0190041999995,0.019004199999471894,None,376.77207009999984,376.77207009999984,376.77207009999984,376.77207009999984,376.77207009999984,376.77207009999984,376.77207009999984,376.77207009999984,376.77207009999984,376.77207009999984,,002,P017,2025_Mar_07_1558,ConditionRich,2021.2.3,59.93313859080324,
344.75,348.0,41,0.0,Stimuli/Blank.png,0,0.0,0.0,0,151,151,151,,,,,,,,,,,,,344.76923669999815,0.019236699998145923,None,377.50614900000073,377.50614900000073,377.50614900000073,377.50614900000073,377.50614900000073,377.50614900000073,377.50614900000073,377.50614900000073,377.50614900000073,377.50614900000073,,002,P017,2025_Mar_07_1558,ConditionRich,2021.2.3,59.93313859080324,
348.0,348.75,14,0.75,Stimuli/P017/sun_bljpqnfmmqkjsfvx.jpg,1,0.0,0.75,0,152,152,152,,,,,,,,,,,,,348.0075552999988,0.0075552999987849034,1,380.7589220000009,380.7589220000009,380.7589220000009,380.7589220000009,380.7589220000009,380.7589220000009,380.7589220000009,381.49291730000186,380.7589220000009,380.7589220000009,0.5032194000013988,002,P017,2025_Mar_07_1558,ConditionRich,2021.2.3,59.93313859080324,
348.75,352.0,41,0.0,Stimuli/Blank.png,0,0.0,0.0,0,153,153,153,,,,,,,,,,,,,348.7732339999966,0.023233999996591592,None,381.50956589999987,381.50956589999987,381.50956589999987,381.50956589999987,381.50956589999987,381.50956589999987,381.50956589999987,381.50956589999987,381.50956589999987,381.50956589999987,,002,P017,2025_Mar_07_1558,ConditionRich,2021.2.3,59.93313859080324,
352.0,352.75,19,0.75,Stimuli/P017/sun_brrwzaypucosdcgt.jpg,0,0.0,0.0,0,154,154,154,,,,,,,,,,,,,352.00905169999896,0.009051699998963159,None,384.7457379000007,384.7457379000007,384.7457379000007,384.7457379000007,384.7457379000007,384.7457379000007,384.7457379000007,384.7457379000007,384.7457379000007,384.7457379000007,,002,P017,2025_Mar_07_1558,ConditionRich,2021.2.3,59.93313859080324,
352.75,356.0,41,0.0,Stimuli/Blank.png,0,0.0,0.0,0,155,155,155,,,,,,,,,,,,,352.7622721999978,0.012272199997823918,None,385.51312840000173,385.51312840000173,385.51312840000173,385.51312840000173,385.51312840000173,385.51312840000173,385.51312840000173,385.51312840000173,385.51312840000173,385.51312840000173,,002,P017,2025_Mar_07_1558,ConditionRich,2021.2.3,59.93313859080324,
356.0,356.75,31,0.75,Stimuli/P017/things_highchair_09s.jpg,0,0.0,0.0,0,156,156,156,,,,,,,,,,,,,356.0293120999995,0.02931209999951534,None,388.76609520000056,388.76609520000056,388.76609520000056,388.76609520000056,388.76609520000056,388.76609520000056,388.76609520000056,388.76609520000056,388.76609520000056,388.76609520000056,,002,P017,2025_Mar_07_1558,ConditionRich,2021.2.3,59.93313859080324,
356.75,360.0,41,0.0,Stimuli/Blank.png,0,0.0,0.0,0,157,157,157,,,,,,,,,,,,,356.76307109999834,0.013071099998342106,None,389.49996680000186,389.49996680000186,389.49996680000186,389.49996680000186,389.49996680000186,389.49996680000186,389.49996680000186,389.49996680000186,389.49996680000186,389.49996680000186,,002,P017,2025_Mar_07_1558,ConditionRich,2021.2.3,59.93313859080324,
360.0,360.75,20,0.75,Stimuli/P017/sun_buukivvfbfhosrng.jpg,0,0.0,0.0,0,158,158,158,,,,,,,,,,,,,359.99926479999704,-0.0007352000029641204,None,392.75286179999966,392.75286179999966,392.75286179999966,392.75286179999966,392.75286179999966,392.75286179999966,392.75286179999966,392.75286179999966,392.75286179999966,392.75286179999966,,002,P017,2025_Mar_07_1558,ConditionRich,2021.2.3,59.93313859080324,
360.75,364.0,41,0.0,Stimuli/Blank.png,0,0.0,0.0,0,159,159,159,,,,,,,,,,,,,360.7670803999972,0.017080399997212226,None,393.50350320000143,393.50350320000143,393.50350320000143,393.50350320000143,393.50350320000143,393.50350320000143,393.50350320000143,393.50350320000143,393.50350320000143,393.50350320000143,,002,P017,2025_Mar_07_1558,ConditionRich,2021.2.3,59.93313859080324,
364.0,364.75,12,0.75,Stimuli/P017/sun_bhvaiabdgxjuwoth.jpg,0,0.0,0.0,0,160,160,160,,,,,,,,,,,,,364.00278889999754,0.002788899997540284,None,396.73972100000174,396.73972100000174,396.73972100000174,396.73972100000174,396.73972100000174,396.73972100000174,396.73972100000174,396.73972100000174,396.73972100000174,396.73972100000174,,002,P017,2025_Mar_07_1558,ConditionRich,2021.2.3,59.93313859080324,
364.75,368.0,41,0.0,Stimuli/Blank.png,0,0.0,0.0,0,161,161,161,,,,,,,,,,,,,364.75438089999807,0.004380899998068344,None,397.49045660000047,397.49045660000047,397.49045660000047,397.49045660000047,397.49045660000047,397.49045660000047,397.49045660000047,397.49045660000047,397.49045660000047,397.49045660000047,,002,P017,2025_Mar_07_1558,ConditionRich,2021.2.3,59.93313859080324,
368.0,368.75,4,0.75,Stimuli/P017/sun_aibvvqlmlsjnrgdj.jpg,0,0.0,0.0,0,162,162,162,,,,,,,,,,,,,368.0075595999988,0.007559599998785416,None,400.75992060000135,400.75992060000135,400.75992060000135,400.75992060000135,400.75992060000135,400.75992060000135,400.75992060000135,400.75992060000135,400.75992060000135,400.75992060000135,,002,P017,2025_Mar_07_1558,ConditionRich,2021.2.3,59.93313859080324,
368.75,372.0,41,0.0,Stimuli/Blank.png,0,0.0,0.0,0,163,163,163,,,,,,,,,,,,,368.7745122999986,0.024512299998605158,None,401.51057260000016,401.51057260000016,401.51057260000016,401.51057260000016,401.51057260000016,401.51057260000016,401.51057260000016,401.51057260000016,401.51057260000016,401.51057260000016,,002,P017,2025_Mar_07_1558,ConditionRich,2021.2.3,59.93313859080324,
372.0,388.0,0,0.0,Stimuli/Blank.png,1,1.0,1.75,0,164,164,164,,,,,,,,,,,,,372.0118500999997,0.011850099999719532,1,404.74677789999987,404.74677789999987,404.74677789999987,404.74677789999987,404.74677789999987,404.74677789999987,405.7310131000013,406.48168369999985,404.74677789999987,404.74677789999987,1.45850369999971,002,P017,2025_Mar_07_1558,ConditionRich,2021.2.3,59.93313859080324,
