eventStartTime,eventEndTime,eventCond,imSize,imFile,responseEvent,fixRespStart,fixRespEnd,Events.thisRepN,Events.thisTrialN,Events.thisN,Events.thisIndex,Instructions.started,Instructions.stopped,participantReadyResponse.keys,participantReadyResponse.rt,participantReadyResponse.started,participantReadyResponse.stopped,startWaitforTrigger,triggerResponse.keys,triggerResponse.rt,triggerResponse.started,triggerResponse.stopped,globalTimer,actualStartTime,startTimingDiff,participantResponse.keys,participantResponse.started,participantResponse.stopped,image.started,image.stopped,fixationOutside.started,fixationOutside.stopped,fixationResponse.started,fixationResponse.stopped,fixationInside.started,fixationInside.stopped,participantResponse.rt,session,participant,date,expName,psychopyVersion,frameRate,
,,,,,,,,,,,,10.791539800000464,None,1,2.1408007999998517,10.791539800000464,None,,,,,,,,,,,,,,,,,,,,,006,P017,2025_Mar_07_1635,ConditionRich,2021.2.3,59.93529385769683,
,,,,,,,,,,,,,,,,,,12.949659599998995,5,15.100728500001424,12.962876800000231,None,,,,,,,,,,,,,,,,006,P017,2025_Mar_07_1635,ConditionRich,2021.2.3,59.93529385769683,
0.0,4.0,0,0.0,Stimuli/Blank.png,0,0,0.0,0,0,0,0,,,,,,,,,,,,28.080416299999342,0.02766699999847333,0.02766699999847333,None,28.127413800000795,None,28.127413800000795,None,28.127413800000795,None,28.127413800000795,28.127413800000795,28.127413800000795,None,,006,P017,2025_Mar_07_1635,ConditionRich,2021.2.3,59.93529385769683,
4.0,7.75,25,0.75,Stimuli/P017/things_cannonball_09s.jpg,1,2,2.75,0,1,1,1,,,,,,,,,,,,,4.020174199999019,0.020174199999019038,1,32.1301870999996,32.1301870999996,32.1301870999996,32.1301870999996,32.1301870999996,32.1301870999996,34.09836759999962,34.84902349999902,32.1301870999996,32.1301870999996,2.254146999999648,006,P017,2025_Mar_07_1635,ConditionRich,2021.2.3,59.93529385769683,
7.75,8.0,41,0.0,Stimuli/Blank.png,0,0,0.0,0,2,2,2,,,,,,,,,,,,,7.772324699999444,0.02232469999944442,None,35.866896200001065,35.866896200001065,35.866896200001065,35.866896200001065,35.866896200001065,35.866896200001065,35.866896200001065,35.866896200001065,35.866896200001065,35.866896200001065,,006,P017,2025_Mar_07_1635,ConditionRich,2021.2.3,59.93529385769683,
8.0,11.75,18,0.75,Stimuli/P017/sun_brrvvswweljrvnlq.jpg,1,1,1.75,0,3,3,3,,,,,,,,,,,,,8.005683399998816,0.00568339999881573,1,36.11684740000055,36.11684740000055,36.11684740000055,36.11684740000055,36.11684740000055,36.11684740000055,37.08440189999965,37.834997199999634,36.11684740000055,36.11684740000055,1.2914391000012984,006,P017,2025_Mar_07_1635,ConditionRich,2021.2.3,59.93529385769683,
11.75,12.0,41,0.0,Stimuli/Blank.png,0,0,0.0,0,4,4,4,,,,,,,,,,,,,11.775390899998456,0.025390899998456007,None,39.870146000001114,39.870146000001114,39.870146000001114,39.870146000001114,39.870146000001114,39.870146000001114,39.870146000001114,39.870146000001114,39.870146000001114,39.870146000001114,,006,P017,2025_Mar_07_1635,ConditionRich,2021.2.3,59.93529385769683,
12.0,15.75,8,0.75,Stimuli/P017/sun_axsmqyyvebrcuhkn.jpg,1,1,1.75,0,5,5,5,,,,,,,,,,,,,12.008824099997582,0.00882409999758238,1,40.103682500001014,40.103682500001014,40.103682500001014,40.103682500001014,40.103682500001014,40.103682500001014,41.08787980000125,41.83854580000116,40.103682500001014,40.103682500001014,1.3167061000021931,006,P017,2025_Mar_07_1635,ConditionRich,2021.2.3,59.93529385769683,
15.75,16.0,41,0.0,Stimuli/Blank.png,0,0,0.0,0,6,6,6,,,,,,,,,,,,,15.764769699999306,0.014769699999305885,None,43.87368350000179,43.87368350000179,43.87368350000179,43.87368350000179,43.87368350000179,43.87368350000179,43.87368350000179,43.87368350000179,43.87368350000179,43.87368350000179,,006,P017,2025_Mar_07_1635,ConditionRich,2021.2.3,59.93529385769683,
16.0,19.75,19,0.75,Stimuli/P017/sun_brrwzaypucosdcgt.jpg,0,0,0.0,0,7,7,7,,,,,,,,,,,,,16.02941980000105,0.029419800001051044,None,44.12390570000207,44.12390570000207,44.12390570000207,44.12390570000207,44.12390570000207,44.12390570000207,44.12390570000207,44.12390570000207,44.12390570000207,44.12390570000207,,006,P017,2025_Mar_07_1635,ConditionRich,2021.2.3,59.93529385769683,
19.75,20.0,41,0.0,Stimuli/Blank.png,0,0,0.0,0,8,8,8,,,,,,,,,,,,,19.74938420000035,-0.0006157999996503349,None,47.84386230000018,47.84386230000018,47.84386230000018,47.84386230000018,47.84386230000018,47.84386230000018,47.84386230000018,47.84386230000018,47.84386230000018,47.84386230000018,,006,P017,2025_Mar_07_1635,ConditionRich,2021.2.3,59.93529385769683,
20.0,23.75,40,0.75,Stimuli/P017/things_woman_09s.jpg,0,0,0.0,0,9,9,9,,,,,,,,,,,,,19.999404099999083,-0.0005959000009170268,None,48.094073899999785,48.094073899999785,48.094073899999785,48.094073899999785,48.094073899999785,48.094073899999785,48.094073899999785,48.094073899999785,48.094073899999785,48.094073899999785,,006,P017,2025_Mar_07_1635,ConditionRich,2021.2.3,59.93529385769683,
23.75,24.0,41,0.0,Stimuli/Blank.png,0,0,0.0,0,10,10,10,,,,,,,,,,,,,23.753048700000363,0.0030487000003631692,None,51.84741320000103,51.84741320000103,51.84741320000103,51.84741320000103,51.84741320000103,51.84741320000103,51.84741320000103,51.84741320000103,51.84741320000103,51.84741320000103,,006,P017,2025_Mar_07_1635,ConditionRich,2021.2.3,59.93529385769683,
24.0,27.75,33,0.75,Stimuli/P017/things_lamb_09s.jpg,0,0,0.0,0,11,11,11,,,,,,,,,,,,,24.00334020000082,0.0033402000008209143,None,52.09761530000105,52.09761530000105,52.09761530000105,52.09761530000105,52.09761530000105,52.09761530000105,52.09761530000105,52.09761530000105,52.09761530000105,52.09761530000105,,006,P017,2025_Mar_07_1635,ConditionRich,2021.2.3,59.93529385769683,
27.75,28.0,41,0.0,Stimuli/Blank.png,0,0,0.0,0,12,12,12,,,,,,,,,,,,,27.75838719999956,0.008387199999560835,None,55.86763280000014,55.86763280000014,55.86763280000014,55.86763280000014,55.86763280000014,55.86763280000014,55.86763280000014,55.86763280000014,55.86763280000014,55.86763280000014,,006,P017,2025_Mar_07_1635,ConditionRich,2021.2.3,59.93529385769683,
28.0,31.75,16,0.75,Stimuli/P017/sun_brfwxjsnmauhmfzf.jpg,0,0,0.0,0,13,13,13,,,,,,,,,,,,,28.023774299999786,0.023774299999786308,None,56.11783849999847,56.11783849999847,56.11783849999847,56.11783849999847,56.11783849999847,56.11783849999847,56.11783849999847,56.11783849999847,56.11783849999847,56.11783849999847,,006,P017,2025_Mar_07_1635,ConditionRich,2021.2.3,59.93529385769683,
31.75,32.0,41,0.0,Stimuli/Blank.png,0,0,0.0,0,14,14,14,,,,,,,,,,,,,31.760315999999875,0.010315999999875203,None,59.85445980000077,59.85445980000077,59.85445980000077,59.85445980000077,59.85445980000077,59.85445980000077,59.85445980000077,59.85445980000077,59.85445980000077,59.85445980000077,,006,P017,2025_Mar_07_1635,ConditionRich,2021.2.3,59.93529385769683,
32.0,35.75,27,0.75,Stimuli/P017/things_coffin_09s.jpg,0,0,0.0,0,15,15,15,,,,,,,,,,,,,32.01010089999909,0.010100899999088142,None,60.12143990000186,60.12143990000186,60.12143990000186,60.12143990000186,60.12143990000186,60.12143990000186,60.12143990000186,60.12143990000186,60.12143990000186,60.12143990000186,,006,P017,2025_Mar_07_1635,ConditionRich,2021.2.3,59.93529385769683,
35.75,36.0,41,0.0,Stimuli/Blank.png,0,0,0.0,0,16,16,16,,,,,,,,,,,,,35.78069279999909,0.030692799999087583,None,63.87479750000057,63.87479750000057,63.87479750000057,63.87479750000057,63.87479750000057,63.87479750000057,63.87479750000057,63.87479750000057,63.87479750000057,63.87479750000057,,006,P017,2025_Mar_07_1635,ConditionRich,2021.2.3,59.93529385769683,
36.0,39.75,38,0.75,Stimuli/P017/things_pony_09s.jpg,0,0,0.0,0,17,17,17,,,,,,,,,,,,,36.01336269999956,0.0133626999995613,None,64.10825430000114,64.10825430000114,64.10825430000114,64.10825430000114,64.10825430000114,64.10825430000114,64.10825430000114,64.10825430000114,64.10825430000114,64.10825430000114,,006,P017,2025_Mar_07_1635,ConditionRich,2021.2.3,59.93529385769683,
39.75,40.0,41,0.0,Stimuli/Blank.png,0,0,0.0,0,18,18,18,,,,,,,,,,,,,39.74990590000016,-9.409999984200113e-05,None,67.8448814000003,67.8448814000003,67.8448814000003,67.8448814000003,67.8448814000003,67.8448814000003,67.8448814000003,67.8448814000003,67.8448814000003,67.8448814000003,,006,P017,2025_Mar_07_1635,ConditionRich,2021.2.3,59.93529385769683,
40.0,43.75,34,0.75,Stimuli/P017/things_llama_09s.jpg,0,0,0.0,0,19,19,19,,,,,,,,,,,,,40.00007669999832,7.669999831705354e-05,None,68.11180149999927,68.11180149999927,68.11180149999927,68.11180149999927,68.11180149999927,68.11180149999927,68.11180149999927,68.11180149999927,68.11180149999927,68.11180149999927,,006,P017,2025_Mar_07_1635,ConditionRich,2021.2.3,59.93529385769683,
43.75,44.0,41,0.0,Stimuli/Blank.png,0,0,0.0,0,20,20,20,,,,,,,,,,,,,43.77080489999935,0.02080489999934798,None,71.86509020000085,71.86509020000085,71.86509020000085,71.86509020000085,71.86509020000085,71.86509020000085,71.86509020000085,71.86509020000085,71.86509020000085,71.86509020000085,,006,P017,2025_Mar_07_1635,ConditionRich,2021.2.3,59.93529385769683,
44.0,47.75,11,0.75,Stimuli/P017/sun_bdzxsadvniuolmio.jpg,1,1,1.75,0,21,21,21,,,,,,,,,,,,,44.00410659999761,0.004106599997612648,1,72.09864160000143,72.09864160000143,72.09864160000143,72.09864160000143,72.09864160000143,72.09864160000143,73.0828548999998,73.83349879999878,72.09864160000143,72.09864160000143,1.4187653999979375,006,P017,2025_Mar_07_1635,ConditionRich,2021.2.3,59.93529385769683,
47.75,48.0,41,0.0,Stimuli/Blank.png,0,0,0.0,0,22,22,22,,,,,,,,,,,,,47.759749799999554,0.009749799999553943,None,75.86865250000119,75.86865250000119,75.86865250000119,75.86865250000119,75.86865250000119,75.86865250000119,75.86865250000119,75.86865250000119,75.86865250000119,75.86865250000119,,006,P017,2025_Mar_07_1635,ConditionRich,2021.2.3,59.93529385769683,
48.0,51.75,9,0.75,Stimuli/P017/sun_ayidxslzurdumeps.jpg,0,0,0.0,0,23,23,23,,,,,,,,,,,,,48.023824399999285,0.02382439999928465,None,76.11885830000028,76.11885830000028,76.11885830000028,76.11885830000028,76.11885830000028,76.11885830000028,76.11885830000028,76.11885830000028,76.11885830000028,76.11885830000028,,006,P017,2025_Mar_07_1635,ConditionRich,2021.2.3,59.93529385769683,
51.75,52.0,41,0.0,Stimuli/Blank.png,0,0,0.0,0,24,24,24,,,,,,,,,,,,,51.76043149999896,0.010431499998958316,None,79.85550860000149,79.85550860000149,79.85550860000149,79.85550860000149,79.85550860000149,79.85550860000149,79.85550860000149,79.85550860000149,79.85550860000149,79.85550860000149,,006,P017,2025_Mar_07_1635,ConditionRich,2021.2.3,59.93529385769683,
52.0,55.75,26,0.75,Stimuli/P017/things_chandelier_09s.jpg,0,0,0.0,0,25,25,25,,,,,,,,,,,,,52.011584500000026,0.01158450000002631,None,80.10572350000075,80.10572350000075,80.10572350000075,80.10572350000075,80.10572350000075,80.10572350000075,80.10572350000075,80.10572350000075,80.10572350000075,80.10572350000075,,006,P017,2025_Mar_07_1635,ConditionRich,2021.2.3,59.93529385769683,
55.75,56.0,41,0.0,Stimuli/Blank.png,0,0,0.0,0,26,26,26,,,,,,,,,,,,,55.764536799997586,0.014536799997586058,None,83.85904220000157,83.85904220000157,83.85904220000157,83.85904220000157,83.85904220000157,83.85904220000157,83.85904220000157,83.85904220000157,83.85904220000157,83.85904220000157,,006,P017,2025_Mar_07_1635,ConditionRich,2021.2.3,59.93529385769683,
56.0,59.75,2,0.75,Stimuli/P017/sun_acliytrpktltxwsx.jpg,0,0,0.0,0,27,27,27,,,,,,,,,,,,,56.015269100000296,0.015269100000296021,None,84.10926889999973,84.10926889999973,84.10926889999973,84.10926889999973,84.10926889999973,84.10926889999973,84.10926889999973,84.10926889999973,84.10926889999973,84.10926889999973,,006,P017,2025_Mar_07_1635,ConditionRich,2021.2.3,59.93529385769683,
59.75,60.0,41,0.0,Stimuli/Blank.png,0,0,0.0,0,28,28,28,,,,,,,,,,,,,59.75338130000091,0.0033813000009104144,None,87.86258720000114,87.86258720000114,87.86258720000114,87.86258720000114,87.86258720000114,87.86258720000114,87.86258720000114,87.86258720000114,87.86258720000114,87.86258720000114,,006,P017,2025_Mar_07_1635,ConditionRich,2021.2.3,59.93529385769683,
60.0,63.75,23,0.75,Stimuli/P017/things_boy_09s.jpg,0,0,0.0,0,29,29,29,,,,,,,,,,,,,60.017750799997884,0.017750799997884315,None,88.11280249999982,88.11280249999982,88.11280249999982,88.11280249999982,88.11280249999982,88.11280249999982,88.11280249999982,88.11280249999982,88.11280249999982,88.11280249999982,,006,P017,2025_Mar_07_1635,ConditionRich,2021.2.3,59.93529385769683,
63.75,64.0,41,0.0,Stimuli/Blank.png,0,0,0.0,0,30,30,30,,,,,,,,,,,,,63.754555399998935,0.004555399998935172,None,91.84943700000076,91.84943700000076,91.84943700000076,91.84943700000076,91.84943700000076,91.84943700000076,91.84943700000076,91.84943700000076,91.84943700000076,91.84943700000076,,006,P017,2025_Mar_07_1635,ConditionRich,2021.2.3,59.93529385769683,
64.0,67.75,20,0.75,Stimuli/P017/sun_buukivvfbfhosrng.jpg,0,0,0.0,0,31,31,31,,,,,,,,,,,,,64.00552079999761,0.005520799997611903,None,92.09966669999994,92.09966669999994,92.09966669999994,92.09966669999994,92.09966669999994,92.09966669999994,92.09966669999994,92.09966669999994,92.09966669999994,92.09966669999994,,006,P017,2025_Mar_07_1635,ConditionRich,2021.2.3,59.93529385769683,
67.75,68.0,41,0.0,Stimuli/Blank.png,0,0,0.0,0,32,32,32,,,,,,,,,,,,,67.75812199999928,0.008121999999275431,None,95.8529841999989,95.8529841999989,95.8529841999989,95.8529841999989,95.8529841999989,95.8529841999989,95.8529841999989,95.8529841999989,95.8529841999989,95.8529841999989,,006,P017,2025_Mar_07_1635,ConditionRich,2021.2.3,59.93529385769683,
68.0,71.75,4,0.75,Stimuli/P017/sun_aibvvqlmlsjnrgdj.jpg,0,0,0.0,0,33,33,33,,,,,,,,,,,,,68.00873429999774,0.00873429999774089,None,96.11990760000117,96.11990760000117,96.11990760000117,96.11990760000117,96.11990760000117,96.11990760000117,96.11990760000117,96.11990760000117,96.11990760000117,96.11990760000117,,006,P017,2025_Mar_07_1635,ConditionRich,2021.2.3,59.93529385769683,
71.75,72.0,41,0.0,Stimuli/Blank.png,0,0,0.0,0,34,34,34,,,,,,,,,,,,,71.77900289999889,0.029002899998886278,None,99.87320860000182,99.87320860000182,99.87320860000182,99.87320860000182,99.87320860000182,99.87320860000182,99.87320860000182,99.87320860000182,99.87320860000182,99.87320860000182,,006,P017,2025_Mar_07_1635,ConditionRich,2021.2.3,59.93529385769683,
72.0,75.75,29,0.75,Stimuli/P017/things_face_09s.jpg,1,0,0.75,0,35,35,35,,,,,,,,,,,,,72.01298659999884,0.012986599998839665,1,100.12343110000074,100.12343110000074,100.12343110000074,100.12343110000074,100.12343110000074,100.12343110000074,100.12343110000074,100.84100749999925,100.12343110000074,100.12343110000074,0.5708802000008291,006,P017,2025_Mar_07_1635,ConditionRich,2021.2.3,59.93529385769683,
75.75,76.0,41,0.0,Stimuli/Blank.png,0,0,0.0,0,36,36,36,,,,,,,,,,,,,75.76531819999946,0.015318199999455828,None,103.86005899999873,103.86005899999873,103.86005899999873,103.86005899999873,103.86005899999873,103.86005899999873,103.86005899999873,103.86005899999873,103.86005899999873,103.86005899999873,,006,P017,2025_Mar_07_1635,ConditionRich,2021.2.3,59.93529385769683,
76.0,79.75,35,0.75,Stimuli/P017/things_lobster_09s.jpg,0,0,0.0,0,37,37,37,,,,,,,,,,,,,76.01594929999919,0.01594929999919259,None,104.12697570000091,104.12697570000091,104.12697570000091,104.12697570000091,104.12697570000091,104.12697570000091,104.12697570000091,104.12697570000091,104.12697570000091,104.12697570000091,,006,P017,2025_Mar_07_1635,ConditionRich,2021.2.3,59.93529385769683,
79.75,80.0,41,0.0,Stimuli/Blank.png,0,0,0.0,0,38,38,38,,,,,,,,,,,,,79.76913419999983,0.019134199999825796,None,107.86360710000008,107.86360710000008,107.86360710000008,107.86360710000008,107.86360710000008,107.86360710000008,107.86360710000008,107.86360710000008,107.86360710000008,107.86360710000008,,006,P017,2025_Mar_07_1635,ConditionRich,2021.2.3,59.93529385769683,
80.0,83.75,21,0.75,Stimuli/P017/things_baby_09s.jpg,0,0,0.0,0,39,39,39,,,,,,,,,,,,,80.00260549999803,0.002605499998026062,None,108.09713869999905,108.09713869999905,108.09713869999905,108.09713869999905,108.09713869999905,108.09713869999905,108.09713869999905,108.09713869999905,108.09713869999905,108.09713869999905,,006,P017,2025_Mar_07_1635,ConditionRich,2021.2.3,59.93529385769683,
83.75,84.0,41,0.0,Stimuli/Blank.png,0,0,0.0,0,40,40,40,,,,,,,,,,,,,83.75538769999912,0.005387699999118922,None,111.85045560000071,111.85045560000071,111.85045560000071,111.85045560000071,111.85045560000071,111.85045560000071,111.85045560000071,111.85045560000071,111.85045560000071,111.85045560000071,,006,P017,2025_Mar_07_1635,ConditionRich,2021.2.3,59.93529385769683,
84.0,100.0,0,0.0,Stimuli/Blank.png,1,13,13.75,0,41,41,41,,,,,,,,,,,,,84.00739809999868,0.007398099998681573,1,112.10069189999922,112.10069189999922,112.10069189999922,112.10069189999922,112.10069189999922,112.10069189999922,125.09551529999953,125.84616570000071,112.10069189999922,112.10069189999922,13.424825399997644,006,P017,2025_Mar_07_1635,ConditionRich,2021.2.3,59.93529385769683,
100.0,103.75,15,0.75,Stimuli/P017/sun_bobznlnnzwznersx.jpg,0,0,0.0,0,42,42,42,,,,,,,,,,,,,100.00426329999755,0.00426329999754671,1,128.1148530999999,128.1148530999999,128.1148530999999,128.1148530999999,128.1148530999999,128.1148530999999,128.1148530999999,128.1148530999999,128.1148530999999,128.1148530999999,1.999594500000967,006,P017,2025_Mar_07_1635,ConditionRich,2021.2.3,59.93529385769683,
103.75,104.0,41,0.0,Stimuli/Blank.png,0,0,0.0,0,43,43,43,,,,,,,,,,,,,103.77427629999875,0.024276299998746254,None,131.8848521,131.8848521,131.8848521,131.8848521,131.8848521,131.8848521,131.8848521,131.8848521,131.8848521,131.8848521,,006,P017,2025_Mar_07_1635,ConditionRich,2021.2.3,59.93529385769683,
104.0,107.75,6,0.75,Stimuli/P017/sun_atuyvunnykjurjgx.jpg,1,2,2.75,0,44,44,44,,,,,,,,,,,,,104.02481249999983,0.024812499999825377,1,132.1350636999996,132.1350636999996,132.1350636999996,132.1350636999996,132.1350636999996,132.1350636999996,134.10353060000125,134.8541124000003,132.1350636999996,132.1350636999996,2.408214200000657,006,P017,2025_Mar_07_1635,ConditionRich,2021.2.3,59.93529385769683,
107.75,108.0,41,0.0,Stimuli/Blank.png,0,0,0.0,0,45,45,45,,,,,,,,,,,,,107.77721409999867,0.02721409999867319,None,135.87175299999944,135.87175299999944,135.87175299999944,135.87175299999944,135.87175299999944,135.87175299999944,135.87175299999944,135.87175299999944,135.87175299999944,135.87175299999944,,006,P017,2025_Mar_07_1635,ConditionRich,2021.2.3,59.93529385769683,
108.0,111.75,10,0.75,Stimuli/P017/sun_bayxprasninnrnle.jpg,0,0,0.0,0,46,46,46,,,,,,,,,,,,,108.01025859999936,0.01025859999936074,None,136.12196620000032,136.12196620000032,136.12196620000032,136.12196620000032,136.12196620000032,136.12196620000032,136.12196620000032,136.12196620000032,136.12196620000032,136.12196620000032,,006,P017,2025_Mar_07_1635,ConditionRich,2021.2.3,59.93529385769683,
111.75,112.0,41,0.0,Stimuli/Blank.png,0,0,0.0,0,47,47,47,,,,,,,,,,,,,111.78113129999838,0.03113129999837838,None,139.87525000000096,139.87525000000096,139.87525000000096,139.87525000000096,139.87525000000096,139.87525000000096,139.87525000000096,139.87525000000096,139.87525000000096,139.87525000000096,,006,P017,2025_Mar_07_1635,ConditionRich,2021.2.3,59.93529385769683,
112.0,115.75,30,0.75,Stimuli/P017/things_girl_09s.jpg,0,0,0.0,0,48,48,48,,,,,,,,,,,,,112.013712699998,0.013712699997995514,None,140.10878159999993,140.10878159999993,140.10878159999993,140.10878159999993,140.10878159999993,140.10878159999993,140.10878159999993,140.10878159999993,140.10878159999993,140.10878159999993,,006,P017,2025_Mar_07_1635,ConditionRich,2021.2.3,59.93529385769683,
115.75,116.0,41,0.0,Stimuli/Blank.png,0,0,0.0,0,49,49,49,,,,,,,,,,,,,115.75269429999753,0.002694299997529015,None,143.86213169999974,143.86213169999974,143.86213169999974,143.86213169999974,143.86213169999974,143.86213169999974,143.86213169999974,143.86213169999974,143.86213169999974,143.86213169999974,,006,P017,2025_Mar_07_1635,ConditionRich,2021.2.3,59.93529385769683,
116.0,119.75,39,0.75,Stimuli/P017/things_veil_09s.jpg,0,0,0.0,0,50,50,50,,,,,,,,,,,,,116.0173810999986,0.017381099998601712,None,144.11231770000086,144.11231770000086,144.11231770000086,144.11231770000086,144.11231770000086,144.11231770000086,144.11231770000086,144.11231770000086,144.11231770000086,144.11231770000086,,006,P017,2025_Mar_07_1635,ConditionRich,2021.2.3,59.93529385769683,
119.75,120.0,41,0.0,Stimuli/Blank.png,0,0,0.0,0,51,51,51,,,,,,,,,,,,,119.75492830000076,0.0049283000007562805,None,147.84896709999884,147.84896709999884,147.84896709999884,147.84896709999884,147.84896709999884,147.84896709999884,147.84896709999884,147.84896709999884,147.84896709999884,147.84896709999884,,006,P017,2025_Mar_07_1635,ConditionRich,2021.2.3,59.93529385769683,
120.0,123.75,1,0.75,Stimuli/P017/sun_aawmwfqqbzauhqkb.jpg,1,1,1.75,0,52,52,52,,,,,,,,,,,,,120.00415919999796,0.00415919999795733,1,148.0991799000003,148.0991799000003,148.0991799000003,148.0991799000003,148.0991799000003,148.0991799000003,149.0833831000018,149.8340571000008,148.0991799000003,148.0991799000003,1.3571568999977899,006,P017,2025_Mar_07_1635,ConditionRich,2021.2.3,59.93529385769683,
123.75,124.0,41,0.0,Stimuli/Blank.png,0,0,0.0,0,53,53,53,,,,,,,,,,,,,123.75850870000068,0.008508700000675162,None,151.85251870000138,151.85251870000138,151.85251870000138,151.85251870000138,151.85251870000138,151.85251870000138,151.85251870000138,151.85251870000138,151.85251870000138,151.85251870000138,,006,P017,2025_Mar_07_1635,ConditionRich,2021.2.3,59.93529385769683,
124.0,127.75,13,0.75,Stimuli/P017/sun_bizqwyomkqigheyx.jpg,0,0,0.0,0,54,54,54,,,,,,,,,,,,,124.00884890000088,0.008848900000884896,None,152.10272009999971,152.10272009999971,152.10272009999971,152.10272009999971,152.10272009999971,152.10272009999971,152.10272009999971,152.10272009999971,152.10272009999971,152.10272009999971,,006,P017,2025_Mar_07_1635,ConditionRich,2021.2.3,59.93529385769683,
127.75,128.0,41,0.0,Stimuli/Blank.png,0,0,0.0,0,55,55,55,,,,,,,,,,,,,127.76088460000028,0.010884600000281353,None,155.85604840000087,155.85604840000087,155.85604840000087,155.85604840000087,155.85604840000087,155.85604840000087,155.85604840000087,155.85604840000087,155.85604840000087,155.85604840000087,,006,P017,2025_Mar_07_1635,ConditionRich,2021.2.3,59.93529385769683,
128.0,131.75,36,0.75,Stimuli/P017/things_nest_09s.jpg,0,0,0.0,0,56,56,56,,,,,,,,,,,,,128.01227649999782,0.01227649999782443,None,156.10625849999997,156.10625849999997,156.10625849999997,156.10625849999997,156.10625849999997,156.10625849999997,156.10625849999997,156.10625849999997,156.10625849999997,156.10625849999997,,006,P017,2025_Mar_07_1635,ConditionRich,2021.2.3,59.93529385769683,
131.75,132.0,41,0.0,Stimuli/Blank.png,0,0,0.0,0,57,57,57,,,,,,,,,,,,,131.76536829999895,0.015368299998954171,None,159.85958989999926,159.85958989999926,159.85958989999926,159.85958989999926,159.85958989999926,159.85958989999926,159.85958989999926,159.85958989999926,159.85958989999926,159.85958989999926,,006,P017,2025_Mar_07_1635,ConditionRich,2021.2.3,59.93529385769683,
132.0,135.75,22,0.75,Stimuli/P017/things_boat_09s.jpg,0,0,0.0,0,58,58,58,,,,,,,,,,,,,132.01491170000008,0.014911700000084238,None,160.10980310000014,160.10980310000014,160.10980310000014,160.10980310000014,160.10980310000014,160.10980310000014,160.10980310000014,160.10980310000014,160.10980310000014,160.10980310000014,,006,P017,2025_Mar_07_1635,ConditionRich,2021.2.3,59.93529385769683,
135.75,136.0,41,0.0,Stimuli/Blank.png,0,0,0.0,0,59,59,59,,,,,,,,,,,,,135.75291149999975,0.0029114999997545965,None,163.84644200000184,163.84644200000184,163.84644200000184,163.84644200000184,163.84644200000184,163.84644200000184,163.84644200000184,163.84644200000184,163.84644200000184,163.84644200000184,,006,P017,2025_Mar_07_1635,ConditionRich,2021.2.3,59.93529385769683,
136.0,139.75,3,0.75,Stimuli/P017/sun_acymmczhyuiimeub.jpg,1,2,2.75,0,60,60,60,,,,,,,,,,,,,136.00318409999818,0.0031840999981795903,1,164.11334500000157,164.11334500000157,164.11334500000157,164.11334500000157,164.11334500000157,164.11334500000157,166.08171180000136,166.83241310000085,164.11334500000157,164.11334500000157,2.313137100001768,006,P017,2025_Mar_07_1635,ConditionRich,2021.2.3,59.93529385769683,
139.75,140.0,41,0.0,Stimuli/Blank.png,0,0,0.0,0,61,61,61,,,,,,,,,,,,,139.7738621999997,0.023862199999712175,None,167.88334540000142,167.88334540000142,167.88334540000142,167.88334540000142,167.88334540000142,167.88334540000142,167.88334540000142,167.88334540000142,167.88334540000142,167.88334540000142,,006,P017,2025_Mar_07_1635,ConditionRich,2021.2.3,59.93529385769683,
140.0,143.75,7,0.75,Stimuli/P017/sun_auadhqmfjsjtjcue.jpg,0,0,0.0,0,62,62,62,,,,,,,,,,,,,140.02410229999805,0.024102299998048693,None,168.13356560000102,168.13356560000102,168.13356560000102,168.13356560000102,168.13356560000102,168.13356560000102,168.13356560000102,168.13356560000102,168.13356560000102,168.13356560000102,,006,P017,2025_Mar_07_1635,ConditionRich,2021.2.3,59.93529385769683,
143.75,144.0,41,0.0,Stimuli/Blank.png,0,0,0.0,0,63,63,63,,,,,,,,,,,,,143.77531729999828,0.02531729999827803,None,171.87021079999977,171.87021079999977,171.87021079999977,171.87021079999977,171.87021079999977,171.87021079999977,171.87021079999977,171.87021079999977,171.87021079999977,171.87021079999977,,006,P017,2025_Mar_07_1635,ConditionRich,2021.2.3,59.93529385769683,
144.0,147.75,37,0.75,Stimuli/P017/things_plastic_film_09s.jpg,0,0,0.0,0,64,64,64,,,,,,,,,,,,,144.00940099999934,0.009400999999343185,None,172.1037432000012,172.1037432000012,172.1037432000012,172.1037432000012,172.1037432000012,172.1037432000012,172.1037432000012,172.1037432000012,172.1037432000012,172.1037432000012,,006,P017,2025_Mar_07_1635,ConditionRich,2021.2.3,59.93529385769683,
147.75,148.0,41,0.0,Stimuli/Blank.png,0,0,0.0,0,65,65,65,,,,,,,,,,,,,147.7630590000008,0.013059000000794185,None,175.85706740000023,175.85706740000023,175.85706740000023,175.85706740000023,175.85706740000023,175.85706740000023,175.85706740000023,175.85706740000023,175.85706740000023,175.85706740000023,,006,P017,2025_Mar_07_1635,ConditionRich,2021.2.3,59.93529385769683,
148.0,151.75,31,0.75,Stimuli/P017/things_highchair_09s.jpg,0,0,0.0,0,66,66,66,,,,,,,,,,,,,148.0123323000007,0.012332300000707619,None,176.10727970000153,176.10727970000153,176.10727970000153,176.10727970000153,176.10727970000153,176.10727970000153,176.10727970000153,176.10727970000153,176.10727970000153,176.10727970000153,,006,P017,2025_Mar_07_1635,ConditionRich,2021.2.3,59.93529385769683,
151.75,152.0,41,0.0,Stimuli/Blank.png,0,0,0.0,0,67,67,67,,,,,,,,,,,,,151.76651850000053,0.016518500000529457,None,179.86060839999845,179.86060839999845,179.86060839999845,179.86060839999845,179.86060839999845,179.86060839999845,179.86060839999845,179.86060839999845,179.86060839999845,179.86060839999845,,006,P017,2025_Mar_07_1635,ConditionRich,2021.2.3,59.93529385769683,
152.0,155.75,17,0.75,Stimuli/P017/sun_brhndfjxyigqgiwl.jpg,1,2,2.75,0,68,68,68,,,,,,,,,,,,,151.99925099999746,-0.0007490000025427435,1,180.09413810000115,180.09413810000115,180.09413810000115,180.09413810000115,180.09413810000115,180.09413810000115,182.07922319999852,182.82989459999953,180.09413810000115,180.09413810000115,2.3862862000023597,006,P017,2025_Mar_07_1635,ConditionRich,2021.2.3,59.93529385769683,
155.75,156.0,41,0.0,Stimuli/Blank.png,0,0,0.0,0,69,69,69,,,,,,,,,,,,,155.7531338000008,0.0031338000007963274,None,183.84747050000078,183.84747050000078,183.84747050000078,183.84747050000078,183.84747050000078,183.84747050000078,183.84747050000078,183.84747050000078,183.84747050000078,183.84747050000078,,006,P017,2025_Mar_07_1635,ConditionRich,2021.2.3,59.93529385769683,
156.0,159.75,28,0.75,Stimuli/P017/things_collar_09s.jpg,0,0,0.0,0,70,70,70,,,,,,,,,,,,,156.00446219999867,0.004462199998670258,None,184.11436360000152,184.11436360000152,184.11436360000152,184.11436360000152,184.11436360000152,184.11436360000152,184.11436360000152,184.11436360000152,184.11436360000152,184.11436360000152,,006,P017,2025_Mar_07_1635,ConditionRich,2021.2.3,59.93529385769683,
159.75,160.0,41,0.0,Stimuli/Blank.png,0,0,0.0,0,71,71,71,,,,,,,,,,,,,159.77350239999942,0.023502399999415502,None,187.8676579000021,187.8676579000021,187.8676579000021,187.8676579000021,187.8676579000021,187.8676579000021,187.8676579000021,187.8676579000021,187.8676579000021,187.8676579000021,,006,P017,2025_Mar_07_1635,ConditionRich,2021.2.3,59.93529385769683,
160.0,163.75,12,0.75,Stimuli/P017/sun_bhvaiabdgxjuwoth.jpg,0,0,0.0,0,72,72,72,,,,,,,,,,,,,160.006919200001,0.006919200000993442,None,188.117908799999,188.117908799999,188.117908799999,188.117908799999,188.117908799999,188.117908799999,188.117908799999,188.117908799999,188.117908799999,188.117908799999,,006,P017,2025_Mar_07_1635,ConditionRich,2021.2.3,59.93529385769683,
163.75,164.0,41,0.0,Stimuli/Blank.png,0,0,0.0,0,73,73,73,,,,,,,,,,,,,163.77837670000008,0.028376700000080746,None,191.8879166000006,191.8879166000006,191.8879166000006,191.8879166000006,191.8879166000006,191.8879166000006,191.8879166000006,191.8879166000006,191.8879166000006,191.8879166000006,,006,P017,2025_Mar_07_1635,ConditionRich,2021.2.3,59.93529385769683,
164.0,167.75,5,0.75,Stimuli/P017/sun_apojgqgvdvsksdvo.jpg,0,0,0.0,0,74,74,74,,,,,,,,,,,,,164.02853669999968,0.028536699999676785,None,192.13813300000038,192.13813300000038,192.13813300000038,192.13813300000038,192.13813300000038,192.13813300000038,192.13813300000038,192.13813300000038,192.13813300000038,192.13813300000038,,006,P017,2025_Mar_07_1635,ConditionRich,2021.2.3,59.93529385769683,
167.75,168.0,41,0.0,Stimuli/Blank.png,0,0,0.0,0,75,75,75,,,,,,,,,,,,,167.78038050000032,0.030380500000319444,None,195.8747543999998,195.8747543999998,195.8747543999998,195.8747543999998,195.8747543999998,195.8747543999998,195.8747543999998,195.8747543999998,195.8747543999998,195.8747543999998,,006,P017,2025_Mar_07_1635,ConditionRich,2021.2.3,59.93529385769683,
168.0,171.75,32,0.75,Stimuli/P017/things_horse_09s.jpg,0,0,0.0,0,76,76,76,,,,,,,,,,,,,168.01452349999818,0.014523499998176703,None,196.12498720000076,196.12498720000076,196.12498720000076,196.12498720000076,196.12498720000076,196.12498720000076,196.12498720000076,196.12498720000076,196.12498720000076,196.12498720000076,,006,P017,2025_Mar_07_1635,ConditionRich,2021.2.3,59.93529385769683,
171.75,172.0,41,0.0,Stimuli/Blank.png,0,0,0.0,0,77,77,77,,,,,,,,,,,,,171.76955479999742,0.01955479999742238,None,199.8783086000003,199.8783086000003,199.8783086000003,199.8783086000003,199.8783086000003,199.8783086000003,199.8783086000003,199.8783086000003,199.8783086000003,199.8783086000003,,006,P017,2025_Mar_07_1635,ConditionRich,2021.2.3,59.93529385769683,
172.0,175.75,14,0.75,Stimuli/P017/sun_bljpqnfmmqkjsfvx.jpg,0,0,0.0,0,78,78,78,,,,,,,,,,,,,172.01941989999978,0.019419899999775225,None,200.12854169999991,200.12854169999991,200.12854169999991,200.12854169999991,200.12854169999991,200.12854169999991,200.12854169999991,200.12854169999991,200.12854169999991,200.12854169999991,,006,P017,2025_Mar_07_1635,ConditionRich,2021.2.3,59.93529385769683,
175.75,176.0,41,0.0,Stimuli/Blank.png,0,0,0.0,0,79,79,79,,,,,,,,,,,,,175.77091070000097,0.020910700000968063,None,203.8651565,203.8651565,203.8651565,203.8651565,203.8651565,203.8651565,203.8651565,203.8651565,203.8651565,203.8651565,,006,P017,2025_Mar_07_1635,ConditionRich,2021.2.3,59.93529385769683,
176.0,179.75,24,0.75,Stimuli/P017/things_breadbox_09s.jpg,0,0,0.0,0,80,80,80,,,,,,,,,,,,,176.005266199998,0.005266199998004595,None,204.1153856000019,204.1153856000019,204.1153856000019,204.1153856000019,204.1153856000019,204.1153856000019,204.1153856000019,204.1153856000019,204.1153856000019,204.1153856000019,,006,P017,2025_Mar_07_1635,ConditionRich,2021.2.3,59.93529385769683,
179.75,180.0,41,0.0,Stimuli/Blank.png,0,0,0.0,0,81,81,81,,,,,,,,,,,,,179.7752799000009,0.025279900000896305,None,207.86870679999993,207.86870679999993,207.86870679999993,207.86870679999993,207.86870679999993,207.86870679999993,207.86870679999993,207.86870679999993,207.86870679999993,207.86870679999993,,006,P017,2025_Mar_07_1635,ConditionRich,2021.2.3,59.93529385769683,
180.0,196.0,0,0.0,Stimuli/Blank.png,1,13,13.75,0,82,82,82,,,,,,,,,,,,,180.00825389999954,0.008253899999544956,1,208.10223970000152,208.10223970000152,208.10223970000152,208.10223970000152,208.10223970000152,208.10223970000152,221.09708160000082,221.84773829999904,208.10223970000152,208.10223970000152,13.31225700000141,006,P017,2025_Mar_07_1635,ConditionRich,2021.2.3,59.93529385769683,
196.0,199.75,38,0.75,Stimuli/P017/things_pony_09s.jpg,0,0,0.0,0,83,83,83,,,,,,,,,,,,,196.0053349000009,0.00533490000088932,None,224.09972570000173,224.09972570000173,224.09972570000173,224.09972570000173,224.09972570000173,224.09972570000173,224.09972570000173,224.09972570000173,224.09972570000173,224.09972570000173,,006,P017,2025_Mar_07_1635,ConditionRich,2021.2.3,59.93529385769683,
199.75,200.0,41,0.0,Stimuli/Blank.png,0,0,0.0,0,84,84,84,,,,,,,,,,,,,199.75932599999942,0.009325999999418855,None,227.85318030000053,227.85318030000053,227.85318030000053,227.85318030000053,227.85318030000053,227.85318030000053,227.85318030000053,227.85318030000053,227.85318030000053,227.85318030000053,,006,P017,2025_Mar_07_1635,ConditionRich,2021.2.3,59.93529385769683,
200.0,203.75,19,0.75,Stimuli/P017/sun_brrwzaypucosdcgt.jpg,0,0,0.0,0,85,85,85,,,,,,,,,,,,,200.00951279999936,0.009512799999356503,None,228.11991900000066,228.11991900000066,228.11991900000066,228.11991900000066,228.11991900000066,228.11991900000066,228.11991900000066,228.11991900000066,228.11991900000066,228.11991900000066,,006,P017,2025_Mar_07_1635,ConditionRich,2021.2.3,59.93529385769683,
203.75,204.0,41,0.0,Stimuli/Blank.png,0,0,0.0,0,86,86,86,,,,,,,,,,,,,203.77914659999806,0.029146599998057354,None,231.87326699999903,231.87326699999903,231.87326699999903,231.87326699999903,231.87326699999903,231.87326699999903,231.87326699999903,231.87326699999903,231.87326699999903,231.87326699999903,,006,P017,2025_Mar_07_1635,ConditionRich,2021.2.3,59.93529385769683,
204.0,207.75,20,0.75,Stimuli/P017/sun_buukivvfbfhosrng.jpg,0,0,0.0,0,87,87,87,,,,,,,,,,,,,204.01392710000073,0.013927100000728387,None,232.12348330000168,232.12348330000168,232.12348330000168,232.12348330000168,232.12348330000168,232.12348330000168,232.12348330000168,232.12348330000168,232.12348330000168,232.12348330000168,,006,P017,2025_Mar_07_1635,ConditionRich,2021.2.3,59.93529385769683,
207.75,208.0,41,0.0,Stimuli/Blank.png,0,0,0.0,0,88,88,88,,,,,,,,,,,,,207.76539069999853,0.015390699998533819,None,235.86011439999857,235.86011439999857,235.86011439999857,235.86011439999857,235.86011439999857,235.86011439999857,235.86011439999857,235.86011439999857,235.86011439999857,235.86011439999857,,006,P017,2025_Mar_07_1635,ConditionRich,2021.2.3,59.93529385769683,
208.0,211.75,23,0.75,Stimuli/P017/things_boy_09s.jpg,1,3,3.75,0,89,89,89,,,,,,,,,,,,,208.0155761999995,0.015576199999486562,1,236.11033400000088,236.11033400000088,236.11033400000088,236.11033400000088,236.11033400000088,236.11033400000088,239.09635740000158,None,236.11033400000088,236.11033400000088,3.4600219999992987,006,P017,2025_Mar_07_1635,ConditionRich,2021.2.3,59.93529385769683,
211.75,212.0,41,0.0,Stimuli/Blank.png,0,0,0.0,0,90,90,90,,,,,,,,,,,,,211.75292059999992,0.002920599999924889,None,239.8469828999987,239.8469828999987,239.8469828999987,239.8469828999987,239.8469828999987,239.8469828999987,239.8469828999987,239.8469828999987,239.8469828999987,239.8469828999987,,006,P017,2025_Mar_07_1635,ConditionRich,2021.2.3,59.93529385769683,
212.0,215.75,5,0.75,Stimuli/P017/sun_apojgqgvdvsksdvo.jpg,0,0,0.0,0,91,91,91,,,,,,,,,,,,,212.00251189999835,0.0025118999983533286,None,240.09719219999897,240.09719219999897,240.09719219999897,240.09719219999897,240.09719219999897,240.09719219999897,240.09719219999897,240.09719219999897,240.09719219999897,240.09719219999897,,006,P017,2025_Mar_07_1635,ConditionRich,2021.2.3,59.93529385769683,
215.75,216.0,41,0.0,Stimuli/Blank.png,0,0,0.0,0,92,92,92,,,,,,,,,,,,,215.7584719000006,0.008471900000586174,None,243.86720440000136,243.86720440000136,243.86720440000136,243.86720440000136,243.86720440000136,243.86720440000136,243.86720440000136,243.86720440000136,243.86720440000136,243.86720440000136,,006,P017,2025_Mar_07_1635,ConditionRich,2021.2.3,59.93529385769683,
216.0,219.75,6,0.75,Stimuli/P017/sun_atuyvunnykjurjgx.jpg,0,0,0.0,0,93,93,93,,,,,,,,,,,,,216.02307409999776,0.023074099997757003,None,244.1340992000005,244.1340992000005,244.1340992000005,244.1340992000005,244.1340992000005,244.1340992000005,244.1340992000005,244.1340992000005,244.1340992000005,244.1340992000005,,006,P017,2025_Mar_07_1635,ConditionRich,2021.2.3,59.93529385769683,
219.75,220.0,41,0.0,Stimuli/Blank.png,0,0,0.0,0,94,94,94,,,,,,,,,,,,,219.77569289999883,0.0256928999988304,None,247.8706983000011,247.8706983000011,247.8706983000011,247.8706983000011,247.8706983000011,247.8706983000011,247.8706983000011,247.8706983000011,247.8706983000011,247.8706983000011,,006,P017,2025_Mar_07_1635,ConditionRich,2021.2.3,59.93529385769683,
220.0,223.75,8,0.75,Stimuli/P017/sun_axsmqyyvebrcuhkn.jpg,0,0,0.0,0,95,95,95,,,,,,,,,,,,,220.00946889999977,0.009468899999774294,None,248.10426799999914,248.10426799999914,248.10426799999914,248.10426799999914,248.10426799999914,248.10426799999914,248.10426799999914,248.10426799999914,248.10426799999914,248.10426799999914,,006,P017,2025_Mar_07_1635,ConditionRich,2021.2.3,59.93529385769683,
223.75,224.0,41,0.0,Stimuli/Blank.png,0,0,0.0,0,96,96,96,,,,,,,,,,,,,223.76263149999795,0.012631499997951323,None,251.85760179999852,251.85760179999852,251.85760179999852,251.85760179999852,251.85760179999852,251.85760179999852,251.85760179999852,251.85760179999852,251.85760179999852,251.85760179999852,,006,P017,2025_Mar_07_1635,ConditionRich,2021.2.3,59.93529385769683,
224.0,227.75,12,0.75,Stimuli/P017/sun_bhvaiabdgxjuwoth.jpg,1,2,2.75,0,97,97,97,,,,,,,,,,,,,224.01304660000096,0.013046600000961917,1,252.10781750000024,252.10781750000024,252.10781750000024,252.10781750000024,252.10781750000024,252.10781750000024,254.09289699999863,254.84356919999846,252.10781750000024,252.10781750000024,2.351509600001009,006,P017,2025_Mar_07_1635,ConditionRich,2021.2.3,59.93529385769683,
227.75,228.0,41,0.0,Stimuli/Blank.png,0,0,0.0,0,98,98,98,,,,,,,,,,,,,227.74942290000035,-0.0005770999996457249,None,255.8444496000011,255.8444496000011,255.8444496000011,255.8444496000011,255.8444496000011,255.8444496000011,255.8444496000011,255.8444496000011,255.8444496000011,255.8444496000011,,006,P017,2025_Mar_07_1635,ConditionRich,2021.2.3,59.93529385769683,
228.0,231.75,28,0.75,Stimuli/P017/things_collar_09s.jpg,0,0,0.0,0,99,99,99,,,,,,,,,,,,,228.00030669999978,0.00030669999978272244,None,256.11135769999964,256.11135769999964,256.11135769999964,256.11135769999964,256.11135769999964,256.11135769999964,256.11135769999964,256.11135769999964,256.11135769999964,256.11135769999964,,006,P017,2025_Mar_07_1635,ConditionRich,2021.2.3,59.93529385769683,
231.75,232.0,41,0.0,Stimuli/Blank.png,0,0,0.0,0,100,100,100,,,,,,,,,,,,,231.77075830000103,0.020758300001034513,None,259.864674299999,259.864674299999,259.864674299999,259.864674299999,259.864674299999,259.864674299999,259.864674299999,259.864674299999,259.864674299999,259.864674299999,,006,P017,2025_Mar_07_1635,ConditionRich,2021.2.3,59.93529385769683,
232.0,235.75,4,0.75,Stimuli/P017/sun_aibvvqlmlsjnrgdj.jpg,0,0,0.0,0,101,101,101,,,,,,,,,,,,,232.00441429999773,0.004414299997733906,None,260.1148901000015,260.1148901000015,260.1148901000015,260.1148901000015,260.1148901000015,260.1148901000015,260.1148901000015,260.1148901000015,260.1148901000015,260.1148901000015,,006,P017,2025_Mar_07_1635,ConditionRich,2021.2.3,59.93529385769683,
235.75,236.0,41,0.0,Stimuli/Blank.png,0,0,0.0,0,102,102,102,,,,,,,,,,,,,235.77376809999987,0.023768099999870174,None,263.868351000001,263.868351000001,263.868351000001,263.868351000001,263.868351000001,263.868351000001,263.868351000001,263.868351000001,263.868351000001,263.868351000001,,006,P017,2025_Mar_07_1635,ConditionRich,2021.2.3,59.93529385769683,
236.0,239.75,25,0.75,Stimuli/P017/things_cannonball_09s.jpg,0,0,0.0,0,103,103,103,,,,,,,,,,,,,236.00893279999946,0.00893279999945662,None,264.1185841000006,264.1185841000006,264.1185841000006,264.1185841000006,264.1185841000006,264.1185841000006,264.1185841000006,264.1185841000006,264.1185841000006,264.1185841000006,,006,P017,2025_Mar_07_1635,ConditionRich,2021.2.3,59.93529385769683,
239.75,240.0,41,0.0,Stimuli/Blank.png,0,0,0.0,0,104,104,104,,,,,,,,,,,,,239.77950480000072,0.029504800000722753,None,267.8884625999999,267.8884625999999,267.8884625999999,267.8884625999999,267.8884625999999,267.8884625999999,267.8884625999999,267.8884625999999,267.8884625999999,267.8884625999999,,006,P017,2025_Mar_07_1635,ConditionRich,2021.2.3,59.93529385769683,
240.0,243.75,24,0.75,Stimuli/P017/things_breadbox_09s.jpg,1,2,2.75,0,105,105,105,,,,,,,,,,,,,240.02892589999828,0.028925899998284876,1,268.13865609999993,268.13865609999993,268.13865609999993,268.13865609999993,268.13865609999993,268.13865609999993,270.1237414999996,270.87444400000095,268.13865609999993,268.13865609999993,2.384820300001593,006,P017,2025_Mar_07_1635,ConditionRich,2021.2.3,59.93529385769683,
243.75,244.0,41,0.0,Stimuli/Blank.png,0,0,0.0,0,106,106,106,,,,,,,,,,,,,243.78034829999888,0.030348299998877337,None,271.87528759999987,271.87528759999987,271.87528759999987,271.87528759999987,271.87528759999987,271.87528759999987,271.87528759999987,271.87528759999987,271.87528759999987,271.87528759999987,,006,P017,2025_Mar_07_1635,ConditionRich,2021.2.3,59.93529385769683,
244.0,247.75,22,0.75,Stimuli/P017/things_boat_09s.jpg,0,0,0.0,0,107,107,107,,,,,,,,,,,,,244.01465299999836,0.014652999998361338,None,272.1088357000008,272.1088357000008,272.1088357000008,272.1088357000008,272.1088357000008,272.1088357000008,272.1088357000008,272.1088357000008,272.1088357000008,272.1088357000008,,006,P017,2025_Mar_07_1635,ConditionRich,2021.2.3,59.93529385769683,
247.75,248.0,41,0.0,Stimuli/Blank.png,0,0,0.0,0,108,108,108,,,,,,,,,,,,,247.75344100000075,0.0034410000007483177,None,275.8621579999999,275.8621579999999,275.8621579999999,275.8621579999999,275.8621579999999,275.8621579999999,275.8621579999999,275.8621579999999,275.8621579999999,275.8621579999999,,006,P017,2025_Mar_07_1635,ConditionRich,2021.2.3,59.93529385769683,
248.0,251.75,13,0.75,Stimuli/P017/sun_bizqwyomkqigheyx.jpg,1,2,2.75,0,109,109,109,,,,,,,,,,,,,248.01904609999838,0.01904609999837703,1,276.12907840000116,276.12907840000116,276.12907840000116,276.12907840000116,276.12907840000116,276.12907840000116,278.0974662000008,278.84812239999883,276.12907840000116,276.12907840000116,2.4772876999995788,006,P017,2025_Mar_07_1635,ConditionRich,2021.2.3,59.93529385769683,
251.75,252.0,41,0.0,Stimuli/Blank.png,0,0,0.0,0,110,110,110,,,,,,,,,,,,,251.77071609999985,0.020716099999845028,None,279.8656636000014,279.8656636000014,279.8656636000014,279.8656636000014,279.8656636000014,279.8656636000014,279.8656636000014,279.8656636000014,279.8656636000014,279.8656636000014,,006,P017,2025_Mar_07_1635,ConditionRich,2021.2.3,59.93529385769683,
252.0,255.75,18,0.75,Stimuli/P017/sun_brrvvswweljrvnlq.jpg,0,0,0.0,0,111,111,111,,,,,,,,,,,,,252.00474349999786,0.004743499997857725,None,280.09922860000006,280.09922860000006,280.09922860000006,280.09922860000006,280.09922860000006,280.09922860000006,280.09922860000006,280.09922860000006,280.09922860000006,280.09922860000006,,006,P017,2025_Mar_07_1635,ConditionRich,2021.2.3,59.93529385769683,
255.75,256.0,41,0.0,Stimuli/Blank.png,0,0,0.0,0,112,112,112,,,,,,,,,,,,,255.75855899999806,0.008558999998058425,None,283.85255490000054,283.85255490000054,283.85255490000054,283.85255490000054,283.85255490000054,283.85255490000054,283.85255490000054,283.85255490000054,283.85255490000054,283.85255490000054,,006,P017,2025_Mar_07_1635,ConditionRich,2021.2.3,59.93529385769683,
256.0,259.75,17,0.75,Stimuli/P017/sun_brhndfjxyigqgiwl.jpg,0,0,0.0,0,113,113,113,,,,,,,,,,,,,256.0085059999983,0.008505999998305924,None,284.10277230000065,284.10277230000065,284.10277230000065,284.10277230000065,284.10277230000065,284.10277230000065,284.10277230000065,284.10277230000065,284.10277230000065,284.10277230000065,,006,P017,2025_Mar_07_1635,ConditionRich,2021.2.3,59.93529385769683,
259.75,260.0,41,0.0,Stimuli/Blank.png,0,0,0.0,0,114,114,114,,,,,,,,,,,,,259.7610636999998,0.011063699999795062,None,287.85615719999987,287.85615719999987,287.85615719999987,287.85615719999987,287.85615719999987,287.85615719999987,287.85615719999987,287.85615719999987,287.85615719999987,287.85615719999987,,006,P017,2025_Mar_07_1635,ConditionRich,2021.2.3,59.93529385769683,
260.0,263.75,29,0.75,Stimuli/P017/things_face_09s.jpg,0,0,0.0,0,115,115,115,,,,,,,,,,,,,260.0133633000005,0.013363300000492018,None,288.1230011000007,288.1230011000007,288.1230011000007,288.1230011000007,288.1230011000007,288.1230011000007,288.1230011000007,288.1230011000007,288.1230011000007,288.1230011000007,,006,P017,2025_Mar_07_1635,ConditionRich,2021.2.3,59.93529385769683,
263.75,264.0,41,0.0,Stimuli/Blank.png,0,0,0.0,0,116,116,116,,,,,,,,,,,,,263.76462209999954,0.014622099999542115,None,291.8596299000019,291.8596299000019,291.8596299000019,291.8596299000019,291.8596299000019,291.8596299000019,291.8596299000019,291.8596299000019,291.8596299000019,291.8596299000019,,006,P017,2025_Mar_07_1635,ConditionRich,2021.2.3,59.93529385769683,
264.0,267.75,33,0.75,Stimuli/P017/things_lamb_09s.jpg,0,0,0.0,0,117,117,117,,,,,,,,,,,,,264.01551579999796,0.015515799997956492,None,292.10984480000116,292.10984480000116,292.10984480000116,292.10984480000116,292.10984480000116,292.10984480000116,292.10984480000116,292.10984480000116,292.10984480000116,292.10984480000116,,006,P017,2025_Mar_07_1635,ConditionRich,2021.2.3,59.93529385769683,
267.75,268.0,41,0.0,Stimuli/Blank.png,0,0,0.0,0,118,118,118,,,,,,,,,,,,,267.753545399999,0.0035453999989840668,None,295.8631467000014,295.8631467000014,295.8631467000014,295.8631467000014,295.8631467000014,295.8631467000014,295.8631467000014,295.8631467000014,295.8631467000014,295.8631467000014,,006,P017,2025_Mar_07_1635,ConditionRich,2021.2.3,59.93529385769683,
268.0,271.75,9,0.75,Stimuli/P017/sun_ayidxslzurdumeps.jpg,0,0,0.0,0,119,119,119,,,,,,,,,,,,,268.019131699999,0.019131699998979457,None,296.1133861999988,296.1133861999988,296.1133861999988,296.1133861999988,296.1133861999988,296.1133861999988,296.1133861999988,296.1133861999988,296.1133861999988,296.1133861999988,,006,P017,2025_Mar_07_1635,ConditionRich,2021.2.3,59.93529385769683,
271.75,272.0,41,0.0,Stimuli/Blank.png,0,0,0.0,0,120,120,120,,,,,,,,,,,,,271.7554076999986,0.00540769999861368,None,299.8500157999988,299.8500157999988,299.8500157999988,299.8500157999988,299.8500157999988,299.8500157999988,299.8500157999988,299.8500157999988,299.8500157999988,299.8500157999988,,006,P017,2025_Mar_07_1635,ConditionRich,2021.2.3,59.93529385769683,
272.0,275.75,32,0.75,Stimuli/P017/things_horse_09s.jpg,0,0,0.0,0,121,121,121,,,,,,,,,,,,,272.005821499999,0.005821499999001389,None,300.11694759999955,300.11694759999955,300.11694759999955,300.11694759999955,300.11694759999955,300.11694759999955,300.11694759999955,300.11694759999955,300.11694759999955,300.11694759999955,,006,P017,2025_Mar_07_1635,ConditionRich,2021.2.3,59.93529385769683,
275.75,276.0,41,0.0,Stimuli/Blank.png,0,0,0.0,0,122,122,122,,,,,,,,,,,,,275.7759358000003,0.025935800000297604,None,303.8702424000003,303.8702424000003,303.8702424000003,303.8702424000003,303.8702424000003,303.8702424000003,303.8702424000003,303.8702424000003,303.8702424000003,303.8702424000003,,006,P017,2025_Mar_07_1635,ConditionRich,2021.2.3,59.93529385769683,
276.0,292.0,0,0.0,Stimuli/Blank.png,1,12,12.75,0,123,123,123,,,,,,,,,,,,,276.0095717999975,0.00957179999750224,1,304.1037957000008,304.1037957000008,304.1037957000008,304.1037957000008,304.1037957000008,304.1037957000008,316.09772330000123,316.83167559999856,304.1037957000008,304.1037957000008,12.43759250000221,006,P017,2025_Mar_07_1635,ConditionRich,2021.2.3,59.93529385769683,
292.0,295.75,27,0.75,Stimuli/P017/things_coffin_09s.jpg,1,1,1.75,0,124,124,124,,,,,,,,,,,,,292.0088011000007,0.008801100000709994,1,320.11795110000094,320.11795110000094,320.11795110000094,320.11795110000094,320.11795110000094,320.11795110000094,321.10215009999956,321.8528169000019,320.11795110000094,320.11795110000094,1.3783694999983709,006,P017,2025_Mar_07_1635,ConditionRich,2021.2.3,59.93529385769683,
295.75,296.0,41,0.0,Stimuli/Blank.png,0,0,0.0,0,125,125,125,,,,,,,,,,,,,295.77896340000007,0.02896340000006603,None,323.8879530000013,323.8879530000013,323.8879530000013,323.8879530000013,323.8879530000013,323.8879530000013,323.8879530000013,323.8879530000013,323.8879530000013,323.8879530000013,,006,P017,2025_Mar_07_1635,ConditionRich,2021.2.3,59.93529385769683,
296.0,299.75,36,0.75,Stimuli/P017/things_nest_09s.jpg,0,0,0.0,0,126,126,126,,,,,,,,,,,,,296.0294866000004,0.029486600000382168,None,324.1381798000002,324.1381798000002,324.1381798000002,324.1381798000002,324.1381798000002,324.1381798000002,324.1381798000002,324.1381798000002,324.1381798000002,324.1381798000002,,006,P017,2025_Mar_07_1635,ConditionRich,2021.2.3,59.93529385769683,
299.75,300.0,41,0.0,Stimuli/Blank.png,0,0,0.0,0,127,127,127,,,,,,,,,,,,,299.76415169999746,0.01415169999745558,None,327.8581273000018,327.8581273000018,327.8581273000018,327.8581273000018,327.8581273000018,327.8581273000018,327.8581273000018,327.8581273000018,327.8581273000018,327.8581273000018,,006,P017,2025_Mar_07_1635,ConditionRich,2021.2.3,59.93529385769683,
300.0,303.75,10,0.75,Stimuli/P017/sun_bayxprasninnrnle.jpg,1,1,1.75,0,128,128,128,,,,,,,,,,,,,300.01398530000006,0.013985300000058487,1,328.1250380999991,328.1250380999991,328.1250380999991,328.1250380999991,328.1250380999991,328.1250380999991,329.0925563000019,329.84320899999875,328.1250380999991,328.1250380999991,1.3435121000002255,006,P017,2025_Mar_07_1635,ConditionRich,2021.2.3,59.93529385769683,
303.75,304.0,41,0.0,Stimuli/Blank.png,0,0,0.0,0,129,129,129,,,,,,,,,,,,,303.76910080000016,0.019100800000160234,None,331.87835610000184,331.87835610000184,331.87835610000184,331.87835610000184,331.87835610000184,331.87835610000184,331.87835610000184,331.87835610000184,331.87835610000184,331.87835610000184,,006,P017,2025_Mar_07_1635,ConditionRich,2021.2.3,59.93529385769683,
304.0,307.75,3,0.75,Stimuli/P017/sun_acymmczhyuiimeub.jpg,1,2,2.75,0,130,130,130,,,,,,,,,,,,,304.0188774999988,0.018877499998779967,1,332.12857520000034,332.12857520000034,332.12857520000034,332.12857520000034,332.12857520000034,332.12857520000034,334.11369339999874,334.8643652999999,332.12857520000034,332.12857520000034,2.377117800002452,006,P017,2025_Mar_07_1635,ConditionRich,2021.2.3,59.93529385769683,
307.75,308.0,41,0.0,Stimuli/Blank.png,0,0,0.0,0,131,131,131,,,,,,,,,,,,,307.7710146999998,0.021014699999795994,None,335.8652067000003,335.8652067000003,335.8652067000003,335.8652067000003,335.8652067000003,335.8652067000003,335.8652067000003,335.8652067000003,335.8652067000003,335.8652067000003,,006,P017,2025_Mar_07_1635,ConditionRich,2021.2.3,59.93529385769683,
308.0,311.75,16,0.75,Stimuli/P017/sun_brfwxjsnmauhmfzf.jpg,0,0,0.0,0,132,132,132,,,,,,,,,,,,,308.00392889999785,0.003928899997845292,None,336.0987404000007,336.0987404000007,336.0987404000007,336.0987404000007,336.0987404000007,336.0987404000007,336.0987404000007,336.0987404000007,336.0987404000007,336.0987404000007,,006,P017,2025_Mar_07_1635,ConditionRich,2021.2.3,59.93529385769683,
311.75,312.0,41,0.0,Stimuli/Blank.png,0,0,0.0,0,133,133,133,,,,,,,,,,,,,311.7589678000004,0.008967800000391435,None,339.8687437000008,339.8687437000008,339.8687437000008,339.8687437000008,339.8687437000008,339.8687437000008,339.8687437000008,339.8687437000008,339.8687437000008,339.8687437000008,,006,P017,2025_Mar_07_1635,ConditionRich,2021.2.3,59.93529385769683,
312.0,315.75,1,0.75,Stimuli/P017/sun_aawmwfqqbzauhqkb.jpg,0,0,0.0,0,134,134,134,,,,,,,,,,,,,312.0238791999982,0.023879199998191325,None,340.11896089999937,340.11896089999937,340.11896089999937,340.11896089999937,340.11896089999937,340.11896089999937,340.11896089999937,340.11896089999937,340.11896089999937,340.11896089999937,,006,P017,2025_Mar_07_1635,ConditionRich,2021.2.3,59.93529385769683,
315.75,316.0,41,0.0,Stimuli/Blank.png,0,0,0.0,0,135,135,135,,,,,,,,,,,,,315.7605530000001,0.010553000000072643,None,343.85560089999854,343.85560089999854,343.85560089999854,343.85560089999854,343.85560089999854,343.85560089999854,343.85560089999854,343.85560089999854,343.85560089999854,343.85560089999854,,006,P017,2025_Mar_07_1635,ConditionRich,2021.2.3,59.93529385769683,
316.0,319.75,21,0.75,Stimuli/P017/things_baby_09s.jpg,0,0,0.0,0,136,136,136,,,,,,,,,,,,,316.01213199999984,0.012131999999837717,None,344.1225075000002,344.1225075000002,344.1225075000002,344.1225075000002,344.1225075000002,344.1225075000002,344.1225075000002,344.1225075000002,344.1225075000002,344.1225075000002,,006,P017,2025_Mar_07_1635,ConditionRich,2021.2.3,59.93529385769683,
319.75,320.0,41,0.0,Stimuli/Blank.png,0,0,0.0,0,137,137,137,,,,,,,,,,,,,319.7839908999995,0.03399089999948046,None,347.8925096999992,347.8925096999992,347.8925096999992,347.8925096999992,347.8925096999992,347.8925096999992,347.8925096999992,347.8925096999992,347.8925096999992,347.8925096999992,,006,P017,2025_Mar_07_1635,ConditionRich,2021.2.3,59.93529385769683,
320.0,323.75,26,0.75,Stimuli/P017/things_chandelier_09s.jpg,1,0,0.75,0,138,138,138,,,,,,,,,,,,,320.01461890000064,0.014618900000641588,1,348.10936370000127,348.10936370000127,348.10936370000127,348.10936370000127,348.10936370000127,348.10936370000127,348.10936370000127,348.8433377000001,348.10936370000127,348.10936370000127,0.5959672999997565,006,P017,2025_Mar_07_1635,ConditionRich,2021.2.3,59.93529385769683,
323.75,324.0,41,0.0,Stimuli/Blank.png,0,0,0.0,0,139,139,139,,,,,,,,,,,,,323.7536623999986,0.0036623999985749833,None,351.8626820999998,351.8626820999998,351.8626820999998,351.8626820999998,351.8626820999998,351.8626820999998,351.8626820999998,351.8626820999998,351.8626820999998,351.8626820999998,,006,P017,2025_Mar_07_1635,ConditionRich,2021.2.3,59.93529385769683,
324.0,327.75,15,0.75,Stimuli/P017/sun_bobznlnnzwznersx.jpg,0,0,0.0,0,140,140,140,,,,,,,,,,,,,324.01892640000005,0.018926400000054855,1,352.1295960999996,352.1295960999996,352.1295960999996,352.1295960999996,352.1295960999996,352.1295960999996,352.1295960999996,352.1295960999996,352.1295960999996,352.1295960999996,2.8900963999985834,006,P017,2025_Mar_07_1635,ConditionRich,2021.2.3,59.93529385769683,
327.75,328.0,41,0.0,Stimuli/Blank.png,0,0,0.0,0,141,141,141,,,,,,,,,,,,,327.77121070000067,0.021210700000665383,None,355.8662242999999,355.8662242999999,355.8662242999999,355.8662242999999,355.8662242999999,355.8662242999999,355.8662242999999,355.8662242999999,355.8662242999999,355.8662242999999,,006,P017,2025_Mar_07_1635,ConditionRich,2021.2.3,59.93529385769683,
328.0,331.75,34,0.75,Stimuli/P017/things_llama_09s.jpg,0,0,0.0,0,142,142,142,,,,,,,,,,,,,328.00563089999923,0.005630899999232497,None,356.0997524000013,356.0997524000013,356.0997524000013,356.0997524000013,356.0997524000013,356.0997524000013,356.0997524000013,356.0997524000013,356.0997524000013,356.0997524000013,,006,P017,2025_Mar_07_1635,ConditionRich,2021.2.3,59.93529385769683,
331.75,332.0,41,0.0,Stimuli/Blank.png,0,0,0.0,0,143,143,143,,,,,,,,,,,,,331.75915449999957,0.009154499999567633,None,359.8530823000001,359.8530823000001,359.8530823000001,359.8530823000001,359.8530823000001,359.8530823000001,359.8530823000001,359.8530823000001,359.8530823000001,359.8530823000001,,006,P017,2025_Mar_07_1635,ConditionRich,2021.2.3,59.93529385769683,
332.0,335.75,11,0.75,Stimuli/P017/sun_bdzxsadvniuolmio.jpg,0,0,0.0,0,144,144,144,,,,,,,,,,,,,332.0091601999993,0.0091601999993145,None,360.1200095999993,360.1200095999993,360.1200095999993,360.1200095999993,360.1200095999993,360.1200095999993,360.1200095999993,360.1200095999993,360.1200095999993,360.1200095999993,,006,P017,2025_Mar_07_1635,ConditionRich,2021.2.3,59.93529385769683,
335.75,336.0,41,0.0,Stimuli/Blank.png,0,0,0.0,0,145,145,145,,,,,,,,,,,,,335.77832579999813,0.028325799998128787,None,363.8733022000015,363.8733022000015,363.8733022000015,363.8733022000015,363.8733022000015,363.8733022000015,363.8733022000015,363.8733022000015,363.8733022000015,363.8733022000015,,006,P017,2025_Mar_07_1635,ConditionRich,2021.2.3,59.93529385769683,
336.0,339.75,2,0.75,Stimuli/P017/sun_acliytrpktltxwsx.jpg,0,0,0.0,0,146,146,146,,,,,,,,,,,,,336.01405499999964,0.014054999999643769,None,364.12353860000076,364.12353860000076,364.12353860000076,364.12353860000076,364.12353860000076,364.12353860000076,364.12353860000076,364.12353860000076,364.12353860000076,364.12353860000076,,006,P017,2025_Mar_07_1635,ConditionRich,2021.2.3,59.93529385769683,
339.75,340.0,41,0.0,Stimuli/Blank.png,0,0,0.0,0,147,147,147,,,,,,,,,,,,,339.7657102999983,0.015710299998318078,None,367.8601213000002,367.8601213000002,367.8601213000002,367.8601213000002,367.8601213000002,367.8601213000002,367.8601213000002,367.8601213000002,367.8601213000002,367.8601213000002,,006,P017,2025_Mar_07_1635,ConditionRich,2021.2.3,59.93529385769683,
340.0,343.75,30,0.75,Stimuli/P017/things_girl_09s.jpg,0,0,0.0,0,148,148,148,,,,,,,,,,,,,340.0003739999993,0.00037399999928311445,None,368.1103769000001,368.1103769000001,368.1103769000001,368.1103769000001,368.1103769000001,368.1103769000001,368.1103769000001,368.1103769000001,368.1103769000001,368.1103769000001,,006,P017,2025_Mar_07_1635,ConditionRich,2021.2.3,59.93529385769683,
343.75,344.0,41,0.0,Stimuli/Blank.png,0,0,0.0,0,149,149,149,,,,,,,,,,,,,343.7688414999975,0.018841499997506617,None,371.86369900000136,371.86369900000136,371.86369900000136,371.86369900000136,371.86369900000136,371.86369900000136,371.86369900000136,371.86369900000136,371.86369900000136,371.86369900000136,,006,P017,2025_Mar_07_1635,ConditionRich,2021.2.3,59.93529385769683,
344.0,347.75,37,0.75,Stimuli/P017/things_plastic_film_09s.jpg,0,0,0.0,0,150,150,150,,,,,,,,,,,,,344.003217999998,0.0032179999980144203,None,372.09725289999915,372.09725289999915,372.09725289999915,372.09725289999915,372.09725289999915,372.09725289999915,372.09725289999915,372.09725289999915,372.09725289999915,372.09725289999915,,006,P017,2025_Mar_07_1635,ConditionRich,2021.2.3,59.93529385769683,
347.75,348.0,41,0.0,Stimuli/Blank.png,0,0,0.0,0,151,151,151,,,,,,,,,,,,,347.75633599999856,0.006335999998555053,None,375.8505718999986,375.8505718999986,375.8505718999986,375.8505718999986,375.8505718999986,375.8505718999986,375.8505718999986,375.8505718999986,375.8505718999986,375.8505718999986,,006,P017,2025_Mar_07_1635,ConditionRich,2021.2.3,59.93529385769683,
348.0,351.75,39,0.75,Stimuli/P017/things_veil_09s.jpg,0,0,0.0,0,152,152,152,,,,,,,,,,,,,348.00668479999877,0.006684799998765811,None,376.1174213000013,376.1174213000013,376.1174213000013,376.1174213000013,376.1174213000013,376.1174213000013,376.1174213000013,376.1174213000013,376.1174213000013,376.1174213000013,,006,P017,2025_Mar_07_1635,ConditionRich,2021.2.3,59.93529385769683,
351.75,352.0,41,0.0,Stimuli/Blank.png,0,0,0.0,0,153,153,153,,,,,,,,,,,,,351.7760911000005,0.026091100000485312,None,379.87077040000077,379.87077040000077,379.87077040000077,379.87077040000077,379.87077040000077,379.87077040000077,379.87077040000077,379.87077040000077,379.87077040000077,379.87077040000077,,006,P017,2025_Mar_07_1635,ConditionRich,2021.2.3,59.93529385769683,
352.0,355.75,35,0.75,Stimuli/P017/things_lobster_09s.jpg,0,0,0.0,0,154,154,154,,,,,,,,,,,,,352.0098613000009,0.009861300000920892,None,380.10431529999914,380.10431529999914,380.10431529999914,380.10431529999914,380.10431529999914,380.10431529999914,380.10431529999914,380.10431529999914,380.10431529999914,380.10431529999914,,006,P017,2025_Mar_07_1635,ConditionRich,2021.2.3,59.93529385769683,
355.75,356.0,41,0.0,Stimuli/Blank.png,0,0,0.0,0,155,155,155,,,,,,,,,,,,,355.76336309999897,0.013363099998969119,None,383.8576318000014,383.8576318000014,383.8576318000014,383.8576318000014,383.8576318000014,383.8576318000014,383.8576318000014,383.8576318000014,383.8576318000014,383.8576318000014,,006,P017,2025_Mar_07_1635,ConditionRich,2021.2.3,59.93529385769683,
356.0,359.75,14,0.75,Stimuli/P017/sun_bljpqnfmmqkjsfvx.jpg,0,0,0.0,0,156,156,156,,,,,,,,,,,,,356.0130849999987,0.013084999998682179,None,384.10784670000066,384.10784670000066,384.10784670000066,384.10784670000066,384.10784670000066,384.10784670000066,384.10784670000066,384.10784670000066,384.10784670000066,384.10784670000066,,006,P017,2025_Mar_07_1635,ConditionRich,2021.2.3,59.93529385769683,
359.75,360.0,41,0.0,Stimuli/Blank.png,0,0,0.0,0,157,157,157,,,,,,,,,,,,,359.7499859999989,-1.4000001101521775e-05,None,387.84449510000195,387.84449510000195,387.84449510000195,387.84449510000195,387.84449510000195,387.84449510000195,387.84449510000195,387.84449510000195,387.84449510000195,387.84449510000195,,006,P017,2025_Mar_07_1635,ConditionRich,2021.2.3,59.93529385769683,
360.0,363.75,31,0.75,Stimuli/P017/things_highchair_09s.jpg,1,1,1.75,0,158,158,158,,,,,,,,,,,,,360.00035429999843,0.00035429999843472615,1,388.1114024000017,388.1114024000017,388.1114024000017,388.1114024000017,388.1114024000017,388.1114024000017,389.0789541000013,389.8296147000001,388.1114024000017,388.1114024000017,1.40198109999983,006,P017,2025_Mar_07_1635,ConditionRich,2021.2.3,59.93529385769683,
363.75,364.0,41,0.0,Stimuli/Blank.png,0,0,0.0,0,159,159,159,,,,,,,,,,,,,363.7705472999987,0.020547299998725066,None,391.8647057999988,391.8647057999988,391.8647057999988,391.8647057999988,391.8647057999988,391.8647057999988,391.8647057999988,391.8647057999988,391.8647057999988,391.8647057999988,,006,P017,2025_Mar_07_1635,ConditionRich,2021.2.3,59.93529385769683,
364.0,367.75,7,0.75,Stimuli/P017/sun_auadhqmfjsjtjcue.jpg,0,0,0.0,0,160,160,160,,,,,,,,,,,,,364.0036235000007,0.0036235000006854534,None,392.09824970000045,392.09824970000045,392.09824970000045,392.09824970000045,392.09824970000045,392.09824970000045,392.09824970000045,392.09824970000045,392.09824970000045,392.09824970000045,,006,P017,2025_Mar_07_1635,ConditionRich,2021.2.3,59.93529385769683,
367.75,368.0,41,0.0,Stimuli/Blank.png,0,0,0.0,0,161,161,161,,,,,,,,,,,,,367.756871900001,0.006871900000987807,None,395.85158140000203,395.85158140000203,395.85158140000203,395.85158140000203,395.85158140000203,395.85158140000203,395.85158140000203,395.85158140000203,395.85158140000203,395.85158140000203,,006,P017,2025_Mar_07_1635,ConditionRich,2021.2.3,59.93529385769683,
368.0,371.75,40,0.75,Stimuli/P017/things_woman_09s.jpg,0,0,0.0,0,162,162,162,,,,,,,,,,,,,368.0089958999997,0.008995899999717949,None,396.11847359999956,396.11847359999956,396.11847359999956,396.11847359999956,396.11847359999956,396.11847359999956,396.11847359999956,396.11847359999956,396.11847359999956,396.11847359999956,,006,P017,2025_Mar_07_1635,ConditionRich,2021.2.3,59.93529385769683,
371.75,372.0,41,0.0,Stimuli/Blank.png,0,0,0.0,0,163,163,163,,,,,,,,,,,,,371.7789501999978,0.028950199997780146,None,399.888479199999,399.888479199999,399.888479199999,399.888479199999,399.888479199999,399.888479199999,399.888479199999,399.888479199999,399.888479199999,399.888479199999,,006,P017,2025_Mar_07_1635,ConditionRich,2021.2.3,59.93529385769683,
372.0,388.0,0,0.0,Stimuli/Blank.png,1,8,8.75,0,164,164,164,,,,,,,,,,,,,372.0304204999993,0.03042049999930896,1,400.13870510000197,400.13870510000197,400.13870510000197,400.13870510000197,400.13870510000197,400.13870510000197,408.12908830000015,408.87975110000116,400.13870510000197,400.13870510000197,8.37573379999958,006,P017,2025_Mar_07_1635,ConditionRich,2021.2.3,59.93529385769683,
