eventStartTime,eventEndTime,eventCond,imSize,imFile,responseEvent,fixRespStart,fixRespEnd,Events.thisRepN,Events.thisTrialN,Events.thisN,Events.thisIndex,Instructions.started,Instructions.stopped,participantReadyResponse.keys,participantReadyResponse.rt,participantReadyResponse.started,participantReadyResponse.stopped,startWaitforTrigger,triggerResponse.keys,triggerResponse.rt,triggerResponse.started,triggerResponse.stopped,globalTimer,actualStartTime,startTimingDiff,participantResponse.keys,participantResponse.started,participantResponse.stopped,image.started,image.stopped,fixationOutside.started,fixationOutside.stopped,fixationResponse.started,fixationResponse.stopped,fixationInside.started,fixationInside.stopped,participantResponse.rt,session,participant,date,expName,psychopyVersion,frameRate,
,,,,,,,,,,,,10.052543399997376,None,1,27.048203500002273,10.052543399997376,None,,,,,,,,,,,,,,,,,,,,,005,P017,2025_Mar_07_1627,ConditionRich,2021.2.3,59.970986037692285,
,,,,,,,,,,,,,,,,,,37.11100959999749,5,13.943263500001194,37.123328499998024,None,,,,,,,,,,,,,,,,005,P017,2025_Mar_07_1627,ConditionRich,2021.2.3,59.970986037692285,
0.0,4.0,0,0.0,Stimuli/Blank.png,0,0.0,0.0,0,0,0,0,,,,,,,,,,,,51.072424399997544,0.053058100002090214,0.053058100002090214,None,51.15239649999785,None,51.15239649999785,None,51.15239649999785,None,51.15239649999785,51.15239649999785,51.15239649999785,None,,005,P017,2025_Mar_07_1627,ConditionRich,2021.2.3,59.970986037692285,
4.0,4.75,34,0.75,Stimuli/P017/things_llama_09s.jpg,1,0.0,0.75,0,1,1,1,,,,,,,,,,,,,4.02054930000304,0.020549300003040116,1,55.122890099999495,55.122890099999495,55.122890099999495,55.122890099999495,55.122890099999495,55.122890099999495,55.122890099999495,None,55.122890099999495,55.122890099999495,0.5238533000010648,005,P017,2025_Mar_07_1627,ConditionRich,2021.2.3,59.970986037692285,
4.75,8.0,41,0.0,Stimuli/Blank.png,0,0.0,0.0,0,2,2,2,,,,,,,,,,,,,4.769798500001343,0.0197985000013432,None,55.85684330000004,55.85684330000004,55.85684330000004,55.85684330000004,55.85684330000004,55.85684330000004,55.85684330000004,55.85684330000004,55.85684330000004,55.85684330000004,,005,P017,2025_Mar_07_1627,ConditionRich,2021.2.3,59.970986037692285,
8.0,8.75,1,0.75,Stimuli/P017/sun_aawmwfqqbzauhqkb.jpg,0,0.0,0.0,0,3,3,3,,,,,,,,,,,,,8.006405100000848,0.006405100000847597,None,59.109456299996964,59.109456299996964,59.109456299996964,59.109456299996964,59.109456299996964,59.109456299996964,59.109456299996964,59.109456299996964,59.109456299996964,59.109456299996964,,005,P017,2025_Mar_07_1627,ConditionRich,2021.2.3,59.970986037692285,
8.75,12.0,41,0.0,Stimuli/Blank.png,0,0.0,0.0,0,4,4,4,,,,,,,,,,,,,8.775710400001117,0.025710400001116795,None,59.87678269999742,59.87678269999742,59.87678269999742,59.87678269999742,59.87678269999742,59.87678269999742,59.87678269999742,59.87678269999742,59.87678269999742,59.87678269999742,,005,P017,2025_Mar_07_1627,ConditionRich,2021.2.3,59.970986037692285,
12.0,12.75,5,0.75,Stimuli/P017/sun_apojgqgvdvsksdvo.jpg,0,0.0,0.0,0,5,5,5,,,,,,,,,,,,,12.026015600000392,0.026015600000391714,None,63.11295659999814,63.11295659999814,63.11295659999814,63.11295659999814,63.11295659999814,63.11295659999814,63.11295659999814,63.11295659999814,63.11295659999814,63.11295659999814,,005,P017,2025_Mar_07_1627,ConditionRich,2021.2.3,59.970986037692285,
12.75,16.0,41,0.0,Stimuli/Blank.png,1,2.25,3.0,0,6,6,6,,,,,,,,,,,,,12.760564899999736,0.010564899999735644,1,63.84694799999852,63.84694799999852,63.84694799999852,63.84694799999852,63.84694799999852,63.84694799999852,66.0822146999999,66.8329199999971,63.84694799999852,63.84694799999852,2.5708273999989615,005,P017,2025_Mar_07_1627,ConditionRich,2021.2.3,59.970986037692285,
16.0,16.75,12,0.75,Stimuli/P017/sun_bhvaiabdgxjuwoth.jpg,0,0.0,0.0,0,7,7,7,,,,,,,,,,,,,16.01384340000004,0.013843400000041584,None,67.11650050000026,67.11650050000026,67.11650050000026,67.11650050000026,67.11650050000026,67.11650050000026,67.11650050000026,67.11650050000026,67.11650050000026,67.11650050000026,,005,P017,2025_Mar_07_1627,ConditionRich,2021.2.3,59.970986037692285,
16.75,20.0,41,0.0,Stimuli/Blank.png,0,0.0,0.0,0,8,8,8,,,,,,,,,,,,,16.780251399999543,0.030251399999542627,None,67.86716239999805,67.86716239999805,67.86716239999805,67.86716239999805,67.86716239999805,67.86716239999805,67.86716239999805,67.86716239999805,67.86716239999805,67.86716239999805,,005,P017,2025_Mar_07_1627,ConditionRich,2021.2.3,59.970986037692285,
20.0,20.75,24,0.75,Stimuli/P017/things_breadbox_09s.jpg,0,0.0,0.0,0,9,9,9,,,,,,,,,,,,,20.00040010000157,0.0004001000015705358,None,71.10336499999903,71.10336499999903,71.10336499999903,71.10336499999903,71.10336499999903,71.10336499999903,71.10336499999903,71.10336499999903,71.10336499999903,71.10336499999903,,005,P017,2025_Mar_07_1627,ConditionRich,2021.2.3,59.970986037692285,
20.75,24.0,41,0.0,Stimuli/Blank.png,0,0.0,0.0,0,10,10,10,,,,,,,,,,,,,20.76715140000306,0.01715140000305837,None,71.85402509999767,71.85402509999767,71.85402509999767,71.85402509999767,71.85402509999767,71.85402509999767,71.85402509999767,71.85402509999767,71.85402509999767,71.85402509999767,,005,P017,2025_Mar_07_1627,ConditionRich,2021.2.3,59.970986037692285,
24.0,24.75,7,0.75,Stimuli/P017/sun_auadhqmfjsjtjcue.jpg,0,0.0,0.0,0,11,11,11,,,,,,,,,,,,,24.006908700001077,0.006908700001076795,None,75.1070613999982,75.1070613999982,75.1070613999982,75.1070613999982,75.1070613999982,75.1070613999982,75.1070613999982,75.1070613999982,75.1070613999982,75.1070613999982,,005,P017,2025_Mar_07_1627,ConditionRich,2021.2.3,59.970986037692285,
24.75,28.0,41,0.0,Stimuli/Blank.png,0,0.0,0.0,0,12,12,12,,,,,,,,,,,,,24.771164699999645,0.021164699999644654,None,75.85757059999742,75.85757059999742,75.85757059999742,75.85757059999742,75.85757059999742,75.85757059999742,75.85757059999742,75.85757059999742,75.85757059999742,75.85757059999742,,005,P017,2025_Mar_07_1627,ConditionRich,2021.2.3,59.970986037692285,
28.0,28.75,22,0.75,Stimuli/P017/things_boat_09s.jpg,0,0.0,0.0,0,13,13,13,,,,,,,,,,,,,28.00676210000165,0.006762100001651561,None,79.09374959999695,79.09374959999695,79.09374959999695,79.09374959999695,79.09374959999695,79.09374959999695,79.09374959999695,79.09374959999695,79.09374959999695,79.09374959999695,,005,P017,2025_Mar_07_1627,ConditionRich,2021.2.3,59.970986037692285,
28.75,32.0,41,0.0,Stimuli/Blank.png,0,0.0,0.0,0,14,14,14,,,,,,,,,,,,,28.758039100001042,0.008039100001042243,None,79.84442379999746,79.84442379999746,79.84442379999746,79.84442379999746,79.84442379999746,79.84442379999746,79.84442379999746,79.84442379999746,79.84442379999746,79.84442379999746,,005,P017,2025_Mar_07_1627,ConditionRich,2021.2.3,59.970986037692285,
32.0,32.75,6,0.75,Stimuli/P017/sun_atuyvunnykjurjgx.jpg,0,0.0,0.0,0,15,15,15,,,,,,,,,,,,,32.010391300002084,0.01039130000208388,None,83.09730489999856,83.09730489999856,83.09730489999856,83.09730489999856,83.09730489999856,83.09730489999856,83.09730489999856,83.09730489999856,83.09730489999856,83.09730489999856,,005,P017,2025_Mar_07_1627,ConditionRich,2021.2.3,59.970986037692285,
32.75,36.0,41,0.0,Stimuli/Blank.png,0,0.0,0.0,0,16,16,16,,,,,,,,,,,,,32.76186560000133,0.011865600001328858,None,83.84797699999763,83.84797699999763,83.84797699999763,83.84797699999763,83.84797699999763,83.84797699999763,83.84797699999763,83.84797699999763,83.84797699999763,83.84797699999763,,005,P017,2025_Mar_07_1627,ConditionRich,2021.2.3,59.970986037692285,
36.0,36.75,10,0.75,Stimuli/P017/sun_bayxprasninnrnle.jpg,1,0.0,0.75,0,17,17,17,,,,,,,,,,,,,36.01445059999969,0.014450599999690894,1,87.10083289999966,87.10083289999966,87.10083289999966,87.10083289999966,87.10083289999966,87.10083289999966,87.10083289999966,87.83489840000038,87.10083289999966,87.10083289999966,0.34306310000101803,005,P017,2025_Mar_07_1627,ConditionRich,2021.2.3,59.970986037692285,
36.75,40.0,41,0.0,Stimuli/Blank.png,0,0.0,0.0,0,18,18,18,,,,,,,,,,,,,36.765251400000125,0.015251400000124704,None,87.85150669999712,87.85150669999712,87.85150669999712,87.85150669999712,87.85150669999712,87.85150669999712,87.85150669999712,87.85150669999712,87.85150669999712,87.85150669999712,,005,P017,2025_Mar_07_1627,ConditionRich,2021.2.3,59.970986037692285,
40.0,40.75,17,0.75,Stimuli/P017/sun_brhndfjxyigqgiwl.jpg,0,0.0,0.0,0,19,19,19,,,,,,,,,,,,,40.001505300002464,0.0015053000024636276,None,91.10443529999975,91.10443529999975,91.10443529999975,91.10443529999975,91.10443529999975,91.10443529999975,91.10443529999975,91.10443529999975,91.10443529999975,91.10443529999975,,005,P017,2025_Mar_07_1627,ConditionRich,2021.2.3,59.970986037692285,
40.75,44.0,41,0.0,Stimuli/Blank.png,0,0.0,0.0,0,20,20,20,,,,,,,,,,,,,40.77087890000257,0.020878900002571754,None,91.87173489999986,91.87173489999986,91.87173489999986,91.87173489999986,91.87173489999986,91.87173489999986,91.87173489999986,91.87173489999986,91.87173489999986,91.87173489999986,,005,P017,2025_Mar_07_1627,ConditionRich,2021.2.3,59.970986037692285,
44.0,44.75,40,0.75,Stimuli/P017/things_woman_09s.jpg,1,0.0,0.75,0,21,21,21,,,,,,,,,,,,,44.021779900002,0.02177990000200225,1,95.12460879999708,95.12460879999708,95.12460879999708,95.12460879999708,95.12460879999708,95.12460879999708,95.12460879999708,95.84188910000012,95.12460879999708,95.12460879999708,0.45707060000131605,005,P017,2025_Mar_07_1627,ConditionRich,2021.2.3,59.970986037692285,
44.75,48.0,41,0.0,Stimuli/Blank.png,0,0.0,0.0,0,22,22,22,,,,,,,,,,,,,44.77248030000192,0.022480300001916476,None,95.85856959999728,95.85856959999728,95.85856959999728,95.85856959999728,95.85856959999728,95.85856959999728,95.85856959999728,95.85856959999728,95.85856959999728,95.85856959999728,,005,P017,2025_Mar_07_1627,ConditionRich,2021.2.3,59.970986037692285,
48.0,48.75,13,0.75,Stimuli/P017/sun_bizqwyomkqigheyx.jpg,0,0.0,0.0,0,23,23,23,,,,,,,,,,,,,48.00824670000293,0.008246700002928264,None,99.0947672000002,99.0947672000002,99.0947672000002,99.0947672000002,99.0947672000002,99.0947672000002,99.0947672000002,99.0947672000002,99.0947672000002,99.0947672000002,,005,P017,2025_Mar_07_1627,ConditionRich,2021.2.3,59.970986037692285,
48.75,52.0,41,0.0,Stimuli/Blank.png,0,0.0,0.0,0,24,24,24,,,,,,,,,,,,,48.758528000002116,0.008528000002115732,None,99.84542669999792,99.84542669999792,99.84542669999792,99.84542669999792,99.84542669999792,99.84542669999792,99.84542669999792,99.84542669999792,99.84542669999792,99.84542669999792,,005,P017,2025_Mar_07_1627,ConditionRich,2021.2.3,59.970986037692285,
52.0,52.75,33,0.75,Stimuli/P017/things_lamb_09s.jpg,0,0.0,0.0,0,25,25,25,,,,,,,,,,,,,52.01229410000087,0.012294100000872277,None,103.09830339999826,103.09830339999826,103.09830339999826,103.09830339999826,103.09830339999826,103.09830339999826,103.09830339999826,103.09830339999826,103.09830339999826,103.09830339999826,,005,P017,2025_Mar_07_1627,ConditionRich,2021.2.3,59.970986037692285,
52.75,56.0,41,0.0,Stimuli/Blank.png,0,0.0,0.0,0,26,26,26,,,,,,,,,,,,,52.763031300000875,0.01303130000087549,None,103.8490705999975,103.8490705999975,103.8490705999975,103.8490705999975,103.8490705999975,103.8490705999975,103.8490705999975,103.8490705999975,103.8490705999975,103.8490705999975,,005,P017,2025_Mar_07_1627,ConditionRich,2021.2.3,59.970986037692285,
56.0,56.75,35,0.75,Stimuli/P017/things_lobster_09s.jpg,0,0.0,0.0,0,27,27,27,,,,,,,,,,,,,55.99833570000192,-0.0016642999980831519,None,107.08513479999965,107.08513479999965,107.08513479999965,107.08513479999965,107.08513479999965,107.08513479999965,107.08513479999965,107.08513479999965,107.08513479999965,107.08513479999965,,005,P017,2025_Mar_07_1627,ConditionRich,2021.2.3,59.970986037692285,
56.75,60.0,41,0.0,Stimuli/Blank.png,0,0.0,0.0,0,28,28,28,,,,,,,,,,,,,56.75163280000197,0.0016328000019711908,None,107.85252609999952,107.85252609999952,107.85252609999952,107.85252609999952,107.85252609999952,107.85252609999952,107.85252609999952,107.85252609999952,107.85252609999952,107.85252609999952,,005,P017,2025_Mar_07_1627,ConditionRich,2021.2.3,59.970986037692285,
60.0,60.75,8,0.75,Stimuli/P017/sun_axsmqyyvebrcuhkn.jpg,0,0.0,0.0,0,29,29,29,,,,,,,,,,,,,60.02141670000128,0.021416700001282152,None,111.12207269999999,111.12207269999999,111.12207269999999,111.12207269999999,111.12207269999999,111.12207269999999,111.12207269999999,111.12207269999999,111.12207269999999,111.12207269999999,,005,P017,2025_Mar_07_1627,ConditionRich,2021.2.3,59.970986037692285,
60.75,64.0,41,0.0,Stimuli/Blank.png,0,0.0,0.0,0,30,30,30,,,,,,,,,,,,,60.76947370000198,0.019473700001981342,None,111.85611739999877,111.85611739999877,111.85611739999877,111.85611739999877,111.85611739999877,111.85611739999877,111.85611739999877,111.85611739999877,111.85611739999877,111.85611739999877,,005,P017,2025_Mar_07_1627,ConditionRich,2021.2.3,59.970986037692285,
64.0,64.75,36,0.75,Stimuli/P017/things_nest_09s.jpg,0,0.0,0.0,0,31,31,31,,,,,,,,,,,,,64.0065168000001,0.006516800000099465,None,115.10892659999809,115.10892659999809,115.10892659999809,115.10892659999809,115.10892659999809,115.10892659999809,115.10892659999809,115.10892659999809,115.10892659999809,115.10892659999809,,005,P017,2025_Mar_07_1627,ConditionRich,2021.2.3,59.970986037692285,
64.75,68.0,41,0.0,Stimuli/Blank.png,0,0.0,0.0,0,32,32,32,,,,,,,,,,,,,64.77253200000268,0.02253200000268407,None,115.8595564999996,115.8595564999996,115.8595564999996,115.8595564999996,115.8595564999996,115.8595564999996,115.8595564999996,115.8595564999996,115.8595564999996,115.8595564999996,,005,P017,2025_Mar_07_1627,ConditionRich,2021.2.3,59.970986037692285,
68.0,68.75,19,0.75,Stimuli/P017/sun_brrwzaypucosdcgt.jpg,0,0.0,0.0,0,33,33,33,,,,,,,,,,,,,68.0117831000025,0.011783100002503488,None,119.11246879999817,119.11246879999817,119.11246879999817,119.11246879999817,119.11246879999817,119.11246879999817,119.11246879999817,119.11246879999817,119.11246879999817,119.11246879999817,,005,P017,2025_Mar_07_1627,ConditionRich,2021.2.3,59.970986037692285,
68.75,72.0,41,0.0,Stimuli/Blank.png,1,0.25,1.0,0,34,34,34,,,,,,,,,,,,,68.77604960000099,0.026049600000987994,1,119.86311980000028,119.86311980000028,119.86311980000028,119.86311980000028,119.86311980000028,119.86311980000028,120.09667219999756,120.8473269999995,119.86311980000028,119.86311980000028,0.6164733000005072,005,P017,2025_Mar_07_1627,ConditionRich,2021.2.3,59.970986037692285,
72.0,72.75,11,0.75,Stimuli/P017/sun_bdzxsadvniuolmio.jpg,0,0.0,0.0,0,35,35,35,,,,,,,,,,,,,72.0128165999995,0.012816599999496248,None,123.0993157999983,123.0993157999983,123.0993157999983,123.0993157999983,123.0993157999983,123.0993157999983,123.0993157999983,123.0993157999983,123.0993157999983,123.0993157999983,,005,P017,2025_Mar_07_1627,ConditionRich,2021.2.3,59.970986037692285,
72.75,76.0,41,0.0,Stimuli/Blank.png,0,0.0,0.0,0,36,36,36,,,,,,,,,,,,,72.76294260000213,0.012942600002133986,None,123.84998329999871,123.84998329999871,123.84998329999871,123.84998329999871,123.84998329999871,123.84998329999871,123.84998329999871,123.84998329999871,123.84998329999871,123.84998329999871,,005,P017,2025_Mar_07_1627,ConditionRich,2021.2.3,59.970986037692285,
76.0,76.75,26,0.75,Stimuli/P017/things_chandelier_09s.jpg,0,0.0,0.0,0,37,37,37,,,,,,,,,,,,,76.0019710000015,0.001971000001503853,None,127.10286110000015,127.10286110000015,127.10286110000015,127.10286110000015,127.10286110000015,127.10286110000015,127.10286110000015,127.10286110000015,127.10286110000015,127.10286110000015,,005,P017,2025_Mar_07_1627,ConditionRich,2021.2.3,59.970986037692285,
76.75,80.0,41,0.0,Stimuli/Blank.png,0,0.0,0.0,0,38,38,38,,,,,,,,,,,,,76.76717240000289,0.017172400002891663,None,127.85352249999778,127.85352249999778,127.85352249999778,127.85352249999778,127.85352249999778,127.85352249999778,127.85352249999778,127.85352249999778,127.85352249999778,127.85352249999778,,005,P017,2025_Mar_07_1627,ConditionRich,2021.2.3,59.970986037692285,
80.0,80.75,2,0.75,Stimuli/P017/sun_acliytrpktltxwsx.jpg,0,0.0,0.0,0,39,39,39,,,,,,,,,,,,,80.00369000000137,0.0036900000013702083,None,131.08971849999944,131.08971849999944,131.08971849999944,131.08971849999944,131.08971849999944,131.08971849999944,131.08971849999944,131.08971849999944,131.08971849999944,131.08971849999944,,005,P017,2025_Mar_07_1627,ConditionRich,2021.2.3,59.970986037692285,
80.75,84.0,41,0.0,Stimuli/Blank.png,0,0.0,0.0,0,40,40,40,,,,,,,,,,,,,80.75592890000189,0.0059289000018907245,None,131.8570609999988,131.8570609999988,131.8570609999988,131.8570609999988,131.8570609999988,131.8570609999988,131.8570609999988,131.8570609999988,131.8570609999988,131.8570609999988,,005,P017,2025_Mar_07_1627,ConditionRich,2021.2.3,59.970986037692285,
84.0,100.0,0,0.0,Stimuli/Blank.png,1,13.0,13.75,0,41,41,41,,,,,,,,,,,,,84.02376519999962,0.023765199999616016,1,135.1099359999971,135.1099359999971,135.1099359999971,135.1099359999971,135.1099359999971,135.1099359999971,148.08807589999924,148.83873069999754,135.1099359999971,135.1099359999971,13.459714000000531,005,P017,2025_Mar_07_1627,ConditionRich,2021.2.3,59.970986037692285,
100.0,100.75,29,0.75,Stimuli/P017/things_face_09s.jpg,0,0.0,0.0,0,42,42,42,,,,,,,,,,,,,100.00607780000064,0.0060778000006393995,None,151.10741549999875,151.10741549999875,151.10741549999875,151.10741549999875,151.10741549999875,151.10741549999875,151.10741549999875,151.10741549999875,151.10741549999875,151.10741549999875,,005,P017,2025_Mar_07_1627,ConditionRich,2021.2.3,59.970986037692285,
100.75,104.0,41,0.0,Stimuli/Blank.png,1,0.25,1.0,0,43,43,43,,,,,,,,,,,,,100.77183760000116,0.021837600001163082,1,151.8580714999989,151.8580714999989,151.8580714999989,151.8580714999989,151.8580714999989,151.8580714999989,152.09161529999983,152.84227249999822,151.8580714999989,151.8580714999989,0.7096229000017047,005,P017,2025_Mar_07_1627,ConditionRich,2021.2.3,59.970986037692285,
104.0,104.75,20,0.75,Stimuli/P017/sun_buukivvfbfhosrng.jpg,0,0.0,0.0,0,44,44,44,,,,,,,,,,,,,104.00740660000156,0.007406600001559127,None,155.09426809999786,155.09426809999786,155.09426809999786,155.09426809999786,155.09426809999786,155.09426809999786,155.09426809999786,155.09426809999786,155.09426809999786,155.09426809999786,,005,P017,2025_Mar_07_1627,ConditionRich,2021.2.3,59.970986037692285,
104.75,108.0,41,0.0,Stimuli/Blank.png,0,0.0,0.0,0,45,45,45,,,,,,,,,,,,,104.7607922999996,0.010792299999593524,None,155.86162279999917,155.86162279999917,155.86162279999917,155.86162279999917,155.86162279999917,155.86162279999917,155.86162279999917,155.86162279999917,155.86162279999917,155.86162279999917,,005,P017,2025_Mar_07_1627,ConditionRich,2021.2.3,59.970986037692285,
108.0,108.75,38,0.75,Stimuli/P017/things_pony_09s.jpg,0,0.0,0.0,0,46,46,46,,,,,,,,,,,,,108.02850469999976,0.028504699999757577,None,159.131172399997,159.131172399997,159.131172399997,159.131172399997,159.131172399997,159.131172399997,159.131172399997,159.131172399997,159.131172399997,159.131172399997,,005,P017,2025_Mar_07_1627,ConditionRich,2021.2.3,59.970986037692285,
108.75,112.0,41,0.0,Stimuli/Blank.png,0,0.0,0.0,0,47,47,47,,,,,,,,,,,,,108.7812279000027,0.0312279000027047,None,159.8818687999992,159.8818687999992,159.8818687999992,159.8818687999992,159.8818687999992,159.8818687999992,159.8818687999992,159.8818687999992,159.8818687999992,159.8818687999992,,005,P017,2025_Mar_07_1627,ConditionRich,2021.2.3,59.970986037692285,
112.0,112.75,28,0.75,Stimuli/P017/things_collar_09s.jpg,0,0.0,0.0,0,48,48,48,,,,,,,,,,,,,112.01501570000255,0.015015700002550147,None,163.10134259999904,163.10134259999904,163.10134259999904,163.10134259999904,163.10134259999904,163.10134259999904,163.10134259999904,163.10134259999904,163.10134259999904,163.10134259999904,,005,P017,2025_Mar_07_1627,ConditionRich,2021.2.3,59.970986037692285,
112.75,116.0,41,0.0,Stimuli/Blank.png,0,0.0,0.0,0,49,49,49,,,,,,,,,,,,,112.74951160000273,-0.0004883999972662423,None,163.83535709999705,163.83535709999705,163.83535709999705,163.83535709999705,163.83535709999705,163.83535709999705,163.83535709999705,163.83535709999705,163.83535709999705,163.83535709999705,,005,P017,2025_Mar_07_1627,ConditionRich,2021.2.3,59.970986037692285,
116.0,116.75,31,0.75,Stimuli/P017/things_highchair_09s.jpg,0,0.0,0.0,0,50,50,50,,,,,,,,,,,,,116.00197580000167,0.0019758000016736332,None,167.08815409999806,167.08815409999806,167.08815409999806,167.08815409999806,167.08815409999806,167.08815409999806,167.08815409999806,167.08815409999806,167.08815409999806,167.08815409999806,,005,P017,2025_Mar_07_1627,ConditionRich,2021.2.3,59.970986037692285,
116.75,120.0,41,0.0,Stimuli/Blank.png,1,2.25,3.0,0,51,51,51,,,,,,,,,,,,,116.75252790000013,0.002527900000131922,1,167.8388629000001,167.8388629000001,167.8388629000001,167.8388629000001,167.8388629000001,167.8388629000001,170.07417779999741,170.82489299999725,167.8388629000001,167.8388629000001,2.5838652000020375,005,P017,2025_Mar_07_1627,ConditionRich,2021.2.3,59.970986037692285,
120.0,120.75,27,0.75,Stimuli/P017/things_coffin_09s.jpg,0,0.0,0.0,0,52,52,52,,,,,,,,,,,,,120.00590690000172,0.0059069000017188955,None,171.10842239999693,171.10842239999693,171.10842239999693,171.10842239999693,171.10842239999693,171.10842239999693,171.10842239999693,171.10842239999693,171.10842239999693,171.10842239999693,,005,P017,2025_Mar_07_1627,ConditionRich,2021.2.3,59.970986037692285,
120.75,124.0,41,0.0,Stimuli/Blank.png,1,2.25,3.0,0,53,53,53,,,,,,,,,,,,,120.77272740000262,0.022727400002622744,1,171.8591634000004,171.8591634000004,171.8591634000004,171.8591634000004,171.8591634000004,171.8591634000004,174.09448899999916,174.84516259999873,171.8591634000004,171.8591634000004,2.6184973000017635,005,P017,2025_Mar_07_1627,ConditionRich,2021.2.3,59.970986037692285,
124.0,124.75,4,0.75,Stimuli/P017/sun_aibvvqlmlsjnrgdj.jpg,0,0.0,0.0,0,54,54,54,,,,,,,,,,,,,124.01098660000207,0.01098660000207019,None,175.1119624999992,175.1119624999992,175.1119624999992,175.1119624999992,175.1119624999992,175.1119624999992,175.1119624999992,175.1119624999992,175.1119624999992,175.1119624999992,,005,P017,2025_Mar_07_1627,ConditionRich,2021.2.3,59.970986037692285,
124.75,128.0,41,0.0,Stimuli/Blank.png,1,1.25,2.0,0,55,55,55,,,,,,,,,,,,,124.77638430000297,0.02638430000297376,1,175.86262739999802,175.86262739999802,175.86262739999802,175.86262739999802,175.86262739999802,175.86262739999802,177.097046699997,177.84771099999853,175.86262739999802,175.86262739999802,1.6112207000005583,005,P017,2025_Mar_07_1627,ConditionRich,2021.2.3,59.970986037692285,
128.0,128.75,30,0.75,Stimuli/P017/things_girl_09s.jpg,1,0.0,0.75,0,56,56,56,,,,,,,,,,,,,128.0125334000004,0.012533400000393158,None,179.11554009999963,179.11554009999963,179.11554009999963,179.11554009999963,179.11554009999963,179.11554009999963,179.11554009999963,179.83289019999938,179.11554009999963,179.11554009999963,,005,P017,2025_Mar_07_1627,ConditionRich,2021.2.3,59.970986037692285,
128.75,132.0,41,0.0,Stimuli/Blank.png,0,0.0,0.0,0,57,57,57,,,,,,,,,,,,,128.77984320000178,0.029843200001778314,1,179.86616399999912,179.86616399999912,179.86616399999912,179.86616399999912,179.86616399999912,179.86616399999912,179.86616399999912,179.86616399999912,179.86616399999912,179.86616399999912,0.048925399998552166,005,P017,2025_Mar_07_1627,ConditionRich,2021.2.3,59.970986037692285,
132.0,132.75,25,0.75,Stimuli/P017/things_cannonball_09s.jpg,0,0.0,0.0,0,58,58,58,,,,,,,,,,,,,132.00159820000044,0.0015982000004441943,None,183.1023600999979,183.1023600999979,183.1023600999979,183.1023600999979,183.1023600999979,183.1023600999979,183.1023600999979,183.1023600999979,183.1023600999979,183.1023600999979,,005,P017,2025_Mar_07_1627,ConditionRich,2021.2.3,59.970986037692285,
132.75,136.0,41,0.0,Stimuli/Blank.png,0,0.0,0.0,0,59,59,59,,,,,,,,,,,,,132.76706490000288,0.017064900002878858,None,183.85322929999893,183.85322929999893,183.85322929999893,183.85322929999893,183.85322929999893,183.85322929999893,183.85322929999893,183.85322929999893,183.85322929999893,183.85322929999893,,005,P017,2025_Mar_07_1627,ConditionRich,2021.2.3,59.970986037692285,
136.0,136.75,21,0.75,Stimuli/P017/things_baby_09s.jpg,0,0.0,0.0,0,60,60,60,,,,,,,,,,,,,136.00301650000256,0.0030165000025590416,None,187.08920829999988,187.08920829999988,187.08920829999988,187.08920829999988,187.08920829999988,187.08920829999988,187.08920829999988,187.08920829999988,187.08920829999988,187.08920829999988,,005,P017,2025_Mar_07_1627,ConditionRich,2021.2.3,59.970986037692285,
136.75,140.0,41,0.0,Stimuli/Blank.png,0,0.0,0.0,0,61,61,61,,,,,,,,,,,,,136.75282110000262,0.002821100002620369,None,187.8398825999975,187.8398825999975,187.8398825999975,187.8398825999975,187.8398825999975,187.8398825999975,187.8398825999975,187.8398825999975,187.8398825999975,187.8398825999975,,005,P017,2025_Mar_07_1627,ConditionRich,2021.2.3,59.970986037692285,
140.0,140.75,18,0.75,Stimuli/P017/sun_brrvvswweljrvnlq.jpg,0,0.0,0.0,0,62,62,62,,,,,,,,,,,,,140.00620590000108,0.00620590000107768,None,191.09270319999996,191.09270319999996,191.09270319999996,191.09270319999996,191.09270319999996,191.09270319999996,191.09270319999996,191.09270319999996,191.09270319999996,191.09270319999996,,005,P017,2025_Mar_07_1627,ConditionRich,2021.2.3,59.970986037692285,
140.75,144.0,41,0.0,Stimuli/Blank.png,0,0.0,0.0,0,63,63,63,,,,,,,,,,,,,140.7570865000016,0.0070865000016056,None,191.84342009999818,191.84342009999818,191.84342009999818,191.84342009999818,191.84342009999818,191.84342009999818,191.84342009999818,191.84342009999818,191.84342009999818,191.84342009999818,,005,P017,2025_Mar_07_1627,ConditionRich,2021.2.3,59.970986037692285,
144.0,144.75,9,0.75,Stimuli/P017/sun_ayidxslzurdumeps.jpg,0,0.0,0.0,0,64,64,64,,,,,,,,,,,,,144.01132359999974,0.011323599999741418,None,195.1129798999973,195.1129798999973,195.1129798999973,195.1129798999973,195.1129798999973,195.1129798999973,195.1129798999973,195.1129798999973,195.1129798999973,195.1129798999973,,005,P017,2025_Mar_07_1627,ConditionRich,2021.2.3,59.970986037692285,
144.75,148.0,41,0.0,Stimuli/Blank.png,0,0.0,0.0,0,65,65,65,,,,,,,,,,,,,144.77724610000223,0.027246100002230378,None,195.8636286999972,195.8636286999972,195.8636286999972,195.8636286999972,195.8636286999972,195.8636286999972,195.8636286999972,195.8636286999972,195.8636286999972,195.8636286999972,,005,P017,2025_Mar_07_1627,ConditionRich,2021.2.3,59.970986037692285,
148.0,148.75,3,0.75,Stimuli/P017/sun_acymmczhyuiimeub.jpg,0,0.0,0.0,0,66,66,66,,,,,,,,,,,,,148.01281569999992,0.012815699999919161,None,199.11657899999773,199.11657899999773,199.11657899999773,199.11657899999773,199.11657899999773,199.11657899999773,199.11657899999773,199.11657899999773,199.11657899999773,199.11657899999773,,005,P017,2025_Mar_07_1627,ConditionRich,2021.2.3,59.970986037692285,
148.75,152.0,41,0.0,Stimuli/Blank.png,0,0.0,0.0,0,67,67,67,,,,,,,,,,,,,148.78067420000298,0.03067420000297716,None,199.8671656999977,199.8671656999977,199.8671656999977,199.8671656999977,199.8671656999977,199.8671656999977,199.8671656999977,199.8671656999977,199.8671656999977,199.8671656999977,,005,P017,2025_Mar_07_1627,ConditionRich,2021.2.3,59.970986037692285,
152.0,152.75,15,0.75,Stimuli/P017/sun_bobznlnnzwznersx.jpg,0,0.0,0.0,0,68,68,68,,,,,,,,,,,,,152.00044790000175,0.0004479000017454382,None,203.0866505999984,203.0866505999984,203.0866505999984,203.0866505999984,203.0866505999984,203.0866505999984,203.0866505999984,203.0866505999984,203.0866505999984,203.0866505999984,,005,P017,2025_Mar_07_1627,ConditionRich,2021.2.3,59.970986037692285,
152.75,156.0,41,0.0,Stimuli/Blank.png,0,0.0,0.0,0,69,69,69,,,,,,,,,,,,,152.7502870999997,0.0002870999996957835,None,203.83734609999738,203.83734609999738,203.83734609999738,203.83734609999738,203.83734609999738,203.83734609999738,203.83734609999738,203.83734609999738,203.83734609999738,203.83734609999738,,005,P017,2025_Mar_07_1627,ConditionRich,2021.2.3,59.970986037692285,
156.0,156.75,32,0.75,Stimuli/P017/things_horse_09s.jpg,0,0.0,0.0,0,70,70,70,,,,,,,,,,,,,156.00600530000156,0.006005300001561409,None,207.10691450000013,207.10691450000013,207.10691450000013,207.10691450000013,207.10691450000013,207.10691450000013,207.10691450000013,207.10691450000013,207.10691450000013,207.10691450000013,,005,P017,2025_Mar_07_1627,ConditionRich,2021.2.3,59.970986037692285,
156.75,160.0,41,0.0,Stimuli/Blank.png,0,0.0,0.0,0,71,71,71,,,,,,,,,,,,,156.77148840000154,0.021488400001544505,None,207.85756579999725,207.85756579999725,207.85756579999725,207.85756579999725,207.85756579999725,207.85756579999725,207.85756579999725,207.85756579999725,207.85756579999725,207.85756579999725,,005,P017,2025_Mar_07_1627,ConditionRich,2021.2.3,59.970986037692285,
160.0,160.75,16,0.75,Stimuli/P017/sun_brfwxjsnmauhmfzf.jpg,0,0.0,0.0,0,72,72,72,,,,,,,,,,,,,160.00693700000193,0.006937000001926208,None,211.0937630999979,211.0937630999979,211.0937630999979,211.0937630999979,211.0937630999979,211.0937630999979,211.0937630999979,211.0937630999979,211.0937630999979,211.0937630999979,,005,P017,2025_Mar_07_1627,ConditionRich,2021.2.3,59.970986037692285,
160.75,164.0,41,0.0,Stimuli/Blank.png,0,0.0,0.0,0,73,73,73,,,,,,,,,,,,,160.75792250000086,0.007922500000859145,None,211.84441940000033,211.84441940000033,211.84441940000033,211.84441940000033,211.84441940000033,211.84441940000033,211.84441940000033,211.84441940000033,211.84441940000033,211.84441940000033,,005,P017,2025_Mar_07_1627,ConditionRich,2021.2.3,59.970986037692285,
164.0,164.75,14,0.75,Stimuli/P017/sun_bljpqnfmmqkjsfvx.jpg,0,0.0,0.0,0,74,74,74,,,,,,,,,,,,,164.01027230000182,0.010272300001815893,None,215.09730339999805,215.09730339999805,215.09730339999805,215.09730339999805,215.09730339999805,215.09730339999805,215.09730339999805,215.09730339999805,215.09730339999805,215.09730339999805,,005,P017,2025_Mar_07_1627,ConditionRich,2021.2.3,59.970986037692285,
164.75,168.0,41,0.0,Stimuli/Blank.png,0,0.0,0.0,0,75,75,75,,,,,,,,,,,,,164.76136469999983,0.011364699999830918,None,215.84794159999728,215.84794159999728,215.84794159999728,215.84794159999728,215.84794159999728,215.84794159999728,215.84794159999728,215.84794159999728,215.84794159999728,215.84794159999728,,005,P017,2025_Mar_07_1627,ConditionRich,2021.2.3,59.970986037692285,
168.0,168.75,37,0.75,Stimuli/P017/things_plastic_film_09s.jpg,0,0.0,0.0,0,76,76,76,,,,,,,,,,,,,168.01595140000063,0.01595140000063111,None,219.1175218999997,219.1175218999997,219.1175218999997,219.1175218999997,219.1175218999997,219.1175218999997,219.1175218999997,219.1175218999997,219.1175218999997,219.1175218999997,,005,P017,2025_Mar_07_1627,ConditionRich,2021.2.3,59.970986037692285,
168.75,172.0,41,0.0,Stimuli/Blank.png,0,0.0,0.0,0,77,77,77,,,,,,,,,,,,,168.76516260000062,0.015162600000621751,None,219.8515140999989,219.8515140999989,219.8515140999989,219.8515140999989,219.8515140999989,219.8515140999989,219.8515140999989,219.8515140999989,219.8515140999989,219.8515140999989,,005,P017,2025_Mar_07_1627,ConditionRich,2021.2.3,59.970986037692285,
172.0,172.75,23,0.75,Stimuli/P017/things_boy_09s.jpg,0,0.0,0.0,0,78,78,78,,,,,,,,,,,,,172.00177170000097,0.001771700000972487,None,223.10438019999856,223.10438019999856,223.10438019999856,223.10438019999856,223.10438019999856,223.10438019999856,223.10438019999856,223.10438019999856,223.10438019999856,223.10438019999856,,005,P017,2025_Mar_07_1627,ConditionRich,2021.2.3,59.970986037692285,
172.75,176.0,41,0.0,Stimuli/Blank.png,0,0.0,0.0,0,79,79,79,,,,,,,,,,,,,172.76815759999954,0.018157599999540253,None,223.85513859999992,223.85513859999992,223.85513859999992,223.85513859999992,223.85513859999992,223.85513859999992,223.85513859999992,223.85513859999992,223.85513859999992,223.85513859999992,,005,P017,2025_Mar_07_1627,ConditionRich,2021.2.3,59.970986037692285,
176.0,176.75,39,0.75,Stimuli/P017/things_veil_09s.jpg,0,0.0,0.0,0,80,80,80,,,,,,,,,,,,,176.0068033000025,0.00680330000250251,None,227.10792229999788,227.10792229999788,227.10792229999788,227.10792229999788,227.10792229999788,227.10792229999788,227.10792229999788,227.10792229999788,227.10792229999788,227.10792229999788,,005,P017,2025_Mar_07_1627,ConditionRich,2021.2.3,59.970986037692285,
176.75,180.0,41,0.0,Stimuli/Blank.png,0,0.0,0.0,0,81,81,81,,,,,,,,,,,,,176.77155010000206,0.02155010000205948,None,227.85858449999796,227.85858449999796,227.85858449999796,227.85858449999796,227.85858449999796,227.85858449999796,227.85858449999796,227.85858449999796,227.85858449999796,227.85858449999796,,005,P017,2025_Mar_07_1627,ConditionRich,2021.2.3,59.970986037692285,
180.0,196.0,0,0.0,Stimuli/Blank.png,1,3.0,3.75,0,82,82,82,,,,,,,,,,,,,180.0078534000022,0.00785340000220458,1,231.09477530000004,231.09477530000004,231.09477530000004,231.09477530000004,231.09477530000004,231.09477530000004,234.08076269999947,234.83146850000048,231.09477530000004,231.09477530000004,3.364047399998526,005,P017,2025_Mar_07_1627,ConditionRich,2021.2.3,59.970986037692285,
196.0,196.75,10,0.75,Stimuli/P017/sun_bayxprasninnrnle.jpg,0,0.0,0.0,0,83,83,83,,,,,,,,,,,,,196.00585680000222,0.005856800002220552,None,247.09224189999804,247.09224189999804,247.09224189999804,247.09224189999804,247.09224189999804,247.09224189999804,247.09224189999804,247.09224189999804,247.09224189999804,247.09224189999804,,005,P017,2025_Mar_07_1627,ConditionRich,2021.2.3,59.970986037692285,
196.75,200.0,41,0.0,Stimuli/Blank.png,0,0.0,0.0,0,84,84,84,,,,,,,,,,,,,196.757708000001,0.007708000001002802,None,247.8429247999993,247.8429247999993,247.8429247999993,247.8429247999993,247.8429247999993,247.8429247999993,247.8429247999993,247.8429247999993,247.8429247999993,247.8429247999993,,005,P017,2025_Mar_07_1627,ConditionRich,2021.2.3,59.970986037692285,
200.0,200.75,40,0.75,Stimuli/P017/things_woman_09s.jpg,0,0.0,0.0,0,85,85,85,,,,,,,,,,,,,200.0110050000003,0.011005000000295695,None,251.1124740999985,251.1124740999985,251.1124740999985,251.1124740999985,251.1124740999985,251.1124740999985,251.1124740999985,251.1124740999985,251.1124740999985,251.1124740999985,,005,P017,2025_Mar_07_1627,ConditionRich,2021.2.3,59.970986037692285,
200.75,204.0,41,0.0,Stimuli/Blank.png,0,0.0,0.0,0,86,86,86,,,,,,,,,,,,,200.7768090999998,0.026809099999809405,None,251.86313359999986,251.86313359999986,251.86313359999986,251.86313359999986,251.86313359999986,251.86313359999986,251.86313359999986,251.86313359999986,251.86313359999986,251.86313359999986,,005,P017,2025_Mar_07_1627,ConditionRich,2021.2.3,59.970986037692285,
204.0,204.75,23,0.75,Stimuli/P017/things_boy_09s.jpg,0,0.0,0.0,0,87,87,87,,,,,,,,,,,,,204.0129330000018,0.012933000001794426,None,255.11602929999935,255.11602929999935,255.11602929999935,255.11602929999935,255.11602929999935,255.11602929999935,255.11602929999935,255.11602929999935,255.11602929999935,255.11602929999935,,005,P017,2025_Mar_07_1627,ConditionRich,2021.2.3,59.970986037692285,
204.75,208.0,41,0.0,Stimuli/Blank.png,0,0.0,0.0,0,88,88,88,,,,,,,,,,,,,204.7803950000016,0.030395000001590233,None,255.86665559999892,255.86665559999892,255.86665559999892,255.86665559999892,255.86665559999892,255.86665559999892,255.86665559999892,255.86665559999892,255.86665559999892,255.86665559999892,,005,P017,2025_Mar_07_1627,ConditionRich,2021.2.3,59.970986037692285,
208.0,208.75,17,0.75,Stimuli/P017/sun_brhndfjxyigqgiwl.jpg,1,0.0,0.75,0,89,89,89,,,,,,,,,,,,,208.00227310000264,0.002273100002639694,1,259.10286579999956,259.10286579999956,259.10286579999956,259.10286579999956,259.10286579999956,259.10286579999956,259.10286579999956,259.836844999998,259.10286579999956,259.10286579999956,0.4267967000014323,005,P017,2025_Mar_07_1627,ConditionRich,2021.2.3,59.970986037692285,
208.75,212.0,41,0.0,Stimuli/Blank.png,0,0.0,0.0,0,90,90,90,,,,,,,,,,,,,208.766840100001,0.016840100000990788,None,259.8535278999989,259.8535278999989,259.8535278999989,259.8535278999989,259.8535278999989,259.8535278999989,259.8535278999989,259.8535278999989,259.8535278999989,259.8535278999989,,005,P017,2025_Mar_07_1627,ConditionRich,2021.2.3,59.970986037692285,
212.0,212.75,19,0.75,Stimuli/P017/sun_brrwzaypucosdcgt.jpg,0,0.0,0.0,0,91,91,91,,,,,,,,,,,,,212.00348550000126,0.0034855000012612436,None,263.10644859999957,263.10644859999957,263.10644859999957,263.10644859999957,263.10644859999957,263.10644859999957,263.10644859999957,263.10644859999957,263.10644859999957,263.10644859999957,,005,P017,2025_Mar_07_1627,ConditionRich,2021.2.3,59.970986037692285,
212.75,216.0,41,0.0,Stimuli/Blank.png,0,0.0,0.0,0,92,92,92,,,,,,,,,,,,,212.7712218000015,0.021221800001512747,None,263.8570667999993,263.8570667999993,263.8570667999993,263.8570667999993,263.8570667999993,263.8570667999993,263.8570667999993,263.8570667999993,263.8570667999993,263.8570667999993,,005,P017,2025_Mar_07_1627,ConditionRich,2021.2.3,59.970986037692285,
216.0,216.75,35,0.75,Stimuli/P017/things_lobster_09s.jpg,0,0.0,0.0,0,93,93,93,,,,,,,,,,,,,216.0065444000029,0.00654440000289469,None,267.09325080000053,267.09325080000053,267.09325080000053,267.09325080000053,267.09325080000053,267.09325080000053,267.09325080000053,267.09325080000053,267.09325080000053,267.09325080000053,,005,P017,2025_Mar_07_1627,ConditionRich,2021.2.3,59.970986037692285,
216.75,220.0,41,0.0,Stimuli/Blank.png,1,0.25,1.0,0,94,94,94,,,,,,,,,,,,,216.75744580000173,0.007445800001733005,1,267.84391849999884,267.84391849999884,267.84391849999884,267.84391849999884,267.84391849999884,267.84391849999884,268.0774281999984,268.8281707999995,267.84391849999884,267.84391849999884,0.6276917000031972,005,P017,2025_Mar_07_1627,ConditionRich,2021.2.3,59.970986037692285,
220.0,220.75,25,0.75,Stimuli/P017/things_cannonball_09s.jpg,0,0.0,0.0,0,95,95,95,,,,,,,,,,,,,220.01062029999957,0.010620299999573035,None,271.09680119999757,271.09680119999757,271.09680119999757,271.09680119999757,271.09680119999757,271.09680119999757,271.09680119999757,271.09680119999757,271.09680119999757,271.09680119999757,,005,P017,2025_Mar_07_1627,ConditionRich,2021.2.3,59.970986037692285,
220.75,224.0,41,0.0,Stimuli/Blank.png,0,0.0,0.0,0,96,96,96,,,,,,,,,,,,,220.76040590000048,0.010405900000478141,None,271.8474575,271.8474575,271.8474575,271.8474575,271.8474575,271.8474575,271.8474575,271.8474575,271.8474575,271.8474575,,005,P017,2025_Mar_07_1627,ConditionRich,2021.2.3,59.970986037692285,
224.0,224.75,28,0.75,Stimuli/P017/things_collar_09s.jpg,0,0.0,0.0,0,97,97,97,,,,,,,,,,,,,224.01634449999983,0.016344499999831896,None,275.1170268999995,275.1170268999995,275.1170268999995,275.1170268999995,275.1170268999995,275.1170268999995,275.1170268999995,275.1170268999995,275.1170268999995,275.1170268999995,,005,P017,2025_Mar_07_1627,ConditionRich,2021.2.3,59.970986037692285,
224.75,228.0,41,0.0,Stimuli/Blank.png,1,1.25,2.0,0,98,98,98,,,,,,,,,,,,,224.76676640000005,0.016766400000051362,1,275.86768949999896,275.86768949999896,275.86768949999896,275.86768949999896,275.86768949999896,275.86768949999896,277.10211589999744,277.85277080000014,275.86768949999896,275.86768949999896,1.6860178000024462,005,P017,2025_Mar_07_1627,ConditionRich,2021.2.3,59.970986037692285,
228.0,228.75,18,0.75,Stimuli/P017/sun_brrvvswweljrvnlq.jpg,0,0.0,0.0,0,99,99,99,,,,,,,,,,,,,228.01740970000174,0.017409700001735473,None,279.10387210000044,279.10387210000044,279.10387210000044,279.10387210000044,279.10387210000044,279.10387210000044,279.10387210000044,279.10387210000044,279.10387210000044,279.10387210000044,,005,P017,2025_Mar_07_1627,ConditionRich,2021.2.3,59.970986037692285,
228.75,232.0,41,0.0,Stimuli/Blank.png,0,0.0,0.0,0,100,100,100,,,,,,,,,,,,,228.75094209999952,0.0009420999995199963,None,279.83784469999955,279.83784469999955,279.83784469999955,279.83784469999955,279.83784469999955,279.83784469999955,279.83784469999955,279.83784469999955,279.83784469999955,279.83784469999955,,005,P017,2025_Mar_07_1627,ConditionRich,2021.2.3,59.970986037692285,
232.0,232.75,29,0.75,Stimuli/P017/things_face_09s.jpg,0,0.0,0.0,0,101,101,101,,,,,,,,,,,,,232.0051897000012,0.00518970000121044,None,283.10744129999875,283.10744129999875,283.10744129999875,283.10744129999875,283.10744129999875,283.10744129999875,283.10744129999875,283.10744129999875,283.10744129999875,283.10744129999875,,005,P017,2025_Mar_07_1627,ConditionRich,2021.2.3,59.970986037692285,
232.75,236.0,41,0.0,Stimuli/Blank.png,0,0.0,0.0,0,102,102,102,,,,,,,,,,,,,232.77118429999973,0.021184299999731593,None,283.8580535000001,283.8580535000001,283.8580535000001,283.8580535000001,283.8580535000001,283.8580535000001,283.8580535000001,283.8580535000001,283.8580535000001,283.8580535000001,,005,P017,2025_Mar_07_1627,ConditionRich,2021.2.3,59.970986037692285,
236.0,236.75,13,0.75,Stimuli/P017/sun_bizqwyomkqigheyx.jpg,0,0.0,0.0,0,103,103,103,,,,,,,,,,,,,236.0077792000011,0.007779200001095887,None,287.0942692999997,287.0942692999997,287.0942692999997,287.0942692999997,287.0942692999997,287.0942692999997,287.0942692999997,287.0942692999997,287.0942692999997,287.0942692999997,,005,P017,2025_Mar_07_1627,ConditionRich,2021.2.3,59.970986037692285,
236.75,240.0,41,0.0,Stimuli/Blank.png,0,0.0,0.0,0,104,104,104,,,,,,,,,,,,,236.75786210000297,0.007862100002967054,None,287.8449335999976,287.8449335999976,287.8449335999976,287.8449335999976,287.8449335999976,287.8449335999976,287.8449335999976,287.8449335999976,287.8449335999976,287.8449335999976,,005,P017,2025_Mar_07_1627,ConditionRich,2021.2.3,59.970986037692285,
240.0,240.75,37,0.75,Stimuli/P017/things_plastic_film_09s.jpg,0,0.0,0.0,0,105,105,105,,,,,,,,,,,,,240.01179500000217,0.01179500000216649,None,291.0978114999998,291.0978114999998,291.0978114999998,291.0978114999998,291.0978114999998,291.0978114999998,291.0978114999998,291.0978114999998,291.0978114999998,291.0978114999998,,005,P017,2025_Mar_07_1627,ConditionRich,2021.2.3,59.970986037692285,
240.75,244.0,41,0.0,Stimuli/Blank.png,0,0.0,0.0,0,106,106,106,,,,,,,,,,,,,240.76149460000306,0.01149460000306135,None,291.84848019999845,291.84848019999845,291.84848019999845,291.84848019999845,291.84848019999845,291.84848019999845,291.84848019999845,291.84848019999845,291.84848019999845,291.84848019999845,,005,P017,2025_Mar_07_1627,ConditionRich,2021.2.3,59.970986037692285,
244.0,244.75,14,0.75,Stimuli/P017/sun_bljpqnfmmqkjsfvx.jpg,0,0.0,0.0,0,107,107,107,,,,,,,,,,,,,244.01729139999952,0.017291399999521673,None,295.1180353999989,295.1180353999989,295.1180353999989,295.1180353999989,295.1180353999989,295.1180353999989,295.1180353999989,295.1180353999989,295.1180353999989,295.1180353999989,,005,P017,2025_Mar_07_1627,ConditionRich,2021.2.3,59.970986037692285,
244.75,248.0,41,0.0,Stimuli/Blank.png,0,0.0,0.0,0,108,108,108,,,,,,,,,,,,,244.76619550000032,0.016195500000321772,None,295.85200789999726,295.85200789999726,295.85200789999726,295.85200789999726,295.85200789999726,295.85200789999726,295.85200789999726,295.85200789999726,295.85200789999726,295.85200789999726,,005,P017,2025_Mar_07_1627,ConditionRich,2021.2.3,59.970986037692285,
248.0,248.75,38,0.75,Stimuli/P017/things_pony_09s.jpg,0,0.0,0.0,0,109,109,109,,,,,,,,,,,,,248.00191910000285,0.0019191000028513372,None,299.0881721000005,299.0881721000005,299.0881721000005,299.0881721000005,299.0881721000005,299.0881721000005,299.0881721000005,299.0881721000005,299.0881721000005,299.0881721000005,,005,P017,2025_Mar_07_1627,ConditionRich,2021.2.3,59.970986037692285,
248.75,252.0,41,0.0,Stimuli/Blank.png,0,0.0,0.0,0,110,110,110,,,,,,,,,,,,,248.75247560000207,0.0024756000020715874,None,299.83886319999874,299.83886319999874,299.83886319999874,299.83886319999874,299.83886319999874,299.83886319999874,299.83886319999874,299.83886319999874,299.83886319999874,299.83886319999874,,005,P017,2025_Mar_07_1627,ConditionRich,2021.2.3,59.970986037692285,
252.0,252.75,12,0.75,Stimuli/P017/sun_bhvaiabdgxjuwoth.jpg,0,0.0,0.0,0,111,111,111,,,,,,,,,,,,,252.00543050000124,0.005430500001239125,None,303.0917436999989,303.0917436999989,303.0917436999989,303.0917436999989,303.0917436999989,303.0917436999989,303.0917436999989,303.0917436999989,303.0917436999989,303.0917436999989,,005,P017,2025_Mar_07_1627,ConditionRich,2021.2.3,59.970986037692285,
252.75,256.0,41,0.0,Stimuli/Blank.png,0,0.0,0.0,0,112,112,112,,,,,,,,,,,,,252.7565644999995,0.006564499999512918,None,303.8424139999988,303.8424139999988,303.8424139999988,303.8424139999988,303.8424139999988,303.8424139999988,303.8424139999988,303.8424139999988,303.8424139999988,303.8424139999988,,005,P017,2025_Mar_07_1627,ConditionRich,2021.2.3,59.970986037692285,
256.0,256.75,6,0.75,Stimuli/P017/sun_atuyvunnykjurjgx.jpg,0,0.0,0.0,0,113,113,113,,,,,,,,,,,,,256.00866040000255,0.008660400002554525,None,307.09528189999764,307.09528189999764,307.09528189999764,307.09528189999764,307.09528189999764,307.09528189999764,307.09528189999764,307.09528189999764,307.09528189999764,307.09528189999764,,005,P017,2025_Mar_07_1627,ConditionRich,2021.2.3,59.970986037692285,
256.75,260.0,41,0.0,Stimuli/Blank.png,1,2.25,3.0,0,114,114,114,,,,,,,,,,,,,256.76184600000124,0.011846000001241919,1,307.86265490000005,307.86265490000005,307.86265490000005,307.86265490000005,307.86265490000005,307.86265490000005,310.0979477999972,310.84874259999924,307.86265490000005,307.86265490000005,2.7159749000020383,005,P017,2025_Mar_07_1627,ConditionRich,2021.2.3,59.970986037692285,
260.0,260.75,24,0.75,Stimuli/P017/things_breadbox_09s.jpg,0,0.0,0.0,0,115,115,115,,,,,,,,,,,,,260.0291627000006,0.029162700000597397,None,311.1155134999972,311.1155134999972,311.1155134999972,311.1155134999972,311.1155134999972,311.1155134999972,311.1155134999972,311.1155134999972,311.1155134999972,311.1155134999972,,005,P017,2025_Mar_07_1627,ConditionRich,2021.2.3,59.970986037692285,
260.75,264.0,41,0.0,Stimuli/Blank.png,0,0.0,0.0,0,116,116,116,,,,,,,,,,,,,260.76337310000235,0.013373100002354477,None,311.84947999999713,311.84947999999713,311.84947999999713,311.84947999999713,311.84947999999713,311.84947999999713,311.84947999999713,311.84947999999713,311.84947999999713,311.84947999999713,,005,P017,2025_Mar_07_1627,ConditionRich,2021.2.3,59.970986037692285,
264.0,264.75,33,0.75,Stimuli/P017/things_lamb_09s.jpg,0,0.0,0.0,0,117,117,117,,,,,,,,,,,,,264.00083500000255,0.000835000002552988,None,315.10237199999756,315.10237199999756,315.10237199999756,315.10237199999756,315.10237199999756,315.10237199999756,315.10237199999756,315.10237199999756,315.10237199999756,315.10237199999756,,005,P017,2025_Mar_07_1627,ConditionRich,2021.2.3,59.970986037692285,
264.75,268.0,41,0.0,Stimuli/Blank.png,0,0.0,0.0,0,118,118,118,,,,,,,,,,,,,264.7666508000002,0.0166508000002068,None,315.8530361999983,315.8530361999983,315.8530361999983,315.8530361999983,315.8530361999983,315.8530361999983,315.8530361999983,315.8530361999983,315.8530361999983,315.8530361999983,,005,P017,2025_Mar_07_1627,ConditionRich,2021.2.3,59.970986037692285,
268.0,268.75,20,0.75,Stimuli/P017/sun_buukivvfbfhosrng.jpg,0,0.0,0.0,0,119,119,119,,,,,,,,,,,,,268.0030132000029,0.003013200002897065,None,319.0892088999972,319.0892088999972,319.0892088999972,319.0892088999972,319.0892088999972,319.0892088999972,319.0892088999972,319.0892088999972,319.0892088999972,319.0892088999972,,005,P017,2025_Mar_07_1627,ConditionRich,2021.2.3,59.970986037692285,
268.75,272.0,41,0.0,Stimuli/Blank.png,0,0.0,0.0,0,120,120,120,,,,,,,,,,,,,268.7534968,0.0034967999999935273,None,319.83998319999955,319.83998319999955,319.83998319999955,319.83998319999955,319.83998319999955,319.83998319999955,319.83998319999955,319.83998319999955,319.83998319999955,319.83998319999955,,005,P017,2025_Mar_07_1627,ConditionRich,2021.2.3,59.970986037692285,
272.0,272.75,11,0.75,Stimuli/P017/sun_bdzxsadvniuolmio.jpg,0,0.0,0.0,0,121,121,121,,,,,,,,,,,,,272.0057833999999,0.0057833999999274965,None,323.09275100000013,323.09275100000013,323.09275100000013,323.09275100000013,323.09275100000013,323.09275100000013,323.09275100000013,323.09275100000013,323.09275100000013,323.09275100000013,,005,P017,2025_Mar_07_1627,ConditionRich,2021.2.3,59.970986037692285,
272.75,276.0,41,0.0,Stimuli/Blank.png,0,0.0,0.0,0,122,122,122,,,,,,,,,,,,,272.7563394000026,0.006339400002616458,None,323.8434135999996,323.8434135999996,323.8434135999996,323.8434135999996,323.8434135999996,323.8434135999996,323.8434135999996,323.8434135999996,323.8434135999996,323.8434135999996,,005,P017,2025_Mar_07_1627,ConditionRich,2021.2.3,59.970986037692285,
276.0,292.0,0,0.0,Stimuli/Blank.png,1,7.0,7.75,0,123,123,123,,,,,,,,,,,,,276.0102552999997,0.010255299999698764,1,327.0963085000003,327.0963085000003,327.0963085000003,327.0963085000003,327.0963085000003,327.0963085000003,334.0858057999976,334.8364339999971,327.0963085000003,327.0963085000003,7.321490199999971,005,P017,2025_Mar_07_1627,ConditionRich,2021.2.3,59.970986037692285,
292.0,292.75,3,0.75,Stimuli/P017/sun_acymmczhyuiimeub.jpg,0,0.0,0.0,0,124,124,124,,,,,,,,,,,,,292.0076169000022,0.007616900002176408,None,343.0937589999994,343.0937589999994,343.0937589999994,343.0937589999994,343.0937589999994,343.0937589999994,343.0937589999994,343.0937589999994,343.0937589999994,343.0937589999994,,005,P017,2025_Mar_07_1627,ConditionRich,2021.2.3,59.970986037692285,
292.75,296.0,41,0.0,Stimuli/Blank.png,0,0.0,0.0,0,125,125,125,,,,,,,,,,,,,292.7575371000021,0.007537100002082298,None,343.8444256999974,343.8444256999974,343.8444256999974,343.8444256999974,343.8444256999974,343.8444256999974,343.8444256999974,343.8444256999974,343.8444256999974,343.8444256999974,,005,P017,2025_Mar_07_1627,ConditionRich,2021.2.3,59.970986037692285,
296.0,296.75,39,0.75,Stimuli/P017/things_veil_09s.jpg,0,0.0,0.0,0,126,126,126,,,,,,,,,,,,,296.01214170000094,0.012141700000938727,None,347.11415829999896,347.11415829999896,347.11415829999896,347.11415829999896,347.11415829999896,347.11415829999896,347.11415829999896,347.11415829999896,347.11415829999896,347.11415829999896,,005,P017,2025_Mar_07_1627,ConditionRich,2021.2.3,59.970986037692285,
296.75,300.0,41,0.0,Stimuli/Blank.png,0,0.0,0.0,0,127,127,127,,,,,,,,,,,,,296.7777870000027,0.027787000002717832,None,347.8646446999992,347.8646446999992,347.8646446999992,347.8646446999992,347.8646446999992,347.8646446999992,347.8646446999992,347.8646446999992,347.8646446999992,347.8646446999992,,005,P017,2025_Mar_07_1627,ConditionRich,2021.2.3,59.970986037692285,
300.0,300.75,4,0.75,Stimuli/P017/sun_aibvvqlmlsjnrgdj.jpg,0,0.0,0.0,0,128,128,128,,,,,,,,,,,,,300.01512130000265,0.015121300002647331,None,351.11752219999835,351.11752219999835,351.11752219999835,351.11752219999835,351.11752219999835,351.11752219999835,351.11752219999835,351.11752219999835,351.11752219999835,351.11752219999835,,005,P017,2025_Mar_07_1627,ConditionRich,2021.2.3,59.970986037692285,
300.75,304.0,41,0.0,Stimuli/Blank.png,0,0.0,0.0,0,129,129,129,,,,,,,,,,,,,300.7658446000023,0.01584460000231047,None,351.85150950000025,351.85150950000025,351.85150950000025,351.85150950000025,351.85150950000025,351.85150950000025,351.85150950000025,351.85150950000025,351.85150950000025,351.85150950000025,,005,P017,2025_Mar_07_1627,ConditionRich,2021.2.3,59.970986037692285,
304.0,304.75,26,0.75,Stimuli/P017/things_chandelier_09s.jpg,0,0.0,0.0,0,130,130,130,,,,,,,,,,,,,304.00156290000086,0.00156290000086301,None,355.087693999998,355.087693999998,355.087693999998,355.087693999998,355.087693999998,355.087693999998,355.087693999998,355.087693999998,355.087693999998,355.087693999998,,005,P017,2025_Mar_07_1627,ConditionRich,2021.2.3,59.970986037692285,
304.75,308.0,41,0.0,Stimuli/Blank.png,0,0.0,0.0,0,131,131,131,,,,,,,,,,,,,304.7514099,0.0014098999999987427,None,355.83835270000054,355.83835270000054,355.83835270000054,355.83835270000054,355.83835270000054,355.83835270000054,355.83835270000054,355.83835270000054,355.83835270000054,355.83835270000054,,005,P017,2025_Mar_07_1627,ConditionRich,2021.2.3,59.970986037692285,
308.0,308.75,36,0.75,Stimuli/P017/things_nest_09s.jpg,0,0.0,0.0,0,132,132,132,,,,,,,,,,,,,308.0052353000028,0.005235300002823351,None,359.1079159999972,359.1079159999972,359.1079159999972,359.1079159999972,359.1079159999972,359.1079159999972,359.1079159999972,359.1079159999972,359.1079159999972,359.1079159999972,,005,P017,2025_Mar_07_1627,ConditionRich,2021.2.3,59.970986037692285,
308.75,312.0,41,0.0,Stimuli/Blank.png,0,0.0,0.0,0,133,133,133,,,,,,,,,,,,,308.7724838000031,0.02248380000310135,None,359.8585734999979,359.8585734999979,359.8585734999979,359.8585734999979,359.8585734999979,359.8585734999979,359.8585734999979,359.8585734999979,359.8585734999979,359.8585734999979,,005,P017,2025_Mar_07_1627,ConditionRich,2021.2.3,59.970986037692285,
312.0,312.75,27,0.75,Stimuli/P017/things_coffin_09s.jpg,0,0.0,0.0,0,134,134,134,,,,,,,,,,,,,312.00847440000143,0.008474400001432514,None,363.1114665999994,363.1114665999994,363.1114665999994,363.1114665999994,363.1114665999994,363.1114665999994,363.1114665999994,363.1114665999994,363.1114665999994,363.1114665999994,,005,P017,2025_Mar_07_1627,ConditionRich,2021.2.3,59.970986037692285,
312.75,316.0,41,0.0,Stimuli/Blank.png,0,0.0,0.0,0,135,135,135,,,,,,,,,,,,,312.7758169000008,0.025816900000791065,None,363.8621415999987,363.8621415999987,363.8621415999987,363.8621415999987,363.8621415999987,363.8621415999987,363.8621415999987,363.8621415999987,363.8621415999987,363.8621415999987,,005,P017,2025_Mar_07_1627,ConditionRich,2021.2.3,59.970986037692285,
316.0,316.75,32,0.75,Stimuli/P017/things_horse_09s.jpg,0,0.0,0.0,0,136,136,136,,,,,,,,,,,,,316.0119470999998,0.011947099999815691,None,367.0983218000001,367.0983218000001,367.0983218000001,367.0983218000001,367.0983218000001,367.0983218000001,367.0983218000001,367.0983218000001,367.0983218000001,367.0983218000001,,005,P017,2025_Mar_07_1627,ConditionRich,2021.2.3,59.970986037692285,
316.75,320.0,41,0.0,Stimuli/Blank.png,0,0.0,0.0,0,137,137,137,,,,,,,,,,,,,316.7620640000023,0.012064000002283137,None,367.848980499999,367.848980499999,367.848980499999,367.848980499999,367.848980499999,367.848980499999,367.848980499999,367.848980499999,367.848980499999,367.848980499999,,005,P017,2025_Mar_07_1627,ConditionRich,2021.2.3,59.970986037692285,
320.0,320.75,30,0.75,Stimuli/P017/things_girl_09s.jpg,0,0.0,0.0,0,138,138,138,,,,,,,,,,,,,320.0157719000017,0.015771900001709582,None,371.1018540999976,371.1018540999976,371.1018540999976,371.1018540999976,371.1018540999976,371.1018540999976,371.1018540999976,371.1018540999976,371.1018540999976,371.1018540999976,,005,P017,2025_Mar_07_1627,ConditionRich,2021.2.3,59.970986037692285,
320.75,324.0,41,0.0,Stimuli/Blank.png,0,0.0,0.0,0,139,139,139,,,,,,,,,,,,,320.7510428000023,0.0010428000023239292,None,371.85253629999715,371.85253629999715,371.85253629999715,371.85253629999715,371.85253629999715,371.85253629999715,371.85253629999715,371.85253629999715,371.85253629999715,371.85253629999715,,005,P017,2025_Mar_07_1627,ConditionRich,2021.2.3,59.970986037692285,
324.0,324.75,9,0.75,Stimuli/P017/sun_ayidxslzurdumeps.jpg,0,0.0,0.0,0,140,140,140,,,,,,,,,,,,,324.0191752000028,0.019175200002791826,None,375.1220684,375.1220684,375.1220684,375.1220684,375.1220684,375.1220684,375.1220684,375.1220684,375.1220684,375.1220684,,005,P017,2025_Mar_07_1627,ConditionRich,2021.2.3,59.970986037692285,
324.75,328.0,41,0.0,Stimuli/Blank.png,0,0.0,0.0,0,141,141,141,,,,,,,,,,,,,324.7712638000012,0.021263800001179334,None,375.8727422999982,375.8727422999982,375.8727422999982,375.8727422999982,375.8727422999982,375.8727422999982,375.8727422999982,375.8727422999982,375.8727422999982,375.8727422999982,,005,P017,2025_Mar_07_1627,ConditionRich,2021.2.3,59.970986037692285,
328.0,328.75,16,0.75,Stimuli/P017/sun_brfwxjsnmauhmfzf.jpg,0,0.0,0.0,0,142,142,142,,,,,,,,,,,,,328.0221851000024,0.022185100002388936,None,379.10893639999995,379.10893639999995,379.10893639999995,379.10893639999995,379.10893639999995,379.10893639999995,379.10893639999995,379.10893639999995,379.10893639999995,379.10893639999995,,005,P017,2025_Mar_07_1627,ConditionRich,2021.2.3,59.970986037692285,
328.75,332.0,41,0.0,Stimuli/Blank.png,0,0.0,0.0,0,143,143,143,,,,,,,,,,,,,328.7569653999999,0.006965399999899091,None,379.8429157999999,379.8429157999999,379.8429157999999,379.8429157999999,379.8429157999999,379.8429157999999,379.8429157999999,379.8429157999999,379.8429157999999,379.8429157999999,,005,P017,2025_Mar_07_1627,ConditionRich,2021.2.3,59.970986037692285,
332.0,332.75,5,0.75,Stimuli/P017/sun_apojgqgvdvsksdvo.jpg,0,0.0,0.0,0,144,144,144,,,,,,,,,,,,,332.0110235000029,0.011023500002920628,None,383.11247359999834,383.11247359999834,383.11247359999834,383.11247359999834,383.11247359999834,383.11247359999834,383.11247359999834,383.11247359999834,383.11247359999834,383.11247359999834,,005,P017,2025_Mar_07_1627,ConditionRich,2021.2.3,59.970986037692285,
332.75,336.0,41,0.0,Stimuli/Blank.png,0,0.0,0.0,0,145,145,145,,,,,,,,,,,,,332.77606970000124,0.0260697000012442,None,383.8631314999984,383.8631314999984,383.8631314999984,383.8631314999984,383.8631314999984,383.8631314999984,383.8631314999984,383.8631314999984,383.8631314999984,383.8631314999984,,005,P017,2025_Mar_07_1627,ConditionRich,2021.2.3,59.970986037692285,
336.0,336.75,1,0.75,Stimuli/P017/sun_aawmwfqqbzauhqkb.jpg,0,0.0,0.0,0,146,146,146,,,,,,,,,,,,,336.0124101000001,0.012410100000124658,None,387.0993208,387.0993208,387.0993208,387.0993208,387.0993208,387.0993208,387.0993208,387.0993208,387.0993208,387.0993208,,005,P017,2025_Mar_07_1627,ConditionRich,2021.2.3,59.970986037692285,
336.75,340.0,41,0.0,Stimuli/Blank.png,1,2.25,3.0,0,147,147,147,,,,,,,,,,,,,336.76296340000044,0.01296340000044438,1,387.8499905999997,387.8499905999997,387.8499905999997,387.8499905999997,387.8499905999997,387.8499905999997,390.0853325999997,390.8359669999991,387.8499905999997,387.8499905999997,2.5936987999994017,005,P017,2025_Mar_07_1627,ConditionRich,2021.2.3,59.970986037692285,
340.0,340.75,22,0.75,Stimuli/P017/things_boat_09s.jpg,0,0.0,0.0,0,148,148,148,,,,,,,,,,,,,340.0014785000021,0.0014785000021220185,None,391.10286509999787,391.10286509999787,391.10286509999787,391.10286509999787,391.10286509999787,391.10286509999787,391.10286509999787,391.10286509999787,391.10286509999787,391.10286509999787,,005,P017,2025_Mar_07_1627,ConditionRich,2021.2.3,59.970986037692285,
340.75,344.0,41,0.0,Stimuli/Blank.png,1,2.25,3.0,0,149,149,149,,,,,,,,,,,,,340.7673133999997,0.017313399999693502,1,391.8535188999995,391.8535188999995,391.8535188999995,391.8535188999995,391.8535188999995,391.8535188999995,394.08887369999866,394.83949500000017,391.8535188999995,391.8535188999995,2.717158700001164,005,P017,2025_Mar_07_1627,ConditionRich,2021.2.3,59.970986037692285,
344.0,344.75,7,0.75,Stimuli/P017/sun_auadhqmfjsjtjcue.jpg,0,0.0,0.0,0,150,150,150,,,,,,,,,,,,,344.00351520000186,0.0035152000018570106,None,395.08971369999927,395.08971369999927,395.08971369999927,395.08971369999927,395.08971369999927,395.08971369999927,395.08971369999927,395.08971369999927,395.08971369999927,395.08971369999927,,005,P017,2025_Mar_07_1627,ConditionRich,2021.2.3,59.970986037692285,
344.75,348.0,41,0.0,Stimuli/Blank.png,0,0.0,0.0,0,151,151,151,,,,,,,,,,,,,344.7558143999995,0.0058143999995081685,None,395.8570703000005,395.8570703000005,395.8570703000005,395.8570703000005,395.8570703000005,395.8570703000005,395.8570703000005,395.8570703000005,395.8570703000005,395.8570703000005,,005,P017,2025_Mar_07_1627,ConditionRich,2021.2.3,59.970986037692285,
348.0,348.75,34,0.75,Stimuli/P017/things_llama_09s.jpg,1,0.0,0.75,0,152,152,152,,,,,,,,,,,,,348.02291660000265,0.022916600002645282,1,399.1099389999981,399.1099389999981,399.1099389999981,399.1099389999981,399.1099389999981,399.1099389999981,399.1099389999981,None,399.1099389999981,399.1099389999981,0.42973560000245925,005,P017,2025_Mar_07_1627,ConditionRich,2021.2.3,59.970986037692285,
348.75,352.0,41,0.0,Stimuli/Blank.png,0,0.0,0.0,0,153,153,153,,,,,,,,,,,,,348.75679760000276,0.006797600002755644,None,399.84392389999994,399.84392389999994,399.84392389999994,399.84392389999994,399.84392389999994,399.84392389999994,399.84392389999994,399.84392389999994,399.84392389999994,399.84392389999994,,005,P017,2025_Mar_07_1627,ConditionRich,2021.2.3,59.970986037692285,
352.0,352.75,15,0.75,Stimuli/P017/sun_bobznlnnzwznersx.jpg,0,0.0,0.0,0,154,154,154,,,,,,,,,,,,,352.01138020000144,0.011380200001440244,None,403.11348109999744,403.11348109999744,403.11348109999744,403.11348109999744,403.11348109999744,403.11348109999744,403.11348109999744,403.11348109999744,403.11348109999744,403.11348109999744,,005,P017,2025_Mar_07_1627,ConditionRich,2021.2.3,59.970986037692285,
352.75,356.0,41,0.0,Stimuli/Blank.png,0,0.0,0.0,0,155,155,155,,,,,,,,,,,,,352.7770664000018,0.02706640000178595,None,403.864141799997,403.864141799997,403.864141799997,403.864141799997,403.864141799997,403.864141799997,403.864141799997,403.864141799997,403.864141799997,403.864141799997,,005,P017,2025_Mar_07_1627,ConditionRich,2021.2.3,59.970986037692285,
356.0,356.75,2,0.75,Stimuli/P017/sun_acliytrpktltxwsx.jpg,0,0.0,0.0,0,156,156,156,,,,,,,,,,,,,356.0142126000028,0.014212600002792897,None,407.10033869999825,407.10033869999825,407.10033869999825,407.10033869999825,407.10033869999825,407.10033869999825,407.10033869999825,407.10033869999825,407.10033869999825,407.10033869999825,,005,P017,2025_Mar_07_1627,ConditionRich,2021.2.3,59.970986037692285,
356.75,360.0,41,0.0,Stimuli/Blank.png,0,0.0,0.0,0,157,157,157,,,,,,,,,,,,,356.7670392,0.017039199999999255,None,407.867690199997,407.867690199997,407.867690199997,407.867690199997,407.867690199997,407.867690199997,407.867690199997,407.867690199997,407.867690199997,407.867690199997,,005,P017,2025_Mar_07_1627,ConditionRich,2021.2.3,59.970986037692285,
360.0,360.75,8,0.75,Stimuli/P017/sun_axsmqyyvebrcuhkn.jpg,0,0.0,0.0,0,158,158,158,,,,,,,,,,,,,360.0173098000014,0.017309800001385156,None,411.10388359999706,411.10388359999706,411.10388359999706,411.10388359999706,411.10388359999706,411.10388359999706,411.10388359999706,411.10388359999706,411.10388359999706,411.10388359999706,,005,P017,2025_Mar_07_1627,ConditionRich,2021.2.3,59.970986037692285,
360.75,364.0,41,0.0,Stimuli/Blank.png,0,0.0,0.0,0,159,159,159,,,,,,,,,,,,,360.7516295000023,0.0016295000023092143,None,411.8378516999983,411.8378516999983,411.8378516999983,411.8378516999983,411.8378516999983,411.8378516999983,411.8378516999983,411.8378516999983,411.8378516999983,411.8378516999983,,005,P017,2025_Mar_07_1627,ConditionRich,2021.2.3,59.970986037692285,
364.0,364.75,21,0.75,Stimuli/P017/things_baby_09s.jpg,0,0.0,0.0,0,160,160,160,,,,,,,,,,,,,364.0061143000021,0.006114300002082018,None,415.10742069999833,415.10742069999833,415.10742069999833,415.10742069999833,415.10742069999833,415.10742069999833,415.10742069999833,415.10742069999833,415.10742069999833,415.10742069999833,,005,P017,2025_Mar_07_1627,ConditionRich,2021.2.3,59.970986037692285,
364.75,368.0,41,0.0,Stimuli/Blank.png,0,0.0,0.0,0,161,161,161,,,,,,,,,,,,,364.77119890000176,0.021198900001763832,None,415.85807869999917,415.85807869999917,415.85807869999917,415.85807869999917,415.85807869999917,415.85807869999917,415.85807869999917,415.85807869999917,415.85807869999917,415.85807869999917,,005,P017,2025_Mar_07_1627,ConditionRich,2021.2.3,59.970986037692285,
368.0,368.75,31,0.75,Stimuli/P017/things_highchair_09s.jpg,0,0.0,0.0,0,162,162,162,,,,,,,,,,,,,368.0078573000028,0.007857300002797274,None,419.09423199999947,419.09423199999947,419.09423199999947,419.09423199999947,419.09423199999947,419.09423199999947,419.09423199999947,419.09423199999947,419.09423199999947,419.09423199999947,,005,P017,2025_Mar_07_1627,ConditionRich,2021.2.3,59.970986037692285,
368.75,372.0,41,0.0,Stimuli/Blank.png,1,0.25,1.0,0,163,163,163,,,,,,,,,,,,,368.75834419999956,0.008344199999555713,1,419.844933999997,419.844933999997,419.844933999997,419.844933999997,419.844933999997,419.844933999997,420.07851879999725,420.8291360999974,419.844933999997,419.844933999997,0.5929681000015989,005,P017,2025_Mar_07_1627,ConditionRich,2021.2.3,59.970986037692285,
372.0,388.0,0,0.0,Stimuli/Blank.png,1,10.0,10.75,0,164,164,164,,,,,,,,,,,,,372.0115904000013,0.011590400001296075,1,423.09781289999955,423.09781289999955,423.09781289999955,423.09781289999955,423.09781289999955,423.09781289999955,433.0899709999976,433.84063310000056,423.09781289999955,423.09781289999955,10.497900700000173,005,P017,2025_Mar_07_1627,ConditionRich,2021.2.3,59.970986037692285,
