eventStartTime,eventEndTime,eventCond,imSize,imFile,responseEvent,fixRespStart,fixRespEnd,Events.thisRepN,Events.thisTrialN,Events.thisN,Events.thisIndex,Instructions.started,Instructions.stopped,participantReadyResponse.keys,participantReadyResponse.rt,participantReadyResponse.started,participantReadyResponse.stopped,startWaitforTrigger,triggerResponse.keys,triggerResponse.rt,triggerResponse.started,triggerResponse.stopped,globalTimer,actualStartTime,startTimingDiff,participantResponse.keys,participantResponse.started,participantResponse.stopped,image.started,image.stopped,fixationOutside.started,fixationOutside.stopped,fixationResponse.started,fixationResponse.stopped,fixationInside.started,fixationInside.stopped,participantResponse.rt,session,participant,date,expName,psychopyVersion,frameRate,
,,,,,,,,,,,,9.654920299999503,None,1,2.3605939999979455,9.654920299999503,None,,,,,,,,,,,,,,,,,,,,,003,P017,2025_Mar_07_1606,ConditionRich,2021.2.3,59.941293496726466,
,,,,,,,,,,,,,,,,,,12.03096849999929,5,13.893928600002255,12.043261300001177,None,,,,,,,,,,,,,,,,003,P017,2025_Mar_07_1606,ConditionRich,2021.2.3,59.941293496726466,
0.0,4.0,0,0.0,Stimuli/Blank.png,0,0,0.0,0,0,0,0,,,,,,,,,,,,25.942404299999907,0.03741229999650386,0.03741229999650386,None,26.0055577000021,None,26.0055577000021,None,26.0055577000021,None,26.0055577000021,26.0055577000021,26.0055577000021,None,,003,P017,2025_Mar_07_1606,ConditionRich,2021.2.3,59.941293496726466,
4.0,7.75,29,0.75,Stimuli/P017/things_face_09s.jpg,0,0,0.0,0,1,1,1,,,,,,,,,,,,,4.019513999999617,0.019513999999617226,None,29.992725700001756,29.992725700001756,29.992725700001756,29.992725700001756,29.992725700001756,29.992725700001756,29.992725700001756,29.992725700001756,29.992725700001756,29.992725700001756,,003,P017,2025_Mar_07_1606,ConditionRich,2021.2.3,59.941293496726466,
7.75,8.0,41,0.0,Stimuli/Blank.png,0,0,0.0,0,2,2,2,,,,,,,,,,,,,7.7736169999989215,0.02361699999892153,None,33.74607390000165,33.74607390000165,33.74607390000165,33.74607390000165,33.74607390000165,33.74607390000165,33.74607390000165,33.74607390000165,33.74607390000165,33.74607390000165,,003,P017,2025_Mar_07_1606,ConditionRich,2021.2.3,59.941293496726466,
8.0,11.75,36,0.75,Stimuli/P017/things_nest_09s.jpg,1,2,2.75,0,3,3,3,,,,,,,,,,,,,8.022844999999506,0.0228449999995064,1,33.97927150000032,33.97927150000032,33.97927150000032,33.97927150000032,33.97927150000032,33.97927150000032,35.96436250000261,36.7150266000026,33.97927150000032,33.97927150000032,2.4601081000000704,003,P017,2025_Mar_07_1606,ConditionRich,2021.2.3,59.941293496726466,
11.75,12.0,41,0.0,Stimuli/Blank.png,0,0,0.0,0,4,4,4,,,,,,,,,,,,,11.759086799997021,0.009086799997021444,None,37.71590540000034,37.71590540000034,37.71590540000034,37.71590540000034,37.71590540000034,37.71590540000034,37.71590540000034,37.71590540000034,37.71590540000034,37.71590540000034,,003,P017,2025_Mar_07_1606,ConditionRich,2021.2.3,59.941293496726466,
12.0,15.75,28,0.75,Stimuli/P017/things_collar_09s.jpg,1,3,3.75,0,5,5,5,,,,,,,,,,,,,12.009197699997458,0.009197699997457676,1,37.96612660000028,37.96612660000028,37.96612660000028,37.96612660000028,37.96612660000028,37.96612660000028,40.95209960000284,41.70277899999928,37.96612660000028,37.96612660000028,3.3740847000008216,003,P017,2025_Mar_07_1606,ConditionRich,2021.2.3,59.941293496726466,
15.75,16.0,41,0.0,Stimuli/Blank.png,0,0,0.0,0,6,6,6,,,,,,,,,,,,,15.762456599997677,0.012456599997676676,None,41.71949060000043,41.71949060000043,41.71949060000043,41.71949060000043,41.71949060000043,41.71949060000043,41.71949060000043,41.71949060000043,41.71949060000043,41.71949060000043,,003,P017,2025_Mar_07_1606,ConditionRich,2021.2.3,59.941293496726466,
16.0,19.75,7,0.75,Stimuli/P017/sun_auadhqmfjsjtjcue.jpg,0,0,0.0,0,7,7,7,,,,,,,,,,,,,16.012856999997894,0.012856999997893581,None,41.9698599000003,41.9698599000003,41.9698599000003,41.9698599000003,41.9698599000003,41.9698599000003,41.9698599000003,41.9698599000003,41.9698599000003,41.9698599000003,,003,P017,2025_Mar_07_1606,ConditionRich,2021.2.3,59.941293496726466,
19.75,20.0,41,0.0,Stimuli/Blank.png,0,0,0.0,0,8,8,8,,,,,,,,,,,,,19.75039409999954,0.0003940999995393213,None,45.706334599999536,45.706334599999536,45.706334599999536,45.706334599999536,45.706334599999536,45.706334599999536,45.706334599999536,45.706334599999536,45.706334599999536,45.706334599999536,,003,P017,2025_Mar_07_1606,ConditionRich,2021.2.3,59.941293496726466,
20.0,23.75,5,0.75,Stimuli/P017/sun_apojgqgvdvsksdvo.jpg,0,0,0.0,0,9,9,9,,,,,,,,,,,,,19.999571199998172,-0.0004288000018277671,None,45.956481400000484,45.956481400000484,45.956481400000484,45.956481400000484,45.956481400000484,45.956481400000484,45.956481400000484,45.956481400000484,45.956481400000484,45.956481400000484,,003,P017,2025_Mar_07_1606,ConditionRich,2021.2.3,59.941293496726466,
23.75,24.0,41,0.0,Stimuli/Blank.png,0,0,0.0,0,10,10,10,,,,,,,,,,,,,23.753219199999876,0.0032191999998758547,None,49.70983690000139,49.70983690000139,49.70983690000139,49.70983690000139,49.70983690000139,49.70983690000139,49.70983690000139,49.70983690000139,49.70983690000139,49.70983690000139,,003,P017,2025_Mar_07_1606,ConditionRich,2021.2.3,59.941293496726466,
24.0,27.75,33,0.75,Stimuli/P017/things_lamb_09s.jpg,0,0,0.0,0,11,11,11,,,,,,,,,,,,,24.004119399996853,0.004119399996852735,None,49.97674800000095,49.97674800000095,49.97674800000095,49.97674800000095,49.97674800000095,49.97674800000095,49.97674800000095,49.97674800000095,49.97674800000095,49.97674800000095,,003,P017,2025_Mar_07_1606,ConditionRich,2021.2.3,59.941293496726466,
27.75,28.0,41,0.0,Stimuli/Blank.png,0,0,0.0,0,12,12,12,,,,,,,,,,,,,27.773981799997273,0.0239817999972729,None,53.730077500000334,53.730077500000334,53.730077500000334,53.730077500000334,53.730077500000334,53.730077500000334,53.730077500000334,53.730077500000334,53.730077500000334,53.730077500000334,,003,P017,2025_Mar_07_1606,ConditionRich,2021.2.3,59.941293496726466,
28.0,31.75,39,0.75,Stimuli/P017/things_veil_09s.jpg,0,0,0.0,0,13,13,13,,,,,,,,,,,,,28.00721799999883,0.0072179999988293275,None,53.96357160000116,53.96357160000116,53.96357160000116,53.96357160000116,53.96357160000116,53.96357160000116,53.96357160000116,53.96357160000116,53.96357160000116,53.96357160000116,,003,P017,2025_Mar_07_1606,ConditionRich,2021.2.3,59.941293496726466,
31.75,32.0,41,0.0,Stimuli/Blank.png,0,0,0.0,0,14,14,14,,,,,,,,,,,,,31.760872399998334,0.010872399998334004,None,57.71699079999962,57.71699079999962,57.71699079999962,57.71699079999962,57.71699079999962,57.71699079999962,57.71699079999962,57.71699079999962,57.71699079999962,57.71699079999962,,003,P017,2025_Mar_07_1606,ConditionRich,2021.2.3,59.941293496726466,
32.0,35.75,8,0.75,Stimuli/P017/sun_axsmqyyvebrcuhkn.jpg,0,0,0.0,0,15,15,15,,,,,,,,,,,,,32.010794999998325,0.010794999998324784,None,57.9838579999996,57.9838579999996,57.9838579999996,57.9838579999996,57.9838579999996,57.9838579999996,57.9838579999996,57.9838579999996,57.9838579999996,57.9838579999996,,003,P017,2025_Mar_07_1606,ConditionRich,2021.2.3,59.941293496726466,
35.75,36.0,41,0.0,Stimuli/Blank.png,0,0,0.0,0,16,16,16,,,,,,,,,,,,,35.78086689999691,0.030866899996908614,None,61.73713660000067,61.73713660000067,61.73713660000067,61.73713660000067,61.73713660000067,61.73713660000067,61.73713660000067,61.73713660000067,61.73713660000067,61.73713660000067,,003,P017,2025_Mar_07_1606,ConditionRich,2021.2.3,59.941293496726466,
36.0,39.75,2,0.75,Stimuli/P017/sun_acliytrpktltxwsx.jpg,0,0,0.0,0,17,17,17,,,,,,,,,,,,,36.01378929999919,0.013789299999189097,None,61.97067960000277,61.97067960000277,61.97067960000277,61.97067960000277,61.97067960000277,61.97067960000277,61.97067960000277,61.97067960000277,61.97067960000277,61.97067960000277,,003,P017,2025_Mar_07_1606,ConditionRich,2021.2.3,59.941293496726466,
39.75,40.0,41,0.0,Stimuli/Blank.png,0,0,0.0,0,18,18,18,,,,,,,,,,,,,39.75110909999785,0.0011090999978478067,None,65.70732200000202,65.70732200000202,65.70732200000202,65.70732200000202,65.70732200000202,65.70732200000202,65.70732200000202,65.70732200000202,65.70732200000202,65.70732200000202,,003,P017,2025_Mar_07_1606,ConditionRich,2021.2.3,59.941293496726466,
40.0,43.75,34,0.75,Stimuli/P017/things_llama_09s.jpg,1,2,2.75,0,19,19,19,,,,,,,,,,,,,40.00139399999898,0.0013939999989815988,1,65.95753150000019,65.95753150000019,65.95753150000019,65.95753150000019,65.95753150000019,65.95753150000019,67.94268270000248,68.69332700000086,65.95753150000019,65.95753150000019,2.3189529000010225,003,P017,2025_Mar_07_1606,ConditionRich,2021.2.3,59.941293496726466,
43.75,44.0,41,0.0,Stimuli/Blank.png,0,0,0.0,0,20,20,20,,,,,,,,,,,,,43.754383899999084,0.004383899999083951,None,69.71084610000253,69.71084610000253,69.71084610000253,69.71084610000253,69.71084610000253,69.71084610000253,69.71084610000253,69.71084610000253,69.71084610000253,69.71084610000253,,003,P017,2025_Mar_07_1606,ConditionRich,2021.2.3,59.941293496726466,
44.0,47.75,17,0.75,Stimuli/P017/sun_brhndfjxyigqgiwl.jpg,0,0,0.0,0,21,21,21,,,,,,,,,,,,,44.0045407999969,0.004540799996902933,None,69.96104600000035,69.96104600000035,69.96104600000035,69.96104600000035,69.96104600000035,69.96104600000035,69.96104600000035,69.96104600000035,69.96104600000035,69.96104600000035,,003,P017,2025_Mar_07_1606,ConditionRich,2021.2.3,59.941293496726466,
47.75,48.0,41,0.0,Stimuli/Blank.png,0,0,0.0,0,22,22,22,,,,,,,,,,,,,47.759307499996794,0.009307499996793922,None,73.71440000000075,73.71440000000075,73.71440000000075,73.71440000000075,73.71440000000075,73.71440000000075,73.71440000000075,73.71440000000075,73.71440000000075,73.71440000000075,,003,P017,2025_Mar_07_1606,ConditionRich,2021.2.3,59.941293496726466,
48.0,51.75,25,0.75,Stimuli/P017/things_cannonball_09s.jpg,0,0,0.0,0,23,23,23,,,,,,,,,,,,,48.007717699998466,0.007717699998465832,None,73.96462280000196,73.96462280000196,73.96462280000196,73.96462280000196,73.96462280000196,73.96462280000196,73.96462280000196,73.96462280000196,73.96462280000196,73.96462280000196,,003,P017,2025_Mar_07_1606,ConditionRich,2021.2.3,59.941293496726466,
51.75,52.0,41,0.0,Stimuli/Blank.png,0,0,0.0,0,24,24,24,,,,,,,,,,,,,51.76159009999901,0.011590099999011727,None,77.71790580000015,77.71790580000015,77.71790580000015,77.71790580000015,77.71790580000015,77.71790580000015,77.71790580000015,77.71790580000015,77.71790580000015,77.71790580000015,,003,P017,2025_Mar_07_1606,ConditionRich,2021.2.3,59.941293496726466,
52.0,55.75,32,0.75,Stimuli/P017/things_horse_09s.jpg,1,0,0.75,0,25,25,25,,,,,,,,,,,,,52.012073699999746,0.012073699999746168,None,77.96815530000094,77.96815530000094,77.96815530000094,77.96815530000094,77.96815530000094,77.96815530000094,77.96815530000094,78.7021351000003,77.96815530000094,77.96815530000094,,003,P017,2025_Mar_07_1606,ConditionRich,2021.2.3,59.941293496726466,
55.75,56.0,41,0.0,Stimuli/Blank.png,0,0,0.0,0,26,26,26,,,,,,,,,,,,,55.765048399996886,0.015048399996885564,None,81.72147480000058,81.72147480000058,81.72147480000058,81.72147480000058,81.72147480000058,81.72147480000058,81.72147480000058,81.72147480000058,81.72147480000058,81.72147480000058,,003,P017,2025_Mar_07_1606,ConditionRich,2021.2.3,59.941293496726466,
56.0,59.75,35,0.75,Stimuli/P017/things_lobster_09s.jpg,1,1,1.75,0,27,27,27,,,,,,,,,,,,,56.01567849999992,0.01567849999992177,1,81.98838090000208,81.98838090000208,81.98838090000208,81.98838090000208,81.98838090000208,81.98838090000208,82.95589560000008,83.70660110000244,81.98838090000208,81.98838090000208,1.4731461000010313,003,P017,2025_Mar_07_1606,ConditionRich,2021.2.3,59.941293496726466,
59.75,60.0,41,0.0,Stimuli/Blank.png,0,0,0.0,0,28,28,28,,,,,,,,,,,,,59.76815069999793,0.01815069999793195,None,85.72498220000125,85.72498220000125,85.72498220000125,85.72498220000125,85.72498220000125,85.72498220000125,85.72498220000125,85.72498220000125,85.72498220000125,85.72498220000125,,003,P017,2025_Mar_07_1606,ConditionRich,2021.2.3,59.941293496726466,
60.0,63.75,40,0.75,Stimuli/P017/things_woman_09s.jpg,0,0,0.0,0,29,29,29,,,,,,,,,,,,,60.004513199997746,0.004513199997745687,None,85.97522369999933,85.97522369999933,85.97522369999933,85.97522369999933,85.97522369999933,85.97522369999933,85.97522369999933,85.97522369999933,85.97522369999933,85.97522369999933,,003,P017,2025_Mar_07_1606,ConditionRich,2021.2.3,59.941293496726466,
63.75,64.0,41,0.0,Stimuli/Blank.png,0,0,0.0,0,30,30,30,,,,,,,,,,,,,63.77463439999701,0.024634399997012224,None,89.74523430000045,89.74523430000045,89.74523430000045,89.74523430000045,89.74523430000045,89.74523430000045,89.74523430000045,89.74523430000045,89.74523430000045,89.74523430000045,,003,P017,2025_Mar_07_1606,ConditionRich,2021.2.3,59.941293496726466,
64.0,67.75,19,0.75,Stimuli/P017/sun_brrwzaypucosdcgt.jpg,0,0,0.0,0,31,31,31,,,,,,,,,,,,,64.02481909999915,0.02481909999914933,None,89.995475300002,89.995475300002,89.995475300002,89.995475300002,89.995475300002,89.995475300002,89.995475300002,89.995475300002,89.995475300002,89.995475300002,,003,P017,2025_Mar_07_1606,ConditionRich,2021.2.3,59.941293496726466,
67.75,68.0,41,0.0,Stimuli/Blank.png,0,0,0.0,0,32,32,32,,,,,,,,,,,,,67.77517949999674,0.02517949999673874,None,93.73209150000184,93.73209150000184,93.73209150000184,93.73209150000184,93.73209150000184,93.73209150000184,93.73209150000184,93.73209150000184,93.73209150000184,93.73209150000184,,003,P017,2025_Mar_07_1606,ConditionRich,2021.2.3,59.941293496726466,
68.0,71.75,23,0.75,Stimuli/P017/things_boy_09s.jpg,0,0,0.0,0,33,33,33,,,,,,,,,,,,,68.00868499999706,0.008684999997058185,None,93.96562819999963,93.96562819999963,93.96562819999963,93.96562819999963,93.96562819999963,93.96562819999963,93.96562819999963,93.96562819999963,93.96562819999963,93.96562819999963,,003,P017,2025_Mar_07_1606,ConditionRich,2021.2.3,59.941293496726466,
71.75,72.0,41,0.0,Stimuli/Blank.png,0,0,0.0,0,34,34,34,,,,,,,,,,,,,71.7645343999975,0.014534399997501168,None,97.7356342000021,97.7356342000021,97.7356342000021,97.7356342000021,97.7356342000021,97.7356342000021,97.7356342000021,97.7356342000021,97.7356342000021,97.7356342000021,,003,P017,2025_Mar_07_1606,ConditionRich,2021.2.3,59.941293496726466,
72.0,75.75,1,0.75,Stimuli/P017/sun_aawmwfqqbzauhqkb.jpg,0,0,0.0,0,35,35,35,,,,,,,,,,,,,72.02952129999903,0.029521299999032635,None,97.98580960000254,97.98580960000254,97.98580960000254,97.98580960000254,97.98580960000254,97.98580960000254,97.98580960000254,97.98580960000254,97.98580960000254,97.98580960000254,,003,P017,2025_Mar_07_1606,ConditionRich,2021.2.3,59.941293496726466,
75.75,76.0,41,0.0,Stimuli/Blank.png,0,0,0.0,0,36,36,36,,,,,,,,,,,,,75.74940729999798,-0.0005927000020164996,None,101.7058008999993,101.7058008999993,101.7058008999993,101.7058008999993,101.7058008999993,101.7058008999993,101.7058008999993,101.7058008999993,101.7058008999993,101.7058008999993,,003,P017,2025_Mar_07_1606,ConditionRich,2021.2.3,59.941293496726466,
76.0,79.75,27,0.75,Stimuli/P017/things_coffin_09s.jpg,0,0,0.0,0,37,37,37,,,,,,,,,,,,,75.99983749999956,-0.00016250000044237822,None,101.95597230000203,101.95597230000203,101.95597230000203,101.95597230000203,101.95597230000203,101.95597230000203,101.95597230000203,101.95597230000203,101.95597230000203,101.95597230000203,,003,P017,2025_Mar_07_1606,ConditionRich,2021.2.3,59.941293496726466,
79.75,80.0,41,0.0,Stimuli/Blank.png,0,0,0.0,0,38,38,38,,,,,,,,,,,,,79.7533457999998,0.0033457999998063315,None,105.70934340000167,105.70934340000167,105.70934340000167,105.70934340000167,105.70934340000167,105.70934340000167,105.70934340000167,105.70934340000167,105.70934340000167,105.70934340000167,,003,P017,2025_Mar_07_1606,ConditionRich,2021.2.3,59.941293496726466,
80.0,83.75,37,0.75,Stimuli/P017/things_plastic_film_09s.jpg,0,0,0.0,0,39,39,39,,,,,,,,,,,,,80.00323419999768,0.0032341999976779334,None,105.97624170000199,105.97624170000199,105.97624170000199,105.97624170000199,105.97624170000199,105.97624170000199,105.97624170000199,105.97624170000199,105.97624170000199,105.97624170000199,,003,P017,2025_Mar_07_1606,ConditionRich,2021.2.3,59.941293496726466,
83.75,84.0,41,0.0,Stimuli/Blank.png,0,0,0.0,0,40,40,40,,,,,,,,,,,,,83.77318989999912,0.023189899999124464,None,109.72955290000027,109.72955290000027,109.72955290000027,109.72955290000027,109.72955290000027,109.72955290000027,109.72955290000027,109.72955290000027,109.72955290000027,109.72955290000027,,003,P017,2025_Mar_07_1606,ConditionRich,2021.2.3,59.941293496726466,
84.0,100.0,0,0.0,Stimuli/Blank.png,1,5,5.75,0,41,41,41,,,,,,,,,,,,,84.00711819999924,0.00711819999924046,None,109.96312540000145,109.96312540000145,109.96312540000145,109.96312540000145,109.96312540000145,109.96312540000145,114.95080950000192,115.70149149999997,109.96312540000145,109.96312540000145,,003,P017,2025_Mar_07_1606,ConditionRich,2021.2.3,59.941293496726466,
100.0,103.75,4,0.75,Stimuli/P017/sun_aibvvqlmlsjnrgdj.jpg,1,3,3.75,0,42,42,42,,,,,,,,,,,,,100.00433279999925,0.004332799999247072,None,125.97724650000237,125.97724650000237,125.97724650000237,125.97724650000237,125.97724650000237,125.97724650000237,128.94654150000133,129.69719450000048,125.97724650000237,125.97724650000237,,003,P017,2025_Mar_07_1606,ConditionRich,2021.2.3,59.941293496726466,
103.75,104.0,41,0.0,Stimuli/Blank.png,0,0,0.0,0,43,43,43,,,,,,,,,,,,,103.77363530000002,0.023635300000023562,None,129.7305708999993,129.7305708999993,129.7305708999993,129.7305708999993,129.7305708999993,129.7305708999993,129.7305708999993,129.7305708999993,129.7305708999993,129.7305708999993,,003,P017,2025_Mar_07_1606,ConditionRich,2021.2.3,59.941293496726466,
104.0,107.75,31,0.75,Stimuli/P017/things_highchair_09s.jpg,0,0,0.0,0,44,44,44,,,,,,,,,,,,,104.007218499999,0.007218499998998595,None,129.9640681000019,129.9640681000019,129.9640681000019,129.9640681000019,129.9640681000019,129.9640681000019,129.9640681000019,129.9640681000019,129.9640681000019,129.9640681000019,,003,P017,2025_Mar_07_1606,ConditionRich,2021.2.3,59.941293496726466,
107.75,108.0,41,0.0,Stimuli/Blank.png,0,0,0.0,0,45,45,45,,,,,,,,,,,,,107.7614313999984,0.011431399998400593,None,133.71743509999942,133.71743509999942,133.71743509999942,133.71743509999942,133.71743509999942,133.71743509999942,133.71743509999942,133.71743509999942,133.71743509999942,133.71743509999942,,003,P017,2025_Mar_07_1606,ConditionRich,2021.2.3,59.941293496726466,
108.0,111.75,3,0.75,Stimuli/P017/sun_acymmczhyuiimeub.jpg,0,0,0.0,0,46,46,46,,,,,,,,,,,,,108.01071469999806,0.010714699998061405,None,133.98435270000118,133.98435270000118,133.98435270000118,133.98435270000118,133.98435270000118,133.98435270000118,133.98435270000118,133.98435270000118,133.98435270000118,133.98435270000118,,003,P017,2025_Mar_07_1606,ConditionRich,2021.2.3,59.941293496726466,
111.75,112.0,41,0.0,Stimuli/Blank.png,0,0,0.0,0,47,47,47,,,,,,,,,,,,,111.78337689999898,0.0333768999989843,None,137.75435180000204,137.75435180000204,137.75435180000204,137.75435180000204,137.75435180000204,137.75435180000204,137.75435180000204,137.75435180000204,137.75435180000204,137.75435180000204,,003,P017,2025_Mar_07_1606,ConditionRich,2021.2.3,59.941293496726466,
112.0,115.75,6,0.75,Stimuli/P017/sun_atuyvunnykjurjgx.jpg,0,0,0.0,0,48,48,48,,,,,,,,,,,,,112.01413009999669,0.01413009999669157,None,137.97117830000207,137.97117830000207,137.97117830000207,137.97117830000207,137.97117830000207,137.97117830000207,137.97117830000207,137.97117830000207,137.97117830000207,137.97117830000207,,003,P017,2025_Mar_07_1606,ConditionRich,2021.2.3,59.941293496726466,
115.75,116.0,41,0.0,Stimuli/Blank.png,0,0,0.0,0,49,49,49,,,,,,,,,,,,,115.75348089999898,0.0034808999989763834,None,141.7245170999995,141.7245170999995,141.7245170999995,141.7245170999995,141.7245170999995,141.7245170999995,141.7245170999995,141.7245170999995,141.7245170999995,141.7245170999995,,003,P017,2025_Mar_07_1606,ConditionRich,2021.2.3,59.941293496726466,
116.0,119.75,18,0.75,Stimuli/P017/sun_brrvvswweljrvnlq.jpg,0,0,0.0,0,50,50,50,,,,,,,,,,,,,116.01893939999718,0.018939399997179862,None,141.99140910000278,141.99140910000278,141.99140910000278,141.99140910000278,141.99140910000278,141.99140910000278,141.99140910000278,141.99140910000278,141.99140910000278,141.99140910000278,,003,P017,2025_Mar_07_1606,ConditionRich,2021.2.3,59.941293496726466,
119.75,120.0,41,0.0,Stimuli/Blank.png,0,0,0.0,0,51,51,51,,,,,,,,,,,,,119.77173760000005,0.021737600000051316,None,145.72805750000043,145.72805750000043,145.72805750000043,145.72805750000043,145.72805750000043,145.72805750000043,145.72805750000043,145.72805750000043,145.72805750000043,145.72805750000043,,003,P017,2025_Mar_07_1606,ConditionRich,2021.2.3,59.941293496726466,
120.0,123.75,10,0.75,Stimuli/P017/sun_bayxprasninnrnle.jpg,0,0,0.0,0,52,52,52,,,,,,,,,,,,,120.0054147999981,0.005414799998106901,None,145.96157160000075,145.96157160000075,145.96157160000075,145.96157160000075,145.96157160000075,145.96157160000075,145.96157160000075,145.96157160000075,145.96157160000075,145.96157160000075,,003,P017,2025_Mar_07_1606,ConditionRich,2021.2.3,59.941293496726466,
123.75,124.0,41,0.0,Stimuli/Blank.png,0,0,0.0,0,53,53,53,,,,,,,,,,,,,123.75798029999714,0.007980299997143447,None,149.71489930000098,149.71489930000098,149.71489930000098,149.71489930000098,149.71489930000098,149.71489930000098,149.71489930000098,149.71489930000098,149.71489930000098,149.71489930000098,,003,P017,2025_Mar_07_1606,ConditionRich,2021.2.3,59.941293496726466,
124.0,127.75,9,0.75,Stimuli/P017/sun_ayidxslzurdumeps.jpg,0,0,0.0,0,54,54,54,,,,,,,,,,,,,124.00811859999885,0.008118599998852005,None,149.96509259999948,149.96509259999948,149.96509259999948,149.96509259999948,149.96509259999948,149.96509259999948,149.96509259999948,149.96509259999948,149.96509259999948,149.96509259999948,,003,P017,2025_Mar_07_1606,ConditionRich,2021.2.3,59.941293496726466,
127.75,128.0,41,0.0,Stimuli/Blank.png,0,0,0.0,0,55,55,55,,,,,,,,,,,,,127.76341909999974,0.013419099999737227,None,153.73513359999924,153.73513359999924,153.73513359999924,153.73513359999924,153.73513359999924,153.73513359999924,153.73513359999924,153.73513359999924,153.73513359999924,153.73513359999924,,003,P017,2025_Mar_07_1606,ConditionRich,2021.2.3,59.941293496726466,
128.0,131.75,21,0.75,Stimuli/P017/things_baby_09s.jpg,0,0,0.0,0,56,56,56,,,,,,,,,,,,,128.02986739999687,0.029867399996874155,None,154.00205020000067,154.00205020000067,154.00205020000067,154.00205020000067,154.00205020000067,154.00205020000067,154.00205020000067,154.00205020000067,154.00205020000067,154.00205020000067,,003,P017,2025_Mar_07_1606,ConditionRich,2021.2.3,59.941293496726466,
131.75,132.0,41,0.0,Stimuli/Blank.png,0,0,0.0,0,57,57,57,,,,,,,,,,,,,131.76555539999754,0.015555399997538188,None,157.72207630000048,157.72207630000048,157.72207630000048,157.72207630000048,157.72207630000048,157.72207630000048,157.72207630000048,157.72207630000048,157.72207630000048,157.72207630000048,,003,P017,2025_Mar_07_1606,ConditionRich,2021.2.3,59.941293496726466,
132.0,135.75,30,0.75,Stimuli/P017/things_girl_09s.jpg,0,0,0.0,0,58,58,58,,,,,,,,,,,,,131.99925959999746,-0.000740400002541719,None,157.9722180000026,157.9722180000026,157.9722180000026,157.9722180000026,157.9722180000026,157.9722180000026,157.9722180000026,157.9722180000026,157.9722180000026,157.9722180000026,,003,P017,2025_Mar_07_1606,ConditionRich,2021.2.3,59.941293496726466,
135.75,136.0,41,0.0,Stimuli/Blank.png,0,0,0.0,0,59,59,59,,,,,,,,,,,,,135.7692971999968,0.019297199996799463,None,161.72548280000046,161.72548280000046,161.72548280000046,161.72548280000046,161.72548280000046,161.72548280000046,161.72548280000046,161.72548280000046,161.72548280000046,161.72548280000046,,003,P017,2025_Mar_07_1606,ConditionRich,2021.2.3,59.941293496726466,
136.0,139.75,22,0.75,Stimuli/P017/things_boat_09s.jpg,0,0,0.0,0,60,60,60,,,,,,,,,,,,,136.0028637999967,0.0028637999967031647,None,161.9757393,161.9757393,161.9757393,161.9757393,161.9757393,161.9757393,161.9757393,161.9757393,161.9757393,161.9757393,,003,P017,2025_Mar_07_1606,ConditionRich,2021.2.3,59.941293496726466,
139.75,140.0,41,0.0,Stimuli/Blank.png,0,0,0.0,0,61,61,61,,,,,,,,,,,,,139.772895099999,0.022895099999004742,None,165.72906019999937,165.72906019999937,165.72906019999937,165.72906019999937,165.72906019999937,165.72906019999937,165.72906019999937,165.72906019999937,165.72906019999937,165.72906019999937,,003,P017,2025_Mar_07_1606,ConditionRich,2021.2.3,59.941293496726466,
140.0,143.75,16,0.75,Stimuli/P017/sun_brfwxjsnmauhmfzf.jpg,0,0,0.0,0,62,62,62,,,,,,,,,,,,,140.0061765999999,0.006176599999889731,None,165.9793017000011,165.9793017000011,165.9793017000011,165.9793017000011,165.9793017000011,165.9793017000011,165.9793017000011,165.9793017000011,165.9793017000011,165.9793017000011,,003,P017,2025_Mar_07_1606,ConditionRich,2021.2.3,59.941293496726466,
143.75,144.0,41,0.0,Stimuli/Blank.png,0,0,0.0,0,63,63,63,,,,,,,,,,,,,143.77607649999845,0.026076499998453073,None,169.73258360000182,169.73258360000182,169.73258360000182,169.73258360000182,169.73258360000182,169.73258360000182,169.73258360000182,169.73258360000182,169.73258360000182,169.73258360000182,,003,P017,2025_Mar_07_1606,ConditionRich,2021.2.3,59.941293496726466,
144.0,147.75,13,0.75,Stimuli/P017/sun_bizqwyomkqigheyx.jpg,1,3,3.75,0,64,64,64,,,,,,,,,,,,,144.0092369999984,0.009236999998393003,None,169.96613230000003,169.96613230000003,169.96613230000003,169.96613230000003,169.96613230000003,169.96613230000003,172.9520659000009,173.7028175000014,169.96613230000003,169.96613230000003,,003,P017,2025_Mar_07_1606,ConditionRich,2021.2.3,59.941293496726466,
147.75,148.0,41,0.0,Stimuli/Blank.png,0,0,0.0,0,65,65,65,,,,,,,,,,,,,147.7639926999982,0.013992699998198077,None,173.73615680000148,173.73615680000148,173.73615680000148,173.73615680000148,173.73615680000148,173.73615680000148,173.73615680000148,173.73615680000148,173.73615680000148,173.73615680000148,,003,P017,2025_Mar_07_1606,ConditionRich,2021.2.3,59.941293496726466,
148.0,151.75,38,0.75,Stimuli/P017/things_pony_09s.jpg,0,0,0.0,0,66,66,66,,,,,,,,,,,,,148.02935759999673,0.029357599996728823,None,173.9863148000004,173.9863148000004,173.9863148000004,173.9863148000004,173.9863148000004,173.9863148000004,173.9863148000004,173.9863148000004,173.9863148000004,173.9863148000004,,003,P017,2025_Mar_07_1606,ConditionRich,2021.2.3,59.941293496726466,
151.75,152.0,41,0.0,Stimuli/Blank.png,0,0,0.0,0,67,67,67,,,,,,,,,,,,,151.7492035999967,-0.0007964000033098273,None,177.70634670000072,177.70634670000072,177.70634670000072,177.70634670000072,177.70634670000072,177.70634670000072,177.70634670000072,177.70634670000072,177.70634670000072,177.70634670000072,,003,P017,2025_Mar_07_1606,ConditionRich,2021.2.3,59.941293496726466,
152.0,155.75,20,0.75,Stimuli/P017/sun_buukivvfbfhosrng.jpg,1,1,1.75,0,68,68,68,,,,,,,,,,,,,151.99950989999707,-0.0004901000029349234,None,177.95652210000117,177.95652210000117,177.95652210000117,177.95652210000117,177.95652210000117,177.95652210000117,178.94072940000115,179.69144960000267,177.95652210000117,177.95652210000117,,003,P017,2025_Mar_07_1606,ConditionRich,2021.2.3,59.941293496726466,
155.75,156.0,41,0.0,Stimuli/Blank.png,0,0,0.0,0,69,69,69,,,,,,,,,,,,,155.75443399999858,0.004433999998582294,None,181.7265451000021,181.7265451000021,181.7265451000021,181.7265451000021,181.7265451000021,181.7265451000021,181.7265451000021,181.7265451000021,181.7265451000021,181.7265451000021,,003,P017,2025_Mar_07_1606,ConditionRich,2021.2.3,59.941293496726466,
156.0,159.75,15,0.75,Stimuli/P017/sun_bobznlnnzwznersx.jpg,0,0,0.0,0,70,70,70,,,,,,,,,,,,,156.02010959999825,0.020109599998249905,None,181.97674639999968,181.97674639999968,181.97674639999968,181.97674639999968,181.97674639999968,181.97674639999968,181.97674639999968,181.97674639999968,181.97674639999968,181.97674639999968,,003,P017,2025_Mar_07_1606,ConditionRich,2021.2.3,59.941293496726466,
159.75,160.0,41,0.0,Stimuli/Blank.png,0,0,0.0,0,71,71,71,,,,,,,,,,,,,159.75703409999915,0.0070340999991458375,None,185.71343510000224,185.71343510000224,185.71343510000224,185.71343510000224,185.71343510000224,185.71343510000224,185.71343510000224,185.71343510000224,185.71343510000224,185.71343510000224,,003,P017,2025_Mar_07_1606,ConditionRich,2021.2.3,59.941293496726466,
160.0,163.75,11,0.75,Stimuli/P017/sun_bdzxsadvniuolmio.jpg,0,0,0.0,0,72,72,72,,,,,,,,,,,,,160.00666159999673,0.006661599996732548,None,185.9802989000018,185.9802989000018,185.9802989000018,185.9802989000018,185.9802989000018,185.9802989000018,185.9802989000018,185.9802989000018,185.9802989000018,185.9802989000018,,003,P017,2025_Mar_07_1606,ConditionRich,2021.2.3,59.941293496726466,
163.75,164.0,41,0.0,Stimuli/Blank.png,0,0,0.0,0,73,73,73,,,,,,,,,,,,,163.7785281999968,0.02852819999679923,None,189.75029150000046,189.75029150000046,189.75029150000046,189.75029150000046,189.75029150000046,189.75029150000046,189.75029150000046,189.75029150000046,189.75029150000046,189.75029150000046,,003,P017,2025_Mar_07_1606,ConditionRich,2021.2.3,59.941293496726466,
164.0,167.75,24,0.75,Stimuli/P017/things_breadbox_09s.jpg,0,0,0.0,0,74,74,74,,,,,,,,,,,,,164.02813179999794,0.02813179999793647,None,190.00050570000167,190.00050570000167,190.00050570000167,190.00050570000167,190.00050570000167,190.00050570000167,190.00050570000167,190.00050570000167,190.00050570000167,190.00050570000167,,003,P017,2025_Mar_07_1606,ConditionRich,2021.2.3,59.941293496726466,
167.75,168.0,41,0.0,Stimuli/Blank.png,0,0,0.0,0,75,75,75,,,,,,,,,,,,,167.78084589999708,0.03084589999707532,None,193.73714169999948,193.73714169999948,193.73714169999948,193.73714169999948,193.73714169999948,193.73714169999948,193.73714169999948,193.73714169999948,193.73714169999948,193.73714169999948,,003,P017,2025_Mar_07_1606,ConditionRich,2021.2.3,59.941293496726466,
168.0,171.75,12,0.75,Stimuli/P017/sun_bhvaiabdgxjuwoth.jpg,0,0,0.0,0,76,76,76,,,,,,,,,,,,,168.01443440000003,0.014434400000027381,None,193.97067550000065,193.97067550000065,193.97067550000065,193.97067550000065,193.97067550000065,193.97067550000065,193.97067550000065,193.97067550000065,193.97067550000065,193.97067550000065,,003,P017,2025_Mar_07_1606,ConditionRich,2021.2.3,59.941293496726466,
171.75,172.0,41,0.0,Stimuli/Blank.png,0,0,0.0,0,77,77,77,,,,,,,,,,,,,171.75107079999725,0.0010707999972510152,None,197.7073390000005,197.7073390000005,197.7073390000005,197.7073390000005,197.7073390000005,197.7073390000005,197.7073390000005,197.7073390000005,197.7073390000005,197.7073390000005,,003,P017,2025_Mar_07_1606,ConditionRich,2021.2.3,59.941293496726466,
172.0,175.75,14,0.75,Stimuli/P017/sun_bljpqnfmmqkjsfvx.jpg,1,1,1.75,0,78,78,78,,,,,,,,,,,,,172.0033248999971,0.0033248999970965087,None,197.97419060000175,197.97419060000175,197.97419060000175,197.97419060000175,197.97419060000175,197.97419060000175,198.95842050000283,199.70910670000012,197.97419060000175,197.97419060000175,,003,P017,2025_Mar_07_1606,ConditionRich,2021.2.3,59.941293496726466,
175.75,176.0,41,0.0,Stimuli/Blank.png,0,0,0.0,0,79,79,79,,,,,,,,,,,,,175.77040729999862,0.020407299998623785,None,201.72753609999927,201.72753609999927,201.72753609999927,201.72753609999927,201.72753609999927,201.72753609999927,201.72753609999927,201.72753609999927,201.72753609999927,201.72753609999927,,003,P017,2025_Mar_07_1606,ConditionRich,2021.2.3,59.941293496726466,
176.0,179.75,26,0.75,Stimuli/P017/things_chandelier_09s.jpg,0,0,0.0,0,80,80,80,,,,,,,,,,,,,176.00413209999897,0.004132099998969352,None,201.96104280000145,201.96104280000145,201.96104280000145,201.96104280000145,201.96104280000145,201.96104280000145,201.96104280000145,201.96104280000145,201.96104280000145,201.96104280000145,,003,P017,2025_Mar_07_1606,ConditionRich,2021.2.3,59.941293496726466,
179.75,180.0,41,0.0,Stimuli/Blank.png,0,0,0.0,0,81,81,81,,,,,,,,,,,,,179.7583143999982,0.008314399998198496,None,205.73111790000257,205.73111790000257,205.73111790000257,205.73111790000257,205.73111790000257,205.73111790000257,205.73111790000257,205.73111790000257,205.73111790000257,205.73111790000257,,003,P017,2025_Mar_07_1606,ConditionRich,2021.2.3,59.941293496726466,
180.0,196.0,0,0.0,Stimuli/Blank.png,1,8,8.75,0,82,82,82,,,,,,,,,,,,,180.02496419999807,0.02496419999806676,None,205.9812990999999,205.9812990999999,205.9812990999999,205.9812990999999,205.9812990999999,205.9812990999999,213.97169399999984,214.7224098000006,205.9812990999999,205.9812990999999,,003,P017,2025_Mar_07_1606,ConditionRich,2021.2.3,59.941293496726466,
196.0,199.75,15,0.75,Stimuli/P017/sun_bobznlnnzwznersx.jpg,0,0,0.0,0,83,83,83,,,,,,,,,,,,,196.00598569999784,0.005985699997836491,None,221.97876800000085,221.97876800000085,221.97876800000085,221.97876800000085,221.97876800000085,221.97876800000085,221.97876800000085,221.97876800000085,221.97876800000085,221.97876800000085,,003,P017,2025_Mar_07_1606,ConditionRich,2021.2.3,59.941293496726466,
199.75,200.0,41,0.0,Stimuli/Blank.png,0,0,0.0,0,84,84,84,,,,,,,,,,,,,199.77521519999937,0.025215199999365723,None,225.73208370000066,225.73208370000066,225.73208370000066,225.73208370000066,225.73208370000066,225.73208370000066,225.73208370000066,225.73208370000066,225.73208370000066,225.73208370000066,,003,P017,2025_Mar_07_1606,ConditionRich,2021.2.3,59.941293496726466,
200.0,203.75,31,0.75,Stimuli/P017/things_highchair_09s.jpg,0,0,0.0,0,85,85,85,,,,,,,,,,,,,200.01020419999986,0.010204199999861885,None,225.98231880000094,225.98231880000094,225.98231880000094,225.98231880000094,225.98231880000094,225.98231880000094,225.98231880000094,225.98231880000094,225.98231880000094,225.98231880000094,,003,P017,2025_Mar_07_1606,ConditionRich,2021.2.3,59.941293496726466,
203.75,204.0,41,0.0,Stimuli/Blank.png,0,0,0.0,0,86,86,86,,,,,,,,,,,,,203.77989849999722,0.029898499997216277,None,229.73563090000243,229.73563090000243,229.73563090000243,229.73563090000243,229.73563090000243,229.73563090000243,229.73563090000243,229.73563090000243,229.73563090000243,229.73563090000243,,003,P017,2025_Mar_07_1606,ConditionRich,2021.2.3,59.941293496726466,
204.0,207.75,22,0.75,Stimuli/P017/things_boat_09s.jpg,1,1,1.75,0,87,87,87,,,,,,,,,,,,,204.0127685999978,0.012768599997798447,None,229.98586029999933,229.98586029999933,229.98586029999933,229.98586029999933,229.98586029999933,229.98586029999933,230.95341610000105,231.70406070000172,229.98586029999933,229.98586029999933,,003,P017,2025_Mar_07_1606,ConditionRich,2021.2.3,59.941293496726466,
207.75,208.0,41,0.0,Stimuli/Blank.png,0,0,0.0,0,88,88,88,,,,,,,,,,,,,207.76569879999806,0.015698799998062896,None,233.72248129999934,233.72248129999934,233.72248129999934,233.72248129999934,233.72248129999934,233.72248129999934,233.72248129999934,233.72248129999934,233.72248129999934,233.72248129999934,,003,P017,2025_Mar_07_1606,ConditionRich,2021.2.3,59.941293496726466,
208.0,211.75,9,0.75,Stimuli/P017/sun_ayidxslzurdumeps.jpg,1,2,2.75,0,89,89,89,,,,,,,,,,,,,207.9992573999989,-0.0007426000011037104,None,233.95602000000144,233.95602000000144,233.95602000000144,233.95602000000144,233.95602000000144,233.95602000000144,235.9411516,236.69181150000077,233.95602000000144,233.95602000000144,,003,P017,2025_Mar_07_1606,ConditionRich,2021.2.3,59.941293496726466,
211.75,212.0,41,0.0,Stimuli/Blank.png,0,0,0.0,0,90,90,90,,,,,,,,,,,,,211.75349299999652,0.003492999996524304,None,237.70935029999964,237.70935029999964,237.70935029999964,237.70935029999964,237.70935029999964,237.70935029999964,237.70935029999964,237.70935029999964,237.70935029999964,237.70935029999964,,003,P017,2025_Mar_07_1606,ConditionRich,2021.2.3,59.941293496726466,
212.0,215.75,3,0.75,Stimuli/P017/sun_acymmczhyuiimeub.jpg,1,3,3.75,0,91,91,91,,,,,,,,,,,,,212.00315359999877,0.003153599998768186,None,237.97628410000107,237.97628410000107,237.97628410000107,237.97628410000107,237.97628410000107,237.97628410000107,240.94561489999978,241.6962358000019,237.97628410000107,237.97628410000107,,003,P017,2025_Mar_07_1606,ConditionRich,2021.2.3,59.941293496726466,
215.75,216.0,41,0.0,Stimuli/Blank.png,0,0,0.0,0,92,92,92,,,,,,,,,,,,,215.7727191999984,0.02271919999839156,None,241.72962019999977,241.72962019999977,241.72962019999977,241.72962019999977,241.72962019999977,241.72962019999977,241.72962019999977,241.72962019999977,241.72962019999977,241.72962019999977,,003,P017,2025_Mar_07_1606,ConditionRich,2021.2.3,59.941293496726466,
216.0,219.75,16,0.75,Stimuli/P017/sun_brfwxjsnmauhmfzf.jpg,0,0,0.0,0,93,93,93,,,,,,,,,,,,,216.0083476999971,0.008347699997102609,1,241.97978309999962,241.97978309999962,241.97978309999962,241.97978309999962,241.97978309999962,241.97978309999962,241.97978309999962,241.97978309999962,241.97978309999962,241.97978309999962,3.265542400000413,003,P017,2025_Mar_07_1606,ConditionRich,2021.2.3,59.941293496726466,
219.75,220.0,41,0.0,Stimuli/Blank.png,0,0,0.0,0,94,94,94,,,,,,,,,,,,,219.77660149999792,0.026601499997923383,None,245.73306589999993,245.73306589999993,245.73306589999993,245.73306589999993,245.73306589999993,245.73306589999993,245.73306589999993,245.73306589999993,245.73306589999993,245.73306589999993,,003,P017,2025_Mar_07_1606,ConditionRich,2021.2.3,59.941293496726466,
220.0,223.75,6,0.75,Stimuli/P017/sun_atuyvunnykjurjgx.jpg,0,0,0.0,0,95,95,95,,,,,,,,,,,,,220.0103704999965,0.010370499996497529,None,245.96663660000195,245.96663660000195,245.96663660000195,245.96663660000195,245.96663660000195,245.96663660000195,245.96663660000195,245.96663660000195,245.96663660000195,245.96663660000195,,003,P017,2025_Mar_07_1606,ConditionRich,2021.2.3,59.941293496726466,
223.75,224.0,41,0.0,Stimuli/Blank.png,0,0,0.0,0,96,96,96,,,,,,,,,,,,,223.762923899998,0.012923899997986155,None,249.71995720000268,249.71995720000268,249.71995720000268,249.71995720000268,249.71995720000268,249.71995720000268,249.71995720000268,249.71995720000268,249.71995720000268,249.71995720000268,,003,P017,2025_Mar_07_1606,ConditionRich,2021.2.3,59.941293496726466,
224.0,227.75,26,0.75,Stimuli/P017/things_chandelier_09s.jpg,0,0,0.0,0,97,97,97,,,,,,,,,,,,,224.01427639999747,0.014276399997470435,None,249.98687150000114,249.98687150000114,249.98687150000114,249.98687150000114,249.98687150000114,249.98687150000114,249.98687150000114,249.98687150000114,249.98687150000114,249.98687150000114,,003,P017,2025_Mar_07_1606,ConditionRich,2021.2.3,59.941293496726466,
227.75,228.0,41,0.0,Stimuli/Blank.png,0,0,0.0,0,98,98,98,,,,,,,,,,,,,227.76863019999655,0.0186301999965508,None,253.7401936999995,253.7401936999995,253.7401936999995,253.7401936999995,253.7401936999995,253.7401936999995,253.7401936999995,253.7401936999995,253.7401936999995,253.7401936999995,,003,P017,2025_Mar_07_1606,ConditionRich,2021.2.3,59.941293496726466,
228.0,231.75,4,0.75,Stimuli/P017/sun_aibvvqlmlsjnrgdj.jpg,0,0,0.0,0,99,99,99,,,,,,,,,,,,,228.01678369999718,0.016783699997176882,None,253.97371380000186,253.97371380000186,253.97371380000186,253.97371380000186,253.97371380000186,253.97371380000186,253.97371380000186,253.97371380000186,253.97371380000186,253.97371380000186,,003,P017,2025_Mar_07_1606,ConditionRich,2021.2.3,59.941293496726466,
231.75,232.0,41,0.0,Stimuli/Blank.png,0,0,0.0,0,100,100,100,,,,,,,,,,,,,231.75482159999956,0.004821599999559112,None,257.7270571000008,257.7270571000008,257.7270571000008,257.7270571000008,257.7270571000008,257.7270571000008,257.7270571000008,257.7270571000008,257.7270571000008,257.7270571000008,,003,P017,2025_Mar_07_1606,ConditionRich,2021.2.3,59.941293496726466,
232.0,235.75,36,0.75,Stimuli/P017/things_nest_09s.jpg,0,0,0.0,0,101,101,101,,,,,,,,,,,,,232.0212234999999,0.02122349999990547,None,257.9939379000025,257.9939379000025,257.9939379000025,257.9939379000025,257.9939379000025,257.9939379000025,257.9939379000025,257.9939379000025,257.9939379000025,257.9939379000025,,003,P017,2025_Mar_07_1606,ConditionRich,2021.2.3,59.941293496726466,
235.75,236.0,41,0.0,Stimuli/Blank.png,0,0,0.0,0,102,102,102,,,,,,,,,,,,,235.77442769999834,0.024427699998341268,None,261.7305761000025,261.7305761000025,261.7305761000025,261.7305761000025,261.7305761000025,261.7305761000025,261.7305761000025,261.7305761000025,261.7305761000025,261.7305761000025,,003,P017,2025_Mar_07_1606,ConditionRich,2021.2.3,59.941293496726466,
236.0,239.75,40,0.75,Stimuli/P017/things_woman_09s.jpg,0,0,0.0,0,103,103,103,,,,,,,,,,,,,236.00810909999927,0.008109099999273894,None,261.9807963000021,261.9807963000021,261.9807963000021,261.9807963000021,261.9807963000021,261.9807963000021,261.9807963000021,261.9807963000021,261.9807963000021,261.9807963000021,,003,P017,2025_Mar_07_1606,ConditionRich,2021.2.3,59.941293496726466,
239.75,240.0,41,0.0,Stimuli/Blank.png,0,0,0.0,0,104,104,104,,,,,,,,,,,,,239.7788264999981,0.028826499998103827,None,265.734120000001,265.734120000001,265.734120000001,265.734120000001,265.734120000001,265.734120000001,265.734120000001,265.734120000001,265.734120000001,265.734120000001,,003,P017,2025_Mar_07_1606,ConditionRich,2021.2.3,59.941293496726466,
240.0,243.75,1,0.75,Stimuli/P017/sun_aawmwfqqbzauhqkb.jpg,0,0,0.0,0,105,105,105,,,,,,,,,,,,,240.01347939999687,0.013479399996867869,None,265.9843456000017,265.9843456000017,265.9843456000017,265.9843456000017,265.9843456000017,265.9843456000017,265.9843456000017,265.9843456000017,265.9843456000017,265.9843456000017,,003,P017,2025_Mar_07_1606,ConditionRich,2021.2.3,59.941293496726466,
243.75,244.0,41,0.0,Stimuli/Blank.png,0,0,0.0,0,106,106,106,,,,,,,,,,,,,243.76419239999814,0.014192399998137262,None,269.72095940000145,269.72095940000145,269.72095940000145,269.72095940000145,269.72095940000145,269.72095940000145,269.72095940000145,269.72095940000145,269.72095940000145,269.72095940000145,,003,P017,2025_Mar_07_1606,ConditionRich,2021.2.3,59.941293496726466,
244.0,247.75,10,0.75,Stimuli/P017/sun_bayxprasninnrnle.jpg,0,0,0.0,0,107,107,107,,,,,,,,,,,,,244.01441069999782,0.01441069999782485,None,269.9711924000003,269.9711924000003,269.9711924000003,269.9711924000003,269.9711924000003,269.9711924000003,269.9711924000003,269.9711924000003,269.9711924000003,269.9711924000003,,003,P017,2025_Mar_07_1606,ConditionRich,2021.2.3,59.941293496726466,
247.75,248.0,41,0.0,Stimuli/Blank.png,0,0,0.0,0,108,108,108,,,,,,,,,,,,,247.75339459999668,0.003394599996681791,None,273.7245347999997,273.7245347999997,273.7245347999997,273.7245347999997,273.7245347999997,273.7245347999997,273.7245347999997,273.7245347999997,273.7245347999997,273.7245347999997,,003,P017,2025_Mar_07_1606,ConditionRich,2021.2.3,59.941293496726466,
248.0,251.75,30,0.75,Stimuli/P017/things_girl_09s.jpg,0,0,0.0,0,109,109,109,,,,,,,,,,,,,248.01923149999857,0.019231499998568324,None,273.99141360000067,273.99141360000067,273.99141360000067,273.99141360000067,273.99141360000067,273.99141360000067,273.99141360000067,273.99141360000067,273.99141360000067,273.99141360000067,,003,P017,2025_Mar_07_1606,ConditionRich,2021.2.3,59.941293496726466,
251.75,252.0,41,0.0,Stimuli/Blank.png,0,0,0.0,0,110,110,110,,,,,,,,,,,,,251.77373949999674,0.023739499996736413,None,277.7447977000011,277.7447977000011,277.7447977000011,277.7447977000011,277.7447977000011,277.7447977000011,277.7447977000011,277.7447977000011,277.7447977000011,277.7447977000011,,003,P017,2025_Mar_07_1606,ConditionRich,2021.2.3,59.941293496726466,
252.0,255.75,24,0.75,Stimuli/P017/things_breadbox_09s.jpg,0,0,0.0,0,111,111,111,,,,,,,,,,,,,252.02339829999983,0.023398299999826122,None,277.99495190000016,277.99495190000016,277.99495190000016,277.99495190000016,277.99495190000016,277.99495190000016,277.99495190000016,277.99495190000016,277.99495190000016,277.99495190000016,,003,P017,2025_Mar_07_1606,ConditionRich,2021.2.3,59.941293496726466,
255.75,256.0,41,0.0,Stimuli/Blank.png,0,0,0.0,0,112,112,112,,,,,,,,,,,,,255.77518909999708,0.0251890999970783,None,281.7315821000011,281.7315821000011,281.7315821000011,281.7315821000011,281.7315821000011,281.7315821000011,281.7315821000011,281.7315821000011,281.7315821000011,281.7315821000011,,003,P017,2025_Mar_07_1606,ConditionRich,2021.2.3,59.941293496726466,
256.0,259.75,19,0.75,Stimuli/P017/sun_brrwzaypucosdcgt.jpg,0,0,0.0,0,113,113,113,,,,,,,,,,,,,256.0081720999988,0.008172099998773774,None,281.9651202999994,281.9651202999994,281.9651202999994,281.9651202999994,281.9651202999994,281.9651202999994,281.9651202999994,281.9651202999994,281.9651202999994,281.9651202999994,,003,P017,2025_Mar_07_1606,ConditionRich,2021.2.3,59.941293496726466,
259.75,260.0,41,0.0,Stimuli/Blank.png,0,0,0.0,0,114,114,114,,,,,,,,,,,,,259.7620579999966,0.012057999996613944,None,285.71843330000047,285.71843330000047,285.71843330000047,285.71843330000047,285.71843330000047,285.71843330000047,285.71843330000047,285.71843330000047,285.71843330000047,285.71843330000047,,003,P017,2025_Mar_07_1606,ConditionRich,2021.2.3,59.941293496726466,
260.0,263.75,33,0.75,Stimuli/P017/things_lamb_09s.jpg,0,0,0.0,0,115,115,115,,,,,,,,,,,,,260.0143903999997,0.014390399999683723,None,285.9853471999995,285.9853471999995,285.9853471999995,285.9853471999995,285.9853471999995,285.9853471999995,285.9853471999995,285.9853471999995,285.9853471999995,285.9853471999995,,003,P017,2025_Mar_07_1606,ConditionRich,2021.2.3,59.941293496726466,
263.75,264.0,41,0.0,Stimuli/Blank.png,0,0,0.0,0,116,116,116,,,,,,,,,,,,,263.7666003999984,0.01660039999842411,None,289.7219922000004,289.7219922000004,289.7219922000004,289.7219922000004,289.7219922000004,289.7219922000004,289.7219922000004,289.7219922000004,289.7219922000004,289.7219922000004,,003,P017,2025_Mar_07_1606,ConditionRich,2021.2.3,59.941293496726466,
264.0,267.75,8,0.75,Stimuli/P017/sun_axsmqyyvebrcuhkn.jpg,0,0,0.0,0,117,117,117,,,,,,,,,,,,,264.0001306999984,0.00013069999840809032,None,289.972227000002,289.972227000002,289.972227000002,289.972227000002,289.972227000002,289.972227000002,289.972227000002,289.972227000002,289.972227000002,289.972227000002,,003,P017,2025_Mar_07_1606,ConditionRich,2021.2.3,59.941293496726466,
267.75,268.0,41,0.0,Stimuli/Blank.png,0,0,0.0,0,118,118,118,,,,,,,,,,,,,267.7693745999968,0.019374599996808683,None,293.7255225000008,293.7255225000008,293.7255225000008,293.7255225000008,293.7255225000008,293.7255225000008,293.7255225000008,293.7255225000008,293.7255225000008,293.7255225000008,,003,P017,2025_Mar_07_1606,ConditionRich,2021.2.3,59.941293496726466,
268.0,271.75,18,0.75,Stimuli/P017/sun_brrvvswweljrvnlq.jpg,0,0,0.0,0,119,119,119,,,,,,,,,,,,,268.00219119999747,0.0021911999974690843,None,293.95905739999944,293.95905739999944,293.95905739999944,293.95905739999944,293.95905739999944,293.95905739999944,293.95905739999944,293.95905739999944,293.95905739999944,293.95905739999944,,003,P017,2025_Mar_07_1606,ConditionRich,2021.2.3,59.941293496726466,
271.75,272.0,41,0.0,Stimuli/Blank.png,0,0,0.0,0,120,120,120,,,,,,,,,,,,,271.7583386999977,0.008338699997693766,None,297.7290606000024,297.7290606000024,297.7290606000024,297.7290606000024,297.7290606000024,297.7290606000024,297.7290606000024,297.7290606000024,297.7290606000024,297.7290606000024,,003,P017,2025_Mar_07_1606,ConditionRich,2021.2.3,59.941293496726466,
272.0,275.75,34,0.75,Stimuli/P017/things_llama_09s.jpg,1,3,3.75,0,121,121,121,,,,,,,,,,,,,272.0235997999989,0.02359979999891948,1,297.99598470000274,297.99598470000274,297.99598470000274,297.99598470000274,297.99598470000274,297.99598470000274,300.9652405000015,301.7159715000016,297.99598470000274,297.99598470000274,3.296433999999863,003,P017,2025_Mar_07_1606,ConditionRich,2021.2.3,59.941293496726466,
275.75,276.0,41,0.0,Stimuli/Blank.png,0,0,0.0,0,122,122,122,,,,,,,,,,,,,275.7764430999996,0.026443099999596598,None,301.7326165000013,301.7326165000013,301.7326165000013,301.7326165000013,301.7326165000013,301.7326165000013,301.7326165000013,301.7326165000013,301.7326165000013,301.7326165000013,,003,P017,2025_Mar_07_1606,ConditionRich,2021.2.3,59.941293496726466,
276.0,292.0,0,0.0,Stimuli/Blank.png,1,5,5.75,0,123,123,123,,,,,,,,,,,,,276.009146299999,0.009146299998974428,1,301.9661311000018,301.9661311000018,301.9661311000018,301.9661311000018,301.9661311000018,301.9661311000018,306.95390840000255,307.7045481999994,301.9661311000018,301.9661311000018,5.423093600002176,003,P017,2025_Mar_07_1606,ConditionRich,2021.2.3,59.941293496726466,
292.0,295.75,20,0.75,Stimuli/P017/sun_buukivvfbfhosrng.jpg,0,0,0.0,0,124,124,124,,,,,,,,,,,,,292.0088075999993,0.008807599999272497,None,317.9802974000013,317.9802974000013,317.9802974000013,317.9802974000013,317.9802974000013,317.9802974000013,317.9802974000013,317.9802974000013,317.9802974000013,317.9802974000013,,003,P017,2025_Mar_07_1606,ConditionRich,2021.2.3,59.941293496726466,
295.75,296.0,41,0.0,Stimuli/Blank.png,0,0,0.0,0,125,125,125,,,,,,,,,,,,,295.7792669999981,0.029266999998071697,None,321.75029540000105,321.75029540000105,321.75029540000105,321.75029540000105,321.75029540000105,321.75029540000105,321.75029540000105,321.75029540000105,321.75029540000105,321.75029540000105,,003,P017,2025_Mar_07_1606,ConditionRich,2021.2.3,59.941293496726466,
296.0,299.75,23,0.75,Stimuli/P017/things_boy_09s.jpg,0,0,0.0,0,126,126,126,,,,,,,,,,,,,296.02998679999655,0.029986799996549962,None,322.00052080000023,322.00052080000023,322.00052080000023,322.00052080000023,322.00052080000023,322.00052080000023,322.00052080000023,322.00052080000023,322.00052080000023,322.00052080000023,,003,P017,2025_Mar_07_1606,ConditionRich,2021.2.3,59.941293496726466,
299.75,300.0,41,0.0,Stimuli/Blank.png,0,0,0.0,0,127,127,127,,,,,,,,,,,,,299.7646488999999,0.014648899999883724,None,325.7205052999998,325.7205052999998,325.7205052999998,325.7205052999998,325.7205052999998,325.7205052999998,325.7205052999998,325.7205052999998,325.7205052999998,325.7205052999998,,003,P017,2025_Mar_07_1606,ConditionRich,2021.2.3,59.941293496726466,
300.0,303.75,29,0.75,Stimuli/P017/things_face_09s.jpg,0,0,0.0,0,128,128,128,,,,,,,,,,,,,300.01421839999966,0.014218399999663234,None,325.9706823000015,325.9706823000015,325.9706823000015,325.9706823000015,325.9706823000015,325.9706823000015,325.9706823000015,325.9706823000015,325.9706823000015,325.9706823000015,,003,P017,2025_Mar_07_1606,ConditionRich,2021.2.3,59.941293496726466,
303.75,304.0,41,0.0,Stimuli/Blank.png,0,0,0.0,0,129,129,129,,,,,,,,,,,,,303.75026949999665,0.0002694999966479372,None,329.7073225000022,329.7073225000022,329.7073225000022,329.7073225000022,329.7073225000022,329.7073225000022,329.7073225000022,329.7073225000022,329.7073225000022,329.7073225000022,,003,P017,2025_Mar_07_1606,ConditionRich,2021.2.3,59.941293496726466,
304.0,307.75,2,0.75,Stimuli/P017/sun_acliytrpktltxwsx.jpg,1,3,3.75,0,130,130,130,,,,,,,,,,,,,304.00057209999795,0.0005720999979530461,1,329.95751720000044,329.95751720000044,329.95751720000044,329.95751720000044,329.95751720000044,329.95751720000044,332.94354790000216,333.69414379999944,329.95751720000044,329.95751720000044,3.3279728000015893,003,P017,2025_Mar_07_1606,ConditionRich,2021.2.3,59.941293496726466,
307.75,308.0,41,0.0,Stimuli/Blank.png,0,0,0.0,0,131,131,131,,,,,,,,,,,,,307.75446739999825,0.004467399998247856,None,333.71086339999965,333.71086339999965,333.71086339999965,333.71086339999965,333.71086339999965,333.71086339999965,333.71086339999965,333.71086339999965,333.71086339999965,333.71086339999965,,003,P017,2025_Mar_07_1606,ConditionRich,2021.2.3,59.941293496726466,
308.0,311.75,14,0.75,Stimuli/P017/sun_bljpqnfmmqkjsfvx.jpg,0,0,0.0,0,132,132,132,,,,,,,,,,,,,308.00471529999777,0.004715299997769762,None,333.9610896000013,333.9610896000013,333.9610896000013,333.9610896000013,333.9610896000013,333.9610896000013,333.9610896000013,333.9610896000013,333.9610896000013,333.9610896000013,,003,P017,2025_Mar_07_1606,ConditionRich,2021.2.3,59.941293496726466,
311.75,312.0,41,0.0,Stimuli/Blank.png,0,0,0.0,0,133,133,133,,,,,,,,,,,,,311.75806049999665,0.008060499996645376,None,337.7144038000006,337.7144038000006,337.7144038000006,337.7144038000006,337.7144038000006,337.7144038000006,337.7144038000006,337.7144038000006,337.7144038000006,337.7144038000006,,003,P017,2025_Mar_07_1606,ConditionRich,2021.2.3,59.941293496726466,
312.0,315.75,39,0.75,Stimuli/P017/things_veil_09s.jpg,0,0,0.0,0,134,134,134,,,,,,,,,,,,,312.0092038999974,0.00920389999737381,None,337.96462480000264,337.96462480000264,337.96462480000264,337.96462480000264,337.96462480000264,337.96462480000264,337.96462480000264,337.96462480000264,337.96462480000264,337.96462480000264,,003,P017,2025_Mar_07_1606,ConditionRich,2021.2.3,59.941293496726466,
315.75,316.0,41,0.0,Stimuli/Blank.png,0,0,0.0,0,135,135,135,,,,,,,,,,,,,315.7636249999996,0.013624999999592546,None,341.7346279000012,341.7346279000012,341.7346279000012,341.7346279000012,341.7346279000012,341.7346279000012,341.7346279000012,341.7346279000012,341.7346279000012,341.7346279000012,,003,P017,2025_Mar_07_1606,ConditionRich,2021.2.3,59.941293496726466,
316.0,319.75,28,0.75,Stimuli/P017/things_collar_09s.jpg,0,0,0.0,0,136,136,136,,,,,,,,,,,,,316.0281236999981,0.028123699998104712,None,341.98484050000116,341.98484050000116,341.98484050000116,341.98484050000116,341.98484050000116,341.98484050000116,341.98484050000116,341.98484050000116,341.98484050000116,341.98484050000116,,003,P017,2025_Mar_07_1606,ConditionRich,2021.2.3,59.941293496726466,
319.75,320.0,41,0.0,Stimuli/Blank.png,0,0,0.0,0,137,137,137,,,,,,,,,,,,,319.7652911999976,0.01529119999759132,None,345.7214774000022,345.7214774000022,345.7214774000022,345.7214774000022,345.7214774000022,345.7214774000022,345.7214774000022,345.7214774000022,345.7214774000022,345.7214774000022,,003,P017,2025_Mar_07_1606,ConditionRich,2021.2.3,59.941293496726466,
320.0,323.75,12,0.75,Stimuli/P017/sun_bhvaiabdgxjuwoth.jpg,0,0,0.0,0,138,138,138,,,,,,,,,,,,,320.0152559999988,0.015255999998771586,None,345.98839679999946,345.98839679999946,345.98839679999946,345.98839679999946,345.98839679999946,345.98839679999946,345.98839679999946,345.98839679999946,345.98839679999946,345.98839679999946,,003,P017,2025_Mar_07_1606,ConditionRich,2021.2.3,59.941293496726466,
323.75,324.0,41,0.0,Stimuli/Blank.png,0,0,0.0,0,139,139,139,,,,,,,,,,,,,323.76889409999785,0.0188940999978513,None,349.72499270000117,349.72499270000117,349.72499270000117,349.72499270000117,349.72499270000117,349.72499270000117,349.72499270000117,349.72499270000117,349.72499270000117,349.72499270000117,,003,P017,2025_Mar_07_1606,ConditionRich,2021.2.3,59.941293496726466,
324.0,327.75,38,0.75,Stimuli/P017/things_pony_09s.jpg,0,0,0.0,0,140,140,140,,,,,,,,,,,,,324.0036917999969,0.0036917999968864024,None,349.97524650000196,349.97524650000196,349.97524650000196,349.97524650000196,349.97524650000196,349.97524650000196,349.97524650000196,349.97524650000196,349.97524650000196,349.97524650000196,,003,P017,2025_Mar_07_1606,ConditionRich,2021.2.3,59.941293496726466,
327.75,328.0,41,0.0,Stimuli/Blank.png,0,0,0.0,0,141,141,141,,,,,,,,,,,,,327.7744219999986,0.0244219999985944,None,353.74525260000155,353.74525260000155,353.74525260000155,353.74525260000155,353.74525260000155,353.74525260000155,353.74525260000155,353.74525260000155,353.74525260000155,353.74525260000155,,003,P017,2025_Mar_07_1606,ConditionRich,2021.2.3,59.941293496726466,
328.0,331.75,35,0.75,Stimuli/P017/things_lobster_09s.jpg,0,0,0.0,0,142,142,142,,,,,,,,,,,,,328.0245752999981,0.024575299998105038,None,353.9954625999999,353.9954625999999,353.9954625999999,353.9954625999999,353.9954625999999,353.9954625999999,353.9954625999999,353.9954625999999,353.9954625999999,353.9954625999999,,003,P017,2025_Mar_07_1606,ConditionRich,2021.2.3,59.941293496726466,
331.75,332.0,41,0.0,Stimuli/Blank.png,0,0,0.0,0,143,143,143,,,,,,,,,,,,,331.7752058999977,0.025205899997672532,None,357.73209300000235,357.73209300000235,357.73209300000235,357.73209300000235,357.73209300000235,357.73209300000235,357.73209300000235,357.73209300000235,357.73209300000235,357.73209300000235,,003,P017,2025_Mar_07_1606,ConditionRich,2021.2.3,59.941293496726466,
332.0,335.75,37,0.75,Stimuli/P017/things_plastic_film_09s.jpg,0,0,0.0,0,144,144,144,,,,,,,,,,,,,332.00946759999715,0.00946759999715141,None,357.9656372000027,357.9656372000027,357.9656372000027,357.9656372000027,357.9656372000027,357.9656372000027,357.9656372000027,357.9656372000027,357.9656372000027,357.9656372000027,,003,P017,2025_Mar_07_1606,ConditionRich,2021.2.3,59.941293496726466,
335.75,336.0,41,0.0,Stimuli/Blank.png,0,0,0.0,0,145,145,145,,,,,,,,,,,,,335.76324719999684,0.013247199996840209,None,361.7189689000006,361.7189689000006,361.7189689000006,361.7189689000006,361.7189689000006,361.7189689000006,361.7189689000006,361.7189689000006,361.7189689000006,361.7189689000006,,003,P017,2025_Mar_07_1606,ConditionRich,2021.2.3,59.941293496726466,
336.0,339.75,13,0.75,Stimuli/P017/sun_bizqwyomkqigheyx.jpg,0,0,0.0,0,146,146,146,,,,,,,,,,,,,336.0144522999981,0.014452299998083618,None,361.98586889999933,361.98586889999933,361.98586889999933,361.98586889999933,361.98586889999933,361.98586889999933,361.98586889999933,361.98586889999933,361.98586889999933,361.98586889999933,,003,P017,2025_Mar_07_1606,ConditionRich,2021.2.3,59.941293496726466,
339.75,340.0,41,0.0,Stimuli/Blank.png,0,0,0.0,0,147,147,147,,,,,,,,,,,,,339.7666395999986,0.016639599998597987,None,365.72251280000273,365.72251280000273,365.72251280000273,365.72251280000273,365.72251280000273,365.72251280000273,365.72251280000273,365.72251280000273,365.72251280000273,365.72251280000273,,003,P017,2025_Mar_07_1606,ConditionRich,2021.2.3,59.941293496726466,
340.0,343.75,32,0.75,Stimuli/P017/things_horse_09s.jpg,0,0,0.0,0,148,148,148,,,,,,,,,,,,,339.9990700999988,-0.0009299000012106262,None,365.9560276000011,365.9560276000011,365.9560276000011,365.9560276000011,365.9560276000011,365.9560276000011,365.9560276000011,365.9560276000011,365.9560276000011,365.9560276000011,,003,P017,2025_Mar_07_1606,ConditionRich,2021.2.3,59.941293496726466,
343.75,344.0,41,0.0,Stimuli/Blank.png,0,0,0.0,0,149,149,149,,,,,,,,,,,,,343.7533799999983,0.0033799999982875306,None,369.7093559999994,369.7093559999994,369.7093559999994,369.7093559999994,369.7093559999994,369.7093559999994,369.7093559999994,369.7093559999994,369.7093559999994,369.7093559999994,,003,P017,2025_Mar_07_1606,ConditionRich,2021.2.3,59.941293496726466,
344.0,347.75,11,0.75,Stimuli/P017/sun_bdzxsadvniuolmio.jpg,0,0,0.0,0,150,150,150,,,,,,,,,,,,,344.00319129999843,0.0031912999984342605,None,369.9595972999996,369.9595972999996,369.9595972999996,369.9595972999996,369.9595972999996,369.9595972999996,369.9595972999996,369.9595972999996,369.9595972999996,369.9595972999996,,003,P017,2025_Mar_07_1606,ConditionRich,2021.2.3,59.941293496726466,
347.75,348.0,41,0.0,Stimuli/Blank.png,0,0,0.0,0,151,151,151,,,,,,,,,,,,,347.75796529999934,0.007965299999341369,None,373.7128948999998,373.7128948999998,373.7128948999998,373.7128948999998,373.7128948999998,373.7128948999998,373.7128948999998,373.7128948999998,373.7128948999998,373.7128948999998,,003,P017,2025_Mar_07_1606,ConditionRich,2021.2.3,59.941293496726466,
348.0,351.75,7,0.75,Stimuli/P017/sun_auadhqmfjsjtjcue.jpg,1,0,0.75,0,152,152,152,,,,,,,,,,,,,348.0068545999966,0.00685459999658633,1,373.97975790000055,373.97975790000055,373.97975790000055,373.97975790000055,373.97975790000055,373.97975790000055,373.97975790000055,374.6970899000007,373.97975790000055,373.97975790000055,0.4816129999999248,003,P017,2025_Mar_07_1606,ConditionRich,2021.2.3,59.941293496726466,
351.75,352.0,41,0.0,Stimuli/Blank.png,0,0,0.0,0,153,153,153,,,,,,,,,,,,,351.77842789999704,0.028427899997041095,None,377.74980190000133,377.74980190000133,377.74980190000133,377.74980190000133,377.74980190000133,377.74980190000133,377.74980190000133,377.74980190000133,377.74980190000133,377.74980190000133,,003,P017,2025_Mar_07_1606,ConditionRich,2021.2.3,59.941293496726466,
352.0,355.75,25,0.75,Stimuli/P017/things_cannonball_09s.jpg,0,0,0.0,0,154,154,154,,,,,,,,,,,,,352.02841329999865,0.028413299998646835,None,378.00002790000144,378.00002790000144,378.00002790000144,378.00002790000144,378.00002790000144,378.00002790000144,378.00002790000144,378.00002790000144,378.00002790000144,378.00002790000144,,003,P017,2025_Mar_07_1606,ConditionRich,2021.2.3,59.941293496726466,
355.75,356.0,41,0.0,Stimuli/Blank.png,0,0,0.0,0,155,155,155,,,,,,,,,,,,,355.7796391999982,0.029639199998200638,None,381.7366484000013,381.7366484000013,381.7366484000013,381.7366484000013,381.7366484000013,381.7366484000013,381.7366484000013,381.7366484000013,381.7366484000013,381.7366484000013,,003,P017,2025_Mar_07_1606,ConditionRich,2021.2.3,59.941293496726466,
356.0,359.75,5,0.75,Stimuli/P017/sun_apojgqgvdvsksdvo.jpg,1,3,3.75,0,156,156,156,,,,,,,,,,,,,356.0146229999991,0.014622999999119202,1,381.9869171999999,381.9869171999999,381.9869171999999,381.9869171999999,381.9869171999999,381.9869171999999,384.95614940000087,385.7068154000008,381.9869171999999,381.9869171999999,3.32167599999957,003,P017,2025_Mar_07_1606,ConditionRich,2021.2.3,59.941293496726466,
359.75,360.0,41,0.0,Stimuli/Blank.png,0,0,0.0,0,157,157,157,,,,,,,,,,,,,359.76909929999965,0.01909929999965243,None,385.74020949999976,385.74020949999976,385.74020949999976,385.74020949999976,385.74020949999976,385.74020949999976,385.74020949999976,385.74020949999976,385.74020949999976,385.74020949999976,,003,P017,2025_Mar_07_1606,ConditionRich,2021.2.3,59.941293496726466,
360.0,363.75,17,0.75,Stimuli/P017/sun_brhndfjxyigqgiwl.jpg,0,0,0.0,0,158,158,158,,,,,,,,,,,,,360.01929149999705,0.019291499997052597,None,385.9903918000018,385.9903918000018,385.9903918000018,385.9903918000018,385.9903918000018,385.9903918000018,385.9903918000018,385.9903918000018,385.9903918000018,385.9903918000018,,003,P017,2025_Mar_07_1606,ConditionRich,2021.2.3,59.941293496726466,
363.75,364.0,41,0.0,Stimuli/Blank.png,0,0,0.0,0,159,159,159,,,,,,,,,,,,,363.7701143999984,0.020114399998419685,None,389.72704290000183,389.72704290000183,389.72704290000183,389.72704290000183,389.72704290000183,389.72704290000183,389.72704290000183,389.72704290000183,389.72704290000183,389.72704290000183,,003,P017,2025_Mar_07_1606,ConditionRich,2021.2.3,59.941293496726466,
364.0,367.75,27,0.75,Stimuli/P017/things_coffin_09s.jpg,0,0,0.0,0,160,160,160,,,,,,,,,,,,,364.0042935999991,0.004293599999073194,None,389.97726820000025,389.97726820000025,389.97726820000025,389.97726820000025,389.97726820000025,389.97726820000025,389.97726820000025,389.97726820000025,389.97726820000025,389.97726820000025,,003,P017,2025_Mar_07_1606,ConditionRich,2021.2.3,59.941293496726466,
367.75,368.0,41,0.0,Stimuli/Blank.png,0,0,0.0,0,161,161,161,,,,,,,,,,,,,367.7742509999989,0.024250999998912448,None,393.73057710000285,393.73057710000285,393.73057710000285,393.73057710000285,393.73057710000285,393.73057710000285,393.73057710000285,393.73057710000285,393.73057710000285,393.73057710000285,,003,P017,2025_Mar_07_1606,ConditionRich,2021.2.3,59.941293496726466,
368.0,371.75,21,0.75,Stimuli/P017/things_baby_09s.jpg,1,3,3.75,0,162,162,162,,,,,,,,,,,,,368.00796869999976,0.007968699999764794,1,393.98080780000237,393.98080780000237,393.98080780000237,393.98080780000237,393.98080780000237,393.98080780000237,396.9501412000027,397.70074810000006,393.98080780000237,393.98080780000237,3.372800699999061,003,P017,2025_Mar_07_1606,ConditionRich,2021.2.3,59.941293496726466,
371.75,372.0,41,0.0,Stimuli/Blank.png,0,0,0.0,0,163,163,163,,,,,,,,,,,,,371.77816170000006,0.028161700000055134,None,397.73412050000115,397.73412050000115,397.73412050000115,397.73412050000115,397.73412050000115,397.73412050000115,397.73412050000115,397.73412050000115,397.73412050000115,397.73412050000115,,003,P017,2025_Mar_07_1606,ConditionRich,2021.2.3,59.941293496726466,
372.0,388.0,0,0.0,Stimuli/Blank.png,1,3,3.75,0,164,164,164,,,,,,,,,,,,,372.0107128999989,0.010712899998907233,1,397.9676591999996,397.9676591999996,397.9676591999996,397.9676591999996,397.9676591999996,397.9676591999996,400.9536579000014,401.7042978000027,397.9676591999996,397.9676591999996,3.5116148999986763,003,P017,2025_Mar_07_1606,ConditionRich,2021.2.3,59.941293496726466,
