eventStartTime,eventEndTime,eventCond,imSize,imFile,responseEvent,fixRespStart,fixRespEnd,Events.thisRepN,Events.thisTrialN,Events.thisN,Events.thisIndex,Instructions.started,Instructions.stopped,participantReadyResponse.keys,participantReadyResponse.rt,participantReadyResponse.started,participantReadyResponse.stopped,startWaitforTrigger,triggerResponse.keys,triggerResponse.rt,triggerResponse.started,triggerResponse.stopped,globalTimer,actualStartTime,startTimingDiff,participantResponse.keys,participantResponse.started,participantResponse.stopped,image.started,image.stopped,fixationOutside.started,fixationOutside.stopped,fixationResponse.started,fixationResponse.stopped,fixationInside.started,fixationInside.stopped,participantResponse.rt,session,participant,date,expName,psychopyVersion,frameRate,
,,,,,,,,,,,,11.057534899999155,None,1,30.357626099998015,11.057534899999155,None,,,,,,,,,,,,,,,,,,,,,009,P017,2025_Mar_07_1704,ConditionRich,2021.2.3,59.94276664674373,
,,,,,,,,,,,,,,,,,,41.42625650000264,5,13.728168699999515,41.4389033999978,None,,,,,,,,,,,,,,,,009,P017,2025_Mar_07_1704,ConditionRich,2021.2.3,59.94276664674373,
0.0,4.0,0,0.0,Stimuli/Blank.png,0,0,0.0,0,0,0,0,,,,,,,,,,,,55.17117419999704,0.0434531999999308,0.0434531999999308,None,55.23434999999881,None,55.23434999999881,None,55.23434999999881,None,55.23434999999881,55.23434999999881,55.23434999999881,None,,009,P017,2025_Mar_07_1704,ConditionRich,2021.2.3,59.94276664674373,
4.0,7.75,27,0.75,Stimuli/P017/things_coffin_09s.jpg,0,0,0.0,0,1,1,1,,,,,,,,,,,,,4.021153100002266,0.021153100002266,None,59.22151239999948,59.22151239999948,59.22151239999948,59.22151239999948,59.22151239999948,59.22151239999948,59.22151239999948,59.22151239999948,59.22151239999948,59.22151239999948,,009,P017,2025_Mar_07_1704,ConditionRich,2021.2.3,59.94276664674373,
7.75,8.0,41,0.0,Stimuli/Blank.png,0,0,0.0,0,2,2,2,,,,,,,,,,,,,7.772692200000165,0.02269220000016503,None,62.9581388000006,62.9581388000006,62.9581388000006,62.9581388000006,62.9581388000006,62.9581388000006,62.9581388000006,62.9581388000006,62.9581388000006,62.9581388000006,,009,P017,2025_Mar_07_1704,ConditionRich,2021.2.3,59.94276664674373,
8.0,11.75,18,0.75,Stimuli/P017/sun_brrvvswweljrvnlq.jpg,0,0,0.0,0,3,3,3,,,,,,,,,,,,,8.007281999998668,0.007281999998667743,None,63.20812090000254,63.20812090000254,63.20812090000254,63.20812090000254,63.20812090000254,63.20812090000254,63.20812090000254,63.20812090000254,63.20812090000254,63.20812090000254,,009,P017,2025_Mar_07_1704,ConditionRich,2021.2.3,59.94276664674373,
11.75,12.0,41,0.0,Stimuli/Blank.png,0,0,0.0,0,4,4,4,,,,,,,,,,,,,11.776326699997298,0.02632669999729842,None,66.96138739999878,66.96138739999878,66.96138739999878,66.96138739999878,66.96138739999878,66.96138739999878,66.96138739999878,66.96138739999878,66.96138739999878,66.96138739999878,,009,P017,2025_Mar_07_1704,ConditionRich,2021.2.3,59.94276664674373,
12.0,15.75,25,0.75,Stimuli/P017/things_cannonball_09s.jpg,0,0,0.0,0,5,5,5,,,,,,,,,,,,,12.010416299999633,0.010416299999633338,None,67.21160870000313,67.21160870000313,67.21160870000313,67.21160870000313,67.21160870000313,67.21160870000313,67.21160870000313,67.21160870000313,67.21160870000313,67.21160870000313,,009,P017,2025_Mar_07_1704,ConditionRich,2021.2.3,59.94276664674373,
15.75,16.0,41,0.0,Stimuli/Blank.png,0,0,0.0,0,6,6,6,,,,,,,,,,,,,15.781395400001202,0.03139540000120178,None,70.98162669999874,70.98162669999874,70.98162669999874,70.98162669999874,70.98162669999874,70.98162669999874,70.98162669999874,70.98162669999874,70.98162669999874,70.98162669999874,,009,P017,2025_Mar_07_1704,ConditionRich,2021.2.3,59.94276664674373,
16.0,19.75,7,0.75,Stimuli/P017/sun_auadhqmfjsjtjcue.jpg,0,0,0.0,0,7,7,7,,,,,,,,,,,,,16.029479099997843,0.02947909999784315,None,71.21514810000372,71.21514810000372,71.21514810000372,71.21514810000372,71.21514810000372,71.21514810000372,71.21514810000372,71.21514810000372,71.21514810000372,71.21514810000372,,009,P017,2025_Mar_07_1704,ConditionRich,2021.2.3,59.94276664674373,
19.75,20.0,41,0.0,Stimuli/Blank.png,0,0,0.0,0,8,8,8,,,,,,,,,,,,,19.751644999996643,0.0016449999966425821,None,74.95178999999916,74.95178999999916,74.95178999999916,74.95178999999916,74.95178999999916,74.95178999999916,74.95178999999916,74.95178999999916,74.95178999999916,74.95178999999916,,009,P017,2025_Mar_07_1704,ConditionRich,2021.2.3,59.94276664674373,
20.0,23.75,19,0.75,Stimuli/P017/sun_brrwzaypucosdcgt.jpg,0,0,0.0,0,9,9,9,,,,,,,,,,,,,20.016861700001755,0.016861700001754798,None,75.20200360000308,75.20200360000308,75.20200360000308,75.20200360000308,75.20200360000308,75.20200360000308,75.20200360000308,75.20200360000308,75.20200360000308,75.20200360000308,,009,P017,2025_Mar_07_1704,ConditionRich,2021.2.3,59.94276664674373,
23.75,24.0,41,0.0,Stimuli/Blank.png,0,0,0.0,0,10,10,10,,,,,,,,,,,,,23.752965799998492,0.0029657999984920025,None,78.93863569999667,78.93863569999667,78.93863569999667,78.93863569999667,78.93863569999667,78.93863569999667,78.93863569999667,78.93863569999667,78.93863569999667,78.93863569999667,,009,P017,2025_Mar_07_1704,ConditionRich,2021.2.3,59.94276664674373,
24.0,27.75,9,0.75,Stimuli/P017/sun_ayidxslzurdumeps.jpg,0,0,0.0,0,11,11,11,,,,,,,,,,,,,24.003823200000625,0.003823200000624638,None,79.20554260000063,79.20554260000063,79.20554260000063,79.20554260000063,79.20554260000063,79.20554260000063,79.20554260000063,79.20554260000063,79.20554260000063,79.20554260000063,,009,P017,2025_Mar_07_1704,ConditionRich,2021.2.3,59.94276664674373,
27.75,28.0,41,0.0,Stimuli/Blank.png,0,0,0.0,0,12,12,12,,,,,,,,,,,,,27.773025599999528,0.023025599999527913,None,82.95886009999958,82.95886009999958,82.95886009999958,82.95886009999958,82.95886009999958,82.95886009999958,82.95886009999958,82.95886009999958,82.95886009999958,82.95886009999958,,009,P017,2025_Mar_07_1704,ConditionRich,2021.2.3,59.94276664674373,
28.0,31.75,37,0.75,Stimuli/P017/things_plastic_film_09s.jpg,0,0,0.0,0,13,13,13,,,,,,,,,,,,,28.00757970000268,0.007579700002679601,None,83.209085100003,83.209085100003,83.209085100003,83.209085100003,83.209085100003,83.209085100003,83.209085100003,83.209085100003,83.209085100003,83.209085100003,,009,P017,2025_Mar_07_1704,ConditionRich,2021.2.3,59.94276664674373,
31.75,32.0,41,0.0,Stimuli/Blank.png,0,0,0.0,0,14,14,14,,,,,,,,,,,,,31.777406399996835,0.027406399996834807,None,86.96240240000043,86.96240240000043,86.96240240000043,86.96240240000043,86.96240240000043,86.96240240000043,86.96240240000043,86.96240240000043,86.96240240000043,86.96240240000043,,009,P017,2025_Mar_07_1704,ConditionRich,2021.2.3,59.94276664674373,
32.0,35.75,40,0.75,Stimuli/P017/things_woman_09s.jpg,0,0,0.0,0,15,15,15,,,,,,,,,,,,,32.01072569999815,0.01072569999814732,None,87.19593529999838,87.19593529999838,87.19593529999838,87.19593529999838,87.19593529999838,87.19593529999838,87.19593529999838,87.19593529999838,87.19593529999838,87.19593529999838,,009,P017,2025_Mar_07_1704,ConditionRich,2021.2.3,59.94276664674373,
35.75,36.0,41,0.0,Stimuli/Blank.png,0,0,0.0,0,16,16,16,,,,,,,,,,,,,35.76478920000227,0.014789200002269354,None,90.94926459999988,90.94926459999988,90.94926459999988,90.94926459999988,90.94926459999988,90.94926459999988,90.94926459999988,90.94926459999988,90.94926459999988,90.94926459999988,,009,P017,2025_Mar_07_1704,ConditionRich,2021.2.3,59.94276664674373,
36.0,39.75,13,0.75,Stimuli/P017/sun_bizqwyomkqigheyx.jpg,1,0,0.75,0,17,17,17,,,,,,,,,,,,,36.01393559999997,0.013935599999967963,1,91.19946979999804,91.19946979999804,91.19946979999804,91.19946979999804,91.19946979999804,91.19946979999804,91.19946979999804,91.93349119999766,91.19946979999804,91.19946979999804,0.46266170000308193,009,P017,2025_Mar_07_1704,ConditionRich,2021.2.3,59.94276664674373,
39.75,40.0,41,0.0,Stimuli/Blank.png,0,0,0.0,0,18,18,18,,,,,,,,,,,,,39.751245499996,0.0012454999960027635,None,94.93612489999941,94.93612489999941,94.93612489999941,94.93612489999941,94.93612489999941,94.93612489999941,94.93612489999941,94.93612489999941,94.93612489999941,94.93612489999941,,009,P017,2025_Mar_07_1704,ConditionRich,2021.2.3,59.94276664674373,
40.0,43.75,26,0.75,Stimuli/P017/things_chandelier_09s.jpg,0,0,0.0,0,19,19,19,,,,,,,,,,,,,40.00233219999791,0.0023321999979089014,None,95.2030225999988,95.2030225999988,95.2030225999988,95.2030225999988,95.2030225999988,95.2030225999988,95.2030225999988,95.2030225999988,95.2030225999988,95.2030225999988,,009,P017,2025_Mar_07_1704,ConditionRich,2021.2.3,59.94276664674373,
43.75,44.0,41,0.0,Stimuli/Blank.png,0,0,0.0,0,20,20,20,,,,,,,,,,,,,43.771229300000414,0.021229300000413787,None,98.95633610000368,98.95633610000368,98.95633610000368,98.95633610000368,98.95633610000368,98.95633610000368,98.95633610000368,98.95633610000368,98.95633610000368,98.95633610000368,,009,P017,2025_Mar_07_1704,ConditionRich,2021.2.3,59.94276664674373,
44.0,47.75,12,0.75,Stimuli/P017/sun_bhvaiabdgxjuwoth.jpg,1,1,1.75,0,21,21,21,,,,,,,,,,,,,44.00508419999824,0.005084199998236727,1,99.20655439999973,99.20655439999973,99.20655439999973,99.20655439999973,99.20655439999973,99.20655439999973,100.19079049999709,100.92477340000187,99.20655439999973,99.20655439999973,1.5897117999993498,009,P017,2025_Mar_07_1704,ConditionRich,2021.2.3,59.94276664674373,
47.75,48.0,41,0.0,Stimuli/Blank.png,0,0,0.0,0,22,22,22,,,,,,,,,,,,,47.77770829999645,0.02770829999644775,None,102.97658149999916,102.97658149999916,102.97658149999916,102.97658149999916,102.97658149999916,102.97658149999916,102.97658149999916,102.97658149999916,102.97658149999916,102.97658149999916,,009,P017,2025_Mar_07_1704,ConditionRich,2021.2.3,59.94276664674373,
48.0,51.75,32,0.75,Stimuli/P017/things_horse_09s.jpg,1,0,0.75,0,23,23,23,,,,,,,,,,,,,48.025545099997544,0.02554509999754373,1,103.22678579999774,103.22678579999774,103.22678579999774,103.22678579999774,103.22678579999774,103.22678579999774,103.22678579999774,103.94413850000274,103.22678579999774,103.22678579999774,0.5056452999997418,009,P017,2025_Mar_07_1704,ConditionRich,2021.2.3,59.94276664674373,
51.75,52.0,41,0.0,Stimuli/Blank.png,0,0,0.0,0,24,24,24,,,,,,,,,,,,,51.778091699998186,0.028091699998185504,None,106.96342670000013,106.96342670000013,106.96342670000013,106.96342670000013,106.96342670000013,106.96342670000013,106.96342670000013,106.96342670000013,106.96342670000013,106.96342670000013,,009,P017,2025_Mar_07_1704,ConditionRich,2021.2.3,59.94276664674373,
52.0,55.75,34,0.75,Stimuli/P017/things_llama_09s.jpg,0,0,0.0,0,25,25,25,,,,,,,,,,,,,52.012506599996414,0.01250659999641357,None,107.21363520000159,107.21363520000159,107.21363520000159,107.21363520000159,107.21363520000159,107.21363520000159,107.21363520000159,107.21363520000159,107.21363520000159,107.21363520000159,,009,P017,2025_Mar_07_1704,ConditionRich,2021.2.3,59.94276664674373,
55.75,56.0,41,0.0,Stimuli/Blank.png,0,0,0.0,0,26,26,26,,,,,,,,,,,,,55.766785799998615,0.016785799998615403,None,110.96695429999818,110.96695429999818,110.96695429999818,110.96695429999818,110.96695429999818,110.96695429999818,110.96695429999818,110.96695429999818,110.96695429999818,110.96695429999818,,009,P017,2025_Mar_07_1704,ConditionRich,2021.2.3,59.94276664674373,
56.0,59.75,29,0.75,Stimuli/P017/things_face_09s.jpg,0,0,0.0,0,27,27,27,,,,,,,,,,,,,56.016197299999476,0.016197299999475945,None,111.21717160000117,111.21717160000117,111.21717160000117,111.21717160000117,111.21717160000117,111.21717160000117,111.21717160000117,111.21717160000117,111.21717160000117,111.21717160000117,,009,P017,2025_Mar_07_1704,ConditionRich,2021.2.3,59.94276664674373,
59.75,60.0,41,0.0,Stimuli/Blank.png,0,0,0.0,0,28,28,28,,,,,,,,,,,,,59.76834280000185,0.018342800001846626,None,114.95381300000008,114.95381300000008,114.95381300000008,114.95381300000008,114.95381300000008,114.95381300000008,114.95381300000008,114.95381300000008,114.95381300000008,114.95381300000008,,009,P017,2025_Mar_07_1704,ConditionRich,2021.2.3,59.94276664674373,
60.0,63.75,22,0.75,Stimuli/P017/things_boat_09s.jpg,0,0,0.0,0,29,29,29,,,,,,,,,,,,,60.00330479999684,0.003304799996840302,None,115.20403929999884,115.20403929999884,115.20403929999884,115.20403929999884,115.20403929999884,115.20403929999884,115.20403929999884,115.20403929999884,115.20403929999884,115.20403929999884,,009,P017,2025_Mar_07_1704,ConditionRich,2021.2.3,59.94276664674373,
63.75,64.0,41,0.0,Stimuli/Blank.png,0,0,0.0,0,30,30,30,,,,,,,,,,,,,63.77221650000138,0.022216500001377426,None,118.95735319999949,118.95735319999949,118.95735319999949,118.95735319999949,118.95735319999949,118.95735319999949,118.95735319999949,118.95735319999949,118.95735319999949,118.95735319999949,,009,P017,2025_Mar_07_1704,ConditionRich,2021.2.3,59.94276664674373,
64.0,67.75,21,0.75,Stimuli/P017/things_baby_09s.jpg,0,0,0.0,0,31,31,31,,,,,,,,,,,,,64.006177999996,0.006177999995998107,None,119.20756870000332,119.20756870000332,119.20756870000332,119.20756870000332,119.20756870000332,119.20756870000332,119.20756870000332,119.20756870000332,119.20756870000332,119.20756870000332,,009,P017,2025_Mar_07_1704,ConditionRich,2021.2.3,59.94276664674373,
67.75,68.0,41,0.0,Stimuli/Blank.png,0,0,0.0,0,32,32,32,,,,,,,,,,,,,67.77634969999781,0.026349699997808784,None,122.9609014000016,122.9609014000016,122.9609014000016,122.9609014000016,122.9609014000016,122.9609014000016,122.9609014000016,122.9609014000016,122.9609014000016,122.9609014000016,,009,P017,2025_Mar_07_1704,ConditionRich,2021.2.3,59.94276664674373,
68.0,71.75,30,0.75,Stimuli/P017/things_girl_09s.jpg,0,0,0.0,0,33,33,33,,,,,,,,,,,,,68.00881310000113,0.008813100001134444,None,123.21112559999892,123.21112559999892,123.21112559999892,123.21112559999892,123.21112559999892,123.21112559999892,123.21112559999892,123.21112559999892,123.21112559999892,123.21112559999892,,009,P017,2025_Mar_07_1704,ConditionRich,2021.2.3,59.94276664674373,
71.75,72.0,41,0.0,Stimuli/Blank.png,0,0,0.0,0,34,34,34,,,,,,,,,,,,,71.7799199000001,0.029919900000095367,None,126.96443569999974,126.96443569999974,126.96443569999974,126.96443569999974,126.96443569999974,126.96443569999974,126.96443569999974,126.96443569999974,126.96443569999974,126.96443569999974,,009,P017,2025_Mar_07_1704,ConditionRich,2021.2.3,59.94276664674373,
72.0,75.75,23,0.75,Stimuli/P017/things_boy_09s.jpg,1,2,2.75,0,35,35,35,,,,,,,,,,,,,72.01233420000062,0.012334200000623241,1,127.19797459999972,127.19797459999972,127.19797459999972,127.19797459999972,127.19797459999972,127.19797459999972,129.18300699999963,129.93375570000353,127.19797459999972,127.19797459999972,2.4933546999964165,009,P017,2025_Mar_07_1704,ConditionRich,2021.2.3,59.94276664674373,
75.75,76.0,41,0.0,Stimuli/Blank.png,0,0,0.0,0,36,36,36,,,,,,,,,,,,,75.76565549999941,0.015655499999411404,None,130.95128850000037,130.95128850000037,130.95128850000037,130.95128850000037,130.95128850000037,130.95128850000037,130.95128850000037,130.95128850000037,130.95128850000037,130.95128850000037,,009,P017,2025_Mar_07_1704,ConditionRich,2021.2.3,59.94276664674373,
76.0,79.75,20,0.75,Stimuli/P017/sun_buukivvfbfhosrng.jpg,0,0,0.0,0,37,37,37,,,,,,,,,,,,,76.00230580000061,0.0023058000006130897,None,131.20151060000353,131.20151060000353,131.20151060000353,131.20151060000353,131.20151060000353,131.20151060000353,131.20151060000353,131.20151060000353,131.20151060000353,131.20151060000353,,009,P017,2025_Mar_07_1704,ConditionRich,2021.2.3,59.94276664674373,
79.75,80.0,41,0.0,Stimuli/Blank.png,0,0,0.0,0,38,38,38,,,,,,,,,,,,,79.770279999997,0.02027999999700114,None,134.95485829999961,134.95485829999961,134.95485829999961,134.95485829999961,134.95485829999961,134.95485829999961,134.95485829999961,134.95485829999961,134.95485829999961,134.95485829999961,,009,P017,2025_Mar_07_1704,ConditionRich,2021.2.3,59.94276664674373,
80.0,83.75,1,0.75,Stimuli/P017/sun_aawmwfqqbzauhqkb.jpg,0,0,0.0,0,39,39,39,,,,,,,,,,,,,80.0031136999969,0.0031136999969021417,None,135.2050786999971,135.2050786999971,135.2050786999971,135.2050786999971,135.2050786999971,135.2050786999971,135.2050786999971,135.2050786999971,135.2050786999971,135.2050786999971,,009,P017,2025_Mar_07_1704,ConditionRich,2021.2.3,59.94276664674373,
83.75,84.0,41,0.0,Stimuli/Blank.png,0,0,0.0,0,40,40,40,,,,,,,,,,,,,83.77244749999954,0.022447499999543652,None,138.95835339999758,138.95835339999758,138.95835339999758,138.95835339999758,138.95835339999758,138.95835339999758,138.95835339999758,138.95835339999758,138.95835339999758,138.95835339999758,,009,P017,2025_Mar_07_1704,ConditionRich,2021.2.3,59.94276664674373,
84.0,100.0,0,0.0,Stimuli/Blank.png,1,2,2.75,0,41,41,41,,,,,,,,,,,,,84.0062059999982,0.0062059999982011504,1,139.1918768999967,139.1918768999967,139.1918768999967,139.1918768999967,139.1918768999967,139.1918768999967,141.17699610000273,141.92765710000094,139.1918768999967,139.1918768999967,2.4235836999941966,009,P017,2025_Mar_07_1704,ConditionRich,2021.2.3,59.94276664674373,
100.0,103.75,36,0.75,Stimuli/P017/things_nest_09s.jpg,0,0,0.0,0,42,42,42,,,,,,,,,,,,,100.00430549999874,0.004305499998736195,None,155.2060597000018,155.2060597000018,155.2060597000018,155.2060597000018,155.2060597000018,155.2060597000018,155.2060597000018,155.2060597000018,155.2060597000018,155.2060597000018,,009,P017,2025_Mar_07_1704,ConditionRich,2021.2.3,59.94276664674373,
103.75,104.0,41,0.0,Stimuli/Blank.png,0,0,0.0,0,43,43,43,,,,,,,,,,,,,103.77478749999864,0.02478749999863794,None,158.96013030000177,158.96013030000177,158.96013030000177,158.96013030000177,158.96013030000177,158.96013030000177,158.96013030000177,158.96013030000177,158.96013030000177,158.96013030000177,,009,P017,2025_Mar_07_1704,ConditionRich,2021.2.3,59.94276664674373,
104.0,107.75,28,0.75,Stimuli/P017/things_collar_09s.jpg,1,1,1.75,0,44,44,44,,,,,,,,,,,,,104.00815539999894,0.008155399998940993,1,159.19295099999727,159.19295099999727,159.19295099999727,159.19295099999727,159.19295099999727,159.19295099999727,160.17711379999673,160.92778279999766,159.19295099999727,159.19295099999727,1.3385159999961616,009,P017,2025_Mar_07_1704,ConditionRich,2021.2.3,59.94276664674373,
107.75,108.0,41,0.0,Stimuli/Blank.png,0,0,0.0,0,45,45,45,,,,,,,,,,,,,107.76058679999551,0.010586799995508045,None,162.94623059999867,162.94623059999867,162.94623059999867,162.94623059999867,162.94623059999867,162.94623059999867,162.94623059999867,162.94623059999867,162.94623059999867,162.94623059999867,,009,P017,2025_Mar_07_1704,ConditionRich,2021.2.3,59.94276664674373,
108.0,111.75,11,0.75,Stimuli/P017/sun_bdzxsadvniuolmio.jpg,0,0,0.0,0,46,46,46,,,,,,,,,,,,,108.0136158000023,0.013615800002298784,None,163.1964517000015,163.1964517000015,163.1964517000015,163.1964517000015,163.1964517000015,163.1964517000015,163.1964517000015,163.1964517000015,163.1964517000015,163.1964517000015,,009,P017,2025_Mar_07_1704,ConditionRich,2021.2.3,59.94276664674373,
111.75,112.0,41,0.0,Stimuli/Blank.png,0,0,0.0,0,47,47,47,,,,,,,,,,,,,111.74862810000195,-0.0013718999980483204,None,166.93317769999703,166.93317769999703,166.93317769999703,166.93317769999703,166.93317769999703,166.93317769999703,166.93317769999703,166.93317769999703,166.93317769999703,166.93317769999703,,009,P017,2025_Mar_07_1704,ConditionRich,2021.2.3,59.94276664674373,
112.0,115.75,17,0.75,Stimuli/P017/sun_brhndfjxyigqgiwl.jpg,1,2,2.75,0,48,48,48,,,,,,,,,,,,,112.01679390000209,0.016793900002085138,1,167.21664269999746,167.21664269999746,167.21664269999746,167.21664269999746,167.21664269999746,167.21664269999746,169.20173950000026,169.95243990000017,167.21664269999746,167.21664269999746,2.3899386999983108,009,P017,2025_Mar_07_1704,ConditionRich,2021.2.3,59.94276664674373,
115.75,116.0,41,0.0,Stimuli/Blank.png,0,0,0.0,0,49,49,49,,,,,,,,,,,,,115.76757659999566,0.017576599995663855,None,170.9533029000013,170.9533029000013,170.9533029000013,170.9533029000013,170.9533029000013,170.9533029000013,170.9533029000013,170.9533029000013,170.9533029000013,170.9533029000013,,009,P017,2025_Mar_07_1704,ConditionRich,2021.2.3,59.94276664674373,
116.0,119.75,33,0.75,Stimuli/P017/things_lamb_09s.jpg,0,0,0.0,0,50,50,50,,,,,,,,,,,,,116.00175650000165,0.0017565000016475096,None,171.20353389999946,171.20353389999946,171.20353389999946,171.20353389999946,171.20353389999946,171.20353389999946,171.20353389999946,171.20353389999946,171.20353389999946,171.20353389999946,,009,P017,2025_Mar_07_1704,ConditionRich,2021.2.3,59.94276664674373,
119.75,120.0,41,0.0,Stimuli/Blank.png,0,0,0.0,0,51,51,51,,,,,,,,,,,,,119.77116289999685,0.021162899996852502,None,174.9568597999969,174.9568597999969,174.9568597999969,174.9568597999969,174.9568597999969,174.9568597999969,174.9568597999969,174.9568597999969,174.9568597999969,174.9568597999969,,009,P017,2025_Mar_07_1704,ConditionRich,2021.2.3,59.94276664674373,
120.0,123.75,8,0.75,Stimuli/P017/sun_axsmqyyvebrcuhkn.jpg,0,0,0.0,0,52,52,52,,,,,,,,,,,,,120.00561249999737,0.005612499997369014,None,175.19035620000068,175.19035620000068,175.19035620000068,175.19035620000068,175.19035620000068,175.19035620000068,175.19035620000068,175.19035620000068,175.19035620000068,175.19035620000068,,009,P017,2025_Mar_07_1704,ConditionRich,2021.2.3,59.94276664674373,
123.75,124.0,41,0.0,Stimuli/Blank.png,0,0,0.0,0,53,53,53,,,,,,,,,,,,,123.75871729999926,0.00871729999926174,None,178.94370219999837,178.94370219999837,178.94370219999837,178.94370219999837,178.94370219999837,178.94370219999837,178.94370219999837,178.94370219999837,178.94370219999837,178.94370219999837,,009,P017,2025_Mar_07_1704,ConditionRich,2021.2.3,59.94276664674373,
124.0,127.75,10,0.75,Stimuli/P017/sun_bayxprasninnrnle.jpg,1,3,3.75,0,54,54,54,,,,,,,,,,,,,124.00829689999955,0.008296899999550078,1,179.19393030000356,179.19393030000356,179.19393030000356,179.19393030000356,179.19393030000356,179.19393030000356,182.17993299999944,182.93066050000198,179.19393030000356,179.19393030000356,3.4352323999992223,009,P017,2025_Mar_07_1704,ConditionRich,2021.2.3,59.94276664674373,
127.75,128.0,41,0.0,Stimuli/Blank.png,0,0,0.0,0,55,55,55,,,,,,,,,,,,,127.76385080000182,0.013850800001819152,None,182.96395299999858,182.96395299999858,182.96395299999858,182.96395299999858,182.96395299999858,182.96395299999858,182.96395299999858,182.96395299999858,182.96395299999858,182.96395299999858,,009,P017,2025_Mar_07_1704,ConditionRich,2021.2.3,59.94276664674373,
128.0,131.75,16,0.75,Stimuli/P017/sun_brfwxjsnmauhmfzf.jpg,0,0,0.0,0,56,56,56,,,,,,,,,,,,,128.0284008000017,0.028400800001691096,None,183.21414229999937,183.21414229999937,183.21414229999937,183.21414229999937,183.21414229999937,183.21414229999937,183.21414229999937,183.21414229999937,183.21414229999937,183.21414229999937,,009,P017,2025_Mar_07_1704,ConditionRich,2021.2.3,59.94276664674373,
131.75,132.0,41,0.0,Stimuli/Blank.png,0,0,0.0,0,57,57,57,,,,,,,,,,,,,131.76590379999834,0.015903799998341128,None,186.95078980000108,186.95078980000108,186.95078980000108,186.95078980000108,186.95078980000108,186.95078980000108,186.95078980000108,186.95078980000108,186.95078980000108,186.95078980000108,,009,P017,2025_Mar_07_1704,ConditionRich,2021.2.3,59.94276664674373,
132.0,135.75,15,0.75,Stimuli/P017/sun_bobznlnnzwznersx.jpg,0,0,0.0,0,58,58,58,,,,,,,,,,,,,132.00158530000044,0.0015853000004426576,1,187.20100970000203,187.20100970000203,187.20100970000203,187.20100970000203,187.20100970000203,187.20100970000203,187.20100970000203,187.20100970000203,187.20100970000203,187.20100970000203,2.174109200001112,009,P017,2025_Mar_07_1704,ConditionRich,2021.2.3,59.94276664674373,
135.75,136.0,41,0.0,Stimuli/Blank.png,0,0,0.0,0,59,59,59,,,,,,,,,,,,,135.7685158000022,0.01851580000220565,None,190.9543315999981,190.9543315999981,190.9543315999981,190.9543315999981,190.9543315999981,190.9543315999981,190.9543315999981,190.9543315999981,190.9543315999981,190.9543315999981,,009,P017,2025_Mar_07_1704,ConditionRich,2021.2.3,59.94276664674373,
136.0,139.75,31,0.75,Stimuli/P017/things_highchair_09s.jpg,0,0,0.0,0,60,60,60,,,,,,,,,,,,,136.00303870000062,0.0030387000006157905,None,191.18781879999733,191.18781879999733,191.18781879999733,191.18781879999733,191.18781879999733,191.18781879999733,191.18781879999733,191.18781879999733,191.18781879999733,191.18781879999733,,009,P017,2025_Mar_07_1704,ConditionRich,2021.2.3,59.94276664674373,
139.75,140.0,41,0.0,Stimuli/Blank.png,0,0,0.0,0,61,61,61,,,,,,,,,,,,,139.75611180000124,0.006111800001235679,None,194.94119030000002,194.94119030000002,194.94119030000002,194.94119030000002,194.94119030000002,194.94119030000002,194.94119030000002,194.94119030000002,194.94119030000002,194.94119030000002,,009,P017,2025_Mar_07_1704,ConditionRich,2021.2.3,59.94276664674373,
140.0,143.75,4,0.75,Stimuli/P017/sun_aibvvqlmlsjnrgdj.jpg,0,0,0.0,0,62,62,62,,,,,,,,,,,,,140.00799530000222,0.007995300002221484,None,195.20823160000145,195.20823160000145,195.20823160000145,195.20823160000145,195.20823160000145,195.20823160000145,195.20823160000145,195.20823160000145,195.20823160000145,195.20823160000145,,009,P017,2025_Mar_07_1704,ConditionRich,2021.2.3,59.94276664674373,
143.75,144.0,41,0.0,Stimuli/Blank.png,0,0,0.0,0,63,63,63,,,,,,,,,,,,,143.77644979999604,0.02644979999604402,None,198.96140169999853,198.96140169999853,198.96140169999853,198.96140169999853,198.96140169999853,198.96140169999853,198.96140169999853,198.96140169999853,198.96140169999853,198.96140169999853,,009,P017,2025_Mar_07_1704,ConditionRich,2021.2.3,59.94276664674373,
144.0,147.75,35,0.75,Stimuli/P017/things_lobster_09s.jpg,1,0,0.75,0,64,64,64,,,,,,,,,,,,,144.00999379999848,0.009993799998483155,1,199.19493299999885,199.19493299999885,199.19493299999885,199.19493299999885,199.19493299999885,199.19493299999885,199.19493299999885,199.92891219999728,199.19493299999885,199.19493299999885,0.3953789000006509,009,P017,2025_Mar_07_1704,ConditionRich,2021.2.3,59.94276664674373,
147.75,148.0,41,0.0,Stimuli/Blank.png,0,0,0.0,0,65,65,65,,,,,,,,,,,,,147.76314360000106,0.013143600001058076,None,202.9482640999995,202.9482640999995,202.9482640999995,202.9482640999995,202.9482640999995,202.9482640999995,202.9482640999995,202.9482640999995,202.9482640999995,202.9482640999995,,009,P017,2025_Mar_07_1704,ConditionRich,2021.2.3,59.94276664674373,
148.0,151.75,38,0.75,Stimuli/P017/things_pony_09s.jpg,0,0,0.0,0,66,66,66,,,,,,,,,,,,,148.0134082000004,0.013408200000412762,None,203.19847160000063,203.19847160000063,203.19847160000063,203.19847160000063,203.19847160000063,203.19847160000063,203.19847160000063,203.19847160000063,203.19847160000063,203.19847160000063,,009,P017,2025_Mar_07_1704,ConditionRich,2021.2.3,59.94276664674373,
151.75,152.0,41,0.0,Stimuli/Blank.png,0,0,0.0,0,67,67,67,,,,,,,,,,,,,151.7519153999965,0.0019153999965055846,None,206.95180139999866,206.95180139999866,206.95180139999866,206.95180139999866,206.95180139999866,206.95180139999866,206.95180139999866,206.95180139999866,206.95180139999866,206.95180139999866,,009,P017,2025_Mar_07_1704,ConditionRich,2021.2.3,59.94276664674373,
152.0,155.75,3,0.75,Stimuli/P017/sun_acymmczhyuiimeub.jpg,0,0,0.0,0,68,68,68,,,,,,,,,,,,,152.01735969999572,0.01735969999572262,None,207.21869750000042,207.21869750000042,207.21869750000042,207.21869750000042,207.21869750000042,207.21869750000042,207.21869750000042,207.21869750000042,207.21869750000042,207.21869750000042,,009,P017,2025_Mar_07_1704,ConditionRich,2021.2.3,59.94276664674373,
155.75,156.0,41,0.0,Stimuli/Blank.png,0,0,0.0,0,69,69,69,,,,,,,,,,,,,155.77266919999965,0.022669199999654666,None,210.97202670000115,210.97202670000115,210.97202670000115,210.97202670000115,210.97202670000115,210.97202670000115,210.97202670000115,210.97202670000115,210.97202670000115,210.97202670000115,,009,P017,2025_Mar_07_1704,ConditionRich,2021.2.3,59.94276664674373,
156.0,159.75,14,0.75,Stimuli/P017/sun_bljpqnfmmqkjsfvx.jpg,0,0,0.0,0,70,70,70,,,,,,,,,,,,,156.0224831000014,0.022483100001409184,None,211.2222374999983,211.2222374999983,211.2222374999983,211.2222374999983,211.2222374999983,211.2222374999983,211.2222374999983,211.2222374999983,211.2222374999983,211.2222374999983,,009,P017,2025_Mar_07_1704,ConditionRich,2021.2.3,59.94276664674373,
159.75,160.0,41,0.0,Stimuli/Blank.png,0,0,0.0,0,71,71,71,,,,,,,,,,,,,159.77373429999716,0.023734299997158814,None,214.95887319999747,214.95887319999747,214.95887319999747,214.95887319999747,214.95887319999747,214.95887319999747,214.95887319999747,214.95887319999747,214.95887319999747,214.95887319999747,,009,P017,2025_Mar_07_1704,ConditionRich,2021.2.3,59.94276664674373,
160.0,163.75,5,0.75,Stimuli/P017/sun_apojgqgvdvsksdvo.jpg,0,0,0.0,0,72,72,72,,,,,,,,,,,,,160.0076356999998,0.007635699999809731,None,215.20910020000156,215.20910020000156,215.20910020000156,215.20910020000156,215.20910020000156,215.20910020000156,215.20910020000156,215.20910020000156,215.20910020000156,215.20910020000156,,009,P017,2025_Mar_07_1704,ConditionRich,2021.2.3,59.94276664674373,
163.75,164.0,41,0.0,Stimuli/Blank.png,0,0,0.0,0,73,73,73,,,,,,,,,,,,,163.77721030000248,0.027210300002479926,None,218.96241729999747,218.96241729999747,218.96241729999747,218.96241729999747,218.96241729999747,218.96241729999747,218.96241729999747,218.96241729999747,218.96241729999747,218.96241729999747,,009,P017,2025_Mar_07_1704,ConditionRich,2021.2.3,59.94276664674373,
164.0,167.75,24,0.75,Stimuli/P017/things_breadbox_09s.jpg,1,2,2.75,0,74,74,74,,,,,,,,,,,,,164.01084579999588,0.010845799995877314,1,219.1960134999972,219.1960134999972,219.1960134999972,219.1960134999972,219.1960134999972,219.1960134999972,221.18103459999838,221.93169060000218,219.1960134999972,219.1960134999972,2.4062559999947553,009,P017,2025_Mar_07_1704,ConditionRich,2021.2.3,59.94276664674373,
167.75,168.0,41,0.0,Stimuli/Blank.png,0,0,0.0,0,75,75,75,,,,,,,,,,,,,167.76360569999815,0.013605699998151977,None,222.94927820000157,222.94927820000157,222.94927820000157,222.94927820000157,222.94927820000157,222.94927820000157,222.94927820000157,222.94927820000157,222.94927820000157,222.94927820000157,,009,P017,2025_Mar_07_1704,ConditionRich,2021.2.3,59.94276664674373,
168.0,171.75,39,0.75,Stimuli/P017/things_veil_09s.jpg,0,0,0.0,0,76,76,76,,,,,,,,,,,,,168.01670860000013,0.01670860000012908,None,223.21618280000257,223.21618280000257,223.21618280000257,223.21618280000257,223.21618280000257,223.21618280000257,223.21618280000257,223.21618280000257,223.21618280000257,223.21618280000257,,009,P017,2025_Mar_07_1704,ConditionRich,2021.2.3,59.94276664674373,
171.75,172.0,41,0.0,Stimuli/Blank.png,0,0,0.0,0,77,77,77,,,,,,,,,,,,,171.76729640000121,0.01729640000121435,None,226.952787299997,226.952787299997,226.952787299997,226.952787299997,226.952787299997,226.952787299997,226.952787299997,226.952787299997,226.952787299997,226.952787299997,,009,P017,2025_Mar_07_1704,ConditionRich,2021.2.3,59.94276664674373,
172.0,175.75,2,0.75,Stimuli/P017/sun_acliytrpktltxwsx.jpg,0,0,0.0,0,78,78,78,,,,,,,,,,,,,172.0021321000022,0.002132100002199877,None,227.20303080000303,227.20303080000303,227.20303080000303,227.20303080000303,227.20303080000303,227.20303080000303,227.20303080000303,227.20303080000303,227.20303080000303,227.20303080000303,,009,P017,2025_Mar_07_1704,ConditionRich,2021.2.3,59.94276664674373,
175.75,176.0,41,0.0,Stimuli/Blank.png,0,0,0.0,0,79,79,79,,,,,,,,,,,,,175.77127299999847,0.021272999998473097,None,230.95635839999886,230.95635839999886,230.95635839999886,230.95635839999886,230.95635839999886,230.95635839999886,230.95635839999886,230.95635839999886,230.95635839999886,230.95635839999886,,009,P017,2025_Mar_07_1704,ConditionRich,2021.2.3,59.94276664674373,
176.0,179.75,6,0.75,Stimuli/P017/sun_atuyvunnykjurjgx.jpg,0,0,0.0,0,80,80,80,,,,,,,,,,,,,176.00495039999805,0.00495039999805158,None,231.20658320000075,231.20658320000075,231.20658320000075,231.20658320000075,231.20658320000075,231.20658320000075,231.20658320000075,231.20658320000075,231.20658320000075,231.20658320000075,,009,P017,2025_Mar_07_1704,ConditionRich,2021.2.3,59.94276664674373,
179.75,180.0,41,0.0,Stimuli/Blank.png,0,0,0.0,0,81,81,81,,,,,,,,,,,,,179.77648439999757,0.026484399997571018,None,234.97657849999814,234.97657849999814,234.97657849999814,234.97657849999814,234.97657849999814,234.97657849999814,234.97657849999814,234.97657849999814,234.97657849999814,234.97657849999814,,009,P017,2025_Mar_07_1704,ConditionRich,2021.2.3,59.94276664674373,
180.0,196.0,0,0.0,Stimuli/Blank.png,1,5,5.75,0,82,82,82,,,,,,,,,,,,,180.0266449999981,0.026644999998097774,1,235.22679980000248,235.22679980000248,235.22679980000248,235.22679980000248,235.22679980000248,235.22679980000248,240.19783940000343,240.94851270000072,235.22679980000248,235.22679980000248,5.687305199993716,009,P017,2025_Mar_07_1704,ConditionRich,2021.2.3,59.94276664674373,
196.0,199.75,39,0.75,Stimuli/P017/things_veil_09s.jpg,1,0,0.75,0,83,83,83,,,,,,,,,,,,,196.02270270000008,0.022702700000081677,1,251.2075776999991,251.2075776999991,251.2075776999991,251.2075776999991,251.2075776999991,251.2075776999991,251.2075776999991,251.94156839999778,251.2075776999991,251.2075776999991,0.4296016000007512,009,P017,2025_Mar_07_1704,ConditionRich,2021.2.3,59.94276664674373,
199.75,200.0,41,0.0,Stimuli/Blank.png,0,0,0.0,0,84,84,84,,,,,,,,,,,,,199.7585990000007,0.008599000000685919,None,254.94422530000156,254.94422530000156,254.94422530000156,254.94422530000156,254.94422530000156,254.94422530000156,254.94422530000156,254.94422530000156,254.94422530000156,254.94422530000156,,009,P017,2025_Mar_07_1704,ConditionRich,2021.2.3,59.94276664674373,
200.0,203.75,6,0.75,Stimuli/P017/sun_atuyvunnykjurjgx.jpg,0,0,0.0,0,85,85,85,,,,,,,,,,,,,200.01169010000012,0.011690100000123493,None,255.21114079999825,255.21114079999825,255.21114079999825,255.21114079999825,255.21114079999825,255.21114079999825,255.21114079999825,255.21114079999825,255.21114079999825,255.21114079999825,,009,P017,2025_Mar_07_1704,ConditionRich,2021.2.3,59.94276664674373,
203.75,204.0,41,0.0,Stimuli/Blank.png,0,0,0.0,0,86,86,86,,,,,,,,,,,,,203.7786444000012,0.02864440000121249,None,258.9644421999983,258.9644421999983,258.9644421999983,258.9644421999983,258.9644421999983,258.9644421999983,258.9644421999983,258.9644421999983,258.9644421999983,258.9644421999983,,009,P017,2025_Mar_07_1704,ConditionRich,2021.2.3,59.94276664674373,
204.0,207.75,16,0.75,Stimuli/P017/sun_brfwxjsnmauhmfzf.jpg,0,0,0.0,0,87,87,87,,,,,,,,,,,,,204.0130735999992,0.013073599999188446,None,259.21466209999926,259.21466209999926,259.21466209999926,259.21466209999926,259.21466209999926,259.21466209999926,259.21466209999926,259.21466209999926,259.21466209999926,259.21466209999926,,009,P017,2025_Mar_07_1704,ConditionRich,2021.2.3,59.94276664674373,
207.75,208.0,41,0.0,Stimuli/Blank.png,0,0,0.0,0,88,88,88,,,,,,,,,,,,,207.76660899999843,0.016608999998425134,None,262.9513109000036,262.9513109000036,262.9513109000036,262.9513109000036,262.9513109000036,262.9513109000036,262.9513109000036,262.9513109000036,262.9513109000036,262.9513109000036,,009,P017,2025_Mar_07_1704,ConditionRich,2021.2.3,59.94276664674373,
208.0,211.75,27,0.75,Stimuli/P017/things_coffin_09s.jpg,0,0,0.0,0,89,89,89,,,,,,,,,,,,,208.00027240000054,0.00027240000054007396,None,263.201519000002,263.201519000002,263.201519000002,263.201519000002,263.201519000002,263.201519000002,263.201519000002,263.201519000002,263.201519000002,263.201519000002,,009,P017,2025_Mar_07_1704,ConditionRich,2021.2.3,59.94276664674373,
211.75,212.0,41,0.0,Stimuli/Blank.png,0,0,0.0,0,90,90,90,,,,,,,,,,,,,211.77025670000148,0.020256700001482386,None,266.95482710000215,266.95482710000215,266.95482710000215,266.95482710000215,266.95482710000215,266.95482710000215,266.95482710000215,266.95482710000215,266.95482710000215,266.95482710000215,,009,P017,2025_Mar_07_1704,ConditionRich,2021.2.3,59.94276664674373,
212.0,215.75,36,0.75,Stimuli/P017/things_nest_09s.jpg,0,0,0.0,0,91,91,91,,,,,,,,,,,,,212.0032205000025,0.0032205000024987385,None,267.1883949999974,267.1883949999974,267.1883949999974,267.1883949999974,267.1883949999974,267.1883949999974,267.1883949999974,267.1883949999974,267.1883949999974,267.1883949999974,,009,P017,2025_Mar_07_1704,ConditionRich,2021.2.3,59.94276664674373,
215.75,216.0,41,0.0,Stimuli/Blank.png,0,0,0.0,0,92,92,92,,,,,,,,,,,,,215.7582235000009,0.008223500000895001,None,270.9417093000011,270.9417093000011,270.9417093000011,270.9417093000011,270.9417093000011,270.9417093000011,270.9417093000011,270.9417093000011,270.9417093000011,270.9417093000011,,009,P017,2025_Mar_07_1704,ConditionRich,2021.2.3,59.94276664674373,
216.0,219.75,12,0.75,Stimuli/P017/sun_bhvaiabdgxjuwoth.jpg,1,3,3.75,0,93,93,93,,,,,,,,,,,,,216.00664880000113,0.006648800001130439,1,271.19191560000036,271.19191560000036,271.19191560000036,271.19191560000036,271.19191560000036,271.19191560000036,274.1778825000001,274.92854929999885,271.19191560000036,271.19191560000036,3.4755686999997124,009,P017,2025_Mar_07_1704,ConditionRich,2021.2.3,59.94276664674373,
219.75,220.0,41,0.0,Stimuli/Blank.png,0,0,0.0,0,94,94,94,,,,,,,,,,,,,219.76164340000105,0.011643400001048576,None,274.9619225999995,274.9619225999995,274.9619225999995,274.9619225999995,274.9619225999995,274.9619225999995,274.9619225999995,274.9619225999995,274.9619225999995,274.9619225999995,,009,P017,2025_Mar_07_1704,ConditionRich,2021.2.3,59.94276664674373,
220.0,223.75,11,0.75,Stimuli/P017/sun_bdzxsadvniuolmio.jpg,0,0,0.0,0,95,95,95,,,,,,,,,,,,,220.02644979999604,0.02644979999604402,None,275.2121355999989,275.2121355999989,275.2121355999989,275.2121355999989,275.2121355999989,275.2121355999989,275.2121355999989,275.2121355999989,275.2121355999989,275.2121355999989,,009,P017,2025_Mar_07_1704,ConditionRich,2021.2.3,59.94276664674373,
223.75,224.0,41,0.0,Stimuli/Blank.png,0,0,0.0,0,96,96,96,,,,,,,,,,,,,223.7631024000002,0.013102400000207126,None,278.9487685999993,278.9487685999993,278.9487685999993,278.9487685999993,278.9487685999993,278.9487685999993,278.9487685999993,278.9487685999993,278.9487685999993,278.9487685999993,,009,P017,2025_Mar_07_1704,ConditionRich,2021.2.3,59.94276664674373,
224.0,227.75,17,0.75,Stimuli/P017/sun_brhndfjxyigqgiwl.jpg,1,1,1.75,0,97,97,97,,,,,,,,,,,,,224.01324249999743,0.013242499997431878,None,279.19899830000213,279.19899830000213,279.19899830000213,279.19899830000213,279.19899830000213,279.19899830000213,280.1831998999987,280.93390419999923,279.19899830000213,279.19899830000213,,009,P017,2025_Mar_07_1704,ConditionRich,2021.2.3,59.94276664674373,
227.75,228.0,41,0.0,Stimuli/Blank.png,0,0,0.0,0,98,98,98,,,,,,,,,,,,,227.75049900000158,0.0004990000015823171,None,282.9356773000036,282.9356773000036,282.9356773000036,282.9356773000036,282.9356773000036,282.9356773000036,282.9356773000036,282.9356773000036,282.9356773000036,282.9356773000036,,009,P017,2025_Mar_07_1704,ConditionRich,2021.2.3,59.94276664674373,
228.0,231.75,10,0.75,Stimuli/P017/sun_bayxprasninnrnle.jpg,0,0,0.0,0,99,99,99,,,,,,,,,,,,,228.00305030000163,0.003050300001632422,None,283.2025539000024,283.2025539000024,283.2025539000024,283.2025539000024,283.2025539000024,283.2025539000024,283.2025539000024,283.2025539000024,283.2025539000024,283.2025539000024,,009,P017,2025_Mar_07_1704,ConditionRich,2021.2.3,59.94276664674373,
231.75,232.0,41,0.0,Stimuli/Blank.png,0,0,0.0,0,100,100,100,,,,,,,,,,,,,231.77208070000052,0.022080700000515208,None,286.9725380000018,286.9725380000018,286.9725380000018,286.9725380000018,286.9725380000018,286.9725380000018,286.9725380000018,286.9725380000018,286.9725380000018,286.9725380000018,,009,P017,2025_Mar_07_1704,ConditionRich,2021.2.3,59.94276664674373,
232.0,235.75,33,0.75,Stimuli/P017/things_lamb_09s.jpg,1,3,3.75,0,101,101,101,,,,,,,,,,,,,232.0204472999976,0.0204472999976133,1,287.20607230000314,287.20607230000314,287.20607230000314,287.20607230000314,287.20607230000314,287.20607230000314,290.1920456000007,None,287.20607230000314,287.20607230000314,3.4191831999996793,009,P017,2025_Mar_07_1704,ConditionRich,2021.2.3,59.94276664674373,
235.75,236.0,41,0.0,Stimuli/Blank.png,0,0,0.0,0,102,102,102,,,,,,,,,,,,,235.75917330000084,0.009173300000838935,None,290.94271709999884,290.94271709999884,290.94271709999884,290.94271709999884,290.94271709999884,290.94271709999884,290.94271709999884,290.94271709999884,290.94271709999884,290.94271709999884,,009,P017,2025_Mar_07_1704,ConditionRich,2021.2.3,59.94276664674373,
236.0,239.75,34,0.75,Stimuli/P017/things_llama_09s.jpg,0,0,0.0,0,103,103,103,,,,,,,,,,,,,236.0071781000006,0.007178100000601262,None,291.1929231000031,291.1929231000031,291.1929231000031,291.1929231000031,291.1929231000031,291.1929231000031,291.1929231000031,291.1929231000031,291.1929231000031,291.1929231000031,,009,P017,2025_Mar_07_1704,ConditionRich,2021.2.3,59.94276664674373,
239.75,240.0,41,0.0,Stimuli/Blank.png,0,0,0.0,0,104,104,104,,,,,,,,,,,,,239.76116529999854,0.011165299998538103,None,294.9462579000028,294.9462579000028,294.9462579000028,294.9462579000028,294.9462579000028,294.9462579000028,294.9462579000028,294.9462579000028,294.9462579000028,294.9462579000028,,009,P017,2025_Mar_07_1704,ConditionRich,2021.2.3,59.94276664674373,
240.0,243.75,38,0.75,Stimuli/P017/things_pony_09s.jpg,1,0,0.75,0,105,105,105,,,,,,,,,,,,,240.01141110000026,0.011411100000259466,1,295.21315570000297,295.21315570000297,295.21315570000297,295.21315570000297,295.21315570000297,295.21315570000297,295.21315570000297,295.9304756999991,295.21315570000297,295.21315570000297,0.31725210000149673,009,P017,2025_Mar_07_1704,ConditionRich,2021.2.3,59.94276664674373,
243.75,244.0,41,0.0,Stimuli/Blank.png,0,0,0.0,0,106,106,106,,,,,,,,,,,,,243.78149429999758,0.03149429999757558,None,298.96648070000083,298.96648070000083,298.96648070000083,298.96648070000083,298.96648070000083,298.96648070000083,298.96648070000083,298.96648070000083,298.96648070000083,298.96648070000083,,009,P017,2025_Mar_07_1704,ConditionRich,2021.2.3,59.94276664674373,
244.0,247.75,20,0.75,Stimuli/P017/sun_buukivvfbfhosrng.jpg,0,0,0.0,0,107,107,107,,,,,,,,,,,,,244.01426109999738,0.014261099997384008,None,299.20002199999726,299.20002199999726,299.20002199999726,299.20002199999726,299.20002199999726,299.20002199999726,299.20002199999726,299.20002199999726,299.20002199999726,299.20002199999726,,009,P017,2025_Mar_07_1704,ConditionRich,2021.2.3,59.94276664674373,
247.75,248.0,41,0.0,Stimuli/Blank.png,0,0,0.0,0,108,108,108,,,,,,,,,,,,,247.7508600000001,0.0008600000001024455,None,302.9366796999966,302.9366796999966,302.9366796999966,302.9366796999966,302.9366796999966,302.9366796999966,302.9366796999966,302.9366796999966,302.9366796999966,302.9366796999966,,009,P017,2025_Mar_07_1704,ConditionRich,2021.2.3,59.94276664674373,
248.0,251.75,14,0.75,Stimuli/P017/sun_bljpqnfmmqkjsfvx.jpg,0,0,0.0,0,109,109,109,,,,,,,,,,,,,248.0020863999962,0.002086399996187538,None,303.1868688999966,303.1868688999966,303.1868688999966,303.1868688999966,303.1868688999966,303.1868688999966,303.1868688999966,303.1868688999966,303.1868688999966,303.1868688999966,,009,P017,2025_Mar_07_1704,ConditionRich,2021.2.3,59.94276664674373,
251.75,252.0,41,0.0,Stimuli/Blank.png,0,0,0.0,0,110,110,110,,,,,,,,,,,,,251.7565639999957,0.006563999995705672,None,306.95686849999765,306.95686849999765,306.95686849999765,306.95686849999765,306.95686849999765,306.95686849999765,306.95686849999765,306.95686849999765,306.95686849999765,306.95686849999765,,009,P017,2025_Mar_07_1704,ConditionRich,2021.2.3,59.94276664674373,
252.0,255.75,28,0.75,Stimuli/P017/things_collar_09s.jpg,0,0,0.0,0,111,111,111,,,,,,,,,,,,,252.02270039999712,0.022700399997120257,None,307.2237768999985,307.2237768999985,307.2237768999985,307.2237768999985,307.2237768999985,307.2237768999985,307.2237768999985,307.2237768999985,307.2237768999985,307.2237768999985,,009,P017,2025_Mar_07_1704,ConditionRich,2021.2.3,59.94276664674373,
255.75,256.0,41,0.0,Stimuli/Blank.png,0,0,0.0,0,112,112,112,,,,,,,,,,,,,255.77589669999725,0.025896699997247197,None,310.9604091000001,310.9604091000001,310.9604091000001,310.9604091000001,310.9604091000001,310.9604091000001,310.9604091000001,310.9604091000001,310.9604091000001,310.9604091000001,,009,P017,2025_Mar_07_1704,ConditionRich,2021.2.3,59.94276664674373,
256.0,259.75,2,0.75,Stimuli/P017/sun_acliytrpktltxwsx.jpg,0,0,0.0,0,113,113,113,,,,,,,,,,,,,256.0087448999984,0.008744899998418987,None,311.19393980000314,311.19393980000314,311.19393980000314,311.19393980000314,311.19393980000314,311.19393980000314,311.19393980000314,311.19393980000314,311.19393980000314,311.19393980000314,,009,P017,2025_Mar_07_1704,ConditionRich,2021.2.3,59.94276664674373,
259.75,260.0,41,0.0,Stimuli/Blank.png,0,0,0.0,0,114,114,114,,,,,,,,,,,,,259.7622820999968,0.012282099996809848,None,314.94726190000074,314.94726190000074,314.94726190000074,314.94726190000074,314.94726190000074,314.94726190000074,314.94726190000074,314.94726190000074,314.94726190000074,314.94726190000074,,009,P017,2025_Mar_07_1704,ConditionRich,2021.2.3,59.94276664674373,
260.0,263.75,4,0.75,Stimuli/P017/sun_aibvvqlmlsjnrgdj.jpg,0,0,0.0,0,115,115,115,,,,,,,,,,,,,260.01249069999903,0.012490699999034405,1,315.1974926999974,315.1974926999974,315.1974926999974,315.1974926999974,315.1974926999974,315.1974926999974,315.1974926999974,315.1974926999974,315.1974926999974,315.1974926999974,2.471772199998668,009,P017,2025_Mar_07_1704,ConditionRich,2021.2.3,59.94276664674373,
263.75,264.0,41,0.0,Stimuli/Blank.png,0,0,0.0,0,116,116,116,,,,,,,,,,,,,263.74868979999883,-0.0013102000011713244,None,318.93411529999867,318.93411529999867,318.93411529999867,318.93411529999867,318.93411529999867,318.93411529999867,318.93411529999867,318.93411529999867,318.93411529999867,318.93411529999867,,009,P017,2025_Mar_07_1704,ConditionRich,2021.2.3,59.94276664674373,
264.0,267.75,15,0.75,Stimuli/P017/sun_bobznlnnzwznersx.jpg,0,0,0.0,0,117,117,117,,,,,,,,,,,,,264.01542640000116,0.0154264000011608,None,319.20102320000296,319.20102320000296,319.20102320000296,319.20102320000296,319.20102320000296,319.20102320000296,319.20102320000296,319.20102320000296,319.20102320000296,319.20102320000296,,009,P017,2025_Mar_07_1704,ConditionRich,2021.2.3,59.94276664674373,
267.75,268.0,41,0.0,Stimuli/Blank.png,0,0,0.0,0,118,118,118,,,,,,,,,,,,,267.7519820000016,0.0019820000015897676,None,322.9376534999974,322.9376534999974,322.9376534999974,322.9376534999974,322.9376534999974,322.9376534999974,322.9376534999974,322.9376534999974,322.9376534999974,322.9376534999974,,009,P017,2025_Mar_07_1704,ConditionRich,2021.2.3,59.94276664674373,
268.0,271.75,31,0.75,Stimuli/P017/things_highchair_09s.jpg,0,0,0.0,0,119,119,119,,,,,,,,,,,,,268.0028820000007,0.002882000000681728,None,323.1878801999992,323.1878801999992,323.1878801999992,323.1878801999992,323.1878801999992,323.1878801999992,323.1878801999992,323.1878801999992,323.1878801999992,323.1878801999992,,009,P017,2025_Mar_07_1704,ConditionRich,2021.2.3,59.94276664674373,
271.75,272.0,41,0.0,Stimuli/Blank.png,0,0,0.0,0,120,120,120,,,,,,,,,,,,,271.7556463000001,0.005646300000080373,None,326.94119630000205,326.94119630000205,326.94119630000205,326.94119630000205,326.94119630000205,326.94119630000205,326.94119630000205,326.94119630000205,326.94119630000205,326.94119630000205,,009,P017,2025_Mar_07_1704,ConditionRich,2021.2.3,59.94276664674373,
272.0,275.75,5,0.75,Stimuli/P017/sun_apojgqgvdvsksdvo.jpg,0,0,0.0,0,121,121,121,,,,,,,,,,,,,272.006412499999,0.006412499998987187,None,327.1914214999997,327.1914214999997,327.1914214999997,327.1914214999997,327.1914214999997,327.1914214999997,327.1914214999997,327.1914214999997,327.1914214999997,327.1914214999997,,009,P017,2025_Mar_07_1704,ConditionRich,2021.2.3,59.94276664674373,
275.75,276.0,41,0.0,Stimuli/Blank.png,0,0,0.0,0,122,122,122,,,,,,,,,,,,,275.7625861999986,0.01258619999862276,None,330.96143570000277,330.96143570000277,330.96143570000277,330.96143570000277,330.96143570000277,330.96143570000277,330.96143570000277,330.96143570000277,330.96143570000277,330.96143570000277,,009,P017,2025_Mar_07_1704,ConditionRich,2021.2.3,59.94276664674373,
276.0,292.0,0,0.0,Stimuli/Blank.png,1,9,9.75,0,123,123,123,,,,,,,,,,,,,276.0268600999989,0.026860099998884834,1,331.21164300000237,331.21164300000237,331.21164300000237,331.21164300000237,331.21164300000237,331.21164300000237,340.2029235000009,340.9535762000014,331.21164300000237,331.21164300000237,9.454524300002959,009,P017,2025_Mar_07_1704,ConditionRich,2021.2.3,59.94276664674373,
292.0,295.75,7,0.75,Stimuli/P017/sun_auadhqmfjsjtjcue.jpg,0,0,0.0,0,124,124,124,,,,,,,,,,,,,292.0073928999991,0.0073928999991039746,None,347.19244069999695,347.19244069999695,347.19244069999695,347.19244069999695,347.19244069999695,347.19244069999695,347.19244069999695,347.19244069999695,347.19244069999695,347.19244069999695,,009,P017,2025_Mar_07_1704,ConditionRich,2021.2.3,59.94276664674373,
295.75,296.0,41,0.0,Stimuli/Blank.png,0,0,0.0,0,125,125,125,,,,,,,,,,,,,295.76191729999846,0.011917299998458475,None,350.94576660000166,350.94576660000166,350.94576660000166,350.94576660000166,350.94576660000166,350.94576660000166,350.94576660000166,350.94576660000166,350.94576660000166,350.94576660000166,,009,P017,2025_Mar_07_1704,ConditionRich,2021.2.3,59.94276664674373,
296.0,299.75,30,0.75,Stimuli/P017/things_girl_09s.jpg,0,0,0.0,0,126,126,126,,,,,,,,,,,,,296.01128679999965,0.01128679999965243,None,351.21273890000157,351.21273890000157,351.21273890000157,351.21273890000157,351.21273890000157,351.21273890000157,351.21273890000157,351.21273890000157,351.21273890000157,351.21273890000157,,009,P017,2025_Mar_07_1704,ConditionRich,2021.2.3,59.94276664674373,
299.75,300.0,41,0.0,Stimuli/Blank.png,0,0,0.0,0,127,127,127,,,,,,,,,,,,,299.7814408999984,0.03144089999841526,None,354.9659784000032,354.9659784000032,354.9659784000032,354.9659784000032,354.9659784000032,354.9659784000032,354.9659784000032,354.9659784000032,354.9659784000032,354.9659784000032,,009,P017,2025_Mar_07_1704,ConditionRich,2021.2.3,59.94276664674373,
300.0,303.75,1,0.75,Stimuli/P017/sun_aawmwfqqbzauhqkb.jpg,0,0,0.0,0,128,128,128,,,,,,,,,,,,,300.01388099999895,0.013880999998946209,None,355.21622840000055,355.21622840000055,355.21622840000055,355.21622840000055,355.21622840000055,355.21622840000055,355.21622840000055,355.21622840000055,355.21622840000055,355.21622840000055,,009,P017,2025_Mar_07_1704,ConditionRich,2021.2.3,59.94276664674373,
303.75,304.0,41,0.0,Stimuli/Blank.png,0,0,0.0,0,129,129,129,,,,,,,,,,,,,303.7678616999983,0.017861699998320546,None,358.95283290000225,358.95283290000225,358.95283290000225,358.95283290000225,358.95283290000225,358.95283290000225,358.95283290000225,358.95283290000225,358.95283290000225,358.95283290000225,,009,P017,2025_Mar_07_1704,ConditionRich,2021.2.3,59.94276664674373,
304.0,307.75,29,0.75,Stimuli/P017/things_face_09s.jpg,0,0,0.0,0,130,130,130,,,,,,,,,,,,,304.0014427999995,0.001442799999495037,None,359.20304469999974,359.20304469999974,359.20304469999974,359.20304469999974,359.20304469999974,359.20304469999974,359.20304469999974,359.20304469999974,359.20304469999974,359.20304469999974,,009,P017,2025_Mar_07_1704,ConditionRich,2021.2.3,59.94276664674373,
307.75,308.0,41,0.0,Stimuli/Blank.png,0,0,0.0,0,131,131,131,,,,,,,,,,,,,307.7713251000023,0.02132510000228649,None,362.95636809999996,362.95636809999996,362.95636809999996,362.95636809999996,362.95636809999996,362.95636809999996,362.95636809999996,362.95636809999996,362.95636809999996,362.95636809999996,,009,P017,2025_Mar_07_1704,ConditionRich,2021.2.3,59.94276664674373,
308.0,311.75,25,0.75,Stimuli/P017/things_cannonball_09s.jpg,0,0,0.0,0,132,132,132,,,,,,,,,,,,,308.0068051999988,0.006805199998780154,None,363.20658569999796,363.20658569999796,363.20658569999796,363.20658569999796,363.20658569999796,363.20658569999796,363.20658569999796,363.20658569999796,363.20658569999796,363.20658569999796,,009,P017,2025_Mar_07_1704,ConditionRich,2021.2.3,59.94276664674373,
311.75,312.0,41,0.0,Stimuli/Blank.png,0,0,0.0,0,133,133,133,,,,,,,,,,,,,311.77671949999785,0.026719499997852836,None,366.9765890999988,366.9765890999988,366.9765890999988,366.9765890999988,366.9765890999988,366.9765890999988,366.9765890999988,366.9765890999988,366.9765890999988,366.9765890999988,,009,P017,2025_Mar_07_1704,ConditionRich,2021.2.3,59.94276664674373,
312.0,315.75,23,0.75,Stimuli/P017/things_boy_09s.jpg,0,0,0.0,0,134,134,134,,,,,,,,,,,,,312.02716910000163,0.027169100001628976,None,367.22681880000164,367.22681880000164,367.22681880000164,367.22681880000164,367.22681880000164,367.22681880000164,367.22681880000164,367.22681880000164,367.22681880000164,367.22681880000164,,009,P017,2025_Mar_07_1704,ConditionRich,2021.2.3,59.94276664674373,
315.75,316.0,41,0.0,Stimuli/Blank.png,0,0,0.0,0,135,135,135,,,,,,,,,,,,,315.77776379999705,0.02776379999704659,None,370.9634975000008,370.9634975000008,370.9634975000008,370.9634975000008,370.9634975000008,370.9634975000008,370.9634975000008,370.9634975000008,370.9634975000008,370.9634975000008,,009,P017,2025_Mar_07_1704,ConditionRich,2021.2.3,59.94276664674373,
316.0,319.75,26,0.75,Stimuli/P017/things_chandelier_09s.jpg,1,2,2.75,0,136,136,136,,,,,,,,,,,,,316.01266549999855,0.012665499998547602,1,371.1969800000006,371.1969800000006,371.1969800000006,371.1969800000006,371.1969800000006,371.1969800000006,373.1820596000034,373.9327237999969,371.1969800000006,371.1969800000006,2.43820670000423,009,P017,2025_Mar_07_1704,ConditionRich,2021.2.3,59.94276664674373,
319.75,320.0,41,0.0,Stimuli/Blank.png,0,0,0.0,0,137,137,137,,,,,,,,,,,,,319.7477826999966,-0.0022173000033944845,None,374.93361449999793,374.93361449999793,374.93361449999793,374.93361449999793,374.93361449999793,374.93361449999793,374.93361449999793,374.93361449999793,374.93361449999793,374.93361449999793,,009,P017,2025_Mar_07_1704,ConditionRich,2021.2.3,59.94276664674373,
320.0,323.75,22,0.75,Stimuli/P017/things_boat_09s.jpg,0,0,0.0,0,138,138,138,,,,,,,,,,,,,320.0168030999994,0.0168030999993789,None,375.2172064999977,375.2172064999977,375.2172064999977,375.2172064999977,375.2172064999977,375.2172064999977,375.2172064999977,375.2172064999977,375.2172064999977,375.2172064999977,,009,P017,2025_Mar_07_1704,ConditionRich,2021.2.3,59.94276664674373,
323.75,324.0,41,0.0,Stimuli/Blank.png,0,0,0.0,0,139,139,139,,,,,,,,,,,,,323.7688934999969,0.018893499996920582,None,378.9538410000023,378.9538410000023,378.9538410000023,378.9538410000023,378.9538410000023,378.9538410000023,378.9538410000023,378.9538410000023,378.9538410000023,378.9538410000023,,009,P017,2025_Mar_07_1704,ConditionRich,2021.2.3,59.94276664674373,
324.0,327.75,37,0.75,Stimuli/P017/things_plastic_film_09s.jpg,0,0,0.0,0,140,140,140,,,,,,,,,,,,,324.0024024000013,0.00240240000130143,None,379.20405780000146,379.20405780000146,379.20405780000146,379.20405780000146,379.20405780000146,379.20405780000146,379.20405780000146,379.20405780000146,379.20405780000146,379.20405780000146,,009,P017,2025_Mar_07_1704,ConditionRich,2021.2.3,59.94276664674373,
327.75,328.0,41,0.0,Stimuli/Blank.png,0,0,0.0,0,141,141,141,,,,,,,,,,,,,327.7720821999974,0.022082199997385032,None,382.9573722999994,382.9573722999994,382.9573722999994,382.9573722999994,382.9573722999994,382.9573722999994,382.9573722999994,382.9573722999994,382.9573722999994,382.9573722999994,,009,P017,2025_Mar_07_1704,ConditionRich,2021.2.3,59.94276664674373,
328.0,331.75,40,0.75,Stimuli/P017/things_woman_09s.jpg,0,0,0.0,0,142,142,142,,,,,,,,,,,,,328.00763839999854,0.00763839999854099,None,383.20759949999774,383.20759949999774,383.20759949999774,383.20759949999774,383.20759949999774,383.20759949999774,383.20759949999774,383.20759949999774,383.20759949999774,383.20759949999774,,009,P017,2025_Mar_07_1704,ConditionRich,2021.2.3,59.94276664674373,
331.75,332.0,41,0.0,Stimuli/Blank.png,0,0,0.0,0,143,143,143,,,,,,,,,,,,,331.7759980999981,0.025998099998105317,None,386.9609148000018,386.9609148000018,386.9609148000018,386.9609148000018,386.9609148000018,386.9609148000018,386.9609148000018,386.9609148000018,386.9609148000018,386.9609148000018,,009,P017,2025_Mar_07_1704,ConditionRich,2021.2.3,59.94276664674373,
332.0,335.75,9,0.75,Stimuli/P017/sun_ayidxslzurdumeps.jpg,1,3,3.75,0,144,144,144,,,,,,,,,,,,,332.0118360999986,0.01183609999861801,None,387.21114410000155,387.21114410000155,387.21114410000155,387.21114410000155,387.21114410000155,387.21114410000155,390.1971212999997,390.9477426000012,387.21114410000155,387.21114410000155,,009,P017,2025_Mar_07_1704,ConditionRich,2021.2.3,59.94276664674373,
335.75,336.0,41,0.0,Stimuli/Blank.png,0,0,0.0,0,145,145,145,,,,,,,,,,,,,335.77928699999757,0.029286999997566454,None,390.964427400002,390.964427400002,390.964427400002,390.964427400002,390.964427400002,390.964427400002,390.964427400002,390.964427400002,390.964427400002,390.964427400002,,009,P017,2025_Mar_07_1704,ConditionRich,2021.2.3,59.94276664674373,
336.0,339.75,32,0.75,Stimuli/P017/things_horse_09s.jpg,1,1,1.75,0,146,146,146,,,,,,,,,,,,,336.0128962000017,0.012896200001705438,None,391.19799760000024,391.19799760000024,391.19799760000024,391.19799760000024,391.19799760000024,391.19799760000024,392.1821968000004,392.93292089999886,391.19799760000024,391.19799760000024,,009,P017,2025_Mar_07_1704,ConditionRich,2021.2.3,59.94276664674373,
339.75,340.0,41,0.0,Stimuli/Blank.png,0,0,0.0,0,147,147,147,,,,,,,,,,,,,339.75143319999916,0.0014331999991554767,None,394.95137409999734,394.95137409999734,394.95137409999734,394.95137409999734,394.95137409999734,394.95137409999734,394.95137409999734,394.95137409999734,394.95137409999734,394.95137409999734,,009,P017,2025_Mar_07_1704,ConditionRich,2021.2.3,59.94276664674373,
340.0,343.75,13,0.75,Stimuli/P017/sun_bizqwyomkqigheyx.jpg,0,0,0.0,0,148,148,148,,,,,,,,,,,,,340.0174421999982,0.01744219999818597,None,395.2182298999978,395.2182298999978,395.2182298999978,395.2182298999978,395.2182298999978,395.2182298999978,395.2182298999978,395.2182298999978,395.2182298999978,395.2182298999978,,009,P017,2025_Mar_07_1704,ConditionRich,2021.2.3,59.94276664674373,
343.75,344.0,41,0.0,Stimuli/Blank.png,0,0,0.0,0,149,149,149,,,,,,,,,,,,,343.7717945999975,0.02179459999751998,None,398.97154279999813,398.97154279999813,398.97154279999813,398.97154279999813,398.97154279999813,398.97154279999813,398.97154279999813,398.97154279999813,398.97154279999813,398.97154279999813,,009,P017,2025_Mar_07_1704,ConditionRich,2021.2.3,59.94276664674373,
344.0,347.75,21,0.75,Stimuli/P017/things_baby_09s.jpg,0,0,0.0,0,150,150,150,,,,,,,,,,,,,344.0218277000022,0.021827700002177153,None,399.2217612000022,399.2217612000022,399.2217612000022,399.2217612000022,399.2217612000022,399.2217612000022,399.2217612000022,399.2217612000022,399.2217612000022,399.2217612000022,,009,P017,2025_Mar_07_1704,ConditionRich,2021.2.3,59.94276664674373,
347.75,348.0,41,0.0,Stimuli/Blank.png,0,0,0.0,0,151,151,151,,,,,,,,,,,,,347.77272670000093,0.022726700000930578,None,402.9583821999986,402.9583821999986,402.9583821999986,402.9583821999986,402.9583821999986,402.9583821999986,402.9583821999986,402.9583821999986,402.9583821999986,402.9583821999986,,009,P017,2025_Mar_07_1704,ConditionRich,2021.2.3,59.94276664674373,
348.0,351.75,35,0.75,Stimuli/P017/things_lobster_09s.jpg,1,3,3.75,0,152,152,152,,,,,,,,,,,,,348.0075338999959,0.007533899995905813,1,403.2086285999976,403.2086285999976,403.2086285999976,403.2086285999976,403.2086285999976,403.2086285999976,406.1779441000035,406.92856239999674,403.2086285999976,403.2086285999976,3.374922399998468,009,P017,2025_Mar_07_1704,ConditionRich,2021.2.3,59.94276664674373,
351.75,352.0,41,0.0,Stimuli/Blank.png,0,0,0.0,0,153,153,153,,,,,,,,,,,,,351.77691799999593,0.026917999995930586,None,406.96193700000003,406.96193700000003,406.96193700000003,406.96193700000003,406.96193700000003,406.96193700000003,406.96193700000003,406.96193700000003,406.96193700000003,406.96193700000003,,009,P017,2025_Mar_07_1704,ConditionRich,2021.2.3,59.94276664674373,
352.0,355.75,19,0.75,Stimuli/P017/sun_brrwzaypucosdcgt.jpg,0,0,0.0,0,154,154,154,,,,,,,,,,,,,352.0127938000005,0.012793800000508782,None,407.21215120000124,407.21215120000124,407.21215120000124,407.21215120000124,407.21215120000124,407.21215120000124,407.21215120000124,407.21215120000124,407.21215120000124,407.21215120000124,,009,P017,2025_Mar_07_1704,ConditionRich,2021.2.3,59.94276664674373,
355.75,356.0,41,0.0,Stimuli/Blank.png,0,0,0.0,0,155,155,155,,,,,,,,,,,,,355.7630685999975,0.013068599997495767,None,410.9487861000016,410.9487861000016,410.9487861000016,410.9487861000016,410.9487861000016,410.9487861000016,410.9487861000016,410.9487861000016,410.9487861000016,410.9487861000016,,009,P017,2025_Mar_07_1704,ConditionRich,2021.2.3,59.94276664674373,
356.0,359.75,18,0.75,Stimuli/P017/sun_brrvvswweljrvnlq.jpg,0,0,0.0,0,156,156,156,,,,,,,,,,,,,356.014084800001,0.014084800001000986,None,411.21569389999786,411.21569389999786,411.21569389999786,411.21569389999786,411.21569389999786,411.21569389999786,411.21569389999786,411.21569389999786,411.21569389999786,411.21569389999786,,009,P017,2025_Mar_07_1704,ConditionRich,2021.2.3,59.94276664674373,
359.75,360.0,41,0.0,Stimuli/Blank.png,0,0,0.0,0,157,157,157,,,,,,,,,,,,,359.7673292999971,0.017329299997072667,None,414.95232620000024,414.95232620000024,414.95232620000024,414.95232620000024,414.95232620000024,414.95232620000024,414.95232620000024,414.95232620000024,414.95232620000024,414.95232620000024,,009,P017,2025_Mar_07_1704,ConditionRich,2021.2.3,59.94276664674373,
360.0,363.75,3,0.75,Stimuli/P017/sun_acymmczhyuiimeub.jpg,1,2,2.75,0,158,158,158,,,,,,,,,,,,,360.00262649999786,0.002626499997859355,1,415.2025483000034,415.2025483000034,415.2025483000034,415.2025483000034,415.2025483000034,415.2025483000034,417.18767189999926,417.93827160000365,415.2025483000034,415.2025483000034,2.3448410000055446,009,P017,2025_Mar_07_1704,ConditionRich,2021.2.3,59.94276664674373,
363.75,364.0,41,0.0,Stimuli/Blank.png,0,0,0.0,0,159,159,159,,,,,,,,,,,,,363.7709465000007,0.020946500000718515,None,418.95586229999753,418.95586229999753,418.95586229999753,418.95586229999753,418.95586229999753,418.95586229999753,418.95586229999753,418.95586229999753,418.95586229999753,418.95586229999753,,009,P017,2025_Mar_07_1704,ConditionRich,2021.2.3,59.94276664674373,
364.0,367.75,8,0.75,Stimuli/P017/sun_axsmqyyvebrcuhkn.jpg,0,0,0.0,0,160,160,160,,,,,,,,,,,,,364.00679279999895,0.006792799998947885,None,419.2060874000017,419.2060874000017,419.2060874000017,419.2060874000017,419.2060874000017,419.2060874000017,419.2060874000017,419.2060874000017,419.2060874000017,419.2060874000017,,009,P017,2025_Mar_07_1704,ConditionRich,2021.2.3,59.94276664674373,
367.75,368.0,41,0.0,Stimuli/Blank.png,0,0,0.0,0,161,161,161,,,,,,,,,,,,,367.77688679999846,0.026886799998464994,None,422.9760926000017,422.9760926000017,422.9760926000017,422.9760926000017,422.9760926000017,422.9760926000017,422.9760926000017,422.9760926000017,422.9760926000017,422.9760926000017,,009,P017,2025_Mar_07_1704,ConditionRich,2021.2.3,59.94276664674373,
368.0,371.75,24,0.75,Stimuli/P017/things_breadbox_09s.jpg,0,0,0.0,0,162,162,162,,,,,,,,,,,,,368.0242947000006,0.024294700000609737,None,423.2096187999996,423.2096187999996,423.2096187999996,423.2096187999996,423.2096187999996,423.2096187999996,423.2096187999996,423.2096187999996,423.2096187999996,423.2096187999996,,009,P017,2025_Mar_07_1704,ConditionRich,2021.2.3,59.94276664674373,
371.75,372.0,41,0.0,Stimuli/Blank.png,0,0,0.0,0,163,163,163,,,,,,,,,,,,,371.76149859999714,0.011498599997139536,None,426.94626699999935,426.94626699999935,426.94626699999935,426.94626699999935,426.94626699999935,426.94626699999935,426.94626699999935,426.94626699999935,426.94626699999935,426.94626699999935,,009,P017,2025_Mar_07_1704,ConditionRich,2021.2.3,59.94276664674373,
372.0,388.0,0,0.0,Stimuli/Blank.png,1,2,2.75,0,164,164,164,,,,,,,,,,,,,372.01226779999706,0.012267799997061957,1,427.196483599997,427.196483599997,427.196483599997,427.196483599997,427.196483599997,427.196483599997,429.18157639999845,429.9322272999998,427.196483599997,427.196483599997,2.381728899999871,009,P017,2025_Mar_07_1704,ConditionRich,2021.2.3,59.94276664674373,
