eventStartTime,eventEndTime,eventCond,imSize,imFile,responseEvent,fixRespStart,fixRespEnd,Events.thisRepN,Events.thisTrialN,Events.thisN,Events.thisIndex,Instructions.started,Instructions.stopped,participantReadyResponse.keys,participantReadyResponse.rt,participantReadyResponse.started,participantReadyResponse.stopped,startWaitforTrigger,triggerResponse.keys,triggerResponse.rt,triggerResponse.started,triggerResponse.stopped,globalTimer,actualStartTime,startTimingDiff,participantResponse.keys,participantResponse.started,participantResponse.stopped,image.started,image.stopped,fixationOutside.started,fixationOutside.stopped,fixationResponse.started,fixationResponse.stopped,fixationInside.started,fixationInside.stopped,participantResponse.rt,session,participant,date,expName,psychopyVersion,frameRate,
,,,,,,,,,,,,11.825024100002338,None,1,17.740311200002907,11.825024100002338,None,,,,,,,,,,,,,,,,,,,,,007,P017,2025_Mar_07_1649,ConditionRich,2021.2.3,59.92714058275474,
,,,,,,,,,,,,,,,,,,29.58189990000028,5,15.00772440000219,29.595270800000435,None,,,,,,,,,,,,,,,,007,P017,2025_Mar_07_1649,ConditionRich,2021.2.3,59.92714058275474,
0.0,4.0,0,0.0,Stimuli/Blank.png,0,0,0.0,0,0,0,0,,,,,,,,,,,,44.61247640000147,0.03924170000027516,0.03924170000027516,None,44.675115000001824,None,44.675115000001824,None,44.675115000001824,None,44.675115000001824,44.675115000001824,44.675115000001824,None,,007,P017,2025_Mar_07_1649,ConditionRich,2021.2.3,59.92714058275474,
4.0,4.75,15,0.75,Stimuli/P017/sun_bobznlnnzwznersx.jpg,0,0,0.0,0,1,1,1,,,,,,,,,,,,,4.021498199999769,0.021498199999768985,None,48.6622380000008,48.6622380000008,48.6622380000008,48.6622380000008,48.6622380000008,48.6622380000008,48.6622380000008,48.6622380000008,48.6622380000008,48.6622380000008,,007,P017,2025_Mar_07_1649,ConditionRich,2021.2.3,59.92714058275474,
4.75,5.0,41,0.0,Stimuli/Blank.png,0,0,0.0,0,2,2,2,,,,,,,,,,,,,4.769089199999144,0.019089199999143602,None,49.396211800001765,49.396211800001765,49.396211800001765,49.396211800001765,49.396211800001765,49.396211800001765,49.396211800001765,49.396211800001765,49.396211800001765,49.396211800001765,,007,P017,2025_Mar_07_1649,ConditionRich,2021.2.3,59.92714058275474,
5.0,5.75,15,0.75,Stimuli/P017/sun_bobznlnnzwznersx.jpg,0,0,0.0,0,3,3,3,,,,,,,,,,,,,5.003738700001122,0.003738700001122197,None,49.64616540000134,49.64616540000134,49.64616540000134,49.64616540000134,49.64616540000134,49.64616540000134,49.64616540000134,49.64616540000134,49.64616540000134,49.64616540000134,,007,P017,2025_Mar_07_1649,ConditionRich,2021.2.3,59.92714058275474,
5.75,6.0,41,0.0,Stimuli/Blank.png,0,0,0.0,0,4,4,4,,,,,,,,,,,,,5.7697101999983715,0.019710199998371536,None,50.39683409999998,50.39683409999998,50.39683409999998,50.39683409999998,50.39683409999998,50.39683409999998,50.39683409999998,50.39683409999998,50.39683409999998,50.39683409999998,,007,P017,2025_Mar_07_1649,ConditionRich,2021.2.3,59.92714058275474,
6.0,6.75,15,0.75,Stimuli/P017/sun_bobznlnnzwznersx.jpg,0,0,0.0,0,5,5,5,,,,,,,,,,,,,6.004164800000581,0.004164800000580726,None,50.64709350000339,50.64709350000339,50.64709350000339,50.64709350000339,50.64709350000339,50.64709350000339,50.64709350000339,50.64709350000339,50.64709350000339,50.64709350000339,,007,P017,2025_Mar_07_1649,ConditionRich,2021.2.3,59.92714058275474,
6.75,7.0,41,0.0,Stimuli/Blank.png,0,0,0.0,0,6,6,6,,,,,,,,,,,,,6.773103700001229,0.0231037000012293,None,51.41441810000106,51.41441810000106,51.41441810000106,51.41441810000106,51.41441810000106,51.41441810000106,51.41441810000106,51.41441810000106,51.41441810000106,51.41441810000106,,007,P017,2025_Mar_07_1649,ConditionRich,2021.2.3,59.92714058275474,
7.0,7.75,15,0.75,Stimuli/P017/sun_bobznlnnzwznersx.jpg,0,0,0.0,0,7,7,7,,,,,,,,,,,,,7.023141699999542,0.023141699999541743,None,51.66462769999998,51.66462769999998,51.66462769999998,51.66462769999998,51.66462769999998,51.66462769999998,51.66462769999998,51.66462769999998,51.66462769999998,51.66462769999998,,007,P017,2025_Mar_07_1649,ConditionRich,2021.2.3,59.92714058275474,
7.75,8.0,41,0.0,Stimuli/Blank.png,0,0,0.0,0,8,8,8,,,,,,,,,,,,,7.772721199999069,0.02272119999906863,None,52.398611400003574,52.398611400003574,52.398611400003574,52.398611400003574,52.398611400003574,52.398611400003574,52.398611400003574,52.398611400003574,52.398611400003574,52.398611400003574,,007,P017,2025_Mar_07_1649,ConditionRich,2021.2.3,59.92714058275474,
8.0,8.75,9,0.75,Stimuli/P017/sun_ayidxslzurdumeps.jpg,1,0,0.75,0,9,9,9,,,,,,,,,,,,,8.005068499998742,0.005068499998742482,1,52.632140900001104,52.632140900001104,52.632140900001104,52.632140900001104,52.632140900001104,52.632140900001104,52.632140900001104,53.366164500002924,52.632140900001104,52.632140900001104,0.46484050000071875,007,P017,2025_Mar_07_1649,ConditionRich,2021.2.3,59.92714058275474,
8.75,9.0,41,0.0,Stimuli/Blank.png,0,0,0.0,0,10,10,10,,,,,,,,,,,,,8.758410300000833,0.008410300000832649,None,53.39949500000148,53.39949500000148,53.39949500000148,53.39949500000148,53.39949500000148,53.39949500000148,53.39949500000148,53.39949500000148,53.39949500000148,53.39949500000148,,007,P017,2025_Mar_07_1649,ConditionRich,2021.2.3,59.92714058275474,
9.0,9.75,9,0.75,Stimuli/P017/sun_ayidxslzurdumeps.jpg,0,0,0.0,0,11,11,11,,,,,,,,,,,,,9.023258299999725,0.02325829999972484,None,53.66641030000028,53.66641030000028,53.66641030000028,53.66641030000028,53.66641030000028,53.66641030000028,53.66641030000028,53.66641030000028,53.66641030000028,53.66641030000028,,007,P017,2025_Mar_07_1649,ConditionRich,2021.2.3,59.92714058275474,
9.75,10.0,41,0.0,Stimuli/Blank.png,0,0,0.0,0,12,12,12,,,,,,,,,,,,,9.773922899999889,0.023922899999888614,None,54.400375400000485,54.400375400000485,54.400375400000485,54.400375400000485,54.400375400000485,54.400375400000485,54.400375400000485,54.400375400000485,54.400375400000485,54.400375400000485,,007,P017,2025_Mar_07_1649,ConditionRich,2021.2.3,59.92714058275474,
10.0,10.75,9,0.75,Stimuli/P017/sun_ayidxslzurdumeps.jpg,0,0,0.0,0,13,13,13,,,,,,,,,,,,,10.007483900000807,0.007483900000806898,None,54.63391690000208,54.63391690000208,54.63391690000208,54.63391690000208,54.63391690000208,54.63391690000208,54.63391690000208,54.63391690000208,54.63391690000208,54.63391690000208,,007,P017,2025_Mar_07_1649,ConditionRich,2021.2.3,59.92714058275474,
10.75,11.0,41,0.0,Stimuli/Blank.png,0,0,0.0,0,14,14,14,,,,,,,,,,,,,10.75919419999991,0.00919419999991078,None,55.38458930000343,55.38458930000343,55.38458930000343,55.38458930000343,55.38458930000343,55.38458930000343,55.38458930000343,55.38458930000343,55.38458930000343,55.38458930000343,,007,P017,2025_Mar_07_1649,ConditionRich,2021.2.3,59.92714058275474,
11.0,11.75,9,0.75,Stimuli/P017/sun_ayidxslzurdumeps.jpg,0,0,0.0,0,15,15,15,,,,,,,,,,,,,11.007659999999305,0.0076599999993050005,None,55.63478380000015,55.63478380000015,55.63478380000015,55.63478380000015,55.63478380000015,55.63478380000015,55.63478380000015,55.63478380000015,55.63478380000015,55.63478380000015,,007,P017,2025_Mar_07_1649,ConditionRich,2021.2.3,59.92714058275474,
11.75,12.0,41,0.0,Stimuli/Blank.png,0,0,0.0,0,16,16,16,,,,,,,,,,,,,11.75831929999913,0.008319299999129726,None,56.38546550000319,56.38546550000319,56.38546550000319,56.38546550000319,56.38546550000319,56.38546550000319,56.38546550000319,56.38546550000319,56.38546550000319,56.38546550000319,,007,P017,2025_Mar_07_1649,ConditionRich,2021.2.3,59.92714058275474,
12.0,12.75,7,0.75,Stimuli/P017/sun_auadhqmfjsjtjcue.jpg,0,0,0.0,0,17,17,17,,,,,,,,,,,,,12.009586500000296,0.009586500000295928,None,56.65238270000191,56.65238270000191,56.65238270000191,56.65238270000191,56.65238270000191,56.65238270000191,56.65238270000191,56.65238270000191,56.65238270000191,56.65238270000191,,007,P017,2025_Mar_07_1649,ConditionRich,2021.2.3,59.92714058275474,
12.75,13.0,41,0.0,Stimuli/Blank.png,0,0,0.0,0,18,18,18,,,,,,,,,,,,,12.776583499999106,0.026583499999105697,None,57.403082700002415,57.403082700002415,57.403082700002415,57.403082700002415,57.403082700002415,57.403082700002415,57.403082700002415,57.403082700002415,57.403082700002415,57.403082700002415,,007,P017,2025_Mar_07_1649,ConditionRich,2021.2.3,59.92714058275474,
13.0,13.75,7,0.75,Stimuli/P017/sun_auadhqmfjsjtjcue.jpg,0,0,0.0,0,19,19,19,,,,,,,,,,,,,13.010436699998536,0.010436699998535914,None,57.65325080000184,57.65325080000184,57.65325080000184,57.65325080000184,57.65325080000184,57.65325080000184,57.65325080000184,57.65325080000184,57.65325080000184,57.65325080000184,,007,P017,2025_Mar_07_1649,ConditionRich,2021.2.3,59.92714058275474,
13.75,14.0,41,0.0,Stimuli/Blank.png,0,0,0.0,0,20,20,20,,,,,,,,,,,,,13.77785589999985,0.0278558999998495,None,58.40393160000167,58.40393160000167,58.40393160000167,58.40393160000167,58.40393160000167,58.40393160000167,58.40393160000167,58.40393160000167,58.40393160000167,58.40393160000167,,007,P017,2025_Mar_07_1649,ConditionRich,2021.2.3,59.92714058275474,
14.0,14.75,7,0.75,Stimuli/P017/sun_auadhqmfjsjtjcue.jpg,0,0,0.0,0,21,21,21,,,,,,,,,,,,,14.01031189999776,0.01031189999775961,None,58.654163700000936,58.654163700000936,58.654163700000936,58.654163700000936,58.654163700000936,58.654163700000936,58.654163700000936,58.654163700000936,58.654163700000936,58.654163700000936,,007,P017,2025_Mar_07_1649,ConditionRich,2021.2.3,59.92714058275474,
14.75,15.0,41,0.0,Stimuli/Blank.png,0,0,0.0,0,22,22,22,,,,,,,,,,,,,14.778895399998873,0.028895399998873472,None,59.40481050000017,59.40481050000017,59.40481050000017,59.40481050000017,59.40481050000017,59.40481050000017,59.40481050000017,59.40481050000017,59.40481050000017,59.40481050000017,,007,P017,2025_Mar_07_1649,ConditionRich,2021.2.3,59.92714058275474,
15.0,15.75,7,0.75,Stimuli/P017/sun_auadhqmfjsjtjcue.jpg,0,0,0.0,0,23,23,23,,,,,,,,,,,,,15.013468000001012,0.013468000001012115,None,59.65501850000146,59.65501850000146,59.65501850000146,59.65501850000146,59.65501850000146,59.65501850000146,59.65501850000146,59.65501850000146,59.65501850000146,59.65501850000146,,007,P017,2025_Mar_07_1649,ConditionRich,2021.2.3,59.92714058275474,
15.75,16.0,41,0.0,Stimuli/Blank.png,0,0,0.0,0,24,24,24,,,,,,,,,,,,,15.77856249999968,0.028562499999679858,None,60.40567640000154,60.40567640000154,60.40567640000154,60.40567640000154,60.40567640000154,60.40567640000154,60.40567640000154,60.40567640000154,60.40567640000154,60.40567640000154,,007,P017,2025_Mar_07_1649,ConditionRich,2021.2.3,59.92714058275474,
16.0,16.75,27,0.75,Stimuli/P017/things_coffin_09s.jpg,0,0,0.0,0,25,25,25,,,,,,,,,,,,,16.013426999998046,0.013426999998046085,None,60.65593560000343,60.65593560000343,60.65593560000343,60.65593560000343,60.65593560000343,60.65593560000343,60.65593560000343,60.65593560000343,60.65593560000343,60.65593560000343,,007,P017,2025_Mar_07_1649,ConditionRich,2021.2.3,59.92714058275474,
16.75,17.0,41,0.0,Stimuli/Blank.png,0,0,0.0,0,26,26,26,,,,,,,,,,,,,16.780363800000487,0.030363800000486663,None,61.40665030000309,61.40665030000309,61.40665030000309,61.40665030000309,61.40665030000309,61.40665030000309,61.40665030000309,61.40665030000309,61.40665030000309,61.40665030000309,,007,P017,2025_Mar_07_1649,ConditionRich,2021.2.3,59.92714058275474,
17.0,17.75,27,0.75,Stimuli/P017/things_coffin_09s.jpg,0,0,0.0,0,27,27,27,,,,,,,,,,,,,17.014562799999112,0.01456279999911203,None,61.65679170000294,61.65679170000294,61.65679170000294,61.65679170000294,61.65679170000294,61.65679170000294,61.65679170000294,61.65679170000294,61.65679170000294,61.65679170000294,,007,P017,2025_Mar_07_1649,ConditionRich,2021.2.3,59.92714058275474,
17.75,18.0,41,0.0,Stimuli/Blank.png,0,0,0.0,0,28,28,28,,,,,,,,,,,,,17.782991299998685,0.03299129999868455,None,62.424139200000354,62.424139200000354,62.424139200000354,62.424139200000354,62.424139200000354,62.424139200000354,62.424139200000354,62.424139200000354,62.424139200000354,62.424139200000354,,007,P017,2025_Mar_07_1649,ConditionRich,2021.2.3,59.92714058275474,
18.0,18.75,27,0.75,Stimuli/P017/things_coffin_09s.jpg,1,0,0.75,0,29,29,29,,,,,,,,,,,,,18.01399769999989,0.013997699999890756,1,62.64099000000351,62.64099000000351,62.64099000000351,62.64099000000351,62.64099000000351,62.64099000000351,62.64099000000351,63.37496900000042,62.64099000000351,62.64099000000351,0.35799190000034287,007,P017,2025_Mar_07_1649,ConditionRich,2021.2.3,59.92714058275474,
18.75,19.0,41,0.0,Stimuli/Blank.png,0,0,0.0,0,30,30,30,,,,,,,,,,,,,18.765107700000954,0.015107700000953628,None,63.39165650000359,63.39165650000359,63.39165650000359,63.39165650000359,63.39165650000359,63.39165650000359,63.39165650000359,63.39165650000359,63.39165650000359,63.39165650000359,,007,P017,2025_Mar_07_1649,ConditionRich,2021.2.3,59.92714058275474,
19.0,19.75,27,0.75,Stimuli/P017/things_coffin_09s.jpg,0,0,0.0,0,31,31,31,,,,,,,,,,,,,19.015647699998226,0.015647699998226017,None,63.658575100002054,63.658575100002054,63.658575100002054,63.658575100002054,63.658575100002054,63.658575100002054,63.658575100002054,63.658575100002054,63.658575100002054,63.658575100002054,,007,P017,2025_Mar_07_1649,ConditionRich,2021.2.3,59.92714058275474,
19.75,20.0,41,0.0,Stimuli/Blank.png,0,0,0.0,0,32,32,32,,,,,,,,,,,,,19.766268799998215,0.0162687999982154,None,64.39256310000201,64.39256310000201,64.39256310000201,64.39256310000201,64.39256310000201,64.39256310000201,64.39256310000201,64.39256310000201,64.39256310000201,64.39256310000201,,007,P017,2025_Mar_07_1649,ConditionRich,2021.2.3,59.92714058275474,
20.0,20.75,17,0.75,Stimuli/P017/sun_brhndfjxyigqgiwl.jpg,0,0,0.0,0,33,33,33,,,,,,,,,,,,,19.999003799999628,-0.0009962000003724825,None,64.62607070000013,64.62607070000013,64.62607070000013,64.62607070000013,64.62607070000013,64.62607070000013,64.62607070000013,64.62607070000013,64.62607070000013,64.62607070000013,,007,P017,2025_Mar_07_1649,ConditionRich,2021.2.3,59.92714058275474,
20.75,21.0,41,0.0,Stimuli/Blank.png,0,0,0.0,0,34,34,34,,,,,,,,,,,,,20.750562000001082,0.0005620000010821968,None,65.37680739999996,65.37680739999996,65.37680739999996,65.37680739999996,65.37680739999996,65.37680739999996,65.37680739999996,65.37680739999996,65.37680739999996,65.37680739999996,,007,P017,2025_Mar_07_1649,ConditionRich,2021.2.3,59.92714058275474,
21.0,21.75,17,0.75,Stimuli/P017/sun_brhndfjxyigqgiwl.jpg,0,0,0.0,0,35,35,35,,,,,,,,,,,,,21.002899799997977,0.0028997999979765154,None,65.64364870000281,65.64364870000281,65.64364870000281,65.64364870000281,65.64364870000281,65.64364870000281,65.64364870000281,65.64364870000281,65.64364870000281,65.64364870000281,,007,P017,2025_Mar_07_1649,ConditionRich,2021.2.3,59.92714058275474,
21.75,22.0,41,0.0,Stimuli/Blank.png,0,0,0.0,0,36,36,36,,,,,,,,,,,,,21.767858700000943,0.017858700000942918,None,66.39430450000145,66.39430450000145,66.39430450000145,66.39430450000145,66.39430450000145,66.39430450000145,66.39430450000145,66.39430450000145,66.39430450000145,66.39430450000145,,007,P017,2025_Mar_07_1649,ConditionRich,2021.2.3,59.92714058275474,
22.0,22.75,17,0.75,Stimuli/P017/sun_brhndfjxyigqgiwl.jpg,0,0,0.0,0,37,37,37,,,,,,,,,,,,,22.0033016999987,0.003301699998701224,None,66.64453450000292,66.64453450000292,66.64453450000292,66.64453450000292,66.64453450000292,66.64453450000292,66.64453450000292,66.64453450000292,66.64453450000292,66.64453450000292,,007,P017,2025_Mar_07_1649,ConditionRich,2021.2.3,59.92714058275474,
22.75,23.0,41,0.0,Stimuli/Blank.png,0,0,0.0,0,38,38,38,,,,,,,,,,,,,22.768918400000985,0.018918400000984548,None,67.395188100003,67.395188100003,67.395188100003,67.395188100003,67.395188100003,67.395188100003,67.395188100003,67.395188100003,67.395188100003,67.395188100003,,007,P017,2025_Mar_07_1649,ConditionRich,2021.2.3,59.92714058275474,
23.0,23.75,17,0.75,Stimuli/P017/sun_brhndfjxyigqgiwl.jpg,0,0,0.0,0,39,39,39,,,,,,,,,,,,,23.002375399999437,0.0023753999994369224,None,67.64541050000116,67.64541050000116,67.64541050000116,67.64541050000116,67.64541050000116,67.64541050000116,67.64541050000116,67.64541050000116,67.64541050000116,67.64541050000116,,007,P017,2025_Mar_07_1649,ConditionRich,2021.2.3,59.92714058275474,
23.75,24.0,41,0.0,Stimuli/Blank.png,0,0,0.0,0,40,40,40,,,,,,,,,,,,,23.76978709999821,0.019787099998211488,None,68.39608450000014,68.39608450000014,68.39608450000014,68.39608450000014,68.39608450000014,68.39608450000014,68.39608450000014,68.39608450000014,68.39608450000014,68.39608450000014,,007,P017,2025_Mar_07_1649,ConditionRich,2021.2.3,59.92714058275474,
24.0,24.75,6,0.75,Stimuli/P017/sun_atuyvunnykjurjgx.jpg,0,0,0.0,0,41,41,41,,,,,,,,,,,,,24.002519599998777,0.0025195999987772666,None,68.62961520000317,68.62961520000317,68.62961520000317,68.62961520000317,68.62961520000317,68.62961520000317,68.62961520000317,68.62961520000317,68.62961520000317,68.62961520000317,,007,P017,2025_Mar_07_1649,ConditionRich,2021.2.3,59.92714058275474,
24.75,25.0,41,0.0,Stimuli/Blank.png,0,0,0.0,0,42,42,42,,,,,,,,,,,,,24.753823600000032,0.0038236000000324566,None,69.38028700000359,69.38028700000359,69.38028700000359,69.38028700000359,69.38028700000359,69.38028700000359,69.38028700000359,69.38028700000359,69.38028700000359,69.38028700000359,,007,P017,2025_Mar_07_1649,ConditionRich,2021.2.3,59.92714058275474,
25.0,25.75,6,0.75,Stimuli/P017/sun_atuyvunnykjurjgx.jpg,0,0,0.0,0,43,43,43,,,,,,,,,,,,,25.004119500001252,0.004119500001252163,None,69.63050270000167,69.63050270000167,69.63050270000167,69.63050270000167,69.63050270000167,69.63050270000167,69.63050270000167,69.63050270000167,69.63050270000167,69.63050270000167,,007,P017,2025_Mar_07_1649,ConditionRich,2021.2.3,59.92714058275474,
25.75,26.0,41,0.0,Stimuli/Blank.png,0,0,0.0,0,44,44,44,,,,,,,,,,,,,25.75477619999947,0.0047761999994691,None,70.38115749999997,70.38115749999997,70.38115749999997,70.38115749999997,70.38115749999997,70.38115749999997,70.38115749999997,70.38115749999997,70.38115749999997,70.38115749999997,,007,P017,2025_Mar_07_1649,ConditionRich,2021.2.3,59.92714058275474,
26.0,26.75,6,0.75,Stimuli/P017/sun_atuyvunnykjurjgx.jpg,0,0,0.0,0,45,45,45,,,,,,,,,,,,,26.00438419999773,0.00438419999773032,None,70.6314087000028,70.6314087000028,70.6314087000028,70.6314087000028,70.6314087000028,70.6314087000028,70.6314087000028,70.6314087000028,70.6314087000028,70.6314087000028,,007,P017,2025_Mar_07_1649,ConditionRich,2021.2.3,59.92714058275474,
26.75,27.0,41,0.0,Stimuli/Blank.png,0,0,0.0,0,46,46,46,,,,,,,,,,,,,26.75564139999915,0.005641399999149144,None,71.38205730000118,71.38205730000118,71.38205730000118,71.38205730000118,71.38205730000118,71.38205730000118,71.38205730000118,71.38205730000118,71.38205730000118,71.38205730000118,,007,P017,2025_Mar_07_1649,ConditionRich,2021.2.3,59.92714058275474,
27.0,27.75,6,0.75,Stimuli/P017/sun_atuyvunnykjurjgx.jpg,0,0,0.0,0,47,47,47,,,,,,,,,,,,,27.005198899998504,0.005198899998504203,None,71.63226670000222,71.63226670000222,71.63226670000222,71.63226670000222,71.63226670000222,71.63226670000222,71.63226670000222,71.63226670000222,71.63226670000222,71.63226670000222,,007,P017,2025_Mar_07_1649,ConditionRich,2021.2.3,59.92714058275474,
27.75,28.0,41,0.0,Stimuli/Blank.png,0,0,0.0,0,48,48,48,,,,,,,,,,,,,27.75580809999883,0.005808099998830585,None,72.3829310000001,72.3829310000001,72.3829310000001,72.3829310000001,72.3829310000001,72.3829310000001,72.3829310000001,72.3829310000001,72.3829310000001,72.3829310000001,,007,P017,2025_Mar_07_1649,ConditionRich,2021.2.3,59.92714058275474,
28.0,28.75,16,0.75,Stimuli/P017/sun_brfwxjsnmauhmfzf.jpg,0,0,0.0,0,49,49,49,,,,,,,,,,,,,28.00722119999773,0.007221199997729855,None,72.64987800000017,72.64987800000017,72.64987800000017,72.64987800000017,72.64987800000017,72.64987800000017,72.64987800000017,72.64987800000017,72.64987800000017,72.64987800000017,,007,P017,2025_Mar_07_1649,ConditionRich,2021.2.3,59.92714058275474,
28.75,29.0,41,0.0,Stimuli/Blank.png,0,0,0.0,0,50,50,50,,,,,,,,,,,,,28.77454569999827,0.02454569999827072,None,73.40051450000101,73.40051450000101,73.40051450000101,73.40051450000101,73.40051450000101,73.40051450000101,73.40051450000101,73.40051450000101,73.40051450000101,73.40051450000101,,007,P017,2025_Mar_07_1649,ConditionRich,2021.2.3,59.92714058275474,
29.0,29.75,16,0.75,Stimuli/P017/sun_brfwxjsnmauhmfzf.jpg,0,0,0.0,0,51,51,51,,,,,,,,,,,,,29.007465700000466,0.007465700000466313,None,73.63403920000201,73.63403920000201,73.63403920000201,73.63403920000201,73.63403920000201,73.63403920000201,73.63403920000201,73.63403920000201,73.63403920000201,73.63403920000201,,007,P017,2025_Mar_07_1649,ConditionRich,2021.2.3,59.92714058275474,
29.75,30.0,41,0.0,Stimuli/Blank.png,0,0,0.0,0,52,52,52,,,,,,,,,,,,,29.75883690000046,0.008836900000460446,None,74.40139420000196,74.40139420000196,74.40139420000196,74.40139420000196,74.40139420000196,74.40139420000196,74.40139420000196,74.40139420000196,74.40139420000196,74.40139420000196,,007,P017,2025_Mar_07_1649,ConditionRich,2021.2.3,59.92714058275474,
30.0,30.75,16,0.75,Stimuli/P017/sun_brfwxjsnmauhmfzf.jpg,0,0,0.0,0,53,53,53,,,,,,,,,,,,,30.02522769999996,0.02522769999995944,None,74.65161140000055,74.65161140000055,74.65161140000055,74.65161140000055,74.65161140000055,74.65161140000055,74.65161140000055,74.65161140000055,74.65161140000055,74.65161140000055,,007,P017,2025_Mar_07_1649,ConditionRich,2021.2.3,59.92714058275474,
30.75,31.0,41,0.0,Stimuli/Blank.png,0,0,0.0,0,54,54,54,,,,,,,,,,,,,30.759402299998328,0.00940229999832809,None,75.3855844000027,75.3855844000027,75.3855844000027,75.3855844000027,75.3855844000027,75.3855844000027,75.3855844000027,75.3855844000027,75.3855844000027,75.3855844000027,,007,P017,2025_Mar_07_1649,ConditionRich,2021.2.3,59.92714058275474,
31.0,31.75,16,0.75,Stimuli/P017/sun_brfwxjsnmauhmfzf.jpg,0,0,0.0,0,55,55,55,,,,,,,,,,,,,31.009400700000697,0.009400700000696816,None,75.63580720000027,75.63580720000027,75.63580720000027,75.63580720000027,75.63580720000027,75.63580720000027,75.63580720000027,75.63580720000027,75.63580720000027,75.63580720000027,,007,P017,2025_Mar_07_1649,ConditionRich,2021.2.3,59.92714058275474,
31.75,32.0,41,0.0,Stimuli/Blank.png,0,0,0.0,0,56,56,56,,,,,,,,,,,,,31.759528800001135,0.009528800001135096,None,76.38647990000027,76.38647990000027,76.38647990000027,76.38647990000027,76.38647990000027,76.38647990000027,76.38647990000027,76.38647990000027,76.38647990000027,76.38647990000027,,007,P017,2025_Mar_07_1649,ConditionRich,2021.2.3,59.92714058275474,
32.0,32.75,20,0.75,Stimuli/P017/sun_buukivvfbfhosrng.jpg,0,0,0.0,0,57,57,57,,,,,,,,,,,,,32.00985840000067,0.009858400000666734,None,76.63667110000097,76.63667110000097,76.63667110000097,76.63667110000097,76.63667110000097,76.63667110000097,76.63667110000097,76.63667110000097,76.63667110000097,76.63667110000097,,007,P017,2025_Mar_07_1649,ConditionRich,2021.2.3,59.92714058275474,
32.75,33.0,41,0.0,Stimuli/Blank.png,0,0,0.0,0,58,58,58,,,,,,,,,,,,,32.76335019999897,0.013350199998967582,None,77.40405140000075,77.40405140000075,77.40405140000075,77.40405140000075,77.40405140000075,77.40405140000075,77.40405140000075,77.40405140000075,77.40405140000075,77.40405140000075,,007,P017,2025_Mar_07_1649,ConditionRich,2021.2.3,59.92714058275474,
33.0,33.75,20,0.75,Stimuli/P017/sun_buukivvfbfhosrng.jpg,0,0,0.0,0,59,59,59,,,,,,,,,,,,,33.02713690000019,0.02713690000018687,None,77.65425570000298,77.65425570000298,77.65425570000298,77.65425570000298,77.65425570000298,77.65425570000298,77.65425570000298,77.65425570000298,77.65425570000298,77.65425570000298,,007,P017,2025_Mar_07_1649,ConditionRich,2021.2.3,59.92714058275474,
33.75,34.0,41,0.0,Stimuli/Blank.png,0,0,0.0,0,60,60,60,,,,,,,,,,,,,33.763341999998374,0.013341999998374376,None,78.40493550000247,78.40493550000247,78.40493550000247,78.40493550000247,78.40493550000247,78.40493550000247,78.40493550000247,78.40493550000247,78.40493550000247,78.40493550000247,,007,P017,2025_Mar_07_1649,ConditionRich,2021.2.3,59.92714058275474,
34.0,34.75,20,0.75,Stimuli/P017/sun_buukivvfbfhosrng.jpg,0,0,0.0,0,61,61,61,,,,,,,,,,,,,34.02865309999834,0.028653099998336984,None,78.65516950000165,78.65516950000165,78.65516950000165,78.65516950000165,78.65516950000165,78.65516950000165,78.65516950000165,78.65516950000165,78.65516950000165,78.65516950000165,,007,P017,2025_Mar_07_1649,ConditionRich,2021.2.3,59.92714058275474,
34.75,35.0,41,0.0,Stimuli/Blank.png,0,0,0.0,0,62,62,62,,,,,,,,,,,,,34.76293380000061,0.012933800000610063,None,79.38912600000185,79.38912600000185,79.38912600000185,79.38912600000185,79.38912600000185,79.38912600000185,79.38912600000185,79.38912600000185,79.38912600000185,79.38912600000185,,007,P017,2025_Mar_07_1649,ConditionRich,2021.2.3,59.92714058275474,
35.0,35.75,20,0.75,Stimuli/P017/sun_buukivvfbfhosrng.jpg,0,0,0.0,0,63,63,63,,,,,,,,,,,,,35.01348159999907,0.01348159999906784,None,79.65604310000344,79.65604310000344,79.65604310000344,79.65604310000344,79.65604310000344,79.65604310000344,79.65604310000344,79.65604310000344,79.65604310000344,79.65604310000344,,007,P017,2025_Mar_07_1649,ConditionRich,2021.2.3,59.92714058275474,
35.75,36.0,41,0.0,Stimuli/Blank.png,0,0,0.0,0,64,64,64,,,,,,,,,,,,,35.780496200000925,0.030496200000925455,None,80.40670260000115,80.40670260000115,80.40670260000115,80.40670260000115,80.40670260000115,80.40670260000115,80.40670260000115,80.40670260000115,80.40670260000115,80.40670260000115,,007,P017,2025_Mar_07_1649,ConditionRich,2021.2.3,59.92714058275474,
36.0,36.75,19,0.75,Stimuli/P017/sun_brrwzaypucosdcgt.jpg,0,0,0.0,0,65,65,65,,,,,,,,,,,,,36.013268399998196,0.0132683999981964,None,80.64023050000105,80.64023050000105,80.64023050000105,80.64023050000105,80.64023050000105,80.64023050000105,80.64023050000105,80.64023050000105,80.64023050000105,80.64023050000105,,007,P017,2025_Mar_07_1649,ConditionRich,2021.2.3,59.92714058275474,
36.75,37.0,41,0.0,Stimuli/Blank.png,0,0,0.0,0,66,66,66,,,,,,,,,,,,,36.76385289999962,0.013852899999619694,None,81.39089370000147,81.39089370000147,81.39089370000147,81.39089370000147,81.39089370000147,81.39089370000147,81.39089370000147,81.39089370000147,81.39089370000147,81.39089370000147,,007,P017,2025_Mar_07_1649,ConditionRich,2021.2.3,59.92714058275474,
37.0,37.75,19,0.75,Stimuli/P017/sun_brrwzaypucosdcgt.jpg,0,0,0.0,0,67,67,67,,,,,,,,,,,,,37.014116499998636,0.014116499998635845,None,81.64111860000048,81.64111860000048,81.64111860000048,81.64111860000048,81.64111860000048,81.64111860000048,81.64111860000048,81.64111860000048,81.64111860000048,81.64111860000048,,007,P017,2025_Mar_07_1649,ConditionRich,2021.2.3,59.92714058275474,
37.75,38.0,41,0.0,Stimuli/Blank.png,0,0,0.0,0,68,68,68,,,,,,,,,,,,,37.76481839999906,0.014818399999057874,None,82.39178090000132,82.39178090000132,82.39178090000132,82.39178090000132,82.39178090000132,82.39178090000132,82.39178090000132,82.39178090000132,82.39178090000132,82.39178090000132,,007,P017,2025_Mar_07_1649,ConditionRich,2021.2.3,59.92714058275474,
38.0,38.75,19,0.75,Stimuli/P017/sun_brrwzaypucosdcgt.jpg,0,0,0.0,0,69,69,69,,,,,,,,,,,,,38.01497449999806,0.01497449999806122,None,82.64199680000092,82.64199680000092,82.64199680000092,82.64199680000092,82.64199680000092,82.64199680000092,82.64199680000092,82.64199680000092,82.64199680000092,82.64199680000092,,007,P017,2025_Mar_07_1649,ConditionRich,2021.2.3,59.92714058275474,
38.75,39.0,41,0.0,Stimuli/Blank.png,0,0,0.0,0,70,70,70,,,,,,,,,,,,,38.7668076000009,0.016807600000902312,None,83.39268260000244,83.39268260000244,83.39268260000244,83.39268260000244,83.39268260000244,83.39268260000244,83.39268260000244,83.39268260000244,83.39268260000244,83.39268260000244,,007,P017,2025_Mar_07_1649,ConditionRich,2021.2.3,59.92714058275474,
39.0,39.75,19,0.75,Stimuli/P017/sun_brrwzaypucosdcgt.jpg,0,0,0.0,0,71,71,71,,,,,,,,,,,,,38.99916999999914,-0.0008300000008603092,None,83.62620560000141,83.62620560000141,83.62620560000141,83.62620560000141,83.62620560000141,83.62620560000141,83.62620560000141,83.62620560000141,83.62620560000141,83.62620560000141,,007,P017,2025_Mar_07_1649,ConditionRich,2021.2.3,59.92714058275474,
39.75,40.0,41,0.0,Stimuli/Blank.png,0,0,0.0,0,72,72,72,,,,,,,,,,,,,39.750360699999874,0.0003606999998737592,None,84.37686560000293,84.37686560000293,84.37686560000293,84.37686560000293,84.37686560000293,84.37686560000293,84.37686560000293,84.37686560000293,84.37686560000293,84.37686560000293,,007,P017,2025_Mar_07_1649,ConditionRich,2021.2.3,59.92714058275474,
40.0,40.75,39,0.75,Stimuli/P017/things_veil_09s.jpg,0,0,0.0,0,73,73,73,,,,,,,,,,,,,40.00299079999968,0.0029907999996794388,None,84.6437771000019,84.6437771000019,84.6437771000019,84.6437771000019,84.6437771000019,84.6437771000019,84.6437771000019,84.6437771000019,84.6437771000019,84.6437771000019,,007,P017,2025_Mar_07_1649,ConditionRich,2021.2.3,59.92714058275474,
40.75,41.0,41,0.0,Stimuli/Blank.png,0,0,0.0,0,74,74,74,,,,,,,,,,,,,40.767720499999996,0.01772049999999581,None,85.39451100000224,85.39451100000224,85.39451100000224,85.39451100000224,85.39451100000224,85.39451100000224,85.39451100000224,85.39451100000224,85.39451100000224,85.39451100000224,,007,P017,2025_Mar_07_1649,ConditionRich,2021.2.3,59.92714058275474,
41.0,41.75,39,0.75,Stimuli/P017/things_veil_09s.jpg,0,0,0.0,0,75,75,75,,,,,,,,,,,,,41.003016200000275,0.0030162000002746936,None,85.64467020000302,85.64467020000302,85.64467020000302,85.64467020000302,85.64467020000302,85.64467020000302,85.64467020000302,85.64467020000302,85.64467020000302,85.64467020000302,,007,P017,2025_Mar_07_1649,ConditionRich,2021.2.3,59.92714058275474,
41.75,42.0,41,0.0,Stimuli/Blank.png,0,0,0.0,0,76,76,76,,,,,,,,,,,,,41.769195599998056,0.019195599998056423,None,86.39533680000022,86.39533680000022,86.39533680000022,86.39533680000022,86.39533680000022,86.39533680000022,86.39533680000022,86.39533680000022,86.39533680000022,86.39533680000022,,007,P017,2025_Mar_07_1649,ConditionRich,2021.2.3,59.92714058275474,
42.0,42.75,39,0.75,Stimuli/P017/things_veil_09s.jpg,0,0,0.0,0,77,77,77,,,,,,,,,,,,,42.001944899999216,0.0019448999992164318,None,86.62886370000342,86.62886370000342,86.62886370000342,86.62886370000342,86.62886370000342,86.62886370000342,86.62886370000342,86.62886370000342,86.62886370000342,86.62886370000342,,007,P017,2025_Mar_07_1649,ConditionRich,2021.2.3,59.92714058275474,
42.75,43.0,41,0.0,Stimuli/Blank.png,0,0,0.0,0,78,78,78,,,,,,,,,,,,,42.7540932999982,0.0040932999982032925,None,87.37949450000087,87.37949450000087,87.37949450000087,87.37949450000087,87.37949450000087,87.37949450000087,87.37949450000087,87.37949450000087,87.37949450000087,87.37949450000087,,007,P017,2025_Mar_07_1649,ConditionRich,2021.2.3,59.92714058275474,
43.0,43.75,39,0.75,Stimuli/P017/things_veil_09s.jpg,1,0,0.75,0,79,79,79,,,,,,,,,,,,,43.00310560000071,0.003105600000708364,1,87.629714900002,87.629714900002,87.629714900002,87.629714900002,87.629714900002,87.629714900002,87.629714900002,88.36369880000348,87.629714900002,87.629714900002,0.48722389999966254,007,P017,2025_Mar_07_1649,ConditionRich,2021.2.3,59.92714058275474,
43.75,44.0,41,0.0,Stimuli/Blank.png,0,0,0.0,0,80,80,80,,,,,,,,,,,,,43.75400459999946,0.004004599999461789,None,88.38037910000276,88.38037910000276,88.38037910000276,88.38037910000276,88.38037910000276,88.38037910000276,88.38037910000276,88.38037910000276,88.38037910000276,88.38037910000276,,007,P017,2025_Mar_07_1649,ConditionRich,2021.2.3,59.92714058275474,
44.0,44.75,25,0.75,Stimuli/P017/things_cannonball_09s.jpg,0,0,0.0,0,81,81,81,,,,,,,,,,,,,44.00413979999939,0.00413979999939329,None,88.63059780000185,88.63059780000185,88.63059780000185,88.63059780000185,88.63059780000185,88.63059780000185,88.63059780000185,88.63059780000185,88.63059780000185,88.63059780000185,,007,P017,2025_Mar_07_1649,ConditionRich,2021.2.3,59.92714058275474,
44.75,45.0,41,0.0,Stimuli/Blank.png,0,0,0.0,0,82,82,82,,,,,,,,,,,,,44.75526379999792,0.005263799997919705,None,89.38127840000016,89.38127840000016,89.38127840000016,89.38127840000016,89.38127840000016,89.38127840000016,89.38127840000016,89.38127840000016,89.38127840000016,89.38127840000016,,007,P017,2025_Mar_07_1649,ConditionRich,2021.2.3,59.92714058275474,
45.0,45.75,25,0.75,Stimuli/P017/things_cannonball_09s.jpg,0,0,0.0,0,83,83,83,,,,,,,,,,,,,45.005198999999266,0.005198999999265652,None,89.63148900000306,89.63148900000306,89.63148900000306,89.63148900000306,89.63148900000306,89.63148900000306,89.63148900000306,89.63148900000306,89.63148900000306,89.63148900000306,,007,P017,2025_Mar_07_1649,ConditionRich,2021.2.3,59.92714058275474,
45.75,46.0,41,0.0,Stimuli/Blank.png,0,0,0.0,0,84,84,84,,,,,,,,,,,,,45.75505150000026,0.0050515000002633315,None,90.3821517000033,90.3821517000033,90.3821517000033,90.3821517000033,90.3821517000033,90.3821517000033,90.3821517000033,90.3821517000033,90.3821517000033,90.3821517000033,,007,P017,2025_Mar_07_1649,ConditionRich,2021.2.3,59.92714058275474,
46.0,46.75,25,0.75,Stimuli/P017/things_cannonball_09s.jpg,0,0,0.0,0,85,85,85,,,,,,,,,,,,,46.005651899999066,0.00565189999906579,None,90.63236910000342,90.63236910000342,90.63236910000342,90.63236910000342,90.63236910000342,90.63236910000342,90.63236910000342,90.63236910000342,90.63236910000342,90.63236910000342,,007,P017,2025_Mar_07_1649,ConditionRich,2021.2.3,59.92714058275474,
46.75,47.0,41,0.0,Stimuli/Blank.png,0,0,0.0,0,86,86,86,,,,,,,,,,,,,46.75605050000013,0.0060505000001285225,None,91.3830291000013,91.3830291000013,91.3830291000013,91.3830291000013,91.3830291000013,91.3830291000013,91.3830291000013,91.3830291000013,91.3830291000013,91.3830291000013,,007,P017,2025_Mar_07_1649,ConditionRich,2021.2.3,59.92714058275474,
47.0,47.75,25,0.75,Stimuli/P017/things_cannonball_09s.jpg,0,0,0.0,0,87,87,87,,,,,,,,,,,,,47.00641539999924,0.006415399999241345,None,91.63325130000158,91.63325130000158,91.63325130000158,91.63325130000158,91.63325130000158,91.63325130000158,91.63325130000158,91.63325130000158,91.63325130000158,91.63325130000158,,007,P017,2025_Mar_07_1649,ConditionRich,2021.2.3,59.92714058275474,
47.75,48.0,41,0.0,Stimuli/Blank.png,0,0,0.0,0,88,88,88,,,,,,,,,,,,,47.75737179999851,0.007371799998509232,None,92.3839990000015,92.3839990000015,92.3839990000015,92.3839990000015,92.3839990000015,92.3839990000015,92.3839990000015,92.3839990000015,92.3839990000015,92.3839990000015,,007,P017,2025_Mar_07_1649,ConditionRich,2021.2.3,59.92714058275474,
48.0,48.75,32,0.75,Stimuli/P017/things_horse_09s.jpg,0,0,0.0,0,89,89,89,,,,,,,,,,,,,48.00704860000042,0.007048600000416627,None,92.63416830000278,92.63416830000278,92.63416830000278,92.63416830000278,92.63416830000278,92.63416830000278,92.63416830000278,92.63416830000278,92.63416830000278,92.63416830000278,,007,P017,2025_Mar_07_1649,ConditionRich,2021.2.3,59.92714058275474,
48.75,49.0,41,0.0,Stimuli/Blank.png,0,0,0.0,0,90,90,90,,,,,,,,,,,,,48.758770399999776,0.008770399999775691,None,93.38483170000109,93.38483170000109,93.38483170000109,93.38483170000109,93.38483170000109,93.38483170000109,93.38483170000109,93.38483170000109,93.38483170000109,93.38483170000109,,007,P017,2025_Mar_07_1649,ConditionRich,2021.2.3,59.92714058275474,
49.0,49.75,32,0.75,Stimuli/P017/things_horse_09s.jpg,0,0,0.0,0,91,91,91,,,,,,,,,,,,,49.008672100000695,0.008672100000694627,None,93.6350738000001,93.6350738000001,93.6350738000001,93.6350738000001,93.6350738000001,93.6350738000001,93.6350738000001,93.6350738000001,93.6350738000001,93.6350738000001,,007,P017,2025_Mar_07_1649,ConditionRich,2021.2.3,59.92714058275474,
49.75,50.0,41,0.0,Stimuli/Blank.png,0,0,0.0,0,92,92,92,,,,,,,,,,,,,49.759142700000666,0.009142700000666082,None,94.38572290000229,94.38572290000229,94.38572290000229,94.38572290000229,94.38572290000229,94.38572290000229,94.38572290000229,94.38572290000229,94.38572290000229,94.38572290000229,,007,P017,2025_Mar_07_1649,ConditionRich,2021.2.3,59.92714058275474,
50.0,50.75,32,0.75,Stimuli/P017/things_horse_09s.jpg,0,0,0.0,0,93,93,93,,,,,,,,,,,,,50.0091496999994,0.009149699999397853,None,94.63594080000257,94.63594080000257,94.63594080000257,94.63594080000257,94.63594080000257,94.63594080000257,94.63594080000257,94.63594080000257,94.63594080000257,94.63594080000257,,007,P017,2025_Mar_07_1649,ConditionRich,2021.2.3,59.92714058275474,
50.75,51.0,41,0.0,Stimuli/Blank.png,0,0,0.0,0,94,94,94,,,,,,,,,,,,,50.75976040000023,0.009760400000232039,None,95.38673990000098,95.38673990000098,95.38673990000098,95.38673990000098,95.38673990000098,95.38673990000098,95.38673990000098,95.38673990000098,95.38673990000098,95.38673990000098,,007,P017,2025_Mar_07_1649,ConditionRich,2021.2.3,59.92714058275474,
51.0,51.75,32,0.75,Stimuli/P017/things_horse_09s.jpg,0,0,0.0,0,95,95,95,,,,,,,,,,,,,51.01020209999842,0.010202099998423364,None,95.63683030000175,95.63683030000175,95.63683030000175,95.63683030000175,95.63683030000175,95.63683030000175,95.63683030000175,95.63683030000175,95.63683030000175,95.63683030000175,,007,P017,2025_Mar_07_1649,ConditionRich,2021.2.3,59.92714058275474,
51.75,52.0,41,0.0,Stimuli/Blank.png,0,0,0.0,0,96,96,96,,,,,,,,,,,,,51.760449000001245,0.010449000001244713,None,96.38759720000235,96.38759720000235,96.38759720000235,96.38759720000235,96.38759720000235,96.38759720000235,96.38759720000235,96.38759720000235,96.38759720000235,96.38759720000235,,007,P017,2025_Mar_07_1649,ConditionRich,2021.2.3,59.92714058275474,
52.0,52.75,38,0.75,Stimuli/P017/things_pony_09s.jpg,0,0,0.0,0,97,97,97,,,,,,,,,,,,,52.010796200000186,0.010796200000186218,None,96.65442390000317,96.65442390000317,96.65442390000317,96.65442390000317,96.65442390000317,96.65442390000317,96.65442390000317,96.65442390000317,96.65442390000317,96.65442390000317,,007,P017,2025_Mar_07_1649,ConditionRich,2021.2.3,59.92714058275474,
52.75,53.0,41,0.0,Stimuli/Blank.png,0,0,0.0,0,98,98,98,,,,,,,,,,,,,52.77930180000112,0.029301800001121592,None,97.42172980000032,97.42172980000032,97.42172980000032,97.42172980000032,97.42172980000032,97.42172980000032,97.42172980000032,97.42172980000032,97.42172980000032,97.42172980000032,,007,P017,2025_Mar_07_1649,ConditionRich,2021.2.3,59.92714058275474,
53.0,53.75,38,0.75,Stimuli/P017/things_pony_09s.jpg,0,0,0.0,0,99,99,99,,,,,,,,,,,,,53.028303200000664,0.02830320000066422,None,97.65527070000098,97.65527070000098,97.65527070000098,97.65527070000098,97.65527070000098,97.65527070000098,97.65527070000098,97.65527070000098,97.65527070000098,97.65527070000098,,007,P017,2025_Mar_07_1649,ConditionRich,2021.2.3,59.92714058275474,
53.75,54.0,41,0.0,Stimuli/Blank.png,0,0,0.0,0,100,100,100,,,,,,,,,,,,,53.7622005000012,0.012200500001199543,None,98.38926080000238,98.38926080000238,98.38926080000238,98.38926080000238,98.38926080000238,98.38926080000238,98.38926080000238,98.38926080000238,98.38926080000238,98.38926080000238,,007,P017,2025_Mar_07_1649,ConditionRich,2021.2.3,59.92714058275474,
54.0,54.75,38,0.75,Stimuli/P017/things_pony_09s.jpg,0,0,0.0,0,101,101,101,,,,,,,,,,,,,54.01336839999931,0.013368399999308167,None,98.63948100000198,98.63948100000198,98.63948100000198,98.63948100000198,98.63948100000198,98.63948100000198,98.63948100000198,98.63948100000198,98.63948100000198,98.63948100000198,,007,P017,2025_Mar_07_1649,ConditionRich,2021.2.3,59.92714058275474,
54.75,55.0,41,0.0,Stimuli/Blank.png,0,0,0.0,0,102,102,102,,,,,,,,,,,,,54.76364779999858,0.013647799998580012,None,99.39014880000104,99.39014880000104,99.39014880000104,99.39014880000104,99.39014880000104,99.39014880000104,99.39014880000104,99.39014880000104,99.39014880000104,99.39014880000104,,007,P017,2025_Mar_07_1649,ConditionRich,2021.2.3,59.92714058275474,
55.0,55.75,38,0.75,Stimuli/P017/things_pony_09s.jpg,0,0,0.0,0,103,103,103,,,,,,,,,,,,,55.0141795999989,0.014179599998897174,None,99.65704530000221,99.65704530000221,99.65704530000221,99.65704530000221,99.65704530000221,99.65704530000221,99.65704530000221,99.65704530000221,99.65704530000221,99.65704530000221,,007,P017,2025_Mar_07_1649,ConditionRich,2021.2.3,59.92714058275474,
55.75,56.0,41,0.0,Stimuli/Blank.png,0,0,0.0,0,104,104,104,,,,,,,,,,,,,55.781380000000354,0.0313800000003539,None,100.4077154000006,100.4077154000006,100.4077154000006,100.4077154000006,100.4077154000006,100.4077154000006,100.4077154000006,100.4077154000006,100.4077154000006,100.4077154000006,,007,P017,2025_Mar_07_1649,ConditionRich,2021.2.3,59.92714058275474,
56.0,56.75,26,0.75,Stimuli/P017/things_chandelier_09s.jpg,0,0,0.0,0,105,105,105,,,,,,,,,,,,,56.01433199999883,0.014331999998830725,None,100.64127600000211,100.64127600000211,100.64127600000211,100.64127600000211,100.64127600000211,100.64127600000211,100.64127600000211,100.64127600000211,100.64127600000211,100.64127600000211,,007,P017,2025_Mar_07_1649,ConditionRich,2021.2.3,59.92714058275474,
56.75,57.0,41,0.0,Stimuli/Blank.png,0,0,0.0,0,106,106,106,,,,,,,,,,,,,56.76597169999877,0.015971699998772237,None,101.39191890000075,101.39191890000075,101.39191890000075,101.39191890000075,101.39191890000075,101.39191890000075,101.39191890000075,101.39191890000075,101.39191890000075,101.39191890000075,,007,P017,2025_Mar_07_1649,ConditionRich,2021.2.3,59.92714058275474,
57.0,57.75,26,0.75,Stimuli/P017/things_chandelier_09s.jpg,0,0,0.0,0,107,107,107,,,,,,,,,,,,,56.99847779999982,-0.0015222000001813285,None,101.62545480000335,101.62545480000335,101.62545480000335,101.62545480000335,101.62545480000335,101.62545480000335,101.62545480000335,101.62545480000335,101.62545480000335,101.62545480000335,,007,P017,2025_Mar_07_1649,ConditionRich,2021.2.3,59.92714058275474,
57.75,58.0,41,0.0,Stimuli/Blank.png,0,0,0.0,0,108,108,108,,,,,,,,,,,,,57.749134499998036,-0.0008655000019643921,None,102.3761153000014,102.3761153000014,102.3761153000014,102.3761153000014,102.3761153000014,102.3761153000014,102.3761153000014,102.3761153000014,102.3761153000014,102.3761153000014,,007,P017,2025_Mar_07_1649,ConditionRich,2021.2.3,59.92714058275474,
58.0,58.75,26,0.75,Stimuli/P017/things_chandelier_09s.jpg,0,0,0.0,0,109,109,109,,,,,,,,,,,,,57.99952679999842,-0.0004732000015792437,None,102.62629870000092,102.62629870000092,102.62629870000092,102.62629870000092,102.62629870000092,102.62629870000092,102.62629870000092,102.62629870000092,102.62629870000092,102.62629870000092,,007,P017,2025_Mar_07_1649,ConditionRich,2021.2.3,59.92714058275474,
58.75,59.0,41,0.0,Stimuli/Blank.png,0,0,0.0,0,110,110,110,,,,,,,,,,,,,58.75037379999776,0.0003737999977602158,None,103.37699710000015,103.37699710000015,103.37699710000015,103.37699710000015,103.37699710000015,103.37699710000015,103.37699710000015,103.37699710000015,103.37699710000015,103.37699710000015,,007,P017,2025_Mar_07_1649,ConditionRich,2021.2.3,59.92714058275474,
59.0,59.75,26,0.75,Stimuli/P017/things_chandelier_09s.jpg,0,0,0.0,0,111,111,111,,,,,,,,,,,,,59.00080909999815,0.0008090999981504865,None,103.64391140000225,103.64391140000225,103.64391140000225,103.64391140000225,103.64391140000225,103.64391140000225,103.64391140000225,103.64391140000225,103.64391140000225,103.64391140000225,,007,P017,2025_Mar_07_1649,ConditionRich,2021.2.3,59.92714058275474,
59.75,60.0,41,0.0,Stimuli/Blank.png,0,0,0.0,0,112,112,112,,,,,,,,,,,,,59.76810040000055,0.01810040000054869,None,104.39454260000275,104.39454260000275,104.39454260000275,104.39454260000275,104.39454260000275,104.39454260000275,104.39454260000275,104.39454260000275,104.39454260000275,104.39454260000275,,007,P017,2025_Mar_07_1649,ConditionRich,2021.2.3,59.92714058275474,
60.0,60.75,8,0.75,Stimuli/P017/sun_axsmqyyvebrcuhkn.jpg,0,0,0.0,0,113,113,113,,,,,,,,,,,,,60.003185999998095,0.0031859999980952125,None,104.64479130000109,104.64479130000109,104.64479130000109,104.64479130000109,104.64479130000109,104.64479130000109,104.64479130000109,104.64479130000109,104.64479130000109,104.64479130000109,,007,P017,2025_Mar_07_1649,ConditionRich,2021.2.3,59.92714058275474,
60.75,61.0,41,0.0,Stimuli/Blank.png,0,0,0.0,0,114,114,114,,,,,,,,,,,,,60.76858739999807,0.018587399998068577,None,105.3954498000021,105.3954498000021,105.3954498000021,105.3954498000021,105.3954498000021,105.3954498000021,105.3954498000021,105.3954498000021,105.3954498000021,105.3954498000021,,007,P017,2025_Mar_07_1649,ConditionRich,2021.2.3,59.92714058275474,
61.0,61.75,8,0.75,Stimuli/P017/sun_axsmqyyvebrcuhkn.jpg,0,0,0.0,0,115,115,115,,,,,,,,,,,,,61.003368599998794,0.0033685999987937976,None,105.64569840000331,105.64569840000331,105.64569840000331,105.64569840000331,105.64569840000331,105.64569840000331,105.64569840000331,105.64569840000331,105.64569840000331,105.64569840000331,,007,P017,2025_Mar_07_1649,ConditionRich,2021.2.3,59.92714058275474,
61.75,62.0,41,0.0,Stimuli/Blank.png,0,0,0.0,0,116,116,116,,,,,,,,,,,,,61.7699692999995,0.019969299999502255,None,106.3963313000022,106.3963313000022,106.3963313000022,106.3963313000022,106.3963313000022,106.3963313000022,106.3963313000022,106.3963313000022,106.3963313000022,106.3963313000022,,007,P017,2025_Mar_07_1649,ConditionRich,2021.2.3,59.92714058275474,
62.0,62.75,8,0.75,Stimuli/P017/sun_axsmqyyvebrcuhkn.jpg,0,0,0.0,0,117,117,117,,,,,,,,,,,,,62.003317999999126,0.0033179999991261866,None,106.62986970000202,106.62986970000202,106.62986970000202,106.62986970000202,106.62986970000202,106.62986970000202,106.62986970000202,106.62986970000202,106.62986970000202,106.62986970000202,,007,P017,2025_Mar_07_1649,ConditionRich,2021.2.3,59.92714058275474,
62.75,63.0,41,0.0,Stimuli/Blank.png,0,0,0.0,0,118,118,118,,,,,,,,,,,,,62.75377419999859,0.0037741999985883012,None,107.38053400000354,107.38053400000354,107.38053400000354,107.38053400000354,107.38053400000354,107.38053400000354,107.38053400000354,107.38053400000354,107.38053400000354,107.38053400000354,,007,P017,2025_Mar_07_1649,ConditionRich,2021.2.3,59.92714058275474,
63.0,63.75,8,0.75,Stimuli/P017/sun_axsmqyyvebrcuhkn.jpg,0,0,0.0,0,119,119,119,,,,,,,,,,,,,63.00435880000077,0.004358800000773044,None,107.63075940000272,107.63075940000272,107.63075940000272,107.63075940000272,107.63075940000272,107.63075940000272,107.63075940000272,107.63075940000272,107.63075940000272,107.63075940000272,,007,P017,2025_Mar_07_1649,ConditionRich,2021.2.3,59.92714058275474,
63.75,64.0,41,0.0,Stimuli/Blank.png,0,0,0.0,0,120,120,120,,,,,,,,,,,,,63.75541330000124,0.005413300001237076,None,108.38151010000001,108.38151010000001,108.38151010000001,108.38151010000001,108.38151010000001,108.38151010000001,108.38151010000001,108.38151010000001,108.38151010000001,108.38151010000001,,007,P017,2025_Mar_07_1649,ConditionRich,2021.2.3,59.92714058275474,
64.0,64.75,22,0.75,Stimuli/P017/things_boat_09s.jpg,0,0,0.0,0,121,121,121,,,,,,,,,,,,,64.00498979999975,0.004989799999748357,None,108.63165070000105,108.63165070000105,108.63165070000105,108.63165070000105,108.63165070000105,108.63165070000105,108.63165070000105,108.63165070000105,108.63165070000105,108.63165070000105,,007,P017,2025_Mar_07_1649,ConditionRich,2021.2.3,59.92714058275474,
64.75,65.0,41,0.0,Stimuli/Blank.png,0,0,0.0,0,122,122,122,,,,,,,,,,,,,64.75795830000061,0.007958300000609597,None,109.39899470000091,109.39899470000091,109.39899470000091,109.39899470000091,109.39899470000091,109.39899470000091,109.39899470000091,109.39899470000091,109.39899470000091,109.39899470000091,,007,P017,2025_Mar_07_1649,ConditionRich,2021.2.3,59.92714058275474,
65.0,65.75,22,0.75,Stimuli/P017/things_boat_09s.jpg,0,0,0.0,0,123,123,123,,,,,,,,,,,,,65.02283009999883,0.02283009999882779,None,109.66588740000225,109.66588740000225,109.66588740000225,109.66588740000225,109.66588740000225,109.66588740000225,109.66588740000225,109.66588740000225,109.66588740000225,109.66588740000225,,007,P017,2025_Mar_07_1649,ConditionRich,2021.2.3,59.92714058275474,
65.75,66.0,41,0.0,Stimuli/Blank.png,0,0,0.0,0,124,124,124,,,,,,,,,,,,,65.7737961999992,0.023796199999196688,None,110.39990250000119,110.39990250000119,110.39990250000119,110.39990250000119,110.39990250000119,110.39990250000119,110.39990250000119,110.39990250000119,110.39990250000119,110.39990250000119,,007,P017,2025_Mar_07_1649,ConditionRich,2021.2.3,59.92714058275474,
66.0,66.75,22,0.75,Stimuli/P017/things_boat_09s.jpg,1,0,0.75,0,125,125,125,,,,,,,,,,,,,66.00721699999849,0.007216999998490792,1,110.63342140000168,110.63342140000168,110.63342140000168,110.63342140000168,110.63342140000168,110.63342140000168,110.63342140000168,111.3675703000008,110.63342140000168,110.63342140000168,0.5456195999977353,007,P017,2025_Mar_07_1649,ConditionRich,2021.2.3,59.92714058275474,
66.75,67.0,41,0.0,Stimuli/Blank.png,0,0,0.0,0,126,126,126,,,,,,,,,,,,,66.76023069999792,0.010230699997919146,None,111.40077190000011,111.40077190000011,111.40077190000011,111.40077190000011,111.40077190000011,111.40077190000011,111.40077190000011,111.40077190000011,111.40077190000011,111.40077190000011,,007,P017,2025_Mar_07_1649,ConditionRich,2021.2.3,59.92714058275474,
67.0,67.75,22,0.75,Stimuli/P017/things_boat_09s.jpg,0,0,0.0,0,127,127,127,,,,,,,,,,,,,67.02417739999873,0.024177399998734472,None,111.65097890000106,111.65097890000106,111.65097890000106,111.65097890000106,111.65097890000106,111.65097890000106,111.65097890000106,111.65097890000106,111.65097890000106,111.65097890000106,,007,P017,2025_Mar_07_1649,ConditionRich,2021.2.3,59.92714058275474,
67.75,68.0,41,0.0,Stimuli/Blank.png,0,0,0.0,0,128,128,128,,,,,,,,,,,,,67.75848340000084,0.008483400000841357,None,112.38495770000009,112.38495770000009,112.38495770000009,112.38495770000009,112.38495770000009,112.38495770000009,112.38495770000009,112.38495770000009,112.38495770000009,112.38495770000009,,007,P017,2025_Mar_07_1649,ConditionRich,2021.2.3,59.92714058275474,
68.0,68.75,10,0.75,Stimuli/P017/sun_bayxprasninnrnle.jpg,0,0,0.0,0,129,129,129,,,,,,,,,,,,,68.00843489999897,0.008434899998974288,None,112.63518490000206,112.63518490000206,112.63518490000206,112.63518490000206,112.63518490000206,112.63518490000206,112.63518490000206,112.63518490000206,112.63518490000206,112.63518490000206,,007,P017,2025_Mar_07_1649,ConditionRich,2021.2.3,59.92714058275474,
68.75,69.0,41,0.0,Stimuli/Blank.png,0,0,0.0,0,130,130,130,,,,,,,,,,,,,68.75932249999823,0.00932249999823398,None,113.38666050000029,113.38666050000029,113.38666050000029,113.38666050000029,113.38666050000029,113.38666050000029,113.38666050000029,113.38666050000029,113.38666050000029,113.38666050000029,,007,P017,2025_Mar_07_1649,ConditionRich,2021.2.3,59.92714058275474,
69.0,69.75,10,0.75,Stimuli/P017/sun_bayxprasninnrnle.jpg,0,0,0.0,0,131,131,131,,,,,,,,,,,,,69.01014489999943,0.0101448999994318,None,113.65277590000187,113.65277590000187,113.65277590000187,113.65277590000187,113.65277590000187,113.65277590000187,113.65277590000187,113.65277590000187,113.65277590000187,113.65277590000187,,007,P017,2025_Mar_07_1649,ConditionRich,2021.2.3,59.92714058275474,
69.75,70.0,41,0.0,Stimuli/Blank.png,0,0,0.0,0,132,132,132,,,,,,,,,,,,,69.77861570000096,0.028615700000955258,None,114.42011280000224,114.42011280000224,114.42011280000224,114.42011280000224,114.42011280000224,114.42011280000224,114.42011280000224,114.42011280000224,114.42011280000224,114.42011280000224,,007,P017,2025_Mar_07_1649,ConditionRich,2021.2.3,59.92714058275474,
70.0,70.75,10,0.75,Stimuli/P017/sun_bayxprasninnrnle.jpg,0,0,0.0,0,133,133,133,,,,,,,,,,,,,70.02964090000023,0.02964090000023134,None,114.67032690000269,114.67032690000269,114.67032690000269,114.67032690000269,114.67032690000269,114.67032690000269,114.67032690000269,114.67032690000269,114.67032690000269,114.67032690000269,,007,P017,2025_Mar_07_1649,ConditionRich,2021.2.3,59.92714058275474,
70.75,71.0,41,0.0,Stimuli/Blank.png,0,0,0.0,0,134,134,134,,,,,,,,,,,,,70.77848749999976,0.028487499999755528,None,115.40429900000163,115.40429900000163,115.40429900000163,115.40429900000163,115.40429900000163,115.40429900000163,115.40429900000163,115.40429900000163,115.40429900000163,115.40429900000163,,007,P017,2025_Mar_07_1649,ConditionRich,2021.2.3,59.92714058275474,
71.0,71.75,10,0.75,Stimuli/P017/sun_bayxprasninnrnle.jpg,1,0,0.75,0,135,135,135,,,,,,,,,,,,,71.01332790000015,0.013327900000149384,1,115.65452640000149,115.65452640000149,115.65452640000149,115.65452640000149,115.65452640000149,115.65452640000149,115.65452640000149,116.38854070000161,115.65452640000149,115.65452640000149,0.4618878000001132,007,P017,2025_Mar_07_1649,ConditionRich,2021.2.3,59.92714058275474,
71.75,72.0,41,0.0,Stimuli/Blank.png,0,0,0.0,0,136,136,136,,,,,,,,,,,,,71.77834129999974,0.028341299999738112,None,116.40518690000317,116.40518690000317,116.40518690000317,116.40518690000317,116.40518690000317,116.40518690000317,116.40518690000317,116.40518690000317,116.40518690000317,116.40518690000317,,007,P017,2025_Mar_07_1649,ConditionRich,2021.2.3,59.92714058275474,
72.0,72.75,37,0.75,Stimuli/P017/things_plastic_film_09s.jpg,0,0,0.0,0,137,137,137,,,,,,,,,,,,,72.0123835000013,0.012383500001305947,None,116.65545900000143,116.65545900000143,116.65545900000143,116.65545900000143,116.65545900000143,116.65545900000143,116.65545900000143,116.65545900000143,116.65545900000143,116.65545900000143,,007,P017,2025_Mar_07_1649,ConditionRich,2021.2.3,59.92714058275474,
72.75,73.0,41,0.0,Stimuli/Blank.png,0,0,0.0,0,138,138,138,,,,,,,,,,,,,72.77968669999973,0.02968669999972917,None,117.40606480000133,117.40606480000133,117.40606480000133,117.40606480000133,117.40606480000133,117.40606480000133,117.40606480000133,117.40606480000133,117.40606480000133,117.40606480000133,,007,P017,2025_Mar_07_1649,ConditionRich,2021.2.3,59.92714058275474,
73.0,73.75,37,0.75,Stimuli/P017/things_plastic_film_09s.jpg,0,0,0.0,0,139,139,139,,,,,,,,,,,,,73.01342699999805,0.013426999998046085,None,117.65631250000297,117.65631250000297,117.65631250000297,117.65631250000297,117.65631250000297,117.65631250000297,117.65631250000297,117.65631250000297,117.65631250000297,117.65631250000297,,007,P017,2025_Mar_07_1649,ConditionRich,2021.2.3,59.92714058275474,
73.75,74.0,41,0.0,Stimuli/Blank.png,0,0,0.0,0,140,140,140,,,,,,,,,,,,,73.78039609999905,0.03039609999905224,None,118.40703780000331,118.40703780000331,118.40703780000331,118.40703780000331,118.40703780000331,118.40703780000331,118.40703780000331,118.40703780000331,118.40703780000331,118.40703780000331,,007,P017,2025_Mar_07_1649,ConditionRich,2021.2.3,59.92714058275474,
74.0,74.75,37,0.75,Stimuli/P017/things_plastic_film_09s.jpg,0,0,0.0,0,141,141,141,,,,,,,,,,,,,74.0143132000012,0.014313200001197401,None,118.64049500000328,118.64049500000328,118.64049500000328,118.64049500000328,118.64049500000328,118.64049500000328,118.64049500000328,118.64049500000328,118.64049500000328,118.64049500000328,,007,P017,2025_Mar_07_1649,ConditionRich,2021.2.3,59.92714058275474,
74.75,75.0,41,0.0,Stimuli/Blank.png,0,0,0.0,0,142,142,142,,,,,,,,,,,,,74.76488949999839,0.01488949999838951,None,119.39113750000251,119.39113750000251,119.39113750000251,119.39113750000251,119.39113750000251,119.39113750000251,119.39113750000251,119.39113750000251,119.39113750000251,119.39113750000251,,007,P017,2025_Mar_07_1649,ConditionRich,2021.2.3,59.92714058275474,
75.0,75.75,37,0.75,Stimuli/P017/things_plastic_film_09s.jpg,0,0,0.0,0,143,143,143,,,,,,,,,,,,,75.01437209999858,0.014372099998581689,None,119.64136890000009,119.64136890000009,119.64136890000009,119.64136890000009,119.64136890000009,119.64136890000009,119.64136890000009,119.64136890000009,119.64136890000009,119.64136890000009,,007,P017,2025_Mar_07_1649,ConditionRich,2021.2.3,59.92714058275474,
75.75,76.0,41,0.0,Stimuli/Blank.png,0,0,0.0,0,144,144,144,,,,,,,,,,,,,75.76542110000082,0.015421100000821752,None,120.39212960000077,120.39212960000077,120.39212960000077,120.39212960000077,120.39212960000077,120.39212960000077,120.39212960000077,120.39212960000077,120.39212960000077,120.39212960000077,,007,P017,2025_Mar_07_1649,ConditionRich,2021.2.3,59.92714058275474,
76.0,76.75,35,0.75,Stimuli/P017/things_lobster_09s.jpg,0,0,0.0,0,145,145,145,,,,,,,,,,,,,76.01594499999919,0.015944999999192078,None,120.6422580000035,120.6422580000035,120.6422580000035,120.6422580000035,120.6422580000035,120.6422580000035,120.6422580000035,120.6422580000035,120.6422580000035,120.6422580000035,,007,P017,2025_Mar_07_1649,ConditionRich,2021.2.3,59.92714058275474,
76.75,77.0,41,0.0,Stimuli/Blank.png,0,0,0.0,0,146,146,146,,,,,,,,,,,,,76.74915070000134,-0.0008492999986629002,None,121.37624430000142,121.37624430000142,121.37624430000142,121.37624430000142,121.37624430000142,121.37624430000142,121.37624430000142,121.37624430000142,121.37624430000142,121.37624430000142,,007,P017,2025_Mar_07_1649,ConditionRich,2021.2.3,59.92714058275474,
77.0,77.75,35,0.75,Stimuli/P017/things_lobster_09s.jpg,0,0,0.0,0,147,147,147,,,,,,,,,,,,,76.99948130000121,-0.0005186999987927265,None,121.62646440000026,121.62646440000026,121.62646440000026,121.62646440000026,121.62646440000026,121.62646440000026,121.62646440000026,121.62646440000026,121.62646440000026,121.62646440000026,,007,P017,2025_Mar_07_1649,ConditionRich,2021.2.3,59.92714058275474,
77.75,78.0,41,0.0,Stimuli/Blank.png,0,0,0.0,0,148,148,148,,,,,,,,,,,,,77.75102989999868,0.0010298999986844137,None,122.37712880000254,122.37712880000254,122.37712880000254,122.37712880000254,122.37712880000254,122.37712880000254,122.37712880000254,122.37712880000254,122.37712880000254,122.37712880000254,,007,P017,2025_Mar_07_1649,ConditionRich,2021.2.3,59.92714058275474,
78.0,78.75,35,0.75,Stimuli/P017/things_lobster_09s.jpg,0,0,0.0,0,149,149,149,,,,,,,,,,,,,78.00301179999951,0.003011799999512732,None,122.64403420000235,122.64403420000235,122.64403420000235,122.64403420000235,122.64403420000235,122.64403420000235,122.64403420000235,122.64403420000235,122.64403420000235,122.64403420000235,,007,P017,2025_Mar_07_1649,ConditionRich,2021.2.3,59.92714058275474,
78.75,79.0,41,0.0,Stimuli/Blank.png,0,0,0.0,0,150,150,150,,,,,,,,,,,,,78.76862919999985,0.018629199999850243,None,123.39470419999998,123.39470419999998,123.39470419999998,123.39470419999998,123.39470419999998,123.39470419999998,123.39470419999998,123.39470419999998,123.39470419999998,123.39470419999998,,007,P017,2025_Mar_07_1649,ConditionRich,2021.2.3,59.92714058275474,
79.0,79.75,35,0.75,Stimuli/P017/things_lobster_09s.jpg,0,0,0.0,0,151,151,151,,,,,,,,,,,,,79.00193719999879,0.0019371999987924937,None,123.62824220000039,123.62824220000039,123.62824220000039,123.62824220000039,123.62824220000039,123.62824220000039,123.62824220000039,123.62824220000039,123.62824220000039,123.62824220000039,,007,P017,2025_Mar_07_1649,ConditionRich,2021.2.3,59.92714058275474,
79.75,80.0,41,0.0,Stimuli/Blank.png,0,0,0.0,0,152,152,152,,,,,,,,,,,,,79.75253169999996,0.002531699999963166,None,124.37889710000309,124.37889710000309,124.37889710000309,124.37889710000309,124.37889710000309,124.37889710000309,124.37889710000309,124.37889710000309,124.37889710000309,124.37889710000309,,007,P017,2025_Mar_07_1649,ConditionRich,2021.2.3,59.92714058275474,
80.0,80.75,12,0.75,Stimuli/P017/sun_bhvaiabdgxjuwoth.jpg,0,0,0.0,0,153,153,153,,,,,,,,,,,,,80.00198180000007,0.001981800000066869,None,124.62912170000345,124.62912170000345,124.62912170000345,124.62912170000345,124.62912170000345,124.62912170000345,124.62912170000345,124.62912170000345,124.62912170000345,124.62912170000345,,007,P017,2025_Mar_07_1649,ConditionRich,2021.2.3,59.92714058275474,
80.75,81.0,41,0.0,Stimuli/Blank.png,0,0,0.0,0,154,154,154,,,,,,,,,,,,,80.7537994000013,0.003799400001298636,None,125.37979230000201,125.37979230000201,125.37979230000201,125.37979230000201,125.37979230000201,125.37979230000201,125.37979230000201,125.37979230000201,125.37979230000201,125.37979230000201,,007,P017,2025_Mar_07_1649,ConditionRich,2021.2.3,59.92714058275474,
81.0,81.75,12,0.75,Stimuli/P017/sun_bhvaiabdgxjuwoth.jpg,0,0,0.0,0,155,155,155,,,,,,,,,,,,,81.0033669000004,0.003366900000401074,None,125.63000390000161,125.63000390000161,125.63000390000161,125.63000390000161,125.63000390000161,125.63000390000161,125.63000390000161,125.63000390000161,125.63000390000161,125.63000390000161,,007,P017,2025_Mar_07_1649,ConditionRich,2021.2.3,59.92714058275474,
81.75,82.0,41,0.0,Stimuli/Blank.png,0,0,0.0,0,156,156,156,,,,,,,,,,,,,81.75555990000066,0.00555990000066231,None,126.38068110000313,126.38068110000313,126.38068110000313,126.38068110000313,126.38068110000313,126.38068110000313,126.38068110000313,126.38068110000313,126.38068110000313,126.38068110000313,,007,P017,2025_Mar_07_1649,ConditionRich,2021.2.3,59.92714058275474,
82.0,82.75,12,0.75,Stimuli/P017/sun_bhvaiabdgxjuwoth.jpg,0,0,0.0,0,157,157,157,,,,,,,,,,,,,82.00381239999842,0.0038123999984236434,None,126.63086330000078,126.63086330000078,126.63086330000078,126.63086330000078,126.63086330000078,126.63086330000078,126.63086330000078,126.63086330000078,126.63086330000078,126.63086330000078,,007,P017,2025_Mar_07_1649,ConditionRich,2021.2.3,59.92714058275474,
82.75,83.0,41,0.0,Stimuli/Blank.png,0,0,0.0,0,158,158,158,,,,,,,,,,,,,82.75546920000124,0.005469200001243735,None,127.3982560000004,127.3982560000004,127.3982560000004,127.3982560000004,127.3982560000004,127.3982560000004,127.3982560000004,127.3982560000004,127.3982560000004,127.3982560000004,,007,P017,2025_Mar_07_1649,ConditionRich,2021.2.3,59.92714058275474,
83.0,83.75,12,0.75,Stimuli/P017/sun_bhvaiabdgxjuwoth.jpg,0,0,0.0,0,159,159,159,,,,,,,,,,,,,83.0218875999999,0.021887599999899976,None,127.64846950000356,127.64846950000356,127.64846950000356,127.64846950000356,127.64846950000356,127.64846950000356,127.64846950000356,127.64846950000356,127.64846950000356,127.64846950000356,,007,P017,2025_Mar_07_1649,ConditionRich,2021.2.3,59.92714058275474,
83.75,84.0,41,0.0,Stimuli/Blank.png,0,0,0.0,0,160,160,160,,,,,,,,,,,,,83.75694409999778,0.00694409999778145,None,128.38245950000055,128.38245950000055,128.38245950000055,128.38245950000055,128.38245950000055,128.38245950000055,128.38245950000055,128.38245950000055,128.38245950000055,128.38245950000055,,007,P017,2025_Mar_07_1649,ConditionRich,2021.2.3,59.92714058275474,
84.0,100.0,0,0.0,Stimuli/Blank.png,1,10,10.75,0,161,161,161,,,,,,,,,,,,,84.0090171999982,0.009017199998197611,None,128.64936350000062,128.64936350000062,128.64936350000062,128.64936350000062,128.64936350000062,128.64936350000062,138.6247934000021,139.37549680000302,128.64936350000062,128.64936350000062,,007,P017,2025_Mar_07_1649,ConditionRich,2021.2.3,59.92714058275474,
100.0,100.75,40,0.75,Stimuli/P017/things_woman_09s.jpg,0,0,0.0,0,162,162,162,,,,,,,,,,,,,100.02038529999845,0.020385299998451956,None,144.6635097000035,144.6635097000035,144.6635097000035,144.6635097000035,144.6635097000035,144.6635097000035,144.6635097000035,144.6635097000035,144.6635097000035,144.6635097000035,,007,P017,2025_Mar_07_1649,ConditionRich,2021.2.3,59.92714058275474,
100.75,101.0,41,0.0,Stimuli/Blank.png,0,0,0.0,0,163,163,163,,,,,,,,,,,,,100.77152980000028,0.021529800000280375,None,145.39748240000335,145.39748240000335,145.39748240000335,145.39748240000335,145.39748240000335,145.39748240000335,145.39748240000335,145.39748240000335,145.39748240000335,145.39748240000335,,007,P017,2025_Mar_07_1649,ConditionRich,2021.2.3,59.92714058275474,
101.0,101.75,40,0.75,Stimuli/P017/things_woman_09s.jpg,0,0,0.0,0,164,164,164,,,,,,,,,,,,,101.00416860000041,0.0041686000004119705,None,145.63102080000317,145.63102080000317,145.63102080000317,145.63102080000317,145.63102080000317,145.63102080000317,145.63102080000317,145.63102080000317,145.63102080000317,145.63102080000317,,007,P017,2025_Mar_07_1649,ConditionRich,2021.2.3,59.92714058275474,
101.75,102.0,41,0.0,Stimuli/Blank.png,0,0,0.0,0,165,165,165,,,,,,,,,,,,,101.75598589999936,0.00598589999935939,None,146.38168730000325,146.38168730000325,146.38168730000325,146.38168730000325,146.38168730000325,146.38168730000325,146.38168730000325,146.38168730000325,146.38168730000325,146.38168730000325,,007,P017,2025_Mar_07_1649,ConditionRich,2021.2.3,59.92714058275474,
102.0,102.75,40,0.75,Stimuli/P017/things_woman_09s.jpg,0,0,0.0,0,166,166,166,,,,,,,,,,,,,102.00479389999964,0.004793899999640416,None,146.6319257000032,146.6319257000032,146.6319257000032,146.6319257000032,146.6319257000032,146.6319257000032,146.6319257000032,146.6319257000032,146.6319257000032,146.6319257000032,,007,P017,2025_Mar_07_1649,ConditionRich,2021.2.3,59.92714058275474,
102.75,103.0,41,0.0,Stimuli/Blank.png,0,0,0.0,0,167,167,167,,,,,,,,,,,,,102.75627929999973,0.006279299999732757,None,147.38259220000327,147.38259220000327,147.38259220000327,147.38259220000327,147.38259220000327,147.38259220000327,147.38259220000327,147.38259220000327,147.38259220000327,147.38259220000327,,007,P017,2025_Mar_07_1649,ConditionRich,2021.2.3,59.92714058275474,
103.0,103.75,40,0.75,Stimuli/P017/things_woman_09s.jpg,0,0,0.0,0,168,168,168,,,,,,,,,,,,,103.00669859999834,0.006698599998344434,None,147.63278430000355,147.63278430000355,147.63278430000355,147.63278430000355,147.63278430000355,147.63278430000355,147.63278430000355,147.63278430000355,147.63278430000355,147.63278430000355,,007,P017,2025_Mar_07_1649,ConditionRich,2021.2.3,59.92714058275474,
103.75,104.0,41,0.0,Stimuli/Blank.png,0,0,0.0,0,169,169,169,,,,,,,,,,,,,103.75644079999984,0.0064407999998365995,None,148.38345990000016,148.38345990000016,148.38345990000016,148.38345990000016,148.38345990000016,148.38345990000016,148.38345990000016,148.38345990000016,148.38345990000016,148.38345990000016,,007,P017,2025_Mar_07_1649,ConditionRich,2021.2.3,59.92714058275474,
104.0,104.75,5,0.75,Stimuli/P017/sun_apojgqgvdvsksdvo.jpg,0,0,0.0,0,170,170,170,,,,,,,,,,,,,104.00706259999788,0.00706259999788017,None,148.63366810000298,148.63366810000298,148.63366810000298,148.63366810000298,148.63366810000298,148.63366810000298,148.63366810000298,148.63366810000298,148.63366810000298,148.63366810000298,,007,P017,2025_Mar_07_1649,ConditionRich,2021.2.3,59.92714058275474,
104.75,105.0,41,0.0,Stimuli/Blank.png,0,0,0.0,0,171,171,171,,,,,,,,,,,,,104.75755610000124,0.007556100001238519,None,149.38433690000238,149.38433690000238,149.38433690000238,149.38433690000238,149.38433690000238,149.38433690000238,149.38433690000238,149.38433690000238,149.38433690000238,149.38433690000238,,007,P017,2025_Mar_07_1649,ConditionRich,2021.2.3,59.92714058275474,
105.0,105.75,5,0.75,Stimuli/P017/sun_apojgqgvdvsksdvo.jpg,0,0,0.0,0,172,172,172,,,,,,,,,,,,,105.00766889999795,0.007668899997952394,None,149.63501420000102,149.63501420000102,149.63501420000102,149.63501420000102,149.63501420000102,149.63501420000102,149.63501420000102,149.63501420000102,149.63501420000102,149.63501420000102,,007,P017,2025_Mar_07_1649,ConditionRich,2021.2.3,59.92714058275474,
105.75,106.0,41,0.0,Stimuli/Blank.png,0,0,0.0,0,173,173,173,,,,,,,,,,,,,105.75897909999912,0.008979099999123719,None,150.38522470000316,150.38522470000316,150.38522470000316,150.38522470000316,150.38522470000316,150.38522470000316,150.38522470000316,150.38522470000316,150.38522470000316,150.38522470000316,,007,P017,2025_Mar_07_1649,ConditionRich,2021.2.3,59.92714058275474,
106.0,106.75,5,0.75,Stimuli/P017/sun_apojgqgvdvsksdvo.jpg,1,0,0.75,0,174,174,174,,,,,,,,,,,,,106.00835540000116,0.008355400001164526,1,150.6354354000032,150.6354354000032,150.6354354000032,150.6354354000032,150.6354354000032,150.6354354000032,150.6354354000032,151.3694159000006,150.6354354000032,150.6354354000032,0.4275845999982266,007,P017,2025_Mar_07_1649,ConditionRich,2021.2.3,59.92714058275474,
106.75,107.0,41,0.0,Stimuli/Blank.png,0,0,0.0,0,175,175,175,,,,,,,,,,,,,106.75901629999862,0.009016299998620525,None,151.38610050000352,151.38610050000352,151.38610050000352,151.38610050000352,151.38610050000352,151.38610050000352,151.38610050000352,151.38610050000352,151.38610050000352,151.38610050000352,,007,P017,2025_Mar_07_1649,ConditionRich,2021.2.3,59.92714058275474,
107.0,107.75,5,0.75,Stimuli/P017/sun_apojgqgvdvsksdvo.jpg,0,0,0.0,0,176,176,176,,,,,,,,,,,,,107.00915099999838,0.009150999998382758,None,151.63632210000287,151.63632210000287,151.63632210000287,151.63632210000287,151.63632210000287,151.63632210000287,151.63632210000287,151.63632210000287,151.63632210000287,151.63632210000287,,007,P017,2025_Mar_07_1649,ConditionRich,2021.2.3,59.92714058275474,
107.75,108.0,41,0.0,Stimuli/Blank.png,0,0,0.0,0,177,177,177,,,,,,,,,,,,,107.76050219999888,0.010502199998882134,None,152.3870870000028,152.3870870000028,152.3870870000028,152.3870870000028,152.3870870000028,152.3870870000028,152.3870870000028,152.3870870000028,152.3870870000028,152.3870870000028,,007,P017,2025_Mar_07_1649,ConditionRich,2021.2.3,59.92714058275474,
108.0,108.75,23,0.75,Stimuli/P017/things_boy_09s.jpg,0,0,0.0,0,178,178,178,,,,,,,,,,,,,108.01085009999952,0.010850099999515805,None,152.65391130000353,152.65391130000353,152.65391130000353,152.65391130000353,152.65391130000353,152.65391130000353,152.65391130000353,152.65391130000353,152.65391130000353,152.65391130000353,,007,P017,2025_Mar_07_1649,ConditionRich,2021.2.3,59.92714058275474,
108.75,109.0,41,0.0,Stimuli/Blank.png,0,0,0.0,0,179,179,179,,,,,,,,,,,,,108.77877129999979,0.028771299999789335,None,153.40456880000056,153.40456880000056,153.40456880000056,153.40456880000056,153.40456880000056,153.40456880000056,153.40456880000056,153.40456880000056,153.40456880000056,153.40456880000056,,007,P017,2025_Mar_07_1649,ConditionRich,2021.2.3,59.92714058275474,
109.0,109.75,23,0.75,Stimuli/P017/things_boy_09s.jpg,0,0,0.0,0,180,180,180,,,,,,,,,,,,,109.0138412999986,0.013841299998603063,None,153.6548040000016,153.6548040000016,153.6548040000016,153.6548040000016,153.6548040000016,153.6548040000016,153.6548040000016,153.6548040000016,153.6548040000016,153.6548040000016,,007,P017,2025_Mar_07_1649,ConditionRich,2021.2.3,59.92714058275474,
109.75,110.0,41,0.0,Stimuli/Blank.png,0,0,0.0,0,181,181,181,,,,,,,,,,,,,109.77915909999865,0.029159099998651072,None,154.40544930000033,154.40544930000033,154.40544930000033,154.40544930000033,154.40544930000033,154.40544930000033,154.40544930000033,154.40544930000033,154.40544930000033,154.40544930000033,,007,P017,2025_Mar_07_1649,ConditionRich,2021.2.3,59.92714058275474,
110.0,110.75,23,0.75,Stimuli/P017/things_boy_09s.jpg,0,0,0.0,0,182,182,182,,,,,,,,,,,,,110.01235589999851,0.012355899998510722,None,154.63898580000023,154.63898580000023,154.63898580000023,154.63898580000023,154.63898580000023,154.63898580000023,154.63898580000023,154.63898580000023,154.63898580000023,154.63898580000023,,007,P017,2025_Mar_07_1649,ConditionRich,2021.2.3,59.92714058275474,
110.75,111.0,41,0.0,Stimuli/Blank.png,0,0,0.0,0,183,183,183,,,,,,,,,,,,,110.76297899999918,0.012978999999177177,None,155.38964580000174,155.38964580000174,155.38964580000174,155.38964580000174,155.38964580000174,155.38964580000174,155.38964580000174,155.38964580000174,155.38964580000174,155.38964580000174,,007,P017,2025_Mar_07_1649,ConditionRich,2021.2.3,59.92714058275474,
111.0,111.75,23,0.75,Stimuli/P017/things_boy_09s.jpg,0,0,0.0,0,184,184,184,,,,,,,,,,,,,111.01395100000082,0.013951000000815839,None,155.65655570000308,155.65655570000308,155.65655570000308,155.65655570000308,155.65655570000308,155.65655570000308,155.65655570000308,155.65655570000308,155.65655570000308,155.65655570000308,,007,P017,2025_Mar_07_1649,ConditionRich,2021.2.3,59.92714058275474,
111.75,112.0,41,0.0,Stimuli/Blank.png,0,0,0.0,0,185,185,185,,,,,,,,,,,,,111.78303969999979,0.03303969999979017,None,156.42390090000117,156.42390090000117,156.42390090000117,156.42390090000117,156.42390090000117,156.42390090000117,156.42390090000117,156.42390090000117,156.42390090000117,156.42390090000117,,007,P017,2025_Mar_07_1649,ConditionRich,2021.2.3,59.92714058275474,
112.0,112.75,29,0.75,Stimuli/P017/things_face_09s.jpg,0,0,0.0,0,186,186,186,,,,,,,,,,,,,112.0138337999997,0.013833799999702023,None,156.6407539000029,156.6407539000029,156.6407539000029,156.6407539000029,156.6407539000029,156.6407539000029,156.6407539000029,156.6407539000029,156.6407539000029,156.6407539000029,,007,P017,2025_Mar_07_1649,ConditionRich,2021.2.3,59.92714058275474,
112.75,113.0,41,0.0,Stimuli/Blank.png,0,0,0.0,0,187,187,187,,,,,,,,,,,,,112.76521489999868,0.015214899998682085,None,157.3915244000018,157.3915244000018,157.3915244000018,157.3915244000018,157.3915244000018,157.3915244000018,157.3915244000018,157.3915244000018,157.3915244000018,157.3915244000018,,007,P017,2025_Mar_07_1649,ConditionRich,2021.2.3,59.92714058275474,
113.0,113.75,29,0.75,Stimuli/P017/things_face_09s.jpg,0,0,0.0,0,188,188,188,,,,,,,,,,,,,113.01530719999937,0.015307199999369914,None,157.6583165000011,157.6583165000011,157.6583165000011,157.6583165000011,157.6583165000011,157.6583165000011,157.6583165000011,157.6583165000011,157.6583165000011,157.6583165000011,,007,P017,2025_Mar_07_1649,ConditionRich,2021.2.3,59.92714058275474,
113.75,114.0,41,0.0,Stimuli/Blank.png,0,0,0.0,0,189,189,189,,,,,,,,,,,,,113.76820969999972,0.018209699999715667,None,158.40899680000075,158.40899680000075,158.40899680000075,158.40899680000075,158.40899680000075,158.40899680000075,158.40899680000075,158.40899680000075,158.40899680000075,158.40899680000075,,007,P017,2025_Mar_07_1649,ConditionRich,2021.2.3,59.92714058275474,
114.0,114.75,29,0.75,Stimuli/P017/things_face_09s.jpg,0,0,0.0,0,190,190,190,,,,,,,,,,,,,114.01568860000043,0.015688600000430597,None,158.64252280000073,158.64252280000073,158.64252280000073,158.64252280000073,158.64252280000073,158.64252280000073,158.64252280000073,158.64252280000073,158.64252280000073,158.64252280000073,,007,P017,2025_Mar_07_1649,ConditionRich,2021.2.3,59.92714058275474,
114.75,115.0,41,0.0,Stimuli/Blank.png,0,0,0.0,0,191,191,191,,,,,,,,,,,,,114.75018269999782,0.0001826999978220556,None,159.37649890000102,159.37649890000102,159.37649890000102,159.37649890000102,159.37649890000102,159.37649890000102,159.37649890000102,159.37649890000102,159.37649890000102,159.37649890000102,,007,P017,2025_Mar_07_1649,ConditionRich,2021.2.3,59.92714058275474,
115.0,115.75,29,0.75,Stimuli/P017/things_face_09s.jpg,0,0,0.0,0,192,192,192,,,,,,,,,,,,,115.00061220000134,0.0006122000013419893,None,159.643409100001,159.643409100001,159.643409100001,159.643409100001,159.643409100001,159.643409100001,159.643409100001,159.643409100001,159.643409100001,159.643409100001,,007,P017,2025_Mar_07_1649,ConditionRich,2021.2.3,59.92714058275474,
115.75,116.0,41,0.0,Stimuli/Blank.png,0,0,0.0,0,193,193,193,,,,,,,,,,,,,115.7690333999999,0.019033399999898393,None,160.41075660000206,160.41075660000206,160.41075660000206,160.41075660000206,160.41075660000206,160.41075660000206,160.41075660000206,160.41075660000206,160.41075660000206,160.41075660000206,,007,P017,2025_Mar_07_1649,ConditionRich,2021.2.3,59.92714058275474,
116.0,116.75,3,0.75,Stimuli/P017/sun_acymmczhyuiimeub.jpg,0,0,0.0,0,194,194,194,,,,,,,,,,,,,116.0182223999982,0.018222399998194305,None,160.64428570000018,160.64428570000018,160.64428570000018,160.64428570000018,160.64428570000018,160.64428570000018,160.64428570000018,160.64428570000018,160.64428570000018,160.64428570000018,,007,P017,2025_Mar_07_1649,ConditionRich,2021.2.3,59.92714058275474,
116.75,117.0,41,0.0,Stimuli/Blank.png,0,0,0.0,0,195,195,195,,,,,,,,,,,,,116.75334020000082,0.0033402000008209143,None,161.3949769000028,161.3949769000028,161.3949769000028,161.3949769000028,161.3949769000028,161.3949769000028,161.3949769000028,161.3949769000028,161.3949769000028,161.3949769000028,,007,P017,2025_Mar_07_1649,ConditionRich,2021.2.3,59.92714058275474,
117.0,117.75,3,0.75,Stimuli/P017/sun_acymmczhyuiimeub.jpg,0,0,0.0,0,196,196,196,,,,,,,,,,,,,117.01913309999873,0.01913309999872581,None,161.66185530000075,161.66185530000075,161.66185530000075,161.66185530000075,161.66185530000075,161.66185530000075,161.66185530000075,161.66185530000075,161.66185530000075,161.66185530000075,,007,P017,2025_Mar_07_1649,ConditionRich,2021.2.3,59.92714058275474,
117.75,118.0,41,0.0,Stimuli/Blank.png,0,0,0.0,0,197,197,197,,,,,,,,,,,,,117.76952420000089,0.019524200000887504,None,162.3958347000007,162.3958347000007,162.3958347000007,162.3958347000007,162.3958347000007,162.3958347000007,162.3958347000007,162.3958347000007,162.3958347000007,162.3958347000007,,007,P017,2025_Mar_07_1649,ConditionRich,2021.2.3,59.92714058275474,
118.0,118.75,3,0.75,Stimuli/P017/sun_acymmczhyuiimeub.jpg,0,0,0.0,0,198,198,198,,,,,,,,,,,,,118.00260630000048,0.0026063000004796777,None,162.6293489000018,162.6293489000018,162.6293489000018,162.6293489000018,162.6293489000018,162.6293489000018,162.6293489000018,162.6293489000018,162.6293489000018,162.6293489000018,,007,P017,2025_Mar_07_1649,ConditionRich,2021.2.3,59.92714058275474,
118.75,119.0,41,0.0,Stimuli/Blank.png,0,0,0.0,0,199,199,199,,,,,,,,,,,,,118.75368349999917,0.003683499999169726,None,163.3800411000011,163.3800411000011,163.3800411000011,163.3800411000011,163.3800411000011,163.3800411000011,163.3800411000011,163.3800411000011,163.3800411000011,163.3800411000011,,007,P017,2025_Mar_07_1649,ConditionRich,2021.2.3,59.92714058275474,
119.0,119.75,3,0.75,Stimuli/P017/sun_acymmczhyuiimeub.jpg,0,0,0.0,0,200,200,200,,,,,,,,,,,,,119.00516639999842,0.005166399998415727,None,163.64694780000355,163.64694780000355,163.64694780000355,163.64694780000355,163.64694780000355,163.64694780000355,163.64694780000355,163.64694780000355,163.64694780000355,163.64694780000355,,007,P017,2025_Mar_07_1649,ConditionRich,2021.2.3,59.92714058275474,
119.75,120.0,41,0.0,Stimuli/Blank.png,0,0,0.0,0,201,201,201,,,,,,,,,,,,,119.77301489999809,0.023014899998088367,None,164.4150725000036,164.4150725000036,164.4150725000036,164.4150725000036,164.4150725000036,164.4150725000036,164.4150725000036,164.4150725000036,164.4150725000036,164.4150725000036,,007,P017,2025_Mar_07_1649,ConditionRich,2021.2.3,59.92714058275474,
120.0,120.75,28,0.75,Stimuli/P017/things_collar_09s.jpg,0,0,0.0,0,202,202,202,,,,,,,,,,,,,120.02268689999983,0.022686899999825982,None,164.66452210000352,164.66452210000352,164.66452210000352,164.66452210000352,164.66452210000352,164.66452210000352,164.66452210000352,164.66452210000352,164.66452210000352,164.66452210000352,,007,P017,2025_Mar_07_1649,ConditionRich,2021.2.3,59.92714058275474,
120.75,121.0,41,0.0,Stimuli/Blank.png,0,0,0.0,0,203,203,203,,,,,,,,,,,,,120.77240379999785,0.022403799997846363,None,165.39850260000094,165.39850260000094,165.39850260000094,165.39850260000094,165.39850260000094,165.39850260000094,165.39850260000094,165.39850260000094,165.39850260000094,165.39850260000094,,007,P017,2025_Mar_07_1649,ConditionRich,2021.2.3,59.92714058275474,
121.0,121.75,28,0.75,Stimuli/P017/things_collar_09s.jpg,1,0,0.75,0,204,204,204,,,,,,,,,,,,,121.00496339999881,0.004963399998814566,1,165.63200070000312,165.63200070000312,165.63200070000312,165.63200070000312,165.63200070000312,165.63200070000312,165.63200070000312,166.36605310000232,165.63200070000312,165.63200070000312,0.4660407000010309,007,P017,2025_Mar_07_1649,ConditionRich,2021.2.3,59.92714058275474,
121.75,122.0,41,0.0,Stimuli/Blank.png,0,0,0.0,0,205,205,205,,,,,,,,,,,,,121.75815489999877,0.008154899998771725,None,166.3993913000013,166.3993913000013,166.3993913000013,166.3993913000013,166.3993913000013,166.3993913000013,166.3993913000013,166.3993913000013,166.3993913000013,166.3993913000013,,007,P017,2025_Mar_07_1649,ConditionRich,2021.2.3,59.92714058275474,
122.0,122.75,28,0.75,Stimuli/P017/things_collar_09s.jpg,0,0,0.0,0,206,206,206,,,,,,,,,,,,,122.02444199999809,0.02444199999808916,None,166.66628400000263,166.66628400000263,166.66628400000263,166.66628400000263,166.66628400000263,166.66628400000263,166.66628400000263,166.66628400000263,166.66628400000263,166.66628400000263,,007,P017,2025_Mar_07_1649,ConditionRich,2021.2.3,59.92714058275474,
122.75,123.0,41,0.0,Stimuli/Blank.png,0,0,0.0,0,207,207,207,,,,,,,,,,,,,122.77385009999853,0.023850099998526275,None,167.40027100000225,167.40027100000225,167.40027100000225,167.40027100000225,167.40027100000225,167.40027100000225,167.40027100000225,167.40027100000225,167.40027100000225,167.40027100000225,,007,P017,2025_Mar_07_1649,ConditionRich,2021.2.3,59.92714058275474,
123.0,123.75,28,0.75,Stimuli/P017/things_collar_09s.jpg,0,0,0.0,0,208,208,208,,,,,,,,,,,,,123.00787510000009,0.007875100000092061,None,167.6504771,167.6504771,167.6504771,167.6504771,167.6504771,167.6504771,167.6504771,167.6504771,167.6504771,167.6504771,,007,P017,2025_Mar_07_1649,ConditionRich,2021.2.3,59.92714058275474,
123.75,124.0,41,0.0,Stimuli/Blank.png,0,0,0.0,0,209,209,209,,,,,,,,,,,,,123.7747391999983,0.02473919999829377,None,168.40111850000176,168.40111850000176,168.40111850000176,168.40111850000176,168.40111850000176,168.40111850000176,168.40111850000176,168.40111850000176,168.40111850000176,168.40111850000176,,007,P017,2025_Mar_07_1649,ConditionRich,2021.2.3,59.92714058275474,
124.0,124.75,30,0.75,Stimuli/P017/things_girl_09s.jpg,0,0,0.0,0,210,210,210,,,,,,,,,,,,,124.00818169999911,0.008181699999113334,None,168.63470200000302,168.63470200000302,168.63470200000302,168.63470200000302,168.63470200000302,168.63470200000302,168.63470200000302,168.63470200000302,168.63470200000302,168.63470200000302,,007,P017,2025_Mar_07_1649,ConditionRich,2021.2.3,59.92714058275474,
124.75,125.0,41,0.0,Stimuli/Blank.png,0,0,0.0,0,211,211,211,,,,,,,,,,,,,124.75836069999787,0.008360699997865595,None,169.3853474000025,169.3853474000025,169.3853474000025,169.3853474000025,169.3853474000025,169.3853474000025,169.3853474000025,169.3853474000025,169.3853474000025,169.3853474000025,,007,P017,2025_Mar_07_1649,ConditionRich,2021.2.3,59.92714058275474,
125.0,125.75,30,0.75,Stimuli/P017/things_girl_09s.jpg,0,0,0.0,0,212,212,212,,,,,,,,,,,,,125.00927969999975,0.009279699999751756,None,169.63557950000177,169.63557950000177,169.63557950000177,169.63557950000177,169.63557950000177,169.63557950000177,169.63557950000177,169.63557950000177,169.63557950000177,169.63557950000177,,007,P017,2025_Mar_07_1649,ConditionRich,2021.2.3,59.92714058275474,
125.75,126.0,41,0.0,Stimuli/Blank.png,0,0,0.0,0,213,213,213,,,,,,,,,,,,,125.7591805000011,0.009180500001093606,None,170.3862317000021,170.3862317000021,170.3862317000021,170.3862317000021,170.3862317000021,170.3862317000021,170.3862317000021,170.3862317000021,170.3862317000021,170.3862317000021,,007,P017,2025_Mar_07_1649,ConditionRich,2021.2.3,59.92714058275474,
126.0,126.75,30,0.75,Stimuli/P017/things_girl_09s.jpg,0,0,0.0,0,214,214,214,,,,,,,,,,,,,126.00991599999907,0.009915999999066116,None,170.63644740000018,170.63644740000018,170.63644740000018,170.63644740000018,170.63644740000018,170.63644740000018,170.63644740000018,170.63644740000018,170.63644740000018,170.63644740000018,,007,P017,2025_Mar_07_1649,ConditionRich,2021.2.3,59.92714058275474,
126.75,127.0,41,0.0,Stimuli/Blank.png,0,0,0.0,0,215,215,215,,,,,,,,,,,,,126.76309290000063,0.013092900000629015,None,171.40380540000115,171.40380540000115,171.40380540000115,171.40380540000115,171.40380540000115,171.40380540000115,171.40380540000115,171.40380540000115,171.40380540000115,171.40380540000115,,007,P017,2025_Mar_07_1649,ConditionRich,2021.2.3,59.92714058275474,
127.0,127.75,30,0.75,Stimuli/P017/things_girl_09s.jpg,0,0,0.0,0,216,216,216,,,,,,,,,,,,,127.02697329999864,0.026973299998644507,None,171.6539808000016,171.6539808000016,171.6539808000016,171.6539808000016,171.6539808000016,171.6539808000016,171.6539808000016,171.6539808000016,171.6539808000016,171.6539808000016,,007,P017,2025_Mar_07_1649,ConditionRich,2021.2.3,59.92714058275474,
127.75,128.0,41,0.0,Stimuli/Blank.png,0,0,0.0,0,217,217,217,,,,,,,,,,,,,127.76301590000003,0.013015900000027614,None,172.404696900001,172.404696900001,172.404696900001,172.404696900001,172.404696900001,172.404696900001,172.404696900001,172.404696900001,172.404696900001,172.404696900001,,007,P017,2025_Mar_07_1649,ConditionRich,2021.2.3,59.92714058275474,
128.0,128.75,21,0.75,Stimuli/P017/things_baby_09s.jpg,0,0,0.0,0,218,218,218,,,,,,,,,,,,,128.02788009999858,0.02788009999858332,None,172.65493730000162,172.65493730000162,172.65493730000162,172.65493730000162,172.65493730000162,172.65493730000162,172.65493730000162,172.65493730000162,172.65493730000162,172.65493730000162,,007,P017,2025_Mar_07_1649,ConditionRich,2021.2.3,59.92714058275474,
128.75,129.0,41,0.0,Stimuli/Blank.png,0,0,0.0,0,219,219,219,,,,,,,,,,,,,128.76274299999932,0.012742999999318272,None,173.38890130000073,173.38890130000073,173.38890130000073,173.38890130000073,173.38890130000073,173.38890130000073,173.38890130000073,173.38890130000073,173.38890130000073,173.38890130000073,,007,P017,2025_Mar_07_1649,ConditionRich,2021.2.3,59.92714058275474,
129.0,129.75,21,0.75,Stimuli/P017/things_baby_09s.jpg,0,0,0.0,0,220,220,220,,,,,,,,,,,,,129.01208849999966,0.012088499999663327,None,173.6391046000026,173.6391046000026,173.6391046000026,173.6391046000026,173.6391046000026,173.6391046000026,173.6391046000026,173.6391046000026,173.6391046000026,173.6391046000026,,007,P017,2025_Mar_07_1649,ConditionRich,2021.2.3,59.92714058275474,
129.75,130.0,41,0.0,Stimuli/Blank.png,0,0,0.0,0,221,221,221,,,,,,,,,,,,,129.76334439999846,0.013344399998459266,None,174.3897887000021,174.3897887000021,174.3897887000021,174.3897887000021,174.3897887000021,174.3897887000021,174.3897887000021,174.3897887000021,174.3897887000021,174.3897887000021,,007,P017,2025_Mar_07_1649,ConditionRich,2021.2.3,59.92714058275474,
130.0,130.75,21,0.75,Stimuli/P017/things_baby_09s.jpg,0,0,0.0,0,222,222,222,,,,,,,,,,,,,130.0134462999995,0.013446299999486655,None,174.6399848000001,174.6399848000001,174.6399848000001,174.6399848000001,174.6399848000001,174.6399848000001,174.6399848000001,174.6399848000001,174.6399848000001,174.6399848000001,,007,P017,2025_Mar_07_1649,ConditionRich,2021.2.3,59.92714058275474,
130.75,131.0,41,0.0,Stimuli/Blank.png,0,0,0.0,0,223,223,223,,,,,,,,,,,,,130.7643054,0.014305400000012014,None,175.39065460000347,175.39065460000347,175.39065460000347,175.39065460000347,175.39065460000347,175.39065460000347,175.39065460000347,175.39065460000347,175.39065460000347,175.39065460000347,,007,P017,2025_Mar_07_1649,ConditionRich,2021.2.3,59.92714058275474,
131.0,131.75,21,0.75,Stimuli/P017/things_baby_09s.jpg,1,0,0.75,0,224,224,224,,,,,,,,,,,,,131.01390379999793,0.013903799997933675,1,175.6408704000023,175.6408704000023,175.6408704000023,175.6408704000023,175.6408704000023,175.6408704000023,175.6408704000023,176.37486239999998,175.6408704000023,175.6408704000023,0.6831288000030327,007,P017,2025_Mar_07_1649,ConditionRich,2021.2.3,59.92714058275474,
131.75,132.0,41,0.0,Stimuli/Blank.png,0,0,0.0,0,225,225,225,,,,,,,,,,,,,131.7648909999989,0.014890999998897314,None,176.39153950000036,176.39153950000036,176.39153950000036,176.39153950000036,176.39153950000036,176.39153950000036,176.39153950000036,176.39153950000036,176.39153950000036,176.39153950000036,,007,P017,2025_Mar_07_1649,ConditionRich,2021.2.3,59.92714058275474,
132.0,132.75,1,0.75,Stimuli/P017/sun_aawmwfqqbzauhqkb.jpg,0,0,0.0,0,226,226,226,,,,,,,,,,,,,132.01482960000067,0.014829600000666687,None,176.64175630000318,176.64175630000318,176.64175630000318,176.64175630000318,176.64175630000318,176.64175630000318,176.64175630000318,176.64175630000318,176.64175630000318,176.64175630000318,,007,P017,2025_Mar_07_1649,ConditionRich,2021.2.3,59.92714058275474,
132.75,133.0,41,0.0,Stimuli/Blank.png,0,0,0.0,0,227,227,227,,,,,,,,,,,,,132.76638939999975,0.01638939999975264,None,177.39243970000098,177.39243970000098,177.39243970000098,177.39243970000098,177.39243970000098,177.39243970000098,177.39243970000098,177.39243970000098,177.39243970000098,177.39243970000098,,007,P017,2025_Mar_07_1649,ConditionRich,2021.2.3,59.92714058275474,
133.0,133.75,1,0.75,Stimuli/P017/sun_aawmwfqqbzauhqkb.jpg,0,0,0.0,0,228,228,228,,,,,,,,,,,,,132.99961469999835,-0.00038530000165337697,None,177.62596400000257,177.62596400000257,177.62596400000257,177.62596400000257,177.62596400000257,177.62596400000257,177.62596400000257,177.62596400000257,177.62596400000257,177.62596400000257,,007,P017,2025_Mar_07_1649,ConditionRich,2021.2.3,59.92714058275474,
133.75,134.0,41,0.0,Stimuli/Blank.png,0,0,0.0,0,229,229,229,,,,,,,,,,,,,133.75057039999956,0.0005703999995603226,None,178.3767042000036,178.3767042000036,178.3767042000036,178.3767042000036,178.3767042000036,178.3767042000036,178.3767042000036,178.3767042000036,178.3767042000036,178.3767042000036,,007,P017,2025_Mar_07_1649,ConditionRich,2021.2.3,59.92714058275474,
134.0,134.75,1,0.75,Stimuli/P017/sun_aawmwfqqbzauhqkb.jpg,0,0,0.0,0,230,230,230,,,,,,,,,,,,,134.00019460000112,0.00019460000112303533,None,178.64349550000043,178.64349550000043,178.64349550000043,178.64349550000043,178.64349550000043,178.64349550000043,178.64349550000043,178.64349550000043,178.64349550000043,178.64349550000043,,007,P017,2025_Mar_07_1649,ConditionRich,2021.2.3,59.92714058275474,
134.75,135.0,41,0.0,Stimuli/Blank.png,0,0,0.0,0,231,231,231,,,,,,,,,,,,,134.76871449999817,0.01871449999816832,None,179.39421340000263,179.39421340000263,179.39421340000263,179.39421340000263,179.39421340000263,179.39421340000263,179.39421340000263,179.39421340000263,179.39421340000263,179.39421340000263,,007,P017,2025_Mar_07_1649,ConditionRich,2021.2.3,59.92714058275474,
135.0,135.75,1,0.75,Stimuli/P017/sun_aawmwfqqbzauhqkb.jpg,0,0,0.0,0,232,232,232,,,,,,,,,,,,,135.00326750000022,0.003267500000220025,None,179.64442220000274,179.64442220000274,179.64442220000274,179.64442220000274,179.64442220000274,179.64442220000274,179.64442220000274,179.64442220000274,179.64442220000274,179.64442220000274,,007,P017,2025_Mar_07_1649,ConditionRich,2021.2.3,59.92714058275474,
135.75,136.0,41,0.0,Stimuli/Blank.png,0,0,0.0,0,233,233,233,,,,,,,,,,,,,135.7679782999985,0.017978299998503644,None,180.39508010000282,180.39508010000282,180.39508010000282,180.39508010000282,180.39508010000282,180.39508010000282,180.39508010000282,180.39508010000282,180.39508010000282,180.39508010000282,,007,P017,2025_Mar_07_1649,ConditionRich,2021.2.3,59.92714058275474,
136.0,136.75,36,0.75,Stimuli/P017/things_nest_09s.jpg,0,0,0.0,0,234,234,234,,,,,,,,,,,,,136.00265959999888,0.002659599998878548,None,180.62858290000077,180.62858290000077,180.62858290000077,180.62858290000077,180.62858290000077,180.62858290000077,180.62858290000077,180.62858290000077,180.62858290000077,180.62858290000077,,007,P017,2025_Mar_07_1649,ConditionRich,2021.2.3,59.92714058275474,
136.75,137.0,41,0.0,Stimuli/Blank.png,0,0,0.0,0,235,235,235,,,,,,,,,,,,,136.75293629999942,0.002936299999419134,None,181.37928600000305,181.37928600000305,181.37928600000305,181.37928600000305,181.37928600000305,181.37928600000305,181.37928600000305,181.37928600000305,181.37928600000305,181.37928600000305,,007,P017,2025_Mar_07_1649,ConditionRich,2021.2.3,59.92714058275474,
137.0,137.75,36,0.75,Stimuli/P017/things_nest_09s.jpg,0,0,0.0,0,236,236,236,,,,,,,,,,,,,137.00305859999935,0.0030585999993490987,None,181.6294772000001,181.6294772000001,181.6294772000001,181.6294772000001,181.6294772000001,181.6294772000001,181.6294772000001,181.6294772000001,181.6294772000001,181.6294772000001,,007,P017,2025_Mar_07_1649,ConditionRich,2021.2.3,59.92714058275474,
137.75,138.0,41,0.0,Stimuli/Blank.png,0,0,0.0,0,237,237,237,,,,,,,,,,,,,137.75420269999813,0.00420269999813172,None,182.38017870000112,182.38017870000112,182.38017870000112,182.38017870000112,182.38017870000112,182.38017870000112,182.38017870000112,182.38017870000112,182.38017870000112,182.38017870000112,,007,P017,2025_Mar_07_1649,ConditionRich,2021.2.3,59.92714058275474,
138.0,138.75,36,0.75,Stimuli/P017/things_nest_09s.jpg,0,0,0.0,0,238,238,238,,,,,,,,,,,,,138.00434269999823,0.004342699998233002,None,182.6471018000011,182.6471018000011,182.6471018000011,182.6471018000011,182.6471018000011,182.6471018000011,182.6471018000011,182.6471018000011,182.6471018000011,182.6471018000011,,007,P017,2025_Mar_07_1649,ConditionRich,2021.2.3,59.92714058275474,
138.75,139.0,41,0.0,Stimuli/Blank.png,0,0,0.0,0,239,239,239,,,,,,,,,,,,,138.77303449999818,0.023034499998175306,None,183.41442940000343,183.41442940000343,183.41442940000343,183.41442940000343,183.41442940000343,183.41442940000343,183.41442940000343,183.41442940000343,183.41442940000343,183.41442940000343,,007,P017,2025_Mar_07_1649,ConditionRich,2021.2.3,59.92714058275474,
139.0,139.75,36,0.75,Stimuli/P017/things_nest_09s.jpg,0,0,0.0,0,240,240,240,,,,,,,,,,,,,139.0230757999998,0.023075799999787705,None,183.66464600000108,183.66464600000108,183.66464600000108,183.66464600000108,183.66464600000108,183.66464600000108,183.66464600000108,183.66464600000108,183.66464600000108,183.66464600000108,,007,P017,2025_Mar_07_1649,ConditionRich,2021.2.3,59.92714058275474,
139.75,140.0,41,0.0,Stimuli/Blank.png,0,0,0.0,0,241,241,241,,,,,,,,,,,,,139.77440569999817,0.02440569999816944,None,184.41530830000193,184.41530830000193,184.41530830000193,184.41530830000193,184.41530830000193,184.41530830000193,184.41530830000193,184.41530830000193,184.41530830000193,184.41530830000193,,007,P017,2025_Mar_07_1649,ConditionRich,2021.2.3,59.92714058275474,
140.0,140.75,2,0.75,Stimuli/P017/sun_acliytrpktltxwsx.jpg,0,0,0.0,0,242,242,242,,,,,,,,,,,,,140.02222469999833,0.022224699998332653,None,184.6488449000026,184.6488449000026,184.6488449000026,184.6488449000026,184.6488449000026,184.6488449000026,184.6488449000026,184.6488449000026,184.6488449000026,184.6488449000026,,007,P017,2025_Mar_07_1649,ConditionRich,2021.2.3,59.92714058275474,
140.75,141.0,41,0.0,Stimuli/Blank.png,0,0,0.0,0,243,243,243,,,,,,,,,,,,,140.75869189999867,0.008691899998666486,None,185.39951330000258,185.39951330000258,185.39951330000258,185.39951330000258,185.39951330000258,185.39951330000258,185.39951330000258,185.39951330000258,185.39951330000258,185.39951330000258,,007,P017,2025_Mar_07_1649,ConditionRich,2021.2.3,59.92714058275474,
141.0,141.75,2,0.75,Stimuli/P017/sun_acliytrpktltxwsx.jpg,0,0,0.0,0,244,244,244,,,,,,,,,,,,,141.0232701999994,0.02327019999938784,None,185.6664245000029,185.6664245000029,185.6664245000029,185.6664245000029,185.6664245000029,185.6664245000029,185.6664245000029,185.6664245000029,185.6664245000029,185.6664245000029,,007,P017,2025_Mar_07_1649,ConditionRich,2021.2.3,59.92714058275474,
141.75,142.0,41,0.0,Stimuli/Blank.png,0,0,0.0,0,245,245,245,,,,,,,,,,,,,141.7732733999983,0.02327339999828837,None,186.4003883000005,186.4003883000005,186.4003883000005,186.4003883000005,186.4003883000005,186.4003883000005,186.4003883000005,186.4003883000005,186.4003883000005,186.4003883000005,,007,P017,2025_Mar_07_1649,ConditionRich,2021.2.3,59.92714058275474,
142.0,142.75,2,0.75,Stimuli/P017/sun_acliytrpktltxwsx.jpg,0,0,0.0,0,246,246,246,,,,,,,,,,,,,142.0084207,0.008420699999987846,None,186.65061290000085,186.65061290000085,186.65061290000085,186.65061290000085,186.65061290000085,186.65061290000085,186.65061290000085,186.65061290000085,186.65061290000085,186.65061290000085,,007,P017,2025_Mar_07_1649,ConditionRich,2021.2.3,59.92714058275474,
142.75,143.0,41,0.0,Stimuli/Blank.png,0,0,0.0,0,247,247,247,,,,,,,,,,,,,142.7747801000005,0.02478010000049835,None,187.40127550000034,187.40127550000034,187.40127550000034,187.40127550000034,187.40127550000034,187.40127550000034,187.40127550000034,187.40127550000034,187.40127550000034,187.40127550000034,,007,P017,2025_Mar_07_1649,ConditionRich,2021.2.3,59.92714058275474,
143.0,143.75,2,0.75,Stimuli/P017/sun_acliytrpktltxwsx.jpg,0,0,0.0,0,248,248,248,,,,,,,,,,,,,143.00831349999862,0.00831349999862141,None,187.65151710000282,187.65151710000282,187.65151710000282,187.65151710000282,187.65151710000282,187.65151710000282,187.65151710000282,187.65151710000282,187.65151710000282,187.65151710000282,,007,P017,2025_Mar_07_1649,ConditionRich,2021.2.3,59.92714058275474,
143.75,144.0,41,0.0,Stimuli/Blank.png,0,0,0.0,0,249,249,249,,,,,,,,,,,,,143.77503499999875,0.025034999998752028,None,188.4021524000018,188.4021524000018,188.4021524000018,188.4021524000018,188.4021524000018,188.4021524000018,188.4021524000018,188.4021524000018,188.4021524000018,188.4021524000018,,007,P017,2025_Mar_07_1649,ConditionRich,2021.2.3,59.92714058275474,
144.0,144.75,11,0.75,Stimuli/P017/sun_bdzxsadvniuolmio.jpg,0,0,0.0,0,250,250,250,,,,,,,,,,,,,144.00929529999848,0.009295299998484552,None,188.63569270000153,188.63569270000153,188.63569270000153,188.63569270000153,188.63569270000153,188.63569270000153,188.63569270000153,188.63569270000153,188.63569270000153,188.63569270000153,,007,P017,2025_Mar_07_1649,ConditionRich,2021.2.3,59.92714058275474,
144.75,145.0,41,0.0,Stimuli/Blank.png,0,0,0.0,0,251,251,251,,,,,,,,,,,,,144.75924769999983,0.009247699999832548,None,189.38635330000034,189.38635330000034,189.38635330000034,189.38635330000034,189.38635330000034,189.38635330000034,189.38635330000034,189.38635330000034,189.38635330000034,189.38635330000034,,007,P017,2025_Mar_07_1649,ConditionRich,2021.2.3,59.92714058275474,
145.0,145.75,11,0.75,Stimuli/P017/sun_bdzxsadvniuolmio.jpg,0,0,0.0,0,252,252,252,,,,,,,,,,,,,145.01030230000106,0.010302300001058029,None,189.6532769000005,189.6532769000005,189.6532769000005,189.6532769000005,189.6532769000005,189.6532769000005,189.6532769000005,189.6532769000005,189.6532769000005,189.6532769000005,,007,P017,2025_Mar_07_1649,ConditionRich,2021.2.3,59.92714058275474,
145.75,146.0,41,0.0,Stimuli/Blank.png,0,0,0.0,0,253,253,253,,,,,,,,,,,,,145.77737239999988,0.027372399999876507,None,190.40392440000142,190.40392440000142,190.40392440000142,190.40392440000142,190.40392440000142,190.40392440000142,190.40392440000142,190.40392440000142,190.40392440000142,190.40392440000142,,007,P017,2025_Mar_07_1649,ConditionRich,2021.2.3,59.92714058275474,
146.0,146.75,11,0.75,Stimuli/P017/sun_bdzxsadvniuolmio.jpg,0,0,0.0,0,254,254,254,,,,,,,,,,,,,146.01066119999814,0.010661199998139637,None,190.65416930000356,190.65416930000356,190.65416930000356,190.65416930000356,190.65416930000356,190.65416930000356,190.65416930000356,190.65416930000356,190.65416930000356,190.65416930000356,,007,P017,2025_Mar_07_1649,ConditionRich,2021.2.3,59.92714058275474,
146.75,147.0,41,0.0,Stimuli/Blank.png,0,0,0.0,0,255,255,255,,,,,,,,,,,,,146.77872189999835,0.02872189999834518,None,191.40481830000135,191.40481830000135,191.40481830000135,191.40481830000135,191.40481830000135,191.40481830000135,191.40481830000135,191.40481830000135,191.40481830000135,191.40481830000135,,007,P017,2025_Mar_07_1649,ConditionRich,2021.2.3,59.92714058275474,
147.0,147.75,11,0.75,Stimuli/P017/sun_bdzxsadvniuolmio.jpg,0,0,0.0,0,256,256,256,,,,,,,,,,,,,147.0124078000008,0.012407800000801217,None,191.65503530000206,191.65503530000206,191.65503530000206,191.65503530000206,191.65503530000206,191.65503530000206,191.65503530000206,191.65503530000206,191.65503530000206,191.65503530000206,,007,P017,2025_Mar_07_1649,ConditionRich,2021.2.3,59.92714058275474,
147.75,148.0,41,0.0,Stimuli/Blank.png,0,0,0.0,0,257,257,257,,,,,,,,,,,,,147.77941379999902,0.02941379999901983,None,192.4056995000028,192.4056995000028,192.4056995000028,192.4056995000028,192.4056995000028,192.4056995000028,192.4056995000028,192.4056995000028,192.4056995000028,192.4056995000028,,007,P017,2025_Mar_07_1649,ConditionRich,2021.2.3,59.92714058275474,
148.0,148.75,13,0.75,Stimuli/P017/sun_bizqwyomkqigheyx.jpg,0,0,0.0,0,258,258,258,,,,,,,,,,,,,148.0123437000002,0.012343700000201352,None,192.63923540000178,192.63923540000178,192.63923540000178,192.63923540000178,192.63923540000178,192.63923540000178,192.63923540000178,192.63923540000178,192.63923540000178,192.63923540000178,,007,P017,2025_Mar_07_1649,ConditionRich,2021.2.3,59.92714058275474,
148.75,149.0,41,0.0,Stimuli/Blank.png,0,0,0.0,0,259,259,259,,,,,,,,,,,,,148.76350059999822,0.013500599998224061,None,193.3899130000027,193.3899130000027,193.3899130000027,193.3899130000027,193.3899130000027,193.3899130000027,193.3899130000027,193.3899130000027,193.3899130000027,193.3899130000027,,007,P017,2025_Mar_07_1649,ConditionRich,2021.2.3,59.92714058275474,
149.0,149.75,13,0.75,Stimuli/P017/sun_bizqwyomkqigheyx.jpg,0,0,0.0,0,260,260,260,,,,,,,,,,,,,149.01383789999818,0.013837899998179637,None,193.64015310000104,193.64015310000104,193.64015310000104,193.64015310000104,193.64015310000104,193.64015310000104,193.64015310000104,193.64015310000104,193.64015310000104,193.64015310000104,,007,P017,2025_Mar_07_1649,ConditionRich,2021.2.3,59.92714058275474,
149.75,150.0,41,0.0,Stimuli/Blank.png,0,0,0.0,0,261,261,261,,,,,,,,,,,,,149.76412730000084,0.01412730000083684,None,194.39077880000332,194.39077880000332,194.39077880000332,194.39077880000332,194.39077880000332,194.39077880000332,194.39077880000332,194.39077880000332,194.39077880000332,194.39077880000332,,007,P017,2025_Mar_07_1649,ConditionRich,2021.2.3,59.92714058275474,
