eventStartTime,eventEndTime,eventCond,imSize,imFile,responseEvent,fixRespStart,fixRespEnd,Events.thisRepN,Events.thisTrialN,Events.thisN,Events.thisIndex,Instructions.started,Instructions.stopped,participantReadyResponse.keys,participantReadyResponse.rt,participantReadyResponse.started,participantReadyResponse.stopped,startWaitforTrigger,triggerResponse.keys,triggerResponse.rt,triggerResponse.started,triggerResponse.stopped,globalTimer,actualStartTime,startTimingDiff,participantResponse.keys,participantResponse.started,participantResponse.stopped,image.started,image.stopped,fixationOutside.started,fixationOutside.stopped,fixationResponse.started,fixationResponse.stopped,fixationInside.started,fixationInside.stopped,participantResponse.rt,session,participant,date,expName,psychopyVersion,frameRate,
,,,,,,,,,,,,12.46174990000145,None,1,45.812691199993424,12.46174990000145,None,,,,,,,,,,,,,,,,,,,,,008,P017,2025_Mar_07_1656,ConditionRich,2021.2.3,59.930624308663305,
,,,,,,,,,,,,,,,,,,58.288958099998126,5,13.655732799998077,58.30270639999799,None,,,,,,,,,,,,,,,,008,P017,2025_Mar_07_1656,ConditionRich,2021.2.3,59.930624308663305,
0.0,4.0,0,0.0,Stimuli/Blank.png,0,0.0,0.0,0,0,0,0,,,,,,,,,,,,71.9690918999986,0.0306812999988324,0.0306812999988324,None,72.0315083999958,None,72.0315083999958,None,72.0315083999958,None,72.0315083999958,72.0315083999958,72.0315083999958,None,,008,P017,2025_Mar_07_1656,ConditionRich,2021.2.3,59.930624308663305,
4.0,4.75,19,0.75,Stimuli/P017/sun_brrwzaypucosdcgt.jpg,0,0.0,0.0,0,1,1,1,,,,,,,,,,,,,4.018713999997999,0.018713999997999053,None,76.00196039999719,76.00196039999719,76.00196039999719,76.00196039999719,76.00196039999719,76.00196039999719,76.00196039999719,76.00196039999719,76.00196039999719,76.00196039999719,,008,P017,2025_Mar_07_1656,ConditionRich,2021.2.3,59.930624308663305,
4.75,8.0,41,0.0,Stimuli/Blank.png,0,0.0,0.0,0,2,2,2,,,,,,,,,,,,,4.752036199999566,0.0020361999995657243,None,76.73594400000002,76.73594400000002,76.73594400000002,76.73594400000002,76.73594400000002,76.73594400000002,76.73594400000002,76.73594400000002,76.73594400000002,76.73594400000002,,008,P017,2025_Mar_07_1656,ConditionRich,2021.2.3,59.930624308663305,
8.0,8.75,39,0.75,Stimuli/P017/things_veil_09s.jpg,0,0.0,0.0,0,3,3,3,,,,,,,,,,,,,8.004921299994749,0.004921299994748551,None,79.98859629999788,79.98859629999788,79.98859629999788,79.98859629999788,79.98859629999788,79.98859629999788,79.98859629999788,79.98859629999788,79.98859629999788,79.98859629999788,,008,P017,2025_Mar_07_1656,ConditionRich,2021.2.3,59.930624308663305,
8.75,12.0,41,0.0,Stimuli/Blank.png,1,0.25,1.0,0,4,4,4,,,,,,,,,,,,,8.755649399994581,0.005649399994581472,1,80.73920609999914,80.73920609999914,80.73920609999914,80.73920609999914,80.73920609999914,80.73920609999914,80.97279580000031,81.72345800000039,80.73920609999914,80.73920609999914,0.5393594000051962,008,P017,2025_Mar_07_1656,ConditionRich,2021.2.3,59.930624308663305,
12.0,12.75,4,0.75,Stimuli/P017/sun_aibvvqlmlsjnrgdj.jpg,1,0.0,0.75,0,5,5,5,,,,,,,,,,,,,12.008404299995163,0.008404299995163456,1,83.99207829999796,83.99207829999796,83.99207829999796,83.99207829999796,83.99207829999796,83.99207829999796,83.99207829999796,84.72604879999562,83.99207829999796,83.99207829999796,0.4621333000031882,008,P017,2025_Mar_07_1656,ConditionRich,2021.2.3,59.930624308663305,
12.75,16.0,41,0.0,Stimuli/Blank.png,0,0.0,0.0,0,6,6,6,,,,,,,,,,,,,12.759121700000833,0.009121700000832789,None,84.74274839999998,84.74274839999998,84.74274839999998,84.74274839999998,84.74274839999998,84.74274839999998,84.74274839999998,84.74274839999998,84.74274839999998,84.74274839999998,,008,P017,2025_Mar_07_1656,ConditionRich,2021.2.3,59.930624308663305,
16.0,16.75,18,0.75,Stimuli/P017/sun_brrvvswweljrvnlq.jpg,0,0.0,0.0,0,7,7,7,,,,,,,,,,,,,16.013166500000807,0.013166500000806991,None,88.01229600000079,88.01229600000079,88.01229600000079,88.01229600000079,88.01229600000079,88.01229600000079,88.01229600000079,88.01229600000079,88.01229600000079,88.01229600000079,,008,P017,2025_Mar_07_1656,ConditionRich,2021.2.3,59.930624308663305,
16.75,20.0,41,0.0,Stimuli/Blank.png,0,0.0,0.0,0,8,8,8,,,,,,,,,,,,,16.779219699994428,0.029219699994428083,None,88.76297089999571,88.76297089999571,88.76297089999571,88.76297089999571,88.76297089999571,88.76297089999571,88.76297089999571,88.76297089999571,88.76297089999571,88.76297089999571,,008,P017,2025_Mar_07_1656,ConditionRich,2021.2.3,59.930624308663305,
20.0,20.75,5,0.75,Stimuli/P017/sun_apojgqgvdvsksdvo.jpg,0,0.0,0.0,0,9,9,9,,,,,,,,,,,,,20.016305699995428,0.016305699995427858,None,92.0158420000007,92.0158420000007,92.0158420000007,92.0158420000007,92.0158420000007,92.0158420000007,92.0158420000007,92.0158420000007,92.0158420000007,92.0158420000007,,008,P017,2025_Mar_07_1656,ConditionRich,2021.2.3,59.930624308663305,
20.75,24.0,41,0.0,Stimuli/Blank.png,0,0.0,0.0,0,10,10,10,,,,,,,,,,,,,20.76890779999667,0.018907799996668473,None,92.76650289999816,92.76650289999816,92.76650289999816,92.76650289999816,92.76650289999816,92.76650289999816,92.76650289999816,92.76650289999816,92.76650289999816,92.76650289999816,,008,P017,2025_Mar_07_1656,ConditionRich,2021.2.3,59.930624308663305,
24.0,24.75,34,0.75,Stimuli/P017/things_llama_09s.jpg,0,0.0,0.0,0,11,11,11,,,,,,,,,,,,,24.019171499996446,0.019171499996446073,None,96.00268689999939,96.00268689999939,96.00268689999939,96.00268689999939,96.00268689999939,96.00268689999939,96.00268689999939,96.00268689999939,96.00268689999939,96.00268689999939,,008,P017,2025_Mar_07_1656,ConditionRich,2021.2.3,59.930624308663305,
24.75,28.0,41,0.0,Stimuli/Blank.png,0,0.0,0.0,0,12,12,12,,,,,,,,,,,,,24.753780299994105,0.0037802999941050075,None,96.73667710000154,96.73667710000154,96.73667710000154,96.73667710000154,96.73667710000154,96.73667710000154,96.73667710000154,96.73667710000154,96.73667710000154,96.73667710000154,,008,P017,2025_Mar_07_1656,ConditionRich,2021.2.3,59.930624308663305,
28.0,28.75,17,0.75,Stimuli/P017/sun_brhndfjxyigqgiwl.jpg,0,0.0,0.0,0,13,13,13,,,,,,,,,,,,,28.006455700000515,0.006455700000515208,None,99.98955649999698,99.98955649999698,99.98955649999698,99.98955649999698,99.98955649999698,99.98955649999698,99.98955649999698,99.98955649999698,99.98955649999698,99.98955649999698,,008,P017,2025_Mar_07_1656,ConditionRich,2021.2.3,59.930624308663305,
28.75,32.0,41,0.0,Stimuli/Blank.png,0,0.0,0.0,0,14,14,14,,,,,,,,,,,,,28.757298399999854,0.007298399999854155,None,100.74021830000129,100.74021830000129,100.74021830000129,100.74021830000129,100.74021830000129,100.74021830000129,100.74021830000129,100.74021830000129,100.74021830000129,100.74021830000129,,008,P017,2025_Mar_07_1656,ConditionRich,2021.2.3,59.930624308663305,
32.0,32.75,37,0.75,Stimuli/P017/things_plastic_film_09s.jpg,0,0.0,0.0,0,15,15,15,,,,,,,,,,,,,32.00970579999557,0.009705799995572306,None,104.00978000000032,104.00978000000032,104.00978000000032,104.00978000000032,104.00978000000032,104.00978000000032,104.00978000000032,104.00978000000032,104.00978000000032,104.00978000000032,,008,P017,2025_Mar_07_1656,ConditionRich,2021.2.3,59.930624308663305,
32.75,36.0,41,0.0,Stimuli/Blank.png,0,0.0,0.0,0,16,16,16,,,,,,,,,,,,,32.778038699994795,0.028038699994795024,None,104.76121250000142,104.76121250000142,104.76121250000142,104.76121250000142,104.76121250000142,104.76121250000142,104.76121250000142,104.76121250000142,104.76121250000142,104.76121250000142,,008,P017,2025_Mar_07_1656,ConditionRich,2021.2.3,59.930624308663305,
36.0,36.75,28,0.75,Stimuli/P017/things_collar_09s.jpg,0,0.0,0.0,0,17,17,17,,,,,,,,,,,,,36.01425949999975,0.014259499999752734,None,108.01331489999575,108.01331489999575,108.01331489999575,108.01331489999575,108.01331489999575,108.01331489999575,108.01331489999575,108.01331489999575,108.01331489999575,108.01331489999575,,008,P017,2025_Mar_07_1656,ConditionRich,2021.2.3,59.930624308663305,
36.75,40.0,41,0.0,Stimuli/Blank.png,0,0.0,0.0,0,18,18,18,,,,,,,,,,,,,36.78259849999449,0.03259849999449216,None,108.78065960000094,108.78065960000094,108.78065960000094,108.78065960000094,108.78065960000094,108.78065960000094,108.78065960000094,108.78065960000094,108.78065960000094,108.78065960000094,,008,P017,2025_Mar_07_1656,ConditionRich,2021.2.3,59.930624308663305,
40.0,40.75,29,0.75,Stimuli/P017/things_face_09s.jpg,0,0.0,0.0,0,19,19,19,,,,,,,,,,,,,40.017163399999845,0.01716339999984484,None,112.00016669999604,112.00016669999604,112.00016669999604,112.00016669999604,112.00016669999604,112.00016669999604,112.00016669999604,112.00016669999604,112.00016669999604,112.00016669999604,,008,P017,2025_Mar_07_1656,ConditionRich,2021.2.3,59.930624308663305,
40.75,44.0,41,0.0,Stimuli/Blank.png,1,1.25,2.0,0,20,20,20,,,,,,,,,,,,,40.75294429999485,0.0029442999948514625,None,112.75083929999528,112.75083929999528,112.75083929999528,112.75083929999528,112.75083929999528,112.75083929999528,113.98525559999689,114.73591959999612,112.75083929999528,112.75083929999528,,008,P017,2025_Mar_07_1656,ConditionRich,2021.2.3,59.930624308663305,
44.0,44.75,8,0.75,Stimuli/P017/sun_axsmqyyvebrcuhkn.jpg,0,0.0,0.0,0,21,21,21,,,,,,,,,,,,,44.020819599994866,0.020819599994865712,None,116.02039289999811,116.02039289999811,116.02039289999811,116.02039289999811,116.02039289999811,116.02039289999811,116.02039289999811,116.02039289999811,116.02039289999811,116.02039289999811,,008,P017,2025_Mar_07_1656,ConditionRich,2021.2.3,59.930624308663305,
44.75,48.0,41,0.0,Stimuli/Blank.png,0,0.0,0.0,0,22,22,22,,,,,,,,,,,,,44.77258829999482,0.02258829999482259,None,116.77106120000099,116.77106120000099,116.77106120000099,116.77106120000099,116.77106120000099,116.77106120000099,116.77106120000099,116.77106120000099,116.77106120000099,116.77106120000099,,008,P017,2025_Mar_07_1656,ConditionRich,2021.2.3,59.930624308663305,
48.0,48.75,35,0.75,Stimuli/P017/things_lobster_09s.jpg,0,0.0,0.0,0,23,23,23,,,,,,,,,,,,,48.02413330000127,0.024133300001267344,None,120.00724400000036,120.00724400000036,120.00724400000036,120.00724400000036,120.00724400000036,120.00724400000036,120.00724400000036,120.00724400000036,120.00724400000036,120.00724400000036,,008,P017,2025_Mar_07_1656,ConditionRich,2021.2.3,59.930624308663305,
48.75,52.0,41,0.0,Stimuli/Blank.png,0,0.0,0.0,0,24,24,24,,,,,,,,,,,,,48.758280999994895,0.008280999994894955,None,120.74123800000234,120.74123800000234,120.74123800000234,120.74123800000234,120.74123800000234,120.74123800000234,120.74123800000234,120.74123800000234,120.74123800000234,120.74123800000234,,008,P017,2025_Mar_07_1656,ConditionRich,2021.2.3,59.930624308663305,
52.0,52.75,40,0.75,Stimuli/P017/things_woman_09s.jpg,0,0.0,0.0,0,25,25,25,,,,,,,,,,,,,52.01034549999895,0.010345499998948071,None,124.01080589999765,124.01080589999765,124.01080589999765,124.01080589999765,124.01080589999765,124.01080589999765,124.01080589999765,124.01080589999765,124.01080589999765,124.01080589999765,,008,P017,2025_Mar_07_1656,ConditionRich,2021.2.3,59.930624308663305,
52.75,56.0,41,0.0,Stimuli/Blank.png,0,0.0,0.0,0,26,26,26,,,,,,,,,,,,,52.77837499999441,0.028374999994412065,None,124.76145990000077,124.76145990000077,124.76145990000077,124.76145990000077,124.76145990000077,124.76145990000077,124.76145990000077,124.76145990000077,124.76145990000077,124.76145990000077,,008,P017,2025_Mar_07_1656,ConditionRich,2021.2.3,59.930624308663305,
56.0,56.75,9,0.75,Stimuli/P017/sun_ayidxslzurdumeps.jpg,0,0.0,0.0,0,27,27,27,,,,,,,,,,,,,56.01397739999811,0.01397739999811165,None,127.99764850000065,127.99764850000065,127.99764850000065,127.99764850000065,127.99764850000065,127.99764850000065,127.99764850000065,127.99764850000065,127.99764850000065,127.99764850000065,,008,P017,2025_Mar_07_1656,ConditionRich,2021.2.3,59.930624308663305,
56.75,60.0,41,0.0,Stimuli/Blank.png,0,0.0,0.0,0,28,28,28,,,,,,,,,,,,,56.764728499998455,0.014728499998454936,None,128.74830230000225,128.74830230000225,128.74830230000225,128.74830230000225,128.74830230000225,128.74830230000225,128.74830230000225,128.74830230000225,128.74830230000225,128.74830230000225,,008,P017,2025_Mar_07_1656,ConditionRich,2021.2.3,59.930624308663305,
60.0,60.75,36,0.75,Stimuli/P017/things_nest_09s.jpg,0,0.0,0.0,0,29,29,29,,,,,,,,,,,,,60.0009493999969,0.000949399996898137,None,131.98449389999587,131.98449389999587,131.98449389999587,131.98449389999587,131.98449389999587,131.98449389999587,131.98449389999587,131.98449389999587,131.98449389999587,131.98449389999587,,008,P017,2025_Mar_07_1656,ConditionRich,2021.2.3,59.930624308663305,
60.75,64.0,41,0.0,Stimuli/Blank.png,0,0.0,0.0,0,30,30,30,,,,,,,,,,,,,60.75211609999678,0.002116099996783305,None,132.73516969999764,132.73516969999764,132.73516969999764,132.73516969999764,132.73516969999764,132.73516969999764,132.73516969999764,132.73516969999764,132.73516969999764,132.73516969999764,,008,P017,2025_Mar_07_1656,ConditionRich,2021.2.3,59.930624308663305,
64.0,64.75,23,0.75,Stimuli/P017/things_boy_09s.jpg,0,0.0,0.0,0,31,31,31,,,,,,,,,,,,,64.00449319999461,0.004493199994612951,None,135.98804469999595,135.98804469999595,135.98804469999595,135.98804469999595,135.98804469999595,135.98804469999595,135.98804469999595,135.98804469999595,135.98804469999595,135.98804469999595,,008,P017,2025_Mar_07_1656,ConditionRich,2021.2.3,59.930624308663305,
64.75,68.0,41,0.0,Stimuli/Blank.png,1,2.25,3.0,0,32,32,32,,,,,,,,,,,,,64.75774329999695,0.007743299996946007,1,136.75540580000234,136.75540580000234,136.75540580000234,136.75540580000234,136.75540580000234,136.75540580000234,138.99068769999576,139.74133209999854,136.75540580000234,136.75540580000234,2.645071499995538,008,P017,2025_Mar_07_1656,ConditionRich,2021.2.3,59.930624308663305,
68.0,68.75,7,0.75,Stimuli/P017/sun_auadhqmfjsjtjcue.jpg,0,0.0,0.0,0,33,33,33,,,,,,,,,,,,,68.02521789999446,0.025217899994459003,None,140.00826139999845,140.00826139999845,140.00826139999845,140.00826139999845,140.00826139999845,140.00826139999845,140.00826139999845,140.00826139999845,140.00826139999845,140.00826139999845,,008,P017,2025_Mar_07_1656,ConditionRich,2021.2.3,59.930624308663305,
68.75,72.0,41,0.0,Stimuli/Blank.png,0,0.0,0.0,0,34,34,34,,,,,,,,,,,,,68.75884769999539,0.008847699995385483,None,140.74224010000034,140.74224010000034,140.74224010000034,140.74224010000034,140.74224010000034,140.74224010000034,140.74224010000034,140.74224010000034,140.74224010000034,140.74224010000034,,008,P017,2025_Mar_07_1656,ConditionRich,2021.2.3,59.930624308663305,
72.0,72.75,3,0.75,Stimuli/P017/sun_acymmczhyuiimeub.jpg,0,0.0,0.0,0,35,35,35,,,,,,,,,,,,,72.0115411999941,0.01154119999409886,None,143.9951385000022,143.9951385000022,143.9951385000022,143.9951385000022,143.9951385000022,143.9951385000022,143.9951385000022,143.9951385000022,143.9951385000022,143.9951385000022,,008,P017,2025_Mar_07_1656,ConditionRich,2021.2.3,59.930624308663305,
72.75,76.0,41,0.0,Stimuli/Blank.png,0,0.0,0.0,0,36,36,36,,,,,,,,,,,,,72.76437569999689,0.014375699996890035,None,144.74580169999535,144.74580169999535,144.74580169999535,144.74580169999535,144.74580169999535,144.74580169999535,144.74580169999535,144.74580169999535,144.74580169999535,144.74580169999535,,008,P017,2025_Mar_07_1656,ConditionRich,2021.2.3,59.930624308663305,
76.0,76.75,20,0.75,Stimuli/P017/sun_buukivvfbfhosrng.jpg,0,0.0,0.0,0,37,37,37,,,,,,,,,,,,,75.99893560000055,-0.0010643999994499609,None,147.98193100000208,147.98193100000208,147.98193100000208,147.98193100000208,147.98193100000208,147.98193100000208,147.98193100000208,147.98193100000208,147.98193100000208,147.98193100000208,,008,P017,2025_Mar_07_1656,ConditionRich,2021.2.3,59.930624308663305,
76.75,80.0,41,0.0,Stimuli/Blank.png,0,0.0,0.0,0,38,38,38,,,,,,,,,,,,,76.74898769999709,-0.001012300002912525,None,148.73263410000072,148.73263410000072,148.73263410000072,148.73263410000072,148.73263410000072,148.73263410000072,148.73263410000072,148.73263410000072,148.73263410000072,148.73263410000072,,008,P017,2025_Mar_07_1656,ConditionRich,2021.2.3,59.930624308663305,
80.0,80.75,22,0.75,Stimuli/P017/things_boat_09s.jpg,0,0.0,0.0,0,39,39,39,,,,,,,,,,,,,80.00279049999517,0.002790499995171558,None,151.9854808999953,151.9854808999953,151.9854808999953,151.9854808999953,151.9854808999953,151.9854808999953,151.9854808999953,151.9854808999953,151.9854808999953,151.9854808999953,,008,P017,2025_Mar_07_1656,ConditionRich,2021.2.3,59.930624308663305,
80.75,84.0,41,0.0,Stimuli/Blank.png,0,0.0,0.0,0,40,40,40,,,,,,,,,,,,,80.75366070000018,0.00366070000018226,None,152.73618480000005,152.73618480000005,152.73618480000005,152.73618480000005,152.73618480000005,152.73618480000005,152.73618480000005,152.73618480000005,152.73618480000005,152.73618480000005,,008,P017,2025_Mar_07_1656,ConditionRich,2021.2.3,59.930624308663305,
84.0,100.0,0,0.0,Stimuli/Blank.png,1,9.0,9.75,0,41,41,41,,,,,,,,,,,,,84.00629669999762,0.006296699997619726,1,155.9891290000014,155.9891290000014,155.9891290000014,155.9891290000014,155.9891290000014,155.9891290000014,164.98033420000138,165.73099849999562,155.9891290000014,155.9891290000014,9.412204499996733,008,P017,2025_Mar_07_1656,ConditionRich,2021.2.3,59.930624308663305,
100.0,100.75,32,0.75,Stimuli/P017/things_horse_09s.jpg,0,0.0,0.0,0,42,42,42,,,,,,,,,,,,,100.00386900000012,0.003869000000122469,None,171.98652410000068,171.98652410000068,171.98652410000068,171.98652410000068,171.98652410000068,171.98652410000068,171.98652410000068,171.98652410000068,171.98652410000068,171.98652410000068,,008,P017,2025_Mar_07_1656,ConditionRich,2021.2.3,59.930624308663305,
100.75,104.0,41,0.0,Stimuli/Blank.png,0,0.0,0.0,0,43,43,43,,,,,,,,,,,,,100.75354529999458,0.0035452999945846386,None,172.73718469999585,172.73718469999585,172.73718469999585,172.73718469999585,172.73718469999585,172.73718469999585,172.73718469999585,172.73718469999585,172.73718469999585,172.73718469999585,,008,P017,2025_Mar_07_1656,ConditionRich,2021.2.3,59.930624308663305,
104.0,104.75,12,0.75,Stimuli/P017/sun_bhvaiabdgxjuwoth.jpg,0,0.0,0.0,0,44,44,44,,,,,,,,,,,,,104.0071192999967,0.007119299996702466,None,175.99006060000102,175.99006060000102,175.99006060000102,175.99006060000102,175.99006060000102,175.99006060000102,175.99006060000102,175.99006060000102,175.99006060000102,175.99006060000102,,008,P017,2025_Mar_07_1656,ConditionRich,2021.2.3,59.930624308663305,
104.75,108.0,41,0.0,Stimuli/Blank.png,0,0.0,0.0,0,45,45,45,,,,,,,,,,,,,104.75827469999786,0.00827469999785535,None,176.7407297999962,176.7407297999962,176.7407297999962,176.7407297999962,176.7407297999962,176.7407297999962,176.7407297999962,176.7407297999962,176.7407297999962,176.7407297999962,,008,P017,2025_Mar_07_1656,ConditionRich,2021.2.3,59.930624308663305,
108.0,108.75,26,0.75,Stimuli/P017/things_chandelier_09s.jpg,0,0.0,0.0,0,46,46,46,,,,,,,,,,,,,108.00994079999509,0.009940799995092675,None,179.99360109999543,179.99360109999543,179.99360109999543,179.99360109999543,179.99360109999543,179.99360109999543,179.99360109999543,179.99360109999543,179.99360109999543,179.99360109999543,,008,P017,2025_Mar_07_1656,ConditionRich,2021.2.3,59.930624308663305,
108.75,112.0,41,0.0,Stimuli/Blank.png,1,0.25,1.0,0,47,47,47,,,,,,,,,,,,,108.76288729999942,0.012887299999420065,1,180.76095070000156,180.76095070000156,180.76095070000156,180.76095070000156,180.76095070000156,180.76095070000156,180.99452319999546,181.74515470000188,180.76095070000156,180.76095070000156,0.721643299999414,008,P017,2025_Mar_07_1656,ConditionRich,2021.2.3,59.930624308663305,
112.0,112.75,16,0.75,Stimuli/P017/sun_brfwxjsnmauhmfzf.jpg,0,0.0,0.0,0,48,48,48,,,,,,,,,,,,,112.0137895999942,0.013789599994197488,None,183.99714179999864,183.99714179999864,183.99714179999864,183.99714179999864,183.99714179999864,183.99714179999864,183.99714179999864,183.99714179999864,183.99714179999864,183.99714179999864,,008,P017,2025_Mar_07_1656,ConditionRich,2021.2.3,59.930624308663305,
112.75,116.0,41,0.0,Stimuli/Blank.png,0,0.0,0.0,0,49,49,49,,,,,,,,,,,,,112.76479129999643,0.014791299996431917,None,184.74781229999644,184.74781229999644,184.74781229999644,184.74781229999644,184.74781229999644,184.74781229999644,184.74781229999644,184.74781229999644,184.74781229999644,184.74781229999644,,008,P017,2025_Mar_07_1656,ConditionRich,2021.2.3,59.930624308663305,
116.0,116.75,31,0.75,Stimuli/P017/things_highchair_09s.jpg,0,0.0,0.0,0,50,50,50,,,,,,,,,,,,,116.00113849999616,0.0011384999961592257,None,188.00064479999855,188.00064479999855,188.00064479999855,188.00064479999855,188.00064479999855,188.00064479999855,188.00064479999855,188.00064479999855,188.00064479999855,188.00064479999855,,008,P017,2025_Mar_07_1656,ConditionRich,2021.2.3,59.930624308663305,
116.75,120.0,41,0.0,Stimuli/Blank.png,0,0.0,0.0,0,51,51,51,,,,,,,,,,,,,116.76896769999439,0.018967699994391296,None,188.7513461999988,188.7513461999988,188.7513461999988,188.7513461999988,188.7513461999988,188.7513461999988,188.7513461999988,188.7513461999988,188.7513461999988,188.7513461999988,,008,P017,2025_Mar_07_1656,ConditionRich,2021.2.3,59.930624308663305,
120.0,120.75,24,0.75,Stimuli/P017/things_breadbox_09s.jpg,0,0.0,0.0,0,52,52,52,,,,,,,,,,,,,120.00465819999954,0.004658199999539647,None,191.98753209999995,191.98753209999995,191.98753209999995,191.98753209999995,191.98753209999995,191.98753209999995,191.98753209999995,191.98753209999995,191.98753209999995,191.98753209999995,,008,P017,2025_Mar_07_1656,ConditionRich,2021.2.3,59.930624308663305,
120.75,124.0,41,0.0,Stimuli/Blank.png,0,0.0,0.0,0,53,53,53,,,,,,,,,,,,,120.75474419999955,0.004744199999549892,None,192.73820890000206,192.73820890000206,192.73820890000206,192.73820890000206,192.73820890000206,192.73820890000206,192.73820890000206,192.73820890000206,192.73820890000206,192.73820890000206,,008,P017,2025_Mar_07_1656,ConditionRich,2021.2.3,59.930624308663305,
124.0,124.75,14,0.75,Stimuli/P017/sun_bljpqnfmmqkjsfvx.jpg,0,0.0,0.0,0,54,54,54,,,,,,,,,,,,,124.008012899998,0.008012899997993372,None,195.9910779999991,195.9910779999991,195.9910779999991,195.9910779999991,195.9910779999991,195.9910779999991,195.9910779999991,195.9910779999991,195.9910779999991,195.9910779999991,,008,P017,2025_Mar_07_1656,ConditionRich,2021.2.3,59.930624308663305,
124.75,128.0,41,0.0,Stimuli/Blank.png,0,0.0,0.0,0,55,55,55,,,,,,,,,,,,,124.75848839999526,0.008488399995258078,None,196.74173719999817,196.74173719999817,196.74173719999817,196.74173719999817,196.74173719999817,196.74173719999817,196.74173719999817,196.74173719999817,196.74173719999817,196.74173719999817,,008,P017,2025_Mar_07_1656,ConditionRich,2021.2.3,59.930624308663305,
128.0,128.75,38,0.75,Stimuli/P017/things_pony_09s.jpg,0,0.0,0.0,0,56,56,56,,,,,,,,,,,,,128.01162399999885,0.011623999998846557,None,200.01129070000025,200.01129070000025,200.01129070000025,200.01129070000025,200.01129070000025,200.01129070000025,200.01129070000025,200.01129070000025,200.01129070000025,200.01129070000025,,008,P017,2025_Mar_07_1656,ConditionRich,2021.2.3,59.930624308663305,
128.75,132.0,41,0.0,Stimuli/Blank.png,0,0.0,0.0,0,57,57,57,,,,,,,,,,,,,128.7782220999943,0.028222099994309247,None,200.76196540000092,200.76196540000092,200.76196540000092,200.76196540000092,200.76196540000092,200.76196540000092,200.76196540000092,200.76196540000092,200.76196540000092,200.76196540000092,,008,P017,2025_Mar_07_1656,ConditionRich,2021.2.3,59.930624308663305,
132.0,132.75,21,0.75,Stimuli/P017/things_baby_09s.jpg,0,0.0,0.0,0,58,58,58,,,,,,,,,,,,,132.0146173999965,0.014617399996495806,None,203.9981609000024,203.9981609000024,203.9981609000024,203.9981609000024,203.9981609000024,203.9981609000024,203.9981609000024,203.9981609000024,203.9981609000024,203.9981609000024,,008,P017,2025_Mar_07_1656,ConditionRich,2021.2.3,59.930624308663305,
132.75,136.0,41,0.0,Stimuli/Blank.png,0,0.0,0.0,0,59,59,59,,,,,,,,,,,,,132.76588529999572,0.015885299995716196,None,204.7488228000002,204.7488228000002,204.7488228000002,204.7488228000002,204.7488228000002,204.7488228000002,204.7488228000002,204.7488228000002,204.7488228000002,204.7488228000002,,008,P017,2025_Mar_07_1656,ConditionRich,2021.2.3,59.930624308663305,
136.0,136.75,33,0.75,Stimuli/P017/things_lamb_09s.jpg,0,0.0,0.0,0,60,60,60,,,,,,,,,,,,,136.00244479999674,0.0024447999967378564,None,208.00169569999707,208.00169569999707,208.00169569999707,208.00169569999707,208.00169569999707,208.00169569999707,208.00169569999707,208.00169569999707,208.00169569999707,208.00169569999707,,008,P017,2025_Mar_07_1656,ConditionRich,2021.2.3,59.930624308663305,
136.75,140.0,41,0.0,Stimuli/Blank.png,0,0.0,0.0,0,61,61,61,,,,,,,,,,,,,136.76932300000044,0.019323000000440516,None,208.75234980000096,208.75234980000096,208.75234980000096,208.75234980000096,208.75234980000096,208.75234980000096,208.75234980000096,208.75234980000096,208.75234980000096,208.75234980000096,,008,P017,2025_Mar_07_1656,ConditionRich,2021.2.3,59.930624308663305,
140.0,140.75,30,0.75,Stimuli/P017/things_girl_09s.jpg,0,0.0,0.0,0,62,62,62,,,,,,,,,,,,,140.00476949999575,0.0047694999957457185,None,211.98855609999737,211.98855609999737,211.98855609999737,211.98855609999737,211.98855609999737,211.98855609999737,211.98855609999737,211.98855609999737,211.98855609999737,211.98855609999737,,008,P017,2025_Mar_07_1656,ConditionRich,2021.2.3,59.930624308663305,
140.75,144.0,41,0.0,Stimuli/Blank.png,0,0.0,0.0,0,63,63,63,,,,,,,,,,,,,140.75794669999595,0.007946699995954987,None,212.75590509999893,212.75590509999893,212.75590509999893,212.75590509999893,212.75590509999893,212.75590509999893,212.75590509999893,212.75590509999893,212.75590509999893,212.75590509999893,,008,P017,2025_Mar_07_1656,ConditionRich,2021.2.3,59.930624308663305,
144.0,144.75,27,0.75,Stimuli/P017/things_coffin_09s.jpg,0,0.0,0.0,0,64,64,64,,,,,,,,,,,,,144.02505979999842,0.025059799998416565,None,216.00876419999986,216.00876419999986,216.00876419999986,216.00876419999986,216.00876419999986,216.00876419999986,216.00876419999986,216.00876419999986,216.00876419999986,216.00876419999986,,008,P017,2025_Mar_07_1656,ConditionRich,2021.2.3,59.930624308663305,
144.75,148.0,41,0.0,Stimuli/Blank.png,0,0.0,0.0,0,65,65,65,,,,,,,,,,,,,144.76006280000001,0.01006280000001425,None,216.74275299999863,216.74275299999863,216.74275299999863,216.74275299999863,216.74275299999863,216.74275299999863,216.74275299999863,216.74275299999863,216.74275299999863,216.74275299999863,,008,P017,2025_Mar_07_1656,ConditionRich,2021.2.3,59.930624308663305,
148.0,148.75,15,0.75,Stimuli/P017/sun_bobznlnnzwznersx.jpg,0,0.0,0.0,0,66,66,66,,,,,,,,,,,,,148.01200469999458,0.012004699994577095,None,219.995623099996,219.995623099996,219.995623099996,219.995623099996,219.995623099996,219.995623099996,219.995623099996,219.995623099996,219.995623099996,219.995623099996,,008,P017,2025_Mar_07_1656,ConditionRich,2021.2.3,59.930624308663305,
148.75,152.0,41,0.0,Stimuli/Blank.png,0,0.0,0.0,0,67,67,67,,,,,,,,,,,,,148.76340509999864,0.013405099998635706,None,220.74629199999617,220.74629199999617,220.74629199999617,220.74629199999617,220.74629199999617,220.74629199999617,220.74629199999617,220.74629199999617,220.74629199999617,220.74629199999617,,008,P017,2025_Mar_07_1656,ConditionRich,2021.2.3,59.930624308663305,
152.0,152.75,2,0.75,Stimuli/P017/sun_acliytrpktltxwsx.jpg,0,0.0,0.0,0,68,68,68,,,,,,,,,,,,,151.99952919999487,-0.00047080000513233244,None,223.99916559999838,223.99916559999838,223.99916559999838,223.99916559999838,223.99916559999838,223.99916559999838,223.99916559999838,223.99916559999838,223.99916559999838,223.99916559999838,,008,P017,2025_Mar_07_1656,ConditionRich,2021.2.3,59.930624308663305,
152.75,156.0,41,0.0,Stimuli/Blank.png,0,0.0,0.0,0,69,69,69,,,,,,,,,,,,,152.7661683999977,0.016168399997695815,None,224.7498334999982,224.7498334999982,224.7498334999982,224.7498334999982,224.7498334999982,224.7498334999982,224.7498334999982,224.7498334999982,224.7498334999982,224.7498334999982,,008,P017,2025_Mar_07_1656,ConditionRich,2021.2.3,59.930624308663305,
156.0,156.75,11,0.75,Stimuli/P017/sun_bdzxsadvniuolmio.jpg,0,0.0,0.0,0,70,70,70,,,,,,,,,,,,,156.00295379999443,0.0029537999944295734,None,227.9860217999958,227.9860217999958,227.9860217999958,227.9860217999958,227.9860217999958,227.9860217999958,227.9860217999958,227.9860217999958,227.9860217999958,227.9860217999958,,008,P017,2025_Mar_07_1656,ConditionRich,2021.2.3,59.930624308663305,
156.75,160.0,41,0.0,Stimuli/Blank.png,1,2.25,3.0,0,71,71,71,,,,,,,,,,,,,156.75363529999595,0.003635299995949026,1,228.73668850000104,228.73668850000104,228.73668850000104,228.73668850000104,228.73668850000104,228.73668850000104,230.97199849999743,231.72286619999795,228.73668850000104,228.73668850000104,2.671583700001065,008,P017,2025_Mar_07_1656,ConditionRich,2021.2.3,59.930624308663305,
160.0,160.75,1,0.75,Stimuli/P017/sun_aawmwfqqbzauhqkb.jpg,0,0.0,0.0,0,72,72,72,,,,,,,,,,,,,160.00663129999884,0.006631299998844042,None,231.98956019999605,231.98956019999605,231.98956019999605,231.98956019999605,231.98956019999605,231.98956019999605,231.98956019999605,231.98956019999605,231.98956019999605,231.98956019999605,,008,P017,2025_Mar_07_1656,ConditionRich,2021.2.3,59.930624308663305,
160.75,164.0,41,0.0,Stimuli/Blank.png,0,0.0,0.0,0,73,73,73,,,,,,,,,,,,,160.75735119999445,0.007351199994445778,None,232.74022839999816,232.74022839999816,232.74022839999816,232.74022839999816,232.74022839999816,232.74022839999816,232.74022839999816,232.74022839999816,232.74022839999816,232.74022839999816,,008,P017,2025_Mar_07_1656,ConditionRich,2021.2.3,59.930624308663305,
164.0,164.75,10,0.75,Stimuli/P017/sun_bayxprasninnrnle.jpg,0,0.0,0.0,0,74,74,74,,,,,,,,,,,,,164.00953049999953,0.00953049999952782,None,235.99306729999807,235.99306729999807,235.99306729999807,235.99306729999807,235.99306729999807,235.99306729999807,235.99306729999807,235.99306729999807,235.99306729999807,235.99306729999807,,008,P017,2025_Mar_07_1656,ConditionRich,2021.2.3,59.930624308663305,
164.75,168.0,41,0.0,Stimuli/Blank.png,0,0.0,0.0,0,75,75,75,,,,,,,,,,,,,164.76273299999593,0.012732999995932914,None,236.76045290000184,236.76045290000184,236.76045290000184,236.76045290000184,236.76045290000184,236.76045290000184,236.76045290000184,236.76045290000184,236.76045290000184,236.76045290000184,,008,P017,2025_Mar_07_1656,ConditionRich,2021.2.3,59.930624308663305,
168.0,168.75,6,0.75,Stimuli/P017/sun_atuyvunnykjurjgx.jpg,0,0.0,0.0,0,76,76,76,,,,,,,,,,,,,168.03017859999818,0.03017859999818029,None,240.01331480000226,240.01331480000226,240.01331480000226,240.01331480000226,240.01331480000226,240.01331480000226,240.01331480000226,240.01331480000226,240.01331480000226,240.01331480000226,,008,P017,2025_Mar_07_1656,ConditionRich,2021.2.3,59.930624308663305,
168.75,172.0,41,0.0,Stimuli/Blank.png,1,1.25,2.0,0,77,77,77,,,,,,,,,,,,,168.7642549000011,0.014254900001105852,1,240.74730699999782,240.74730699999782,240.74730699999782,240.74730699999782,240.74730699999782,240.74730699999782,241.9817675000013,242.73237209999934,240.74730699999782,240.74730699999782,1.795190900003945,008,P017,2025_Mar_07_1656,ConditionRich,2021.2.3,59.930624308663305,
172.0,172.75,13,0.75,Stimuli/P017/sun_bizqwyomkqigheyx.jpg,0,0.0,0.0,0,78,78,78,,,,,,,,,,,,,172.00014499999816,0.0001449999981559813,None,243.9835017000005,243.9835017000005,243.9835017000005,243.9835017000005,243.9835017000005,243.9835017000005,243.9835017000005,243.9835017000005,243.9835017000005,243.9835017000005,,008,P017,2025_Mar_07_1656,ConditionRich,2021.2.3,59.930624308663305,
172.75,176.0,41,0.0,Stimuli/Blank.png,1,0.25,1.0,0,79,79,79,,,,,,,,,,,,,172.75255330000073,0.0025533000007271767,1,244.75084929999866,244.75084929999866,244.75084929999866,244.75084929999866,244.75084929999866,244.75084929999866,244.98440280000068,245.7350942999983,244.75084929999866,244.75084929999866,0.6574197999943863,008,P017,2025_Mar_07_1656,ConditionRich,2021.2.3,59.930624308663305,
176.0,176.75,25,0.75,Stimuli/P017/things_cannonball_09s.jpg,0,0.0,0.0,0,80,80,80,,,,,,,,,,,,,176.02202849999594,0.022028499995940365,None,248.02041240000108,248.02041240000108,248.02041240000108,248.02041240000108,248.02041240000108,248.02041240000108,248.02041240000108,248.02041240000108,248.02041240000108,248.02041240000108,,008,P017,2025_Mar_07_1656,ConditionRich,2021.2.3,59.930624308663305,
176.75,180.0,41,0.0,Stimuli/Blank.png,0,0.0,0.0,0,81,81,81,,,,,,,,,,,,,176.7732235000003,0.023223500000312924,None,248.7710709000021,248.7710709000021,248.7710709000021,248.7710709000021,248.7710709000021,248.7710709000021,248.7710709000021,248.7710709000021,248.7710709000021,248.7710709000021,,008,P017,2025_Mar_07_1656,ConditionRich,2021.2.3,59.930624308663305,
180.0,196.0,0,0.0,Stimuli/Blank.png,1,1.0,1.75,0,82,82,82,,,,,,,,,,,,,180.0236023999969,0.02360239999688929,1,252.0072566000017,252.0072566000017,252.0072566000017,252.0072566000017,252.0072566000017,252.0072566000017,252.99144610000076,253.74211809999542,252.0072566000017,252.0072566000017,1.385118699996383,008,P017,2025_Mar_07_1656,ConditionRich,2021.2.3,59.930624308663305,
196.0,196.75,17,0.75,Stimuli/P017/sun_brhndfjxyigqgiwl.jpg,0,0.0,0.0,0,83,83,83,,,,,,,,,,,,,196.00475719999667,0.004757199996674899,None,267.9881815999979,267.9881815999979,267.9881815999979,267.9881815999979,267.9881815999979,267.9881815999979,267.9881815999979,267.9881815999979,267.9881815999979,267.9881815999979,,008,P017,2025_Mar_07_1656,ConditionRich,2021.2.3,59.930624308663305,
196.75,200.0,41,0.0,Stimuli/Blank.png,0,0.0,0.0,0,84,84,84,,,,,,,,,,,,,196.75575659999595,0.005756599995947909,None,268.73872039999696,268.73872039999696,268.73872039999696,268.73872039999696,268.73872039999696,268.73872039999696,268.73872039999696,268.73872039999696,268.73872039999696,268.73872039999696,,008,P017,2025_Mar_07_1656,ConditionRich,2021.2.3,59.930624308663305,
200.0,200.75,38,0.75,Stimuli/P017/things_pony_09s.jpg,0,0.0,0.0,0,85,85,85,,,,,,,,,,,,,200.00854389999586,0.008543899995856918,None,271.9915964999964,271.9915964999964,271.9915964999964,271.9915964999964,271.9915964999964,271.9915964999964,271.9915964999964,271.9915964999964,271.9915964999964,271.9915964999964,,008,P017,2025_Mar_07_1656,ConditionRich,2021.2.3,59.930624308663305,
200.75,204.0,41,0.0,Stimuli/Blank.png,0,0.0,0.0,0,86,86,86,,,,,,,,,,,,,200.7589863999965,0.00898639999650186,None,272.7422452999963,272.7422452999963,272.7422452999963,272.7422452999963,272.7422452999963,272.7422452999963,272.7422452999963,272.7422452999963,272.7422452999963,272.7422452999963,,008,P017,2025_Mar_07_1656,ConditionRich,2021.2.3,59.930624308663305,
204.0,204.75,6,0.75,Stimuli/P017/sun_atuyvunnykjurjgx.jpg,0,0.0,0.0,0,87,87,87,,,,,,,,,,,,,204.01245859999472,0.012458599994715769,None,275.99513930000103,275.99513930000103,275.99513930000103,275.99513930000103,275.99513930000103,275.99513930000103,275.99513930000103,275.99513930000103,275.99513930000103,275.99513930000103,,008,P017,2025_Mar_07_1656,ConditionRich,2021.2.3,59.930624308663305,
204.75,208.0,41,0.0,Stimuli/Blank.png,0,0.0,0.0,0,88,88,88,,,,,,,,,,,,,204.76282449999417,0.012824499994167127,None,276.7457981999978,276.7457981999978,276.7457981999978,276.7457981999978,276.7457981999978,276.7457981999978,276.7457981999978,276.7457981999978,276.7457981999978,276.7457981999978,,008,P017,2025_Mar_07_1656,ConditionRich,2021.2.3,59.930624308663305,
208.0,208.75,18,0.75,Stimuli/P017/sun_brrvvswweljrvnlq.jpg,0,0.0,0.0,0,89,89,89,,,,,,,,,,,,,207.99902769999608,-0.0009723000039230101,None,279.9820122999954,279.9820122999954,279.9820122999954,279.9820122999954,279.9820122999954,279.9820122999954,279.9820122999954,279.9820122999954,279.9820122999954,279.9820122999954,,008,P017,2025_Mar_07_1656,ConditionRich,2021.2.3,59.930624308663305,
208.75,212.0,41,0.0,Stimuli/Blank.png,1,0.25,1.0,0,90,90,90,,,,,,,,,,,,,208.7495082999958,-0.0004917000042041764,None,280.7326854999992,280.7326854999992,280.7326854999992,280.7326854999992,280.7326854999992,280.7326854999992,280.9661746999991,281.71684780000214,280.7326854999992,280.7326854999992,,008,P017,2025_Mar_07_1656,ConditionRich,2021.2.3,59.930624308663305,
212.0,212.75,37,0.75,Stimuli/P017/things_plastic_film_09s.jpg,0,0.0,0.0,0,91,91,91,,,,,,,,,,,,,212.00304329999926,0.003043299999262672,None,283.98552760000166,283.98552760000166,283.98552760000166,283.98552760000166,283.98552760000166,283.98552760000166,283.98552760000166,283.98552760000166,283.98552760000166,283.98552760000166,,008,P017,2025_Mar_07_1656,ConditionRich,2021.2.3,59.930624308663305,
212.75,216.0,41,0.0,Stimuli/Blank.png,0,0.0,0.0,0,92,92,92,,,,,,,,,,,,,212.75385249999817,0.0038524999981746078,None,284.73618279999937,284.73618279999937,284.73618279999937,284.73618279999937,284.73618279999937,284.73618279999937,284.73618279999937,284.73618279999937,284.73618279999937,284.73618279999937,,008,P017,2025_Mar_07_1656,ConditionRich,2021.2.3,59.930624308663305,
216.0,216.75,31,0.75,Stimuli/P017/things_highchair_09s.jpg,0,0.0,0.0,0,93,93,93,,,,,,,,,,,,,216.00837209999736,0.008372099997359328,None,288.0057631999953,288.0057631999953,288.0057631999953,288.0057631999953,288.0057631999953,288.0057631999953,288.0057631999953,288.0057631999953,288.0057631999953,288.0057631999953,,008,P017,2025_Mar_07_1656,ConditionRich,2021.2.3,59.930624308663305,
216.75,220.0,41,0.0,Stimuli/Blank.png,0,0.0,0.0,0,94,94,94,,,,,,,,,,,,,216.77427829999942,0.024278299999423325,None,288.7730852999957,288.7730852999957,288.7730852999957,288.7730852999957,288.7730852999957,288.7730852999957,288.7730852999957,288.7730852999957,288.7730852999957,288.7730852999957,,008,P017,2025_Mar_07_1656,ConditionRich,2021.2.3,59.930624308663305,
220.0,220.75,32,0.75,Stimuli/P017/things_horse_09s.jpg,0,0.0,0.0,0,95,95,95,,,,,,,,,,,,,220.02566249999654,0.025662499996542465,None,292.00927819999924,292.00927819999924,292.00927819999924,292.00927819999924,292.00927819999924,292.00927819999924,292.00927819999924,292.00927819999924,292.00927819999924,292.00927819999924,,008,P017,2025_Mar_07_1656,ConditionRich,2021.2.3,59.930624308663305,
220.75,224.0,41,0.0,Stimuli/Blank.png,1,0.25,1.0,0,96,96,96,,,,,,,,,,,,,220.75954300000012,0.009543000000121538,None,292.7432503999953,292.7432503999953,292.7432503999953,292.7432503999953,292.7432503999953,292.7432503999953,292.97677019999537,293.72750039999664,292.7432503999953,292.7432503999953,,008,P017,2025_Mar_07_1656,ConditionRich,2021.2.3,59.930624308663305,
224.0,224.75,15,0.75,Stimuli/P017/sun_bobznlnnzwznersx.jpg,0,0.0,0.0,0,97,97,97,,,,,,,,,,,,,224.01249850000022,0.012498500000219792,None,295.99612999999954,295.99612999999954,295.99612999999954,295.99612999999954,295.99612999999954,295.99612999999954,295.99612999999954,295.99612999999954,295.99612999999954,295.99612999999954,,008,P017,2025_Mar_07_1656,ConditionRich,2021.2.3,59.930624308663305,
224.75,228.0,41,0.0,Stimuli/Blank.png,0,0.0,0.0,0,98,98,98,,,,,,,,,,,,,224.763807299998,0.013807299998006783,None,296.746882200001,296.746882200001,296.746882200001,296.746882200001,296.746882200001,296.746882200001,296.746882200001,296.746882200001,296.746882200001,296.746882200001,,008,P017,2025_Mar_07_1656,ConditionRich,2021.2.3,59.930624308663305,
228.0,228.75,24,0.75,Stimuli/P017/things_breadbox_09s.jpg,0,0.0,0.0,0,99,99,99,,,,,,,,,,,,,227.9994286000001,-0.0005713999998988584,None,299.9829819000006,299.9829819000006,299.9829819000006,299.9829819000006,299.9829819000006,299.9829819000006,299.9829819000006,299.9829819000006,299.9829819000006,299.9829819000006,,008,P017,2025_Mar_07_1656,ConditionRich,2021.2.3,59.930624308663305,
228.75,232.0,41,0.0,Stimuli/Blank.png,0,0.0,0.0,0,100,100,100,,,,,,,,,,,,,228.75303789999452,0.003037899994524196,None,300.75034980000055,300.75034980000055,300.75034980000055,300.75034980000055,300.75034980000055,300.75034980000055,300.75034980000055,300.75034980000055,300.75034980000055,300.75034980000055,,008,P017,2025_Mar_07_1656,ConditionRich,2021.2.3,59.930624308663305,
232.0,232.75,35,0.75,Stimuli/P017/things_lobster_09s.jpg,0,0.0,0.0,0,101,101,101,,,,,,,,,,,,,232.01951649999683,0.019516499996825587,None,304.0032094999988,304.0032094999988,304.0032094999988,304.0032094999988,304.0032094999988,304.0032094999988,304.0032094999988,304.0032094999988,304.0032094999988,304.0032094999988,,008,P017,2025_Mar_07_1656,ConditionRich,2021.2.3,59.930624308663305,
232.75,236.0,41,0.0,Stimuli/Blank.png,0,0.0,0.0,0,102,102,102,,,,,,,,,,,,,232.75359319999552,0.0035931999955209903,None,304.7371888999987,304.7371888999987,304.7371888999987,304.7371888999987,304.7371888999987,304.7371888999987,304.7371888999987,304.7371888999987,304.7371888999987,304.7371888999987,,008,P017,2025_Mar_07_1656,ConditionRich,2021.2.3,59.930624308663305,
236.0,236.75,2,0.75,Stimuli/P017/sun_acliytrpktltxwsx.jpg,0,0.0,0.0,0,103,103,103,,,,,,,,,,,,,236.00707500000135,0.007075000001350418,None,308.0067460999999,308.0067460999999,308.0067460999999,308.0067460999999,308.0067460999999,308.0067460999999,308.0067460999999,308.0067460999999,308.0067460999999,308.0067460999999,,008,P017,2025_Mar_07_1656,ConditionRich,2021.2.3,59.930624308663305,
236.75,240.0,41,0.0,Stimuli/Blank.png,1,2.25,3.0,0,104,104,104,,,,,,,,,,,,,236.77379919999657,0.023799199996574316,None,308.75742719999835,308.75742719999835,308.75742719999835,308.75742719999835,308.75742719999835,308.75742719999835,310.99277509999956,311.74342420000175,308.75742719999835,308.75742719999835,,008,P017,2025_Mar_07_1656,ConditionRich,2021.2.3,59.930624308663305,
240.0,240.75,4,0.75,Stimuli/P017/sun_aibvvqlmlsjnrgdj.jpg,0,0.0,0.0,0,105,105,105,,,,,,,,,,,,,240.00994069999433,0.009940699994331226,None,312.01027690000046,312.01027690000046,312.01027690000046,312.01027690000046,312.01027690000046,312.01027690000046,312.01027690000046,312.01027690000046,312.01027690000046,312.01027690000046,,008,P017,2025_Mar_07_1656,ConditionRich,2021.2.3,59.930624308663305,
240.75,244.0,41,0.0,Stimuli/Blank.png,0,0.0,0.0,0,106,106,106,,,,,,,,,,,,,240.77878419999615,0.028784199996152893,None,312.7609594999958,312.7609594999958,312.7609594999958,312.7609594999958,312.7609594999958,312.7609594999958,312.7609594999958,312.7609594999958,312.7609594999958,312.7609594999958,,008,P017,2025_Mar_07_1656,ConditionRich,2021.2.3,59.930624308663305,
244.0,244.75,40,0.75,Stimuli/P017/things_woman_09s.jpg,0,0.0,0.0,0,107,107,107,,,,,,,,,,,,,244.0140059999976,0.014005999997607432,None,315.99714069999754,315.99714069999754,315.99714069999754,315.99714069999754,315.99714069999754,315.99714069999754,315.99714069999754,315.99714069999754,315.99714069999754,315.99714069999754,,008,P017,2025_Mar_07_1656,ConditionRich,2021.2.3,59.930624308663305,
244.75,248.0,41,0.0,Stimuli/Blank.png,0,0.0,0.0,0,108,108,108,,,,,,,,,,,,,244.76423739999882,0.014237399998819456,None,316.7477985000005,316.7477985000005,316.7477985000005,316.7477985000005,316.7477985000005,316.7477985000005,316.7477985000005,316.7477985000005,316.7477985000005,316.7477985000005,,008,P017,2025_Mar_07_1656,ConditionRich,2021.2.3,59.930624308663305,
248.0,248.75,14,0.75,Stimuli/P017/sun_bljpqnfmmqkjsfvx.jpg,0,0.0,0.0,0,109,109,109,,,,,,,,,,,,,248.00045529999625,0.0004552999962470494,None,320.0007003999999,320.0007003999999,320.0007003999999,320.0007003999999,320.0007003999999,320.0007003999999,320.0007003999999,320.0007003999999,320.0007003999999,320.0007003999999,,008,P017,2025_Mar_07_1656,ConditionRich,2021.2.3,59.930624308663305,
248.75,252.0,41,0.0,Stimuli/Blank.png,0,0.0,0.0,0,110,110,110,,,,,,,,,,,,,248.76766079999652,0.017660799996519927,None,320.7513493000006,320.7513493000006,320.7513493000006,320.7513493000006,320.7513493000006,320.7513493000006,320.7513493000006,320.7513493000006,320.7513493000006,320.7513493000006,,008,P017,2025_Mar_07_1656,ConditionRich,2021.2.3,59.930624308663305,
252.0,252.75,39,0.75,Stimuli/P017/things_veil_09s.jpg,0,0.0,0.0,0,111,111,111,,,,,,,,,,,,,252.00381059999927,0.0038105999992694706,None,323.98753520000173,323.98753520000173,323.98753520000173,323.98753520000173,323.98753520000173,323.98753520000173,323.98753520000173,323.98753520000173,323.98753520000173,323.98753520000173,,008,P017,2025_Mar_07_1656,ConditionRich,2021.2.3,59.930624308663305,
252.75,256.0,41,0.0,Stimuli/Blank.png,0,0.0,0.0,0,112,112,112,,,,,,,,,,,,,252.75526589999936,0.005265899999358226,None,324.7382893999966,324.7382893999966,324.7382893999966,324.7382893999966,324.7382893999966,324.7382893999966,324.7382893999966,324.7382893999966,324.7382893999966,324.7382893999966,,008,P017,2025_Mar_07_1656,ConditionRich,2021.2.3,59.930624308663305,
256.0,256.75,26,0.75,Stimuli/P017/things_chandelier_09s.jpg,1,0.0,0.75,0,113,113,113,,,,,,,,,,,,,256.008533799999,0.008533799998986069,None,328.00778439999704,328.00778439999704,328.00778439999704,328.00778439999704,328.00778439999704,328.00778439999704,328.00778439999704,328.7250758000009,328.00778439999704,328.00778439999704,,008,P017,2025_Mar_07_1656,ConditionRich,2021.2.3,59.930624308663305,
256.75,260.0,41,0.0,Stimuli/Blank.png,0,0.0,0.0,0,114,114,114,,,,,,,,,,,,,256.7754974999989,0.025497499998891726,None,328.75850479999644,328.75850479999644,328.75850479999644,328.75850479999644,328.75850479999644,328.75850479999644,328.75850479999644,328.75850479999644,328.75850479999644,328.75850479999644,,008,P017,2025_Mar_07_1656,ConditionRich,2021.2.3,59.930624308663305,
260.0,260.75,12,0.75,Stimuli/P017/sun_bhvaiabdgxjuwoth.jpg,0,0.0,0.0,0,115,115,115,,,,,,,,,,,,,260.01164649999555,0.011646499995549675,None,332.011308000001,332.011308000001,332.011308000001,332.011308000001,332.011308000001,332.011308000001,332.011308000001,332.011308000001,332.011308000001,332.011308000001,,008,P017,2025_Mar_07_1656,ConditionRich,2021.2.3,59.930624308663305,
260.75,264.0,41,0.0,Stimuli/Blank.png,1,1.25,2.0,0,116,116,116,,,,,,,,,,,,,260.7785079999958,0.028507999995781574,None,332.761963500001,332.761963500001,332.761963500001,332.761963500001,332.761963500001,332.761963500001,333.99638810000033,334.7470933000004,332.761963500001,332.761963500001,,008,P017,2025_Mar_07_1656,ConditionRich,2021.2.3,59.930624308663305,
264.0,264.75,3,0.75,Stimuli/P017/sun_acymmczhyuiimeub.jpg,0,0.0,0.0,0,117,117,117,,,,,,,,,,,,,264.01476759999787,0.014767599997867364,None,336.01484179999534,336.01484179999534,336.01484179999534,336.01484179999534,336.01484179999534,336.01484179999534,336.01484179999534,336.01484179999534,336.01484179999534,336.01484179999534,,008,P017,2025_Mar_07_1656,ConditionRich,2021.2.3,59.930624308663305,
264.75,268.0,41,0.0,Stimuli/Blank.png,0,0.0,0.0,0,118,118,118,,,,,,,,,,,,,264.7817961999972,0.03179619999718852,None,336.7655311999988,336.7655311999988,336.7655311999988,336.7655311999988,336.7655311999988,336.7655311999988,336.7655311999988,336.7655311999988,336.7655311999988,336.7655311999988,,008,P017,2025_Mar_07_1656,ConditionRich,2021.2.3,59.930624308663305,
268.0,268.75,22,0.75,Stimuli/P017/things_boat_09s.jpg,0,0.0,0.0,0,119,119,119,,,,,,,,,,,,,268.0021207999962,0.0021207999961916357,None,340.0016562999954,340.0016562999954,340.0016562999954,340.0016562999954,340.0016562999954,340.0016562999954,340.0016562999954,340.0016562999954,340.0016562999954,340.0016562999954,,008,P017,2025_Mar_07_1656,ConditionRich,2021.2.3,59.930624308663305,
268.75,272.0,41,0.0,Stimuli/Blank.png,0,0.0,0.0,0,120,120,120,,,,,,,,,,,,,268.7687899999946,0.01878999999462394,None,340.75237009999546,340.75237009999546,340.75237009999546,340.75237009999546,340.75237009999546,340.75237009999546,340.75237009999546,340.75237009999546,340.75237009999546,340.75237009999546,,008,P017,2025_Mar_07_1656,ConditionRich,2021.2.3,59.930624308663305,
272.0,272.75,19,0.75,Stimuli/P017/sun_brrwzaypucosdcgt.jpg,0,0.0,0.0,0,121,121,121,,,,,,,,,,,,,272.0048677999948,0.0048677999948267825,None,343.98855280000134,343.98855280000134,343.98855280000134,343.98855280000134,343.98855280000134,343.98855280000134,343.98855280000134,343.98855280000134,343.98855280000134,343.98855280000134,,008,P017,2025_Mar_07_1656,ConditionRich,2021.2.3,59.930624308663305,
272.75,276.0,41,0.0,Stimuli/Blank.png,0,0.0,0.0,0,122,122,122,,,,,,,,,,,,,272.757723499999,0.007723499998974148,None,344.7559046000024,344.7559046000024,344.7559046000024,344.7559046000024,344.7559046000024,344.7559046000024,344.7559046000024,344.7559046000024,344.7559046000024,344.7559046000024,,008,P017,2025_Mar_07_1656,ConditionRich,2021.2.3,59.930624308663305,
276.0,292.0,0,0.0,Stimuli/Blank.png,1,12.0,12.75,0,123,123,123,,,,,,,,,,,,,276.0250792999941,0.025079299994104076,1,348.00886249999894,348.00886249999894,348.00886249999894,348.00886249999894,348.00886249999894,348.00886249999894,359.9860312999954,360.7366922000001,348.00886249999894,348.00886249999894,12.378518400000758,008,P017,2025_Mar_07_1656,ConditionRich,2021.2.3,59.930624308663305,
292.0,292.75,11,0.75,Stimuli/P017/sun_bdzxsadvniuolmio.jpg,0,0.0,0.0,0,124,124,124,,,,,,,,,,,,,292.00828859999456,0.008288599994557444,None,364.0062521,364.0062521,364.0062521,364.0062521,364.0062521,364.0062521,364.0062521,364.0062521,364.0062521,364.0062521,,008,P017,2025_Mar_07_1656,ConditionRich,2021.2.3,59.930624308663305,
292.75,296.0,41,0.0,Stimuli/Blank.png,0,0.0,0.0,0,125,125,125,,,,,,,,,,,,,292.7733936000004,0.02339360000041779,None,364.7569155999954,364.7569155999954,364.7569155999954,364.7569155999954,364.7569155999954,364.7569155999954,364.7569155999954,364.7569155999954,364.7569155999954,364.7569155999954,,008,P017,2025_Mar_07_1656,ConditionRich,2021.2.3,59.930624308663305,
296.0,296.75,36,0.75,Stimuli/P017/things_nest_09s.jpg,0,0.0,0.0,0,126,126,126,,,,,,,,,,,,,296.00994060000085,0.009940600000845734,None,367.993103599998,367.993103599998,367.993103599998,367.993103599998,367.993103599998,367.993103599998,367.993103599998,367.993103599998,367.993103599998,367.993103599998,,008,P017,2025_Mar_07_1656,ConditionRich,2021.2.3,59.930624308663305,
296.75,300.0,41,0.0,Stimuli/Blank.png,0,0.0,0.0,0,127,127,127,,,,,,,,,,,,,296.76057310000033,0.01057310000032885,None,368.7437656999973,368.7437656999973,368.7437656999973,368.7437656999973,368.7437656999973,368.7437656999973,368.7437656999973,368.7437656999973,368.7437656999973,368.7437656999973,,008,P017,2025_Mar_07_1656,ConditionRich,2021.2.3,59.930624308663305,
300.0,300.75,1,0.75,Stimuli/P017/sun_aawmwfqqbzauhqkb.jpg,0,0.0,0.0,0,128,128,128,,,,,,,,,,,,,300.01359629999934,0.013596299999335315,None,372.0133180999983,372.0133180999983,372.0133180999983,372.0133180999983,372.0133180999983,372.0133180999983,372.0133180999983,372.0133180999983,372.0133180999983,372.0133180999983,,008,P017,2025_Mar_07_1656,ConditionRich,2021.2.3,59.930624308663305,
300.75,304.0,41,0.0,Stimuli/Blank.png,0,0.0,0.0,0,129,129,129,,,,,,,,,,,,,300.78023479999683,0.030234799996833317,None,372.76398730000074,372.76398730000074,372.76398730000074,372.76398730000074,372.76398730000074,372.76398730000074,372.76398730000074,372.76398730000074,372.76398730000074,372.76398730000074,,008,P017,2025_Mar_07_1656,ConditionRich,2021.2.3,59.930624308663305,
304.0,304.75,28,0.75,Stimuli/P017/things_collar_09s.jpg,0,0.0,0.0,0,130,130,130,,,,,,,,,,,,,304.00276499999745,0.0027649999974528328,None,376.000183199998,376.000183199998,376.000183199998,376.000183199998,376.000183199998,376.000183199998,376.000183199998,376.000183199998,376.000183199998,376.000183199998,,008,P017,2025_Mar_07_1656,ConditionRich,2021.2.3,59.930624308663305,
304.75,308.0,41,0.0,Stimuli/Blank.png,0,0.0,0.0,0,131,131,131,,,,,,,,,,,,,304.76817079999455,0.01817079999455018,None,376.7509282999963,376.7509282999963,376.7509282999963,376.7509282999963,376.7509282999963,376.7509282999963,376.7509282999963,376.7509282999963,376.7509282999963,376.7509282999963,,008,P017,2025_Mar_07_1656,ConditionRich,2021.2.3,59.930624308663305,
308.0,308.75,10,0.75,Stimuli/P017/sun_bayxprasninnrnle.jpg,0,0.0,0.0,0,132,132,132,,,,,,,,,,,,,308.00394080000115,0.003940800001146272,None,379.987034400001,379.987034400001,379.987034400001,379.987034400001,379.987034400001,379.987034400001,379.987034400001,379.987034400001,379.987034400001,379.987034400001,,008,P017,2025_Mar_07_1656,ConditionRich,2021.2.3,59.930624308663305,
308.75,312.0,41,0.0,Stimuli/Blank.png,0,0.0,0.0,0,133,133,133,,,,,,,,,,,,,308.75397599999997,0.003975999999966007,None,380.73769750000065,380.73769750000065,380.73769750000065,380.73769750000065,380.73769750000065,380.73769750000065,380.73769750000065,380.73769750000065,380.73769750000065,380.73769750000065,,008,P017,2025_Mar_07_1656,ConditionRich,2021.2.3,59.930624308663305,
312.0,312.75,5,0.75,Stimuli/P017/sun_apojgqgvdvsksdvo.jpg,0,0.0,0.0,0,134,134,134,,,,,,,,,,,,,312.00747939999565,0.007479399995645508,None,383.99059229999693,383.99059229999693,383.99059229999693,383.99059229999693,383.99059229999693,383.99059229999693,383.99059229999693,383.99059229999693,383.99059229999693,383.99059229999693,,008,P017,2025_Mar_07_1656,ConditionRich,2021.2.3,59.930624308663305,
312.75,316.0,41,0.0,Stimuli/Blank.png,0,0.0,0.0,0,135,135,135,,,,,,,,,,,,,312.7575826999964,0.007582699996419251,None,384.7412403999988,384.7412403999988,384.7412403999988,384.7412403999988,384.7412403999988,384.7412403999988,384.7412403999988,384.7412403999988,384.7412403999988,384.7412403999988,,008,P017,2025_Mar_07_1656,ConditionRich,2021.2.3,59.930624308663305,
316.0,316.75,29,0.75,Stimuli/P017/things_face_09s.jpg,0,0.0,0.0,0,136,136,136,,,,,,,,,,,,,316.0132672999971,0.013267299997096416,None,388.0107979000022,388.0107979000022,388.0107979000022,388.0107979000022,388.0107979000022,388.0107979000022,388.0107979000022,388.0107979000022,388.0107979000022,388.0107979000022,,008,P017,2025_Mar_07_1656,ConditionRich,2021.2.3,59.930624308663305,
316.75,320.0,41,0.0,Stimuli/Blank.png,0,0.0,0.0,0,137,137,137,,,,,,,,,,,,,316.7777255999972,0.027725599997211248,None,388.76146139999764,388.76146139999764,388.76146139999764,388.76146139999764,388.76146139999764,388.76146139999764,388.76146139999764,388.76146139999764,388.76146139999764,388.76146139999764,,008,P017,2025_Mar_07_1656,ConditionRich,2021.2.3,59.930624308663305,
320.0,320.75,7,0.75,Stimuli/P017/sun_auadhqmfjsjtjcue.jpg,0,0.0,0.0,0,138,138,138,,,,,,,,,,,,,320.01479259999905,0.0147925999990548,None,391.9976506999956,391.9976506999956,391.9976506999956,391.9976506999956,391.9976506999956,391.9976506999956,391.9976506999956,391.9976506999956,391.9976506999956,391.9976506999956,,008,P017,2025_Mar_07_1656,ConditionRich,2021.2.3,59.930624308663305,
320.75,324.0,41,0.0,Stimuli/Blank.png,0,0.0,0.0,0,139,139,139,,,,,,,,,,,,,320.76768099999754,0.017680999997537583,None,392.76501599999756,392.76501599999756,392.76501599999756,392.76501599999756,392.76501599999756,392.76501599999756,392.76501599999756,392.76501599999756,392.76501599999756,392.76501599999756,,008,P017,2025_Mar_07_1656,ConditionRich,2021.2.3,59.930624308663305,
324.0,324.75,25,0.75,Stimuli/P017/things_cannonball_09s.jpg,0,0.0,0.0,0,140,140,140,,,,,,,,,,,,,324.0176339999962,0.017633999996178318,None,396.0011951999986,396.0011951999986,396.0011951999986,396.0011951999986,396.0011951999986,396.0011951999986,396.0011951999986,396.0011951999986,396.0011951999986,396.0011951999986,,008,P017,2025_Mar_07_1656,ConditionRich,2021.2.3,59.930624308663305,
324.75,328.0,41,0.0,Stimuli/Blank.png,0,0.0,0.0,0,141,141,141,,,,,,,,,,,,,324.75222779999604,0.0022277999960351735,None,396.73519130000204,396.73519130000204,396.73519130000204,396.73519130000204,396.73519130000204,396.73519130000204,396.73519130000204,396.73519130000204,396.73519130000204,396.73519130000204,,008,P017,2025_Mar_07_1656,ConditionRich,2021.2.3,59.930624308663305,
328.0,328.75,9,0.75,Stimuli/P017/sun_ayidxslzurdumeps.jpg,0,0.0,0.0,0,142,142,142,,,,,,,,,,,,,328.00470230000064,0.004702300000644755,None,399.98804029999883,399.98804029999883,399.98804029999883,399.98804029999883,399.98804029999883,399.98804029999883,399.98804029999883,399.98804029999883,399.98804029999883,399.98804029999883,,008,P017,2025_Mar_07_1656,ConditionRich,2021.2.3,59.930624308663305,
328.75,332.0,41,0.0,Stimuli/Blank.png,0,0.0,0.0,0,143,143,143,,,,,,,,,,,,,328.7558093999978,0.00580939999781549,None,400.73872349999874,400.73872349999874,400.73872349999874,400.73872349999874,400.73872349999874,400.73872349999874,400.73872349999874,400.73872349999874,400.73872349999874,400.73872349999874,,008,P017,2025_Mar_07_1656,ConditionRich,2021.2.3,59.930624308663305,
332.0,332.75,23,0.75,Stimuli/P017/things_boy_09s.jpg,0,0.0,0.0,0,144,144,144,,,,,,,,,,,,,332.008802999997,0.008802999996987637,None,403.99158909999824,403.99158909999824,403.99158909999824,403.99158909999824,403.99158909999824,403.99158909999824,403.99158909999824,403.99158909999824,403.99158909999824,403.99158909999824,,008,P017,2025_Mar_07_1656,ConditionRich,2021.2.3,59.930624308663305,
332.75,336.0,41,0.0,Stimuli/Blank.png,0,0.0,0.0,0,145,145,145,,,,,,,,,,,,,332.75847539999813,0.00847539999813307,None,404.7422499000022,404.7422499000022,404.7422499000022,404.7422499000022,404.7422499000022,404.7422499000022,404.7422499000022,404.7422499000022,404.7422499000022,404.7422499000022,,008,P017,2025_Mar_07_1656,ConditionRich,2021.2.3,59.930624308663305,
336.0,336.75,16,0.75,Stimuli/P017/sun_brfwxjsnmauhmfzf.jpg,0,0.0,0.0,0,146,146,146,,,,,,,,,,,,,336.0120978999985,0.012097899998479988,None,407.99514259999705,407.99514259999705,407.99514259999705,407.99514259999705,407.99514259999705,407.99514259999705,407.99514259999705,407.99514259999705,407.99514259999705,407.99514259999705,,008,P017,2025_Mar_07_1656,ConditionRich,2021.2.3,59.930624308663305,
336.75,340.0,41,0.0,Stimuli/Blank.png,0,0.0,0.0,0,147,147,147,,,,,,,,,,,,,336.76294519999647,0.012945199996465817,None,408.7457910000012,408.7457910000012,408.7457910000012,408.7457910000012,408.7457910000012,408.7457910000012,408.7457910000012,408.7457910000012,408.7457910000012,408.7457910000012,,008,P017,2025_Mar_07_1656,ConditionRich,2021.2.3,59.930624308663305,
340.0,340.75,21,0.75,Stimuli/P017/things_baby_09s.jpg,0,0.0,0.0,0,148,148,148,,,,,,,,,,,,,339.998877799997,-0.0011222000030102208,None,411.9819864999954,411.9819864999954,411.9819864999954,411.9819864999954,411.9819864999954,411.9819864999954,411.9819864999954,411.9819864999954,411.9819864999954,411.9819864999954,,008,P017,2025_Mar_07_1656,ConditionRich,2021.2.3,59.930624308663305,
340.75,344.0,41,0.0,Stimuli/Blank.png,1,2.25,3.0,0,149,149,149,,,,,,,,,,,,,340.7491676999998,-0.0008323000001837499,1,412.7326633999983,412.7326633999983,412.7326633999983,412.7326633999983,412.7326633999983,412.7326633999983,414.96801530000084,415.71866439999576,412.7326633999983,412.7326633999983,2.6077185000031022,008,P017,2025_Mar_07_1656,ConditionRich,2021.2.3,59.930624308663305,
344.0,344.75,13,0.75,Stimuli/P017/sun_bizqwyomkqigheyx.jpg,0,0.0,0.0,0,150,150,150,,,,,,,,,,,,,344.0035854999951,0.0035854999950970523,None,416.0022007000007,416.0022007000007,416.0022007000007,416.0022007000007,416.0022007000007,416.0022007000007,416.0022007000007,416.0022007000007,416.0022007000007,416.0022007000007,,008,P017,2025_Mar_07_1656,ConditionRich,2021.2.3,59.930624308663305,
344.75,348.0,41,0.0,Stimuli/Blank.png,1,0.25,1.0,0,151,151,151,,,,,,,,,,,,,344.7699047999995,0.01990479999949457,1,416.7528644999984,416.7528644999984,416.7528644999984,416.7528644999984,416.7528644999984,416.7528644999984,416.98639620000176,417.73713529999804,416.7528644999984,416.7528644999984,0.6025571999998647,008,P017,2025_Mar_07_1656,ConditionRich,2021.2.3,59.930624308663305,
348.0,348.75,33,0.75,Stimuli/P017/things_lamb_09s.jpg,0,0.0,0.0,0,152,152,152,,,,,,,,,,,,,348.00826640000014,0.008266400000138674,None,420.0057560999994,420.0057560999994,420.0057560999994,420.0057560999994,420.0057560999994,420.0057560999994,420.0057560999994,420.0057560999994,420.0057560999994,420.0057560999994,,008,P017,2025_Mar_07_1656,ConditionRich,2021.2.3,59.930624308663305,
348.75,352.0,41,0.0,Stimuli/Blank.png,0,0.0,0.0,0,153,153,153,,,,,,,,,,,,,348.77336029999424,0.02336029999423772,None,420.7564121999967,420.7564121999967,420.7564121999967,420.7564121999967,420.7564121999967,420.7564121999967,420.7564121999967,420.7564121999967,420.7564121999967,420.7564121999967,,008,P017,2025_Mar_07_1656,ConditionRich,2021.2.3,59.930624308663305,
352.0,352.75,30,0.75,Stimuli/P017/things_girl_09s.jpg,1,0.0,0.75,0,154,154,154,,,,,,,,,,,,,352.008937599996,0.008937599995988421,1,423.9926009999981,423.9926009999981,423.9926009999981,423.9926009999981,423.9926009999981,423.9926009999981,423.9926009999981,424.7265976999988,423.9926009999981,423.9926009999981,0.5188682000007248,008,P017,2025_Mar_07_1656,ConditionRich,2021.2.3,59.930624308663305,
352.75,356.0,41,0.0,Stimuli/Blank.png,0,0.0,0.0,0,155,155,155,,,,,,,,,,,,,352.76074589999916,0.010745899999164976,None,424.7433638000002,424.7433638000002,424.7433638000002,424.7433638000002,424.7433638000002,424.7433638000002,424.7433638000002,424.7433638000002,424.7433638000002,424.7433638000002,,008,P017,2025_Mar_07_1656,ConditionRich,2021.2.3,59.930624308663305,
356.0,356.75,20,0.75,Stimuli/P017/sun_buukivvfbfhosrng.jpg,0,0.0,0.0,0,156,156,156,,,,,,,,,,,,,356.0132334000009,0.013233400000899564,None,427.9961333999963,427.9961333999963,427.9961333999963,427.9961333999963,427.9961333999963,427.9961333999963,427.9961333999963,427.9961333999963,427.9961333999963,427.9961333999963,,008,P017,2025_Mar_07_1656,ConditionRich,2021.2.3,59.930624308663305,
356.75,360.0,41,0.0,Stimuli/Blank.png,1,1.25,2.0,0,157,157,157,,,,,,,,,,,,,356.76329799999803,0.013297999998030718,1,428.7468172000008,428.7468172000008,428.7468172000008,428.7468172000008,428.7468172000008,428.7468172000008,429.9812286000015,430.73188529999607,428.7468172000008,428.7468172000008,1.558715499995742,008,P017,2025_Mar_07_1656,ConditionRich,2021.2.3,59.930624308663305,
360.0,360.75,34,0.75,Stimuli/P017/things_llama_09s.jpg,0,0.0,0.0,0,158,158,158,,,,,,,,,,,,,360.0001881999997,0.00018819999968400225,None,431.9829938999974,431.9829938999974,431.9829938999974,431.9829938999974,431.9829938999974,431.9829938999974,431.9829938999974,431.9829938999974,431.9829938999974,431.9829938999974,,008,P017,2025_Mar_07_1656,ConditionRich,2021.2.3,59.930624308663305,
360.75,364.0,41,0.0,Stimuli/Blank.png,0,0.0,0.0,0,159,159,159,,,,,,,,,,,,,360.7502550999998,0.0002550999997765757,None,432.73373349999747,432.73373349999747,432.73373349999747,432.73373349999747,432.73373349999747,432.73373349999747,432.73373349999747,432.73373349999747,432.73373349999747,432.73373349999747,,008,P017,2025_Mar_07_1656,ConditionRich,2021.2.3,59.930624308663305,
364.0,364.75,27,0.75,Stimuli/P017/things_coffin_09s.jpg,0,0.0,0.0,0,160,160,160,,,,,,,,,,,,,364.00367939999705,0.0036793999970541336,None,435.9865447999982,435.9865447999982,435.9865447999982,435.9865447999982,435.9865447999982,435.9865447999982,435.9865447999982,435.9865447999982,435.9865447999982,435.9865447999982,,008,P017,2025_Mar_07_1656,ConditionRich,2021.2.3,59.930624308663305,
364.75,368.0,41,0.0,Stimuli/Blank.png,0,0.0,0.0,0,161,161,161,,,,,,,,,,,,,364.7535962999973,0.003596299997298047,None,436.7371951000023,436.7371951000023,436.7371951000023,436.7371951000023,436.7371951000023,436.7371951000023,436.7371951000023,436.7371951000023,436.7371951000023,436.7371951000023,,008,P017,2025_Mar_07_1656,ConditionRich,2021.2.3,59.930624308663305,
368.0,368.75,8,0.75,Stimuli/P017/sun_axsmqyyvebrcuhkn.jpg,0,0.0,0.0,0,162,162,162,,,,,,,,,,,,,368.00769559999753,0.007695599997532554,None,440.0067863000004,440.0067863000004,440.0067863000004,440.0067863000004,440.0067863000004,440.0067863000004,440.0067863000004,440.0067863000004,440.0067863000004,440.0067863000004,,008,P017,2025_Mar_07_1656,ConditionRich,2021.2.3,59.930624308663305,
368.75,372.0,41,0.0,Stimuli/Blank.png,0,0.0,0.0,0,163,163,163,,,,,,,,,,,,,368.774399599999,0.024399599999014754,None,440.7574248000019,440.7574248000019,440.7574248000019,440.7574248000019,440.7574248000019,440.7574248000019,440.7574248000019,440.7574248000019,440.7574248000019,440.7574248000019,,008,P017,2025_Mar_07_1656,ConditionRich,2021.2.3,59.930624308663305,
372.0,388.0,0,0.0,Stimuli/Blank.png,1,7.0,7.75,0,164,164,164,,,,,,,,,,,,,372.01050479999685,0.010504799996851943,1,443.99361150000186,443.99361150000186,443.99361150000186,443.99361150000186,443.99361150000186,443.99361150000186,450.9831694000022,451.7338319999981,443.99361150000186,443.99361150000186,7.584858900001564,008,P017,2025_Mar_07_1656,ConditionRich,2021.2.3,59.930624308663305,
