eventStartTime,eventEndTime,eventCond,imSize,imFile,responseEvent,fixRespStart,fixRespEnd,Events.thisRepN,Events.thisTrialN,Events.thisN,Events.thisIndex,Instructions.started,Instructions.stopped,participantReadyResponse.keys,participantReadyResponse.rt,participantReadyResponse.started,participantReadyResponse.stopped,startWaitforTrigger,triggerResponse.keys,triggerResponse.rt,triggerResponse.started,triggerResponse.stopped,globalTimer,actualStartTime,startTimingDiff,participantResponse.keys,participantResponse.started,participantResponse.stopped,image.started,image.stopped,fixationOutside.started,fixationOutside.stopped,fixationResponse.started,fixationResponse.stopped,fixationInside.started,fixationInside.stopped,participantResponse.rt,session,participant,date,expName,psychopyVersion,frameRate,
,,,,,,,,,,,,10.035674899998412,None,1,9.018506699998397,10.035674899998412,None,,,,,,,,,,,,,,,,,,,,,004,P017,2025_Mar_07_1619,ConditionRich,2021.2.3,59.9495225015405,
,,,,,,,,,,,,,,,,,,19.063643299999967,5,14.527909999997064,19.076281199999357,None,,,,,,,,,,,,,,,,004,P017,2025_Mar_07_1619,ConditionRich,2021.2.3,59.9495225015405,
0.0,4.0,0,0.0,Stimuli/Blank.png,0,0,0.0,0,0,0,0,,,,,,,,,,,,33.60998259999906,0.06062789999850793,0.06062789999850793,None,33.68919040000037,None,33.68919040000037,None,33.68919040000037,None,33.68919040000037,33.68919040000037,33.68919040000037,None,,004,P017,2025_Mar_07_1619,ConditionRich,2021.2.3,59.9495225015405,
4.0,4.75,23,0.75,Stimuli/P017/things_boy_09s.jpg,0,0,0.0,0,1,1,1,,,,,,,,,,,,,4.0214268999989145,0.02142689999891445,None,37.659641700000066,37.659641700000066,37.659641700000066,37.659641700000066,37.659641700000066,37.659641700000066,37.659641700000066,37.659641700000066,37.659641700000066,37.659641700000066,,004,P017,2025_Mar_07_1619,ConditionRich,2021.2.3,59.9495225015405,
4.75,5.0,41,0.0,Stimuli/Blank.png,0,0,0.0,0,2,2,2,,,,,,,,,,,,,4.770029899998917,0.020029899998917244,None,38.3936713999974,38.3936713999974,38.3936713999974,38.3936713999974,38.3936713999974,38.3936713999974,38.3936713999974,38.3936713999974,38.3936713999974,38.3936713999974,,004,P017,2025_Mar_07_1619,ConditionRich,2021.2.3,59.9495225015405,
5.0,5.75,23,0.75,Stimuli/P017/things_boy_09s.jpg,0,0,0.0,0,3,3,3,,,,,,,,,,,,,5.005106199998409,0.005106199998408556,None,38.643590499999846,38.643590499999846,38.643590499999846,38.643590499999846,38.643590499999846,38.643590499999846,38.643590499999846,38.643590499999846,38.643590499999846,38.643590499999846,,004,P017,2025_Mar_07_1619,ConditionRich,2021.2.3,59.9495225015405,
5.75,6.0,41,0.0,Stimuli/Blank.png,0,0,0.0,0,4,4,4,,,,,,,,,,,,,5.770864000001893,0.020864000001893146,None,39.41094089999751,39.41094089999751,39.41094089999751,39.41094089999751,39.41094089999751,39.41094089999751,39.41094089999751,39.41094089999751,39.41094089999751,39.41094089999751,,004,P017,2025_Mar_07_1619,ConditionRich,2021.2.3,59.9495225015405,
6.0,6.75,23,0.75,Stimuli/P017/things_boy_09s.jpg,0,0,0.0,0,5,5,5,,,,,,,,,,,,,6.020627800000511,0.020627800000511343,None,39.644458899998426,39.644458899998426,39.644458899998426,39.644458899998426,39.644458899998426,39.644458899998426,39.644458899998426,39.644458899998426,39.644458899998426,39.644458899998426,,004,P017,2025_Mar_07_1619,ConditionRich,2021.2.3,59.9495225015405,
6.75,7.0,41,0.0,Stimuli/Blank.png,0,0,0.0,0,6,6,6,,,,,,,,,,,,,6.754151500001171,0.004151500001171371,None,40.378435499998886,40.378435499998886,40.378435499998886,40.378435499998886,40.378435499998886,40.378435499998886,40.378435499998886,40.378435499998886,40.378435499998886,40.378435499998886,,004,P017,2025_Mar_07_1619,ConditionRich,2021.2.3,59.9495225015405,
7.0,7.75,23,0.75,Stimuli/P017/things_boy_09s.jpg,0,0,0.0,0,7,7,7,,,,,,,,,,,,,7.004351300001872,0.004351300001872005,None,40.62863129999823,40.62863129999823,40.62863129999823,40.62863129999823,40.62863129999823,40.62863129999823,40.62863129999823,40.62863129999823,40.62863129999823,40.62863129999823,,004,P017,2025_Mar_07_1619,ConditionRich,2021.2.3,59.9495225015405,
7.75,8.0,41,0.0,Stimuli/Blank.png,0,0,0.0,0,8,8,8,,,,,,,,,,,,,7.755370800001401,0.005370800001401221,None,41.379342199998064,41.379342199998064,41.379342199998064,41.379342199998064,41.379342199998064,41.379342199998064,41.379342199998064,41.379342199998064,41.379342199998064,41.379342199998064,,004,P017,2025_Mar_07_1619,ConditionRich,2021.2.3,59.9495225015405,
8.0,8.75,40,0.75,Stimuli/P017/things_woman_09s.jpg,0,0,0.0,0,9,9,9,,,,,,,,,,,,,8.006527400000778,0.006527400000777561,None,41.64622389999931,41.64622389999931,41.64622389999931,41.64622389999931,41.64622389999931,41.64622389999931,41.64622389999931,41.64622389999931,41.64622389999931,41.64622389999931,,004,P017,2025_Mar_07_1619,ConditionRich,2021.2.3,59.9495225015405,
8.75,9.0,41,0.0,Stimuli/Blank.png,0,0,0.0,0,10,10,10,,,,,,,,,,,,,8.773349200000666,0.023349200000666315,None,42.39690399999745,42.39690399999745,42.39690399999745,42.39690399999745,42.39690399999745,42.39690399999745,42.39690399999745,42.39690399999745,42.39690399999745,42.39690399999745,,004,P017,2025_Mar_07_1619,ConditionRich,2021.2.3,59.9495225015405,
9.0,9.75,40,0.75,Stimuli/P017/things_woman_09s.jpg,0,0,0.0,0,11,11,11,,,,,,,,,,,,,9.006968900001084,0.006968900001083966,None,42.63042879999921,42.63042879999921,42.63042879999921,42.63042879999921,42.63042879999921,42.63042879999921,42.63042879999921,42.63042879999921,42.63042879999921,42.63042879999921,,004,P017,2025_Mar_07_1619,ConditionRich,2021.2.3,59.9495225015405,
9.75,10.0,41,0.0,Stimuli/Blank.png,0,0,0.0,0,12,12,12,,,,,,,,,,,,,9.75726510000095,0.007265100000950042,None,43.38111310000022,43.38111310000022,43.38111310000022,43.38111310000022,43.38111310000022,43.38111310000022,43.38111310000022,43.38111310000022,43.38111310000022,43.38111310000022,,004,P017,2025_Mar_07_1619,ConditionRich,2021.2.3,59.9495225015405,
10.0,10.75,40,0.75,Stimuli/P017/things_woman_09s.jpg,0,0,0.0,0,13,13,13,,,,,,,,,,,,,10.007464599999366,0.007464599999366328,None,43.647990199999185,43.647990199999185,43.647990199999185,43.647990199999185,43.647990199999185,43.647990199999185,43.647990199999185,43.647990199999185,43.647990199999185,43.647990199999185,,004,P017,2025_Mar_07_1619,ConditionRich,2021.2.3,59.9495225015405,
10.75,11.0,41,0.0,Stimuli/Blank.png,0,0,0.0,0,14,14,14,,,,,,,,,,,,,10.774908200000937,0.02490820000093663,None,44.39865819999977,44.39865819999977,44.39865819999977,44.39865819999977,44.39865819999977,44.39865819999977,44.39865819999977,44.39865819999977,44.39865819999977,44.39865819999977,,004,P017,2025_Mar_07_1619,ConditionRich,2021.2.3,59.9495225015405,
11.0,11.75,40,0.75,Stimuli/P017/things_woman_09s.jpg,0,0,0.0,0,15,15,15,,,,,,,,,,,,,11.010034999999334,0.010034999999334104,None,44.64888619999692,44.64888619999692,44.64888619999692,44.64888619999692,44.64888619999692,44.64888619999692,44.64888619999692,44.64888619999692,44.64888619999692,44.64888619999692,,004,P017,2025_Mar_07_1619,ConditionRich,2021.2.3,59.9495225015405,
11.75,12.0,41,0.0,Stimuli/Blank.png,0,0,0.0,0,16,16,16,,,,,,,,,,,,,11.77497189999849,0.0249718999984907,None,45.39954299999954,45.39954299999954,45.39954299999954,45.39954299999954,45.39954299999954,45.39954299999954,45.39954299999954,45.39954299999954,45.39954299999954,45.39954299999954,,004,P017,2025_Mar_07_1619,ConditionRich,2021.2.3,59.9495225015405,
12.0,12.75,27,0.75,Stimuli/P017/things_coffin_09s.jpg,0,0,0.0,0,17,17,17,,,,,,,,,,,,,12.00893459999861,0.008934599998610793,None,45.633088899998256,45.633088899998256,45.633088899998256,45.633088899998256,45.633088899998256,45.633088899998256,45.633088899998256,45.633088899998256,45.633088899998256,45.633088899998256,,004,P017,2025_Mar_07_1619,ConditionRich,2021.2.3,59.9495225015405,
12.75,13.0,41,0.0,Stimuli/Blank.png,0,0,0.0,0,18,18,18,,,,,,,,,,,,,12.759124299998803,0.009124299998802599,None,46.383746899999096,46.383746899999096,46.383746899999096,46.383746899999096,46.383746899999096,46.383746899999096,46.383746899999096,46.383746899999096,46.383746899999096,46.383746899999096,,004,P017,2025_Mar_07_1619,ConditionRich,2021.2.3,59.9495225015405,
13.0,13.75,27,0.75,Stimuli/P017/things_coffin_09s.jpg,0,0,0.0,0,19,19,19,,,,,,,,,,,,,13.010302300001058,0.010302300001058029,None,46.633968399997684,46.633968399997684,46.633968399997684,46.633968399997684,46.633968399997684,46.633968399997684,46.633968399997684,46.633968399997684,46.633968399997684,46.633968399997684,,004,P017,2025_Mar_07_1619,ConditionRich,2021.2.3,59.9495225015405,
13.75,14.0,41,0.0,Stimuli/Blank.png,0,0,0.0,0,20,20,20,,,,,,,,,,,,,13.760831999999937,0.01083199999993667,None,47.384616799998184,47.384616799998184,47.384616799998184,47.384616799998184,47.384616799998184,47.384616799998184,47.384616799998184,47.384616799998184,47.384616799998184,47.384616799998184,,004,P017,2025_Mar_07_1619,ConditionRich,2021.2.3,59.9495225015405,
14.0,14.75,27,0.75,Stimuli/P017/things_coffin_09s.jpg,0,0,0.0,0,21,21,21,,,,,,,,,,,,,14.010382699998445,0.010382699998444878,None,47.63488249999864,47.63488249999864,47.63488249999864,47.63488249999864,47.63488249999864,47.63488249999864,47.63488249999864,47.63488249999864,47.63488249999864,47.63488249999864,,004,P017,2025_Mar_07_1619,ConditionRich,2021.2.3,59.9495225015405,
14.75,15.0,41,0.0,Stimuli/Blank.png,0,0,0.0,0,22,22,22,,,,,,,,,,,,,14.76088389999859,0.010883899998589186,None,48.38550909999685,48.38550909999685,48.38550909999685,48.38550909999685,48.38550909999685,48.38550909999685,48.38550909999685,48.38550909999685,48.38550909999685,48.38550909999685,,004,P017,2025_Mar_07_1619,ConditionRich,2021.2.3,59.9495225015405,
15.0,15.75,27,0.75,Stimuli/P017/things_coffin_09s.jpg,1,0,0.75,0,23,23,23,,,,,,,,,,,,,15.011117900001409,0.011117900001408998,1,48.635731499998656,48.635731499998656,48.635731499998656,48.635731499998656,48.635731499998656,48.635731499998656,48.635731499998656,49.36971619999895,48.635731499998656,48.635731499998656,0.3635108000016771,004,P017,2025_Mar_07_1619,ConditionRich,2021.2.3,59.9495225015405,
15.75,16.0,41,0.0,Stimuli/Blank.png,0,0,0.0,0,24,24,24,,,,,,,,,,,,,15.761861499999213,0.011861499999213265,None,49.38640359999772,49.38640359999772,49.38640359999772,49.38640359999772,49.38640359999772,49.38640359999772,49.38640359999772,49.38640359999772,49.38640359999772,49.38640359999772,,004,P017,2025_Mar_07_1619,ConditionRich,2021.2.3,59.9495225015405,
16.0,16.75,21,0.75,Stimuli/P017/things_baby_09s.jpg,0,0,0.0,0,25,25,25,,,,,,,,,,,,,16.015672599998652,0.015672599998652004,None,49.653322399997705,49.653322399997705,49.653322399997705,49.653322399997705,49.653322399997705,49.653322399997705,49.653322399997705,49.653322399997705,49.653322399997705,49.653322399997705,,004,P017,2025_Mar_07_1619,ConditionRich,2021.2.3,59.9495225015405,
16.75,17.0,41,0.0,Stimuli/Blank.png,0,0,0.0,0,26,26,26,,,,,,,,,,,,,16.76387539999996,0.013875399999960791,None,50.38726829999723,50.38726829999723,50.38726829999723,50.38726829999723,50.38726829999723,50.38726829999723,50.38726829999723,50.38726829999723,50.38726829999723,50.38726829999723,,004,P017,2025_Mar_07_1619,ConditionRich,2021.2.3,59.9495225015405,
17.0,17.75,21,0.75,Stimuli/P017/things_baby_09s.jpg,0,0,0.0,0,27,27,27,,,,,,,,,,,,,17.015256700000464,0.015256700000463752,None,50.65419130000009,50.65419130000009,50.65419130000009,50.65419130000009,50.65419130000009,50.65419130000009,50.65419130000009,50.65419130000009,50.65419130000009,50.65419130000009,,004,P017,2025_Mar_07_1619,ConditionRich,2021.2.3,59.9495225015405,
17.75,18.0,41,0.0,Stimuli/Blank.png,0,0,0.0,0,28,28,28,,,,,,,,,,,,,17.765418099999806,0.015418099999806145,None,51.404874399999244,51.404874399999244,51.404874399999244,51.404874399999244,51.404874399999244,51.404874399999244,51.404874399999244,51.404874399999244,51.404874399999244,51.404874399999244,,004,P017,2025_Mar_07_1619,ConditionRich,2021.2.3,59.9495225015405,
18.0,18.75,21,0.75,Stimuli/P017/things_baby_09s.jpg,0,0,0.0,0,29,29,29,,,,,,,,,,,,,18.014566099998774,0.014566099998774007,None,51.63835679999829,51.63835679999829,51.63835679999829,51.63835679999829,51.63835679999829,51.63835679999829,51.63835679999829,51.63835679999829,51.63835679999829,51.63835679999829,,004,P017,2025_Mar_07_1619,ConditionRich,2021.2.3,59.9495225015405,
18.75,19.0,41,0.0,Stimuli/Blank.png,0,0,0.0,0,30,30,30,,,,,,,,,,,,,18.76606299999912,0.01606299999912153,None,52.40575629999876,52.40575629999876,52.40575629999876,52.40575629999876,52.40575629999876,52.40575629999876,52.40575629999876,52.40575629999876,52.40575629999876,52.40575629999876,,004,P017,2025_Mar_07_1619,ConditionRich,2021.2.3,59.9495225015405,
19.0,19.75,21,0.75,Stimuli/P017/things_baby_09s.jpg,0,0,0.0,0,31,31,31,,,,,,,,,,,,,19.015388100000564,0.015388100000564009,None,52.65597589999743,52.65597589999743,52.65597589999743,52.65597589999743,52.65597589999743,52.65597589999743,52.65597589999743,52.65597589999743,52.65597589999743,52.65597589999743,,004,P017,2025_Mar_07_1619,ConditionRich,2021.2.3,59.9495225015405,
19.75,20.0,41,0.0,Stimuli/Blank.png,0,0,0.0,0,32,32,32,,,,,,,,,,,,,19.765366799998446,0.015366799998446368,None,53.3899437,53.3899437,53.3899437,53.3899437,53.3899437,53.3899437,53.3899437,53.3899437,53.3899437,53.3899437,,004,P017,2025_Mar_07_1619,ConditionRich,2021.2.3,59.9495225015405,
20.0,20.75,14,0.75,Stimuli/P017/sun_bljpqnfmmqkjsfvx.jpg,0,0,0.0,0,33,33,33,,,,,,,,,,,,,20.015486799999053,0.015486799999052892,None,53.640157899997575,53.640157899997575,53.640157899997575,53.640157899997575,53.640157899997575,53.640157899997575,53.640157899997575,53.640157899997575,53.640157899997575,53.640157899997575,,004,P017,2025_Mar_07_1619,ConditionRich,2021.2.3,59.9495225015405,
20.75,21.0,41,0.0,Stimuli/Blank.png,0,0,0.0,0,34,34,34,,,,,,,,,,,,,20.750492300001497,0.0004923000014969148,None,54.374170699997194,54.374170699997194,54.374170699997194,54.374170699997194,54.374170699997194,54.374170699997194,54.374170699997194,54.374170699997194,54.374170699997194,54.374170699997194,,004,P017,2025_Mar_07_1619,ConditionRich,2021.2.3,59.9495225015405,
21.0,21.75,14,0.75,Stimuli/P017/sun_bljpqnfmmqkjsfvx.jpg,0,0,0.0,0,35,35,35,,,,,,,,,,,,,21.000488500001666,0.0004885000016656704,None,54.641047599998274,54.641047599998274,54.641047599998274,54.641047599998274,54.641047599998274,54.641047599998274,54.641047599998274,54.641047599998274,54.641047599998274,54.641047599998274,,004,P017,2025_Mar_07_1619,ConditionRich,2021.2.3,59.9495225015405,
21.75,22.0,41,0.0,Stimuli/Blank.png,0,0,0.0,0,36,36,36,,,,,,,,,,,,,21.769773500000156,0.019773500000155764,None,55.40839479999704,55.40839479999704,55.40839479999704,55.40839479999704,55.40839479999704,55.40839479999704,55.40839479999704,55.40839479999704,55.40839479999704,55.40839479999704,,004,P017,2025_Mar_07_1619,ConditionRich,2021.2.3,59.9495225015405,
22.0,22.75,14,0.75,Stimuli/P017/sun_bljpqnfmmqkjsfvx.jpg,0,0,0.0,0,37,37,37,,,,,,,,,,,,,22.01818859999912,0.018188599999120925,None,55.641921499998716,55.641921499998716,55.641921499998716,55.641921499998716,55.641921499998716,55.641921499998716,55.641921499998716,55.641921499998716,55.641921499998716,55.641921499998716,,004,P017,2025_Mar_07_1619,ConditionRich,2021.2.3,59.9495225015405,
22.75,23.0,41,0.0,Stimuli/Blank.png,0,0,0.0,0,38,38,38,,,,,,,,,,,,,22.751624299999094,0.0016242999990936369,None,56.37602369999877,56.37602369999877,56.37602369999877,56.37602369999877,56.37602369999877,56.37602369999877,56.37602369999877,56.37602369999877,56.37602369999877,56.37602369999877,,004,P017,2025_Mar_07_1619,ConditionRich,2021.2.3,59.9495225015405,
23.0,23.75,14,0.75,Stimuli/P017/sun_bljpqnfmmqkjsfvx.jpg,0,0,0.0,0,39,39,39,,,,,,,,,,,,,23.001584000001458,0.0015840000014577527,None,56.62612369999988,56.62612369999988,56.62612369999988,56.62612369999988,56.62612369999988,56.62612369999988,56.62612369999988,56.62612369999988,56.62612369999988,56.62612369999988,,004,P017,2025_Mar_07_1619,ConditionRich,2021.2.3,59.9495225015405,
23.75,24.0,41,0.0,Stimuli/Blank.png,0,0,0.0,0,40,40,40,,,,,,,,,,,,,23.752942499999335,0.0029424999993352685,None,57.37680779999937,57.37680779999937,57.37680779999937,57.37680779999937,57.37680779999937,57.37680779999937,57.37680779999937,57.37680779999937,57.37680779999937,57.37680779999937,,004,P017,2025_Mar_07_1619,ConditionRich,2021.2.3,59.9495225015405,
24.0,24.75,9,0.75,Stimuli/P017/sun_ayidxslzurdumeps.jpg,0,0,0.0,0,41,41,41,,,,,,,,,,,,,24.003276200000982,0.0032762000009824988,None,57.62703429999965,57.62703429999965,57.62703429999965,57.62703429999965,57.62703429999965,57.62703429999965,57.62703429999965,57.62703429999965,57.62703429999965,57.62703429999965,,004,P017,2025_Mar_07_1619,ConditionRich,2021.2.3,59.9495225015405,
24.75,25.0,41,0.0,Stimuli/Blank.png,0,0,0.0,0,42,42,42,,,,,,,,,,,,,24.754146300001594,0.004146300001593772,None,58.37768649999998,58.37768649999998,58.37768649999998,58.37768649999998,58.37768649999998,58.37768649999998,58.37768649999998,58.37768649999998,58.37768649999998,58.37768649999998,,004,P017,2025_Mar_07_1619,ConditionRich,2021.2.3,59.9495225015405,
25.0,25.75,9,0.75,Stimuli/P017/sun_ayidxslzurdumeps.jpg,0,0,0.0,0,43,43,43,,,,,,,,,,,,,25.00417809999999,0.004178099999990081,None,58.64461099999971,58.64461099999971,58.64461099999971,58.64461099999971,58.64461099999971,58.64461099999971,58.64461099999971,58.64461099999971,58.64461099999971,58.64461099999971,,004,P017,2025_Mar_07_1619,ConditionRich,2021.2.3,59.9495225015405,
25.75,26.0,41,0.0,Stimuli/Blank.png,0,0,0.0,0,44,44,44,,,,,,,,,,,,,25.771437700001115,0.021437700001115445,None,59.39524959999835,59.39524959999835,59.39524959999835,59.39524959999835,59.39524959999835,59.39524959999835,59.39524959999835,59.39524959999835,59.39524959999835,59.39524959999835,,004,P017,2025_Mar_07_1619,ConditionRich,2021.2.3,59.9495225015405,
26.0,26.75,9,0.75,Stimuli/P017/sun_ayidxslzurdumeps.jpg,1,0,0.75,0,45,45,45,,,,,,,,,,,,,26.004803200001334,0.004803200001333607,1,59.628756999998586,59.628756999998586,59.628756999998586,59.628756999998586,59.628756999998586,59.628756999998586,59.628756999998586,60.36280009999973,59.628756999998586,59.628756999998586,0.4067112000011548,004,P017,2025_Mar_07_1619,ConditionRich,2021.2.3,59.9495225015405,
26.75,27.0,41,0.0,Stimuli/Blank.png,0,0,0.0,0,46,46,46,,,,,,,,,,,,,26.75593300000037,0.005933000000368338,None,60.39616029999888,60.39616029999888,60.39616029999888,60.39616029999888,60.39616029999888,60.39616029999888,60.39616029999888,60.39616029999888,60.39616029999888,60.39616029999888,,004,P017,2025_Mar_07_1619,ConditionRich,2021.2.3,59.9495225015405,
27.0,27.75,9,0.75,Stimuli/P017/sun_ayidxslzurdumeps.jpg,0,0,0.0,0,47,47,47,,,,,,,,,,,,,27.022275600000285,0.022275600000284612,None,60.663040499999624,60.663040499999624,60.663040499999624,60.663040499999624,60.663040499999624,60.663040499999624,60.663040499999624,60.663040499999624,60.663040499999624,60.663040499999624,,004,P017,2025_Mar_07_1619,ConditionRich,2021.2.3,59.9495225015405,
27.75,28.0,41,0.0,Stimuli/Blank.png,0,0,0.0,0,48,48,48,,,,,,,,,,,,,27.77400530000159,0.024005300001590513,None,61.39703639999789,61.39703639999789,61.39703639999789,61.39703639999789,61.39703639999789,61.39703639999789,61.39703639999789,61.39703639999789,61.39703639999789,61.39703639999789,,004,P017,2025_Mar_07_1619,ConditionRich,2021.2.3,59.9495225015405,
28.0,28.75,25,0.75,Stimuli/P017/things_cannonball_09s.jpg,0,0,0.0,0,49,49,49,,,,,,,,,,,,,28.00621830000091,0.006218300000909949,None,61.647235999997065,61.647235999997065,61.647235999997065,61.647235999997065,61.647235999997065,61.647235999997065,61.647235999997065,61.647235999997065,61.647235999997065,61.647235999997065,,004,P017,2025_Mar_07_1619,ConditionRich,2021.2.3,59.9495225015405,
28.75,29.0,41,0.0,Stimuli/Blank.png,0,0,0.0,0,50,50,50,,,,,,,,,,,,,28.774113999999827,0.024113999999826774,None,62.39787399999841,62.39787399999841,62.39787399999841,62.39787399999841,62.39787399999841,62.39787399999841,62.39787399999841,62.39787399999841,62.39787399999841,62.39787399999841,,004,P017,2025_Mar_07_1619,ConditionRich,2021.2.3,59.9495225015405,
29.0,29.75,25,0.75,Stimuli/P017/things_cannonball_09s.jpg,1,0,0.75,0,51,51,51,,,,,,,,,,,,,29.00748139999996,0.0074813999999605585,1,62.64811879999979,62.64811879999979,62.64811879999979,62.64811879999979,62.64811879999979,62.64811879999979,62.64811879999979,63.365460999997595,62.64811879999979,62.64811879999979,0.3852456999993592,004,P017,2025_Mar_07_1619,ConditionRich,2021.2.3,59.9495225015405,
29.75,30.0,41,0.0,Stimuli/Blank.png,0,0,0.0,0,52,52,52,,,,,,,,,,,,,29.7745333999992,0.0245333999991999,None,63.39878289999979,63.39878289999979,63.39878289999979,63.39878289999979,63.39878289999979,63.39878289999979,63.39878289999979,63.39878289999979,63.39878289999979,63.39878289999979,,004,P017,2025_Mar_07_1619,ConditionRich,2021.2.3,59.9495225015405,
30.0,30.75,25,0.75,Stimuli/P017/things_cannonball_09s.jpg,0,0,0.0,0,53,53,53,,,,,,,,,,,,,30.008661299998494,0.008661299998493632,None,63.63232119999884,63.63232119999884,63.63232119999884,63.63232119999884,63.63232119999884,63.63232119999884,63.63232119999884,63.63232119999884,63.63232119999884,63.63232119999884,,004,P017,2025_Mar_07_1619,ConditionRich,2021.2.3,59.9495225015405,
30.75,31.0,41,0.0,Stimuli/Blank.png,0,0,0.0,0,54,54,54,,,,,,,,,,,,,30.75918140000067,0.009181400000670692,None,64.38299709999774,64.38299709999774,64.38299709999774,64.38299709999774,64.38299709999774,64.38299709999774,64.38299709999774,64.38299709999774,64.38299709999774,64.38299709999774,,004,P017,2025_Mar_07_1619,ConditionRich,2021.2.3,59.9495225015405,
31.0,31.75,25,0.75,Stimuli/P017/things_cannonball_09s.jpg,0,0,0.0,0,55,55,55,,,,,,,,,,,,,31.009493099998508,0.009493099998508114,None,64.6332153000003,64.6332153000003,64.6332153000003,64.6332153000003,64.6332153000003,64.6332153000003,64.6332153000003,64.6332153000003,64.6332153000003,64.6332153000003,,004,P017,2025_Mar_07_1619,ConditionRich,2021.2.3,59.9495225015405,
31.75,32.0,41,0.0,Stimuli/Blank.png,0,0,0.0,0,56,56,56,,,,,,,,,,,,,31.760537000001932,0.010537000001932029,None,65.38388510000004,65.38388510000004,65.38388510000004,65.38388510000004,65.38388510000004,65.38388510000004,65.38388510000004,65.38388510000004,65.38388510000004,65.38388510000004,,004,P017,2025_Mar_07_1619,ConditionRich,2021.2.3,59.9495225015405,
32.0,32.75,30,0.75,Stimuli/P017/things_girl_09s.jpg,0,0,0.0,0,57,57,57,,,,,,,,,,,,,32.00995220000186,0.009952200001862366,None,65.6340925000004,65.6340925000004,65.6340925000004,65.6340925000004,65.6340925000004,65.6340925000004,65.6340925000004,65.6340925000004,65.6340925000004,65.6340925000004,,004,P017,2025_Mar_07_1619,ConditionRich,2021.2.3,59.9495225015405,
32.75,33.0,41,0.0,Stimuli/Blank.png,0,0,0.0,0,58,58,58,,,,,,,,,,,,,32.760467200001585,0.010467200001585297,None,66.38475599999947,66.38475599999947,66.38475599999947,66.38475599999947,66.38475599999947,66.38475599999947,66.38475599999947,66.38475599999947,66.38475599999947,66.38475599999947,,004,P017,2025_Mar_07_1619,ConditionRich,2021.2.3,59.9495225015405,
33.0,33.75,30,0.75,Stimuli/P017/things_girl_09s.jpg,0,0,0.0,0,59,59,59,,,,,,,,,,,,,33.01049739999871,0.010497399998712353,None,66.63497549999738,66.63497549999738,66.63497549999738,66.63497549999738,66.63497549999738,66.63497549999738,66.63497549999738,66.63497549999738,66.63497549999738,66.63497549999738,,004,P017,2025_Mar_07_1619,ConditionRich,2021.2.3,59.9495225015405,
33.75,34.0,41,0.0,Stimuli/Blank.png,0,0,0.0,0,60,60,60,,,,,,,,,,,,,33.76168880000114,0.011688800001138588,None,67.38565199999721,67.38565199999721,67.38565199999721,67.38565199999721,67.38565199999721,67.38565199999721,67.38565199999721,67.38565199999721,67.38565199999721,67.38565199999721,,004,P017,2025_Mar_07_1619,ConditionRich,2021.2.3,59.9495225015405,
34.0,34.75,30,0.75,Stimuli/P017/things_girl_09s.jpg,0,0,0.0,0,61,61,61,,,,,,,,,,,,,34.01119820000167,0.011198200001672376,None,67.63585649999732,67.63585649999732,67.63585649999732,67.63585649999732,67.63585649999732,67.63585649999732,67.63585649999732,67.63585649999732,67.63585649999732,67.63585649999732,,004,P017,2025_Mar_07_1619,ConditionRich,2021.2.3,59.9495225015405,
34.75,35.0,41,0.0,Stimuli/Blank.png,0,0,0.0,0,62,62,62,,,,,,,,,,,,,34.76215329999832,0.01215329999831738,None,68.40321269999913,68.40321269999913,68.40321269999913,68.40321269999913,68.40321269999913,68.40321269999913,68.40321269999913,68.40321269999913,68.40321269999913,68.40321269999913,,004,P017,2025_Mar_07_1619,ConditionRich,2021.2.3,59.9495225015405,
35.0,35.75,30,0.75,Stimuli/P017/things_girl_09s.jpg,0,0,0.0,0,63,63,63,,,,,,,,,,,,,35.02941940000164,0.029419400001643226,None,68.67010889999801,68.67010889999801,68.67010889999801,68.67010889999801,68.67010889999801,68.67010889999801,68.67010889999801,68.67010889999801,68.67010889999801,68.67010889999801,,004,P017,2025_Mar_07_1619,ConditionRich,2021.2.3,59.9495225015405,
35.75,36.0,41,0.0,Stimuli/Blank.png,0,0,0.0,0,64,64,64,,,,,,,,,,,,,35.78063399999883,0.030633999998826766,None,69.40409329999966,69.40409329999966,69.40409329999966,69.40409329999966,69.40409329999966,69.40409329999966,69.40409329999966,69.40409329999966,69.40409329999966,69.40409329999966,,004,P017,2025_Mar_07_1619,ConditionRich,2021.2.3,59.9495225015405,
36.0,36.75,22,0.75,Stimuli/P017/things_boat_09s.jpg,0,0,0.0,0,65,65,65,,,,,,,,,,,,,36.01357800000187,0.01357800000187126,None,69.6376280000004,69.6376280000004,69.6376280000004,69.6376280000004,69.6376280000004,69.6376280000004,69.6376280000004,69.6376280000004,69.6376280000004,69.6376280000004,,004,P017,2025_Mar_07_1619,ConditionRich,2021.2.3,59.9495225015405,
36.75,37.0,41,0.0,Stimuli/Blank.png,0,0,0.0,0,66,66,66,,,,,,,,,,,,,36.764471700000286,0.014471700000285637,None,70.38830369999778,70.38830369999778,70.38830369999778,70.38830369999778,70.38830369999778,70.38830369999778,70.38830369999778,70.38830369999778,70.38830369999778,70.38830369999778,,004,P017,2025_Mar_07_1619,ConditionRich,2021.2.3,59.9495225015405,
37.0,37.75,22,0.75,Stimuli/P017/things_boat_09s.jpg,0,0,0.0,0,67,67,67,,,,,,,,,,,,,37.01422729999831,0.014227299998310627,None,70.63850999999704,70.63850999999704,70.63850999999704,70.63850999999704,70.63850999999704,70.63850999999704,70.63850999999704,70.63850999999704,70.63850999999704,70.63850999999704,,004,P017,2025_Mar_07_1619,ConditionRich,2021.2.3,59.9495225015405,
37.75,38.0,41,0.0,Stimuli/Blank.png,0,0,0.0,0,68,68,68,,,,,,,,,,,,,37.76561310000034,0.015613100000336999,None,71.38918229999763,71.38918229999763,71.38918229999763,71.38918229999763,71.38918229999763,71.38918229999763,71.38918229999763,71.38918229999763,71.38918229999763,71.38918229999763,,004,P017,2025_Mar_07_1619,ConditionRich,2021.2.3,59.9495225015405,
38.0,38.75,22,0.75,Stimuli/P017/things_boat_09s.jpg,0,0,0.0,0,69,69,69,,,,,,,,,,,,,38.002122199999576,0.002122199999575969,None,71.63937379999697,71.63937379999697,71.63937379999697,71.63937379999697,71.63937379999697,71.63937379999697,71.63937379999697,71.63937379999697,71.63937379999697,71.63937379999697,,004,P017,2025_Mar_07_1619,ConditionRich,2021.2.3,59.9495225015405,
38.75,39.0,41,0.0,Stimuli/Blank.png,0,0,0.0,0,70,70,70,,,,,,,,,,,,,38.765581499999826,0.01558149999982561,None,72.39005779999934,72.39005779999934,72.39005779999934,72.39005779999934,72.39005779999934,72.39005779999934,72.39005779999934,72.39005779999934,72.39005779999934,72.39005779999934,,004,P017,2025_Mar_07_1619,ConditionRich,2021.2.3,59.9495225015405,
39.0,39.75,22,0.75,Stimuli/P017/things_boat_09s.jpg,0,0,0.0,0,71,71,71,,,,,,,,,,,,,38.99928340000042,-0.0007165999995777383,None,72.62361239999882,72.62361239999882,72.62361239999882,72.62361239999882,72.62361239999882,72.62361239999882,72.62361239999882,72.62361239999882,72.62361239999882,72.62361239999882,,004,P017,2025_Mar_07_1619,ConditionRich,2021.2.3,59.9495225015405,
39.75,40.0,41,0.0,Stimuli/Blank.png,0,0,0.0,0,72,72,72,,,,,,,,,,,,,39.75080259999959,0.0008025999995879829,None,73.3742734999978,73.3742734999978,73.3742734999978,73.3742734999978,73.3742734999978,73.3742734999978,73.3742734999978,73.3742734999978,73.3742734999978,73.3742734999978,,004,P017,2025_Mar_07_1619,ConditionRich,2021.2.3,59.9495225015405,
40.0,40.75,1,0.75,Stimuli/P017/sun_aawmwfqqbzauhqkb.jpg,0,0,0.0,0,73,73,73,,,,,,,,,,,,,40.00128939999922,0.001289399999222951,None,73.6411952999988,73.6411952999988,73.6411952999988,73.6411952999988,73.6411952999988,73.6411952999988,73.6411952999988,73.6411952999988,73.6411952999988,73.6411952999988,,004,P017,2025_Mar_07_1619,ConditionRich,2021.2.3,59.9495225015405,
40.75,41.0,41,0.0,Stimuli/Blank.png,0,0,0.0,0,74,74,74,,,,,,,,,,,,,40.76746130000174,0.01746130000174162,None,74.39183760000014,74.39183760000014,74.39183760000014,74.39183760000014,74.39183760000014,74.39183760000014,74.39183760000014,74.39183760000014,74.39183760000014,74.39183760000014,,004,P017,2025_Mar_07_1619,ConditionRich,2021.2.3,59.9495225015405,
41.0,41.75,1,0.75,Stimuli/P017/sun_aawmwfqqbzauhqkb.jpg,0,0,0.0,0,75,75,75,,,,,,,,,,,,,41.00122669999837,0.0012266999983694404,None,74.62536899999759,74.62536899999759,74.62536899999759,74.62536899999759,74.62536899999759,74.62536899999759,74.62536899999759,74.62536899999759,74.62536899999759,74.62536899999759,,004,P017,2025_Mar_07_1619,ConditionRich,2021.2.3,59.9495225015405,
41.75,42.0,41,0.0,Stimuli/Blank.png,0,0,0.0,0,76,76,76,,,,,,,,,,,,,41.752054799999314,0.0020547999993141275,None,75.37603369999852,75.37603369999852,75.37603369999852,75.37603369999852,75.37603369999852,75.37603369999852,75.37603369999852,75.37603369999852,75.37603369999852,75.37603369999852,,004,P017,2025_Mar_07_1619,ConditionRich,2021.2.3,59.9495225015405,
42.0,42.75,1,0.75,Stimuli/P017/sun_aawmwfqqbzauhqkb.jpg,0,0,0.0,0,77,77,77,,,,,,,,,,,,,42.00237410000045,0.0023741000004520174,None,75.62625639999897,75.62625639999897,75.62625639999897,75.62625639999897,75.62625639999897,75.62625639999897,75.62625639999897,75.62625639999897,75.62625639999897,75.62625639999897,,004,P017,2025_Mar_07_1619,ConditionRich,2021.2.3,59.9495225015405,
42.75,43.0,41,0.0,Stimuli/Blank.png,0,0,0.0,0,78,78,78,,,,,,,,,,,,,42.75242580000122,0.0024258000012196135,None,76.37692099999913,76.37692099999913,76.37692099999913,76.37692099999913,76.37692099999913,76.37692099999913,76.37692099999913,76.37692099999913,76.37692099999913,76.37692099999913,,004,P017,2025_Mar_07_1619,ConditionRich,2021.2.3,59.9495225015405,
43.0,43.75,1,0.75,Stimuli/P017/sun_aawmwfqqbzauhqkb.jpg,0,0,0.0,0,79,79,79,,,,,,,,,,,,,43.00411670000176,0.004116700001759455,None,76.64382420000038,76.64382420000038,76.64382420000038,76.64382420000038,76.64382420000038,76.64382420000038,76.64382420000038,76.64382420000038,76.64382420000038,76.64382420000038,,004,P017,2025_Mar_07_1619,ConditionRich,2021.2.3,59.9495225015405,
43.75,44.0,41,0.0,Stimuli/Blank.png,0,0,0.0,0,80,80,80,,,,,,,,,,,,,43.770660499998485,0.020660499998484738,None,77.39449349999995,77.39449349999995,77.39449349999995,77.39449349999995,77.39449349999995,77.39449349999995,77.39449349999995,77.39449349999995,77.39449349999995,77.39449349999995,,004,P017,2025_Mar_07_1619,ConditionRich,2021.2.3,59.9495225015405,
44.0,44.75,12,0.75,Stimuli/P017/sun_bhvaiabdgxjuwoth.jpg,0,0,0.0,0,81,81,81,,,,,,,,,,,,,44.00427109999873,0.0042710999987320974,None,77.64473179999914,77.64473179999914,77.64473179999914,77.64473179999914,77.64473179999914,77.64473179999914,77.64473179999914,77.64473179999914,77.64473179999914,77.64473179999914,,004,P017,2025_Mar_07_1619,ConditionRich,2021.2.3,59.9495225015405,
44.75,45.0,41,0.0,Stimuli/Blank.png,0,0,0.0,0,82,82,82,,,,,,,,,,,,,44.77146619999985,0.021466199999849778,None,78.39537319999727,78.39537319999727,78.39537319999727,78.39537319999727,78.39537319999727,78.39537319999727,78.39537319999727,78.39537319999727,78.39537319999727,78.39537319999727,,004,P017,2025_Mar_07_1619,ConditionRich,2021.2.3,59.9495225015405,
45.0,45.75,12,0.75,Stimuli/P017/sun_bhvaiabdgxjuwoth.jpg,0,0,0.0,0,83,83,83,,,,,,,,,,,,,45.00609329999861,0.006093299998610746,None,78.64559430000008,78.64559430000008,78.64559430000008,78.64559430000008,78.64559430000008,78.64559430000008,78.64559430000008,78.64559430000008,78.64559430000008,78.64559430000008,,004,P017,2025_Mar_07_1619,ConditionRich,2021.2.3,59.9495225015405,
45.75,46.0,41,0.0,Stimuli/Blank.png,0,0,0.0,0,84,84,84,,,,,,,,,,,,,45.77239339999869,0.022393399998691166,None,79.3962692999994,79.3962692999994,79.3962692999994,79.3962692999994,79.3962692999994,79.3962692999994,79.3962692999994,79.3962692999994,79.3962692999994,79.3962692999994,,004,P017,2025_Mar_07_1619,ConditionRich,2021.2.3,59.9495225015405,
46.0,46.75,12,0.75,Stimuli/P017/sun_bhvaiabdgxjuwoth.jpg,0,0,0.0,0,85,85,85,,,,,,,,,,,,,46.00535049999962,0.005350499999622116,None,79.62979769999947,79.62979769999947,79.62979769999947,79.62979769999947,79.62979769999947,79.62979769999947,79.62979769999947,79.62979769999947,79.62979769999947,79.62979769999947,,004,P017,2025_Mar_07_1619,ConditionRich,2021.2.3,59.9495225015405,
46.75,47.0,41,0.0,Stimuli/Blank.png,0,0,0.0,0,86,86,86,,,,,,,,,,,,,46.7558312000001,0.005831200000102399,None,80.38053199999922,80.38053199999922,80.38053199999922,80.38053199999922,80.38053199999922,80.38053199999922,80.38053199999922,80.38053199999922,80.38053199999922,80.38053199999922,,004,P017,2025_Mar_07_1619,ConditionRich,2021.2.3,59.9495225015405,
47.0,47.75,12,0.75,Stimuli/P017/sun_bhvaiabdgxjuwoth.jpg,0,0,0.0,0,87,87,87,,,,,,,,,,,,,47.00630390000151,0.006303900001512375,None,80.63068070000008,80.63068070000008,80.63068070000008,80.63068070000008,80.63068070000008,80.63068070000008,80.63068070000008,80.63068070000008,80.63068070000008,80.63068070000008,,004,P017,2025_Mar_07_1619,ConditionRich,2021.2.3,59.9495225015405,
47.75,48.0,41,0.0,Stimuli/Blank.png,0,0,0.0,0,88,88,88,,,,,,,,,,,,,47.75689970000167,0.006899700001667952,None,81.38135269999839,81.38135269999839,81.38135269999839,81.38135269999839,81.38135269999839,81.38135269999839,81.38135269999839,81.38135269999839,81.38135269999839,81.38135269999839,,004,P017,2025_Mar_07_1619,ConditionRich,2021.2.3,59.9495225015405,
48.0,48.75,24,0.75,Stimuli/P017/things_breadbox_09s.jpg,0,0,0.0,0,89,89,89,,,,,,,,,,,,,48.007541899998614,0.007541899998614099,None,81.64826729999913,81.64826729999913,81.64826729999913,81.64826729999913,81.64826729999913,81.64826729999913,81.64826729999913,81.64826729999913,81.64826729999913,81.64826729999913,,004,P017,2025_Mar_07_1619,ConditionRich,2021.2.3,59.9495225015405,
48.75,49.0,41,0.0,Stimuli/Blank.png,0,0,0.0,0,90,90,90,,,,,,,,,,,,,48.77455420000115,0.024554200001148274,None,82.3989075999998,82.3989075999998,82.3989075999998,82.3989075999998,82.3989075999998,82.3989075999998,82.3989075999998,82.3989075999998,82.3989075999998,82.3989075999998,,004,P017,2025_Mar_07_1619,ConditionRich,2021.2.3,59.9495225015405,
49.0,49.75,24,0.75,Stimuli/P017/things_breadbox_09s.jpg,0,0,0.0,0,91,91,91,,,,,,,,,,,,,49.00800059999892,0.008000599998922553,None,82.63245889999962,82.63245889999962,82.63245889999962,82.63245889999962,82.63245889999962,82.63245889999962,82.63245889999962,82.63245889999962,82.63245889999962,82.63245889999962,,004,P017,2025_Mar_07_1619,ConditionRich,2021.2.3,59.9495225015405,
49.75,50.0,41,0.0,Stimuli/Blank.png,0,0,0.0,0,92,92,92,,,,,,,,,,,,,49.75884769999902,0.008847699999023462,None,83.38312189999851,83.38312189999851,83.38312189999851,83.38312189999851,83.38312189999851,83.38312189999851,83.38312189999851,83.38312189999851,83.38312189999851,83.38312189999851,,004,P017,2025_Mar_07_1619,ConditionRich,2021.2.3,59.9495225015405,
50.0,50.75,24,0.75,Stimuli/P017/things_breadbox_09s.jpg,0,0,0.0,0,93,93,93,,,,,,,,,,,,,50.00946610000028,0.009466100000281585,None,83.63337639999736,83.63337639999736,83.63337639999736,83.63337639999736,83.63337639999736,83.63337639999736,83.63337639999736,83.63337639999736,83.63337639999736,83.63337639999736,,004,P017,2025_Mar_07_1619,ConditionRich,2021.2.3,59.9495225015405,
50.75,51.0,41,0.0,Stimuli/Blank.png,0,0,0.0,0,94,94,94,,,,,,,,,,,,,50.75990169999932,0.009901699999318225,None,84.38403289999769,84.38403289999769,84.38403289999769,84.38403289999769,84.38403289999769,84.38403289999769,84.38403289999769,84.38403289999769,84.38403289999769,84.38403289999769,,004,P017,2025_Mar_07_1619,ConditionRich,2021.2.3,59.9495225015405,
51.0,51.75,24,0.75,Stimuli/P017/things_breadbox_09s.jpg,0,0,0.0,0,95,95,95,,,,,,,,,,,,,51.01035670000056,0.010356700000556884,None,84.63421839999864,84.63421839999864,84.63421839999864,84.63421839999864,84.63421839999864,84.63421839999864,84.63421839999864,84.63421839999864,84.63421839999864,84.63421839999864,,004,P017,2025_Mar_07_1619,ConditionRich,2021.2.3,59.9495225015405,
51.75,52.0,41,0.0,Stimuli/Blank.png,0,0,0.0,0,96,96,96,,,,,,,,,,,,,51.76042260000031,0.010422600000310922,None,85.38488529999813,85.38488529999813,85.38488529999813,85.38488529999813,85.38488529999813,85.38488529999813,85.38488529999813,85.38488529999813,85.38488529999813,85.38488529999813,,004,P017,2025_Mar_07_1619,ConditionRich,2021.2.3,59.9495225015405,
52.0,52.75,20,0.75,Stimuli/P017/sun_buukivvfbfhosrng.jpg,0,0,0.0,0,97,97,97,,,,,,,,,,,,,52.01128450000033,0.01128450000032899,None,85.6351055999985,85.6351055999985,85.6351055999985,85.6351055999985,85.6351055999985,85.6351055999985,85.6351055999985,85.6351055999985,85.6351055999985,85.6351055999985,,004,P017,2025_Mar_07_1619,ConditionRich,2021.2.3,59.9495225015405,
52.75,53.0,41,0.0,Stimuli/Blank.png,0,0,0.0,0,98,98,98,,,,,,,,,,,,,52.7611782999993,0.011178299999301089,None,86.38576489999832,86.38576489999832,86.38576489999832,86.38576489999832,86.38576489999832,86.38576489999832,86.38576489999832,86.38576489999832,86.38576489999832,86.38576489999832,,004,P017,2025_Mar_07_1619,ConditionRich,2021.2.3,59.9495225015405,
53.0,53.75,20,0.75,Stimuli/P017/sun_buukivvfbfhosrng.jpg,0,0,0.0,0,99,99,99,,,,,,,,,,,,,53.01210050000009,0.012100500000087777,None,86.63598579999962,86.63598579999962,86.63598579999962,86.63598579999962,86.63598579999962,86.63598579999962,86.63598579999962,86.63598579999962,86.63598579999962,86.63598579999962,,004,P017,2025_Mar_07_1619,ConditionRich,2021.2.3,59.9495225015405,
53.75,54.0,41,0.0,Stimuli/Blank.png,0,0,0.0,0,100,100,100,,,,,,,,,,,,,53.76281970000127,0.012819700001273304,None,87.3866672999975,87.3866672999975,87.3866672999975,87.3866672999975,87.3866672999975,87.3866672999975,87.3866672999975,87.3866672999975,87.3866672999975,87.3866672999975,,004,P017,2025_Mar_07_1619,ConditionRich,2021.2.3,59.9495225015405,
54.0,54.75,20,0.75,Stimuli/P017/sun_buukivvfbfhosrng.jpg,0,0,0.0,0,101,101,101,,,,,,,,,,,,,54.012350299999525,0.012350299999525305,None,87.65356789999714,87.65356789999714,87.65356789999714,87.65356789999714,87.65356789999714,87.65356789999714,87.65356789999714,87.65356789999714,87.65356789999714,87.65356789999714,,004,P017,2025_Mar_07_1619,ConditionRich,2021.2.3,59.9495225015405,
54.75,55.0,41,0.0,Stimuli/Blank.png,0,0,0.0,0,102,102,102,,,,,,,,,,,,,54.780721499999345,0.030721499999344815,None,88.40422869999747,88.40422869999747,88.40422869999747,88.40422869999747,88.40422869999747,88.40422869999747,88.40422869999747,88.40422869999747,88.40422869999747,88.40422869999747,,004,P017,2025_Mar_07_1619,ConditionRich,2021.2.3,59.9495225015405,
55.0,55.75,20,0.75,Stimuli/P017/sun_buukivvfbfhosrng.jpg,0,0,0.0,0,103,103,103,,,,,,,,,,,,,55.01407969999855,0.014079699998546857,None,88.65444269999716,88.65444269999716,88.65444269999716,88.65444269999716,88.65444269999716,88.65444269999716,88.65444269999716,88.65444269999716,88.65444269999716,88.65444269999716,,004,P017,2025_Mar_07_1619,ConditionRich,2021.2.3,59.9495225015405,
55.75,56.0,41,0.0,Stimuli/Blank.png,0,0,0.0,0,104,104,104,,,,,,,,,,,,,55.78049969999847,0.03049969999847235,None,89.40509910000037,89.40509910000037,89.40509910000037,89.40509910000037,89.40509910000037,89.40509910000037,89.40509910000037,89.40509910000037,89.40509910000037,89.40509910000037,,004,P017,2025_Mar_07_1619,ConditionRich,2021.2.3,59.9495225015405,
56.0,56.75,35,0.75,Stimuli/P017/things_lobster_09s.jpg,0,0,0.0,0,105,105,105,,,,,,,,,,,,,56.01414870000008,0.014148700000077952,None,89.63864089999697,89.63864089999697,89.63864089999697,89.63864089999697,89.63864089999697,89.63864089999697,89.63864089999697,89.63864089999697,89.63864089999697,89.63864089999697,,004,P017,2025_Mar_07_1619,ConditionRich,2021.2.3,59.9495225015405,
56.75,57.0,41,0.0,Stimuli/Blank.png,0,0,0.0,0,106,106,106,,,,,,,,,,,,,56.76562969999941,0.01562969999940833,None,90.38932759999807,90.38932759999807,90.38932759999807,90.38932759999807,90.38932759999807,90.38932759999807,90.38932759999807,90.38932759999807,90.38932759999807,90.38932759999807,,004,P017,2025_Mar_07_1619,ConditionRich,2021.2.3,59.9495225015405,
57.0,57.75,35,0.75,Stimuli/P017/things_lobster_09s.jpg,0,0,0.0,0,107,107,107,,,,,,,,,,,,,56.9990601999998,-0.0009398000001965556,None,90.62284799999907,90.62284799999907,90.62284799999907,90.62284799999907,90.62284799999907,90.62284799999907,90.62284799999907,90.62284799999907,90.62284799999907,90.62284799999907,,004,P017,2025_Mar_07_1619,ConditionRich,2021.2.3,59.9495225015405,
57.75,58.0,41,0.0,Stimuli/Blank.png,0,0,0.0,0,108,108,108,,,,,,,,,,,,,57.75000960000034,9.60000033956021e-06,None,91.37352239999746,91.37352239999746,91.37352239999746,91.37352239999746,91.37352239999746,91.37352239999746,91.37352239999746,91.37352239999746,91.37352239999746,91.37352239999746,,004,P017,2025_Mar_07_1619,ConditionRich,2021.2.3,59.9495225015405,
58.0,58.75,35,0.75,Stimuli/P017/things_lobster_09s.jpg,0,0,0.0,0,109,109,109,,,,,,,,,,,,,57.999825099999725,-0.00017490000027464703,None,91.62368559999959,91.62368559999959,91.62368559999959,91.62368559999959,91.62368559999959,91.62368559999959,91.62368559999959,91.62368559999959,91.62368559999959,91.62368559999959,,004,P017,2025_Mar_07_1619,ConditionRich,2021.2.3,59.9495225015405,
58.75,59.0,41,0.0,Stimuli/Blank.png,0,0,0.0,0,110,110,110,,,,,,,,,,,,,58.75129240000024,0.0012924000002385583,None,92.37440330000027,92.37440330000027,92.37440330000027,92.37440330000027,92.37440330000027,92.37440330000027,92.37440330000027,92.37440330000027,92.37440330000027,92.37440330000027,,004,P017,2025_Mar_07_1619,ConditionRich,2021.2.3,59.9495225015405,
59.0,59.75,35,0.75,Stimuli/P017/things_lobster_09s.jpg,0,0,0.0,0,111,111,111,,,,,,,,,,,,,59.00089780000053,0.0008978000005299691,None,92.64130889999797,92.64130889999797,92.64130889999797,92.64130889999797,92.64130889999797,92.64130889999797,92.64130889999797,92.64130889999797,92.64130889999797,92.64130889999797,,004,P017,2025_Mar_07_1619,ConditionRich,2021.2.3,59.9495225015405,
59.75,60.0,41,0.0,Stimuli/Blank.png,0,0,0.0,0,112,112,112,,,,,,,,,,,,,59.769941599999584,0.01994159999958356,None,93.40864669999792,93.40864669999792,93.40864669999792,93.40864669999792,93.40864669999792,93.40864669999792,93.40864669999792,93.40864669999792,93.40864669999792,93.40864669999792,,004,P017,2025_Mar_07_1619,ConditionRich,2021.2.3,59.9495225015405,
60.0,60.75,33,0.75,Stimuli/P017/things_lamb_09s.jpg,0,0,0.0,0,113,113,113,,,,,,,,,,,,,60.01757079999879,0.017570799998793518,None,93.65887799999837,93.65887799999837,93.65887799999837,93.65887799999837,93.65887799999837,93.65887799999837,93.65887799999837,93.65887799999837,93.65887799999837,93.65887799999837,,004,P017,2025_Mar_07_1619,ConditionRich,2021.2.3,59.9495225015405,
60.75,61.0,41,0.0,Stimuli/Blank.png,0,0,0.0,0,114,114,114,,,,,,,,,,,,,60.77121469999838,0.021214699998381548,None,94.40954280000005,94.40954280000005,94.40954280000005,94.40954280000005,94.40954280000005,94.40954280000005,94.40954280000005,94.40954280000005,94.40954280000005,94.40954280000005,,004,P017,2025_Mar_07_1619,ConditionRich,2021.2.3,59.9495225015405,
61.0,61.75,33,0.75,Stimuli/P017/things_lamb_09s.jpg,0,0,0.0,0,115,115,115,,,,,,,,,,,,,61.01925409999967,0.01925409999967087,None,94.6597643999994,94.6597643999994,94.6597643999994,94.6597643999994,94.6597643999994,94.6597643999994,94.6597643999994,94.6597643999994,94.6597643999994,94.6597643999994,,004,P017,2025_Mar_07_1619,ConditionRich,2021.2.3,59.9495225015405,
61.75,62.0,41,0.0,Stimuli/Blank.png,0,0,0.0,0,116,116,116,,,,,,,,,,,,,61.77049110000007,0.020491100000072038,None,95.41043559999889,95.41043559999889,95.41043559999889,95.41043559999889,95.41043559999889,95.41043559999889,95.41043559999889,95.41043559999889,95.41043559999889,95.41043559999889,,004,P017,2025_Mar_07_1619,ConditionRich,2021.2.3,59.9495225015405,
62.0,62.75,33,0.75,Stimuli/P017/things_lamb_09s.jpg,0,0,0.0,0,117,117,117,,,,,,,,,,,,,62.020819199999096,0.020819199999095872,None,95.66065419999723,95.66065419999723,95.66065419999723,95.66065419999723,95.66065419999723,95.66065419999723,95.66065419999723,95.66065419999723,95.66065419999723,95.66065419999723,,004,P017,2025_Mar_07_1619,ConditionRich,2021.2.3,59.9495225015405,
62.75,63.0,41,0.0,Stimuli/Blank.png,0,0,0.0,0,118,118,118,,,,,,,,,,,,,62.77019360000122,0.020193600001221057,None,96.39461759999904,96.39461759999904,96.39461759999904,96.39461759999904,96.39461759999904,96.39461759999904,96.39461759999904,96.39461759999904,96.39461759999904,96.39461759999904,,004,P017,2025_Mar_07_1619,ConditionRich,2021.2.3,59.9495225015405,
63.0,63.75,33,0.75,Stimuli/P017/things_lamb_09s.jpg,0,0,0.0,0,119,119,119,,,,,,,,,,,,,63.004865800001426,0.004865800001425669,None,96.64484769999763,96.64484769999763,96.64484769999763,96.64484769999763,96.64484769999763,96.64484769999763,96.64484769999763,96.64484769999763,96.64484769999763,96.64484769999763,,004,P017,2025_Mar_07_1619,ConditionRich,2021.2.3,59.9495225015405,
63.75,64.0,41,0.0,Stimuli/Blank.png,0,0,0.0,0,120,120,120,,,,,,,,,,,,,63.77176150000014,0.021761500000138767,None,97.39550009999948,97.39550009999948,97.39550009999948,97.39550009999948,97.39550009999948,97.39550009999948,97.39550009999948,97.39550009999948,97.39550009999948,97.39550009999948,,004,P017,2025_Mar_07_1619,ConditionRich,2021.2.3,59.9495225015405,
64.0,64.75,3,0.75,Stimuli/P017/sun_acymmczhyuiimeub.jpg,0,0,0.0,0,121,121,121,,,,,,,,,,,,,64.00507099999959,0.005070999999588821,None,97.64571819999765,97.64571819999765,97.64571819999765,97.64571819999765,97.64571819999765,97.64571819999765,97.64571819999765,97.64571819999765,97.64571819999765,97.64571819999765,,004,P017,2025_Mar_07_1619,ConditionRich,2021.2.3,59.9495225015405,
64.75,65.0,41,0.0,Stimuli/Blank.png,0,0,0.0,0,122,122,122,,,,,,,,,,,,,64.7727057000011,0.022705700001097284,None,98.3964012999968,98.3964012999968,98.3964012999968,98.3964012999968,98.3964012999968,98.3964012999968,98.3964012999968,98.3964012999968,98.3964012999968,98.3964012999968,,004,P017,2025_Mar_07_1619,ConditionRich,2021.2.3,59.9495225015405,
65.0,65.75,3,0.75,Stimuli/P017/sun_acymmczhyuiimeub.jpg,0,0,0.0,0,123,123,123,,,,,,,,,,,,,65.00608909999937,0.006089099999371683,None,98.64660699999877,98.64660699999877,98.64660699999877,98.64660699999877,98.64660699999877,98.64660699999877,98.64660699999877,98.64660699999877,98.64660699999877,98.64660699999877,,004,P017,2025_Mar_07_1619,ConditionRich,2021.2.3,59.9495225015405,
65.75,66.0,41,0.0,Stimuli/Blank.png,0,0,0.0,0,124,124,124,,,,,,,,,,,,,65.77505290000045,0.025052900000446243,None,99.41395459999694,99.41395459999694,99.41395459999694,99.41395459999694,99.41395459999694,99.41395459999694,99.41395459999694,99.41395459999694,99.41395459999694,99.41395459999694,,004,P017,2025_Mar_07_1619,ConditionRich,2021.2.3,59.9495225015405,
66.0,66.75,3,0.75,Stimuli/P017/sun_acymmczhyuiimeub.jpg,1,0,0.75,0,125,125,125,,,,,,,,,,,,,66.02391659999921,0.02391659999921103,1,99.64750289999938,99.64750289999938,99.64750289999938,99.64750289999938,99.64750289999938,99.64750289999938,99.64750289999938,None,99.64750289999938,99.64750289999938,0.3637397999991663,004,P017,2025_Mar_07_1619,ConditionRich,2021.2.3,59.9495225015405,
66.75,67.0,41,0.0,Stimuli/Blank.png,0,0,0.0,0,126,126,126,,,,,,,,,,,,,66.75854909999907,0.008549099999072496,None,100.38149749999866,100.38149749999866,100.38149749999866,100.38149749999866,100.38149749999866,100.38149749999866,100.38149749999866,100.38149749999866,100.38149749999866,100.38149749999866,,004,P017,2025_Mar_07_1619,ConditionRich,2021.2.3,59.9495225015405,
67.0,67.75,3,0.75,Stimuli/P017/sun_acymmczhyuiimeub.jpg,0,0,0.0,0,127,127,127,,,,,,,,,,,,,67.0071992000012,0.0071992000011960045,None,100.63169519999792,100.63169519999792,100.63169519999792,100.63169519999792,100.63169519999792,100.63169519999792,100.63169519999792,100.63169519999792,100.63169519999792,100.63169519999792,,004,P017,2025_Mar_07_1619,ConditionRich,2021.2.3,59.9495225015405,
67.75,68.0,41,0.0,Stimuli/Blank.png,0,0,0.0,0,128,128,128,,,,,,,,,,,,,67.76024949999919,0.010249499999190448,None,101.39905809999982,101.39905809999982,101.39905809999982,101.39905809999982,101.39905809999982,101.39905809999982,101.39905809999982,101.39905809999982,101.39905809999982,101.39905809999982,,004,P017,2025_Mar_07_1619,ConditionRich,2021.2.3,59.9495225015405,
68.0,68.75,36,0.75,Stimuli/P017/things_nest_09s.jpg,0,0,0.0,0,129,129,129,,,,,,,,,,,,,68.02624920000017,0.02624920000016573,None,101.6659617999976,101.6659617999976,101.6659617999976,101.6659617999976,101.6659617999976,101.6659617999976,101.6659617999976,101.6659617999976,101.6659617999976,101.6659617999976,,004,P017,2025_Mar_07_1619,ConditionRich,2021.2.3,59.9495225015405,
68.75,69.0,41,0.0,Stimuli/Blank.png,0,0,0.0,0,130,130,130,,,,,,,,,,,,,68.7756573000006,0.025657300000602845,None,102.4000660999991,102.4000660999991,102.4000660999991,102.4000660999991,102.4000660999991,102.4000660999991,102.4000660999991,102.4000660999991,102.4000660999991,102.4000660999991,,004,P017,2025_Mar_07_1619,ConditionRich,2021.2.3,59.9495225015405,
69.0,69.75,36,0.75,Stimuli/P017/things_nest_09s.jpg,0,0,0.0,0,131,131,131,,,,,,,,,,,,,69.0102306000008,0.010230600000795675,None,102.6501670999969,102.6501670999969,102.6501670999969,102.6501670999969,102.6501670999969,102.6501670999969,102.6501670999969,102.6501670999969,102.6501670999969,102.6501670999969,,004,P017,2025_Mar_07_1619,ConditionRich,2021.2.3,59.9495225015405,
69.75,70.0,41,0.0,Stimuli/Blank.png,0,0,0.0,0,132,132,132,,,,,,,,,,,,,69.77691490000143,0.026914900001429487,None,103.40080409999791,103.40080409999791,103.40080409999791,103.40080409999791,103.40080409999791,103.40080409999791,103.40080409999791,103.40080409999791,103.40080409999791,103.40080409999791,,004,P017,2025_Mar_07_1619,ConditionRich,2021.2.3,59.9495225015405,
70.0,70.75,36,0.75,Stimuli/P017/things_nest_09s.jpg,0,0,0.0,0,133,133,133,,,,,,,,,,,,,70.01028030000089,0.0102803000008862,None,103.65102399999887,103.65102399999887,103.65102399999887,103.65102399999887,103.65102399999887,103.65102399999887,103.65102399999887,103.65102399999887,103.65102399999887,103.65102399999887,,004,P017,2025_Mar_07_1619,ConditionRich,2021.2.3,59.9495225015405,
70.75,71.0,41,0.0,Stimuli/Blank.png,0,0,0.0,0,134,134,134,,,,,,,,,,,,,70.77984379999907,0.029843799999071052,None,104.41839649999747,104.41839649999747,104.41839649999747,104.41839649999747,104.41839649999747,104.41839649999747,104.41839649999747,104.41839649999747,104.41839649999747,104.41839649999747,,004,P017,2025_Mar_07_1619,ConditionRich,2021.2.3,59.9495225015405,
71.0,71.75,36,0.75,Stimuli/P017/things_nest_09s.jpg,0,0,0.0,0,135,135,135,,,,,,,,,,,,,71.02979380000033,0.02979380000033416,None,104.66859919999843,104.66859919999843,104.66859919999843,104.66859919999843,104.66859919999843,104.66859919999843,104.66859919999843,104.66859919999843,104.66859919999843,104.66859919999843,,004,P017,2025_Mar_07_1619,ConditionRich,2021.2.3,59.9495225015405,
71.75,72.0,41,0.0,Stimuli/Blank.png,0,0,0.0,0,136,136,136,,,,,,,,,,,,,71.77997250000044,0.02997250000044005,None,105.41927409999698,105.41927409999698,105.41927409999698,105.41927409999698,105.41927409999698,105.41927409999698,105.41927409999698,105.41927409999698,105.41927409999698,105.41927409999698,,004,P017,2025_Mar_07_1619,ConditionRich,2021.2.3,59.9495225015405,
72.0,72.75,13,0.75,Stimuli/P017/sun_bizqwyomkqigheyx.jpg,0,0,0.0,0,137,137,137,,,,,,,,,,,,,72.03041659999872,0.030416599998716265,None,105.66948199999752,105.66948199999752,105.66948199999752,105.66948199999752,105.66948199999752,105.66948199999752,105.66948199999752,105.66948199999752,105.66948199999752,105.66948199999752,,004,P017,2025_Mar_07_1619,ConditionRich,2021.2.3,59.9495225015405,
72.75,73.0,41,0.0,Stimuli/Blank.png,0,0,0.0,0,138,138,138,,,,,,,,,,,,,72.7795358000003,0.029535800000303425,None,106.40345619999789,106.40345619999789,106.40345619999789,106.40345619999789,106.40345619999789,106.40345619999789,106.40345619999789,106.40345619999789,106.40345619999789,106.40345619999789,,004,P017,2025_Mar_07_1619,ConditionRich,2021.2.3,59.9495225015405,
73.0,73.75,13,0.75,Stimuli/P017/sun_bizqwyomkqigheyx.jpg,0,0,0.0,0,139,139,139,,,,,,,,,,,,,73.01572229999874,0.015722299998742528,None,106.65371149999919,106.65371149999919,106.65371149999919,106.65371149999919,106.65371149999919,106.65371149999919,106.65371149999919,106.65371149999919,106.65371149999919,106.65371149999919,,004,P017,2025_Mar_07_1619,ConditionRich,2021.2.3,59.9495225015405,
73.75,74.0,41,0.0,Stimuli/Blank.png,0,0,0.0,0,140,140,140,,,,,,,,,,,,,73.76319710000098,0.013197100000979844,None,107.38766699999906,107.38766699999906,107.38766699999906,107.38766699999906,107.38766699999906,107.38766699999906,107.38766699999906,107.38766699999906,107.38766699999906,107.38766699999906,,004,P017,2025_Mar_07_1619,ConditionRich,2021.2.3,59.9495225015405,
74.0,74.75,13,0.75,Stimuli/P017/sun_bizqwyomkqigheyx.jpg,0,0,0.0,0,141,141,141,,,,,,,,,,,,,74.01612179999938,0.016121799999382347,None,107.65456959999938,107.65456959999938,107.65456959999938,107.65456959999938,107.65456959999938,107.65456959999938,107.65456959999938,107.65456959999938,107.65456959999938,107.65456959999938,,004,P017,2025_Mar_07_1619,ConditionRich,2021.2.3,59.9495225015405,
74.75,75.0,41,0.0,Stimuli/Blank.png,0,0,0.0,0,142,142,142,,,,,,,,,,,,,74.76465209999878,0.014652099998784252,None,108.38855189999958,108.38855189999958,108.38855189999958,108.38855189999958,108.38855189999958,108.38855189999958,108.38855189999958,108.38855189999958,108.38855189999958,108.38855189999958,,004,P017,2025_Mar_07_1619,ConditionRich,2021.2.3,59.9495225015405,
75.0,75.75,13,0.75,Stimuli/P017/sun_bizqwyomkqigheyx.jpg,0,0,0.0,0,143,143,143,,,,,,,,,,,,,75.01489560000118,0.014895600001182174,None,108.63877979999961,108.63877979999961,108.63877979999961,108.63877979999961,108.63877979999961,108.63877979999961,108.63877979999961,108.63877979999961,108.63877979999961,108.63877979999961,,004,P017,2025_Mar_07_1619,ConditionRich,2021.2.3,59.9495225015405,
75.75,76.0,41,0.0,Stimuli/Blank.png,0,0,0.0,0,144,144,144,,,,,,,,,,,,,75.76495689999865,0.014956899998651352,None,109.38944039999842,109.38944039999842,109.38944039999842,109.38944039999842,109.38944039999842,109.38944039999842,109.38944039999842,109.38944039999842,109.38944039999842,109.38944039999842,,004,P017,2025_Mar_07_1619,ConditionRich,2021.2.3,59.9495225015405,
76.0,76.75,15,0.75,Stimuli/P017/sun_bobznlnnzwznersx.jpg,0,0,0.0,0,145,145,145,,,,,,,,,,,,,76.01558899999873,0.01558899999872665,None,109.63965209999878,109.63965209999878,109.63965209999878,109.63965209999878,109.63965209999878,109.63965209999878,109.63965209999878,109.63965209999878,109.63965209999878,109.63965209999878,,004,P017,2025_Mar_07_1619,ConditionRich,2021.2.3,59.9495225015405,
76.75,77.0,41,0.0,Stimuli/Blank.png,0,0,0.0,0,146,146,146,,,,,,,,,,,,,76.74940160000187,-0.0005983999981253874,None,110.37364270000035,110.37364270000035,110.37364270000035,110.37364270000035,110.37364270000035,110.37364270000035,110.37364270000035,110.37364270000035,110.37364270000035,110.37364270000035,,004,P017,2025_Mar_07_1619,ConditionRich,2021.2.3,59.9495225015405,
77.0,77.75,15,0.75,Stimuli/P017/sun_bobznlnnzwznersx.jpg,0,0,0.0,0,147,147,147,,,,,,,,,,,,,76.99978109999938,-0.00021890000061830506,None,110.62385559999893,110.62385559999893,110.62385559999893,110.62385559999893,110.62385559999893,110.62385559999893,110.62385559999893,110.62385559999893,110.62385559999893,110.62385559999893,,004,P017,2025_Mar_07_1619,ConditionRich,2021.2.3,59.9495225015405,
77.75,78.0,41,0.0,Stimuli/Blank.png,0,0,0.0,0,148,148,148,,,,,,,,,,,,,77.75065679999898,0.0006567999989783857,None,111.37452750000011,111.37452750000011,111.37452750000011,111.37452750000011,111.37452750000011,111.37452750000011,111.37452750000011,111.37452750000011,111.37452750000011,111.37452750000011,,004,P017,2025_Mar_07_1619,ConditionRich,2021.2.3,59.9495225015405,
78.0,78.75,15,0.75,Stimuli/P017/sun_bobznlnnzwznersx.jpg,0,0,0.0,0,149,149,149,,,,,,,,,,,,,78.00030459999834,0.0003045999983442016,None,111.62474759999895,111.62474759999895,111.62474759999895,111.62474759999895,111.62474759999895,111.62474759999895,111.62474759999895,111.62474759999895,111.62474759999895,111.62474759999895,,004,P017,2025_Mar_07_1619,ConditionRich,2021.2.3,59.9495225015405,
78.75,79.0,41,0.0,Stimuli/Blank.png,0,0,0.0,0,150,150,150,,,,,,,,,,,,,78.75173409999843,0.0017340999984298833,None,112.37543679999726,112.37543679999726,112.37543679999726,112.37543679999726,112.37543679999726,112.37543679999726,112.37543679999726,112.37543679999726,112.37543679999726,112.37543679999726,,004,P017,2025_Mar_07_1619,ConditionRich,2021.2.3,59.9495225015405,
79.0,79.75,15,0.75,Stimuli/P017/sun_bobznlnnzwznersx.jpg,0,0,0.0,0,151,151,151,,,,,,,,,,,,,79.00171129999944,0.0017112999994424172,None,112.6423287999969,112.6423287999969,112.6423287999969,112.6423287999969,112.6423287999969,112.6423287999969,112.6423287999969,112.6423287999969,112.6423287999969,112.6423287999969,,004,P017,2025_Mar_07_1619,ConditionRich,2021.2.3,59.9495225015405,
79.75,80.0,41,0.0,Stimuli/Blank.png,0,0,0.0,0,152,152,152,,,,,,,,,,,,,79.76938339999833,0.019383399998332607,None,113.4096890999972,113.4096890999972,113.4096890999972,113.4096890999972,113.4096890999972,113.4096890999972,113.4096890999972,113.4096890999972,113.4096890999972,113.4096890999972,,004,P017,2025_Mar_07_1619,ConditionRich,2021.2.3,59.9495225015405,
80.0,80.75,11,0.75,Stimuli/P017/sun_bdzxsadvniuolmio.jpg,0,0,0.0,0,153,153,153,,,,,,,,,,,,,80.01956670000072,0.019566700000723358,None,113.64319609999802,113.64319609999802,113.64319609999802,113.64319609999802,113.64319609999802,113.64319609999802,113.64319609999802,113.64319609999802,113.64319609999802,113.64319609999802,,004,P017,2025_Mar_07_1619,ConditionRich,2021.2.3,59.9495225015405,
80.75,81.0,41,0.0,Stimuli/Blank.png,0,0,0.0,0,154,154,154,,,,,,,,,,,,,80.75473799999963,0.004737999999633757,None,114.39386599999852,114.39386599999852,114.39386599999852,114.39386599999852,114.39386599999852,114.39386599999852,114.39386599999852,114.39386599999852,114.39386599999852,114.39386599999852,,004,P017,2025_Mar_07_1619,ConditionRich,2021.2.3,59.9495225015405,
81.0,81.75,11,0.75,Stimuli/P017/sun_bdzxsadvniuolmio.jpg,0,0,0.0,0,155,155,155,,,,,,,,,,,,,81.02041200000167,0.020412000001670094,None,114.64409299999897,114.64409299999897,114.64409299999897,114.64409299999897,114.64409299999897,114.64409299999897,114.64409299999897,114.64409299999897,114.64409299999897,114.64409299999897,,004,P017,2025_Mar_07_1619,ConditionRich,2021.2.3,59.9495225015405,
81.75,82.0,41,0.0,Stimuli/Blank.png,0,0,0.0,0,156,156,156,,,,,,,,,,,,,81.75362490000043,0.0036249000004318077,None,115.37814999999682,115.37814999999682,115.37814999999682,115.37814999999682,115.37814999999682,115.37814999999682,115.37814999999682,115.37814999999682,115.37814999999682,115.37814999999682,,004,P017,2025_Mar_07_1619,ConditionRich,2021.2.3,59.9495225015405,
82.0,82.75,11,0.75,Stimuli/P017/sun_bdzxsadvniuolmio.jpg,0,0,0.0,0,157,157,157,,,,,,,,,,,,,82.00436320000154,0.004363200001535006,None,115.62825179999709,115.62825179999709,115.62825179999709,115.62825179999709,115.62825179999709,115.62825179999709,115.62825179999709,115.62825179999709,115.62825179999709,115.62825179999709,,004,P017,2025_Mar_07_1619,ConditionRich,2021.2.3,59.9495225015405,
82.75,83.0,41,0.0,Stimuli/Blank.png,0,0,0.0,0,158,158,158,,,,,,,,,,,,,82.75496099999873,0.004960999998729676,None,116.37895159999971,116.37895159999971,116.37895159999971,116.37895159999971,116.37895159999971,116.37895159999971,116.37895159999971,116.37895159999971,116.37895159999971,116.37895159999971,,004,P017,2025_Mar_07_1619,ConditionRich,2021.2.3,59.9495225015405,
83.0,83.75,11,0.75,Stimuli/P017/sun_bdzxsadvniuolmio.jpg,0,0,0.0,0,159,159,159,,,,,,,,,,,,,83.00569629999882,0.005696299998817267,None,116.62918589999754,116.62918589999754,116.62918589999754,116.62918589999754,116.62918589999754,116.62918589999754,116.62918589999754,116.62918589999754,116.62918589999754,116.62918589999754,,004,P017,2025_Mar_07_1619,ConditionRich,2021.2.3,59.9495225015405,
83.75,84.0,41,0.0,Stimuli/Blank.png,0,0,0.0,0,160,160,160,,,,,,,,,,,,,83.7553267000003,0.005326700000296114,None,117.37983019999956,117.37983019999956,117.37983019999956,117.37983019999956,117.37983019999956,117.37983019999956,117.37983019999956,117.37983019999956,117.37983019999956,117.37983019999956,,004,P017,2025_Mar_07_1619,ConditionRich,2021.2.3,59.9495225015405,
84.0,100.0,0,0.0,Stimuli/Blank.png,1,2,2.75,0,161,161,161,,,,,,,,,,,,,84.00550410000142,0.0055041000014171,1,117.63005429999976,117.63005429999976,117.63005429999976,117.63005429999976,117.63005429999976,117.63005429999976,119.61517189999722,120.36593599999833,117.63005429999976,117.63005429999976,2.303200600003038,004,P017,2025_Mar_07_1619,ConditionRich,2021.2.3,59.9495225015405,
100.0,100.75,38,0.75,Stimuli/P017/things_pony_09s.jpg,0,0,0.0,0,162,162,162,,,,,,,,,,,,,100.00608049999937,0.006080499999370659,None,133.64420499999687,133.64420499999687,133.64420499999687,133.64420499999687,133.64420499999687,133.64420499999687,133.64420499999687,133.64420499999687,133.64420499999687,133.64420499999687,,004,P017,2025_Mar_07_1619,ConditionRich,2021.2.3,59.9495225015405,
100.75,101.0,41,0.0,Stimuli/Blank.png,0,0,0.0,0,163,163,163,,,,,,,,,,,,,100.77124230000118,0.021242300001176773,None,134.39486979999856,134.39486979999856,134.39486979999856,134.39486979999856,134.39486979999856,134.39486979999856,134.39486979999856,134.39486979999856,134.39486979999856,134.39486979999856,,004,P017,2025_Mar_07_1619,ConditionRich,2021.2.3,59.9495225015405,
101.0,101.75,38,0.75,Stimuli/P017/things_pony_09s.jpg,0,0,0.0,0,164,164,164,,,,,,,,,,,,,101.00448519999918,0.004485199999180622,None,134.645093799998,134.645093799998,134.645093799998,134.645093799998,134.645093799998,134.645093799998,134.645093799998,134.645093799998,134.645093799998,134.645093799998,,004,P017,2025_Mar_07_1619,ConditionRich,2021.2.3,59.9495225015405,
101.75,102.0,41,0.0,Stimuli/Blank.png,0,0,0.0,0,165,165,165,,,,,,,,,,,,,101.77118129999872,0.021181299998715986,None,135.39575689999765,135.39575689999765,135.39575689999765,135.39575689999765,135.39575689999765,135.39575689999765,135.39575689999765,135.39575689999765,135.39575689999765,135.39575689999765,,004,P017,2025_Mar_07_1619,ConditionRich,2021.2.3,59.9495225015405,
102.0,102.75,38,0.75,Stimuli/P017/things_pony_09s.jpg,0,0,0.0,0,166,166,166,,,,,,,,,,,,,102.006233600001,0.0062336000009963755,None,135.64598149999802,135.64598149999802,135.64598149999802,135.64598149999802,135.64598149999802,135.64598149999802,135.64598149999802,135.64598149999802,135.64598149999802,135.64598149999802,,004,P017,2025_Mar_07_1619,ConditionRich,2021.2.3,59.9495225015405,
102.75,103.0,41,0.0,Stimuli/Blank.png,0,0,0.0,0,167,167,167,,,,,,,,,,,,,102.77297589999944,0.022975899999437388,None,136.39672909999717,136.39672909999717,136.39672909999717,136.39672909999717,136.39672909999717,136.39672909999717,136.39672909999717,136.39672909999717,136.39672909999717,136.39672909999717,,004,P017,2025_Mar_07_1619,ConditionRich,2021.2.3,59.9495225015405,
103.0,103.75,38,0.75,Stimuli/P017/things_pony_09s.jpg,0,0,0.0,0,168,168,168,,,,,,,,,,,,,103.0054999999993,0.005499999999301508,None,136.63017879999825,136.63017879999825,136.63017879999825,136.63017879999825,136.63017879999825,136.63017879999825,136.63017879999825,136.63017879999825,136.63017879999825,136.63017879999825,,004,P017,2025_Mar_07_1619,ConditionRich,2021.2.3,59.9495225015405,
103.75,104.0,41,0.0,Stimuli/Blank.png,0,0,0.0,0,169,169,169,,,,,,,,,,,,,103.75715629999831,0.007156299998314353,None,137.38094069999715,137.38094069999715,137.38094069999715,137.38094069999715,137.38094069999715,137.38094069999715,137.38094069999715,137.38094069999715,137.38094069999715,137.38094069999715,,004,P017,2025_Mar_07_1619,ConditionRich,2021.2.3,59.9495225015405,
104.0,104.75,32,0.75,Stimuli/P017/things_horse_09s.jpg,0,0,0.0,0,170,170,170,,,,,,,,,,,,,104.00746290000097,0.007462900000973605,None,137.63102969999818,137.63102969999818,137.63102969999818,137.63102969999818,137.63102969999818,137.63102969999818,137.63102969999818,137.63102969999818,137.63102969999818,137.63102969999818,,004,P017,2025_Mar_07_1619,ConditionRich,2021.2.3,59.9495225015405,
104.75,105.0,41,0.0,Stimuli/Blank.png,0,0,0.0,0,171,171,171,,,,,,,,,,,,,104.75742790000004,0.00742790000003879,None,138.38179429999946,138.38179429999946,138.38179429999946,138.38179429999946,138.38179429999946,138.38179429999946,138.38179429999946,138.38179429999946,138.38179429999946,138.38179429999946,,004,P017,2025_Mar_07_1619,ConditionRich,2021.2.3,59.9495225015405,
105.0,105.75,32,0.75,Stimuli/P017/things_horse_09s.jpg,0,0,0.0,0,172,172,172,,,,,,,,,,,,,105.00963649999903,0.009636499999032822,None,138.6487707999986,138.6487707999986,138.6487707999986,138.6487707999986,138.6487707999986,138.6487707999986,138.6487707999986,138.6487707999986,138.6487707999986,138.6487707999986,,004,P017,2025_Mar_07_1619,ConditionRich,2021.2.3,59.9495225015405,
105.75,106.0,41,0.0,Stimuli/Blank.png,0,0,0.0,0,173,173,173,,,,,,,,,,,,,105.77469850000125,0.024698500001250068,None,139.39929329999723,139.39929329999723,139.39929329999723,139.39929329999723,139.39929329999723,139.39929329999723,139.39929329999723,139.39929329999723,139.39929329999723,139.39929329999723,,004,P017,2025_Mar_07_1619,ConditionRich,2021.2.3,59.9495225015405,
106.0,106.75,32,0.75,Stimuli/P017/things_horse_09s.jpg,0,0,0.0,0,174,174,174,,,,,,,,,,,,,106.01045860000158,0.010458600001584273,None,139.6495180999991,139.6495180999991,139.6495180999991,139.6495180999991,139.6495180999991,139.6495180999991,139.6495180999991,139.6495180999991,139.6495180999991,139.6495180999991,,004,P017,2025_Mar_07_1619,ConditionRich,2021.2.3,59.9495225015405,
106.75,107.0,41,0.0,Stimuli/Blank.png,0,0,0.0,0,175,175,175,,,,,,,,,,,,,106.77560820000144,0.025608200001443038,None,140.4002107999986,140.4002107999986,140.4002107999986,140.4002107999986,140.4002107999986,140.4002107999986,140.4002107999986,140.4002107999986,140.4002107999986,140.4002107999986,,004,P017,2025_Mar_07_1619,ConditionRich,2021.2.3,59.9495225015405,
107.0,107.75,32,0.75,Stimuli/P017/things_horse_09s.jpg,0,0,0.0,0,176,176,176,,,,,,,,,,,,,107.00923870000042,0.009238700000423705,None,140.63371410000036,140.63371410000036,140.63371410000036,140.63371410000036,140.63371410000036,140.63371410000036,140.63371410000036,140.63371410000036,140.63371410000036,140.63371410000036,,004,P017,2025_Mar_07_1619,ConditionRich,2021.2.3,59.9495225015405,
107.75,108.0,41,0.0,Stimuli/Blank.png,0,0,0.0,0,177,177,177,,,,,,,,,,,,,107.76046029999998,0.010460299999976996,None,141.38438539999697,141.38438539999697,141.38438539999697,141.38438539999697,141.38438539999697,141.38438539999697,141.38438539999697,141.38438539999697,141.38438539999697,141.38438539999697,,004,P017,2025_Mar_07_1619,ConditionRich,2021.2.3,59.9495225015405,
108.0,108.75,16,0.75,Stimuli/P017/sun_brfwxjsnmauhmfzf.jpg,0,0,0.0,0,178,178,178,,,,,,,,,,,,,108.01054149999982,0.01054149999981746,None,141.6346064999998,141.6346064999998,141.6346064999998,141.6346064999998,141.6346064999998,141.6346064999998,141.6346064999998,141.6346064999998,141.6346064999998,141.6346064999998,,004,P017,2025_Mar_07_1619,ConditionRich,2021.2.3,59.9495225015405,
108.75,109.0,41,0.0,Stimuli/Blank.png,0,0,0.0,0,179,179,179,,,,,,,,,,,,,108.76122300000134,0.011223000001336914,None,142.38526909999928,142.38526909999928,142.38526909999928,142.38526909999928,142.38526909999928,142.38526909999928,142.38526909999928,142.38526909999928,142.38526909999928,142.38526909999928,,004,P017,2025_Mar_07_1619,ConditionRich,2021.2.3,59.9495225015405,
109.0,109.75,16,0.75,Stimuli/P017/sun_brfwxjsnmauhmfzf.jpg,0,0,0.0,0,180,180,180,,,,,,,,,,,,,109.01134670000101,0.011346700001013232,None,142.6354801999987,142.6354801999987,142.6354801999987,142.6354801999987,142.6354801999987,142.6354801999987,142.6354801999987,142.6354801999987,142.6354801999987,142.6354801999987,,004,P017,2025_Mar_07_1619,ConditionRich,2021.2.3,59.9495225015405,
109.75,110.0,41,0.0,Stimuli/Blank.png,0,0,0.0,0,181,181,181,,,,,,,,,,,,,109.76170970000021,0.011709700000210432,None,143.38622969999778,143.38622969999778,143.38622969999778,143.38622969999778,143.38622969999778,143.38622969999778,143.38622969999778,143.38622969999778,143.38622969999778,143.38622969999778,,004,P017,2025_Mar_07_1619,ConditionRich,2021.2.3,59.9495225015405,
110.0,110.75,16,0.75,Stimuli/P017/sun_brfwxjsnmauhmfzf.jpg,0,0,0.0,0,182,182,182,,,,,,,,,,,,,110.01231869999901,0.012318699999013916,None,143.6530576999976,143.6530576999976,143.6530576999976,143.6530576999976,143.6530576999976,143.6530576999976,143.6530576999976,143.6530576999976,143.6530576999976,143.6530576999976,,004,P017,2025_Mar_07_1619,ConditionRich,2021.2.3,59.9495225015405,
110.75,111.0,41,0.0,Stimuli/Blank.png,0,0,0.0,0,183,183,183,,,,,,,,,,,,,110.78046280000126,0.030462800001259893,None,144.40372879999995,144.40372879999995,144.40372879999995,144.40372879999995,144.40372879999995,144.40372879999995,144.40372879999995,144.40372879999995,144.40372879999995,144.40372879999995,,004,P017,2025_Mar_07_1619,ConditionRich,2021.2.3,59.9495225015405,
111.0,111.75,16,0.75,Stimuli/P017/sun_brfwxjsnmauhmfzf.jpg,0,0,0.0,0,184,184,184,,,,,,,,,,,,,111.01277249999839,0.01277249999839114,None,144.6372519999968,144.6372519999968,144.6372519999968,144.6372519999968,144.6372519999968,144.6372519999968,144.6372519999968,144.6372519999968,144.6372519999968,144.6372519999968,,004,P017,2025_Mar_07_1619,ConditionRich,2021.2.3,59.9495225015405,
111.75,112.0,41,0.0,Stimuli/Blank.png,0,0,0.0,0,185,185,185,,,,,,,,,,,,,111.76525400000173,0.015254000001732493,None,145.40461279999727,145.40461279999727,145.40461279999727,145.40461279999727,145.40461279999727,145.40461279999727,145.40461279999727,145.40461279999727,145.40461279999727,145.40461279999727,,004,P017,2025_Mar_07_1619,ConditionRich,2021.2.3,59.9495225015405,
112.0,112.75,10,0.75,Stimuli/P017/sun_bayxprasninnrnle.jpg,0,0,0.0,0,186,186,186,,,,,,,,,,,,,112.0302585999998,0.030258599999797298,None,145.65481759999966,145.65481759999966,145.65481759999966,145.65481759999966,145.65481759999966,145.65481759999966,145.65481759999966,145.65481759999966,145.65481759999966,145.65481759999966,,004,P017,2025_Mar_07_1619,ConditionRich,2021.2.3,59.9495225015405,
112.75,113.0,41,0.0,Stimuli/Blank.png,0,0,0.0,0,187,187,187,,,,,,,,,,,,,112.7657278000006,0.015727800000604475,None,146.40551149999737,146.40551149999737,146.40551149999737,146.40551149999737,146.40551149999737,146.40551149999737,146.40551149999737,146.40551149999737,146.40551149999737,146.40551149999737,,004,P017,2025_Mar_07_1619,ConditionRich,2021.2.3,59.9495225015405,
113.0,113.75,10,0.75,Stimuli/P017/sun_bayxprasninnrnle.jpg,0,0,0.0,0,188,188,188,,,,,,,,,,,,,113.01443719999952,0.01443719999952009,None,146.6390317999976,146.6390317999976,146.6390317999976,146.6390317999976,146.6390317999976,146.6390317999976,146.6390317999976,146.6390317999976,146.6390317999976,146.6390317999976,,004,P017,2025_Mar_07_1619,ConditionRich,2021.2.3,59.9495225015405,
113.75,114.0,41,0.0,Stimuli/Blank.png,0,0,0.0,0,189,189,189,,,,,,,,,,,,,113.76585720000003,0.01585720000002766,None,147.38969299999735,147.38969299999735,147.38969299999735,147.38969299999735,147.38969299999735,147.38969299999735,147.38969299999735,147.38969299999735,147.38969299999735,147.38969299999735,,004,P017,2025_Mar_07_1619,ConditionRich,2021.2.3,59.9495225015405,
114.0,114.75,10,0.75,Stimuli/P017/sun_bayxprasninnrnle.jpg,0,0,0.0,0,190,190,190,,,,,,,,,,,,,113.99866499999916,-0.001335000000835862,None,147.6232003999976,147.6232003999976,147.6232003999976,147.6232003999976,147.6232003999976,147.6232003999976,147.6232003999976,147.6232003999976,147.6232003999976,147.6232003999976,,004,P017,2025_Mar_07_1619,ConditionRich,2021.2.3,59.9495225015405,
114.75,115.0,41,0.0,Stimuli/Blank.png,0,0,0.0,0,191,191,191,,,,,,,,,,,,,114.75030550000156,0.0003055000015592668,None,148.37390739999682,148.37390739999682,148.37390739999682,148.37390739999682,148.37390739999682,148.37390739999682,148.37390739999682,148.37390739999682,148.37390739999682,148.37390739999682,,004,P017,2025_Mar_07_1619,ConditionRich,2021.2.3,59.9495225015405,
115.0,115.75,10,0.75,Stimuli/P017/sun_bayxprasninnrnle.jpg,0,0,0.0,0,192,192,192,,,,,,,,,,,,,114.99989859999914,-0.00010140000085812062,None,148.62410909999744,148.62410909999744,148.62410909999744,148.62410909999744,148.62410909999744,148.62410909999744,148.62410909999744,148.62410909999744,148.62410909999744,148.62410909999744,,004,P017,2025_Mar_07_1619,ConditionRich,2021.2.3,59.9495225015405,
115.75,116.0,41,0.0,Stimuli/Blank.png,0,0,0.0,0,193,193,193,,,,,,,,,,,,,115.7502267000018,0.00022670000180369243,None,149.37477450000006,149.37477450000006,149.37477450000006,149.37477450000006,149.37477450000006,149.37477450000006,149.37477450000006,149.37477450000006,149.37477450000006,149.37477450000006,,004,P017,2025_Mar_07_1619,ConditionRich,2021.2.3,59.9495225015405,
116.0,116.75,37,0.75,Stimuli/P017/things_plastic_film_09s.jpg,0,0,0.0,0,194,194,194,,,,,,,,,,,,,116.00079420000111,0.0007942000011098571,None,149.62495429999763,149.62495429999763,149.62495429999763,149.62495429999763,149.62495429999763,149.62495429999763,149.62495429999763,149.62495429999763,149.62495429999763,149.62495429999763,,004,P017,2025_Mar_07_1619,ConditionRich,2021.2.3,59.9495225015405,
116.75,117.0,41,0.0,Stimuli/Blank.png,0,0,0.0,0,195,195,195,,,,,,,,,,,,,116.75118389999989,0.0011838999998872168,None,150.37567019999915,150.37567019999915,150.37567019999915,150.37567019999915,150.37567019999915,150.37567019999915,150.37567019999915,150.37567019999915,150.37567019999915,150.37567019999915,,004,P017,2025_Mar_07_1619,ConditionRich,2021.2.3,59.9495225015405,
117.0,117.75,37,0.75,Stimuli/P017/things_plastic_film_09s.jpg,0,0,0.0,0,196,196,196,,,,,,,,,,,,,117.00140109999847,0.0014010999984748196,None,150.62588529999994,150.62588529999994,150.62588529999994,150.62588529999994,150.62588529999994,150.62588529999994,150.62588529999994,150.62588529999994,150.62588529999994,150.62588529999994,,004,P017,2025_Mar_07_1619,ConditionRich,2021.2.3,59.9495225015405,
117.75,118.0,41,0.0,Stimuli/Blank.png,0,0,0.0,0,197,197,197,,,,,,,,,,,,,117.75321590000021,0.0032159000002138782,None,151.376570299999,151.376570299999,151.376570299999,151.376570299999,151.376570299999,151.376570299999,151.376570299999,151.376570299999,151.376570299999,151.376570299999,,004,P017,2025_Mar_07_1619,ConditionRich,2021.2.3,59.9495225015405,
118.0,118.75,37,0.75,Stimuli/P017/things_plastic_film_09s.jpg,0,0,0.0,0,198,198,198,,,,,,,,,,,,,118.00377959999969,0.0037795999996887986,None,151.6434530999977,151.6434530999977,151.6434530999977,151.6434530999977,151.6434530999977,151.6434530999977,151.6434530999977,151.6434530999977,151.6434530999977,151.6434530999977,,004,P017,2025_Mar_07_1619,ConditionRich,2021.2.3,59.9495225015405,
118.75,119.0,41,0.0,Stimuli/Blank.png,0,0,0.0,0,199,199,199,,,,,,,,,,,,,118.76960210000107,0.019602100001065992,None,152.39412629999788,152.39412629999788,152.39412629999788,152.39412629999788,152.39412629999788,152.39412629999788,152.39412629999788,152.39412629999788,152.39412629999788,152.39412629999788,,004,P017,2025_Mar_07_1619,ConditionRich,2021.2.3,59.9495225015405,
119.0,119.75,37,0.75,Stimuli/P017/things_plastic_film_09s.jpg,0,0,0.0,0,200,200,200,,,,,,,,,,,,,119.00515839999935,0.00515839999934542,None,152.6443451999985,152.6443451999985,152.6443451999985,152.6443451999985,152.6443451999985,152.6443451999985,152.6443451999985,152.6443451999985,152.6443451999985,152.6443451999985,,004,P017,2025_Mar_07_1619,ConditionRich,2021.2.3,59.9495225015405,
119.75,120.0,41,0.0,Stimuli/Blank.png,0,0,0.0,0,201,201,201,,,,,,,,,,,,,119.77050439999948,0.020504399999481393,None,153.39500279999993,153.39500279999993,153.39500279999993,153.39500279999993,153.39500279999993,153.39500279999993,153.39500279999993,153.39500279999993,153.39500279999993,153.39500279999993,,004,P017,2025_Mar_07_1619,ConditionRich,2021.2.3,59.9495225015405,
120.0,120.75,18,0.75,Stimuli/P017/sun_brrvvswweljrvnlq.jpg,1,0,0.75,0,202,202,202,,,,,,,,,,,,,120.00549110000065,0.005491100000654114,1,153.64539549999972,153.64539549999972,153.64539549999972,153.64539549999972,153.64539549999972,153.64539549999972,153.64539549999972,154.36254609999742,153.64539549999972,153.64539549999972,0.41291869999986375,004,P017,2025_Mar_07_1619,ConditionRich,2021.2.3,59.9495225015405,
120.75,121.0,41,0.0,Stimuli/Blank.png,0,0,0.0,0,203,203,203,,,,,,,,,,,,,120.77159290000054,0.021592900000541704,None,154.39588339999682,154.39588339999682,154.39588339999682,154.39588339999682,154.39588339999682,154.39588339999682,154.39588339999682,154.39588339999682,154.39588339999682,154.39588339999682,,004,P017,2025_Mar_07_1619,ConditionRich,2021.2.3,59.9495225015405,
121.0,121.75,18,0.75,Stimuli/P017/sun_brrvvswweljrvnlq.jpg,0,0,0.0,0,204,204,204,,,,,,,,,,,,,121.00544749999972,0.005447499999718275,None,154.6294203999969,154.6294203999969,154.6294203999969,154.6294203999969,154.6294203999969,154.6294203999969,154.6294203999969,154.6294203999969,154.6294203999969,154.6294203999969,,004,P017,2025_Mar_07_1619,ConditionRich,2021.2.3,59.9495225015405,
121.75,122.0,41,0.0,Stimuli/Blank.png,0,0,0.0,0,205,205,205,,,,,,,,,,,,,121.75543240000115,0.005432400001154747,None,155.3800863999968,155.3800863999968,155.3800863999968,155.3800863999968,155.3800863999968,155.3800863999968,155.3800863999968,155.3800863999968,155.3800863999968,155.3800863999968,,004,P017,2025_Mar_07_1619,ConditionRich,2021.2.3,59.9495225015405,
122.0,122.75,18,0.75,Stimuli/P017/sun_brrvvswweljrvnlq.jpg,0,0,0.0,0,206,206,206,,,,,,,,,,,,,122.00631789999898,0.006317899998975918,None,155.64701449999848,155.64701449999848,155.64701449999848,155.64701449999848,155.64701449999848,155.64701449999848,155.64701449999848,155.64701449999848,155.64701449999848,155.64701449999848,,004,P017,2025_Mar_07_1619,ConditionRich,2021.2.3,59.9495225015405,
122.75,123.0,41,0.0,Stimuli/Blank.png,0,0,0.0,0,207,207,207,,,,,,,,,,,,,122.77602499999921,0.026024999999208376,None,156.41434759999902,156.41434759999902,156.41434759999902,156.41434759999902,156.41434759999902,156.41434759999902,156.41434759999902,156.41434759999902,156.41434759999902,156.41434759999902,,004,P017,2025_Mar_07_1619,ConditionRich,2021.2.3,59.9495225015405,
123.0,123.75,18,0.75,Stimuli/P017/sun_brrvvswweljrvnlq.jpg,0,0,0.0,0,208,208,208,,,,,,,,,,,,,123.02549089999957,0.025490899999567773,None,156.66466109999965,156.66466109999965,156.66466109999965,156.66466109999965,156.66466109999965,156.66466109999965,156.66466109999965,156.66466109999965,156.66466109999965,156.66466109999965,,004,P017,2025_Mar_07_1619,ConditionRich,2021.2.3,59.9495225015405,
123.75,124.0,41,0.0,Stimuli/Blank.png,0,0,0.0,0,209,209,209,,,,,,,,,,,,,123.77457800000047,0.024578000000474276,None,157.398546299999,157.398546299999,157.398546299999,157.398546299999,157.398546299999,157.398546299999,157.398546299999,157.398546299999,157.398546299999,157.398546299999,,004,P017,2025_Mar_07_1619,ConditionRich,2021.2.3,59.9495225015405,
124.0,124.75,4,0.75,Stimuli/P017/sun_aibvvqlmlsjnrgdj.jpg,0,0,0.0,0,210,210,210,,,,,,,,,,,,,124.00820319999912,0.008203199999115895,None,157.6487571999969,157.6487571999969,157.6487571999969,157.6487571999969,157.6487571999969,157.6487571999969,157.6487571999969,157.6487571999969,157.6487571999969,157.6487571999969,,004,P017,2025_Mar_07_1619,ConditionRich,2021.2.3,59.9495225015405,
124.75,125.0,41,0.0,Stimuli/Blank.png,0,0,0.0,0,211,211,211,,,,,,,,,,,,,124.77530870000191,0.025308700001914985,None,158.39942119999978,158.39942119999978,158.39942119999978,158.39942119999978,158.39942119999978,158.39942119999978,158.39942119999978,158.39942119999978,158.39942119999978,158.39942119999978,,004,P017,2025_Mar_07_1619,ConditionRich,2021.2.3,59.9495225015405,
125.0,125.75,4,0.75,Stimuli/P017/sun_aibvvqlmlsjnrgdj.jpg,0,0,0.0,0,212,212,212,,,,,,,,,,,,,125.00903420000031,0.00903420000031474,None,158.6496507999982,158.6496507999982,158.6496507999982,158.6496507999982,158.6496507999982,158.6496507999982,158.6496507999982,158.6496507999982,158.6496507999982,158.6496507999982,,004,P017,2025_Mar_07_1619,ConditionRich,2021.2.3,59.9495225015405,
125.75,126.0,41,0.0,Stimuli/Blank.png,0,0,0.0,0,213,213,213,,,,,,,,,,,,,125.77568569999858,0.02568569999857573,None,159.4003206999987,159.4003206999987,159.4003206999987,159.4003206999987,159.4003206999987,159.4003206999987,159.4003206999987,159.4003206999987,159.4003206999987,159.4003206999987,,004,P017,2025_Mar_07_1619,ConditionRich,2021.2.3,59.9495225015405,
126.0,126.75,4,0.75,Stimuli/P017/sun_aibvvqlmlsjnrgdj.jpg,0,0,0.0,0,214,214,214,,,,,,,,,,,,,126.00990720000118,0.009907200001180172,None,159.6338524999992,159.6338524999992,159.6338524999992,159.6338524999992,159.6338524999992,159.6338524999992,159.6338524999992,159.6338524999992,159.6338524999992,159.6338524999992,,004,P017,2025_Mar_07_1619,ConditionRich,2021.2.3,59.9495225015405,
126.75,127.0,41,0.0,Stimuli/Blank.png,0,0,0.0,0,215,215,215,,,,,,,,,,,,,126.76053289999982,0.010532899999816436,None,160.38453229999868,160.38453229999868,160.38453229999868,160.38453229999868,160.38453229999868,160.38453229999868,160.38453229999868,160.38453229999868,160.38453229999868,160.38453229999868,,004,P017,2025_Mar_07_1619,ConditionRich,2021.2.3,59.9495225015405,
127.0,127.75,4,0.75,Stimuli/P017/sun_aibvvqlmlsjnrgdj.jpg,1,0,0.75,0,216,216,216,,,,,,,,,,,,,127.01110809999955,0.011108099999546539,1,160.65142339999875,160.65142339999875,160.65142339999875,160.65142339999875,160.65142339999875,160.65142339999875,160.65142339999875,161.36871489999976,160.65142339999875,160.65142339999875,0.3848859000027005,004,P017,2025_Mar_07_1619,ConditionRich,2021.2.3,59.9495225015405,
127.75,128.0,41,0.0,Stimuli/Blank.png,0,0,0.0,0,217,217,217,,,,,,,,,,,,,127.78030180000133,0.03030180000132532,None,161.4187630999986,161.4187630999986,161.4187630999986,161.4187630999986,161.4187630999986,161.4187630999986,161.4187630999986,161.4187630999986,161.4187630999986,161.4187630999986,,004,P017,2025_Mar_07_1619,ConditionRich,2021.2.3,59.9495225015405,
128.0,128.75,26,0.75,Stimuli/P017/things_chandelier_09s.jpg,0,0,0.0,0,218,218,218,,,,,,,,,,,,,128.02989689999959,0.029896899999585003,None,161.66897959999915,161.66897959999915,161.66897959999915,161.66897959999915,161.66897959999915,161.66897959999915,161.66897959999915,161.66897959999915,161.66897959999915,161.66897959999915,,004,P017,2025_Mar_07_1619,ConditionRich,2021.2.3,59.9495225015405,
128.75,129.0,41,0.0,Stimuli/Blank.png,0,0,0.0,0,219,219,219,,,,,,,,,,,,,128.77923889999875,0.029238899998745183,None,162.4029819999996,162.4029819999996,162.4029819999996,162.4029819999996,162.4029819999996,162.4029819999996,162.4029819999996,162.4029819999996,162.4029819999996,162.4029819999996,,004,P017,2025_Mar_07_1619,ConditionRich,2021.2.3,59.9495225015405,
129.0,129.75,26,0.75,Stimuli/P017/things_chandelier_09s.jpg,0,0,0.0,0,220,220,220,,,,,,,,,,,,,129.0127481999989,0.01274819999889587,None,162.63649799999985,162.63649799999985,162.63649799999985,162.63649799999985,162.63649799999985,162.63649799999985,162.63649799999985,162.63649799999985,162.63649799999985,162.63649799999985,,004,P017,2025_Mar_07_1619,ConditionRich,2021.2.3,59.9495225015405,
129.75,130.0,41,0.0,Stimuli/Blank.png,0,0,0.0,0,221,221,221,,,,,,,,,,,,,129.762558800001,0.012558800000988413,None,163.38716679999925,163.38716679999925,163.38716679999925,163.38716679999925,163.38716679999925,163.38716679999925,163.38716679999925,163.38716679999925,163.38716679999925,163.38716679999925,,004,P017,2025_Mar_07_1619,ConditionRich,2021.2.3,59.9495225015405,
130.0,130.75,26,0.75,Stimuli/P017/things_chandelier_09s.jpg,0,0,0.0,0,222,222,222,,,,,,,,,,,,,130.0127425999999,0.012742599999910453,None,163.6540948999973,163.6540948999973,163.6540948999973,163.6540948999973,163.6540948999973,163.6540948999973,163.6540948999973,163.6540948999973,163.6540948999973,163.6540948999973,,004,P017,2025_Mar_07_1619,ConditionRich,2021.2.3,59.9495225015405,
130.75,131.0,41,0.0,Stimuli/Blank.png,0,0,0.0,0,223,223,223,,,,,,,,,,,,,130.7802498000019,0.030249800001911353,None,164.40470579999965,164.40470579999965,164.40470579999965,164.40470579999965,164.40470579999965,164.40470579999965,164.40470579999965,164.40470579999965,164.40470579999965,164.40470579999965,,004,P017,2025_Mar_07_1619,ConditionRich,2021.2.3,59.9495225015405,
131.0,131.75,26,0.75,Stimuli/P017/things_chandelier_09s.jpg,0,0,0.0,0,224,224,224,,,,,,,,,,,,,131.0147294999988,0.014729499998793472,None,164.6549813999991,164.6549813999991,164.6549813999991,164.6549813999991,164.6549813999991,164.6549813999991,164.6549813999991,164.6549813999991,164.6549813999991,164.6549813999991,,004,P017,2025_Mar_07_1619,ConditionRich,2021.2.3,59.9495225015405,
131.75,132.0,41,0.0,Stimuli/Blank.png,0,0,0.0,0,225,225,225,,,,,,,,,,,,,131.78204320000077,0.03204320000077132,None,165.405616,165.405616,165.405616,165.405616,165.405616,165.405616,165.405616,165.405616,165.405616,165.405616,,004,P017,2025_Mar_07_1619,ConditionRich,2021.2.3,59.9495225015405,
132.0,132.75,17,0.75,Stimuli/P017/sun_brhndfjxyigqgiwl.jpg,0,0,0.0,0,226,226,226,,,,,,,,,,,,,132.01515590000054,0.015155900000536349,None,165.6391533999995,165.6391533999995,165.6391533999995,165.6391533999995,165.6391533999995,165.6391533999995,165.6391533999995,165.6391533999995,165.6391533999995,165.6391533999995,,004,P017,2025_Mar_07_1619,ConditionRich,2021.2.3,59.9495225015405,
132.75,133.0,41,0.0,Stimuli/Blank.png,0,0,0.0,0,227,227,227,,,,,,,,,,,,,132.75003419999848,3.4199998481199145e-05,None,166.373157799997,166.373157799997,166.373157799997,166.373157799997,166.373157799997,166.373157799997,166.373157799997,166.373157799997,166.373157799997,166.373157799997,,004,P017,2025_Mar_07_1619,ConditionRich,2021.2.3,59.9495225015405,
133.0,133.75,17,0.75,Stimuli/P017/sun_brhndfjxyigqgiwl.jpg,0,0,0.0,0,228,228,228,,,,,,,,,,,,,132.998802099999,-0.0011979000009887386,None,166.62336239999786,166.62336239999786,166.62336239999786,166.62336239999786,166.62336239999786,166.62336239999786,166.62336239999786,166.62336239999786,166.62336239999786,166.62336239999786,,004,P017,2025_Mar_07_1619,ConditionRich,2021.2.3,59.9495225015405,
133.75,134.0,41,0.0,Stimuli/Blank.png,0,0,0.0,0,229,229,229,,,,,,,,,,,,,133.75063130000126,0.0006313000012596603,None,167.37403359999735,167.37403359999735,167.37403359999735,167.37403359999735,167.37403359999735,167.37403359999735,167.37403359999735,167.37403359999735,167.37403359999735,167.37403359999735,,004,P017,2025_Mar_07_1619,ConditionRich,2021.2.3,59.9495225015405,
134.0,134.75,17,0.75,Stimuli/P017/sun_brhndfjxyigqgiwl.jpg,0,0,0.0,0,230,230,230,,,,,,,,,,,,,134.00090479999926,0.0009047999992617406,None,167.640947099997,167.640947099997,167.640947099997,167.640947099997,167.640947099997,167.640947099997,167.640947099997,167.640947099997,167.640947099997,167.640947099997,,004,P017,2025_Mar_07_1619,ConditionRich,2021.2.3,59.9495225015405,
134.75,135.0,41,0.0,Stimuli/Blank.png,0,0,0.0,0,231,231,231,,,,,,,,,,,,,134.76698400000168,0.016984000001684763,None,168.3915847999997,168.3915847999997,168.3915847999997,168.3915847999997,168.3915847999997,168.3915847999997,168.3915847999997,168.3915847999997,168.3915847999997,168.3915847999997,,004,P017,2025_Mar_07_1619,ConditionRich,2021.2.3,59.9495225015405,
135.0,135.75,17,0.75,Stimuli/P017/sun_brhndfjxyigqgiwl.jpg,0,0,0.0,0,232,232,232,,,,,,,,,,,,,135.00064280000151,0.0006428000015148427,None,168.62512789999892,168.62512789999892,168.62512789999892,168.62512789999892,168.62512789999892,168.62512789999892,168.62512789999892,168.62512789999892,168.62512789999892,168.62512789999892,,004,P017,2025_Mar_07_1619,ConditionRich,2021.2.3,59.9495225015405,
135.75,136.0,41,0.0,Stimuli/Blank.png,0,0,0.0,0,233,233,233,,,,,,,,,,,,,135.75189110000065,0.0018911000006482936,None,169.3757928999985,169.3757928999985,169.3757928999985,169.3757928999985,169.3757928999985,169.3757928999985,169.3757928999985,169.3757928999985,169.3757928999985,169.3757928999985,,004,P017,2025_Mar_07_1619,ConditionRich,2021.2.3,59.9495225015405,
136.0,136.75,31,0.75,Stimuli/P017/things_highchair_09s.jpg,0,0,0.0,0,234,234,234,,,,,,,,,,,,,136.002246,0.002246000000013737,None,169.64269769999737,169.64269769999737,169.64269769999737,169.64269769999737,169.64269769999737,169.64269769999737,169.64269769999737,169.64269769999737,169.64269769999737,169.64269769999737,,004,P017,2025_Mar_07_1619,ConditionRich,2021.2.3,59.9495225015405,
136.75,137.0,41,0.0,Stimuli/Blank.png,0,0,0.0,0,235,235,235,,,,,,,,,,,,,136.76988029999848,0.019880299998476403,None,170.3933771999982,170.3933771999982,170.3933771999982,170.3933771999982,170.3933771999982,170.3933771999982,170.3933771999982,170.3933771999982,170.3933771999982,170.3933771999982,,004,P017,2025_Mar_07_1619,ConditionRich,2021.2.3,59.9495225015405,
137.0,137.75,31,0.75,Stimuli/P017/things_highchair_09s.jpg,0,0,0.0,0,236,236,236,,,,,,,,,,,,,137.00272480000058,0.002724800000578398,None,170.62689639999735,170.62689639999735,170.62689639999735,170.62689639999735,170.62689639999735,170.62689639999735,170.62689639999735,170.62689639999735,170.62689639999735,170.62689639999735,,004,P017,2025_Mar_07_1619,ConditionRich,2021.2.3,59.9495225015405,
137.75,138.0,41,0.0,Stimuli/Blank.png,0,0,0.0,0,237,237,237,,,,,,,,,,,,,137.75364320000153,0.0036432000015338417,None,171.37756459999946,171.37756459999946,171.37756459999946,171.37756459999946,171.37756459999946,171.37756459999946,171.37756459999946,171.37756459999946,171.37756459999946,171.37756459999946,,004,P017,2025_Mar_07_1619,ConditionRich,2021.2.3,59.9495225015405,
138.0,138.75,31,0.75,Stimuli/P017/things_highchair_09s.jpg,0,0,0.0,0,238,238,238,,,,,,,,,,,,,138.00602829999843,0.006028299998433795,None,171.64445999999953,171.64445999999953,171.64445999999953,171.64445999999953,171.64445999999953,171.64445999999953,171.64445999999953,171.64445999999953,171.64445999999953,171.64445999999953,,004,P017,2025_Mar_07_1619,ConditionRich,2021.2.3,59.9495225015405,
138.75,139.0,41,0.0,Stimuli/Blank.png,0,0,0.0,0,239,239,239,,,,,,,,,,,,,138.7709778999997,0.020977899999707006,None,172.39513019999868,172.39513019999868,172.39513019999868,172.39513019999868,172.39513019999868,172.39513019999868,172.39513019999868,172.39513019999868,172.39513019999868,172.39513019999868,,004,P017,2025_Mar_07_1619,ConditionRich,2021.2.3,59.9495225015405,
139.0,139.75,31,0.75,Stimuli/P017/things_highchair_09s.jpg,0,0,0.0,0,240,240,240,,,,,,,,,,,,,139.0040243000003,0.004024300000310177,None,172.62866709999798,172.62866709999798,172.62866709999798,172.62866709999798,172.62866709999798,172.62866709999798,172.62866709999798,172.62866709999798,172.62866709999798,172.62866709999798,,004,P017,2025_Mar_07_1619,ConditionRich,2021.2.3,59.9495225015405,
139.75,140.0,41,0.0,Stimuli/Blank.png,0,0,0.0,0,241,241,241,,,,,,,,,,,,,139.75530480000089,0.005304800000885734,None,173.3793287999979,173.3793287999979,173.3793287999979,173.3793287999979,173.3793287999979,173.3793287999979,173.3793287999979,173.3793287999979,173.3793287999979,173.3793287999979,,004,P017,2025_Mar_07_1619,ConditionRich,2021.2.3,59.9495225015405,
140.0,140.75,7,0.75,Stimuli/P017/sun_auadhqmfjsjtjcue.jpg,0,0,0.0,0,242,242,242,,,,,,,,,,,,,140.0051291000018,0.00512910000179545,None,173.62951489999978,173.62951489999978,173.62951489999978,173.62951489999978,173.62951489999978,173.62951489999978,173.62951489999978,173.62951489999978,173.62951489999978,173.62951489999978,,004,P017,2025_Mar_07_1619,ConditionRich,2021.2.3,59.9495225015405,
140.75,141.0,41,0.0,Stimuli/Blank.png,0,0,0.0,0,243,243,243,,,,,,,,,,,,,140.75575609999942,0.0057560999994166195,None,174.38016140000036,174.38016140000036,174.38016140000036,174.38016140000036,174.38016140000036,174.38016140000036,174.38016140000036,174.38016140000036,174.38016140000036,174.38016140000036,,004,P017,2025_Mar_07_1619,ConditionRich,2021.2.3,59.9495225015405,
141.0,141.75,7,0.75,Stimuli/P017/sun_auadhqmfjsjtjcue.jpg,0,0,0.0,0,244,244,244,,,,,,,,,,,,,141.00625840000066,0.006258400000660913,None,174.63043529999777,174.63043529999777,174.63043529999777,174.63043529999777,174.63043529999777,174.63043529999777,174.63043529999777,174.63043529999777,174.63043529999777,174.63043529999777,,004,P017,2025_Mar_07_1619,ConditionRich,2021.2.3,59.9495225015405,
141.75,142.0,41,0.0,Stimuli/Blank.png,0,0,0.0,0,245,245,245,,,,,,,,,,,,,141.7568825999988,0.006882599998789374,None,175.38110839999717,175.38110839999717,175.38110839999717,175.38110839999717,175.38110839999717,175.38110839999717,175.38110839999717,175.38110839999717,175.38110839999717,175.38110839999717,,004,P017,2025_Mar_07_1619,ConditionRich,2021.2.3,59.9495225015405,
142.0,142.75,7,0.75,Stimuli/P017/sun_auadhqmfjsjtjcue.jpg,0,0,0.0,0,246,246,246,,,,,,,,,,,,,142.00851289999991,0.008512899999914225,None,175.6480085000003,175.6480085000003,175.6480085000003,175.6480085000003,175.6480085000003,175.6480085000003,175.6480085000003,175.6480085000003,175.6480085000003,175.6480085000003,,004,P017,2025_Mar_07_1619,ConditionRich,2021.2.3,59.9495225015405,
142.75,143.0,41,0.0,Stimuli/Blank.png,0,0,0.0,0,247,247,247,,,,,,,,,,,,,142.77407550000135,0.024075500001345063,None,176.39866359999723,176.39866359999723,176.39866359999723,176.39866359999723,176.39866359999723,176.39866359999723,176.39866359999723,176.39866359999723,176.39866359999723,176.39866359999723,,004,P017,2025_Mar_07_1619,ConditionRich,2021.2.3,59.9495225015405,
143.0,143.75,7,0.75,Stimuli/P017/sun_auadhqmfjsjtjcue.jpg,0,0,0.0,0,248,248,248,,,,,,,,,,,,,143.00765479999973,0.007654799999727402,None,176.63220269999874,176.63220269999874,176.63220269999874,176.63220269999874,176.63220269999874,176.63220269999874,176.63220269999874,176.63220269999874,176.63220269999874,176.63220269999874,,004,P017,2025_Mar_07_1619,ConditionRich,2021.2.3,59.9495225015405,
143.75,144.0,41,0.0,Stimuli/Blank.png,0,0,0.0,0,249,249,249,,,,,,,,,,,,,143.76051680000091,0.010516800000914373,None,177.3995799999975,177.3995799999975,177.3995799999975,177.3995799999975,177.3995799999975,177.3995799999975,177.3995799999975,177.3995799999975,177.3995799999975,177.3995799999975,,004,P017,2025_Mar_07_1619,ConditionRich,2021.2.3,59.9495225015405,
144.0,144.75,6,0.75,Stimuli/P017/sun_atuyvunnykjurjgx.jpg,0,0,0.0,0,250,250,250,,,,,,,,,,,,,144.02586560000054,0.025865600000543054,None,177.64976849999948,177.64976849999948,177.64976849999948,177.64976849999948,177.64976849999948,177.64976849999948,177.64976849999948,177.64976849999948,177.64976849999948,177.64976849999948,,004,P017,2025_Mar_07_1619,ConditionRich,2021.2.3,59.9495225015405,
144.75,145.0,41,0.0,Stimuli/Blank.png,0,0,0.0,0,251,251,251,,,,,,,,,,,,,144.75958679999894,0.009586799998942297,None,178.38375149999774,178.38375149999774,178.38375149999774,178.38375149999774,178.38375149999774,178.38375149999774,178.38375149999774,178.38375149999774,178.38375149999774,178.38375149999774,,004,P017,2025_Mar_07_1619,ConditionRich,2021.2.3,59.9495225015405,
145.0,145.75,6,0.75,Stimuli/P017/sun_atuyvunnykjurjgx.jpg,0,0,0.0,0,252,252,252,,,,,,,,,,,,,145.01028009999936,0.010280099999363301,None,178.6506792,178.6506792,178.6506792,178.6506792,178.6506792,178.6506792,178.6506792,178.6506792,178.6506792,178.6506792,,004,P017,2025_Mar_07_1619,ConditionRich,2021.2.3,59.9495225015405,
145.75,146.0,41,0.0,Stimuli/Blank.png,0,0,0.0,0,253,253,253,,,,,,,,,,,,,145.77752419999888,0.02752419999887934,None,179.40132710000034,179.40132710000034,179.40132710000034,179.40132710000034,179.40132710000034,179.40132710000034,179.40132710000034,179.40132710000034,179.40132710000034,179.40132710000034,,004,P017,2025_Mar_07_1619,ConditionRich,2021.2.3,59.9495225015405,
146.0,146.75,6,0.75,Stimuli/P017/sun_atuyvunnykjurjgx.jpg,0,0,0.0,0,254,254,254,,,,,,,,,,,,,146.0105919000016,0.010591900001600152,None,179.63485519999813,179.63485519999813,179.63485519999813,179.63485519999813,179.63485519999813,179.63485519999813,179.63485519999813,179.63485519999813,179.63485519999813,179.63485519999813,,004,P017,2025_Mar_07_1619,ConditionRich,2021.2.3,59.9495225015405,
146.75,147.0,41,0.0,Stimuli/Blank.png,0,0,0.0,0,255,255,255,,,,,,,,,,,,,146.76196429999982,0.01196429999981774,None,180.38551949999965,180.38551949999965,180.38551949999965,180.38551949999965,180.38551949999965,180.38551949999965,180.38551949999965,180.38551949999965,180.38551949999965,180.38551949999965,,004,P017,2025_Mar_07_1619,ConditionRich,2021.2.3,59.9495225015405,
147.0,147.75,6,0.75,Stimuli/P017/sun_atuyvunnykjurjgx.jpg,0,0,0.0,0,256,256,256,,,,,,,,,,,,,147.01176979999946,0.011769799999456154,None,180.65242829999988,180.65242829999988,180.65242829999988,180.65242829999988,180.65242829999988,180.65242829999988,180.65242829999988,180.65242829999988,180.65242829999988,180.65242829999988,,004,P017,2025_Mar_07_1619,ConditionRich,2021.2.3,59.9495225015405,
147.75,148.0,41,0.0,Stimuli/Blank.png,0,0,0.0,0,257,257,257,,,,,,,,,,,,,147.77999629999977,0.029996299999766052,None,181.4031025000004,181.4031025000004,181.4031025000004,181.4031025000004,181.4031025000004,181.4031025000004,181.4031025000004,181.4031025000004,181.4031025000004,181.4031025000004,,004,P017,2025_Mar_07_1619,ConditionRich,2021.2.3,59.9495225015405,
148.0,148.75,5,0.75,Stimuli/P017/sun_apojgqgvdvsksdvo.jpg,0,0,0.0,0,258,258,258,,,,,,,,,,,,,148.01261380000142,0.012613800001417985,None,181.65332329999728,181.65332329999728,181.65332329999728,181.65332329999728,181.65332329999728,181.65332329999728,181.65332329999728,181.65332329999728,181.65332329999728,181.65332329999728,,004,P017,2025_Mar_07_1619,ConditionRich,2021.2.3,59.9495225015405,
148.75,149.0,41,0.0,Stimuli/Blank.png,0,0,0.0,0,259,259,259,,,,,,,,,,,,,148.77952150000056,0.029521500000555534,None,182.40397440000015,182.40397440000015,182.40397440000015,182.40397440000015,182.40397440000015,182.40397440000015,182.40397440000015,182.40397440000015,182.40397440000015,182.40397440000015,,004,P017,2025_Mar_07_1619,ConditionRich,2021.2.3,59.9495225015405,
149.0,149.75,5,0.75,Stimuli/P017/sun_apojgqgvdvsksdvo.jpg,0,0,0.0,0,260,260,260,,,,,,,,,,,,,149.01516970000011,0.015169700000114972,None,182.65419669999756,182.65419669999756,182.65419669999756,182.65419669999756,182.65419669999756,182.65419669999756,182.65419669999756,182.65419669999756,182.65419669999756,182.65419669999756,,004,P017,2025_Mar_07_1619,ConditionRich,2021.2.3,59.9495225015405,
149.75,150.0,41,0.0,Stimuli/Blank.png,0,0,0.0,0,261,261,261,,,,,,,,,,,,,149.7638556999991,0.013855699999112403,None,183.38818099999844,183.38818099999844,183.38818099999844,183.38818099999844,183.38818099999844,183.38818099999844,183.38818099999844,183.38818099999844,183.38818099999844,183.38818099999844,,004,P017,2025_Mar_07_1619,ConditionRich,2021.2.3,59.9495225015405,
150.0,150.75,5,0.75,Stimuli/P017/sun_apojgqgvdvsksdvo.jpg,0,0,0.0,0,262,262,262,,,,,,,,,,,,,150.01388569999835,0.01388569999835454,None,183.63839279999956,183.63839279999956,183.63839279999956,183.63839279999956,183.63839279999956,183.63839279999956,183.63839279999956,183.63839279999956,183.63839279999956,183.63839279999956,,004,P017,2025_Mar_07_1619,ConditionRich,2021.2.3,59.9495225015405,
