eventStartTime,eventEndTime,eventCond,imSize,imFile,responseEvent,fixRespStart,fixRespEnd,Events.thisRepN,Events.thisTrialN,Events.thisN,Events.thisIndex,Instructions.started,Instructions.stopped,participantReadyResponse.keys,participantReadyResponse.rt,participantReadyResponse.started,participantReadyResponse.stopped,startWaitforTrigger,triggerResponse.keys,triggerResponse.rt,triggerResponse.started,triggerResponse.stopped,globalTimer,actualStartTime,startTimingDiff,participantResponse.keys,participantResponse.started,participantResponse.stopped,image.started,image.stopped,fixationOutside.started,fixationOutside.stopped,fixationResponse.started,fixationResponse.stopped,fixationInside.started,fixationInside.stopped,participantResponse.rt,session,participant,date,expName,psychopyVersion,frameRate,
,,,,,,,,,,,,12.42449630000192,None,1,12.66226850000021,12.42449630000192,None,,,,,,,,,,,,,,,,,,,,,001,P017,2025_Mar_07_1551,ConditionRich,2021.2.3,59.93058839292068,
,,,,,,,,,,,,,,,,,,25.097787300001073,5,14.336578200000076,25.110497400000895,None,,,,,,,,,,,,,,,,001,P017,2025_Mar_07_1551,ConditionRich,2021.2.3,59.93058839292068,
0.0,4.0,0,0.0,Stimuli/Blank.png,0,0,0.0,0,0,0,0,,,,,,,,,,,,39.459178500001144,0.04719440000189934,0.04719440000189934,None,39.523182000000816,None,39.523182000000816,None,39.523182000000816,None,39.523182000000816,39.523182000000816,39.523182000000816,None,,001,P017,2025_Mar_07_1551,ConditionRich,2021.2.3,59.93058839292068,
4.0,4.75,11,0.75,Stimuli/P017/sun_bdzxsadvniuolmio.jpg,0,0,0.0,0,1,1,1,,,,,,,,,,,,,4.004210899998725,0.004210899998724926,None,43.476976199999626,43.476976199999626,43.476976199999626,43.476976199999626,43.476976199999626,43.476976199999626,43.476976199999626,43.476976199999626,43.476976199999626,43.476976199999626,,001,P017,2025_Mar_07_1551,ConditionRich,2021.2.3,59.93058839292068,
4.75,5.0,41,0.0,Stimuli/Blank.png,0,0,0.0,0,2,2,2,,,,,,,,,,,,,4.756601799999771,0.006601799999771174,None,44.24429410000084,44.24429410000084,44.24429410000084,44.24429410000084,44.24429410000084,44.24429410000084,44.24429410000084,44.24429410000084,44.24429410000084,44.24429410000084,,001,P017,2025_Mar_07_1551,ConditionRich,2021.2.3,59.93058839292068,
5.0,5.75,11,0.75,Stimuli/P017/sun_bdzxsadvniuolmio.jpg,0,0,0.0,0,3,3,3,,,,,,,,,,,,,5.020604800000001,0.020604800000000978,None,44.494231700002274,44.494231700002274,44.494231700002274,44.494231700002274,44.494231700002274,44.494231700002274,44.494231700002274,44.494231700002274,44.494231700002274,44.494231700002274,,001,P017,2025_Mar_07_1551,ConditionRich,2021.2.3,59.93058839292068,
5.75,6.0,41,0.0,Stimuli/Blank.png,0,0,0.0,0,4,4,4,,,,,,,,,,,,,5.756455700000515,0.006455700000515208,None,45.24491839999973,45.24491839999973,45.24491839999973,45.24491839999973,45.24491839999973,45.24491839999973,45.24491839999973,45.24491839999973,45.24491839999973,45.24491839999973,,001,P017,2025_Mar_07_1551,ConditionRich,2021.2.3,59.93058839292068,
6.0,6.75,11,0.75,Stimuli/P017/sun_bdzxsadvniuolmio.jpg,0,0,0.0,0,5,5,5,,,,,,,,,,,,,6.022144099999423,0.022144099999422906,None,45.495119899998826,45.495119899998826,45.495119899998826,45.495119899998826,45.495119899998826,45.495119899998826,45.495119899998826,45.495119899998826,45.495119899998826,45.495119899998826,,001,P017,2025_Mar_07_1551,ConditionRich,2021.2.3,59.93058839292068,
6.75,7.0,41,0.0,Stimuli/Blank.png,0,0,0.0,0,6,6,6,,,,,,,,,,,,,6.755903600002057,0.005903600002056919,None,46.229112500001065,46.229112500001065,46.229112500001065,46.229112500001065,46.229112500001065,46.229112500001065,46.229112500001065,46.229112500001065,46.229112500001065,46.229112500001065,,001,P017,2025_Mar_07_1551,ConditionRich,2021.2.3,59.93058839292068,
7.0,7.75,11,0.75,Stimuli/P017/sun_bdzxsadvniuolmio.jpg,0,0,0.0,0,7,7,7,,,,,,,,,,,,,7.006765500002075,0.006765500002074987,None,46.496023600000626,46.496023600000626,46.496023600000626,46.496023600000626,46.496023600000626,46.496023600000626,46.496023600000626,46.496023600000626,46.496023600000626,46.496023600000626,,001,P017,2025_Mar_07_1551,ConditionRich,2021.2.3,59.93058839292068,
7.75,8.0,41,0.0,Stimuli/Blank.png,0,0,0.0,0,8,8,8,,,,,,,,,,,,,7.773552599999675,0.023552599999675294,None,47.246662900000956,47.246662900000956,47.246662900000956,47.246662900000956,47.246662900000956,47.246662900000956,47.246662900000956,47.246662900000956,47.246662900000956,47.246662900000956,,001,P017,2025_Mar_07_1551,ConditionRich,2021.2.3,59.93058839292068,
8.0,8.75,20,0.75,Stimuli/P017/sun_buukivvfbfhosrng.jpg,0,0,0.0,0,9,9,9,,,,,,,,,,,,,8.007129900001019,0.007129900001018541,None,47.48020820000238,47.48020820000238,47.48020820000238,47.48020820000238,47.48020820000238,47.48020820000238,47.48020820000238,47.48020820000238,47.48020820000238,47.48020820000238,,001,P017,2025_Mar_07_1551,ConditionRich,2021.2.3,59.93058839292068,
8.75,9.0,41,0.0,Stimuli/Blank.png,0,0,0.0,0,10,10,10,,,,,,,,,,,,,8.757038800002192,0.007038800002192147,None,48.23086830000102,48.23086830000102,48.23086830000102,48.23086830000102,48.23086830000102,48.23086830000102,48.23086830000102,48.23086830000102,48.23086830000102,48.23086830000102,,001,P017,2025_Mar_07_1551,ConditionRich,2021.2.3,59.93058839292068,
9.0,9.75,20,0.75,Stimuli/P017/sun_buukivvfbfhosrng.jpg,0,0,0.0,0,11,11,11,,,,,,,,,,,,,9.00778419999915,0.007784199999150587,None,48.481097700001555,48.481097700001555,48.481097700001555,48.481097700001555,48.481097700001555,48.481097700001555,48.481097700001555,48.481097700001555,48.481097700001555,48.481097700001555,,001,P017,2025_Mar_07_1551,ConditionRich,2021.2.3,59.93058839292068,
9.75,10.0,41,0.0,Stimuli/Blank.png,0,0,0.0,0,12,12,12,,,,,,,,,,,,,9.758070800002315,0.008070800002315082,None,49.23175099999935,49.23175099999935,49.23175099999935,49.23175099999935,49.23175099999935,49.23175099999935,49.23175099999935,49.23175099999935,49.23175099999935,49.23175099999935,,001,P017,2025_Mar_07_1551,ConditionRich,2021.2.3,59.93058839292068,
10.0,10.75,20,0.75,Stimuli/P017/sun_buukivvfbfhosrng.jpg,0,0,0.0,0,13,13,13,,,,,,,,,,,,,10.008641500000522,0.008641500000521773,None,49.49868040000001,49.49868040000001,49.49868040000001,49.49868040000001,49.49868040000001,49.49868040000001,49.49868040000001,49.49868040000001,49.49868040000001,49.49868040000001,,001,P017,2025_Mar_07_1551,ConditionRich,2021.2.3,59.93058839292068,
10.75,11.0,41,0.0,Stimuli/Blank.png,0,0,0.0,0,14,14,14,,,,,,,,,,,,,10.775413800001843,0.0254138000018429,None,50.24932160000026,50.24932160000026,50.24932160000026,50.24932160000026,50.24932160000026,50.24932160000026,50.24932160000026,50.24932160000026,50.24932160000026,50.24932160000026,,001,P017,2025_Mar_07_1551,ConditionRich,2021.2.3,59.93058839292068,
11.0,11.75,20,0.75,Stimuli/P017/sun_buukivvfbfhosrng.jpg,0,0,0.0,0,15,15,15,,,,,,,,,,,,,11.009130499998719,0.009130499998718733,None,50.4829264,50.4829264,50.4829264,50.4829264,50.4829264,50.4829264,50.4829264,50.4829264,50.4829264,50.4829264,,001,P017,2025_Mar_07_1551,ConditionRich,2021.2.3,59.93058839292068,
11.75,12.0,41,0.0,Stimuli/Blank.png,0,0,0.0,0,16,16,16,,,,,,,,,,,,,11.76044610000099,0.010446100000990555,None,51.233535100000154,51.233535100000154,51.233535100000154,51.233535100000154,51.233535100000154,51.233535100000154,51.233535100000154,51.233535100000154,51.233535100000154,51.233535100000154,,001,P017,2025_Mar_07_1551,ConditionRich,2021.2.3,59.93058839292068,
12.0,12.75,13,0.75,Stimuli/P017/sun_bizqwyomkqigheyx.jpg,0,0,0.0,0,17,17,17,,,,,,,,,,,,,12.010492299999896,0.010492299999896204,None,51.48371330000009,51.48371330000009,51.48371330000009,51.48371330000009,51.48371330000009,51.48371330000009,51.48371330000009,51.48371330000009,51.48371330000009,51.48371330000009,,001,P017,2025_Mar_07_1551,ConditionRich,2021.2.3,59.93058839292068,
12.75,13.0,41,0.0,Stimuli/Blank.png,0,0,0.0,0,18,18,18,,,,,,,,,,,,,12.761900100002094,0.011900100002094405,None,52.234457499998825,52.234457499998825,52.234457499998825,52.234457499998825,52.234457499998825,52.234457499998825,52.234457499998825,52.234457499998825,52.234457499998825,52.234457499998825,,001,P017,2025_Mar_07_1551,ConditionRich,2021.2.3,59.93058839292068,
13.0,13.75,13,0.75,Stimuli/P017/sun_bizqwyomkqigheyx.jpg,0,0,0.0,0,19,19,19,,,,,,,,,,,,,13.011630799999693,0.011630799999693409,None,52.50135140000202,52.50135140000202,52.50135140000202,52.50135140000202,52.50135140000202,52.50135140000202,52.50135140000202,52.50135140000202,52.50135140000202,52.50135140000202,,001,P017,2025_Mar_07_1551,ConditionRich,2021.2.3,59.93058839292068,
13.75,14.0,41,0.0,Stimuli/Blank.png,0,0,0.0,0,20,20,20,,,,,,,,,,,,,13.781001800001832,0.031001800001831725,None,53.26866879999943,53.26866879999943,53.26866879999943,53.26866879999943,53.26866879999943,53.26866879999943,53.26866879999943,53.26866879999943,53.26866879999943,53.26866879999943,,001,P017,2025_Mar_07_1551,ConditionRich,2021.2.3,59.93058839292068,
14.0,14.75,13,0.75,Stimuli/P017/sun_bizqwyomkqigheyx.jpg,0,0,0.0,0,21,21,21,,,,,,,,,,,,,14.03106580000167,0.03106580000167014,None,53.51888440000039,53.51888440000039,53.51888440000039,53.51888440000039,53.51888440000039,53.51888440000039,53.51888440000039,53.51888440000039,53.51888440000039,53.51888440000039,,001,P017,2025_Mar_07_1551,ConditionRich,2021.2.3,59.93058839292068,
14.75,15.0,41,0.0,Stimuli/Blank.png,0,0,0.0,0,22,22,22,,,,,,,,,,,,,14.77973220000058,0.029732200000580633,None,54.25292350000018,54.25292350000018,54.25292350000018,54.25292350000018,54.25292350000018,54.25292350000018,54.25292350000018,54.25292350000018,54.25292350000018,54.25292350000018,,001,P017,2025_Mar_07_1551,ConditionRich,2021.2.3,59.93058839292068,
15.0,15.75,13,0.75,Stimuli/P017/sun_bizqwyomkqigheyx.jpg,0,0,0.0,0,23,23,23,,,,,,,,,,,,,15.012828999999329,0.012828999999328516,None,54.48639810000168,54.48639810000168,54.48639810000168,54.48639810000168,54.48639810000168,54.48639810000168,54.48639810000168,54.48639810000168,54.48639810000168,54.48639810000168,,001,P017,2025_Mar_07_1551,ConditionRich,2021.2.3,59.93058839292068,
15.75,16.0,41,0.0,Stimuli/Blank.png,0,0,0.0,0,24,24,24,,,,,,,,,,,,,15.76321100000132,0.013211000001319917,None,55.237057000002096,55.237057000002096,55.237057000002096,55.237057000002096,55.237057000002096,55.237057000002096,55.237057000002096,55.237057000002096,55.237057000002096,55.237057000002096,,001,P017,2025_Mar_07_1551,ConditionRich,2021.2.3,59.93058839292068,
16.0,16.75,31,0.75,Stimuli/P017/things_highchair_09s.jpg,0,0,0.0,0,25,25,25,,,,,,,,,,,,,16.013590300000942,0.01359030000094208,None,55.503951400001824,55.503951400001824,55.503951400001824,55.503951400001824,55.503951400001824,55.503951400001824,55.503951400001824,55.503951400001824,55.503951400001824,55.503951400001824,,001,P017,2025_Mar_07_1551,ConditionRich,2021.2.3,59.93058839292068,
16.75,17.0,41,0.0,Stimuli/Blank.png,0,0,0.0,0,26,26,26,,,,,,,,,,,,,16.782400799998868,0.032400799998868024,None,56.27133500000127,56.27133500000127,56.27133500000127,56.27133500000127,56.27133500000127,56.27133500000127,56.27133500000127,56.27133500000127,56.27133500000127,56.27133500000127,,001,P017,2025_Mar_07_1551,ConditionRich,2021.2.3,59.93058839292068,
17.0,17.75,31,0.75,Stimuli/P017/things_highchair_09s.jpg,0,0,0.0,0,27,27,27,,,,,,,,,,,,,17.01746230000208,0.017462300002080156,None,56.50486380000075,56.50486380000075,56.50486380000075,56.50486380000075,56.50486380000075,56.50486380000075,56.50486380000075,56.50486380000075,56.50486380000075,56.50486380000075,,001,P017,2025_Mar_07_1551,ConditionRich,2021.2.3,59.93058839292068,
17.75,18.0,41,0.0,Stimuli/Blank.png,0,0,0.0,0,28,28,28,,,,,,,,,,,,,17.7660117000014,0.01601170000139973,None,57.238843400002224,57.238843400002224,57.238843400002224,57.238843400002224,57.238843400002224,57.238843400002224,57.238843400002224,57.238843400002224,57.238843400002224,57.238843400002224,,001,P017,2025_Mar_07_1551,ConditionRich,2021.2.3,59.93058839292068,
18.0,18.75,31,0.75,Stimuli/P017/things_highchair_09s.jpg,0,0,0.0,0,29,29,29,,,,,,,,,,,,,18.0016758999991,0.0016758999990997836,None,57.48904820000098,57.48904820000098,57.48904820000098,57.48904820000098,57.48904820000098,57.48904820000098,57.48904820000098,57.48904820000098,57.48904820000098,57.48904820000098,,001,P017,2025_Mar_07_1551,ConditionRich,2021.2.3,59.93058839292068,
18.75,19.0,41,0.0,Stimuli/Blank.png,0,0,0.0,0,30,30,30,,,,,,,,,,,,,18.766905500000576,0.016905500000575557,None,58.239730000001146,58.239730000001146,58.239730000001146,58.239730000001146,58.239730000001146,58.239730000001146,58.239730000001146,58.239730000001146,58.239730000001146,58.239730000001146,,001,P017,2025_Mar_07_1551,ConditionRich,2021.2.3,59.93058839292068,
19.0,19.75,31,0.75,Stimuli/P017/things_highchair_09s.jpg,0,0,0.0,0,31,31,31,,,,,,,,,,,,,19.00226300000213,0.002263000002130866,None,58.489901299999474,58.489901299999474,58.489901299999474,58.489901299999474,58.489901299999474,58.489901299999474,58.489901299999474,58.489901299999474,58.489901299999474,58.489901299999474,,001,P017,2025_Mar_07_1551,ConditionRich,2021.2.3,59.93058839292068,
19.75,20.0,41,0.0,Stimuli/Blank.png,0,0,0.0,0,32,32,32,,,,,,,,,,,,,19.76745529999971,0.017455299999710405,None,59.24056439999913,59.24056439999913,59.24056439999913,59.24056439999913,59.24056439999913,59.24056439999913,59.24056439999913,59.24056439999913,59.24056439999913,59.24056439999913,,001,P017,2025_Mar_07_1551,ConditionRich,2021.2.3,59.93058839292068,
20.0,20.75,8,0.75,Stimuli/P017/sun_axsmqyyvebrcuhkn.jpg,0,0,0.0,0,33,33,33,,,,,,,,,,,,,20.0009656000002,0.000965600000199629,None,59.47410110000055,59.47410110000055,59.47410110000055,59.47410110000055,59.47410110000055,59.47410110000055,59.47410110000055,59.47410110000055,59.47410110000055,59.47410110000055,,001,P017,2025_Mar_07_1551,ConditionRich,2021.2.3,59.93058839292068,
20.75,21.0,41,0.0,Stimuli/Blank.png,0,0,0.0,0,34,34,34,,,,,,,,,,,,,20.751871799999208,0.0018717999992077239,None,60.224825500001316,60.224825500001316,60.224825500001316,60.224825500001316,60.224825500001316,60.224825500001316,60.224825500001316,60.224825500001316,60.224825500001316,60.224825500001316,,001,P017,2025_Mar_07_1551,ConditionRich,2021.2.3,59.93058839292068,
21.0,21.75,8,0.75,Stimuli/P017/sun_axsmqyyvebrcuhkn.jpg,1,0,0.75,0,35,35,35,,,,,,,,,,,,,21.003005499998835,0.0030054999988351483,1,60.491702300001634,60.491702300001634,60.491702300001634,60.491702300001634,60.491702300001634,60.491702300001634,60.491702300001634,61.22572439999931,60.491702300001634,60.491702300001634,0.3650941000014427,001,P017,2025_Mar_07_1551,ConditionRich,2021.2.3,59.93058839292068,
21.75,22.0,41,0.0,Stimuli/Blank.png,0,0,0.0,0,36,36,36,,,,,,,,,,,,,21.76951410000038,0.019514100000378676,None,61.24237709999943,61.24237709999943,61.24237709999943,61.24237709999943,61.24237709999943,61.24237709999943,61.24237709999943,61.24237709999943,61.24237709999943,61.24237709999943,,001,P017,2025_Mar_07_1551,ConditionRich,2021.2.3,59.93058839292068,
22.0,22.75,8,0.75,Stimuli/P017/sun_axsmqyyvebrcuhkn.jpg,0,0,0.0,0,37,37,37,,,,,,,,,,,,,22.002311100000952,0.0023111000009521376,None,61.475909000000684,61.475909000000684,61.475909000000684,61.475909000000684,61.475909000000684,61.475909000000684,61.475909000000684,61.475909000000684,61.475909000000684,61.475909000000684,,001,P017,2025_Mar_07_1551,ConditionRich,2021.2.3,59.93058839292068,
22.75,23.0,41,0.0,Stimuli/Blank.png,0,0,0.0,0,38,38,38,,,,,,,,,,,,,22.753255399999034,0.0032553999990341254,None,62.2265733000022,62.2265733000022,62.2265733000022,62.2265733000022,62.2265733000022,62.2265733000022,62.2265733000022,62.2265733000022,62.2265733000022,62.2265733000022,,001,P017,2025_Mar_07_1551,ConditionRich,2021.2.3,59.93058839292068,
23.0,23.75,8,0.75,Stimuli/P017/sun_axsmqyyvebrcuhkn.jpg,0,0,0.0,0,39,39,39,,,,,,,,,,,,,23.003763799999433,0.003763799999433104,None,62.49349540000185,62.49349540000185,62.49349540000185,62.49349540000185,62.49349540000185,62.49349540000185,62.49349540000185,62.49349540000185,62.49349540000185,62.49349540000185,,001,P017,2025_Mar_07_1551,ConditionRich,2021.2.3,59.93058839292068,
23.75,24.0,41,0.0,Stimuli/Blank.png,0,0,0.0,0,40,40,40,,,,,,,,,,,,,23.771588800002064,0.02158880000206409,None,63.2441476999993,63.2441476999993,63.2441476999993,63.2441476999993,63.2441476999993,63.2441476999993,63.2441476999993,63.2441476999993,63.2441476999993,63.2441476999993,,001,P017,2025_Mar_07_1551,ConditionRich,2021.2.3,59.93058839292068,
24.0,24.75,36,0.75,Stimuli/P017/things_nest_09s.jpg,0,0,0.0,0,41,41,41,,,,,,,,,,,,,24.00613290000183,0.006132900001830421,None,63.49437690000195,63.49437690000195,63.49437690000195,63.49437690000195,63.49437690000195,63.49437690000195,63.49437690000195,63.49437690000195,63.49437690000195,63.49437690000195,,001,P017,2025_Mar_07_1551,ConditionRich,2021.2.3,59.93058839292068,
24.75,25.0,41,0.0,Stimuli/Blank.png,0,0,0.0,0,42,42,42,,,,,,,,,,,,,24.77225460000045,0.02225460000045132,None,64.26169170000139,64.26169170000139,64.26169170000139,64.26169170000139,64.26169170000139,64.26169170000139,64.26169170000139,64.26169170000139,64.26169170000139,64.26169170000139,,001,P017,2025_Mar_07_1551,ConditionRich,2021.2.3,59.93058839292068,
25.0,25.75,36,0.75,Stimuli/P017/things_nest_09s.jpg,0,0,0.0,0,43,43,43,,,,,,,,,,,,,25.022172500001034,0.022172500001033768,None,64.49524600000223,64.49524600000223,64.49524600000223,64.49524600000223,64.49524600000223,64.49524600000223,64.49524600000223,64.49524600000223,64.49524600000223,64.49524600000223,,001,P017,2025_Mar_07_1551,ConditionRich,2021.2.3,59.93058839292068,
25.75,26.0,41,0.0,Stimuli/Blank.png,0,0,0.0,0,44,44,44,,,,,,,,,,,,,25.755907200000365,0.005907200000365265,None,65.2292168999993,65.2292168999993,65.2292168999993,65.2292168999993,65.2292168999993,65.2292168999993,65.2292168999993,65.2292168999993,65.2292168999993,65.2292168999993,,001,P017,2025_Mar_07_1551,ConditionRich,2021.2.3,59.93058839292068,
26.0,26.75,36,0.75,Stimuli/P017/things_nest_09s.jpg,0,0,0.0,0,45,45,45,,,,,,,,,,,,,26.006141000001662,0.006141000001662178,None,65.47944719999941,65.47944719999941,65.47944719999941,65.47944719999941,65.47944719999941,65.47944719999941,65.47944719999941,65.47944719999941,65.47944719999941,65.47944719999941,,001,P017,2025_Mar_07_1551,ConditionRich,2021.2.3,59.93058839292068,
26.75,27.0,41,0.0,Stimuli/Blank.png,0,0,0.0,0,46,46,46,,,,,,,,,,,,,26.75777840000228,0.00777840000228025,None,66.24681630000123,66.24681630000123,66.24681630000123,66.24681630000123,66.24681630000123,66.24681630000123,66.24681630000123,66.24681630000123,66.24681630000123,66.24681630000123,,001,P017,2025_Mar_07_1551,ConditionRich,2021.2.3,59.93058839292068,
27.0,27.75,36,0.75,Stimuli/P017/things_nest_09s.jpg,0,0,0.0,0,47,47,47,,,,,,,,,,,,,27.026301400001103,0.026301400001102593,None,66.51369369999884,66.51369369999884,66.51369369999884,66.51369369999884,66.51369369999884,66.51369369999884,66.51369369999884,66.51369369999884,66.51369369999884,66.51369369999884,,001,P017,2025_Mar_07_1551,ConditionRich,2021.2.3,59.93058839292068,
27.75,28.0,41,0.0,Stimuli/Blank.png,0,0,0.0,0,48,48,48,,,,,,,,,,,,,27.774146600000677,0.0241466000006767,None,67.24767960000099,67.24767960000099,67.24767960000099,67.24767960000099,67.24767960000099,67.24767960000099,67.24767960000099,67.24767960000099,67.24767960000099,67.24767960000099,,001,P017,2025_Mar_07_1551,ConditionRich,2021.2.3,59.93058839292068,
28.0,28.75,34,0.75,Stimuli/P017/things_llama_09s.jpg,0,0,0.0,0,49,49,49,,,,,,,,,,,,,28.008062299999438,0.008062299999437528,None,67.48122119999971,67.48122119999971,67.48122119999971,67.48122119999971,67.48122119999971,67.48122119999971,67.48122119999971,67.48122119999971,67.48122119999971,67.48122119999971,,001,P017,2025_Mar_07_1551,ConditionRich,2021.2.3,59.93058839292068,
28.75,29.0,41,0.0,Stimuli/Blank.png,0,0,0.0,0,50,50,50,,,,,,,,,,,,,28.758700800000952,0.008700800000951858,None,68.23187370000232,68.23187370000232,68.23187370000232,68.23187370000232,68.23187370000232,68.23187370000232,68.23187370000232,68.23187370000232,68.23187370000232,68.23187370000232,,001,P017,2025_Mar_07_1551,ConditionRich,2021.2.3,59.93058839292068,
29.0,29.75,34,0.75,Stimuli/P017/things_llama_09s.jpg,0,0,0.0,0,51,51,51,,,,,,,,,,,,,29.008948200000304,0.008948200000304496,None,68.48209900000074,68.48209900000074,68.48209900000074,68.48209900000074,68.48209900000074,68.48209900000074,68.48209900000074,68.48209900000074,68.48209900000074,68.48209900000074,,001,P017,2025_Mar_07_1551,ConditionRich,2021.2.3,59.93058839292068,
29.75,30.0,41,0.0,Stimuli/Blank.png,0,0,0.0,0,52,52,52,,,,,,,,,,,,,29.761490299999423,0.01149029999942286,None,69.24944959999993,69.24944959999993,69.24944959999993,69.24944959999993,69.24944959999993,69.24944959999993,69.24944959999993,69.24944959999993,69.24944959999993,69.24944959999993,,001,P017,2025_Mar_07_1551,ConditionRich,2021.2.3,59.93058839292068,
30.0,30.75,34,0.75,Stimuli/P017/things_llama_09s.jpg,0,0,0.0,0,53,53,53,,,,,,,,,,,,,30.02590390000114,0.025903900001139846,None,69.49968090000039,69.49968090000039,69.49968090000039,69.49968090000039,69.49968090000039,69.49968090000039,69.49968090000039,69.49968090000039,69.49968090000039,69.49968090000039,,001,P017,2025_Mar_07_1551,ConditionRich,2021.2.3,59.93058839292068,
30.75,31.0,41,0.0,Stimuli/Blank.png,0,0,0.0,0,54,54,54,,,,,,,,,,,,,30.76123480000024,0.011234800000238465,None,70.2338106999996,70.2338106999996,70.2338106999996,70.2338106999996,70.2338106999996,70.2338106999996,70.2338106999996,70.2338106999996,70.2338106999996,70.2338106999996,,001,P017,2025_Mar_07_1551,ConditionRich,2021.2.3,59.93058839292068,
31.0,31.75,34,0.75,Stimuli/P017/things_llama_09s.jpg,0,0,0.0,0,55,55,55,,,,,,,,,,,,,31.010075199999847,0.010075199999846518,None,70.48386889999892,70.48386889999892,70.48386889999892,70.48386889999892,70.48386889999892,70.48386889999892,70.48386889999892,70.48386889999892,70.48386889999892,70.48386889999892,,001,P017,2025_Mar_07_1551,ConditionRich,2021.2.3,59.93058839292068,
31.75,32.0,41,0.0,Stimuli/Blank.png,0,0,0.0,0,56,56,56,,,,,,,,,,,,,31.761381299998902,0.01138129999890225,None,71.23452940000061,71.23452940000061,71.23452940000061,71.23452940000061,71.23452940000061,71.23452940000061,71.23452940000061,71.23452940000061,71.23452940000061,71.23452940000061,,001,P017,2025_Mar_07_1551,ConditionRich,2021.2.3,59.93058839292068,
32.0,32.75,1,0.75,Stimuli/P017/sun_aawmwfqqbzauhqkb.jpg,0,0,0.0,0,57,57,57,,,,,,,,,,,,,32.01155479999943,0.011554799999430543,None,71.48474469999928,71.48474469999928,71.48474469999928,71.48474469999928,71.48474469999928,71.48474469999928,71.48474469999928,71.48474469999928,71.48474469999928,71.48474469999928,,001,P017,2025_Mar_07_1551,ConditionRich,2021.2.3,59.93058839292068,
32.75,33.0,41,0.0,Stimuli/Blank.png,0,0,0.0,0,58,58,58,,,,,,,,,,,,,32.762831600000936,0.012831600000936305,None,72.23541340000156,72.23541340000156,72.23541340000156,72.23541340000156,72.23541340000156,72.23541340000156,72.23541340000156,72.23541340000156,72.23541340000156,72.23541340000156,,001,P017,2025_Mar_07_1551,ConditionRich,2021.2.3,59.93058839292068,
33.0,33.75,1,0.75,Stimuli/P017/sun_aawmwfqqbzauhqkb.jpg,0,0,0.0,0,59,59,59,,,,,,,,,,,,,33.01239050000004,0.012390500000037719,None,72.48562970000057,72.48562970000057,72.48562970000057,72.48562970000057,72.48562970000057,72.48562970000057,72.48562970000057,72.48562970000057,72.48562970000057,72.48562970000057,,001,P017,2025_Mar_07_1551,ConditionRich,2021.2.3,59.93058839292068,
33.75,34.0,41,0.0,Stimuli/Blank.png,0,0,0.0,0,60,60,60,,,,,,,,,,,,,33.762623200000235,0.012623200000234647,None,73.23630559999947,73.23630559999947,73.23630559999947,73.23630559999947,73.23630559999947,73.23630559999947,73.23630559999947,73.23630559999947,73.23630559999947,73.23630559999947,,001,P017,2025_Mar_07_1551,ConditionRich,2021.2.3,59.93058839292068,
34.0,34.75,1,0.75,Stimuli/P017/sun_aawmwfqqbzauhqkb.jpg,0,0,0.0,0,61,61,61,,,,,,,,,,,,,34.0136777000007,0.013677700000698678,None,73.48652410000068,73.48652410000068,73.48652410000068,73.48652410000068,73.48652410000068,73.48652410000068,73.48652410000068,73.48652410000068,73.48652410000068,73.48652410000068,,001,P017,2025_Mar_07_1551,ConditionRich,2021.2.3,59.93058839292068,
34.75,35.0,41,0.0,Stimuli/Blank.png,0,0,0.0,0,62,62,62,,,,,,,,,,,,,34.76341460000185,0.013414600001851795,None,74.23718120000194,74.23718120000194,74.23718120000194,74.23718120000194,74.23718120000194,74.23718120000194,74.23718120000194,74.23718120000194,74.23718120000194,74.23718120000194,,001,P017,2025_Mar_07_1551,ConditionRich,2021.2.3,59.93058839292068,
35.0,35.75,1,0.75,Stimuli/P017/sun_aawmwfqqbzauhqkb.jpg,0,0,0.0,0,63,63,63,,,,,,,,,,,,,35.01435019999917,0.01435019999917131,None,74.50409850000142,74.50409850000142,74.50409850000142,74.50409850000142,74.50409850000142,74.50409850000142,74.50409850000142,74.50409850000142,74.50409850000142,74.50409850000142,,001,P017,2025_Mar_07_1551,ConditionRich,2021.2.3,59.93058839292068,
35.75,36.0,41,0.0,Stimuli/Blank.png,0,0,0.0,0,64,64,64,,,,,,,,,,,,,35.78162610000072,0.031626100000721635,None,75.25472140000056,75.25472140000056,75.25472140000056,75.25472140000056,75.25472140000056,75.25472140000056,75.25472140000056,75.25472140000056,75.25472140000056,75.25472140000056,,001,P017,2025_Mar_07_1551,ConditionRich,2021.2.3,59.93058839292068,
36.0,36.75,14,0.75,Stimuli/P017/sun_bljpqnfmmqkjsfvx.jpg,0,0,0.0,0,65,65,65,,,,,,,,,,,,,36.01711200000136,0.017112000001361594,None,75.50499730000229,75.50499730000229,75.50499730000229,75.50499730000229,75.50499730000229,75.50499730000229,75.50499730000229,75.50499730000229,75.50499730000229,75.50499730000229,,001,P017,2025_Mar_07_1551,ConditionRich,2021.2.3,59.93058839292068,
36.75,37.0,41,0.0,Stimuli/Blank.png,0,0,0.0,0,66,66,66,,,,,,,,,,,,,36.76635600000009,0.01635600000008708,None,76.23896349999995,76.23896349999995,76.23896349999995,76.23896349999995,76.23896349999995,76.23896349999995,76.23896349999995,76.23896349999995,76.23896349999995,76.23896349999995,,001,P017,2025_Mar_07_1551,ConditionRich,2021.2.3,59.93058839292068,
37.0,37.75,14,0.75,Stimuli/P017/sun_bljpqnfmmqkjsfvx.jpg,0,0,0.0,0,67,67,67,,,,,,,,,,,,,36.99966080000013,-0.0003391999998711981,None,76.48917459999939,76.48917459999939,76.48917459999939,76.48917459999939,76.48917459999939,76.48917459999939,76.48917459999939,76.48917459999939,76.48917459999939,76.48917459999939,,001,P017,2025_Mar_07_1551,ConditionRich,2021.2.3,59.93058839292068,
37.75,38.0,41,0.0,Stimuli/Blank.png,0,0,0.0,0,68,68,68,,,,,,,,,,,,,37.76685749999888,0.016857499998877756,None,77.23982980000073,77.23982980000073,77.23982980000073,77.23982980000073,77.23982980000073,77.23982980000073,77.23982980000073,77.23982980000073,77.23982980000073,77.23982980000073,,001,P017,2025_Mar_07_1551,ConditionRich,2021.2.3,59.93058839292068,
38.0,38.75,14,0.75,Stimuli/P017/sun_bljpqnfmmqkjsfvx.jpg,1,0,0.75,0,69,69,69,,,,,,,,,,,,,38.0016586999991,0.0016586999990977347,1,77.49006390000068,77.49006390000068,77.49006390000068,77.49006390000068,77.49006390000068,77.49006390000068,77.49006390000068,78.2240191000019,77.49006390000068,77.49006390000068,0.44966180000119493,001,P017,2025_Mar_07_1551,ConditionRich,2021.2.3,59.93058839292068,
38.75,39.0,41,0.0,Stimuli/Blank.png,0,0,0.0,0,70,70,70,,,,,,,,,,,,,38.76763940000092,0.017639400000916794,None,78.24068640000041,78.24068640000041,78.24068640000041,78.24068640000041,78.24068640000041,78.24068640000041,78.24068640000041,78.24068640000041,78.24068640000041,78.24068640000041,,001,P017,2025_Mar_07_1551,ConditionRich,2021.2.3,59.93058839292068,
39.0,39.75,14,0.75,Stimuli/P017/sun_bljpqnfmmqkjsfvx.jpg,0,0,0.0,0,71,71,71,,,,,,,,,,,,,39.00045030000183,0.00045030000183032826,None,78.47425590000057,78.47425590000057,78.47425590000057,78.47425590000057,78.47425590000057,78.47425590000057,78.47425590000057,78.47425590000057,78.47425590000057,78.47425590000057,,001,P017,2025_Mar_07_1551,ConditionRich,2021.2.3,59.93058839292068,
39.75,40.0,41,0.0,Stimuli/Blank.png,0,0,0.0,0,72,72,72,,,,,,,,,,,,,39.751998300002015,0.00199830000201473,None,79.22491690000243,79.22491690000243,79.22491690000243,79.22491690000243,79.22491690000243,79.22491690000243,79.22491690000243,79.22491690000243,79.22491690000243,79.22491690000243,,001,P017,2025_Mar_07_1551,ConditionRich,2021.2.3,59.93058839292068,
40.0,40.75,12,0.75,Stimuli/P017/sun_bhvaiabdgxjuwoth.jpg,0,0,0.0,0,73,73,73,,,,,,,,,,,,,40.00152639999942,0.0015263999994203914,None,79.47514690000025,79.47514690000025,79.47514690000025,79.47514690000025,79.47514690000025,79.47514690000025,79.47514690000025,79.47514690000025,79.47514690000025,79.47514690000025,,001,P017,2025_Mar_07_1551,ConditionRich,2021.2.3,59.93058839292068,
40.75,41.0,41,0.0,Stimuli/Blank.png,0,0,0.0,0,74,74,74,,,,,,,,,,,,,40.75296829999934,0.002968299999338342,None,80.22583990000203,80.22583990000203,80.22583990000203,80.22583990000203,80.22583990000203,80.22583990000203,80.22583990000203,80.22583990000203,80.22583990000203,80.22583990000203,,001,P017,2025_Mar_07_1551,ConditionRich,2021.2.3,59.93058839292068,
41.0,41.75,12,0.75,Stimuli/P017/sun_bhvaiabdgxjuwoth.jpg,0,0,0.0,0,75,75,75,,,,,,,,,,,,,41.002241300000605,0.0022413000006054062,None,80.4760380000007,80.4760380000007,80.4760380000007,80.4760380000007,80.4760380000007,80.4760380000007,80.4760380000007,80.4760380000007,80.4760380000007,80.4760380000007,,001,P017,2025_Mar_07_1551,ConditionRich,2021.2.3,59.93058839292068,
41.75,42.0,41,0.0,Stimuli/Blank.png,0,0,0.0,0,76,76,76,,,,,,,,,,,,,41.75316229999953,0.00316229999953066,None,81.2267752000007,81.2267752000007,81.2267752000007,81.2267752000007,81.2267752000007,81.2267752000007,81.2267752000007,81.2267752000007,81.2267752000007,81.2267752000007,,001,P017,2025_Mar_07_1551,ConditionRich,2021.2.3,59.93058839292068,
42.0,42.75,12,0.75,Stimuli/P017/sun_bhvaiabdgxjuwoth.jpg,0,0,0.0,0,77,77,77,,,,,,,,,,,,,42.00317720000021,0.003177200000209268,None,81.49361259999932,81.49361259999932,81.49361259999932,81.49361259999932,81.49361259999932,81.49361259999932,81.49361259999932,81.49361259999932,81.49361259999932,81.49361259999932,,001,P017,2025_Mar_07_1551,ConditionRich,2021.2.3,59.93058839292068,
42.75,43.0,41,0.0,Stimuli/Blank.png,0,0,0.0,0,78,78,78,,,,,,,,,,,,,42.77186739999888,0.02186739999888232,None,82.24427629999991,82.24427629999991,82.24427629999991,82.24427629999991,82.24427629999991,82.24427629999991,82.24427629999991,82.24427629999991,82.24427629999991,82.24427629999991,,001,P017,2025_Mar_07_1551,ConditionRich,2021.2.3,59.93058839292068,
43.0,43.75,12,0.75,Stimuli/P017/sun_bhvaiabdgxjuwoth.jpg,0,0,0.0,0,79,79,79,,,,,,,,,,,,,43.00598650000029,0.005986500000290107,None,82.49449549999918,82.49449549999918,82.49449549999918,82.49449549999918,82.49449549999918,82.49449549999918,82.49449549999918,82.49449549999918,82.49449549999918,82.49449549999918,,001,P017,2025_Mar_07_1551,ConditionRich,2021.2.3,59.93058839292068,
43.75,44.0,41,0.0,Stimuli/Blank.png,0,0,0.0,0,80,80,80,,,,,,,,,,,,,43.7721832999996,0.022183299999596784,None,83.24517389999892,83.24517389999892,83.24517389999892,83.24517389999892,83.24517389999892,83.24517389999892,83.24517389999892,83.24517389999892,83.24517389999892,83.24517389999892,,001,P017,2025_Mar_07_1551,ConditionRich,2021.2.3,59.93058839292068,
44.0,44.75,7,0.75,Stimuli/P017/sun_auadhqmfjsjtjcue.jpg,1,0,0.75,0,81,81,81,,,,,,,,,,,,,44.00477210000099,0.004772100000991486,1,83.4786778000016,83.4786778000016,83.4786778000016,83.4786778000016,83.4786778000016,83.4786778000016,83.4786778000016,84.21265730000232,83.4786778000016,83.4786778000016,0.48812959999850136,001,P017,2025_Mar_07_1551,ConditionRich,2021.2.3,59.93058839292068,
44.75,45.0,41,0.0,Stimuli/Blank.png,0,0,0.0,0,82,82,82,,,,,,,,,,,,,44.75556140000117,0.005561400001170114,None,84.22934990000067,84.22934990000067,84.22934990000067,84.22934990000067,84.22934990000067,84.22934990000067,84.22934990000067,84.22934990000067,84.22934990000067,84.22934990000067,,001,P017,2025_Mar_07_1551,ConditionRich,2021.2.3,59.93058839292068,
45.0,45.75,7,0.75,Stimuli/P017/sun_auadhqmfjsjtjcue.jpg,0,0,0.0,0,83,83,83,,,,,,,,,,,,,45.00661939999918,0.0066193999991810415,None,84.47956820000036,84.47956820000036,84.47956820000036,84.47956820000036,84.47956820000036,84.47956820000036,84.47956820000036,84.47956820000036,84.47956820000036,84.47956820000036,,001,P017,2025_Mar_07_1551,ConditionRich,2021.2.3,59.93058839292068,
45.75,46.0,41,0.0,Stimuli/Blank.png,0,0,0.0,0,84,84,84,,,,,,,,,,,,,45.75675880000199,0.006758800001989584,None,85.23023420000027,85.23023420000027,85.23023420000027,85.23023420000027,85.23023420000027,85.23023420000027,85.23023420000027,85.23023420000027,85.23023420000027,85.23023420000027,,001,P017,2025_Mar_07_1551,ConditionRich,2021.2.3,59.93058839292068,
46.0,46.75,7,0.75,Stimuli/P017/sun_auadhqmfjsjtjcue.jpg,0,0,0.0,0,85,85,85,,,,,,,,,,,,,46.00668890000088,0.006688900000881404,None,85.48045130000173,85.48045130000173,85.48045130000173,85.48045130000173,85.48045130000173,85.48045130000173,85.48045130000173,85.48045130000173,85.48045130000173,85.48045130000173,,001,P017,2025_Mar_07_1551,ConditionRich,2021.2.3,59.93058839292068,
46.75,47.0,41,0.0,Stimuli/Blank.png,0,0,0.0,0,86,86,86,,,,,,,,,,,,,46.75721469999917,0.007214699999167351,None,86.23111599999902,86.23111599999902,86.23111599999902,86.23111599999902,86.23111599999902,86.23111599999902,86.23111599999902,86.23111599999902,86.23111599999902,86.23111599999902,,001,P017,2025_Mar_07_1551,ConditionRich,2021.2.3,59.93058839292068,
47.0,47.75,7,0.75,Stimuli/P017/sun_auadhqmfjsjtjcue.jpg,0,0,0.0,0,87,87,87,,,,,,,,,,,,,47.00741890000063,0.007418900000629947,None,86.48133890000099,86.48133890000099,86.48133890000099,86.48133890000099,86.48133890000099,86.48133890000099,86.48133890000099,86.48133890000099,86.48133890000099,86.48133890000099,,001,P017,2025_Mar_07_1551,ConditionRich,2021.2.3,59.93058839292068,
47.75,48.0,41,0.0,Stimuli/Blank.png,0,0,0.0,0,88,88,88,,,,,,,,,,,,,47.762097599999834,0.01209759999983362,None,87.24869079999917,87.24869079999917,87.24869079999917,87.24869079999917,87.24869079999917,87.24869079999917,87.24869079999917,87.24869079999917,87.24869079999917,87.24869079999917,,001,P017,2025_Mar_07_1551,ConditionRich,2021.2.3,59.93058839292068,
48.0,48.75,30,0.75,Stimuli/P017/things_girl_09s.jpg,0,0,0.0,0,89,89,89,,,,,,,,,,,,,48.02517760000046,0.025177600000461098,None,87.53226460000224,87.53226460000224,87.53226460000224,87.53226460000224,87.53226460000224,87.53226460000224,87.53226460000224,87.53226460000224,87.53226460000224,87.53226460000224,,001,P017,2025_Mar_07_1551,ConditionRich,2021.2.3,59.93058839292068,
48.75,49.0,41,0.0,Stimuli/Blank.png,0,0,0.0,0,90,90,90,,,,,,,,,,,,,48.79353999999876,0.043539999998756684,None,88.28302370000165,88.28302370000165,88.28302370000165,88.28302370000165,88.28302370000165,88.28302370000165,88.28302370000165,88.28302370000165,88.28302370000165,88.28302370000165,,001,P017,2025_Mar_07_1551,ConditionRich,2021.2.3,59.93058839292068,
49.0,49.75,30,0.75,Stimuli/P017/things_girl_09s.jpg,0,0,0.0,0,91,91,91,,,,,,,,,,,,,49.02675520000048,0.026755200000479817,None,88.51649710000129,88.51649710000129,88.51649710000129,88.51649710000129,88.51649710000129,88.51649710000129,88.51649710000129,88.51649710000129,88.51649710000129,88.51649710000129,,001,P017,2025_Mar_07_1551,ConditionRich,2021.2.3,59.93058839292068,
49.75,50.0,41,0.0,Stimuli/Blank.png,0,0,0.0,0,92,92,92,,,,,,,,,,,,,49.777377099999285,0.027377099999284837,None,89.25045150000005,89.25045150000005,89.25045150000005,89.25045150000005,89.25045150000005,89.25045150000005,89.25045150000005,89.25045150000005,89.25045150000005,89.25045150000005,,001,P017,2025_Mar_07_1551,ConditionRich,2021.2.3,59.93058839292068,
50.0,50.75,30,0.75,Stimuli/P017/things_girl_09s.jpg,0,0,0.0,0,93,93,93,,,,,,,,,,,,,50.011000700000295,0.011000700000295183,None,89.50067069999932,89.50067069999932,89.50067069999932,89.50067069999932,89.50067069999932,89.50067069999932,89.50067069999932,89.50067069999932,89.50067069999932,89.50067069999932,,001,P017,2025_Mar_07_1551,ConditionRich,2021.2.3,59.93058839292068,
50.75,51.0,41,0.0,Stimuli/Blank.png,0,0,0.0,0,94,94,94,,,,,,,,,,,,,50.77759860000151,0.02759860000151093,None,90.25133350000033,90.25133350000033,90.25133350000033,90.25133350000033,90.25133350000033,90.25133350000033,90.25133350000033,90.25133350000033,90.25133350000033,90.25133350000033,,001,P017,2025_Mar_07_1551,ConditionRich,2021.2.3,59.93058839292068,
51.0,51.75,30,0.75,Stimuli/P017/things_girl_09s.jpg,0,0,0.0,0,95,95,95,,,,,,,,,,,,,51.01107140000022,0.011071400000219,None,90.48487029999887,90.48487029999887,90.48487029999887,90.48487029999887,90.48487029999887,90.48487029999887,90.48487029999887,90.48487029999887,90.48487029999887,90.48487029999887,,001,P017,2025_Mar_07_1551,ConditionRich,2021.2.3,59.93058839292068,
51.75,52.0,41,0.0,Stimuli/Blank.png,0,0,0.0,0,96,96,96,,,,,,,,,,,,,51.762166100001195,0.012166100001195446,None,91.23553240000183,91.23553240000183,91.23553240000183,91.23553240000183,91.23553240000183,91.23553240000183,91.23553240000183,91.23553240000183,91.23553240000183,91.23553240000183,,001,P017,2025_Mar_07_1551,ConditionRich,2021.2.3,59.93058839292068,
52.0,52.75,9,0.75,Stimuli/P017/sun_ayidxslzurdumeps.jpg,0,0,0.0,0,97,97,97,,,,,,,,,,,,,52.01215030000094,0.012150300000939751,None,91.50246510000215,91.50246510000215,91.50246510000215,91.50246510000215,91.50246510000215,91.50246510000215,91.50246510000215,91.50246510000215,91.50246510000215,91.50246510000215,,001,P017,2025_Mar_07_1551,ConditionRich,2021.2.3,59.93058839292068,
52.75,53.0,41,0.0,Stimuli/Blank.png,0,0,0.0,0,98,98,98,,,,,,,,,,,,,52.780002600000444,0.030002600000443636,None,92.25311599999986,92.25311599999986,92.25311599999986,92.25311599999986,92.25311599999986,92.25311599999986,92.25311599999986,92.25311599999986,92.25311599999986,92.25311599999986,,001,P017,2025_Mar_07_1551,ConditionRich,2021.2.3,59.93058839292068,
53.0,53.75,9,0.75,Stimuli/P017/sun_ayidxslzurdumeps.jpg,0,0,0.0,0,99,99,99,,,,,,,,,,,,,53.01313510000182,0.0131351000018185,None,92.50333379999938,92.50333379999938,92.50333379999938,92.50333379999938,92.50333379999938,92.50333379999938,92.50333379999938,92.50333379999938,92.50333379999938,92.50333379999938,,001,P017,2025_Mar_07_1551,ConditionRich,2021.2.3,59.93058839292068,
53.75,54.0,41,0.0,Stimuli/Blank.png,0,0,0.0,0,100,100,100,,,,,,,,,,,,,53.78118600000016,0.031186000000161584,None,93.25399119999929,93.25399119999929,93.25399119999929,93.25399119999929,93.25399119999929,93.25399119999929,93.25399119999929,93.25399119999929,93.25399119999929,93.25399119999929,,001,P017,2025_Mar_07_1551,ConditionRich,2021.2.3,59.93058839292068,
54.0,54.75,9,0.75,Stimuli/P017/sun_ayidxslzurdumeps.jpg,0,0,0.0,0,101,101,101,,,,,,,,,,,,,54.014552799999365,0.014552799999364652,None,93.48752370000147,93.48752370000147,93.48752370000147,93.48752370000147,93.48752370000147,93.48752370000147,93.48752370000147,93.48752370000147,93.48752370000147,93.48752370000147,,001,P017,2025_Mar_07_1551,ConditionRich,2021.2.3,59.93058839292068,
54.75,55.0,41,0.0,Stimuli/Blank.png,0,0,0.0,0,102,102,102,,,,,,,,,,,,,54.7666676000008,0.01666760000080103,None,94.25487670000075,94.25487670000075,94.25487670000075,94.25487670000075,94.25487670000075,94.25487670000075,94.25487670000075,94.25487670000075,94.25487670000075,94.25487670000075,,001,P017,2025_Mar_07_1551,ConditionRich,2021.2.3,59.93058839292068,
55.0,55.75,9,0.75,Stimuli/P017/sun_ayidxslzurdumeps.jpg,0,0,0.0,0,103,103,103,,,,,,,,,,,,,55.01474959999905,0.014749599999049678,None,94.48840420000124,94.48840420000124,94.48840420000124,94.48840420000124,94.48840420000124,94.48840420000124,94.48840420000124,94.48840420000124,94.48840420000124,94.48840420000124,,001,P017,2025_Mar_07_1551,ConditionRich,2021.2.3,59.93058839292068,
55.75,56.0,41,0.0,Stimuli/Blank.png,0,0,0.0,0,104,104,104,,,,,,,,,,,,,55.7658737999991,0.015873799999098992,None,95.23907370000234,95.23907370000234,95.23907370000234,95.23907370000234,95.23907370000234,95.23907370000234,95.23907370000234,95.23907370000234,95.23907370000234,95.23907370000234,,001,P017,2025_Mar_07_1551,ConditionRich,2021.2.3,59.93058839292068,
56.0,56.75,2,0.75,Stimuli/P017/sun_acliytrpktltxwsx.jpg,0,0,0.0,0,105,105,105,,,,,,,,,,,,,56.000998999999865,0.000998999999865191,None,95.4893230000016,95.4893230000016,95.4893230000016,95.4893230000016,95.4893230000016,95.4893230000016,95.4893230000016,95.4893230000016,95.4893230000016,95.4893230000016,,001,P017,2025_Mar_07_1551,ConditionRich,2021.2.3,59.93058839292068,
56.75,57.0,41,0.0,Stimuli/Blank.png,0,0,0.0,0,106,106,106,,,,,,,,,,,,,56.76630759999898,0.01630759999898146,None,96.23995300000024,96.23995300000024,96.23995300000024,96.23995300000024,96.23995300000024,96.23995300000024,96.23995300000024,96.23995300000024,96.23995300000024,96.23995300000024,,001,P017,2025_Mar_07_1551,ConditionRich,2021.2.3,59.93058839292068,
57.0,57.75,2,0.75,Stimuli/P017/sun_acliytrpktltxwsx.jpg,0,0,0.0,0,107,107,107,,,,,,,,,,,,,57.00041330000022,0.0004133000002184417,None,96.4901858000012,96.4901858000012,96.4901858000012,96.4901858000012,96.4901858000012,96.4901858000012,96.4901858000012,96.4901858000012,96.4901858000012,96.4901858000012,,001,P017,2025_Mar_07_1551,ConditionRich,2021.2.3,59.93058839292068,
57.75,58.0,41,0.0,Stimuli/Blank.png,0,0,0.0,0,108,108,108,,,,,,,,,,,,,57.76786880000145,0.017868800001451746,None,97.24083479999899,97.24083479999899,97.24083479999899,97.24083479999899,97.24083479999899,97.24083479999899,97.24083479999899,97.24083479999899,97.24083479999899,97.24083479999899,,001,P017,2025_Mar_07_1551,ConditionRich,2021.2.3,59.93058839292068,
58.0,58.75,2,0.75,Stimuli/P017/sun_acliytrpktltxwsx.jpg,1,0,0.75,0,109,109,109,,,,,,,,,,,,,58.001307800001086,0.0013078000010864343,1,97.47437840000202,97.47437840000202,97.47437840000202,97.47437840000202,97.47437840000202,97.47437840000202,97.47437840000202,98.20839200000046,97.47437840000202,97.47437840000202,0.39941759999783244,001,P017,2025_Mar_07_1551,ConditionRich,2021.2.3,59.93058839292068,
58.75,59.0,41,0.0,Stimuli/Blank.png,0,0,0.0,0,110,110,110,,,,,,,,,,,,,58.752069400001346,0.0020694000013463665,None,98.2250860000022,98.2250860000022,98.2250860000022,98.2250860000022,98.2250860000022,98.2250860000022,98.2250860000022,98.2250860000022,98.2250860000022,98.2250860000022,,001,P017,2025_Mar_07_1551,ConditionRich,2021.2.3,59.93058839292068,
59.0,59.75,2,0.75,Stimuli/P017/sun_acliytrpktltxwsx.jpg,0,0,0.0,0,111,111,111,,,,,,,,,,,,,59.00242480000088,0.0024248000008810777,None,98.47527500000069,98.47527500000069,98.47527500000069,98.47527500000069,98.47527500000069,98.47527500000069,98.47527500000069,98.47527500000069,98.47527500000069,98.47527500000069,,001,P017,2025_Mar_07_1551,ConditionRich,2021.2.3,59.93058839292068,
59.75,60.0,41,0.0,Stimuli/Blank.png,0,0,0.0,0,112,112,112,,,,,,,,,,,,,59.752794500000164,0.00279450000016368,None,99.22593179999967,99.22593179999967,99.22593179999967,99.22593179999967,99.22593179999967,99.22593179999967,99.22593179999967,99.22593179999967,99.22593179999967,99.22593179999967,,001,P017,2025_Mar_07_1551,ConditionRich,2021.2.3,59.93058839292068,
60.0,60.75,24,0.75,Stimuli/P017/things_breadbox_09s.jpg,0,0,0.0,0,113,113,113,,,,,,,,,,,,,60.00298330000078,0.0029833000007783994,None,99.5095997999997,99.5095997999997,99.5095997999997,99.5095997999997,99.5095997999997,99.5095997999997,99.5095997999997,99.5095997999997,99.5095997999997,99.5095997999997,,001,P017,2025_Mar_07_1551,ConditionRich,2021.2.3,59.93058839292068,
60.75,61.0,41,0.0,Stimuli/Blank.png,0,0,0.0,0,114,114,114,,,,,,,,,,,,,60.78749280000193,0.03749280000192812,None,100.26016979999986,100.26016979999986,100.26016979999986,100.26016979999986,100.26016979999986,100.26016979999986,100.26016979999986,100.26016979999986,100.26016979999986,100.26016979999986,,001,P017,2025_Mar_07_1551,ConditionRich,2021.2.3,59.93058839292068,
61.0,61.75,24,0.75,Stimuli/P017/things_breadbox_09s.jpg,0,0,0.0,0,115,115,115,,,,,,,,,,,,,61.00602620000063,0.006026200000633253,None,100.49372360000052,100.49372360000052,100.49372360000052,100.49372360000052,100.49372360000052,100.49372360000052,100.49372360000052,100.49372360000052,100.49372360000052,100.49372360000052,,001,P017,2025_Mar_07_1551,ConditionRich,2021.2.3,59.93058839292068,
61.75,62.0,41,0.0,Stimuli/Blank.png,0,0,0.0,0,116,116,116,,,,,,,,,,,,,61.77149850000205,0.021498500002053333,None,101.24438999999984,101.24438999999984,101.24438999999984,101.24438999999984,101.24438999999984,101.24438999999984,101.24438999999984,101.24438999999984,101.24438999999984,101.24438999999984,,001,P017,2025_Mar_07_1551,ConditionRich,2021.2.3,59.93058839292068,
62.0,62.75,24,0.75,Stimuli/P017/things_breadbox_09s.jpg,0,0,0.0,0,117,117,117,,,,,,,,,,,,,62.00501459999941,0.005014599999412894,None,101.47791420000067,101.47791420000067,101.47791420000067,101.47791420000067,101.47791420000067,101.47791420000067,101.47791420000067,101.47791420000067,101.47791420000067,101.47791420000067,,001,P017,2025_Mar_07_1551,ConditionRich,2021.2.3,59.93058839292068,
62.75,63.0,41,0.0,Stimuli/Blank.png,0,0,0.0,0,118,118,118,,,,,,,,,,,,,62.754873800000496,0.004873800000495976,None,102.22858429999906,102.22858429999906,102.22858429999906,102.22858429999906,102.22858429999906,102.22858429999906,102.22858429999906,102.22858429999906,102.22858429999906,102.22858429999906,,001,P017,2025_Mar_07_1551,ConditionRich,2021.2.3,59.93058839292068,
63.0,63.75,24,0.75,Stimuli/P017/things_breadbox_09s.jpg,0,0,0.0,0,119,119,119,,,,,,,,,,,,,63.005720799999835,0.005720799999835435,None,102.49548209999921,102.49548209999921,102.49548209999921,102.49548209999921,102.49548209999921,102.49548209999921,102.49548209999921,102.49548209999921,102.49548209999921,102.49548209999921,,001,P017,2025_Mar_07_1551,ConditionRich,2021.2.3,59.93058839292068,
63.75,64.0,41,0.0,Stimuli/Blank.png,0,0,0.0,0,120,120,120,,,,,,,,,,,,,63.77250560000175,0.02250560000175028,None,103.24626400000125,103.24626400000125,103.24626400000125,103.24626400000125,103.24626400000125,103.24626400000125,103.24626400000125,103.24626400000125,103.24626400000125,103.24626400000125,,001,P017,2025_Mar_07_1551,ConditionRich,2021.2.3,59.93058839292068,
64.0,64.75,22,0.75,Stimuli/P017/things_boat_09s.jpg,0,0,0.0,0,121,121,121,,,,,,,,,,,,,64.00642220000009,0.006422200000088196,None,103.51305100000172,103.51305100000172,103.51305100000172,103.51305100000172,103.51305100000172,103.51305100000172,103.51305100000172,103.51305100000172,103.51305100000172,103.51305100000172,,001,P017,2025_Mar_07_1551,ConditionRich,2021.2.3,59.93058839292068,
64.75,65.0,41,0.0,Stimuli/Blank.png,0,0,0.0,0,122,122,122,,,,,,,,,,,,,64.79151840000122,0.0415184000012232,None,104.2637192000002,104.2637192000002,104.2637192000002,104.2637192000002,104.2637192000002,104.2637192000002,104.2637192000002,104.2637192000002,104.2637192000002,104.2637192000002,,001,P017,2025_Mar_07_1551,ConditionRich,2021.2.3,59.93058839292068,
65.0,65.75,22,0.75,Stimuli/P017/things_boat_09s.jpg,0,0,0.0,0,123,123,123,,,,,,,,,,,,,65.00776820000101,0.007768200001009973,None,104.48057809999955,104.48057809999955,104.48057809999955,104.48057809999955,104.48057809999955,104.48057809999955,104.48057809999955,104.48057809999955,104.48057809999955,104.48057809999955,,001,P017,2025_Mar_07_1551,ConditionRich,2021.2.3,59.93058839292068,
65.75,66.0,41,0.0,Stimuli/Blank.png,0,0,0.0,0,124,124,124,,,,,,,,,,,,,65.75801200000205,0.008012000002054265,None,105.23122689999946,105.23122689999946,105.23122689999946,105.23122689999946,105.23122689999946,105.23122689999946,105.23122689999946,105.23122689999946,105.23122689999946,105.23122689999946,,001,P017,2025_Mar_07_1551,ConditionRich,2021.2.3,59.93058839292068,
66.0,66.75,22,0.75,Stimuli/P017/things_boat_09s.jpg,0,0,0.0,0,125,125,125,,,,,,,,,,,,,66.00800620000155,0.008006200001545949,None,105.48145750000185,105.48145750000185,105.48145750000185,105.48145750000185,105.48145750000185,105.48145750000185,105.48145750000185,105.48145750000185,105.48145750000185,105.48145750000185,,001,P017,2025_Mar_07_1551,ConditionRich,2021.2.3,59.93058839292068,
66.75,67.0,41,0.0,Stimuli/Blank.png,0,0,0.0,0,126,126,126,,,,,,,,,,,,,66.75825930000065,0.008259300000645453,None,106.23212029999922,106.23212029999922,106.23212029999922,106.23212029999922,106.23212029999922,106.23212029999922,106.23212029999922,106.23212029999922,106.23212029999922,106.23212029999922,,001,P017,2025_Mar_07_1551,ConditionRich,2021.2.3,59.93058839292068,
67.0,67.75,22,0.75,Stimuli/P017/things_boat_09s.jpg,0,0,0.0,0,127,127,127,,,,,,,,,,,,,67.00976129999981,0.009761299999809125,None,106.4825230000024,106.4825230000024,106.4825230000024,106.4825230000024,106.4825230000024,106.4825230000024,106.4825230000024,106.4825230000024,106.4825230000024,106.4825230000024,,001,P017,2025_Mar_07_1551,ConditionRich,2021.2.3,59.93058839292068,
67.75,68.0,41,0.0,Stimuli/Blank.png,0,0,0.0,0,128,128,128,,,,,,,,,,,,,67.7623339999991,0.012333999999100342,None,107.24970269999903,107.24970269999903,107.24970269999903,107.24970269999903,107.24970269999903,107.24970269999903,107.24970269999903,107.24970269999903,107.24970269999903,107.24970269999903,,001,P017,2025_Mar_07_1551,ConditionRich,2021.2.3,59.93058839292068,
68.0,68.75,5,0.75,Stimuli/P017/sun_apojgqgvdvsksdvo.jpg,0,0,0.0,0,129,129,129,,,,,,,,,,,,,68.02711329999875,0.027113299998745788,None,107.53329060000033,107.53329060000033,107.53329060000033,107.53329060000033,107.53329060000033,107.53329060000033,107.53329060000033,107.53329060000033,107.53329060000033,107.53329060000033,,001,P017,2025_Mar_07_1551,ConditionRich,2021.2.3,59.93058839292068,
68.75,69.0,41,0.0,Stimuli/Blank.png,0,0,0.0,0,130,130,130,,,,,,,,,,,,,68.79355000000214,0.04355000000214204,None,108.26725240000087,108.26725240000087,108.26725240000087,108.26725240000087,108.26725240000087,108.26725240000087,108.26725240000087,108.26725240000087,108.26725240000087,108.26725240000087,,001,P017,2025_Mar_07_1551,ConditionRich,2021.2.3,59.93058839292068,
69.0,69.75,5,0.75,Stimuli/P017/sun_apojgqgvdvsksdvo.jpg,0,0,0.0,0,131,131,131,,,,,,,,,,,,,69.01046610000049,0.010466100000485312,None,108.48411300000225,108.48411300000225,108.48411300000225,108.48411300000225,108.48411300000225,108.48411300000225,108.48411300000225,108.48411300000225,108.48411300000225,108.48411300000225,,001,P017,2025_Mar_07_1551,ConditionRich,2021.2.3,59.93058839292068,
69.75,70.0,41,0.0,Stimuli/Blank.png,0,0,0.0,0,132,132,132,,,,,,,,,,,,,69.76198099999965,0.011980999999650521,None,109.23477950000233,109.23477950000233,109.23477950000233,109.23477950000233,109.23477950000233,109.23477950000233,109.23477950000233,109.23477950000233,109.23477950000233,109.23477950000233,,001,P017,2025_Mar_07_1551,ConditionRich,2021.2.3,59.93058839292068,
70.0,70.75,5,0.75,Stimuli/P017/sun_apojgqgvdvsksdvo.jpg,0,0,0.0,0,133,133,133,,,,,,,,,,,,,70.01418620000186,0.014186200001859106,None,109.50169830000232,109.50169830000232,109.50169830000232,109.50169830000232,109.50169830000232,109.50169830000232,109.50169830000232,109.50169830000232,109.50169830000232,109.50169830000232,,001,P017,2025_Mar_07_1551,ConditionRich,2021.2.3,59.93058839292068,
70.75,71.0,41,0.0,Stimuli/Blank.png,0,0,0.0,0,134,134,134,,,,,,,,,,,,,70.78132069999992,0.03132069999992382,None,110.26902300000074,110.26902300000074,110.26902300000074,110.26902300000074,110.26902300000074,110.26902300000074,110.26902300000074,110.26902300000074,110.26902300000074,110.26902300000074,,001,P017,2025_Mar_07_1551,ConditionRich,2021.2.3,59.93058839292068,
71.0,71.75,5,0.75,Stimuli/P017/sun_apojgqgvdvsksdvo.jpg,0,0,0.0,0,135,135,135,,,,,,,,,,,,,71.03124200000093,0.031242000000929693,None,110.51924670000153,110.51924670000153,110.51924670000153,110.51924670000153,110.51924670000153,110.51924670000153,110.51924670000153,110.51924670000153,110.51924670000153,110.51924670000153,,001,P017,2025_Mar_07_1551,ConditionRich,2021.2.3,59.93058839292068,
71.75,72.0,41,0.0,Stimuli/Blank.png,0,0,0.0,0,136,136,136,,,,,,,,,,,,,71.78253780000159,0.03253780000159168,None,111.26991579999958,111.26991579999958,111.26991579999958,111.26991579999958,111.26991579999958,111.26991579999958,111.26991579999958,111.26991579999958,111.26991579999958,111.26991579999958,,001,P017,2025_Mar_07_1551,ConditionRich,2021.2.3,59.93058839292068,
72.0,72.75,33,0.75,Stimuli/P017/things_lamb_09s.jpg,0,0,0.0,0,137,137,137,,,,,,,,,,,,,72.01316690000021,0.01316690000021481,None,111.50343789999897,111.50343789999897,111.50343789999897,111.50343789999897,111.50343789999897,111.50343789999897,111.50343789999897,111.50343789999897,111.50343789999897,111.50343789999897,,001,P017,2025_Mar_07_1551,ConditionRich,2021.2.3,59.93058839292068,
72.75,73.0,41,0.0,Stimuli/Blank.png,0,0,0.0,0,138,138,138,,,,,,,,,,,,,72.78101610000158,0.031016100001579616,None,112.2541052000015,112.2541052000015,112.2541052000015,112.2541052000015,112.2541052000015,112.2541052000015,112.2541052000015,112.2541052000015,112.2541052000015,112.2541052000015,,001,P017,2025_Mar_07_1551,ConditionRich,2021.2.3,59.93058839292068,
73.0,73.75,33,0.75,Stimuli/P017/things_lamb_09s.jpg,0,0,0.0,0,139,139,139,,,,,,,,,,,,,73.01479540000219,0.014795400002185488,None,112.48764030000166,112.48764030000166,112.48764030000166,112.48764030000166,112.48764030000166,112.48764030000166,112.48764030000166,112.48764030000166,112.48764030000166,112.48764030000166,,001,P017,2025_Mar_07_1551,ConditionRich,2021.2.3,59.93058839292068,
73.75,74.0,41,0.0,Stimuli/Blank.png,0,0,0.0,0,140,140,140,,,,,,,,,,,,,73.76648810000188,0.016488100001879502,None,113.25499710000076,113.25499710000076,113.25499710000076,113.25499710000076,113.25499710000076,113.25499710000076,113.25499710000076,113.25499710000076,113.25499710000076,113.25499710000076,,001,P017,2025_Mar_07_1551,ConditionRich,2021.2.3,59.93058839292068,
74.0,74.75,33,0.75,Stimuli/P017/things_lamb_09s.jpg,0,0,0.0,0,141,141,141,,,,,,,,,,,,,74.0157059000012,0.015705900001194095,None,113.48852760000227,113.48852760000227,113.48852760000227,113.48852760000227,113.48852760000227,113.48852760000227,113.48852760000227,113.48852760000227,113.48852760000227,113.48852760000227,,001,P017,2025_Mar_07_1551,ConditionRich,2021.2.3,59.93058839292068,
74.75,75.0,41,0.0,Stimuli/Blank.png,0,0,0.0,0,142,142,142,,,,,,,,,,,,,74.74947109999994,-0.000528900000063004,None,114.22250830000121,114.22250830000121,114.22250830000121,114.22250830000121,114.22250830000121,114.22250830000121,114.22250830000121,114.22250830000121,114.22250830000121,114.22250830000121,,001,P017,2025_Mar_07_1551,ConditionRich,2021.2.3,59.93058839292068,
75.0,75.75,33,0.75,Stimuli/P017/things_lamb_09s.jpg,0,0,0.0,0,143,143,143,,,,,,,,,,,,,75.00161020000087,0.0016102000008686446,None,114.48942009999882,114.48942009999882,114.48942009999882,114.48942009999882,114.48942009999882,114.48942009999882,114.48942009999882,114.48942009999882,114.48942009999882,114.48942009999882,,001,P017,2025_Mar_07_1551,ConditionRich,2021.2.3,59.93058839292068,
75.75,76.0,41,0.0,Stimuli/Blank.png,0,0,0.0,0,144,144,144,,,,,,,,,,,,,75.76691260000007,0.016912600000068778,None,115.24008310000136,115.24008310000136,115.24008310000136,115.24008310000136,115.24008310000136,115.24008310000136,115.24008310000136,115.24008310000136,115.24008310000136,115.24008310000136,,001,P017,2025_Mar_07_1551,ConditionRich,2021.2.3,59.93058839292068,
76.0,76.75,21,0.75,Stimuli/P017/things_baby_09s.jpg,0,0,0.0,0,145,145,145,,,,,,,,,,,,,76.00056789999871,0.0005678999987139832,None,115.49030680000214,115.49030680000214,115.49030680000214,115.49030680000214,115.49030680000214,115.49030680000214,115.49030680000214,115.49030680000214,115.49030680000214,115.49030680000214,,001,P017,2025_Mar_07_1551,ConditionRich,2021.2.3,59.93058839292068,
76.75,77.0,41,0.0,Stimuli/Blank.png,0,0,0.0,0,146,146,146,,,,,,,,,,,,,76.76815790000182,0.0181579000018246,None,116.24096310000095,116.24096310000095,116.24096310000095,116.24096310000095,116.24096310000095,116.24096310000095,116.24096310000095,116.24096310000095,116.24096310000095,116.24096310000095,,001,P017,2025_Mar_07_1551,ConditionRich,2021.2.3,59.93058839292068,
77.0,77.75,21,0.75,Stimuli/P017/things_baby_09s.jpg,0,0,0.0,0,147,147,147,,,,,,,,,,,,,77.00186079999912,0.0018607999991218094,None,116.47450580000077,116.47450580000077,116.47450580000077,116.47450580000077,116.47450580000077,116.47450580000077,116.47450580000077,116.47450580000077,116.47450580000077,116.47450580000077,,001,P017,2025_Mar_07_1551,ConditionRich,2021.2.3,59.93058839292068,
77.75,78.0,41,0.0,Stimuli/Blank.png,0,0,0.0,0,148,148,148,,,,,,,,,,,,,77.75164120000045,0.0016412000004493166,None,117.22517430000153,117.22517430000153,117.22517430000153,117.22517430000153,117.22517430000153,117.22517430000153,117.22517430000153,117.22517430000153,117.22517430000153,117.22517430000153,,001,P017,2025_Mar_07_1551,ConditionRich,2021.2.3,59.93058839292068,
78.0,78.75,21,0.75,Stimuli/P017/things_baby_09s.jpg,0,0,0.0,0,149,149,149,,,,,,,,,,,,,78.00237149999884,0.0023714999988442287,None,117.47535789999893,117.47535789999893,117.47535789999893,117.47535789999893,117.47535789999893,117.47535789999893,117.47535789999893,117.47535789999893,117.47535789999893,117.47535789999893,,001,P017,2025_Mar_07_1551,ConditionRich,2021.2.3,59.93058839292068,
78.75,79.0,41,0.0,Stimuli/Blank.png,0,0,0.0,0,150,150,150,,,,,,,,,,,,,78.75250249999954,0.002502499999536667,None,118.22605150000163,118.22605150000163,118.22605150000163,118.22605150000163,118.22605150000163,118.22605150000163,118.22605150000163,118.22605150000163,118.22605150000163,118.22605150000163,,001,P017,2025_Mar_07_1551,ConditionRich,2021.2.3,59.93058839292068,
79.0,79.75,21,0.75,Stimuli/P017/things_baby_09s.jpg,0,0,0.0,0,151,151,151,,,,,,,,,,,,,79.00306850000197,0.003068500001973007,None,118.4762656999992,118.4762656999992,118.4762656999992,118.4762656999992,118.4762656999992,118.4762656999992,118.4762656999992,118.4762656999992,118.4762656999992,118.4762656999992,,001,P017,2025_Mar_07_1551,ConditionRich,2021.2.3,59.93058839292068,
79.75,80.0,41,0.0,Stimuli/Blank.png,0,0,0.0,0,152,152,152,,,,,,,,,,,,,79.7545108000013,0.004510800001298776,None,119.22694870000123,119.22694870000123,119.22694870000123,119.22694870000123,119.22694870000123,119.22694870000123,119.22694870000123,119.22694870000123,119.22694870000123,119.22694870000123,,001,P017,2025_Mar_07_1551,ConditionRich,2021.2.3,59.93058839292068,
80.0,80.75,10,0.75,Stimuli/P017/sun_bayxprasninnrnle.jpg,0,0,0.0,0,153,153,153,,,,,,,,,,,,,80.00438170000052,0.00438170000052196,None,119.4938613000013,119.4938613000013,119.4938613000013,119.4938613000013,119.4938613000013,119.4938613000013,119.4938613000013,119.4938613000013,119.4938613000013,119.4938613000013,,001,P017,2025_Mar_07_1551,ConditionRich,2021.2.3,59.93058839292068,
80.75,81.0,41,0.0,Stimuli/Blank.png,0,0,0.0,0,154,154,154,,,,,,,,,,,,,80.77176990000225,0.02176990000225487,None,120.24450559999968,120.24450559999968,120.24450559999968,120.24450559999968,120.24450559999968,120.24450559999968,120.24450559999968,120.24450559999968,120.24450559999968,120.24450559999968,,001,P017,2025_Mar_07_1551,ConditionRich,2021.2.3,59.93058839292068,
81.0,81.75,10,0.75,Stimuli/P017/sun_bayxprasninnrnle.jpg,0,0,0.0,0,155,155,155,,,,,,,,,,,,,81.00512679999883,0.005126799998834031,None,120.47804739999992,120.47804739999992,120.47804739999992,120.47804739999992,120.47804739999992,120.47804739999992,120.47804739999992,120.47804739999992,120.47804739999992,120.47804739999992,,001,P017,2025_Mar_07_1551,ConditionRich,2021.2.3,59.93058839292068,
81.75,82.0,41,0.0,Stimuli/Blank.png,0,0,0.0,0,156,156,156,,,,,,,,,,,,,81.75491949999923,0.004919499999232357,None,121.22869920000085,121.22869920000085,121.22869920000085,121.22869920000085,121.22869920000085,121.22869920000085,121.22869920000085,121.22869920000085,121.22869920000085,121.22869920000085,,001,P017,2025_Mar_07_1551,ConditionRich,2021.2.3,59.93058839292068,
82.0,82.75,10,0.75,Stimuli/P017/sun_bayxprasninnrnle.jpg,0,0,0.0,0,157,157,157,,,,,,,,,,,,,82.00667350000003,0.006673500000033528,None,121.49560489999931,121.49560489999931,121.49560489999931,121.49560489999931,121.49560489999931,121.49560489999931,121.49560489999931,121.49560489999931,121.49560489999931,121.49560489999931,,001,P017,2025_Mar_07_1551,ConditionRich,2021.2.3,59.93058839292068,
82.75,83.0,41,0.0,Stimuli/Blank.png,0,0,0.0,0,158,158,158,,,,,,,,,,,,,82.77308489999996,0.023084899999957997,None,122.24626139999964,122.24626139999964,122.24626139999964,122.24626139999964,122.24626139999964,122.24626139999964,122.24626139999964,122.24626139999964,122.24626139999964,122.24626139999964,,001,P017,2025_Mar_07_1551,ConditionRich,2021.2.3,59.93058839292068,
83.0,83.75,10,0.75,Stimuli/P017/sun_bayxprasninnrnle.jpg,0,0,0.0,0,159,159,159,,,,,,,,,,,,,83.00597389999893,0.0059738999989349395,None,122.47981119999895,122.47981119999895,122.47981119999895,122.47981119999895,122.47981119999895,122.47981119999895,122.47981119999895,122.47981119999895,122.47981119999895,122.47981119999895,,001,P017,2025_Mar_07_1551,ConditionRich,2021.2.3,59.93058839292068,
83.75,84.0,41,0.0,Stimuli/Blank.png,0,0,0.0,0,160,160,160,,,,,,,,,,,,,83.75681439999971,0.006814399999711895,None,123.2304718000014,123.2304718000014,123.2304718000014,123.2304718000014,123.2304718000014,123.2304718000014,123.2304718000014,123.2304718000014,123.2304718000014,123.2304718000014,,001,P017,2025_Mar_07_1551,ConditionRich,2021.2.3,59.93058839292068,
84.0,100.0,0,0.0,Stimuli/Blank.png,1,11,11.75,0,161,161,161,,,,,,,,,,,,,84.0071480000006,0.007148000000597676,1,123.48069140000007,123.48069140000007,123.48069140000007,123.48069140000007,123.48069140000007,123.48069140000007,134.45711590000064,135.20773220000046,123.48069140000007,123.48069140000007,11.450065599998197,001,P017,2025_Mar_07_1551,ConditionRich,2021.2.3,59.93058839292068,
100.0,100.75,25,0.75,Stimuli/P017/things_cannonball_09s.jpg,0,0,0.0,0,162,162,162,,,,,,,,,,,,,100.00658639999892,0.006586399998923298,None,139.49484289999964,139.49484289999964,139.49484289999964,139.49484289999964,139.49484289999964,139.49484289999964,139.49484289999964,139.49484289999964,139.49484289999964,139.49484289999964,,001,P017,2025_Mar_07_1551,ConditionRich,2021.2.3,59.93058839292068,
100.75,101.0,41,0.0,Stimuli/Blank.png,0,0,0.0,0,163,163,163,,,,,,,,,,,,,100.77169290000165,0.02169290000165347,None,140.24550409999938,140.24550409999938,140.24550409999938,140.24550409999938,140.24550409999938,140.24550409999938,140.24550409999938,140.24550409999938,140.24550409999938,140.24550409999938,,001,P017,2025_Mar_07_1551,ConditionRich,2021.2.3,59.93058839292068,
101.0,101.75,25,0.75,Stimuli/P017/things_cannonball_09s.jpg,0,0,0.0,0,164,164,164,,,,,,,,,,,,,101.0053454000008,0.0053454000008059666,None,140.47904460000063,140.47904460000063,140.47904460000063,140.47904460000063,140.47904460000063,140.47904460000063,140.47904460000063,140.47904460000063,140.47904460000063,140.47904460000063,,001,P017,2025_Mar_07_1551,ConditionRich,2021.2.3,59.93058839292068,
101.75,102.0,41,0.0,Stimuli/Blank.png,0,0,0.0,0,165,165,165,,,,,,,,,,,,,101.75583779999943,0.005837799999426352,None,141.22971690000122,141.22971690000122,141.22971690000122,141.22971690000122,141.22971690000122,141.22971690000122,141.22971690000122,141.22971690000122,141.22971690000122,141.22971690000122,,001,P017,2025_Mar_07_1551,ConditionRich,2021.2.3,59.93058839292068,
102.0,102.75,25,0.75,Stimuli/P017/things_cannonball_09s.jpg,0,0,0.0,0,166,166,166,,,,,,,,,,,,,102.00615250000192,0.00615250000191736,None,141.479933300001,141.479933300001,141.479933300001,141.479933300001,141.479933300001,141.479933300001,141.479933300001,141.479933300001,141.479933300001,141.479933300001,,001,P017,2025_Mar_07_1551,ConditionRich,2021.2.3,59.93058839292068,
102.75,103.0,41,0.0,Stimuli/Blank.png,0,0,0.0,0,167,167,167,,,,,,,,,,,,,102.75675749999937,0.006757499999366701,None,142.2305680999998,142.2305680999998,142.2305680999998,142.2305680999998,142.2305680999998,142.2305680999998,142.2305680999998,142.2305680999998,142.2305680999998,142.2305680999998,,001,P017,2025_Mar_07_1551,ConditionRich,2021.2.3,59.93058839292068,
103.0,103.75,25,0.75,Stimuli/P017/things_cannonball_09s.jpg,0,0,0.0,0,168,168,168,,,,,,,,,,,,,103.00715409999975,0.007154099999752361,None,142.48081620000085,142.48081620000085,142.48081620000085,142.48081620000085,142.48081620000085,142.48081620000085,142.48081620000085,142.48081620000085,142.48081620000085,142.48081620000085,,001,P017,2025_Mar_07_1551,ConditionRich,2021.2.3,59.93058839292068,
103.75,104.0,41,0.0,Stimuli/Blank.png,0,0,0.0,0,169,169,169,,,,,,,,,,,,,103.7584938,0.008493799999996554,None,143.23148779999974,143.23148779999974,143.23148779999974,143.23148779999974,143.23148779999974,143.23148779999974,143.23148779999974,143.23148779999974,143.23148779999974,143.23148779999974,,001,P017,2025_Mar_07_1551,ConditionRich,2021.2.3,59.93058839292068,
104.0,104.75,6,0.75,Stimuli/P017/sun_atuyvunnykjurjgx.jpg,0,0,0.0,0,170,170,170,,,,,,,,,,,,,104.00962880000225,0.009628800002246862,None,143.4983859999993,143.4983859999993,143.4983859999993,143.4983859999993,143.4983859999993,143.4983859999993,143.4983859999993,143.4983859999993,143.4983859999993,143.4983859999993,,001,P017,2025_Mar_07_1551,ConditionRich,2021.2.3,59.93058839292068,
104.75,105.0,41,0.0,Stimuli/Blank.png,0,0,0.0,0,171,171,171,,,,,,,,,,,,,104.77620620000016,0.026206200000160607,None,144.24905180000133,144.24905180000133,144.24905180000133,144.24905180000133,144.24905180000133,144.24905180000133,144.24905180000133,144.24905180000133,144.24905180000133,144.24905180000133,,001,P017,2025_Mar_07_1551,ConditionRich,2021.2.3,59.93058839292068,
105.0,105.75,6,0.75,Stimuli/P017/sun_atuyvunnykjurjgx.jpg,0,0,0.0,0,172,172,172,,,,,,,,,,,,,105.01132200000211,0.011322000002110144,None,144.49927699999898,144.49927699999898,144.49927699999898,144.49927699999898,144.49927699999898,144.49927699999898,144.49927699999898,144.49927699999898,144.49927699999898,144.49927699999898,,001,P017,2025_Mar_07_1551,ConditionRich,2021.2.3,59.93058839292068,
105.75,106.0,41,0.0,Stimuli/Blank.png,0,0,0.0,0,173,173,173,,,,,,,,,,,,,105.77610490000006,0.026104900000063935,None,145.24993000000177,145.24993000000177,145.24993000000177,145.24993000000177,145.24993000000177,145.24993000000177,145.24993000000177,145.24993000000177,145.24993000000177,145.24993000000177,,001,P017,2025_Mar_07_1551,ConditionRich,2021.2.3,59.93058839292068,
106.0,106.75,6,0.75,Stimuli/P017/sun_atuyvunnykjurjgx.jpg,0,0,0.0,0,174,174,174,,,,,,,,,,,,,106.01004459999967,0.010044599999673665,None,145.48346730000048,145.48346730000048,145.48346730000048,145.48346730000048,145.48346730000048,145.48346730000048,145.48346730000048,145.48346730000048,145.48346730000048,145.48346730000048,,001,P017,2025_Mar_07_1551,ConditionRich,2021.2.3,59.93058839292068,
106.75,107.0,41,0.0,Stimuli/Blank.png,0,0,0.0,0,175,175,175,,,,,,,,,,,,,106.76076340000145,0.010763400001451373,None,146.23413020000226,146.23413020000226,146.23413020000226,146.23413020000226,146.23413020000226,146.23413020000226,146.23413020000226,146.23413020000226,146.23413020000226,146.23413020000226,,001,P017,2025_Mar_07_1551,ConditionRich,2021.2.3,59.93058839292068,
107.0,107.75,6,0.75,Stimuli/P017/sun_atuyvunnykjurjgx.jpg,0,0,0.0,0,176,176,176,,,,,,,,,,,,,107.01120069999888,0.011200699998880737,None,146.48435339999924,146.48435339999924,146.48435339999924,146.48435339999924,146.48435339999924,146.48435339999924,146.48435339999924,146.48435339999924,146.48435339999924,146.48435339999924,,001,P017,2025_Mar_07_1551,ConditionRich,2021.2.3,59.93058839292068,
107.75,108.0,41,0.0,Stimuli/Blank.png,0,0,0.0,0,177,177,177,,,,,,,,,,,,,107.76151219999883,0.011512199998833239,None,147.2350207999989,147.2350207999989,147.2350207999989,147.2350207999989,147.2350207999989,147.2350207999989,147.2350207999989,147.2350207999989,147.2350207999989,147.2350207999989,,001,P017,2025_Mar_07_1551,ConditionRich,2021.2.3,59.93058839292068,
108.0,108.75,17,0.75,Stimuli/P017/sun_brhndfjxyigqgiwl.jpg,0,0,0.0,0,178,178,178,,,,,,,,,,,,,108.01147750000018,0.011477500000182772,None,147.4852350000001,147.4852350000001,147.4852350000001,147.4852350000001,147.4852350000001,147.4852350000001,147.4852350000001,147.4852350000001,147.4852350000001,147.4852350000001,,001,P017,2025_Mar_07_1551,ConditionRich,2021.2.3,59.93058839292068,
108.75,109.0,41,0.0,Stimuli/Blank.png,0,0,0.0,0,179,179,179,,,,,,,,,,,,,108.76281590000144,0.01281590000144206,None,148.2358998999989,148.2358998999989,148.2358998999989,148.2358998999989,148.2358998999989,148.2358998999989,148.2358998999989,148.2358998999989,148.2358998999989,148.2358998999989,,001,P017,2025_Mar_07_1551,ConditionRich,2021.2.3,59.93058839292068,
109.0,109.75,17,0.75,Stimuli/P017/sun_brhndfjxyigqgiwl.jpg,0,0,0.0,0,180,180,180,,,,,,,,,,,,,109.01242049999928,0.012420499999279855,None,148.4861273000024,148.4861273000024,148.4861273000024,148.4861273000024,148.4861273000024,148.4861273000024,148.4861273000024,148.4861273000024,148.4861273000024,148.4861273000024,,001,P017,2025_Mar_07_1551,ConditionRich,2021.2.3,59.93058839292068,
109.75,110.0,41,0.0,Stimuli/Blank.png,0,0,0.0,0,181,181,181,,,,,,,,,,,,,109.76312770000004,0.013127700000040932,None,149.23678660000223,149.23678660000223,149.23678660000223,149.23678660000223,149.23678660000223,149.23678660000223,149.23678660000223,149.23678660000223,149.23678660000223,149.23678660000223,,001,P017,2025_Mar_07_1551,ConditionRich,2021.2.3,59.93058839292068,
110.0,110.75,17,0.75,Stimuli/P017/sun_brhndfjxyigqgiwl.jpg,0,0,0.0,0,182,182,182,,,,,,,,,,,,,110.01343850000194,0.013438500001939246,None,149.48700590000226,149.48700590000226,149.48700590000226,149.48700590000226,149.48700590000226,149.48700590000226,149.48700590000226,149.48700590000226,149.48700590000226,149.48700590000226,,001,P017,2025_Mar_07_1551,ConditionRich,2021.2.3,59.93058839292068,
110.75,111.0,41,0.0,Stimuli/Blank.png,0,0,0.0,0,183,183,183,,,,,,,,,,,,,110.766410799999,0.016410799998993753,None,150.2543551000017,150.2543551000017,150.2543551000017,150.2543551000017,150.2543551000017,150.2543551000017,150.2543551000017,150.2543551000017,150.2543551000017,150.2543551000017,,001,P017,2025_Mar_07_1551,ConditionRich,2021.2.3,59.93058839292068,
111.0,111.75,17,0.75,Stimuli/P017/sun_brhndfjxyigqgiwl.jpg,0,0,0.0,0,184,184,184,,,,,,,,,,,,,111.01660410000113,0.016604100001131883,None,150.5045730999991,150.5045730999991,150.5045730999991,150.5045730999991,150.5045730999991,150.5045730999991,150.5045730999991,150.5045730999991,150.5045730999991,150.5045730999991,,001,P017,2025_Mar_07_1551,ConditionRich,2021.2.3,59.93058839292068,
111.75,112.0,41,0.0,Stimuli/Blank.png,0,0,0.0,0,185,185,185,,,,,,,,,,,,,111.76546760000201,0.01546760000201175,None,151.23855639999965,151.23855639999965,151.23855639999965,151.23855639999965,151.23855639999965,151.23855639999965,151.23855639999965,151.23855639999965,151.23855639999965,151.23855639999965,,001,P017,2025_Mar_07_1551,ConditionRich,2021.2.3,59.93058839292068,
112.0,112.75,28,0.75,Stimuli/P017/things_collar_09s.jpg,0,0,0.0,0,186,186,186,,,,,,,,,,,,,111.99953190000087,-0.0004680999991251156,None,151.48877220000213,151.48877220000213,151.48877220000213,151.48877220000213,151.48877220000213,151.48877220000213,151.48877220000213,151.48877220000213,151.48877220000213,151.48877220000213,,001,P017,2025_Mar_07_1551,ConditionRich,2021.2.3,59.93058839292068,
112.75,113.0,41,0.0,Stimuli/Blank.png,0,0,0.0,0,187,187,187,,,,,,,,,,,,,112.7667322999987,0.016732299998693634,None,152.23944090000077,152.23944090000077,152.23944090000077,152.23944090000077,152.23944090000077,152.23944090000077,152.23944090000077,152.23944090000077,152.23944090000077,152.23944090000077,,001,P017,2025_Mar_07_1551,ConditionRich,2021.2.3,59.93058839292068,
113.0,113.75,28,0.75,Stimuli/P017/things_collar_09s.jpg,0,0,0.0,0,188,188,188,,,,,,,,,,,,,113.00139330000093,0.001393300000927411,None,152.48965990000215,152.48965990000215,152.48965990000215,152.48965990000215,152.48965990000215,152.48965990000215,152.48965990000215,152.48965990000215,152.48965990000215,152.48965990000215,,001,P017,2025_Mar_07_1551,ConditionRich,2021.2.3,59.93058839292068,
113.75,114.0,41,0.0,Stimuli/Blank.png,0,0,0.0,0,189,189,189,,,,,,,,,,,,,113.76732139999876,0.01732139999876381,None,153.24032129999978,153.24032129999978,153.24032129999978,153.24032129999978,153.24032129999978,153.24032129999978,153.24032129999978,153.24032129999978,153.24032129999978,153.24032129999978,,001,P017,2025_Mar_07_1551,ConditionRich,2021.2.3,59.93058839292068,
114.0,114.75,28,0.75,Stimuli/P017/things_collar_09s.jpg,0,0,0.0,0,190,190,190,,,,,,,,,,,,,114.00004560000161,4.5600001612911e-05,None,153.4738733000013,153.4738733000013,153.4738733000013,153.4738733000013,153.4738733000013,153.4738733000013,153.4738733000013,153.4738733000013,153.4738733000013,153.4738733000013,,001,P017,2025_Mar_07_1551,ConditionRich,2021.2.3,59.93058839292068,
114.75,115.0,41,0.0,Stimuli/Blank.png,0,0,0.0,0,191,191,191,,,,,,,,,,,,,114.75081150000187,0.0008115000018733554,None,154.22449219999908,154.22449219999908,154.22449219999908,154.22449219999908,154.22449219999908,154.22449219999908,154.22449219999908,154.22449219999908,154.22449219999908,154.22449219999908,,001,P017,2025_Mar_07_1551,ConditionRich,2021.2.3,59.93058839292068,
115.0,115.75,28,0.75,Stimuli/P017/things_collar_09s.jpg,0,0,0.0,0,192,192,192,,,,,,,,,,,,,115.0010485999992,0.0010485999991942663,None,154.47474560000046,154.47474560000046,154.47474560000046,154.47474560000046,154.47474560000046,154.47474560000046,154.47474560000046,154.47474560000046,154.47474560000046,154.47474560000046,,001,P017,2025_Mar_07_1551,ConditionRich,2021.2.3,59.93058839292068,
115.75,116.0,41,0.0,Stimuli/Blank.png,0,0,0.0,0,193,193,193,,,,,,,,,,,,,115.75231229999918,0.0023122999991755933,None,155.2254150000008,155.2254150000008,155.2254150000008,155.2254150000008,155.2254150000008,155.2254150000008,155.2254150000008,155.2254150000008,155.2254150000008,155.2254150000008,,001,P017,2025_Mar_07_1551,ConditionRich,2021.2.3,59.93058839292068,
116.0,116.75,19,0.75,Stimuli/P017/sun_brrwzaypucosdcgt.jpg,0,0,0.0,0,194,194,194,,,,,,,,,,,,,116.00285259999873,0.0028525999987323303,None,155.49230960000205,155.49230960000205,155.49230960000205,155.49230960000205,155.49230960000205,155.49230960000205,155.49230960000205,155.49230960000205,155.49230960000205,155.49230960000205,,001,P017,2025_Mar_07_1551,ConditionRich,2021.2.3,59.93058839292068,
116.75,117.0,41,0.0,Stimuli/Blank.png,0,0,0.0,0,195,195,195,,,,,,,,,,,,,116.7713685000017,0.02136850000169943,None,156.2596642999997,156.2596642999997,156.2596642999997,156.2596642999997,156.2596642999997,156.2596642999997,156.2596642999997,156.2596642999997,156.2596642999997,156.2596642999997,,001,P017,2025_Mar_07_1551,ConditionRich,2021.2.3,59.93058839292068,
117.0,117.75,19,0.75,Stimuli/P017/sun_brrwzaypucosdcgt.jpg,0,0,0.0,0,196,196,196,,,,,,,,,,,,,117.02245390000098,0.022453900000982685,None,156.50989610000033,156.50989610000033,156.50989610000033,156.50989610000033,156.50989610000033,156.50989610000033,156.50989610000033,156.50989610000033,156.50989610000033,156.50989610000033,,001,P017,2025_Mar_07_1551,ConditionRich,2021.2.3,59.93058839292068,
117.75,118.0,41,0.0,Stimuli/Blank.png,0,0,0.0,0,197,197,197,,,,,,,,,,,,,117.77110530000209,0.0211053000020911,None,157.2438660000007,157.2438660000007,157.2438660000007,157.2438660000007,157.2438660000007,157.2438660000007,157.2438660000007,157.2438660000007,157.2438660000007,157.2438660000007,,001,P017,2025_Mar_07_1551,ConditionRich,2021.2.3,59.93058839292068,
118.0,118.75,19,0.75,Stimuli/P017/sun_brrwzaypucosdcgt.jpg,0,0,0.0,0,198,198,198,,,,,,,,,,,,,118.00464360000115,0.004643600001145387,None,157.49407930000234,157.49407930000234,157.49407930000234,157.49407930000234,157.49407930000234,157.49407930000234,157.49407930000234,157.49407930000234,157.49407930000234,157.49407930000234,,001,P017,2025_Mar_07_1551,ConditionRich,2021.2.3,59.93058839292068,
118.75,119.0,41,0.0,Stimuli/Blank.png,0,0,0.0,0,199,199,199,,,,,,,,,,,,,118.77164809999886,0.021648099998856196,None,158.2447604000008,158.2447604000008,158.2447604000008,158.2447604000008,158.2447604000008,158.2447604000008,158.2447604000008,158.2447604000008,158.2447604000008,158.2447604000008,,001,P017,2025_Mar_07_1551,ConditionRich,2021.2.3,59.93058839292068,
119.0,119.75,19,0.75,Stimuli/P017/sun_brrwzaypucosdcgt.jpg,0,0,0.0,0,200,200,200,,,,,,,,,,,,,119.00701789999948,0.007017899999482324,None,158.4949708000022,158.4949708000022,158.4949708000022,158.4949708000022,158.4949708000022,158.4949708000022,158.4949708000022,158.4949708000022,158.4949708000022,158.4949708000022,,001,P017,2025_Mar_07_1551,ConditionRich,2021.2.3,59.93058839292068,
119.75,120.0,41,0.0,Stimuli/Blank.png,0,0,0.0,0,201,201,201,,,,,,,,,,,,,119.77274430000034,0.022744300000340445,None,159.2456284,159.2456284,159.2456284,159.2456284,159.2456284,159.2456284,159.2456284,159.2456284,159.2456284,159.2456284,,001,P017,2025_Mar_07_1551,ConditionRich,2021.2.3,59.93058839292068,
120.0,120.75,26,0.75,Stimuli/P017/things_chandelier_09s.jpg,0,0,0.0,0,202,202,202,,,,,,,,,,,,,120.0059110000002,0.005911000000196509,None,159.49585410000145,159.49585410000145,159.49585410000145,159.49585410000145,159.49585410000145,159.49585410000145,159.49585410000145,159.49585410000145,159.49585410000145,159.49585410000145,,001,P017,2025_Mar_07_1551,ConditionRich,2021.2.3,59.93058839292068,
120.75,121.0,41,0.0,Stimuli/Blank.png,0,0,0.0,0,203,203,203,,,,,,,,,,,,,120.77282249999917,0.022822499999165302,None,160.2465204,160.2465204,160.2465204,160.2465204,160.2465204,160.2465204,160.2465204,160.2465204,160.2465204,160.2465204,,001,P017,2025_Mar_07_1551,ConditionRich,2021.2.3,59.93058839292068,
121.0,121.75,26,0.75,Stimuli/P017/things_chandelier_09s.jpg,0,0,0.0,0,204,204,204,,,,,,,,,,,,,121.00692049999998,0.006920499999978347,None,160.49673579999944,160.49673579999944,160.49673579999944,160.49673579999944,160.49673579999944,160.49673579999944,160.49673579999944,160.49673579999944,160.49673579999944,160.49673579999944,,001,P017,2025_Mar_07_1551,ConditionRich,2021.2.3,59.93058839292068,
121.75,122.0,41,0.0,Stimuli/Blank.png,0,0,0.0,0,205,205,205,,,,,,,,,,,,,121.77657100000215,0.026571000002149958,None,161.26408820000142,161.26408820000142,161.26408820000142,161.26408820000142,161.26408820000142,161.26408820000142,161.26408820000142,161.26408820000142,161.26408820000142,161.26408820000142,,001,P017,2025_Mar_07_1551,ConditionRich,2021.2.3,59.93058839292068,
122.0,122.75,26,0.75,Stimuli/P017/things_chandelier_09s.jpg,0,0,0.0,0,206,206,206,,,,,,,,,,,,,122.02610690000074,0.026106900000741007,None,161.5142999000018,161.5142999000018,161.5142999000018,161.5142999000018,161.5142999000018,161.5142999000018,161.5142999000018,161.5142999000018,161.5142999000018,161.5142999000018,,001,P017,2025_Mar_07_1551,ConditionRich,2021.2.3,59.93058839292068,
122.75,123.0,41,0.0,Stimuli/Blank.png,0,0,0.0,0,207,207,207,,,,,,,,,,,,,122.77756510000108,0.02756510000108392,None,162.26497350000136,162.26497350000136,162.26497350000136,162.26497350000136,162.26497350000136,162.26497350000136,162.26497350000136,162.26497350000136,162.26497350000136,162.26497350000136,,001,P017,2025_Mar_07_1551,ConditionRich,2021.2.3,59.93058839292068,
123.0,123.75,26,0.75,Stimuli/P017/things_chandelier_09s.jpg,0,0,0.0,0,208,208,208,,,,,,,,,,,,,123.02549200000067,0.02549200000066776,None,162.51518790000046,162.51518790000046,162.51518790000046,162.51518790000046,162.51518790000046,162.51518790000046,162.51518790000046,162.51518790000046,162.51518790000046,162.51518790000046,,001,P017,2025_Mar_07_1551,ConditionRich,2021.2.3,59.93058839292068,
123.75,124.0,41,0.0,Stimuli/Blank.png,0,0,0.0,0,209,209,209,,,,,,,,,,,,,123.77605340000082,0.026053400000819238,None,163.24917130000176,163.24917130000176,163.24917130000176,163.24917130000176,163.24917130000176,163.24917130000176,163.24917130000176,163.24917130000176,163.24917130000176,163.24917130000176,,001,P017,2025_Mar_07_1551,ConditionRich,2021.2.3,59.93058839292068,
124.0,124.75,38,0.75,Stimuli/P017/things_pony_09s.jpg,0,0,0.0,0,210,210,210,,,,,,,,,,,,,124.01159030000053,0.011590300000534626,None,163.49940190000052,163.49940190000052,163.49940190000052,163.49940190000052,163.49940190000052,163.49940190000052,163.49940190000052,163.49940190000052,163.49940190000052,163.49940190000052,,001,P017,2025_Mar_07_1551,ConditionRich,2021.2.3,59.93058839292068,
124.75,125.0,41,0.0,Stimuli/Blank.png,0,0,0.0,0,211,211,211,,,,,,,,,,,,,124.77832520000084,0.02832520000083605,None,164.2500645,164.2500645,164.2500645,164.2500645,164.2500645,164.2500645,164.2500645,164.2500645,164.2500645,164.2500645,,001,P017,2025_Mar_07_1551,ConditionRich,2021.2.3,59.93058839292068,
125.0,125.75,38,0.75,Stimuli/P017/things_pony_09s.jpg,0,0,0.0,0,212,212,212,,,,,,,,,,,,,125.01084730000002,0.010847300000023097,None,164.50027469999986,164.50027469999986,164.50027469999986,164.50027469999986,164.50027469999986,164.50027469999986,164.50027469999986,164.50027469999986,164.50027469999986,164.50027469999986,,001,P017,2025_Mar_07_1551,ConditionRich,2021.2.3,59.93058839292068,
125.75,126.0,41,0.0,Stimuli/Blank.png,0,0,0.0,0,213,213,213,,,,,,,,,,,,,125.77719480000087,0.0271948000008706,None,165.25093710000147,165.25093710000147,165.25093710000147,165.25093710000147,165.25093710000147,165.25093710000147,165.25093710000147,165.25093710000147,165.25093710000147,165.25093710000147,,001,P017,2025_Mar_07_1551,ConditionRich,2021.2.3,59.93058839292068,
126.0,126.75,38,0.75,Stimuli/P017/things_pony_09s.jpg,0,0,0.0,0,214,214,214,,,,,,,,,,,,,126.0108547000018,0.010854700001800666,None,165.48447970000052,165.48447970000052,165.48447970000052,165.48447970000052,165.48447970000052,165.48447970000052,165.48447970000052,165.48447970000052,165.48447970000052,165.48447970000052,,001,P017,2025_Mar_07_1551,ConditionRich,2021.2.3,59.93058839292068,
126.75,127.0,41,0.0,Stimuli/Blank.png,0,0,0.0,0,215,215,215,,,,,,,,,,,,,126.76203760000135,0.012037600001349347,None,166.23513570000068,166.23513570000068,166.23513570000068,166.23513570000068,166.23513570000068,166.23513570000068,166.23513570000068,166.23513570000068,166.23513570000068,166.23513570000068,,001,P017,2025_Mar_07_1551,ConditionRich,2021.2.3,59.93058839292068,
127.0,127.75,38,0.75,Stimuli/P017/things_pony_09s.jpg,0,0,0.0,0,216,216,216,,,,,,,,,,,,,127.01168650000182,0.011686500001815148,None,166.48538389999885,166.48538389999885,166.48538389999885,166.48538389999885,166.48538389999885,166.48538389999885,166.48538389999885,166.48538389999885,166.48538389999885,166.48538389999885,,001,P017,2025_Mar_07_1551,ConditionRich,2021.2.3,59.93058839292068,
127.75,128.0,41,0.0,Stimuli/Blank.png,0,0,0.0,0,217,217,217,,,,,,,,,,,,,127.76223469999968,0.012234699999680743,None,167.2360163000012,167.2360163000012,167.2360163000012,167.2360163000012,167.2360163000012,167.2360163000012,167.2360163000012,167.2360163000012,167.2360163000012,167.2360163000012,,001,P017,2025_Mar_07_1551,ConditionRich,2021.2.3,59.93058839292068,
128.0,128.75,15,0.75,Stimuli/P017/sun_bobznlnnzwznersx.jpg,0,0,0.0,0,218,218,218,,,,,,,,,,,,,128.01313579999987,0.013135799999872688,None,167.48624890000065,167.48624890000065,167.48624890000065,167.48624890000065,167.48624890000065,167.48624890000065,167.48624890000065,167.48624890000065,167.48624890000065,167.48624890000065,,001,P017,2025_Mar_07_1551,ConditionRich,2021.2.3,59.93058839292068,
128.75,129.0,41,0.0,Stimuli/Blank.png,0,0,0.0,0,219,219,219,,,,,,,,,,,,,128.7631454000002,0.013145400000212248,None,168.23690849999912,168.23690849999912,168.23690849999912,168.23690849999912,168.23690849999912,168.23690849999912,168.23690849999912,168.23690849999912,168.23690849999912,168.23690849999912,,001,P017,2025_Mar_07_1551,ConditionRich,2021.2.3,59.93058839292068,
129.0,129.75,15,0.75,Stimuli/P017/sun_bobznlnnzwznersx.jpg,0,0,0.0,0,220,220,220,,,,,,,,,,,,,129.01391460000013,0.01391460000013467,None,168.5038194000008,168.5038194000008,168.5038194000008,168.5038194000008,168.5038194000008,168.5038194000008,168.5038194000008,168.5038194000008,168.5038194000008,168.5038194000008,,001,P017,2025_Mar_07_1551,ConditionRich,2021.2.3,59.93058839292068,
129.75,130.0,41,0.0,Stimuli/Blank.png,0,0,0.0,0,221,221,221,,,,,,,,,,,,,129.7806223000007,0.030622300000686664,None,169.2544717000019,169.2544717000019,169.2544717000019,169.2544717000019,169.2544717000019,169.2544717000019,169.2544717000019,169.2544717000019,169.2544717000019,169.2544717000019,,001,P017,2025_Mar_07_1551,ConditionRich,2021.2.3,59.93058839292068,
130.0,130.75,15,0.75,Stimuli/P017/sun_bobznlnnzwznersx.jpg,0,0,0.0,0,222,222,222,,,,,,,,,,,,,130.0151384000019,0.01513840000188793,None,169.4880140000023,169.4880140000023,169.4880140000023,169.4880140000023,169.4880140000023,169.4880140000023,169.4880140000023,169.4880140000023,169.4880140000023,169.4880140000023,,001,P017,2025_Mar_07_1551,ConditionRich,2021.2.3,59.93058839292068,
130.75,131.0,41,0.0,Stimuli/Blank.png,0,0,0.0,0,223,223,223,,,,,,,,,,,,,130.74882799999978,-0.001172000000224216,None,170.222119500002,170.222119500002,170.222119500002,170.222119500002,170.222119500002,170.222119500002,170.222119500002,170.222119500002,170.222119500002,170.222119500002,,001,P017,2025_Mar_07_1551,ConditionRich,2021.2.3,59.93058839292068,
131.0,131.75,15,0.75,Stimuli/P017/sun_bobznlnnzwznersx.jpg,1,0,0.75,0,224,224,224,,,,,,,,,,,,,131.0151482000001,0.01514820000011241,1,170.4888959000018,170.4888959000018,170.4888959000018,170.4888959000018,170.4888959000018,170.4888959000018,170.4888959000018,None,170.4888959000018,170.4888959000018,0.41110410000328557,001,P017,2025_Mar_07_1551,ConditionRich,2021.2.3,59.93058839292068,
131.75,132.0,41,0.0,Stimuli/Blank.png,0,0,0.0,0,225,225,225,,,,,,,,,,,,,131.75109760000123,0.001097600001230603,None,171.22289029999956,171.22289029999956,171.22289029999956,171.22289029999956,171.22289029999956,171.22289029999956,171.22289029999956,171.22289029999956,171.22289029999956,171.22289029999956,,001,P017,2025_Mar_07_1551,ConditionRich,2021.2.3,59.93058839292068,
132.0,132.75,37,0.75,Stimuli/P017/things_plastic_film_09s.jpg,0,0,0.0,0,226,226,226,,,,,,,,,,,,,132.00163090000206,0.0016309000020555686,None,171.4897846999993,171.4897846999993,171.4897846999993,171.4897846999993,171.4897846999993,171.4897846999993,171.4897846999993,171.4897846999993,171.4897846999993,171.4897846999993,,001,P017,2025_Mar_07_1551,ConditionRich,2021.2.3,59.93058839292068,
132.75,133.0,41,0.0,Stimuli/Blank.png,0,0,0.0,0,227,227,227,,,,,,,,,,,,,132.76662170000054,0.01662170000054175,None,172.24044460000005,172.24044460000005,172.24044460000005,172.24044460000005,172.24044460000005,172.24044460000005,172.24044460000005,172.24044460000005,172.24044460000005,172.24044460000005,,001,P017,2025_Mar_07_1551,ConditionRich,2021.2.3,59.93058839292068,
133.0,133.75,37,0.75,Stimuli/P017/things_plastic_film_09s.jpg,0,0,0.0,0,228,228,228,,,,,,,,,,,,,133.0007071,0.0007070999999996275,None,172.47397959999944,172.47397959999944,172.47397959999944,172.47397959999944,172.47397959999944,172.47397959999944,172.47397959999944,172.47397959999944,172.47397959999944,172.47397959999944,,001,P017,2025_Mar_07_1551,ConditionRich,2021.2.3,59.93058839292068,
133.75,134.0,41,0.0,Stimuli/Blank.png,0,0,0.0,0,229,229,229,,,,,,,,,,,,,133.75159150000036,0.001591500000358792,None,173.22465419999935,173.22465419999935,173.22465419999935,173.22465419999935,173.22465419999935,173.22465419999935,173.22465419999935,173.22465419999935,173.22465419999935,173.22465419999935,,001,P017,2025_Mar_07_1551,ConditionRich,2021.2.3,59.93058839292068,
134.0,134.75,37,0.75,Stimuli/P017/things_plastic_film_09s.jpg,0,0,0.0,0,230,230,230,,,,,,,,,,,,,134.00176270000156,0.001762700001563644,None,173.49157829999967,173.49157829999967,173.49157829999967,173.49157829999967,173.49157829999967,173.49157829999967,173.49157829999967,173.49157829999967,173.49157829999967,173.49157829999967,,001,P017,2025_Mar_07_1551,ConditionRich,2021.2.3,59.93058839292068,
134.75,135.0,41,0.0,Stimuli/Blank.png,0,0,0.0,0,231,231,231,,,,,,,,,,,,,134.76887220000208,0.018872200002078898,None,174.24228810000204,174.24228810000204,174.24228810000204,174.24228810000204,174.24228810000204,174.24228810000204,174.24228810000204,174.24228810000204,174.24228810000204,174.24228810000204,,001,P017,2025_Mar_07_1551,ConditionRich,2021.2.3,59.93058839292068,
135.0,135.75,37,0.75,Stimuli/P017/things_plastic_film_09s.jpg,0,0,0.0,0,232,232,232,,,,,,,,,,,,,135.003330800002,0.0033308000020042527,None,174.47596590000103,174.47596590000103,174.47596590000103,174.47596590000103,174.47596590000103,174.47596590000103,174.47596590000103,174.47596590000103,174.47596590000103,174.47596590000103,,001,P017,2025_Mar_07_1551,ConditionRich,2021.2.3,59.93058839292068,
135.75,136.0,41,0.0,Stimuli/Blank.png,0,0,0.0,0,233,233,233,,,,,,,,,,,,,135.75362049999967,0.003620499999669846,None,175.22642379999888,175.22642379999888,175.22642379999888,175.22642379999888,175.22642379999888,175.22642379999888,175.22642379999888,175.22642379999888,175.22642379999888,175.22642379999888,,001,P017,2025_Mar_07_1551,ConditionRich,2021.2.3,59.93058839292068,
136.0,136.75,3,0.75,Stimuli/P017/sun_acymmczhyuiimeub.jpg,1,0,0.75,0,234,234,234,,,,,,,,,,,,,136.00375170000189,0.003751700001885183,1,175.4933149999997,175.4933149999997,175.4933149999997,175.4933149999997,175.4933149999997,175.4933149999997,175.4933149999997,176.2106582000015,175.4933149999997,175.4933149999997,0.47279729999718256,001,P017,2025_Mar_07_1551,ConditionRich,2021.2.3,59.93058839292068,
136.75,137.0,41,0.0,Stimuli/Blank.png,0,0,0.0,0,235,235,235,,,,,,,,,,,,,136.77098060000208,0.020980600002076244,None,176.24398550000114,176.24398550000114,176.24398550000114,176.24398550000114,176.24398550000114,176.24398550000114,176.24398550000114,176.24398550000114,176.24398550000114,176.24398550000114,,001,P017,2025_Mar_07_1551,ConditionRich,2021.2.3,59.93058839292068,
137.0,137.75,3,0.75,Stimuli/P017/sun_acymmczhyuiimeub.jpg,0,0,0.0,0,236,236,236,,,,,,,,,,,,,137.0063614999999,0.006361499999911757,None,176.49421710000024,176.49421710000024,176.49421710000024,176.49421710000024,176.49421710000024,176.49421710000024,176.49421710000024,176.49421710000024,176.49421710000024,176.49421710000024,,001,P017,2025_Mar_07_1551,ConditionRich,2021.2.3,59.93058839292068,
137.75,138.0,41,0.0,Stimuli/Blank.png,0,0,0.0,0,237,237,237,,,,,,,,,,,,,137.77108880000014,0.021088800000143237,None,177.2448758999999,177.2448758999999,177.2448758999999,177.2448758999999,177.2448758999999,177.2448758999999,177.2448758999999,177.2448758999999,177.2448758999999,177.2448758999999,,001,P017,2025_Mar_07_1551,ConditionRich,2021.2.3,59.93058839292068,
138.0,138.75,3,0.75,Stimuli/P017/sun_acymmczhyuiimeub.jpg,0,0,0.0,0,238,238,238,,,,,,,,,,,,,138.00652350000018,0.0065235000001848675,None,177.495094599999,177.495094599999,177.495094599999,177.495094599999,177.495094599999,177.495094599999,177.495094599999,177.495094599999,177.495094599999,177.495094599999,,001,P017,2025_Mar_07_1551,ConditionRich,2021.2.3,59.93058839292068,
138.75,139.0,41,0.0,Stimuli/Blank.png,0,0,0.0,0,239,239,239,,,,,,,,,,,,,138.7724831000014,0.022483100001409184,None,178.2457574,178.2457574,178.2457574,178.2457574,178.2457574,178.2457574,178.2457574,178.2457574,178.2457574,178.2457574,,001,P017,2025_Mar_07_1551,ConditionRich,2021.2.3,59.93058839292068,
139.0,139.75,3,0.75,Stimuli/P017/sun_acymmczhyuiimeub.jpg,0,0,0.0,0,240,240,240,,,,,,,,,,,,,139.0061495000009,0.006149500000901753,None,178.4792548000005,178.4792548000005,178.4792548000005,178.4792548000005,178.4792548000005,178.4792548000005,178.4792548000005,178.4792548000005,178.4792548000005,178.4792548000005,,001,P017,2025_Mar_07_1551,ConditionRich,2021.2.3,59.93058839292068,
139.75,140.0,41,0.0,Stimuli/Blank.png,0,0,0.0,0,241,241,241,,,,,,,,,,,,,139.75720840000213,0.007208400002127746,None,179.2299563000015,179.2299563000015,179.2299563000015,179.2299563000015,179.2299563000015,179.2299563000015,179.2299563000015,179.2299563000015,179.2299563000015,179.2299563000015,,001,P017,2025_Mar_07_1551,ConditionRich,2021.2.3,59.93058839292068,
140.0,140.75,4,0.75,Stimuli/P017/sun_aibvvqlmlsjnrgdj.jpg,0,0,0.0,0,242,242,242,,,,,,,,,,,,,140.00699480000185,0.006994800001848489,None,179.49688360000073,179.49688360000073,179.49688360000073,179.49688360000073,179.49688360000073,179.49688360000073,179.49688360000073,179.49688360000073,179.49688360000073,179.49688360000073,,001,P017,2025_Mar_07_1551,ConditionRich,2021.2.3,59.93058839292068,
140.75,141.0,41,0.0,Stimuli/Blank.png,0,0,0.0,0,243,243,243,,,,,,,,,,,,,140.77542230000108,0.025422300001082476,None,180.24752440000157,180.24752440000157,180.24752440000157,180.24752440000157,180.24752440000157,180.24752440000157,180.24752440000157,180.24752440000157,180.24752440000157,180.24752440000157,,001,P017,2025_Mar_07_1551,ConditionRich,2021.2.3,59.93058839292068,
141.0,141.75,4,0.75,Stimuli/P017/sun_aibvvqlmlsjnrgdj.jpg,0,0,0.0,0,244,244,244,,,,,,,,,,,,,141.0075766000009,0.007576600000902545,None,180.49778650000007,180.49778650000007,180.49778650000007,180.49778650000007,180.49778650000007,180.49778650000007,180.49778650000007,180.49778650000007,180.49778650000007,180.49778650000007,,001,P017,2025_Mar_07_1551,ConditionRich,2021.2.3,59.93058839292068,
141.75,142.0,41,0.0,Stimuli/Blank.png,0,0,0.0,0,245,245,245,,,,,,,,,,,,,141.77526690000013,0.02526690000013332,None,181.2484054000015,181.2484054000015,181.2484054000015,181.2484054000015,181.2484054000015,181.2484054000015,181.2484054000015,181.2484054000015,181.2484054000015,181.2484054000015,,001,P017,2025_Mar_07_1551,ConditionRich,2021.2.3,59.93058839292068,
142.0,142.75,4,0.75,Stimuli/P017/sun_aibvvqlmlsjnrgdj.jpg,0,0,0.0,0,246,246,246,,,,,,,,,,,,,142.0086349000012,0.00863490000119782,None,181.49863829999958,181.49863829999958,181.49863829999958,181.49863829999958,181.49863829999958,181.49863829999958,181.49863829999958,181.49863829999958,181.49863829999958,181.49863829999958,,001,P017,2025_Mar_07_1551,ConditionRich,2021.2.3,59.93058839292068,
142.75,143.0,41,0.0,Stimuli/Blank.png,0,0,0.0,0,247,247,247,,,,,,,,,,,,,142.77619659999982,0.026196599999821046,None,182.24928740000178,182.24928740000178,182.24928740000178,182.24928740000178,182.24928740000178,182.24928740000178,182.24928740000178,182.24928740000178,182.24928740000178,182.24928740000178,,001,P017,2025_Mar_07_1551,ConditionRich,2021.2.3,59.93058839292068,
143.0,143.75,4,0.75,Stimuli/P017/sun_aibvvqlmlsjnrgdj.jpg,1,0,0.75,0,248,248,248,,,,,,,,,,,,,143.0101082000001,0.010108200000104262,1,182.4995181000013,182.4995181000013,182.4995181000013,182.4995181000013,182.4995181000013,182.4995181000013,182.4995181000013,183.21680280000146,182.4995181000013,182.4995181000013,0.4522417999978643,001,P017,2025_Mar_07_1551,ConditionRich,2021.2.3,59.93058839292068,
143.75,144.0,41,0.0,Stimuli/Blank.png,0,0,0.0,0,249,249,249,,,,,,,,,,,,,143.7778044000006,0.0278044000006048,None,183.266883100001,183.266883100001,183.266883100001,183.266883100001,183.266883100001,183.266883100001,183.266883100001,183.266883100001,183.266883100001,183.266883100001,,001,P017,2025_Mar_07_1551,ConditionRich,2021.2.3,59.93058839292068,
144.0,144.75,35,0.75,Stimuli/P017/things_lobster_09s.jpg,0,0,0.0,0,250,250,250,,,,,,,,,,,,,144.02742130000115,0.027421300001151394,None,183.51709010000195,183.51709010000195,183.51709010000195,183.51709010000195,183.51709010000195,183.51709010000195,183.51709010000195,183.51709010000195,183.51709010000195,183.51709010000195,,001,P017,2025_Mar_07_1551,ConditionRich,2021.2.3,59.93058839292068,
144.75,145.0,41,0.0,Stimuli/Blank.png,0,0,0.0,0,251,251,251,,,,,,,,,,,,,144.77828180000142,0.028281800001423107,None,184.26775510000152,184.26775510000152,184.26775510000152,184.26775510000152,184.26775510000152,184.26775510000152,184.26775510000152,184.26775510000152,184.26775510000152,184.26775510000152,,001,P017,2025_Mar_07_1551,ConditionRich,2021.2.3,59.93058839292068,
145.0,145.75,35,0.75,Stimuli/P017/things_lobster_09s.jpg,0,0,0.0,0,252,252,252,,,,,,,,,,,,,145.02840460000152,0.02840460000152234,None,184.501275300001,184.501275300001,184.501275300001,184.501275300001,184.501275300001,184.501275300001,184.501275300001,184.501275300001,184.501275300001,184.501275300001,,001,P017,2025_Mar_07_1551,ConditionRich,2021.2.3,59.93058839292068,
145.75,146.0,41,0.0,Stimuli/Blank.png,0,0,0.0,0,253,253,253,,,,,,,,,,,,,145.76172750000114,0.011727500001143198,None,185.23526100000163,185.23526100000163,185.23526100000163,185.23526100000163,185.23526100000163,185.23526100000163,185.23526100000163,185.23526100000163,185.23526100000163,185.23526100000163,,001,P017,2025_Mar_07_1551,ConditionRich,2021.2.3,59.93058839292068,
146.0,146.75,35,0.75,Stimuli/P017/things_lobster_09s.jpg,0,0,0.0,0,254,254,254,,,,,,,,,,,,,146.0127171000022,0.012717100002191728,None,185.502199999999,185.502199999999,185.502199999999,185.502199999999,185.502199999999,185.502199999999,185.502199999999,185.502199999999,185.502199999999,185.502199999999,,001,P017,2025_Mar_07_1551,ConditionRich,2021.2.3,59.93058839292068,
146.75,147.0,41,0.0,Stimuli/Blank.png,0,0,0.0,0,255,255,255,,,,,,,,,,,,,146.77931480000188,0.029314800001884578,None,186.25286300000153,186.25286300000153,186.25286300000153,186.25286300000153,186.25286300000153,186.25286300000153,186.25286300000153,186.25286300000153,186.25286300000153,186.25286300000153,,001,P017,2025_Mar_07_1551,ConditionRich,2021.2.3,59.93058839292068,
147.0,147.75,35,0.75,Stimuli/P017/things_lobster_09s.jpg,1,0,0.75,0,256,256,256,,,,,,,,,,,,,147.0126049999999,0.012604999999894062,1,186.48635999999897,186.48635999999897,186.48635999999897,186.48635999999897,186.48635999999897,186.48635999999897,186.48635999999897,187.2203526000012,186.48635999999897,186.48635999999897,0.4174899000026926,001,P017,2025_Mar_07_1551,ConditionRich,2021.2.3,59.93058839292068,
147.75,148.0,41,0.0,Stimuli/Blank.png,0,0,0.0,0,257,257,257,,,,,,,,,,,,,147.76325039999938,0.013250399999378715,None,187.23703490000116,187.23703490000116,187.23703490000116,187.23703490000116,187.23703490000116,187.23703490000116,187.23703490000116,187.23703490000116,187.23703490000116,187.23703490000116,,001,P017,2025_Mar_07_1551,ConditionRich,2021.2.3,59.93058839292068,
148.0,148.75,18,0.75,Stimuli/P017/sun_brrvvswweljrvnlq.jpg,0,0,0.0,0,258,258,258,,,,,,,,,,,,,148.0134754999999,0.013475499999913154,None,187.50394000000233,187.50394000000233,187.50394000000233,187.50394000000233,187.50394000000233,187.50394000000233,187.50394000000233,187.50394000000233,187.50394000000233,187.50394000000233,,001,P017,2025_Mar_07_1551,ConditionRich,2021.2.3,59.93058839292068,
148.75,149.0,41,0.0,Stimuli/Blank.png,0,0,0.0,0,259,259,259,,,,,,,,,,,,,148.7816187999997,0.031618799999705516,None,188.25461390000055,188.25461390000055,188.25461390000055,188.25461390000055,188.25461390000055,188.25461390000055,188.25461390000055,188.25461390000055,188.25461390000055,188.25461390000055,,001,P017,2025_Mar_07_1551,ConditionRich,2021.2.3,59.93058839292068,
149.0,149.75,18,0.75,Stimuli/P017/sun_brrvvswweljrvnlq.jpg,0,0,0.0,0,260,260,260,,,,,,,,,,,,,149.01742379999996,0.017423799999960465,None,188.50482310000007,188.50482310000007,188.50482310000007,188.50482310000007,188.50482310000007,188.50482310000007,188.50482310000007,188.50482310000007,188.50482310000007,188.50482310000007,,001,P017,2025_Mar_07_1551,ConditionRich,2021.2.3,59.93058839292068,
149.75,150.0,41,0.0,Stimuli/Blank.png,0,0,0.0,0,261,261,261,,,,,,,,,,,,,149.765634899999,0.01563489999898593,None,189.23880420000205,189.23880420000205,189.23880420000205,189.23880420000205,189.23880420000205,189.23880420000205,189.23880420000205,189.23880420000205,189.23880420000205,189.23880420000205,,001,P017,2025_Mar_07_1551,ConditionRich,2021.2.3,59.93058839292068,
150.0,150.75,18,0.75,Stimuli/P017/sun_brrvvswweljrvnlq.jpg,0,0,0.0,0,262,262,262,,,,,,,,,,,,,149.99953230000028,-0.00046769999971729703,None,189.48902069999895,189.48902069999895,189.48902069999895,189.48902069999895,189.48902069999895,189.48902069999895,189.48902069999895,189.48902069999895,189.48902069999895,189.48902069999895,,001,P017,2025_Mar_07_1551,ConditionRich,2021.2.3,59.93058839292068,
