eventStartTime,eventEndTime,eventCond,imSize,imFile,responseEvent,fixRespStart,fixRespEnd,Events.thisRepN,Events.thisTrialN,Events.thisN,Events.thisIndex,Instructions.started,Instructions.stopped,participantReadyResponse.keys,participantReadyResponse.rt,participantReadyResponse.started,participantReadyResponse.stopped,startWaitforTrigger,triggerResponse.keys,triggerResponse.rt,triggerResponse.started,triggerResponse.stopped,globalTimer,actualStartTime,startTimingDiff,participantResponse.keys,participantResponse.started,participantResponse.stopped,image.started,image.stopped,fixationOutside.started,fixationOutside.stopped,fixationResponse.started,fixationResponse.stopped,fixationInside.started,fixationInside.stopped,participantResponse.rt,session,participant,date,expName,psychopyVersion,frameRate,
,,,,,,,,,,,,9.955210199994326,None,2,3.441487500000221,9.955210199994326,None,,,,,,,,,,,,,,,,,,,,,009,P018,2025_Mar_07_1854,ConditionRich,2021.2.3,59.96483662081602,
,,,,,,,,,,,,,,,,,,13.40552889999526,5,14.889205100000254,13.418711300000723,None,,,,,,,,,,,,,,,,009,P018,2025_Mar_07_1854,ConditionRich,2021.2.3,59.96483662081602,
0.0,4.0,0,0.0,Stimuli/Blank.png,0,0.0,0.0,0,0,0,0,,,,,,,,,,,,28.318879799997376,0.032533200006582774,0.032533200006582774,None,28.365206399997987,None,28.365206399997987,None,28.365206399997987,None,28.365206399997987,28.365206399997987,28.365206399997987,None,,009,P018,2025_Mar_07_1854,ConditionRich,2021.2.3,59.96483662081602,
4.0,4.75,22,0.75,Stimuli/P018/things_boat_09s.jpg,0,0.0,0.0,0,1,1,1,,,,,,,,,,,,,4.006813800006057,0.006813800006057136,None,32.35234159999527,32.35234159999527,32.35234159999527,32.35234159999527,32.35234159999527,32.35234159999527,32.35234159999527,32.35234159999527,32.35234159999527,32.35234159999527,,009,P018,2025_Mar_07_1854,ConditionRich,2021.2.3,59.96483662081602,
4.75,8.0,41,0.0,Stimuli/Blank.png,0,0.0,0.0,0,2,2,2,,,,,,,,,,,,,4.769874300000083,0.019874300000083167,None,33.10303429999476,33.10303429999476,33.10303429999476,33.10303429999476,33.10303429999476,33.10303429999476,33.10303429999476,33.10303429999476,33.10303429999476,33.10303429999476,,009,P018,2025_Mar_07_1854,ConditionRich,2021.2.3,59.96483662081602,
8.0,8.75,5,0.75,Stimuli/P018/sun_apojgqgvdvsksdvo.jpg,0,0.0,0.0,0,3,3,3,,,,,,,,,,,,,8.006171900000481,0.006171900000481401,None,36.33905329999834,36.33905329999834,36.33905329999834,36.33905329999834,36.33905329999834,36.33905329999834,36.33905329999834,36.33905329999834,36.33905329999834,36.33905329999834,,009,P018,2025_Mar_07_1854,ConditionRich,2021.2.3,59.96483662081602,
8.75,12.0,41,0.0,Stimuli/Blank.png,0,0.0,0.0,0,4,4,4,,,,,,,,,,,,,8.756548800003657,0.006548800003656652,None,37.08971549999842,37.08971549999842,37.08971549999842,37.08971549999842,37.08971549999842,37.08971549999842,37.08971549999842,37.08971549999842,37.08971549999842,37.08971549999842,,009,P018,2025_Mar_07_1854,ConditionRich,2021.2.3,59.96483662081602,
12.0,12.75,26,0.75,Stimuli/P018/things_chandelier_09s.jpg,0,0.0,0.0,0,5,5,5,,,,,,,,,,,,,12.010063600006106,0.010063600006105844,None,40.34263859999919,40.34263859999919,40.34263859999919,40.34263859999919,40.34263859999919,40.34263859999919,40.34263859999919,40.34263859999919,40.34263859999919,40.34263859999919,,009,P018,2025_Mar_07_1854,ConditionRich,2021.2.3,59.96483662081602,
12.75,16.0,41,0.0,Stimuli/Blank.png,0,0.0,0.0,0,6,6,6,,,,,,,,,,,,,12.760088100003486,0.010088100003486034,None,41.093376799995895,41.093376799995895,41.093376799995895,41.093376799995895,41.093376799995895,41.093376799995895,41.093376799995895,41.093376799995895,41.093376799995895,41.093376799995895,,009,P018,2025_Mar_07_1854,ConditionRich,2021.2.3,59.96483662081602,
16.0,16.75,35,0.75,Stimuli/P018/things_lobster_09s.jpg,0,0.0,0.0,0,7,7,7,,,,,,,,,,,,,16.014835900001344,0.014835900001344271,None,44.36294339999586,44.36294339999586,44.36294339999586,44.36294339999586,44.36294339999586,44.36294339999586,44.36294339999586,44.36294339999586,44.36294339999586,44.36294339999586,,009,P018,2025_Mar_07_1854,ConditionRich,2021.2.3,59.96483662081602,
16.75,20.0,41,0.0,Stimuli/Blank.png,1,2.25,3.0,0,8,8,8,,,,,,,,,,,,,16.78016480000224,0.030164800002239645,2,45.113596999995934,45.113596999995934,45.113596999995934,45.113596999995934,45.113596999995934,45.113596999995934,47.349047099996824,48.09956809999858,45.113596999995934,45.113596999995934,2.591461000003619,009,P018,2025_Mar_07_1854,ConditionRich,2021.2.3,59.96483662081602,
20.0,20.75,13,0.75,Stimuli/P018/sun_bizqwyomkqigheyx.jpg,1,0.0,0.75,0,9,9,9,,,,,,,,,,,,,20.00038940000377,0.00038940000376896933,2,48.33307049999712,48.33307049999712,48.33307049999712,48.33307049999712,48.33307049999712,48.33307049999712,48.33307049999712,49.06706380000105,48.33307049999712,48.33307049999712,0.551774600004137,009,P018,2025_Mar_07_1854,ConditionRich,2021.2.3,59.96483662081602,
20.75,24.0,41,0.0,Stimuli/Blank.png,0,0.0,0.0,0,10,10,10,,,,,,,,,,,,,20.750879000006535,0.0008790000065346248,None,49.08377610000025,49.08377610000025,49.08377610000025,49.08377610000025,49.08377610000025,49.08377610000025,49.08377610000025,49.08377610000025,49.08377610000025,49.08377610000025,,009,P018,2025_Mar_07_1854,ConditionRich,2021.2.3,59.96483662081602,
24.0,24.75,8,0.75,Stimuli/P018/sun_axsmqyyvebrcuhkn.jpg,0,0.0,0.0,0,11,11,11,,,,,,,,,,,,,24.004155000002356,0.004155000002356246,None,52.336658799998986,52.336658799998986,52.336658799998986,52.336658799998986,52.336658799998986,52.336658799998986,52.336658799998986,52.336658799998986,52.336658799998986,52.336658799998986,,009,P018,2025_Mar_07_1854,ConditionRich,2021.2.3,59.96483662081602,
24.75,28.0,41,0.0,Stimuli/Blank.png,0,0.0,0.0,0,12,12,12,,,,,,,,,,,,,24.753785500004597,0.0037855000045965426,None,53.087294299999485,53.087294299999485,53.087294299999485,53.087294299999485,53.087294299999485,53.087294299999485,53.087294299999485,53.087294299999485,53.087294299999485,53.087294299999485,,009,P018,2025_Mar_07_1854,ConditionRich,2021.2.3,59.96483662081602,
28.0,28.75,19,0.75,Stimuli/P018/sun_brrwzaypucosdcgt.jpg,0,0.0,0.0,0,13,13,13,,,,,,,,,,,,,28.010133900002984,0.010133900002983864,None,56.356894899996405,56.356894899996405,56.356894899996405,56.356894899996405,56.356894899996405,56.356894899996405,56.356894899996405,56.356894899996405,56.356894899996405,56.356894899996405,,009,P018,2025_Mar_07_1854,ConditionRich,2021.2.3,59.96483662081602,
28.75,32.0,41,0.0,Stimuli/Blank.png,0,0.0,0.0,0,14,14,14,,,,,,,,,,,,,28.775588399999833,0.0255883999998332,None,57.10755879999488,57.10755879999488,57.10755879999488,57.10755879999488,57.10755879999488,57.10755879999488,57.10755879999488,57.10755879999488,57.10755879999488,57.10755879999488,,009,P018,2025_Mar_07_1854,ConditionRich,2021.2.3,59.96483662081602,
32.0,32.75,9,0.75,Stimuli/P018/sun_ayidxslzurdumeps.jpg,0,0.0,0.0,0,15,15,15,,,,,,,,,,,,,32.01112040000589,0.011120400005893316,None,60.34382679999544,60.34382679999544,60.34382679999544,60.34382679999544,60.34382679999544,60.34382679999544,60.34382679999544,60.34382679999544,60.34382679999544,60.34382679999544,,009,P018,2025_Mar_07_1854,ConditionRich,2021.2.3,59.96483662081602,
32.75,36.0,41,0.0,Stimuli/Blank.png,0,0.0,0.0,0,16,16,16,,,,,,,,,,,,,32.761015300005965,0.0110153000059654,None,61.094453099998645,61.094453099998645,61.094453099998645,61.094453099998645,61.094453099998645,61.094453099998645,61.094453099998645,61.094453099998645,61.094453099998645,61.094453099998645,,009,P018,2025_Mar_07_1854,ConditionRich,2021.2.3,59.96483662081602,
36.0,36.75,28,0.75,Stimuli/P018/things_collar_09s.jpg,0,0.0,0.0,0,17,17,17,,,,,,,,,,,,,36.01392810000107,0.013928100001066923,None,64.34727969999949,64.34727969999949,64.34727969999949,64.34727969999949,64.34727969999949,64.34727969999949,64.34727969999949,64.34727969999949,64.34727969999949,64.34727969999949,,009,P018,2025_Mar_07_1854,ConditionRich,2021.2.3,59.96483662081602,
36.75,40.0,41,0.0,Stimuli/Blank.png,1,2.25,3.0,0,18,18,18,,,,,,,,,,,,,36.76522630000545,0.015226300005451776,2,65.09793989999889,65.09793989999889,65.09793989999889,65.09793989999889,65.09793989999889,65.09793989999889,67.33322049999697,68.08392509999976,65.09793989999889,65.09793989999889,2.7088482000035583,009,P018,2025_Mar_07_1854,ConditionRich,2021.2.3,59.96483662081602,
40.0,40.75,36,0.75,Stimuli/P018/things_nest_09s.jpg,0,0.0,0.0,0,19,19,19,,,,,,,,,,,,,40.00112640000589,0.0011264000058872625,None,68.35081799999898,68.35081799999898,68.35081799999898,68.35081799999898,68.35081799999898,68.35081799999898,68.35081799999898,68.35081799999898,68.35081799999898,68.35081799999898,,009,P018,2025_Mar_07_1854,ConditionRich,2021.2.3,59.96483662081602,
40.75,44.0,41,0.0,Stimuli/Blank.png,0,0.0,0.0,0,20,20,20,,,,,,,,,,,,,40.77063920000364,0.020639200003643055,None,69.1181906999991,69.1181906999991,69.1181906999991,69.1181906999991,69.1181906999991,69.1181906999991,69.1181906999991,69.1181906999991,69.1181906999991,69.1181906999991,,009,P018,2025_Mar_07_1854,ConditionRich,2021.2.3,59.96483662081602,
44.0,44.75,7,0.75,Stimuli/P018/sun_auadhqmfjsjtjcue.jpg,0,0.0,0.0,0,21,21,21,,,,,,,,,,,,,44.021524800002226,0.021524800002225675,None,72.35436689999915,72.35436689999915,72.35436689999915,72.35436689999915,72.35436689999915,72.35436689999915,72.35436689999915,72.35436689999915,72.35436689999915,72.35436689999915,,009,P018,2025_Mar_07_1854,ConditionRich,2021.2.3,59.96483662081602,
44.75,48.0,41,0.0,Stimuli/Blank.png,0,0.0,0.0,0,22,22,22,,,,,,,,,,,,,44.75607529999979,0.00607529999979306,None,73.08835539999563,73.08835539999563,73.08835539999563,73.08835539999563,73.08835539999563,73.08835539999563,73.08835539999563,73.08835539999563,73.08835539999563,73.08835539999563,,009,P018,2025_Mar_07_1854,ConditionRich,2021.2.3,59.96483662081602,
48.0,48.75,3,0.75,Stimuli/P018/sun_acymmczhyuiimeub.jpg,0,0.0,0.0,0,23,23,23,,,,,,,,,,,,,48.00788570000441,0.007885700004408136,None,76.34119549999741,76.34119549999741,76.34119549999741,76.34119549999741,76.34119549999741,76.34119549999741,76.34119549999741,76.34119549999741,76.34119549999741,76.34119549999741,,009,P018,2025_Mar_07_1854,ConditionRich,2021.2.3,59.96483662081602,
48.75,52.0,41,0.0,Stimuli/Blank.png,0,0.0,0.0,0,24,24,24,,,,,,,,,,,,,48.758862400005455,0.008862400005455129,None,77.09187179999572,77.09187179999572,77.09187179999572,77.09187179999572,77.09187179999572,77.09187179999572,77.09187179999572,77.09187179999572,77.09187179999572,77.09187179999572,,009,P018,2025_Mar_07_1854,ConditionRich,2021.2.3,59.96483662081602,
52.0,52.75,1,0.75,Stimuli/P018/sun_aawmwfqqbzauhqkb.jpg,0,0.0,0.0,0,25,25,25,,,,,,,,,,,,,52.01152600000205,0.011526000002049841,None,80.34476110000105,80.34476110000105,80.34476110000105,80.34476110000105,80.34476110000105,80.34476110000105,80.34476110000105,80.34476110000105,80.34476110000105,80.34476110000105,,009,P018,2025_Mar_07_1854,ConditionRich,2021.2.3,59.96483662081602,
52.75,56.0,41,0.0,Stimuli/Blank.png,0,0.0,0.0,0,26,26,26,,,,,,,,,,,,,52.76270510000177,0.012705100001767278,None,81.09543459999986,81.09543459999986,81.09543459999986,81.09543459999986,81.09543459999986,81.09543459999986,81.09543459999986,81.09543459999986,81.09543459999986,81.09543459999986,,009,P018,2025_Mar_07_1854,ConditionRich,2021.2.3,59.96483662081602,
56.0,56.75,32,0.75,Stimuli/P018/things_horse_09s.jpg,0,0.0,0.0,0,27,27,27,,,,,,,,,,,,,56.01484220000566,0.014842200005659834,None,84.34830179999699,84.34830179999699,84.34830179999699,84.34830179999699,84.34830179999699,84.34830179999699,84.34830179999699,84.34830179999699,84.34830179999699,84.34830179999699,,009,P018,2025_Mar_07_1854,ConditionRich,2021.2.3,59.96483662081602,
56.75,60.0,41,0.0,Stimuli/Blank.png,0,0.0,0.0,0,28,28,28,,,,,,,,,,,,,56.766127800001414,0.01612780000141356,None,85.0989597000007,85.0989597000007,85.0989597000007,85.0989597000007,85.0989597000007,85.0989597000007,85.0989597000007,85.0989597000007,85.0989597000007,85.0989597000007,,009,P018,2025_Mar_07_1854,ConditionRich,2021.2.3,59.96483662081602,
60.0,60.75,6,0.75,Stimuli/P018/sun_atuyvunnykjurjgx.jpg,0,0.0,0.0,0,29,29,29,,,,,,,,,,,,,60.00429950000398,0.004299500003980938,None,88.35183629999665,88.35183629999665,88.35183629999665,88.35183629999665,88.35183629999665,88.35183629999665,88.35183629999665,88.35183629999665,88.35183629999665,88.35183629999665,,009,P018,2025_Mar_07_1854,ConditionRich,2021.2.3,59.96483662081602,
60.75,64.0,41,0.0,Stimuli/Blank.png,0,0.0,0.0,0,30,30,30,,,,,,,,,,,,,60.769362900005945,0.01936290000594454,None,89.10247289999825,89.10247289999825,89.10247289999825,89.10247289999825,89.10247289999825,89.10247289999825,89.10247289999825,89.10247289999825,89.10247289999825,89.10247289999825,,009,P018,2025_Mar_07_1854,ConditionRich,2021.2.3,59.96483662081602,
64.0,64.75,2,0.75,Stimuli/P018/sun_acliytrpktltxwsx.jpg,0,0.0,0.0,0,31,31,31,,,,,,,,,,,,,64.00559830000566,0.00559830000565853,None,92.33870359999855,92.33870359999855,92.33870359999855,92.33870359999855,92.33870359999855,92.33870359999855,92.33870359999855,92.33870359999855,92.33870359999855,92.33870359999855,,009,P018,2025_Mar_07_1854,ConditionRich,2021.2.3,59.96483662081602,
64.75,68.0,41,0.0,Stimuli/Blank.png,0,0.0,0.0,0,32,32,32,,,,,,,,,,,,,64.75618470000336,0.006184700003359467,None,93.08936489999905,93.08936489999905,93.08936489999905,93.08936489999905,93.08936489999905,93.08936489999905,93.08936489999905,93.08936489999905,93.08936489999905,93.08936489999905,,009,P018,2025_Mar_07_1854,ConditionRich,2021.2.3,59.96483662081602,
68.0,68.75,11,0.75,Stimuli/P018/sun_bdzxsadvniuolmio.jpg,1,0.0,0.75,0,33,33,33,,,,,,,,,,,,,68.00947260000248,0.009472600002482068,2,96.34224230000109,96.34224230000109,96.34224230000109,96.34224230000109,96.34224230000109,96.34224230000109,96.34224230000109,97.07682949999435,96.34224230000109,96.34224230000109,0.3994388999999501,009,P018,2025_Mar_07_1854,ConditionRich,2021.2.3,59.96483662081602,
68.75,72.0,41,0.0,Stimuli/Blank.png,0,0.0,0.0,0,34,34,34,,,,,,,,,,,,,68.76145640000323,0.011456400003226008,None,97.09371749999991,97.09371749999991,97.09371749999991,97.09371749999991,97.09371749999991,97.09371749999991,97.09371749999991,97.09371749999991,97.09371749999991,97.09371749999991,,009,P018,2025_Mar_07_1854,ConditionRich,2021.2.3,59.96483662081602,
72.0,72.75,40,0.75,Stimuli/P018/things_woman_09s.jpg,0,0.0,0.0,0,35,35,35,,,,,,,,,,,,,72.01230210000358,0.012302100003580563,None,100.36248769999656,100.36248769999656,100.36248769999656,100.36248769999656,100.36248769999656,100.36248769999656,100.36248769999656,100.36248769999656,100.36248769999656,100.36248769999656,,009,P018,2025_Mar_07_1854,ConditionRich,2021.2.3,59.96483662081602,
72.75,76.0,41,0.0,Stimuli/Blank.png,0,0.0,0.0,0,36,36,36,,,,,,,,,,,,,72.77986360000068,0.02986360000068089,None,101.11312689999613,101.11312689999613,101.11312689999613,101.11312689999613,101.11312689999613,101.11312689999613,101.11312689999613,101.11312689999613,101.11312689999613,101.11312689999613,,009,P018,2025_Mar_07_1854,ConditionRich,2021.2.3,59.96483662081602,
76.0,76.75,18,0.75,Stimuli/P018/sun_brrvvswweljrvnlq.jpg,0,0.0,0.0,0,37,37,37,,,,,,,,,,,,,76.00030170000537,0.0003017000053660013,None,104.34932529999787,104.34932529999787,104.34932529999787,104.34932529999787,104.34932529999787,104.34932529999787,104.34932529999787,104.34932529999787,104.34932529999787,104.34932529999787,,009,P018,2025_Mar_07_1854,ConditionRich,2021.2.3,59.96483662081602,
76.75,80.0,41,0.0,Stimuli/Blank.png,0,0.0,0.0,0,38,38,38,,,,,,,,,,,,,76.76723690000654,0.017236900006537326,None,105.09999940000125,105.09999940000125,105.09999940000125,105.09999940000125,105.09999940000125,105.09999940000125,105.09999940000125,105.09999940000125,105.09999940000125,105.09999940000125,,009,P018,2025_Mar_07_1854,ConditionRich,2021.2.3,59.96483662081602,
80.0,80.75,23,0.75,Stimuli/P018/things_boy_09s.jpg,0,0.0,0.0,0,39,39,39,,,,,,,,,,,,,80.00352830000338,0.003528300003381446,None,108.33618879999995,108.33618879999995,108.33618879999995,108.33618879999995,108.33618879999995,108.33618879999995,108.33618879999995,108.33618879999995,108.33618879999995,108.33618879999995,,009,P018,2025_Mar_07_1854,ConditionRich,2021.2.3,59.96483662081602,
80.75,84.0,41,0.0,Stimuli/Blank.png,1,0.25,1.0,0,40,40,40,,,,,,,,,,,,,80.75397250000242,0.00397250000241911,2,109.0868610999969,109.0868610999969,109.0868610999969,109.0868610999969,109.0868610999969,109.0868610999969,109.32039399999485,110.07104139999865,109.0868610999969,109.0868610999969,0.6350591000009445,009,P018,2025_Mar_07_1854,ConditionRich,2021.2.3,59.96483662081602,
84.0,100.0,0,0.0,Stimuli/Blank.png,1,10.0,10.75,0,41,41,41,,,,,,,,,,,,,84.00631120000617,0.006311200006166473,2,112.33972340000037,112.33972340000037,112.33972340000037,112.33972340000037,112.33972340000037,112.33972340000037,122.31520639999508,123.0658712000004,112.33972340000037,112.33972340000037,10.358116399998835,009,P018,2025_Mar_07_1854,ConditionRich,2021.2.3,59.96483662081602,
100.0,100.75,29,0.75,Stimuli/P018/things_face_09s.jpg,0,0.0,0.0,0,42,42,42,,,,,,,,,,,,,100.00387010000122,0.003870100001222454,None,128.33720259999973,128.33720259999973,128.33720259999973,128.33720259999973,128.33720259999973,128.33720259999973,128.33720259999973,128.33720259999973,128.33720259999973,128.33720259999973,,009,P018,2025_Mar_07_1854,ConditionRich,2021.2.3,59.96483662081602,
100.75,104.0,41,0.0,Stimuli/Blank.png,1,0.25,1.0,0,43,43,43,,,,,,,,,,,,,100.75500300000567,0.00500300000567222,2,129.08787969999685,129.08787969999685,129.08787969999685,129.08787969999685,129.08787969999685,129.08787969999685,129.3214025999987,130.0720325000002,129.08787969999685,129.08787969999685,0.6189488999953028,009,P018,2025_Mar_07_1854,ConditionRich,2021.2.3,59.96483662081602,
104.0,104.75,15,0.75,Stimuli/P018/sun_bobznlnnzwznersx.jpg,0,0.0,0.0,0,44,44,44,,,,,,,,,,,,,104.00834620000387,0.008346200003870763,None,132.34075160000066,132.34075160000066,132.34075160000066,132.34075160000066,132.34075160000066,132.34075160000066,132.34075160000066,132.34075160000066,132.34075160000066,132.34075160000066,,009,P018,2025_Mar_07_1854,ConditionRich,2021.2.3,59.96483662081602,
104.75,108.0,41,0.0,Stimuli/Blank.png,0,0.0,0.0,0,45,45,45,,,,,,,,,,,,,104.7599618000022,0.009961800002201926,None,133.10810969999875,133.10810969999875,133.10810969999875,133.10810969999875,133.10810969999875,133.10810969999875,133.10810969999875,133.10810969999875,133.10810969999875,133.10810969999875,,009,P018,2025_Mar_07_1854,ConditionRich,2021.2.3,59.96483662081602,
108.0,108.75,20,0.75,Stimuli/P018/sun_buukivvfbfhosrng.jpg,0,0.0,0.0,0,46,46,46,,,,,,,,,,,,,108.02988080000068,0.02988080000068294,None,136.37765479999507,136.37765479999507,136.37765479999507,136.37765479999507,136.37765479999507,136.37765479999507,136.37765479999507,136.37765479999507,136.37765479999507,136.37765479999507,,009,P018,2025_Mar_07_1854,ConditionRich,2021.2.3,59.96483662081602,
108.75,112.0,41,0.0,Stimuli/Blank.png,0,0.0,0.0,0,47,47,47,,,,,,,,,,,,,108.77900960000261,0.02900960000260966,None,137.11162299999705,137.11162299999705,137.11162299999705,137.11162299999705,137.11162299999705,137.11162299999705,137.11162299999705,137.11162299999705,137.11162299999705,137.11162299999705,,009,P018,2025_Mar_07_1854,ConditionRich,2021.2.3,59.96483662081602,
112.0,112.75,17,0.75,Stimuli/P018/sun_brhndfjxyigqgiwl.jpg,0,0.0,0.0,0,48,48,48,,,,,,,,,,,,,112.01560850000533,0.015608500005328096,None,140.3478124999965,140.3478124999965,140.3478124999965,140.3478124999965,140.3478124999965,140.3478124999965,140.3478124999965,140.3478124999965,140.3478124999965,140.3478124999965,,009,P018,2025_Mar_07_1854,ConditionRich,2021.2.3,59.96483662081602,
112.75,116.0,41,0.0,Stimuli/Blank.png,0,0.0,0.0,0,49,49,49,,,,,,,,,,,,,112.74907290000556,-0.00092709999444196,None,141.08180680000078,141.08180680000078,141.08180680000078,141.08180680000078,141.08180680000078,141.08180680000078,141.08180680000078,141.08180680000078,141.08180680000078,141.08180680000078,,009,P018,2025_Mar_07_1854,ConditionRich,2021.2.3,59.96483662081602,
116.0,116.75,34,0.75,Stimuli/P018/things_llama_09s.jpg,0,0.0,0.0,0,50,50,50,,,,,,,,,,,,,116.00177700000495,0.0017770000049495138,None,144.33464789999562,144.33464789999562,144.33464789999562,144.33464789999562,144.33464789999562,144.33464789999562,144.33464789999562,144.33464789999562,144.33464789999562,144.33464789999562,,009,P018,2025_Mar_07_1854,ConditionRich,2021.2.3,59.96483662081602,
116.75,120.0,41,0.0,Stimuli/Blank.png,0,0.0,0.0,0,51,51,51,,,,,,,,,,,,,116.75270260000252,0.002702600002521649,None,145.0853513999973,145.0853513999973,145.0853513999973,145.0853513999973,145.0853513999973,145.0853513999973,145.0853513999973,145.0853513999973,145.0853513999973,145.0853513999973,,009,P018,2025_Mar_07_1854,ConditionRich,2021.2.3,59.96483662081602,
120.0,120.75,14,0.75,Stimuli/P018/sun_bljpqnfmmqkjsfvx.jpg,1,0.0,0.75,0,52,52,52,,,,,,,,,,,,,120.00533820000419,0.005338200004189275,2,148.33821360000002,148.33821360000002,148.33821360000002,148.33821360000002,148.33821360000002,148.33821360000002,148.33821360000002,149.0721695999964,148.33821360000002,148.33821360000002,0.41455349999887403,009,P018,2025_Mar_07_1854,ConditionRich,2021.2.3,59.96483662081602,
120.75,124.0,41,0.0,Stimuli/Blank.png,0,0.0,0.0,0,53,53,53,,,,,,,,,,,,,120.7558441000001,0.005844100000103936,None,149.0888513999962,149.0888513999962,149.0888513999962,149.0888513999962,149.0888513999962,149.0888513999962,149.0888513999962,149.0888513999962,149.0888513999962,149.0888513999962,,009,P018,2025_Mar_07_1854,ConditionRich,2021.2.3,59.96483662081602,
124.0,124.75,30,0.75,Stimuli/P018/things_girl_09s.jpg,0,0.0,0.0,0,54,54,54,,,,,,,,,,,,,124.00893540000106,0.008935400001064409,None,152.34175259999756,152.34175259999756,152.34175259999756,152.34175259999756,152.34175259999756,152.34175259999756,152.34175259999756,152.34175259999756,152.34175259999756,152.34175259999756,,009,P018,2025_Mar_07_1854,ConditionRich,2021.2.3,59.96483662081602,
124.75,128.0,41,0.0,Stimuli/Blank.png,1,2.25,3.0,0,55,55,55,,,,,,,,,,,,,124.75963680000132,0.00963680000131717,2,153.09242059999815,153.09242059999815,153.09242059999815,153.09242059999815,153.09242059999815,153.09242059999815,155.3277478999953,156.07839129999775,153.09242059999815,153.09242059999815,2.600343999998586,009,P018,2025_Mar_07_1854,ConditionRich,2021.2.3,59.96483662081602,
128.0,128.75,16,0.75,Stimuli/P018/sun_brfwxjsnmauhmfzf.jpg,0,0.0,0.0,0,56,56,56,,,,,,,,,,,,,128.01232020000316,0.012320200003159698,None,156.34529669999756,156.34529669999756,156.34529669999756,156.34529669999756,156.34529669999756,156.34529669999756,156.34529669999756,156.34529669999756,156.34529669999756,156.34529669999756,,009,P018,2025_Mar_07_1854,ConditionRich,2021.2.3,59.96483662081602,
128.75,132.0,41,0.0,Stimuli/Blank.png,0,0.0,0.0,0,57,57,57,,,,,,,,,,,,,128.7655328000037,0.0155328000037116,None,157.11265329999878,157.11265329999878,157.11265329999878,157.11265329999878,157.11265329999878,157.11265329999878,157.11265329999878,157.11265329999878,157.11265329999878,157.11265329999878,,009,P018,2025_Mar_07_1854,ConditionRich,2021.2.3,59.96483662081602,
132.0,132.75,12,0.75,Stimuli/P018/sun_bhvaiabdgxjuwoth.jpg,0,0.0,0.0,0,58,58,58,,,,,,,,,,,,,132.01607350000268,0.016073500002676155,None,160.34883640000044,160.34883640000044,160.34883640000044,160.34883640000044,160.34883640000044,160.34883640000044,160.34883640000044,160.34883640000044,160.34883640000044,160.34883640000044,,009,P018,2025_Mar_07_1854,ConditionRich,2021.2.3,59.96483662081602,
132.75,136.0,41,0.0,Stimuli/Blank.png,0,0.0,0.0,0,59,59,59,,,,,,,,,,,,,132.75009030000365,9.030000364873558e-05,None,161.08282250000047,161.08282250000047,161.08282250000047,161.08282250000047,161.08282250000047,161.08282250000047,161.08282250000047,161.08282250000047,161.08282250000047,161.08282250000047,,009,P018,2025_Mar_07_1854,ConditionRich,2021.2.3,59.96483662081602,
136.0,136.75,33,0.75,Stimuli/P018/things_lamb_09s.jpg,0,0.0,0.0,0,60,60,60,,,,,,,,,,,,,136.00479360000463,0.004793600004632026,None,164.35239870000078,164.35239870000078,164.35239870000078,164.35239870000078,164.35239870000078,164.35239870000078,164.35239870000078,164.35239870000078,164.35239870000078,164.35239870000078,,009,P018,2025_Mar_07_1854,ConditionRich,2021.2.3,59.96483662081602,
136.75,140.0,41,0.0,Stimuli/Blank.png,0,0.0,0.0,0,61,61,61,,,,,,,,,,,,,136.77019460000156,0.020194600001559593,None,165.10305599999992,165.10305599999992,165.10305599999992,165.10305599999992,165.10305599999992,165.10305599999992,165.10305599999992,165.10305599999992,165.10305599999992,165.10305599999992,,009,P018,2025_Mar_07_1854,ConditionRich,2021.2.3,59.96483662081602,
140.0,140.75,31,0.75,Stimuli/P018/things_highchair_09s.jpg,0,0.0,0.0,0,62,62,62,,,,,,,,,,,,,140.00669310000376,0.006693100003758445,None,168.3392399000004,168.3392399000004,168.3392399000004,168.3392399000004,168.3392399000004,168.3392399000004,168.3392399000004,168.3392399000004,168.3392399000004,168.3392399000004,,009,P018,2025_Mar_07_1854,ConditionRich,2021.2.3,59.96483662081602,
140.75,144.0,41,0.0,Stimuli/Blank.png,0,0.0,0.0,0,63,63,63,,,,,,,,,,,,,140.75641960000212,0.006419600002118386,None,169.08991299999616,169.08991299999616,169.08991299999616,169.08991299999616,169.08991299999616,169.08991299999616,169.08991299999616,169.08991299999616,169.08991299999616,169.08991299999616,,009,P018,2025_Mar_07_1854,ConditionRich,2021.2.3,59.96483662081602,
144.0,144.75,24,0.75,Stimuli/P018/things_breadbox_09s.jpg,0,0.0,0.0,0,64,64,64,,,,,,,,,,,,,144.00989120000304,0.009891200003039557,None,172.35947979999764,172.35947979999764,172.35947979999764,172.35947979999764,172.35947979999764,172.35947979999764,172.35947979999764,172.35947979999764,172.35947979999764,172.35947979999764,,009,P018,2025_Mar_07_1854,ConditionRich,2021.2.3,59.96483662081602,
144.75,148.0,41,0.0,Stimuli/Blank.png,0,0.0,0.0,0,65,65,65,,,,,,,,,,,,,144.77944290000596,0.029442900005960837,None,173.12682259999565,173.12682259999565,173.12682259999565,173.12682259999565,173.12682259999565,173.12682259999565,173.12682259999565,173.12682259999565,173.12682259999565,173.12682259999565,,009,P018,2025_Mar_07_1854,ConditionRich,2021.2.3,59.96483662081602,
148.0,148.75,37,0.75,Stimuli/P018/things_plastic_film_09s.jpg,0,0.0,0.0,0,66,66,66,,,,,,,,,,,,,148.0302673000042,0.03026730000419775,None,176.3629948999951,176.3629948999951,176.3629948999951,176.3629948999951,176.3629948999951,176.3629948999951,176.3629948999951,176.3629948999951,176.3629948999951,176.3629948999951,,009,P018,2025_Mar_07_1854,ConditionRich,2021.2.3,59.96483662081602,
148.75,152.0,41,0.0,Stimuli/Blank.png,0,0.0,0.0,0,67,67,67,,,,,,,,,,,,,148.76347390000592,0.013473900005919859,None,177.09700989999692,177.09700989999692,177.09700989999692,177.09700989999692,177.09700989999692,177.09700989999692,177.09700989999692,177.09700989999692,177.09700989999692,177.09700989999692,,009,P018,2025_Mar_07_1854,ConditionRich,2021.2.3,59.96483662081602,
152.0,152.75,4,0.75,Stimuli/P018/sun_aibvvqlmlsjnrgdj.jpg,0,0.0,0.0,0,68,68,68,,,,,,,,,,,,,151.99987600000168,-0.00012399999832268804,None,180.333681600001,180.333681600001,180.333681600001,180.333681600001,180.333681600001,180.333681600001,180.333681600001,180.333681600001,180.333681600001,180.333681600001,,009,P018,2025_Mar_07_1854,ConditionRich,2021.2.3,59.96483662081602,
152.75,156.0,41,0.0,Stimuli/Blank.png,0,0.0,0.0,0,69,69,69,,,,,,,,,,,,,152.75104710000596,0.0010471000059624203,None,181.08384419999493,181.08384419999493,181.08384419999493,181.08384419999493,181.08384419999493,181.08384419999493,181.08384419999493,181.08384419999493,181.08384419999493,181.08384419999493,,009,P018,2025_Mar_07_1854,ConditionRich,2021.2.3,59.96483662081602,
156.0,156.75,39,0.75,Stimuli/P018/things_veil_09s.jpg,0,0.0,0.0,0,70,70,70,,,,,,,,,,,,,156.00367320000078,0.003673200000775978,None,184.3367128999962,184.3367128999962,184.3367128999962,184.3367128999962,184.3367128999962,184.3367128999962,184.3367128999962,184.3367128999962,184.3367128999962,184.3367128999962,,009,P018,2025_Mar_07_1854,ConditionRich,2021.2.3,59.96483662081602,
156.75,160.0,41,0.0,Stimuli/Blank.png,1,2.25,3.0,0,71,71,71,,,,,,,,,,,,,156.75383830000646,0.0038383000064641237,2,185.08737939999992,185.08737939999992,185.08737939999992,185.08737939999992,185.08737939999992,185.08737939999992,187.32269809999707,188.07336469999427,185.08737939999992,185.08737939999992,2.6674982999975327,009,P018,2025_Mar_07_1854,ConditionRich,2021.2.3,59.96483662081602,
160.0,160.75,10,0.75,Stimuli/P018/sun_bayxprasninnrnle.jpg,0,0.0,0.0,0,72,72,72,,,,,,,,,,,,,160.00738970000384,0.007389700003841426,None,188.35695159999887,188.35695159999887,188.35695159999887,188.35695159999887,188.35695159999887,188.35695159999887,188.35695159999887,188.35695159999887,188.35695159999887,188.35695159999887,,009,P018,2025_Mar_07_1854,ConditionRich,2021.2.3,59.96483662081602,
160.75,164.0,41,0.0,Stimuli/Blank.png,1,0.25,1.0,0,73,73,73,,,,,,,,,,,,,160.7740499000065,0.024049900006502867,2,189.10760160000063,189.10760160000063,189.10760160000063,189.10760160000063,189.10760160000063,189.10760160000063,189.34118409999792,190.09182190000138,189.10760160000063,189.10760160000063,0.6652937999970163,009,P018,2025_Mar_07_1854,ConditionRich,2021.2.3,59.96483662081602,
164.0,164.75,21,0.75,Stimuli/P018/things_baby_09s.jpg,0,0.0,0.0,0,74,74,74,,,,,,,,,,,,,164.01031770000554,0.010317700005543884,None,192.34379389999958,192.34379389999958,192.34379389999958,192.34379389999958,192.34379389999958,192.34379389999958,192.34379389999958,192.34379389999958,192.34379389999958,192.34379389999958,,009,P018,2025_Mar_07_1854,ConditionRich,2021.2.3,59.96483662081602,
164.75,168.0,41,0.0,Stimuli/Blank.png,0,0.0,0.0,0,75,75,75,,,,,,,,,,,,,164.7610870999997,0.011087099999713246,None,193.0944565999962,193.0944565999962,193.0944565999962,193.0944565999962,193.0944565999962,193.0944565999962,193.0944565999962,193.0944565999962,193.0944565999962,193.0944565999962,,009,P018,2025_Mar_07_1854,ConditionRich,2021.2.3,59.96483662081602,
168.0,168.75,25,0.75,Stimuli/P018/things_cannonball_09s.jpg,0,0.0,0.0,0,76,76,76,,,,,,,,,,,,,168.0139047000048,0.013904700004786719,None,196.34733089999645,196.34733089999645,196.34733089999645,196.34733089999645,196.34733089999645,196.34733089999645,196.34733089999645,196.34733089999645,196.34733089999645,196.34733089999645,,009,P018,2025_Mar_07_1854,ConditionRich,2021.2.3,59.96483662081602,
168.75,172.0,41,0.0,Stimuli/Blank.png,0,0.0,0.0,0,77,77,77,,,,,,,,,,,,,168.76515500000096,0.015155000000959262,None,197.09800790000008,197.09800790000008,197.09800790000008,197.09800790000008,197.09800790000008,197.09800790000008,197.09800790000008,197.09800790000008,197.09800790000008,197.09800790000008,,009,P018,2025_Mar_07_1854,ConditionRich,2021.2.3,59.96483662081602,
172.0,172.75,27,0.75,Stimuli/P018/things_coffin_09s.jpg,0,0.0,0.0,0,78,78,78,,,,,,,,,,,,,172.00149680000322,0.0014968000032240525,None,200.35088619999442,200.35088619999442,200.35088619999442,200.35088619999442,200.35088619999442,200.35088619999442,200.35088619999442,200.35088619999442,200.35088619999442,200.35088619999442,,009,P018,2025_Mar_07_1854,ConditionRich,2021.2.3,59.96483662081602,
172.75,176.0,41,0.0,Stimuli/Blank.png,0,0.0,0.0,0,79,79,79,,,,,,,,,,,,,172.76932040000247,0.019320400002470706,None,201.10155149999628,201.10155149999628,201.10155149999628,201.10155149999628,201.10155149999628,201.10155149999628,201.10155149999628,201.10155149999628,201.10155149999628,201.10155149999628,,009,P018,2025_Mar_07_1854,ConditionRich,2021.2.3,59.96483662081602,
176.0,176.75,38,0.75,Stimuli/P018/things_pony_09s.jpg,0,0.0,0.0,0,80,80,80,,,,,,,,,,,,,176.00459160000173,0.004591600001731422,2,204.33773289999954,204.33773289999954,204.33773289999954,204.33773289999954,204.33773289999954,204.33773289999954,204.33773289999954,204.33773289999954,204.33773289999954,204.33773289999954,0.497998999999254,009,P018,2025_Mar_07_1854,ConditionRich,2021.2.3,59.96483662081602,
176.75,180.0,41,0.0,Stimuli/Blank.png,0,0.0,0.0,0,81,81,81,,,,,,,,,,,,,176.75509860000602,0.005098600006022025,None,205.08839689999877,205.08839689999877,205.08839689999877,205.08839689999877,205.08839689999877,205.08839689999877,205.08839689999877,205.08839689999877,205.08839689999877,205.08839689999877,,009,P018,2025_Mar_07_1854,ConditionRich,2021.2.3,59.96483662081602,
180.0,196.0,0,0.0,Stimuli/Blank.png,1,2.0,2.75,0,82,82,82,,,,,,,,,,,,,180.010488800006,0.010488800005987287,2,208.35796289999416,208.35796289999416,208.35796289999416,208.35796289999416,208.35796289999416,208.35796289999416,210.34303779999755,211.09370769999805,208.35796289999416,208.35796289999416,2.597035300001153,009,P018,2025_Mar_07_1854,ConditionRich,2021.2.3,59.96483662081602,
196.0,196.75,11,0.75,Stimuli/P018/sun_bdzxsadvniuolmio.jpg,0,0.0,0.0,0,83,83,83,,,,,,,,,,,,,196.02283259999967,0.02283259999967413,None,224.35544609999488,224.35544609999488,224.35544609999488,224.35544609999488,224.35544609999488,224.35544609999488,224.35544609999488,224.35544609999488,224.35544609999488,224.35544609999488,,009,P018,2025_Mar_07_1854,ConditionRich,2021.2.3,59.96483662081602,
196.75,200.0,41,0.0,Stimuli/Blank.png,0,0.0,0.0,0,84,84,84,,,,,,,,,,,,,196.7566225000046,0.006622500004596077,None,225.08940929999517,225.08940929999517,225.08940929999517,225.08940929999517,225.08940929999517,225.08940929999517,225.08940929999517,225.08940929999517,225.08940929999517,225.08940929999517,,009,P018,2025_Mar_07_1854,ConditionRich,2021.2.3,59.96483662081602,
200.0,200.75,38,0.75,Stimuli/P018/things_pony_09s.jpg,0,0.0,0.0,0,85,85,85,,,,,,,,,,,,,200.00980040000286,0.009800400002859533,None,228.35897660000046,228.35897660000046,228.35897660000046,228.35897660000046,228.35897660000046,228.35897660000046,228.35897660000046,228.35897660000046,228.35897660000046,228.35897660000046,,009,P018,2025_Mar_07_1854,ConditionRich,2021.2.3,59.96483662081602,
200.75,204.0,41,0.0,Stimuli/Blank.png,0,0.0,0.0,0,86,86,86,,,,,,,,,,,,,200.77658450000308,0.026584500003082212,None,229.10963880000054,229.10963880000054,229.10963880000054,229.10963880000054,229.10963880000054,229.10963880000054,229.10963880000054,229.10963880000054,229.10963880000054,229.10963880000054,,009,P018,2025_Mar_07_1854,ConditionRich,2021.2.3,59.96483662081602,
204.0,204.75,27,0.75,Stimuli/P018/things_coffin_09s.jpg,0,0.0,0.0,0,87,87,87,,,,,,,,,,,,,204.01465110000572,0.014651100005721673,None,232.3625189000013,232.3625189000013,232.3625189000013,232.3625189000013,232.3625189000013,232.3625189000013,232.3625189000013,232.3625189000013,232.3625189000013,232.3625189000013,,009,P018,2025_Mar_07_1854,ConditionRich,2021.2.3,59.96483662081602,
204.75,208.0,41,0.0,Stimuli/Blank.png,1,2.25,3.0,0,88,88,88,,,,,,,,,,,,,204.78003130000434,0.030031300004338846,2,233.11317630000121,233.11317630000121,233.11317630000121,233.11317630000121,233.11317630000121,233.11317630000121,235.34852319999482,236.09915599999658,233.11317630000121,233.11317630000121,2.6716098000033526,009,P018,2025_Mar_07_1854,ConditionRich,2021.2.3,59.96483662081602,
208.0,208.75,10,0.75,Stimuli/P018/sun_bayxprasninnrnle.jpg,0,0.0,0.0,0,89,89,89,,,,,,,,,,,,,208.00027730000147,0.0002773000014713034,None,236.3326917999948,236.3326917999948,236.3326917999948,236.3326917999948,236.3326917999948,236.3326917999948,236.3326917999948,236.3326917999948,236.3326917999948,236.3326917999948,,009,P018,2025_Mar_07_1854,ConditionRich,2021.2.3,59.96483662081602,
208.75,212.0,41,0.0,Stimuli/Blank.png,0,0.0,0.0,0,90,90,90,,,,,,,,,,,,,208.75054079999973,0.0005407999997260049,None,237.0833879999991,237.0833879999991,237.0833879999991,237.0833879999991,237.0833879999991,237.0833879999991,237.0833879999991,237.0833879999991,237.0833879999991,237.0833879999991,,009,P018,2025_Mar_07_1854,ConditionRich,2021.2.3,59.96483662081602,
212.0,212.75,33,0.75,Stimuli/P018/things_lamb_09s.jpg,0,0.0,0.0,0,91,91,91,,,,,,,,,,,,,212.00660440000502,0.006604400005016942,None,240.35343009999633,240.35343009999633,240.35343009999633,240.35343009999633,240.35343009999633,240.35343009999633,240.35343009999633,240.35343009999633,240.35343009999633,240.35343009999633,,009,P018,2025_Mar_07_1854,ConditionRich,2021.2.3,59.96483662081602,
212.75,216.0,41,0.0,Stimuli/Blank.png,0,0.0,0.0,0,92,92,92,,,,,,,,,,,,,212.7702242000014,0.02022420000139391,None,241.10354799999914,241.10354799999914,241.10354799999914,241.10354799999914,241.10354799999914,241.10354799999914,241.10354799999914,241.10354799999914,241.10354799999914,241.10354799999914,,009,P018,2025_Mar_07_1854,ConditionRich,2021.2.3,59.96483662081602,
216.0,216.75,16,0.75,Stimuli/P018/sun_brfwxjsnmauhmfzf.jpg,0,0.0,0.0,0,93,93,93,,,,,,,,,,,,,216.00787570000102,0.007875700001022778,None,244.3564494999955,244.3564494999955,244.3564494999955,244.3564494999955,244.3564494999955,244.3564494999955,244.3564494999955,244.3564494999955,244.3564494999955,244.3564494999955,,009,P018,2025_Mar_07_1854,ConditionRich,2021.2.3,59.96483662081602,
216.75,220.0,41,0.0,Stimuli/Blank.png,1,0.25,1.0,0,94,94,94,,,,,,,,,,,,,216.77517950000038,0.02517950000037672,2,245.10712090000015,245.10712090000015,245.10712090000015,245.10712090000015,245.10712090000015,245.10712090000015,245.34064840000065,246.0913400999998,245.10712090000015,245.10712090000015,0.9017149999999674,009,P018,2025_Mar_07_1854,ConditionRich,2021.2.3,59.96483662081602,
220.0,220.75,26,0.75,Stimuli/P018/things_chandelier_09s.jpg,0,0.0,0.0,0,95,95,95,,,,,,,,,,,,,220.0099976000056,0.009997600005590357,None,248.34330139999656,248.34330139999656,248.34330139999656,248.34330139999656,248.34330139999656,248.34330139999656,248.34330139999656,248.34330139999656,248.34330139999656,248.34330139999656,,009,P018,2025_Mar_07_1854,ConditionRich,2021.2.3,59.96483662081602,
220.75,224.0,41,0.0,Stimuli/Blank.png,0,0.0,0.0,0,96,96,96,,,,,,,,,,,,,220.76114310000412,0.011143100004119333,None,249.09397129999707,249.09397129999707,249.09397129999707,249.09397129999707,249.09397129999707,249.09397129999707,249.09397129999707,249.09397129999707,249.09397129999707,249.09397129999707,,009,P018,2025_Mar_07_1854,ConditionRich,2021.2.3,59.96483662081602,
224.0,224.75,22,0.75,Stimuli/P018/things_boat_09s.jpg,0,0.0,0.0,0,97,97,97,,,,,,,,,,,,,224.0144103000057,0.014410300005692989,None,252.36352449999686,252.36352449999686,252.36352449999686,252.36352449999686,252.36352449999686,252.36352449999686,252.36352449999686,252.36352449999686,252.36352449999686,252.36352449999686,,009,P018,2025_Mar_07_1854,ConditionRich,2021.2.3,59.96483662081602,
224.75,228.0,41,0.0,Stimuli/Blank.png,0,0.0,0.0,0,98,98,98,,,,,,,,,,,,,224.7808112000057,0.030811200005700812,None,253.11420079999516,253.11420079999516,253.11420079999516,253.11420079999516,253.11420079999516,253.11420079999516,253.11420079999516,253.11420079999516,253.11420079999516,253.11420079999516,,009,P018,2025_Mar_07_1854,ConditionRich,2021.2.3,59.96483662081602,
228.0,228.75,6,0.75,Stimuli/P018/sun_atuyvunnykjurjgx.jpg,0,0.0,0.0,0,99,99,99,,,,,,,,,,,,,228.00018360000104,0.00018360000103712082,None,256.33369709999533,256.33369709999533,256.33369709999533,256.33369709999533,256.33369709999533,256.33369709999533,256.33369709999533,256.33369709999533,256.33369709999533,256.33369709999533,,009,P018,2025_Mar_07_1854,ConditionRich,2021.2.3,59.96483662081602,
228.75,232.0,41,0.0,Stimuli/Blank.png,0,0.0,0.0,0,100,100,100,,,,,,,,,,,,,228.7514816000039,0.001481600003899075,None,257.0843648000009,257.0843648000009,257.0843648000009,257.0843648000009,257.0843648000009,257.0843648000009,257.0843648000009,257.0843648000009,257.0843648000009,257.0843648000009,,009,P018,2025_Mar_07_1854,ConditionRich,2021.2.3,59.96483662081602,
232.0,232.75,5,0.75,Stimuli/P018/sun_apojgqgvdvsksdvo.jpg,1,0.0,0.75,0,101,101,101,,,,,,,,,,,,,232.00531560000672,0.005315600006724708,2,260.35434579999855,260.35434579999855,260.35434579999855,260.35434579999855,260.35434579999855,260.35434579999855,260.35434579999855,261.07124979999935,260.35434579999855,260.35434579999855,0.40239269999437965,009,P018,2025_Mar_07_1854,ConditionRich,2021.2.3,59.96483662081602,
232.75,236.0,41,0.0,Stimuli/Blank.png,0,0.0,0.0,0,102,102,102,,,,,,,,,,,,,232.7719081000032,0.02190810000320198,None,261.1046681000007,261.1046681000007,261.1046681000007,261.1046681000007,261.1046681000007,261.1046681000007,261.1046681000007,261.1046681000007,261.1046681000007,261.1046681000007,,009,P018,2025_Mar_07_1854,ConditionRich,2021.2.3,59.96483662081602,
236.0,236.75,15,0.75,Stimuli/P018/sun_bobznlnnzwznersx.jpg,0,0.0,0.0,0,103,103,103,,,,,,,,,,,,,236.0081050000008,0.00810500000079628,None,264.340787000001,264.340787000001,264.340787000001,264.340787000001,264.340787000001,264.340787000001,264.340787000001,264.340787000001,264.340787000001,264.340787000001,,009,P018,2025_Mar_07_1854,ConditionRich,2021.2.3,59.96483662081602,
236.75,240.0,41,0.0,Stimuli/Blank.png,0,0.0,0.0,0,104,104,104,,,,,,,,,,,,,236.75869230000535,0.008692300005350262,None,265.091451100001,265.091451100001,265.091451100001,265.091451100001,265.091451100001,265.091451100001,265.091451100001,265.091451100001,265.091451100001,265.091451100001,,009,P018,2025_Mar_07_1854,ConditionRich,2021.2.3,59.96483662081602,
240.0,240.75,17,0.75,Stimuli/P018/sun_brhndfjxyigqgiwl.jpg,0,0.0,0.0,0,105,105,105,,,,,,,,,,,,,240.01150820000476,0.011508200004755054,None,268.344322500001,268.344322500001,268.344322500001,268.344322500001,268.344322500001,268.344322500001,268.344322500001,268.344322500001,268.344322500001,268.344322500001,,009,P018,2025_Mar_07_1854,ConditionRich,2021.2.3,59.96483662081602,
240.75,244.0,41,0.0,Stimuli/Blank.png,0,0.0,0.0,0,106,106,106,,,,,,,,,,,,,240.76150469999993,0.0115046999999322,None,269.09498560000065,269.09498560000065,269.09498560000065,269.09498560000065,269.09498560000065,269.09498560000065,269.09498560000065,269.09498560000065,269.09498560000065,269.09498560000065,,009,P018,2025_Mar_07_1854,ConditionRich,2021.2.3,59.96483662081602,
244.0,244.75,34,0.75,Stimuli/P018/things_llama_09s.jpg,0,0.0,0.0,0,107,107,107,,,,,,,,,,,,,244.0144089000023,0.014408900002308656,None,272.34787140000117,272.34787140000117,272.34787140000117,272.34787140000117,272.34787140000117,272.34787140000117,272.34787140000117,272.34787140000117,272.34787140000117,272.34787140000117,,009,P018,2025_Mar_07_1854,ConditionRich,2021.2.3,59.96483662081602,
244.75,248.0,41,0.0,Stimuli/Blank.png,1,1.25,2.0,0,108,108,108,,,,,,,,,,,,,244.76618170000438,0.016181700004381128,2,273.09852449999744,273.09852449999744,273.09852449999744,273.09852449999744,273.09852449999744,273.09852449999744,274.33295169999474,275.0836061999944,273.09852449999744,273.09852449999744,1.6802613999971072,009,P018,2025_Mar_07_1854,ConditionRich,2021.2.3,59.96483662081602,
248.0,248.75,24,0.75,Stimuli/P018/things_breadbox_09s.jpg,0,0.0,0.0,0,109,109,109,,,,,,,,,,,,,248.00126920000184,0.0012692000018432736,None,276.33472049999546,276.33472049999546,276.33472049999546,276.33472049999546,276.33472049999546,276.33472049999546,276.33472049999546,276.33472049999546,276.33472049999546,276.33472049999546,,009,P018,2025_Mar_07_1854,ConditionRich,2021.2.3,59.96483662081602,
248.75,252.0,41,0.0,Stimuli/Blank.png,1,0.25,1.0,0,110,110,110,,,,,,,,,,,,,248.75482929999998,0.00482929999998305,2,277.1020963999981,277.1020963999981,277.1020963999981,277.1020963999981,277.1020963999981,277.1020963999981,277.3356147000013,278.086206699998,277.1020963999981,277.1020963999981,0.5689493000027142,009,P018,2025_Mar_07_1854,ConditionRich,2021.2.3,59.96483662081602,
252.0,252.75,36,0.75,Stimuli/P018/things_nest_09s.jpg,0,0.0,0.0,0,111,111,111,,,,,,,,,,,,,252.02148520000628,0.021485200006281957,None,280.3549420999989,280.3549420999989,280.3549420999989,280.3549420999989,280.3549420999989,280.3549420999989,280.3549420999989,280.3549420999989,280.3549420999989,280.3549420999989,,009,P018,2025_Mar_07_1854,ConditionRich,2021.2.3,59.96483662081602,
252.75,256.0,41,0.0,Stimuli/Blank.png,0,0.0,0.0,0,112,112,112,,,,,,,,,,,,,252.75650780000433,0.006507800004328601,None,281.08892759999435,281.08892759999435,281.08892759999435,281.08892759999435,281.08892759999435,281.08892759999435,281.08892759999435,281.08892759999435,281.08892759999435,281.08892759999435,,009,P018,2025_Mar_07_1854,ConditionRich,2021.2.3,59.96483662081602,
256.0,256.75,12,0.75,Stimuli/P018/sun_bhvaiabdgxjuwoth.jpg,0,0.0,0.0,0,113,113,113,,,,,,,,,,,,,256.01139420000254,0.011394200002541766,None,284.3585046999942,284.3585046999942,284.3585046999942,284.3585046999942,284.3585046999942,284.3585046999942,284.3585046999942,284.3585046999942,284.3585046999942,284.3585046999942,,009,P018,2025_Mar_07_1854,ConditionRich,2021.2.3,59.96483662081602,
256.75,260.0,41,0.0,Stimuli/Blank.png,0,0.0,0.0,0,114,114,114,,,,,,,,,,,,,256.7765309000024,0.026530900002398994,None,285.10914229999617,285.10914229999617,285.10914229999617,285.10914229999617,285.10914229999617,285.10914229999617,285.10914229999617,285.10914229999617,285.10914229999617,285.10914229999617,,009,P018,2025_Mar_07_1854,ConditionRich,2021.2.3,59.96483662081602,
260.0,260.75,19,0.75,Stimuli/P018/sun_brrwzaypucosdcgt.jpg,0,0.0,0.0,0,115,115,115,,,,,,,,,,,,,260.0128576000061,0.012857600006100256,None,288.36202709999634,288.36202709999634,288.36202709999634,288.36202709999634,288.36202709999634,288.36202709999634,288.36202709999634,288.36202709999634,288.36202709999634,288.36202709999634,,009,P018,2025_Mar_07_1854,ConditionRich,2021.2.3,59.96483662081602,
260.75,264.0,41,0.0,Stimuli/Blank.png,0,0.0,0.0,0,116,116,116,,,,,,,,,,,,,260.77977820000524,0.02977820000523934,None,289.11268610000116,289.11268610000116,289.11268610000116,289.11268610000116,289.11268610000116,289.11268610000116,289.11268610000116,289.11268610000116,289.11268610000116,289.11268610000116,,009,P018,2025_Mar_07_1854,ConditionRich,2021.2.3,59.96483662081602,
264.0,264.75,8,0.75,Stimuli/P018/sun_axsmqyyvebrcuhkn.jpg,0,0.0,0.0,0,117,117,117,,,,,,,,,,,,,263.9995496000047,-0.00045039999531582,None,292.3321938999943,292.3321938999943,292.3321938999943,292.3321938999943,292.3321938999943,292.3321938999943,292.3321938999943,292.3321938999943,292.3321938999943,292.3321938999943,,009,P018,2025_Mar_07_1854,ConditionRich,2021.2.3,59.96483662081602,
264.75,268.0,41,0.0,Stimuli/Blank.png,0,0.0,0.0,0,118,118,118,,,,,,,,,,,,,264.7499936000022,-6.399997801054269e-06,None,293.0828656999947,293.0828656999947,293.0828656999947,293.0828656999947,293.0828656999947,293.0828656999947,293.0828656999947,293.0828656999947,293.0828656999947,293.0828656999947,,009,P018,2025_Mar_07_1854,ConditionRich,2021.2.3,59.96483662081602,
268.0,268.75,21,0.75,Stimuli/P018/things_baby_09s.jpg,0,0.0,0.0,0,119,119,119,,,,,,,,,,,,,268.0043586000029,0.0043586000028881244,None,296.35242599999765,296.35242599999765,296.35242599999765,296.35242599999765,296.35242599999765,296.35242599999765,296.35242599999765,296.35242599999765,296.35242599999765,296.35242599999765,,009,P018,2025_Mar_07_1854,ConditionRich,2021.2.3,59.96483662081602,
268.75,272.0,41,0.0,Stimuli/Blank.png,0,0.0,0.0,0,120,120,120,,,,,,,,,,,,,268.77034330000606,0.020343300006061327,None,297.1031049999947,297.1031049999947,297.1031049999947,297.1031049999947,297.1031049999947,297.1031049999947,297.1031049999947,297.1031049999947,297.1031049999947,297.1031049999947,,009,P018,2025_Mar_07_1854,ConditionRich,2021.2.3,59.96483662081602,
272.0,272.75,35,0.75,Stimuli/P018/things_lobster_09s.jpg,0,0.0,0.0,0,121,121,121,,,,,,,,,,,,,272.0063294000065,0.006329400006507058,None,300.35652879999543,300.35652879999543,300.35652879999543,300.35652879999543,300.35652879999543,300.35652879999543,300.35652879999543,300.35652879999543,300.35652879999543,300.35652879999543,,009,P018,2025_Mar_07_1854,ConditionRich,2021.2.3,59.96483662081602,
272.75,276.0,41,0.0,Stimuli/Blank.png,0,0.0,0.0,0,122,122,122,,,,,,,,,,,,,272.773806600002,0.023806600001989864,None,301.10661609999806,301.10661609999806,301.10661609999806,301.10661609999806,301.10661609999806,301.10661609999806,301.10661609999806,301.10661609999806,301.10661609999806,301.10661609999806,,009,P018,2025_Mar_07_1854,ConditionRich,2021.2.3,59.96483662081602,
276.0,292.0,0,0.0,Stimuli/Blank.png,1,2.0,2.75,0,123,123,123,,,,,,,,,,,,,276.0105554000038,0.010555400003795512,2,304.3428211999999,304.3428211999999,304.3428211999999,304.3428211999999,304.3428211999999,304.3428211999999,306.3279110000003,307.0785646000004,304.3428211999999,304.3428211999999,2.3789754000026733,009,P018,2025_Mar_07_1854,ConditionRich,2021.2.3,59.96483662081602,
292.0,292.75,32,0.75,Stimuli/P018/things_horse_09s.jpg,0,0.0,0.0,0,124,124,124,,,,,,,,,,,,,292.00840370000515,0.008403700005146675,None,320.35697639999853,320.35697639999853,320.35697639999853,320.35697639999853,320.35697639999853,320.35697639999853,320.35697639999853,320.35697639999853,320.35697639999853,320.35697639999853,,009,P018,2025_Mar_07_1854,ConditionRich,2021.2.3,59.96483662081602,
292.75,296.0,41,0.0,Stimuli/Blank.png,0,0.0,0.0,0,125,125,125,,,,,,,,,,,,,292.77467470000556,0.024674700005562045,None,321.1076380999948,321.1076380999948,321.1076380999948,321.1076380999948,321.1076380999948,321.1076380999948,321.1076380999948,321.1076380999948,321.1076380999948,321.1076380999948,,009,P018,2025_Mar_07_1854,ConditionRich,2021.2.3,59.96483662081602,
296.0,296.75,23,0.75,Stimuli/P018/things_boy_09s.jpg,1,0.0,0.75,0,126,126,126,,,,,,,,,,,,,296.01038770000014,0.010387700000137556,2,324.3438285999946,324.3438285999946,324.3438285999946,324.3438285999946,324.3438285999946,324.3438285999946,324.3438285999946,325.07782880000013,324.3438285999946,324.3438285999946,0.677156500001729,009,P018,2025_Mar_07_1854,ConditionRich,2021.2.3,59.96483662081602,
296.75,300.0,41,0.0,Stimuli/Blank.png,0,0.0,0.0,0,127,127,127,,,,,,,,,,,,,296.7620553000015,0.012055300001520663,None,325.0945634999953,325.0945634999953,325.0945634999953,325.0945634999953,325.0945634999953,325.0945634999953,325.0945634999953,325.0945634999953,325.0945634999953,325.0945634999953,,009,P018,2025_Mar_07_1854,ConditionRich,2021.2.3,59.96483662081602,
300.0,300.75,1,0.75,Stimuli/P018/sun_aawmwfqqbzauhqkb.jpg,0,0.0,0.0,0,128,128,128,,,,,,,,,,,,,300.01499540000077,0.014995400000771042,None,328.3473742999995,328.3473742999995,328.3473742999995,328.3473742999995,328.3473742999995,328.3473742999995,328.3473742999995,328.3473742999995,328.3473742999995,328.3473742999995,,009,P018,2025_Mar_07_1854,ConditionRich,2021.2.3,59.96483662081602,
300.75,304.0,41,0.0,Stimuli/Blank.png,1,0.25,1.0,0,129,129,129,,,,,,,,,,,,,300.74993070000346,-6.929999653948471e-05,2,329.09803769999417,329.09803769999417,329.09803769999417,329.09803769999417,329.09803769999417,329.09803769999417,329.33160769999813,330.08229310000024,329.09803769999417,329.09803769999417,0.6307719999967958,009,P018,2025_Mar_07_1854,ConditionRich,2021.2.3,59.96483662081602,
304.0,304.75,40,0.75,Stimuli/P018/things_woman_09s.jpg,0,0.0,0.0,0,130,130,130,,,,,,,,,,,,,304.01890110000386,0.018901100003859028,None,332.36763339999743,332.36763339999743,332.36763339999743,332.36763339999743,332.36763339999743,332.36763339999743,332.36763339999743,332.36763339999743,332.36763339999743,332.36763339999743,,009,P018,2025_Mar_07_1854,ConditionRich,2021.2.3,59.96483662081602,
304.75,308.0,41,0.0,Stimuli/Blank.png,0,0.0,0.0,0,131,131,131,,,,,,,,,,,,,304.76940010000544,0.019400100005441345,None,333.1016361000002,333.1016361000002,333.1016361000002,333.1016361000002,333.1016361000002,333.1016361000002,333.1016361000002,333.1016361000002,333.1016361000002,333.1016361000002,,009,P018,2025_Mar_07_1854,ConditionRich,2021.2.3,59.96483662081602,
308.0,308.75,7,0.75,Stimuli/P018/sun_auadhqmfjsjtjcue.jpg,0,0.0,0.0,0,132,132,132,,,,,,,,,,,,,308.00532390000444,0.005323900004441384,None,336.3377720999997,336.3377720999997,336.3377720999997,336.3377720999997,336.3377720999997,336.3377720999997,336.3377720999997,336.3377720999997,336.3377720999997,336.3377720999997,,009,P018,2025_Mar_07_1854,ConditionRich,2021.2.3,59.96483662081602,
308.75,312.0,41,0.0,Stimuli/Blank.png,0,0.0,0.0,0,133,133,133,,,,,,,,,,,,,308.75492340000346,0.00492340000346303,None,337.0884320999976,337.0884320999976,337.0884320999976,337.0884320999976,337.0884320999976,337.0884320999976,337.0884320999976,337.0884320999976,337.0884320999976,337.0884320999976,,009,P018,2025_Mar_07_1854,ConditionRich,2021.2.3,59.96483662081602,
312.0,312.75,30,0.75,Stimuli/P018/things_girl_09s.jpg,0,0.0,0.0,0,134,134,134,,,,,,,,,,,,,312.00854919999983,0.008549199999833945,None,340.3413062999971,340.3413062999971,340.3413062999971,340.3413062999971,340.3413062999971,340.3413062999971,340.3413062999971,340.3413062999971,340.3413062999971,340.3413062999971,,009,P018,2025_Mar_07_1854,ConditionRich,2021.2.3,59.96483662081602,
312.75,316.0,41,0.0,Stimuli/Blank.png,0,0.0,0.0,0,135,135,135,,,,,,,,,,,,,312.7591459000032,0.009145900003204588,None,341.0919614000013,341.0919614000013,341.0919614000013,341.0919614000013,341.0919614000013,341.0919614000013,341.0919614000013,341.0919614000013,341.0919614000013,341.0919614000013,,009,P018,2025_Mar_07_1854,ConditionRich,2021.2.3,59.96483662081602,
316.0,316.75,39,0.75,Stimuli/P018/things_veil_09s.jpg,0,0.0,0.0,0,136,136,136,,,,,,,,,,,,,316.0119831000047,0.01198310000472702,None,344.36154279999755,344.36154279999755,344.36154279999755,344.36154279999755,344.36154279999755,344.36154279999755,344.36154279999755,344.36154279999755,344.36154279999755,344.36154279999755,,009,P018,2025_Mar_07_1854,ConditionRich,2021.2.3,59.96483662081602,
316.75,320.0,41,0.0,Stimuli/Blank.png,0,0.0,0.0,0,137,137,137,,,,,,,,,,,,,316.778859500002,0.02885950000199955,None,345.11218879999797,345.11218879999797,345.11218879999797,345.11218879999797,345.11218879999797,345.11218879999797,345.11218879999797,345.11218879999797,345.11218879999797,345.11218879999797,,009,P018,2025_Mar_07_1854,ConditionRich,2021.2.3,59.96483662081602,
320.0,320.75,9,0.75,Stimuli/P018/sun_ayidxslzurdumeps.jpg,0,0.0,0.0,0,138,138,138,,,,,,,,,,,,,320.0149575000032,0.014957500003220048,None,348.3483819999965,348.3483819999965,348.3483819999965,348.3483819999965,348.3483819999965,348.3483819999965,348.3483819999965,348.3483819999965,348.3483819999965,348.3483819999965,,009,P018,2025_Mar_07_1854,ConditionRich,2021.2.3,59.96483662081602,
320.75,324.0,41,0.0,Stimuli/Blank.png,0,0.0,0.0,0,139,139,139,,,,,,,,,,,,,320.7657044000007,0.01570440000068629,None,349.0990563999949,349.0990563999949,349.0990563999949,349.0990563999949,349.0990563999949,349.0990563999949,349.0990563999949,349.0990563999949,349.0990563999949,349.0990563999949,,009,P018,2025_Mar_07_1854,ConditionRich,2021.2.3,59.96483662081602,
324.0,324.75,25,0.75,Stimuli/P018/things_cannonball_09s.jpg,0,0.0,0.0,0,140,140,140,,,,,,,,,,,,,324.0022492000062,0.0022492000061902218,None,352.35194229999615,352.35194229999615,352.35194229999615,352.35194229999615,352.35194229999615,352.35194229999615,352.35194229999615,352.35194229999615,352.35194229999615,352.35194229999615,,009,P018,2025_Mar_07_1854,ConditionRich,2021.2.3,59.96483662081602,
324.75,328.0,41,0.0,Stimuli/Blank.png,0,0.0,0.0,0,141,141,141,,,,,,,,,,,,,324.7697522000017,0.0197522000016761,None,353.10259529999894,353.10259529999894,353.10259529999894,353.10259529999894,353.10259529999894,353.10259529999894,353.10259529999894,353.10259529999894,353.10259529999894,353.10259529999894,,009,P018,2025_Mar_07_1854,ConditionRich,2021.2.3,59.96483662081602,
328.0,328.75,14,0.75,Stimuli/P018/sun_bljpqnfmmqkjsfvx.jpg,0,0.0,0.0,0,142,142,142,,,,,,,,,,,,,328.0052244000035,0.005224400003498886,None,356.33877080000093,356.33877080000093,356.33877080000093,356.33877080000093,356.33877080000093,356.33877080000093,356.33877080000093,356.33877080000093,356.33877080000093,356.33877080000093,,009,P018,2025_Mar_07_1854,ConditionRich,2021.2.3,59.96483662081602,
328.75,332.0,41,0.0,Stimuli/Blank.png,1,1.25,2.0,0,143,143,143,,,,,,,,,,,,,328.7560611000008,0.0060611000008066185,2,357.0894425000006,357.0894425000006,357.0894425000006,357.0894425000006,357.0894425000006,357.0894425000006,358.3239089999988,359.0745709999974,357.0894425000006,357.0894425000006,1.6663678999975673,009,P018,2025_Mar_07_1854,ConditionRich,2021.2.3,59.96483662081602,
332.0,332.75,4,0.75,Stimuli/P018/sun_aibvvqlmlsjnrgdj.jpg,0,0.0,0.0,0,144,144,144,,,,,,,,,,,,,332.011800100001,0.011800100000982638,None,360.3590206000008,360.3590206000008,360.3590206000008,360.3590206000008,360.3590206000008,360.3590206000008,360.3590206000008,360.3590206000008,360.3590206000008,360.3590206000008,,009,P018,2025_Mar_07_1854,ConditionRich,2021.2.3,59.96483662081602,
332.75,336.0,41,0.0,Stimuli/Blank.png,0,0.0,0.0,0,145,145,145,,,,,,,,,,,,,332.77613560000464,0.026135600004636217,None,361.1096608000007,361.1096608000007,361.1096608000007,361.1096608000007,361.1096608000007,361.1096608000007,361.1096608000007,361.1096608000007,361.1096608000007,361.1096608000007,,009,P018,2025_Mar_07_1854,ConditionRich,2021.2.3,59.96483662081602,
336.0,336.75,37,0.75,Stimuli/P018/things_plastic_film_09s.jpg,0,0.0,0.0,0,146,146,146,,,,,,,,,,,,,336.015908500005,0.015908500005025417,None,364.36254899999767,364.36254899999767,364.36254899999767,364.36254899999767,364.36254899999767,364.36254899999767,364.36254899999767,364.36254899999767,364.36254899999767,364.36254899999767,,009,P018,2025_Mar_07_1854,ConditionRich,2021.2.3,59.96483662081602,
336.75,340.0,41,0.0,Stimuli/Blank.png,0,0.0,0.0,0,147,147,147,,,,,,,,,,,,,336.76404160000675,0.014041600006748922,None,365.09653409999737,365.09653409999737,365.09653409999737,365.09653409999737,365.09653409999737,365.09653409999737,365.09653409999737,365.09653409999737,365.09653409999737,365.09653409999737,,009,P018,2025_Mar_07_1854,ConditionRich,2021.2.3,59.96483662081602,
340.0,340.75,28,0.75,Stimuli/P018/things_collar_09s.jpg,0,0.0,0.0,0,148,148,148,,,,,,,,,,,,,339.9999004000056,-9.959999442799017e-05,None,368.34941949999484,368.34941949999484,368.34941949999484,368.34941949999484,368.34941949999484,368.34941949999484,368.34941949999484,368.34941949999484,368.34941949999484,368.34941949999484,,009,P018,2025_Mar_07_1854,ConditionRich,2021.2.3,59.96483662081602,
340.75,344.0,41,0.0,Stimuli/Blank.png,0,0.0,0.0,0,149,149,149,,,,,,,,,,,,,340.7668391000043,0.01683910000429023,None,369.1005051999964,369.1005051999964,369.1005051999964,369.1005051999964,369.1005051999964,369.1005051999964,369.1005051999964,369.1005051999964,369.1005051999964,369.1005051999964,,009,P018,2025_Mar_07_1854,ConditionRich,2021.2.3,59.96483662081602,
344.0,344.75,29,0.75,Stimuli/P018/things_face_09s.jpg,0,0.0,0.0,0,150,150,150,,,,,,,,,,,,,344.0048442000043,0.004844200004299637,None,372.3529464999956,372.3529464999956,372.3529464999956,372.3529464999956,372.3529464999956,372.3529464999956,372.3529464999956,372.3529464999956,372.3529464999956,372.3529464999956,,009,P018,2025_Mar_07_1854,ConditionRich,2021.2.3,59.96483662081602,
344.75,348.0,41,0.0,Stimuli/Blank.png,0,0.0,0.0,0,151,151,151,,,,,,,,,,,,,344.7707342000067,0.02073420000670012,None,373.1036029999959,373.1036029999959,373.1036029999959,373.1036029999959,373.1036029999959,373.1036029999959,373.1036029999959,373.1036029999959,373.1036029999959,373.1036029999959,,009,P018,2025_Mar_07_1854,ConditionRich,2021.2.3,59.96483662081602,
348.0,348.75,2,0.75,Stimuli/P018/sun_acliytrpktltxwsx.jpg,0,0.0,0.0,0,152,152,152,,,,,,,,,,,,,348.0064340000026,0.006434000002627727,None,376.3564922000005,376.3564922000005,376.3564922000005,376.3564922000005,376.3564922000005,376.3564922000005,376.3564922000005,376.3564922000005,376.3564922000005,376.3564922000005,,009,P018,2025_Mar_07_1854,ConditionRich,2021.2.3,59.96483662081602,
348.75,352.0,41,0.0,Stimuli/Blank.png,0,0.0,0.0,0,153,153,153,,,,,,,,,,,,,348.7737044000023,0.023704400002316106,None,377.107150799995,377.107150799995,377.107150799995,377.107150799995,377.107150799995,377.107150799995,377.107150799995,377.107150799995,377.107150799995,377.107150799995,,009,P018,2025_Mar_07_1854,ConditionRich,2021.2.3,59.96483662081602,
352.0,352.75,31,0.75,Stimuli/P018/things_highchair_09s.jpg,0,0.0,0.0,0,154,154,154,,,,,,,,,,,,,352.01037290000386,0.010372900003858376,None,380.3600157999972,380.3600157999972,380.3600157999972,380.3600157999972,380.3600157999972,380.3600157999972,380.3600157999972,380.3600157999972,380.3600157999972,380.3600157999972,,009,P018,2025_Mar_07_1854,ConditionRich,2021.2.3,59.96483662081602,
352.75,356.0,41,0.0,Stimuli/Blank.png,0,0.0,0.0,0,155,155,155,,,,,,,,,,,,,352.7781934000013,0.028193400001327973,None,381.1107406999945,381.1107406999945,381.1107406999945,381.1107406999945,381.1107406999945,381.1107406999945,381.1107406999945,381.1107406999945,381.1107406999945,381.1107406999945,,009,P018,2025_Mar_07_1854,ConditionRich,2021.2.3,59.96483662081602,
356.0,356.75,13,0.75,Stimuli/P018/sun_bizqwyomkqigheyx.jpg,1,0.0,0.75,0,156,156,156,,,,,,,,,,,,,356.01471790000505,0.014717900005052797,2,384.3635693999968,384.3635693999968,384.3635693999968,384.3635693999968,384.3635693999968,384.3635693999968,384.3635693999968,385.08087859999796,384.3635693999968,384.3635693999968,0.4435211000018171,009,P018,2025_Mar_07_1854,ConditionRich,2021.2.3,59.96483662081602,
356.75,360.0,41,0.0,Stimuli/Blank.png,0,0.0,0.0,0,157,157,157,,,,,,,,,,,,,356.78096430000005,0.03096430000005057,None,385.1142166999998,385.1142166999998,385.1142166999998,385.1142166999998,385.1142166999998,385.1142166999998,385.1142166999998,385.1142166999998,385.1142166999998,385.1142166999998,,009,P018,2025_Mar_07_1854,ConditionRich,2021.2.3,59.96483662081602,
360.0,360.75,18,0.75,Stimuli/P018/sun_brrvvswweljrvnlq.jpg,0,0.0,0.0,0,158,158,158,,,,,,,,,,,,,360.0002722000063,0.0002722000062931329,None,388.3337214999992,388.3337214999992,388.3337214999992,388.3337214999992,388.3337214999992,388.3337214999992,388.3337214999992,388.3337214999992,388.3337214999992,388.3337214999992,,009,P018,2025_Mar_07_1854,ConditionRich,2021.2.3,59.96483662081602,
360.75,364.0,41,0.0,Stimuli/Blank.png,1,1.25,2.0,0,159,159,159,,,,,,,,,,,,,360.7515526999996,0.0015526999995927326,2,389.08439050000015,389.08439050000015,389.08439050000015,389.08439050000015,389.08439050000015,389.08439050000015,390.318817899999,391.06947769999533,389.08439050000015,389.08439050000015,1.633426899999904,009,P018,2025_Mar_07_1854,ConditionRich,2021.2.3,59.96483662081602,
364.0,364.75,3,0.75,Stimuli/P018/sun_acymmczhyuiimeub.jpg,0,0.0,0.0,0,160,160,160,,,,,,,,,,,,,364.0053895000019,0.005389500001911074,None,392.35395569999673,392.35395569999673,392.35395569999673,392.35395569999673,392.35395569999673,392.35395569999673,392.35395569999673,392.35395569999673,392.35395569999673,392.35395569999673,,009,P018,2025_Mar_07_1854,ConditionRich,2021.2.3,59.96483662081602,
364.75,368.0,41,0.0,Stimuli/Blank.png,0,0.0,0.0,0,161,161,161,,,,,,,,,,,,,364.77210840000043,0.022108400000433903,None,393.1046162999992,393.1046162999992,393.1046162999992,393.1046162999992,393.1046162999992,393.1046162999992,393.1046162999992,393.1046162999992,393.1046162999992,393.1046162999992,,009,P018,2025_Mar_07_1854,ConditionRich,2021.2.3,59.96483662081602,
368.0,368.75,20,0.75,Stimuli/P018/sun_buukivvfbfhosrng.jpg,0,0.0,0.0,0,162,162,162,,,,,,,,,,,,,368.0072549000033,0.0072549000033177435,None,396.3575894999958,396.3575894999958,396.3575894999958,396.3575894999958,396.3575894999958,396.3575894999958,396.3575894999958,396.3575894999958,396.3575894999958,396.3575894999958,,009,P018,2025_Mar_07_1854,ConditionRich,2021.2.3,59.96483662081602,
368.75,372.0,41,0.0,Stimuli/Blank.png,0,0.0,0.0,0,163,163,163,,,,,,,,,,,,,368.77476800000295,0.02476800000295043,None,397.1081508999996,397.1081508999996,397.1081508999996,397.1081508999996,397.1081508999996,397.1081508999996,397.1081508999996,397.1081508999996,397.1081508999996,397.1081508999996,,009,P018,2025_Mar_07_1854,ConditionRich,2021.2.3,59.96483662081602,
372.0,388.0,0,0.0,Stimuli/Blank.png,1,13.0,13.75,0,164,164,164,,,,,,,,,,,,,372.0118672000026,0.01186720000259811,2,400.34435210000083,400.34435210000083,400.34435210000083,400.34435210000083,400.34435210000083,400.34435210000083,413.32249779999984,414.0731502999988,400.34435210000083,400.34435210000083,13.31749879999552,009,P018,2025_Mar_07_1854,ConditionRich,2021.2.3,59.96483662081602,
