eventStartTime,eventEndTime,eventCond,imSize,imFile,responseEvent,fixRespStart,fixRespEnd,Events.thisRepN,Events.thisTrialN,Events.thisN,Events.thisIndex,Instructions.started,Instructions.stopped,participantReadyResponse.keys,participantReadyResponse.rt,participantReadyResponse.started,participantReadyResponse.stopped,startWaitforTrigger,triggerResponse.keys,triggerResponse.rt,triggerResponse.started,triggerResponse.stopped,globalTimer,actualStartTime,startTimingDiff,participantResponse.keys,participantResponse.started,participantResponse.stopped,image.started,image.stopped,fixationOutside.started,fixationOutside.stopped,fixationResponse.started,fixationResponse.stopped,fixationInside.started,fixationInside.stopped,participantResponse.rt,session,participant,date,expName,psychopyVersion,frameRate,
,,,,,,,,,,,,10.979917399999977,None,2,1.547753400001966,10.979917399999977,None,,,,,,,,,,,,,,,,,,,,,006,P018,2025_Mar_07_1826,ConditionRich,2021.2.3,59.899823535027,
,,,,,,,,,,,,,,,,,,12.531602199996996,5,13.44000010000309,12.544651899996097,None,,,,,,,,,,,,,,,,006,P018,2025_Mar_07_1826,ConditionRich,2021.2.3,59.899823535027,
0.0,4.0,0,0.0,Stimuli/Blank.png,0,0.0,0.0,0,0,0,0,,,,,,,,,,,,25.99337829999422,0.030165099997248035,0.030165099997248035,None,26.039892099994177,None,26.039892099994177,None,26.039892099994177,None,26.039892099994177,26.039892099994177,26.039892099994177,None,,006,P018,2025_Mar_07_1826,ConditionRich,2021.2.3,59.899823535027,
4.0,4.75,5,0.75,Stimuli/P018/sun_apojgqgvdvsksdvo.jpg,0,0.0,0.0,0,1,1,1,,,,,,,,,,,,,4.004878899999312,0.004878899999312125,None,30.027028799995605,30.027028799995605,30.027028799995605,30.027028799995605,30.027028799995605,30.027028799995605,30.027028799995605,30.027028799995605,30.027028799995605,30.027028799995605,,006,P018,2025_Mar_07_1826,ConditionRich,2021.2.3,59.899823535027,
4.75,8.0,41,0.0,Stimuli/Blank.png,1,2.25,3.0,0,2,2,2,,,,,,,,,,,,,4.770131400000537,0.020131400000536814,2,30.778009599998768,30.778009599998768,30.778009599998768,30.778009599998768,30.778009599998768,30.778009599998768,33.01280140000017,33.76341329999559,30.778009599998768,30.778009599998768,2.5867523000051733,006,P018,2025_Mar_07_1826,ConditionRich,2021.2.3,59.899823535027,
8.0,8.75,12,0.75,Stimuli/P018/sun_bhvaiabdgxjuwoth.jpg,0,0.0,0.0,0,3,3,3,,,,,,,,,,,,,8.006495800000266,0.006495800000266172,None,34.013639999997395,34.013639999997395,34.013639999997395,34.013639999997395,34.013639999997395,34.013639999997395,34.013639999997395,34.013639999997395,34.013639999997395,34.013639999997395,,006,P018,2025_Mar_07_1826,ConditionRich,2021.2.3,59.899823535027,
8.75,12.0,41,0.0,Stimuli/Blank.png,0,0.0,0.0,0,4,4,4,,,,,,,,,,,,,8.758392700001423,0.008392700001422781,None,34.781030699996336,34.781030699996336,34.781030699996336,34.781030699996336,34.781030699996336,34.781030699996336,34.781030699996336,34.781030699996336,34.781030699996336,34.781030699996336,,006,P018,2025_Mar_07_1826,ConditionRich,2021.2.3,59.899823535027,
12.0,12.75,14,0.75,Stimuli/P018/sun_bljpqnfmmqkjsfvx.jpg,1,0.0,0.75,0,5,5,5,,,,,,,,,,,,,12.028198100000736,0.028198100000736304,2,38.05054799999925,38.05054799999925,38.05054799999925,38.05054799999925,38.05054799999925,38.05054799999925,38.05054799999925,None,38.05054799999925,38.05054799999925,0.4481156999972882,006,P018,2025_Mar_07_1826,ConditionRich,2021.2.3,59.899823535027,
12.75,16.0,41,0.0,Stimuli/Blank.png,0,0.0,0.0,0,6,6,6,,,,,,,,,,,,,12.776742900001409,0.026742900001408998,None,38.78450899999734,38.78450899999734,38.78450899999734,38.78450899999734,38.78450899999734,38.78450899999734,38.78450899999734,38.78450899999734,38.78450899999734,38.78450899999734,,006,P018,2025_Mar_07_1826,ConditionRich,2021.2.3,59.899823535027,
16.0,16.75,18,0.75,Stimuli/P018/sun_brrvvswweljrvnlq.jpg,0,0.0,0.0,0,7,7,7,,,,,,,,,,,,,16.013221799999883,0.013221799999882933,None,42.02071309999883,42.02071309999883,42.02071309999883,42.02071309999883,42.02071309999883,42.02071309999883,42.02071309999883,42.02071309999883,42.02071309999883,42.02071309999883,,006,P018,2025_Mar_07_1826,ConditionRich,2021.2.3,59.899823535027,
16.75,20.0,41,0.0,Stimuli/Blank.png,1,1.25,2.0,0,8,8,8,,,,,,,,,,,,,16.76380280000012,0.013802800000121351,2,42.77138389999891,42.77138389999891,42.77138389999891,42.77138389999891,42.77138389999891,42.77138389999891,44.00580579999951,44.756468999999925,42.77138389999891,42.77138389999891,1.609320999996271,006,P018,2025_Mar_07_1826,ConditionRich,2021.2.3,59.899823535027,
20.0,20.75,40,0.75,Stimuli/P018/things_woman_09s.jpg,0,0.0,0.0,0,9,9,9,,,,,,,,,,,,,20.000550799995835,0.0005507999958354048,None,46.00754389999929,46.00754389999929,46.00754389999929,46.00754389999929,46.00754389999929,46.00754389999929,46.00754389999929,46.00754389999929,46.00754389999929,46.00754389999929,,006,P018,2025_Mar_07_1826,ConditionRich,2021.2.3,59.899823535027,
20.75,24.0,41,0.0,Stimuli/Blank.png,1,2.25,3.0,0,10,10,10,,,,,,,,,,,,,20.750282599998172,0.0002825999981723726,2,46.758252799998445,46.758252799998445,46.758252799998445,46.758252799998445,46.758252799998445,46.758252799998445,48.99357799999416,49.7442338999972,46.758252799998445,46.758252799998445,2.5635638000021572,006,P018,2025_Mar_07_1826,ConditionRich,2021.2.3,59.899823535027,
24.0,24.75,28,0.75,Stimuli/P018/things_collar_09s.jpg,0,0.0,0.0,0,11,11,11,,,,,,,,,,,,,24.00398049999785,0.003980499997851439,None,50.01107179999963,50.01107179999963,50.01107179999963,50.01107179999963,50.01107179999963,50.01107179999963,50.01107179999963,50.01107179999963,50.01107179999963,50.01107179999963,,006,P018,2025_Mar_07_1826,ConditionRich,2021.2.3,59.899823535027,
24.75,28.0,41,0.0,Stimuli/Blank.png,1,1.25,2.0,0,12,12,12,,,,,,,,,,,,,24.754458099996555,0.004458099996554665,2,50.76177849999658,50.76177849999658,50.76177849999658,50.76177849999658,50.76177849999658,50.76177849999658,51.99619990000065,52.74693429999752,50.76177849999658,50.76177849999658,1.5479967999999644,006,P018,2025_Mar_07_1826,ConditionRich,2021.2.3,59.899823535027,
28.0,28.75,25,0.75,Stimuli/P018/things_cannonball_09s.jpg,0,0.0,0.0,0,13,13,13,,,,,,,,,,,,,28.00741630000266,0.007416300002660137,None,54.01465529999405,54.01465529999405,54.01465529999405,54.01465529999405,54.01465529999405,54.01465529999405,54.01465529999405,54.01465529999405,54.01465529999405,54.01465529999405,,006,P018,2025_Mar_07_1826,ConditionRich,2021.2.3,59.899823535027,
28.75,32.0,41,0.0,Stimuli/Blank.png,0,0.0,0.0,0,14,14,14,,,,,,,,,,,,,28.758704300002137,0.008704300002136733,None,54.76532459999726,54.76532459999726,54.76532459999726,54.76532459999726,54.76532459999726,54.76532459999726,54.76532459999726,54.76532459999726,54.76532459999726,54.76532459999726,,006,P018,2025_Mar_07_1826,ConditionRich,2021.2.3,59.899823535027,
32.0,32.75,38,0.75,Stimuli/P018/things_pony_09s.jpg,0,0.0,0.0,0,15,15,15,,,,,,,,,,,,,32.01018699999986,0.010186999999859836,None,58.01819819999946,58.01819819999946,58.01819819999946,58.01819819999946,58.01819819999946,58.01819819999946,58.01819819999946,58.01819819999946,58.01819819999946,58.01819819999946,,006,P018,2025_Mar_07_1826,ConditionRich,2021.2.3,59.899823535027,
32.75,36.0,41,0.0,Stimuli/Blank.png,0,0.0,0.0,0,16,16,16,,,,,,,,,,,,,32.76246720000199,0.012467200001992751,None,58.785510999994585,58.785510999994585,58.785510999994585,58.785510999994585,58.785510999994585,58.785510999994585,58.785510999994585,58.785510999994585,58.785510999994585,58.785510999994585,,006,P018,2025_Mar_07_1826,ConditionRich,2021.2.3,59.899823535027,
36.0,36.75,3,0.75,Stimuli/P018/sun_acymmczhyuiimeub.jpg,0,0.0,0.0,0,17,17,17,,,,,,,,,,,,,36.03269960000034,0.03269960000034189,None,62.055096299998695,62.055096299998695,62.055096299998695,62.055096299998695,62.055096299998695,62.055096299998695,62.055096299998695,62.055096299998695,62.055096299998695,62.055096299998695,,006,P018,2025_Mar_07_1826,ConditionRich,2021.2.3,59.899823535027,
36.75,40.0,41,0.0,Stimuli/Blank.png,0,0.0,0.0,0,18,18,18,,,,,,,,,,,,,36.76518229999783,0.01518229999783216,None,62.772393200000806,62.772393200000806,62.772393200000806,62.772393200000806,62.772393200000806,62.772393200000806,62.772393200000806,62.772393200000806,62.772393200000806,62.772393200000806,,006,P018,2025_Mar_07_1826,ConditionRich,2021.2.3,59.899823535027,
40.0,40.75,7,0.75,Stimuli/P018/sun_auadhqmfjsjtjcue.jpg,0,0.0,0.0,0,19,19,19,,,,,,,,,,,,,40.00285620000068,0.0028562000006786548,None,66.02526989999751,66.02526989999751,66.02526989999751,66.02526989999751,66.02526989999751,66.02526989999751,66.02526989999751,66.02526989999751,66.02526989999751,66.02526989999751,,006,P018,2025_Mar_07_1826,ConditionRich,2021.2.3,59.899823535027,
40.75,44.0,41,0.0,Stimuli/Blank.png,0,0.0,0.0,0,20,20,20,,,,,,,,,,,,,40.76875129999826,0.01875129999825731,None,66.77594680000038,66.77594680000038,66.77594680000038,66.77594680000038,66.77594680000038,66.77594680000038,66.77594680000038,66.77594680000038,66.77594680000038,66.77594680000038,,006,P018,2025_Mar_07_1826,ConditionRich,2021.2.3,59.899823535027,
44.0,44.75,32,0.75,Stimuli/P018/things_horse_09s.jpg,0,0.0,0.0,0,21,21,21,,,,,,,,,,,,,44.004558499997074,0.00455849999707425,None,70.02881589999743,70.02881589999743,70.02881589999743,70.02881589999743,70.02881589999743,70.02881589999743,70.02881589999743,70.02881589999743,70.02881589999743,70.02881589999743,,006,P018,2025_Mar_07_1826,ConditionRich,2021.2.3,59.899823535027,
44.75,48.0,41,0.0,Stimuli/Blank.png,0,0.0,0.0,0,22,22,22,,,,,,,,,,,,,44.77220739999757,0.022207399997569155,None,70.779472299997,70.779472299997,70.779472299997,70.779472299997,70.779472299997,70.779472299997,70.779472299997,70.779472299997,70.779472299997,70.779472299997,,006,P018,2025_Mar_07_1826,ConditionRich,2021.2.3,59.899823535027,
48.0,48.75,31,0.75,Stimuli/P018/things_highchair_09s.jpg,0,0.0,0.0,0,23,23,23,,,,,,,,,,,,,48.00767970000015,0.007679700000153389,None,74.01567709999654,74.01567709999654,74.01567709999654,74.01567709999654,74.01567709999654,74.01567709999654,74.01567709999654,74.01567709999654,74.01567709999654,74.01567709999654,,006,P018,2025_Mar_07_1826,ConditionRich,2021.2.3,59.899823535027,
48.75,52.0,41,0.0,Stimuli/Blank.png,0,0.0,0.0,0,24,24,24,,,,,,,,,,,,,48.75830329999735,0.008303299997351132,None,74.76634249999915,74.76634249999915,74.76634249999915,74.76634249999915,74.76634249999915,74.76634249999915,74.76634249999915,74.76634249999915,74.76634249999915,74.76634249999915,,006,P018,2025_Mar_07_1826,ConditionRich,2021.2.3,59.899823535027,
52.0,52.75,24,0.75,Stimuli/P018/things_breadbox_09s.jpg,0,0.0,0.0,0,25,25,25,,,,,,,,,,,,,52.014132899996184,0.014132899996184278,None,78.03612659999635,78.03612659999635,78.03612659999635,78.03612659999635,78.03612659999635,78.03612659999635,78.03612659999635,78.03612659999635,78.03612659999635,78.03612659999635,,006,P018,2025_Mar_07_1826,ConditionRich,2021.2.3,59.899823535027,
52.75,56.0,41,0.0,Stimuli/Blank.png,0,0.0,0.0,0,26,26,26,,,,,,,,,,,,,52.77907730000152,0.02907730000151787,None,78.78655679999792,78.78655679999792,78.78655679999792,78.78655679999792,78.78655679999792,78.78655679999792,78.78655679999792,78.78655679999792,78.78655679999792,78.78655679999792,,006,P018,2025_Mar_07_1826,ConditionRich,2021.2.3,59.899823535027,
56.0,56.75,33,0.75,Stimuli/P018/things_lamb_09s.jpg,0,0.0,0.0,0,27,27,27,,,,,,,,,,,,,56.01487729999644,0.014877299996442162,None,82.02278129999468,82.02278129999468,82.02278129999468,82.02278129999468,82.02278129999468,82.02278129999468,82.02278129999468,82.02278129999468,82.02278129999468,82.02278129999468,,006,P018,2025_Mar_07_1826,ConditionRich,2021.2.3,59.899823535027,
56.75,60.0,41,0.0,Stimuli/Blank.png,0,0.0,0.0,0,28,28,28,,,,,,,,,,,,,56.76790819999587,0.017908199995872565,None,82.79008869999961,82.79008869999961,82.79008869999961,82.79008869999961,82.79008869999961,82.79008869999961,82.79008869999961,82.79008869999961,82.79008869999961,82.79008869999961,,006,P018,2025_Mar_07_1826,ConditionRich,2021.2.3,59.899823535027,
60.0,60.75,34,0.75,Stimuli/P018/things_llama_09s.jpg,0,0.0,0.0,0,29,29,29,,,,,,,,,,,,,60.01915559999907,0.019155599999066908,None,86.02634509999916,86.02634509999916,86.02634509999916,86.02634509999916,86.02634509999916,86.02634509999916,86.02634509999916,86.02634509999916,86.02634509999916,86.02634509999916,,006,P018,2025_Mar_07_1826,ConditionRich,2021.2.3,59.899823535027,
60.75,64.0,41,0.0,Stimuli/Blank.png,0,0.0,0.0,0,30,30,30,,,,,,,,,,,,,60.75326910000149,0.003269100001489278,None,86.76028299999598,86.76028299999598,86.76028299999598,86.76028299999598,86.76028299999598,86.76028299999598,86.76028299999598,86.76028299999598,86.76028299999598,86.76028299999598,,006,P018,2025_Mar_07_1826,ConditionRich,2021.2.3,59.899823535027,
64.0,64.75,19,0.75,Stimuli/P018/sun_brrwzaypucosdcgt.jpg,0,0.0,0.0,0,31,31,31,,,,,,,,,,,,,64.00549229999888,0.00549229999887757,None,90.02984189999552,90.02984189999552,90.02984189999552,90.02984189999552,90.02984189999552,90.02984189999552,90.02984189999552,90.02984189999552,90.02984189999552,90.02984189999552,,006,P018,2025_Mar_07_1826,ConditionRich,2021.2.3,59.899823535027,
64.75,68.0,41,0.0,Stimuli/Blank.png,0,0.0,0.0,0,32,32,32,,,,,,,,,,,,,64.77299140000105,0.022991400001046713,None,90.78049479999754,90.78049479999754,90.78049479999754,90.78049479999754,90.78049479999754,90.78049479999754,90.78049479999754,90.78049479999754,90.78049479999754,90.78049479999754,,006,P018,2025_Mar_07_1826,ConditionRich,2021.2.3,59.899823535027,
68.0,68.75,20,0.75,Stimuli/P018/sun_buukivvfbfhosrng.jpg,0,0.0,0.0,0,33,33,33,,,,,,,,,,,,,68.00858019999578,0.008580199995776638,None,94.0166889999964,94.0166889999964,94.0166889999964,94.0166889999964,94.0166889999964,94.0166889999964,94.0166889999964,94.0166889999964,94.0166889999964,94.0166889999964,,006,P018,2025_Mar_07_1826,ConditionRich,2021.2.3,59.899823535027,
68.75,72.0,41,0.0,Stimuli/Blank.png,0,0.0,0.0,0,34,34,34,,,,,,,,,,,,,68.75945219999994,0.009452199999941513,None,94.76732679999986,94.76732679999986,94.76732679999986,94.76732679999986,94.76732679999986,94.76732679999986,94.76732679999986,94.76732679999986,94.76732679999986,94.76732679999986,,006,P018,2025_Mar_07_1826,ConditionRich,2021.2.3,59.899823535027,
72.0,72.75,15,0.75,Stimuli/P018/sun_bobznlnnzwznersx.jpg,0,0.0,0.0,0,35,35,35,,,,,,,,,,,,,72.01220340000145,0.012203400001453701,None,98.02022500000021,98.02022500000021,98.02022500000021,98.02022500000021,98.02022500000021,98.02022500000021,98.02022500000021,98.02022500000021,98.02022500000021,98.02022500000021,,006,P018,2025_Mar_07_1826,ConditionRich,2021.2.3,59.899823535027,
72.75,76.0,41,0.0,Stimuli/Blank.png,0,0.0,0.0,0,36,36,36,,,,,,,,,,,,,72.76447019999614,0.014470199996139854,None,98.78759039999568,98.78759039999568,98.78759039999568,98.78759039999568,98.78759039999568,98.78759039999568,98.78759039999568,98.78759039999568,98.78759039999568,98.78759039999568,,006,P018,2025_Mar_07_1826,ConditionRich,2021.2.3,59.899823535027,
76.0,76.75,36,0.75,Stimuli/P018/things_nest_09s.jpg,0,0.0,0.0,0,37,37,37,,,,,,,,,,,,,76.01654720000079,0.016547200000786688,None,102.02376809999987,102.02376809999987,102.02376809999987,102.02376809999987,102.02376809999987,102.02376809999987,102.02376809999987,102.02376809999987,102.02376809999987,102.02376809999987,,006,P018,2025_Mar_07_1826,ConditionRich,2021.2.3,59.899823535027,
76.75,80.0,41,0.0,Stimuli/Blank.png,0,0.0,0.0,0,38,38,38,,,,,,,,,,,,,76.75280760000169,0.0028076000016881153,None,102.7744348999986,102.7744348999986,102.7744348999986,102.7744348999986,102.7744348999986,102.7744348999986,102.7744348999986,102.7744348999986,102.7744348999986,102.7744348999986,,006,P018,2025_Mar_07_1826,ConditionRich,2021.2.3,59.899823535027,
80.0,80.75,22,0.75,Stimuli/P018/things_boat_09s.jpg,0,0.0,0.0,0,39,39,39,,,,,,,,,,,,,80.01933579999604,0.019335799996042624,None,106.0273040999964,106.0273040999964,106.0273040999964,106.0273040999964,106.0273040999964,106.0273040999964,106.0273040999964,106.0273040999964,106.0273040999964,106.0273040999964,,006,P018,2025_Mar_07_1826,ConditionRich,2021.2.3,59.899823535027,
80.75,84.0,41,0.0,Stimuli/Blank.png,0,0.0,0.0,0,40,40,40,,,,,,,,,,,,,80.75410420000117,0.0041042000011657365,None,106.7612788999977,106.7612788999977,106.7612788999977,106.7612788999977,106.7612788999977,106.7612788999977,106.7612788999977,106.7612788999977,106.7612788999977,106.7612788999977,,006,P018,2025_Mar_07_1826,ConditionRich,2021.2.3,59.899823535027,
84.0,100.0,0,0.0,Stimuli/Blank.png,1,9.0,9.75,0,41,41,41,,,,,,,,,,,,,84.0082964999965,0.00829649999650428,2,110.03083949999564,110.03083949999564,110.03083949999564,110.03083949999564,110.03083949999564,110.03083949999564,119.00543559999642,119.75614659999701,110.03083949999564,110.03083949999564,9.379904900000838,006,P018,2025_Mar_07_1826,ConditionRich,2021.2.3,59.899823535027,
100.0,100.75,13,0.75,Stimuli/P018/sun_bizqwyomkqigheyx.jpg,0,0.0,0.0,0,42,42,42,,,,,,,,,,,,,100.02129710000008,0.021297100000083447,None,126.04501229999732,126.04501229999732,126.04501229999732,126.04501229999732,126.04501229999732,126.04501229999732,126.04501229999732,126.04501229999732,126.04501229999732,126.04501229999732,,006,P018,2025_Mar_07_1826,ConditionRich,2021.2.3,59.899823535027,
100.75,104.0,41,0.0,Stimuli/Blank.png,0,0.0,0.0,0,43,43,43,,,,,,,,,,,,,100.77293529999588,0.022935299995879177,None,126.79568009999639,126.79568009999639,126.79568009999639,126.79568009999639,126.79568009999639,126.79568009999639,126.79568009999639,126.79568009999639,126.79568009999639,126.79568009999639,,006,P018,2025_Mar_07_1826,ConditionRich,2021.2.3,59.899823535027,
104.0,104.75,6,0.75,Stimuli/P018/sun_atuyvunnykjurjgx.jpg,0,0.0,0.0,0,44,44,44,,,,,,,,,,,,,104.02404119999846,0.024041199998464435,None,130.0318599999955,130.0318599999955,130.0318599999955,130.0318599999955,130.0318599999955,130.0318599999955,130.0318599999955,130.0318599999955,130.0318599999955,130.0318599999955,,006,P018,2025_Mar_07_1826,ConditionRich,2021.2.3,59.899823535027,
104.75,108.0,41,0.0,Stimuli/Blank.png,0,0.0,0.0,0,45,45,45,,,,,,,,,,,,,104.7577689000027,0.007768900002702139,None,130.76584770000045,130.76584770000045,130.76584770000045,130.76584770000045,130.76584770000045,130.76584770000045,130.76584770000045,130.76584770000045,130.76584770000045,130.76584770000045,,006,P018,2025_Mar_07_1826,ConditionRich,2021.2.3,59.899823535027,
108.0,108.75,1,0.75,Stimuli/P018/sun_aawmwfqqbzauhqkb.jpg,0,0.0,0.0,0,46,46,46,,,,,,,,,,,,,108.01122210000176,0.011222100001759827,None,134.0354015999983,134.0354015999983,134.0354015999983,134.0354015999983,134.0354015999983,134.0354015999983,134.0354015999983,134.0354015999983,134.0354015999983,134.0354015999983,,006,P018,2025_Mar_07_1826,ConditionRich,2021.2.3,59.899823535027,
108.75,112.0,41,0.0,Stimuli/Blank.png,1,2.25,3.0,0,47,47,47,,,,,,,,,,,,,108.7783860999989,0.028386099998897407,2,134.78604829999676,134.78604829999676,134.78604829999676,134.78604829999676,134.78604829999676,134.78604829999676,137.0214263999951,137.7721134999956,134.78604829999676,134.78604829999676,2.569577499998559,006,P018,2025_Mar_07_1826,ConditionRich,2021.2.3,59.899823535027,
112.0,112.75,2,0.75,Stimuli/P018/sun_acliytrpktltxwsx.jpg,0,0.0,0.0,0,48,48,48,,,,,,,,,,,,,112.01525609999953,0.015256099999533035,None,138.02222069999698,138.02222069999698,138.02222069999698,138.02222069999698,138.02222069999698,138.02222069999698,138.02222069999698,138.02222069999698,138.02222069999698,138.02222069999698,,006,P018,2025_Mar_07_1826,ConditionRich,2021.2.3,59.899823535027,
112.75,116.0,41,0.0,Stimuli/Blank.png,1,1.25,2.0,0,49,49,49,,,,,,,,,,,,,112.74822680000216,-0.0017731999978423119,2,138.7562364999976,138.7562364999976,138.7562364999976,138.7562364999976,138.7562364999976,138.7562364999976,139.99067300000024,140.74130829999922,138.7562364999976,138.7562364999976,1.583402300006128,006,P018,2025_Mar_07_1826,ConditionRich,2021.2.3,59.899823535027,
116.0,116.75,35,0.75,Stimuli/P018/things_lobster_09s.jpg,0,0.0,0.0,0,50,50,50,,,,,,,,,,,,,116.00173579999682,0.0017357999968226068,None,142.00906229999964,142.00906229999964,142.00906229999964,142.00906229999964,142.00906229999964,142.00906229999964,142.00906229999964,142.00906229999964,142.00906229999964,142.00906229999964,,006,P018,2025_Mar_07_1826,ConditionRich,2021.2.3,59.899823535027,
116.75,120.0,41,0.0,Stimuli/Blank.png,1,2.25,3.0,0,51,51,51,,,,,,,,,,,,,116.75246840000182,0.002468400001816917,2,142.75978380000015,142.75978380000015,142.75978380000015,142.75978380000015,142.75978380000015,142.75978380000015,144.9950753000012,145.74573669999518,142.75978380000015,142.75978380000015,2.5401965999990352,006,P018,2025_Mar_07_1826,ConditionRich,2021.2.3,59.899823535027,
120.0,120.75,10,0.75,Stimuli/P018/sun_bayxprasninnrnle.jpg,0,0.0,0.0,0,52,52,52,,,,,,,,,,,,,120.00476350000099,0.0047635000009904616,None,146.01261969999905,146.01261969999905,146.01261969999905,146.01261969999905,146.01261969999905,146.01261969999905,146.01261969999905,146.01261969999905,146.01261969999905,146.01261969999905,,006,P018,2025_Mar_07_1826,ConditionRich,2021.2.3,59.899823535027,
120.75,124.0,41,0.0,Stimuli/Blank.png,0,0.0,0.0,0,53,53,53,,,,,,,,,,,,,120.7560192000019,0.006019200001901481,None,146.76331989999744,146.76331989999744,146.76331989999744,146.76331989999744,146.76331989999744,146.76331989999744,146.76331989999744,146.76331989999744,146.76331989999744,146.76331989999744,,006,P018,2025_Mar_07_1826,ConditionRich,2021.2.3,59.899823535027,
124.0,124.75,4,0.75,Stimuli/P018/sun_aibvvqlmlsjnrgdj.jpg,0,0.0,0.0,0,54,54,54,,,,,,,,,,,,,124.00943389999884,0.009433899998839479,None,150.01615019999736,150.01615019999736,150.01615019999736,150.01615019999736,150.01615019999736,150.01615019999736,150.01615019999736,150.01615019999736,150.01615019999736,150.01615019999736,,006,P018,2025_Mar_07_1826,ConditionRich,2021.2.3,59.899823535027,
124.75,128.0,41,0.0,Stimuli/Blank.png,0,0.0,0.0,0,55,55,55,,,,,,,,,,,,,124.75901739999972,0.00901739999972051,None,150.7668565999993,150.7668565999993,150.7668565999993,150.7668565999993,150.7668565999993,150.7668565999993,150.7668565999993,150.7668565999993,150.7668565999993,150.7668565999993,,006,P018,2025_Mar_07_1826,ConditionRich,2021.2.3,59.899823535027,
128.0,128.75,37,0.75,Stimuli/P018/things_plastic_film_09s.jpg,0,0.0,0.0,0,56,56,56,,,,,,,,,,,,,128.0117109999992,0.011710999999195337,None,154.0197263999944,154.0197263999944,154.0197263999944,154.0197263999944,154.0197263999944,154.0197263999944,154.0197263999944,154.0197263999944,154.0197263999944,154.0197263999944,,006,P018,2025_Mar_07_1826,ConditionRich,2021.2.3,59.899823535027,
128.75,132.0,41,0.0,Stimuli/Blank.png,0,0.0,0.0,0,57,57,57,,,,,,,,,,,,,128.76347449999594,0.01347449999593664,None,154.770388799996,154.770388799996,154.770388799996,154.770388799996,154.770388799996,154.770388799996,154.770388799996,154.770388799996,154.770388799996,154.770388799996,,006,P018,2025_Mar_07_1826,ConditionRich,2021.2.3,59.899823535027,
132.0,132.75,27,0.75,Stimuli/P018/things_coffin_09s.jpg,0,0.0,0.0,0,58,58,58,,,,,,,,,,,,,131.99942439999722,-0.0005756000027759001,None,158.00653939999756,158.00653939999756,158.00653939999756,158.00653939999756,158.00653939999756,158.00653939999756,158.00653939999756,158.00653939999756,158.00653939999756,158.00653939999756,,006,P018,2025_Mar_07_1826,ConditionRich,2021.2.3,59.899823535027,
132.75,136.0,41,0.0,Stimuli/Blank.png,1,2.25,3.0,0,59,59,59,,,,,,,,,,,,,132.74981980000302,-0.0001801999969757162,2,158.75726269999723,158.75726269999723,158.75726269999723,158.75726269999723,158.75726269999723,158.75726269999723,160.9925934999992,161.74325690000114,158.75726269999723,158.75726269999723,2.584520299998985,006,P018,2025_Mar_07_1826,ConditionRich,2021.2.3,59.899823535027,
136.0,136.75,9,0.75,Stimuli/P018/sun_ayidxslzurdumeps.jpg,0,0.0,0.0,0,60,60,60,,,,,,,,,,,,,136.00264610000158,0.002646100001584273,None,162.0101171999995,162.0101171999995,162.0101171999995,162.0101171999995,162.0101171999995,162.0101171999995,162.0101171999995,162.0101171999995,162.0101171999995,162.0101171999995,,006,P018,2025_Mar_07_1826,ConditionRich,2021.2.3,59.899823535027,
136.75,140.0,41,0.0,Stimuli/Blank.png,0,0.0,0.0,0,61,61,61,,,,,,,,,,,,,136.75331339999684,0.0033133999968413264,None,162.76078839999536,162.76078839999536,162.76078839999536,162.76078839999536,162.76078839999536,162.76078839999536,162.76078839999536,162.76078839999536,162.76078839999536,162.76078839999536,,006,P018,2025_Mar_07_1826,ConditionRich,2021.2.3,59.899823535027,
140.0,140.75,26,0.75,Stimuli/P018/things_chandelier_09s.jpg,0,0.0,0.0,0,62,62,62,,,,,,,,,,,,,140.00839339999948,0.00839339999947697,None,166.03035159999854,166.03035159999854,166.03035159999854,166.03035159999854,166.03035159999854,166.03035159999854,166.03035159999854,166.03035159999854,166.03035159999854,166.03035159999854,,006,P018,2025_Mar_07_1826,ConditionRich,2021.2.3,59.899823535027,
140.75,144.0,41,0.0,Stimuli/Blank.png,0,0.0,0.0,0,63,63,63,,,,,,,,,,,,,140.77388229999633,0.023882299996330403,None,166.78100450000056,166.78100450000056,166.78100450000056,166.78100450000056,166.78100450000056,166.78100450000056,166.78100450000056,166.78100450000056,166.78100450000056,166.78100450000056,,006,P018,2025_Mar_07_1826,ConditionRich,2021.2.3,59.899823535027,
144.0,144.75,17,0.75,Stimuli/P018/sun_brhndfjxyigqgiwl.jpg,0,0.0,0.0,0,64,64,64,,,,,,,,,,,,,144.0092433000027,0.009243300002708565,None,170.01719169999706,170.01719169999706,170.01719169999706,170.01719169999706,170.01719169999706,170.01719169999706,170.01719169999706,170.01719169999706,170.01719169999706,170.01719169999706,,006,P018,2025_Mar_07_1826,ConditionRich,2021.2.3,59.899823535027,
144.75,148.0,41,0.0,Stimuli/Blank.png,1,1.25,2.0,0,65,65,65,,,,,,,,,,,,,144.76068120000127,0.010681200001272373,2,170.76787350000086,170.76787350000086,170.76787350000086,170.76787350000086,170.76787350000086,170.76787350000086,172.00226939999993,172.752988799999,170.76787350000086,170.76787350000086,1.6088349000056041,006,P018,2025_Mar_07_1826,ConditionRich,2021.2.3,59.899823535027,
148.0,148.75,11,0.75,Stimuli/P018/sun_bdzxsadvniuolmio.jpg,0,0.0,0.0,0,66,66,66,,,,,,,,,,,,,148.01285780000035,0.012857800000347197,None,174.02073019999807,174.02073019999807,174.02073019999807,174.02073019999807,174.02073019999807,174.02073019999807,174.02073019999807,174.02073019999807,174.02073019999807,174.02073019999807,,006,P018,2025_Mar_07_1826,ConditionRich,2021.2.3,59.899823535027,
148.75,152.0,41,0.0,Stimuli/Blank.png,0,0.0,0.0,0,67,67,67,,,,,,,,,,,,,148.76352849999967,0.013528499999665655,None,174.77140269999654,174.77140269999654,174.77140269999654,174.77140269999654,174.77140269999654,174.77140269999654,174.77140269999654,174.77140269999654,174.77140269999654,174.77140269999654,,006,P018,2025_Mar_07_1826,ConditionRich,2021.2.3,59.899823535027,
152.0,152.75,23,0.75,Stimuli/P018/things_boy_09s.jpg,0,0.0,0.0,0,68,68,68,,,,,,,,,,,,,151.99976929999684,-0.00023070000315783545,None,178.0075966000004,178.0075966000004,178.0075966000004,178.0075966000004,178.0075966000004,178.0075966000004,178.0075966000004,178.0075966000004,178.0075966000004,178.0075966000004,,006,P018,2025_Mar_07_1826,ConditionRich,2021.2.3,59.899823535027,
152.75,156.0,41,0.0,Stimuli/Blank.png,0,0.0,0.0,0,69,69,69,,,,,,,,,,,,,152.75320819999615,0.0032081999961519614,None,178.77495239999553,178.77495239999553,178.77495239999553,178.77495239999553,178.77495239999553,178.77495239999553,178.77495239999553,178.77495239999553,178.77495239999553,178.77495239999553,,006,P018,2025_Mar_07_1826,ConditionRich,2021.2.3,59.899823535027,
156.0,156.75,29,0.75,Stimuli/P018/things_face_09s.jpg,0,0.0,0.0,0,70,70,70,,,,,,,,,,,,,156.02003349999723,0.02003349999722559,None,182.02778469999612,182.02778469999612,182.02778469999612,182.02778469999612,182.02778469999612,182.02778469999612,182.02778469999612,182.02778469999612,182.02778469999612,182.02778469999612,,006,P018,2025_Mar_07_1826,ConditionRich,2021.2.3,59.899823535027,
156.75,160.0,41,0.0,Stimuli/Blank.png,0,0.0,0.0,0,71,71,71,,,,,,,,,,,,,156.75401689999853,0.004016899998532608,None,182.76191239999753,182.76191239999753,182.76191239999753,182.76191239999753,182.76191239999753,182.76191239999753,182.76191239999753,182.76191239999753,182.76191239999753,182.76191239999753,,006,P018,2025_Mar_07_1826,ConditionRich,2021.2.3,59.899823535027,
160.0,160.75,16,0.75,Stimuli/P018/sun_brfwxjsnmauhmfzf.jpg,0,0.0,0.0,0,72,72,72,,,,,,,,,,,,,160.00795520000247,0.00795520000247052,None,186.01467169999523,186.01467169999523,186.01467169999523,186.01467169999523,186.01467169999523,186.01467169999523,186.01467169999523,186.01467169999523,186.01467169999523,186.01467169999523,,006,P018,2025_Mar_07_1826,ConditionRich,2021.2.3,59.899823535027,
160.75,164.0,41,0.0,Stimuli/Blank.png,0,0.0,0.0,0,73,73,73,,,,,,,,,,,,,160.758983300002,0.00898330000200076,None,186.78219639999588,186.78219639999588,186.78219639999588,186.78219639999588,186.78219639999588,186.78219639999588,186.78219639999588,186.78219639999588,186.78219639999588,186.78219639999588,,006,P018,2025_Mar_07_1826,ConditionRich,2021.2.3,59.899823535027,
164.0,164.75,8,0.75,Stimuli/P018/sun_axsmqyyvebrcuhkn.jpg,0,0.0,0.0,0,74,74,74,,,,,,,,,,,,,164.02782619999925,0.02782619999925373,None,190.0348909999957,190.0348909999957,190.0348909999957,190.0348909999957,190.0348909999957,190.0348909999957,190.0348909999957,190.0348909999957,190.0348909999957,190.0348909999957,,006,P018,2025_Mar_07_1826,ConditionRich,2021.2.3,59.899823535027,
164.75,168.0,41,0.0,Stimuli/Blank.png,0,0.0,0.0,0,75,75,75,,,,,,,,,,,,,164.7631074000019,0.013107400001899805,None,190.78562519999832,190.78562519999832,190.78562519999832,190.78562519999832,190.78562519999832,190.78562519999832,190.78562519999832,190.78562519999832,190.78562519999832,190.78562519999832,,006,P018,2025_Mar_07_1826,ConditionRich,2021.2.3,59.899823535027,
168.0,168.75,21,0.75,Stimuli/P018/things_baby_09s.jpg,0,0.0,0.0,0,76,76,76,,,,,,,,,,,,,168.0148948999995,0.014894899999490008,None,194.02175429999625,194.02175429999625,194.02175429999625,194.02175429999625,194.02175429999625,194.02175429999625,194.02175429999625,194.02175429999625,194.02175429999625,194.02175429999625,,006,P018,2025_Mar_07_1826,ConditionRich,2021.2.3,59.899823535027,
168.75,172.0,41,0.0,Stimuli/Blank.png,0,0.0,0.0,0,77,77,77,,,,,,,,,,,,,168.76521839999623,0.015218399996228982,None,194.7724134999953,194.7724134999953,194.7724134999953,194.7724134999953,194.7724134999953,194.7724134999953,194.7724134999953,194.7724134999953,194.7724134999953,194.7724134999953,,006,P018,2025_Mar_07_1826,ConditionRich,2021.2.3,59.899823535027,
172.0,172.75,39,0.75,Stimuli/P018/things_veil_09s.jpg,0,0.0,0.0,0,78,78,78,,,,,,,,,,,,,172.0033928999983,0.0033928999982890673,None,198.02529089999734,198.02529089999734,198.02529089999734,198.02529089999734,198.02529089999734,198.02529089999734,198.02529089999734,198.02529089999734,198.02529089999734,198.02529089999734,,006,P018,2025_Mar_07_1826,ConditionRich,2021.2.3,59.899823535027,
172.75,176.0,41,0.0,Stimuli/Blank.png,0,0.0,0.0,0,79,79,79,,,,,,,,,,,,,172.76948609999818,0.019486099998175632,None,198.7759545999943,198.7759545999943,198.7759545999943,198.7759545999943,198.7759545999943,198.7759545999943,198.7759545999943,198.7759545999943,198.7759545999943,198.7759545999943,,006,P018,2025_Mar_07_1826,ConditionRich,2021.2.3,59.899823535027,
176.0,176.75,30,0.75,Stimuli/P018/things_girl_09s.jpg,0,0.0,0.0,0,80,80,80,,,,,,,,,,,,,176.00491709999915,0.004917099999147467,None,202.01214539999637,202.01214539999637,202.01214539999637,202.01214539999637,202.01214539999637,202.01214539999637,202.01214539999637,202.01214539999637,202.01214539999637,202.01214539999637,,006,P018,2025_Mar_07_1826,ConditionRich,2021.2.3,59.899823535027,
176.75,180.0,41,0.0,Stimuli/Blank.png,0,0.0,0.0,0,81,81,81,,,,,,,,,,,,,176.75491740000143,0.004917400001431815,None,202.76281010000093,202.76281010000093,202.76281010000093,202.76281010000093,202.76281010000093,202.76281010000093,202.76281010000093,202.76281010000093,202.76281010000093,202.76281010000093,,006,P018,2025_Mar_07_1826,ConditionRich,2021.2.3,59.899823535027,
180.0,196.0,0,0.0,Stimuli/Blank.png,1,1.0,1.75,0,82,82,82,,,,,,,,,,,,,180.00805399999808,0.008053999998082872,2,206.01568839999527,206.01568839999527,206.01568839999527,206.01568839999527,206.01568839999527,206.01568839999527,206.99989859999914,207.75056010000117,206.01568839999527,206.01568839999527,1.4131141000034404,006,P018,2025_Mar_07_1826,ConditionRich,2021.2.3,59.899823535027,
196.0,196.75,11,0.75,Stimuli/P018/sun_bdzxsadvniuolmio.jpg,0,0.0,0.0,0,83,83,83,,,,,,,,,,,,,196.00559079999948,0.005590799999481533,None,222.02988339999865,222.02988339999865,222.02988339999865,222.02988339999865,222.02988339999865,222.02988339999865,222.02988339999865,222.02988339999865,222.02988339999865,222.02988339999865,,006,P018,2025_Mar_07_1826,ConditionRich,2021.2.3,59.899823535027,
196.75,200.0,41,0.0,Stimuli/Blank.png,0,0.0,0.0,0,84,84,84,,,,,,,,,,,,,196.77380499999708,0.023804999997082632,None,222.7805176999973,222.7805176999973,222.7805176999973,222.7805176999973,222.7805176999973,222.7805176999973,222.7805176999973,222.7805176999973,222.7805176999973,222.7805176999973,,006,P018,2025_Mar_07_1826,ConditionRich,2021.2.3,59.899823535027,
200.0,200.75,40,0.75,Stimuli/P018/things_woman_09s.jpg,1,0.0,0.75,0,85,85,85,,,,,,,,,,,,,200.00943109999935,0.00943109999934677,2,226.0166992999948,226.0166992999948,226.0166992999948,226.0166992999948,226.0166992999948,226.0166992999948,226.0166992999948,226.7506776999944,226.0166992999948,226.0166992999948,0.6383172999994713,006,P018,2025_Mar_07_1826,ConditionRich,2021.2.3,59.899823535027,
200.75,204.0,41,0.0,Stimuli/Blank.png,0,0.0,0.0,0,86,86,86,,,,,,,,,,,,,200.75938170000154,0.009381700001540594,None,226.76735460000054,226.76735460000054,226.76735460000054,226.76735460000054,226.76735460000054,226.76735460000054,226.76735460000054,226.76735460000054,226.76735460000054,226.76735460000054,,006,P018,2025_Mar_07_1826,ConditionRich,2021.2.3,59.899823535027,
204.0,204.75,12,0.75,Stimuli/P018/sun_bhvaiabdgxjuwoth.jpg,0,0.0,0.0,0,87,87,87,,,,,,,,,,,,,204.0129805999968,0.01298059999680845,None,230.02023069999996,230.02023069999996,230.02023069999996,230.02023069999996,230.02023069999996,230.02023069999996,230.02023069999996,230.02023069999996,230.02023069999996,230.02023069999996,,006,P018,2025_Mar_07_1826,ConditionRich,2021.2.3,59.899823535027,
204.75,208.0,41,0.0,Stimuli/Blank.png,1,0.25,1.0,0,88,88,88,,,,,,,,,,,,,204.76356700000179,0.013567000001785345,2,230.77090339999995,230.77090339999995,230.77090339999995,230.77090339999995,230.77090339999995,230.77090339999995,231.0044293999963,231.7550992999968,230.77090339999995,230.77090339999995,0.6159035000018775,006,P018,2025_Mar_07_1826,ConditionRich,2021.2.3,59.899823535027,
208.0,208.75,23,0.75,Stimuli/P018/things_boy_09s.jpg,0,0.0,0.0,0,89,89,89,,,,,,,,,,,,,207.99933639999654,-0.0006636000034632161,None,234.0070893000011,234.0070893000011,234.0070893000011,234.0070893000011,234.0070893000011,234.0070893000011,234.0070893000011,234.0070893000011,234.0070893000011,234.0070893000011,,006,P018,2025_Mar_07_1826,ConditionRich,2021.2.3,59.899823535027,
208.75,212.0,41,0.0,Stimuli/Blank.png,0,0.0,0.0,0,90,90,90,,,,,,,,,,,,,208.7497633000021,-0.00023669999791309237,None,234.75780659999873,234.75780659999873,234.75780659999873,234.75780659999873,234.75780659999873,234.75780659999873,234.75780659999873,234.75780659999873,234.75780659999873,234.75780659999873,,006,P018,2025_Mar_07_1826,ConditionRich,2021.2.3,59.899823535027,
212.0,212.75,5,0.75,Stimuli/P018/sun_apojgqgvdvsksdvo.jpg,0,0.0,0.0,0,91,91,91,,,,,,,,,,,,,212.0036179000017,0.0036179000017000362,None,238.02732969999488,238.02732969999488,238.02732969999488,238.02732969999488,238.02732969999488,238.02732969999488,238.02732969999488,238.02732969999488,238.02732969999488,238.02732969999488,,006,P018,2025_Mar_07_1826,ConditionRich,2021.2.3,59.899823535027,
212.75,216.0,41,0.0,Stimuli/Blank.png,0,0.0,0.0,0,92,92,92,,,,,,,,,,,,,212.77001239999663,0.020012399996630847,None,238.77797160000046,238.77797160000046,238.77797160000046,238.77797160000046,238.77797160000046,238.77797160000046,238.77797160000046,238.77797160000046,238.77797160000046,238.77797160000046,,006,P018,2025_Mar_07_1826,ConditionRich,2021.2.3,59.899823535027,
216.0,216.75,39,0.75,Stimuli/P018/things_veil_09s.jpg,0,0.0,0.0,0,93,93,93,,,,,,,,,,,,,216.00693570000294,0.006935700002941303,None,242.03086020000046,242.03086020000046,242.03086020000046,242.03086020000046,242.03086020000046,242.03086020000046,242.03086020000046,242.03086020000046,242.03086020000046,242.03086020000046,,006,P018,2025_Mar_07_1826,ConditionRich,2021.2.3,59.899823535027,
216.75,220.0,41,0.0,Stimuli/Blank.png,0,0.0,0.0,0,94,94,94,,,,,,,,,,,,,216.77378129999852,0.02378129999851808,None,242.78151789999538,242.78151789999538,242.78151789999538,242.78151789999538,242.78151789999538,242.78151789999538,242.78151789999538,242.78151789999538,242.78151789999538,242.78151789999538,,006,P018,2025_Mar_07_1826,ConditionRich,2021.2.3,59.899823535027,
220.0,220.75,35,0.75,Stimuli/P018/things_lobster_09s.jpg,0,0.0,0.0,0,95,95,95,,,,,,,,,,,,,220.01045840000006,0.010458400000061374,None,246.03441770000063,246.03441770000063,246.03441770000063,246.03441770000063,246.03441770000063,246.03441770000063,246.03441770000063,246.03441770000063,246.03441770000063,246.03441770000063,,006,P018,2025_Mar_07_1826,ConditionRich,2021.2.3,59.899823535027,
220.75,224.0,41,0.0,Stimuli/Blank.png,0,0.0,0.0,0,96,96,96,,,,,,,,,,,,,220.77814870000293,0.028148700002930127,None,246.78505990000122,246.78505990000122,246.78505990000122,246.78505990000122,246.78505990000122,246.78505990000122,246.78505990000122,246.78505990000122,246.78505990000122,246.78505990000122,,006,P018,2025_Mar_07_1826,ConditionRich,2021.2.3,59.899823535027,
224.0,224.75,17,0.75,Stimuli/P018/sun_brhndfjxyigqgiwl.jpg,0,0.0,0.0,0,97,97,97,,,,,,,,,,,,,224.0139657999971,0.013965799997095019,None,250.02124329999788,250.02124329999788,250.02124329999788,250.02124329999788,250.02124329999788,250.02124329999788,250.02124329999788,250.02124329999788,250.02124329999788,250.02124329999788,,006,P018,2025_Mar_07_1826,ConditionRich,2021.2.3,59.899823535027,
224.75,228.0,41,0.0,Stimuli/Blank.png,0,0.0,0.0,0,98,98,98,,,,,,,,,,,,,224.7646182000026,0.0146182000025874,None,250.7719064999983,250.7719064999983,250.7719064999983,250.7719064999983,250.7719064999983,250.7719064999983,250.7719064999983,250.7719064999983,250.7719064999983,250.7719064999983,,006,P018,2025_Mar_07_1826,ConditionRich,2021.2.3,59.899823535027,
228.0,228.75,25,0.75,Stimuli/P018/things_cannonball_09s.jpg,0,0.0,0.0,0,99,99,99,,,,,,,,,,,,,228.0001129000011,0.000112900001113303,None,254.02478939999855,254.02478939999855,254.02478939999855,254.02478939999855,254.02478939999855,254.02478939999855,254.02478939999855,254.02478939999855,254.02478939999855,254.02478939999855,,006,P018,2025_Mar_07_1826,ConditionRich,2021.2.3,59.899823535027,
228.75,232.0,41,0.0,Stimuli/Blank.png,0,0.0,0.0,0,100,100,100,,,,,,,,,,,,,228.76821719999862,0.018217199998616707,None,254.77546119999897,254.77546119999897,254.77546119999897,254.77546119999897,254.77546119999897,254.77546119999897,254.77546119999897,254.77546119999897,254.77546119999897,254.77546119999897,,006,P018,2025_Mar_07_1826,ConditionRich,2021.2.3,59.899823535027,
232.0,232.75,34,0.75,Stimuli/P018/things_llama_09s.jpg,0,0.0,0.0,0,101,101,101,,,,,,,,,,,,,232.0037263999984,0.003726399998413399,None,258.01161729999876,258.01161729999876,258.01161729999876,258.01161729999876,258.01161729999876,258.01161729999876,258.01161729999876,258.01161729999876,258.01161729999876,258.01161729999876,,006,P018,2025_Mar_07_1826,ConditionRich,2021.2.3,59.899823535027,
232.75,236.0,41,0.0,Stimuli/Blank.png,0,0.0,0.0,0,102,102,102,,,,,,,,,,,,,232.75481240000227,0.004812400002265349,None,258.7622549999942,258.7622549999942,258.7622549999942,258.7622549999942,258.7622549999942,258.7622549999942,258.7622549999942,258.7622549999942,258.7622549999942,258.7622549999942,,006,P018,2025_Mar_07_1826,ConditionRich,2021.2.3,59.899823535027,
236.0,236.75,24,0.75,Stimuli/P018/things_breadbox_09s.jpg,0,0.0,0.0,0,103,103,103,,,,,,,,,,,,,236.00773359999584,0.0077335999958449975,None,262.0151732999948,262.0151732999948,262.0151732999948,262.0151732999948,262.0151732999948,262.0151732999948,262.0151732999948,262.0151732999948,262.0151732999948,262.0151732999948,,006,P018,2025_Mar_07_1826,ConditionRich,2021.2.3,59.899823535027,
236.75,240.0,41,0.0,Stimuli/Blank.png,0,0.0,0.0,0,104,104,104,,,,,,,,,,,,,236.75948659999995,0.00948659999994561,None,262.78255060000083,262.78255060000083,262.78255060000083,262.78255060000083,262.78255060000083,262.78255060000083,262.78255060000083,262.78255060000083,262.78255060000083,262.78255060000083,,006,P018,2025_Mar_07_1826,ConditionRich,2021.2.3,59.899823535027,
240.0,240.75,19,0.75,Stimuli/P018/sun_brrwzaypucosdcgt.jpg,0,0.0,0.0,0,105,105,105,,,,,,,,,,,,,240.02834060000168,0.028340600001683924,None,266.05212929999834,266.05212929999834,266.05212929999834,266.05212929999834,266.05212929999834,266.05212929999834,266.05212929999834,266.05212929999834,266.05212929999834,266.05212929999834,,006,P018,2025_Mar_07_1826,ConditionRich,2021.2.3,59.899823535027,
240.75,244.0,41,0.0,Stimuli/Blank.png,0,0.0,0.0,0,106,106,106,,,,,,,,,,,,,240.77875309999945,0.02875309999944875,None,266.786070999995,266.786070999995,266.786070999995,266.786070999995,266.786070999995,266.786070999995,266.786070999995,266.786070999995,266.786070999995,266.786070999995,,006,P018,2025_Mar_07_1826,ConditionRich,2021.2.3,59.899823535027,
244.0,244.75,4,0.75,Stimuli/P018/sun_aibvvqlmlsjnrgdj.jpg,0,0.0,0.0,0,107,107,107,,,,,,,,,,,,,244.0144336000012,0.014433600001211744,None,270.0389481999955,270.0389481999955,270.0389481999955,270.0389481999955,270.0389481999955,270.0389481999955,270.0389481999955,270.0389481999955,270.0389481999955,270.0389481999955,,006,P018,2025_Mar_07_1826,ConditionRich,2021.2.3,59.899823535027,
244.75,248.0,41,0.0,Stimuli/Blank.png,0,0.0,0.0,0,108,108,108,,,,,,,,,,,,,244.78234320000047,0.03234320000046864,None,270.7896141999954,270.7896141999954,270.7896141999954,270.7896141999954,270.7896141999954,270.7896141999954,270.7896141999954,270.7896141999954,270.7896141999954,270.7896141999954,,006,P018,2025_Mar_07_1826,ConditionRich,2021.2.3,59.899823535027,
248.0,248.75,26,0.75,Stimuli/P018/things_chandelier_09s.jpg,0,0.0,0.0,0,109,109,109,,,,,,,,,,,,,248.00388009999733,0.003880099997331854,None,274.02580649999436,274.02580649999436,274.02580649999436,274.02580649999436,274.02580649999436,274.02580649999436,274.02580649999436,274.02580649999436,274.02580649999436,274.02580649999436,,006,P018,2025_Mar_07_1826,ConditionRich,2021.2.3,59.899823535027,
248.75,252.0,41,0.0,Stimuli/Blank.png,0,0.0,0.0,0,110,110,110,,,,,,,,,,,,,248.76845360000152,0.01845360000152141,None,274.7764883999989,274.7764883999989,274.7764883999989,274.7764883999989,274.7764883999989,274.7764883999989,274.7764883999989,274.7764883999989,274.7764883999989,274.7764883999989,,006,P018,2025_Mar_07_1826,ConditionRich,2021.2.3,59.899823535027,
252.0,252.75,38,0.75,Stimuli/P018/things_pony_09s.jpg,0,0.0,0.0,0,111,111,111,,,,,,,,,,,,,252.00521950000257,0.005219500002567656,None,278.0126497999954,278.0126497999954,278.0126497999954,278.0126497999954,278.0126497999954,278.0126497999954,278.0126497999954,278.0126497999954,278.0126497999954,278.0126497999954,,006,P018,2025_Mar_07_1826,ConditionRich,2021.2.3,59.899823535027,
252.75,256.0,41,0.0,Stimuli/Blank.png,1,0.25,1.0,0,112,112,112,,,,,,,,,,,,,252.75613069999963,0.006130699999630451,2,278.7633300999951,278.7633300999951,278.7633300999951,278.7633300999951,278.7633300999951,278.7633300999951,278.9968504999997,279.74757439999667,278.7633300999951,278.7633300999951,0.6226767000043765,006,P018,2025_Mar_07_1826,ConditionRich,2021.2.3,59.899823535027,
256.0,256.75,36,0.75,Stimuli/P018/things_nest_09s.jpg,1,0.0,0.75,0,113,113,113,,,,,,,,,,,,,256.0099163999985,0.009916399998473935,2,282.0328767999963,282.0328767999963,282.0328767999963,282.0328767999963,282.0328767999963,282.0328767999963,282.0328767999963,282.7501714999962,282.0328767999963,282.0328767999963,0.5019175999987056,006,P018,2025_Mar_07_1826,ConditionRich,2021.2.3,59.899823535027,
256.75,260.0,41,0.0,Stimuli/Blank.png,0,0.0,0.0,0,114,114,114,,,,,,,,,,,,,256.77818919999845,0.02818919999845093,None,282.80023589999473,282.80023589999473,282.80023589999473,282.80023589999473,282.80023589999473,282.80023589999473,282.80023589999473,282.80023589999473,282.80023589999473,282.80023589999473,,006,P018,2025_Mar_07_1826,ConditionRich,2021.2.3,59.899823535027,
260.0,260.75,27,0.75,Stimuli/P018/things_coffin_09s.jpg,0,0.0,0.0,0,115,115,115,,,,,,,,,,,,,260.0287315000023,0.02873150000232272,None,286.03640769999765,286.03640769999765,286.03640769999765,286.03640769999765,286.03640769999765,286.03640769999765,286.03640769999765,286.03640769999765,286.03640769999765,286.03640769999765,,006,P018,2025_Mar_07_1826,ConditionRich,2021.2.3,59.899823535027,
260.75,264.0,41,0.0,Stimuli/Blank.png,0,0.0,0.0,0,116,116,116,,,,,,,,,,,,,260.7632980999988,0.013298099998792168,None,286.77039589999913,286.77039589999913,286.77039589999913,286.77039589999913,286.77039589999913,286.77039589999913,286.77039589999913,286.77039589999913,286.77039589999913,286.77039589999913,,006,P018,2025_Mar_07_1826,ConditionRich,2021.2.3,59.899823535027,
264.0,264.75,13,0.75,Stimuli/P018/sun_bizqwyomkqigheyx.jpg,0,0.0,0.0,0,117,117,117,,,,,,,,,,,,,263.99894340000174,-0.0010565999982645735,None,290.006584799994,290.006584799994,290.006584799994,290.006584799994,290.006584799994,290.006584799994,290.006584799994,290.006584799994,290.006584799994,290.006584799994,,006,P018,2025_Mar_07_1826,ConditionRich,2021.2.3,59.899823535027,
264.75,268.0,41,0.0,Stimuli/Blank.png,0,0.0,0.0,0,118,118,118,,,,,,,,,,,,,264.74931240000296,-0.000687599997036159,None,290.7572536999942,290.7572536999942,290.7572536999942,290.7572536999942,290.7572536999942,290.7572536999942,290.7572536999942,290.7572536999942,290.7572536999942,290.7572536999942,,006,P018,2025_Mar_07_1826,ConditionRich,2021.2.3,59.899823535027,
268.0,268.75,10,0.75,Stimuli/P018/sun_bayxprasninnrnle.jpg,0,0.0,0.0,0,119,119,119,,,,,,,,,,,,,268.0020369999984,0.0020369999983813614,None,294.0101319999958,294.0101319999958,294.0101319999958,294.0101319999958,294.0101319999958,294.0101319999958,294.0101319999958,294.0101319999958,294.0101319999958,294.0101319999958,,006,P018,2025_Mar_07_1826,ConditionRich,2021.2.3,59.899823535027,
268.75,272.0,41,0.0,Stimuli/Blank.png,0,0.0,0.0,0,120,120,120,,,,,,,,,,,,,268.75364080000145,0.0036408000014489517,None,294.7608001999979,294.7608001999979,294.7608001999979,294.7608001999979,294.7608001999979,294.7608001999979,294.7608001999979,294.7608001999979,294.7608001999979,294.7608001999979,,006,P018,2025_Mar_07_1826,ConditionRich,2021.2.3,59.899823535027,
272.0,272.75,18,0.75,Stimuli/P018/sun_brrvvswweljrvnlq.jpg,0,0.0,0.0,0,121,121,121,,,,,,,,,,,,,272.0083069999964,0.008306999996420927,None,298.03035299999465,298.03035299999465,298.03035299999465,298.03035299999465,298.03035299999465,298.03035299999465,298.03035299999465,298.03035299999465,298.03035299999465,298.03035299999465,,006,P018,2025_Mar_07_1826,ConditionRich,2021.2.3,59.899823535027,
272.75,276.0,41,0.0,Stimuli/Blank.png,0,0.0,0.0,0,122,122,122,,,,,,,,,,,,,272.77384309999616,0.023843099996156525,None,298.7977299999984,298.7977299999984,298.7977299999984,298.7977299999984,298.7977299999984,298.7977299999984,298.7977299999984,298.7977299999984,298.7977299999984,298.7977299999984,,006,P018,2025_Mar_07_1826,ConditionRich,2021.2.3,59.899823535027,
276.0,292.0,0,0.0,Stimuli/Blank.png,1,3.0,3.75,0,123,123,123,,,,,,,,,,,,,276.026715699998,0.02671569999802159,2,302.03388540000014,302.03388540000014,302.03388540000014,302.03388540000014,302.03388540000014,302.03388540000014,305.0198225999993,305.7705242999946,302.03388540000014,302.03388540000014,3.392123799996625,006,P018,2025_Mar_07_1826,ConditionRich,2021.2.3,59.899823535027,
292.0,292.75,1,0.75,Stimuli/P018/sun_aawmwfqqbzauhqkb.jpg,0,0.0,0.0,0,124,124,124,,,,,,,,,,,,,292.0073792999974,0.007379299997410271,None,318.01467359999515,318.01467359999515,318.01467359999515,318.01467359999515,318.01467359999515,318.01467359999515,318.01467359999515,318.01467359999515,318.01467359999515,318.01467359999515,,006,P018,2025_Mar_07_1826,ConditionRich,2021.2.3,59.899823535027,
292.75,296.0,41,0.0,Stimuli/Blank.png,0,0.0,0.0,0,125,125,125,,,,,,,,,,,,,292.7578343999994,0.00783439999941038,None,318.765344499996,318.765344499996,318.765344499996,318.765344499996,318.765344499996,318.765344499996,318.765344499996,318.765344499996,318.765344499996,318.765344499996,,006,P018,2025_Mar_07_1826,ConditionRich,2021.2.3,59.899823535027,
296.0,296.75,29,0.75,Stimuli/P018/things_face_09s.jpg,0,0.0,0.0,0,126,126,126,,,,,,,,,,,,,296.01287310000043,0.012873100000433624,None,322.03490939999756,322.03490939999756,322.03490939999756,322.03490939999756,322.03490939999756,322.03490939999756,322.03490939999756,322.03490939999756,322.03490939999756,322.03490939999756,,006,P018,2025_Mar_07_1826,ConditionRich,2021.2.3,59.899823535027,
296.75,300.0,41,0.0,Stimuli/Blank.png,0,0.0,0.0,0,127,127,127,,,,,,,,,,,,,296.7783347000004,0.02833470000041416,None,322.78556319999916,322.78556319999916,322.78556319999916,322.78556319999916,322.78556319999916,322.78556319999916,322.78556319999916,322.78556319999916,322.78556319999916,322.78556319999916,,006,P018,2025_Mar_07_1826,ConditionRich,2021.2.3,59.899823535027,
300.0,300.75,9,0.75,Stimuli/P018/sun_ayidxslzurdumeps.jpg,0,0.0,0.0,0,128,128,128,,,,,,,,,,,,,300.0145128000004,0.014512800000375137,None,326.03848350000044,326.03848350000044,326.03848350000044,326.03848350000044,326.03848350000044,326.03848350000044,326.03848350000044,326.03848350000044,326.03848350000044,326.03848350000044,,006,P018,2025_Mar_07_1826,ConditionRich,2021.2.3,59.899823535027,
300.75,304.0,41,0.0,Stimuli/Blank.png,1,0.25,1.0,0,129,129,129,,,,,,,,,,,,,300.7840425999966,0.03404259999661008,2,326.8059037999992,326.8059037999992,326.8059037999992,326.8059037999992,326.8059037999992,326.8059037999992,327.03929659999994,327.78999369999656,326.8059037999992,326.8059037999992,0.6287905999997747,006,P018,2025_Mar_07_1826,ConditionRich,2021.2.3,59.899823535027,
304.0,304.75,2,0.75,Stimuli/P018/sun_acliytrpktltxwsx.jpg,0,0.0,0.0,0,130,130,130,,,,,,,,,,,,,304.0174851999982,0.017485199998191092,None,330.0252923999942,330.0252923999942,330.0252923999942,330.0252923999942,330.0252923999942,330.0252923999942,330.0252923999942,330.0252923999942,330.0252923999942,330.0252923999942,,006,P018,2025_Mar_07_1826,ConditionRich,2021.2.3,59.899823535027,
304.75,308.0,41,0.0,Stimuli/Blank.png,0,0.0,0.0,0,131,131,131,,,,,,,,,,,,,304.75209209999593,0.0020920999959344044,None,330.75930069999595,330.75930069999595,330.75930069999595,330.75930069999595,330.75930069999595,330.75930069999595,330.75930069999595,330.75930069999595,330.75930069999595,330.75930069999595,,006,P018,2025_Mar_07_1826,ConditionRich,2021.2.3,59.899823535027,
308.0,308.75,3,0.75,Stimuli/P018/sun_acymmczhyuiimeub.jpg,0,0.0,0.0,0,132,132,132,,,,,,,,,,,,,308.0054664999989,0.005466499998874497,None,334.01214959999925,334.01214959999925,334.01214959999925,334.01214959999925,334.01214959999925,334.01214959999925,334.01214959999925,334.01214959999925,334.01214959999925,334.01214959999925,,006,P018,2025_Mar_07_1826,ConditionRich,2021.2.3,59.899823535027,
308.75,312.0,41,0.0,Stimuli/Blank.png,0,0.0,0.0,0,133,133,133,,,,,,,,,,,,,308.75534139999945,0.0053413999994518235,None,334.76291939999646,334.76291939999646,334.76291939999646,334.76291939999646,334.76291939999646,334.76291939999646,334.76291939999646,334.76291939999646,334.76291939999646,334.76291939999646,,006,P018,2025_Mar_07_1826,ConditionRich,2021.2.3,59.899823535027,
312.0,312.75,20,0.75,Stimuli/P018/sun_buukivvfbfhosrng.jpg,0,0.0,0.0,0,134,134,134,,,,,,,,,,,,,312.0091358999998,0.00913589999981923,None,338.0323855999959,338.0323855999959,338.0323855999959,338.0323855999959,338.0323855999959,338.0323855999959,338.0323855999959,338.0323855999959,338.0323855999959,338.0323855999959,,006,P018,2025_Mar_07_1826,ConditionRich,2021.2.3,59.899823535027,
312.75,316.0,41,0.0,Stimuli/Blank.png,0,0.0,0.0,0,135,135,135,,,,,,,,,,,,,312.7777262000018,0.027726200001779944,None,338.7997341999944,338.7997341999944,338.7997341999944,338.7997341999944,338.7997341999944,338.7997341999944,338.7997341999944,338.7997341999944,338.7997341999944,338.7997341999944,,006,P018,2025_Mar_07_1826,ConditionRich,2021.2.3,59.899823535027,
316.0,316.75,32,0.75,Stimuli/P018/things_horse_09s.jpg,0,0.0,0.0,0,136,136,136,,,,,,,,,,,,,316.0286049999995,0.028604999999515712,None,342.0526308999979,342.0526308999979,342.0526308999979,342.0526308999979,342.0526308999979,342.0526308999979,342.0526308999979,342.0526308999979,342.0526308999979,342.0526308999979,,006,P018,2025_Mar_07_1826,ConditionRich,2021.2.3,59.899823535027,
316.75,320.0,41,0.0,Stimuli/Blank.png,1,2.25,3.0,0,137,137,137,,,,,,,,,,,,,316.7786167000013,0.028616700001293793,2,342.7865498999963,342.7865498999963,342.7865498999963,342.7865498999963,342.7865498999963,342.7865498999963,345.0219241999948,345.7725827999966,342.7865498999963,342.7865498999963,2.888453599996865,006,P018,2025_Mar_07_1826,ConditionRich,2021.2.3,59.899823535027,
320.0,320.75,33,0.75,Stimuli/P018/things_lamb_09s.jpg,0,0.0,0.0,0,138,138,138,,,,,,,,,,,,,320.01641930000187,0.016419300001871306,None,346.0394503999996,346.0394503999996,346.0394503999996,346.0394503999996,346.0394503999996,346.0394503999996,346.0394503999996,346.0394503999996,346.0394503999996,346.0394503999996,,006,P018,2025_Mar_07_1826,ConditionRich,2021.2.3,59.899823535027,
320.75,324.0,41,0.0,Stimuli/Blank.png,0,0.0,0.0,0,139,139,139,,,,,,,,,,,,,320.76540569999634,0.015405699996335898,None,346.7734371999977,346.7734371999977,346.7734371999977,346.7734371999977,346.7734371999977,346.7734371999977,346.7734371999977,346.7734371999977,346.7734371999977,346.7734371999977,,006,P018,2025_Mar_07_1826,ConditionRich,2021.2.3,59.899823535027,
324.0,324.75,16,0.75,Stimuli/P018/sun_brfwxjsnmauhmfzf.jpg,0,0.0,0.0,0,140,140,140,,,,,,,,,,,,,324.0026261000021,0.0026261000020895153,None,350.02641700000095,350.02641700000095,350.02641700000095,350.02641700000095,350.02641700000095,350.02641700000095,350.02641700000095,350.02641700000095,350.02641700000095,350.02641700000095,,006,P018,2025_Mar_07_1826,ConditionRich,2021.2.3,59.899823535027,
324.75,328.0,41,0.0,Stimuli/Blank.png,0,0.0,0.0,0,141,141,141,,,,,,,,,,,,,324.7692526000028,0.019252600002801046,None,350.7769765999983,350.7769765999983,350.7769765999983,350.7769765999983,350.7769765999983,350.7769765999983,350.7769765999983,350.7769765999983,350.7769765999983,350.7769765999983,,006,P018,2025_Mar_07_1826,ConditionRich,2021.2.3,59.899823535027,
328.0,328.75,30,0.75,Stimuli/P018/things_girl_09s.jpg,1,0.0,0.75,0,142,142,142,,,,,,,,,,,,,328.00522510000155,0.0052251000015530735,2,354.0131690999988,354.0131690999988,354.0131690999988,354.0131690999988,354.0131690999988,354.0131690999988,354.0131690999988,354.747186099994,354.0131690999988,354.0131690999988,0.57678930000111,006,P018,2025_Mar_07_1826,ConditionRich,2021.2.3,59.899823535027,
328.75,332.0,41,0.0,Stimuli/Blank.png,0,0.0,0.0,0,143,143,143,,,,,,,,,,,,,328.7583716000008,0.008371600000828039,None,354.78052079999907,354.78052079999907,354.78052079999907,354.78052079999907,354.78052079999907,354.78052079999907,354.78052079999907,354.78052079999907,354.78052079999907,354.78052079999907,,006,P018,2025_Mar_07_1826,ConditionRich,2021.2.3,59.899823535027,
332.0,332.75,7,0.75,Stimuli/P018/sun_auadhqmfjsjtjcue.jpg,0,0.0,0.0,0,144,144,144,,,,,,,,,,,,,332.0284682999991,0.028468299999076407,None,358.0500752999942,358.0500752999942,358.0500752999942,358.0500752999942,358.0500752999942,358.0500752999942,358.0500752999942,358.0500752999942,358.0500752999942,358.0500752999942,,006,P018,2025_Mar_07_1826,ConditionRich,2021.2.3,59.899823535027,
332.75,336.0,41,0.0,Stimuli/Blank.png,0,0.0,0.0,0,145,145,145,,,,,,,,,,,,,332.7790773000015,0.02907730000151787,None,358.8007404999953,358.8007404999953,358.8007404999953,358.8007404999953,358.8007404999953,358.8007404999953,358.8007404999953,358.8007404999953,358.8007404999953,358.8007404999953,,006,P018,2025_Mar_07_1826,ConditionRich,2021.2.3,59.899823535027,
336.0,336.75,6,0.75,Stimuli/P018/sun_atuyvunnykjurjgx.jpg,0,0.0,0.0,0,146,146,146,,,,,,,,,,,,,336.0296740999984,0.029674099998374004,None,362.03692359999695,362.03692359999695,362.03692359999695,362.03692359999695,362.03692359999695,362.03692359999695,362.03692359999695,362.03692359999695,362.03692359999695,362.03692359999695,,006,P018,2025_Mar_07_1826,ConditionRich,2021.2.3,59.899823535027,
336.75,340.0,41,0.0,Stimuli/Blank.png,0,0.0,0.0,0,147,147,147,,,,,,,,,,,,,336.76382439999725,0.013824399997247383,None,362.7709093999947,362.7709093999947,362.7709093999947,362.7709093999947,362.7709093999947,362.7709093999947,362.7709093999947,362.7709093999947,362.7709093999947,362.7709093999947,,006,P018,2025_Mar_07_1826,ConditionRich,2021.2.3,59.899823535027,
340.0,340.75,8,0.75,Stimuli/P018/sun_axsmqyyvebrcuhkn.jpg,0,0.0,0.0,0,148,148,148,,,,,,,,,,,,,339.9990594999981,-0.0009405000018887222,None,366.0070975999988,366.0070975999988,366.0070975999988,366.0070975999988,366.0070975999988,366.0070975999988,366.0070975999988,366.0070975999988,366.0070975999988,366.0070975999988,,006,P018,2025_Mar_07_1826,ConditionRich,2021.2.3,59.899823535027,
340.75,344.0,41,0.0,Stimuli/Blank.png,0,0.0,0.0,0,149,149,149,,,,,,,,,,,,,340.74971099999675,-0.00028900000324938446,None,366.75776100000076,366.75776100000076,366.75776100000076,366.75776100000076,366.75776100000076,366.75776100000076,366.75776100000076,366.75776100000076,366.75776100000076,366.75776100000076,,006,P018,2025_Mar_07_1826,ConditionRich,2021.2.3,59.899823535027,
344.0,344.75,22,0.75,Stimuli/P018/things_boat_09s.jpg,0,0.0,0.0,0,150,150,150,,,,,,,,,,,,,344.0034172000014,0.003417200001422316,None,370.02733449999505,370.02733449999505,370.02733449999505,370.02733449999505,370.02733449999505,370.02733449999505,370.02733449999505,370.02733449999505,370.02733449999505,370.02733449999505,,006,P018,2025_Mar_07_1826,ConditionRich,2021.2.3,59.899823535027,
344.75,348.0,41,0.0,Stimuli/Blank.png,0,0.0,0.0,0,151,151,151,,,,,,,,,,,,,344.77274999999645,0.022749999996449333,None,370.79469339999923,370.79469339999923,370.79469339999923,370.79469339999923,370.79469339999923,370.79469339999923,370.79469339999923,370.79469339999923,370.79469339999923,370.79469339999923,,006,P018,2025_Mar_07_1826,ConditionRich,2021.2.3,59.899823535027,
348.0,348.75,37,0.75,Stimuli/P018/things_plastic_film_09s.jpg,0,0.0,0.0,0,152,152,152,,,,,,,,,,,,,348.02376479999657,0.02376479999657022,None,374.04754089999915,374.04754089999915,374.04754089999915,374.04754089999915,374.04754089999915,374.04754089999915,374.04754089999915,374.04754089999915,374.04754089999915,374.04754089999915,,006,P018,2025_Mar_07_1826,ConditionRich,2021.2.3,59.899823535027,
348.75,352.0,41,0.0,Stimuli/Blank.png,0,0.0,0.0,0,153,153,153,,,,,,,,,,,,,348.7747653999977,0.024765399997704662,None,374.7815321999951,374.7815321999951,374.7815321999951,374.7815321999951,374.7815321999951,374.7815321999951,374.7815321999951,374.7815321999951,374.7815321999951,374.7815321999951,,006,P018,2025_Mar_07_1826,ConditionRich,2021.2.3,59.899823535027,
352.0,352.75,31,0.75,Stimuli/P018/things_highchair_09s.jpg,0,0.0,0.0,0,154,154,154,,,,,,,,,,,,,352.01031749999675,0.010317499996745028,None,378.0177146999995,378.0177146999995,378.0177146999995,378.0177146999995,378.0177146999995,378.0177146999995,378.0177146999995,378.0177146999995,378.0177146999995,378.0177146999995,,006,P018,2025_Mar_07_1826,ConditionRich,2021.2.3,59.899823535027,
352.75,356.0,41,0.0,Stimuli/Blank.png,1,2.25,3.0,0,155,155,155,,,,,,,,,,,,,352.7610735999988,0.011073599998780992,2,378.7683718999979,378.7683718999979,378.7683718999979,378.7683718999979,378.7683718999979,378.7683718999979,381.00372709999647,381.75434759999916,378.7683718999979,378.7683718999979,2.581499399995664,006,P018,2025_Mar_07_1826,ConditionRich,2021.2.3,59.899823535027,
356.0,356.75,15,0.75,Stimuli/P018/sun_bobznlnnzwznersx.jpg,0,0.0,0.0,0,156,156,156,,,,,,,,,,,,,356.01439129999926,0.01439129999926081,None,382.02125369999703,382.02125369999703,382.02125369999703,382.02125369999703,382.02125369999703,382.02125369999703,382.02125369999703,382.02125369999703,382.02125369999703,382.02125369999703,,006,P018,2025_Mar_07_1826,ConditionRich,2021.2.3,59.899823535027,
356.75,360.0,41,0.0,Stimuli/Blank.png,0,0.0,0.0,0,157,157,157,,,,,,,,,,,,,356.7644949000023,0.0144949000023189,None,382.7719238999998,382.7719238999998,382.7719238999998,382.7719238999998,382.7719238999998,382.7719238999998,382.7719238999998,382.7719238999998,382.7719238999998,382.7719238999998,,006,P018,2025_Mar_07_1826,ConditionRich,2021.2.3,59.899823535027,
360.0,360.75,21,0.75,Stimuli/P018/things_baby_09s.jpg,0,0.0,0.0,0,158,158,158,,,,,,,,,,,,,360.00058400000125,0.0005840000012540258,None,386.0247926000011,386.0247926000011,386.0247926000011,386.0247926000011,386.0247926000011,386.0247926000011,386.0247926000011,386.0247926000011,386.0247926000011,386.0247926000011,,006,P018,2025_Mar_07_1826,ConditionRich,2021.2.3,59.899823535027,
360.75,364.0,41,0.0,Stimuli/Blank.png,0,0.0,0.0,0,159,159,159,,,,,,,,,,,,,360.768713999998,0.018713999997999053,None,386.77548069999466,386.77548069999466,386.77548069999466,386.77548069999466,386.77548069999466,386.77548069999466,386.77548069999466,386.77548069999466,386.77548069999466,386.77548069999466,,006,P018,2025_Mar_07_1826,ConditionRich,2021.2.3,59.899823535027,
364.0,364.75,14,0.75,Stimuli/P018/sun_bljpqnfmmqkjsfvx.jpg,0,0.0,0.0,0,160,160,160,,,,,,,,,,,,,364.0044018999979,0.004401899997901637,None,390.0116140999962,390.0116140999962,390.0116140999962,390.0116140999962,390.0116140999962,390.0116140999962,390.0116140999962,390.0116140999962,390.0116140999962,390.0116140999962,,006,P018,2025_Mar_07_1826,ConditionRich,2021.2.3,59.899823535027,
364.75,368.0,41,0.0,Stimuli/Blank.png,0,0.0,0.0,0,161,161,161,,,,,,,,,,,,,364.7545753000013,0.004575300001306459,None,390.76231729999563,390.76231729999563,390.76231729999563,390.76231729999563,390.76231729999563,390.76231729999563,390.76231729999563,390.76231729999563,390.76231729999563,390.76231729999563,,006,P018,2025_Mar_07_1826,ConditionRich,2021.2.3,59.899823535027,
368.0,368.75,28,0.75,Stimuli/P018/things_collar_09s.jpg,0,0.0,0.0,0,162,162,162,,,,,,,,,,,,,368.0102240999986,0.010224099998595193,None,394.03186730000016,394.03186730000016,394.03186730000016,394.03186730000016,394.03186730000016,394.03186730000016,394.03186730000016,394.03186730000016,394.03186730000016,394.03186730000016,,006,P018,2025_Mar_07_1826,ConditionRich,2021.2.3,59.899823535027,
368.75,372.0,41,0.0,Stimuli/Blank.png,0,0.0,0.0,0,163,163,163,,,,,,,,,,,,,368.7752419000026,0.02524190000258386,None,394.78252699999575,394.78252699999575,394.78252699999575,394.78252699999575,394.78252699999575,394.78252699999575,394.78252699999575,394.78252699999575,394.78252699999575,394.78252699999575,,006,P018,2025_Mar_07_1826,ConditionRich,2021.2.3,59.899823535027,
372.0,388.0,0,0.0,Stimuli/Blank.png,1,10.0,10.75,0,164,164,164,,,,,,,,,,,,,372.0107363999996,0.010736399999586865,2,398.01872639999783,398.01872639999783,398.01872639999783,398.01872639999783,398.01872639999783,398.01872639999783,407.994220099994,408.7448960999973,398.01872639999783,398.01872639999783,10.371099399999366,006,P018,2025_Mar_07_1826,ConditionRich,2021.2.3,59.899823535027,
