eventStartTime,eventEndTime,eventCond,imSize,imFile,responseEvent,fixRespStart,fixRespEnd,Events.thisRepN,Events.thisTrialN,Events.thisN,Events.thisIndex,Instructions.started,Instructions.stopped,participantReadyResponse.keys,participantReadyResponse.rt,participantReadyResponse.started,participantReadyResponse.stopped,startWaitforTrigger,triggerResponse.keys,triggerResponse.rt,triggerResponse.started,triggerResponse.stopped,globalTimer,actualStartTime,startTimingDiff,participantResponse.keys,participantResponse.started,participantResponse.stopped,image.started,image.stopped,fixationOutside.started,fixationOutside.stopped,fixationResponse.started,fixationResponse.stopped,fixationInside.started,fixationInside.stopped,participantResponse.rt,session,participant,date,expName,psychopyVersion,frameRate,
,,,,,,,,,,,,9.626969599994482,None,2,11.699126800005615,9.626969599994482,None,,,,,,,,,,,,,,,,,,,,,001,P018,2025_Mar_07_1743,ConditionRich,2021.2.3,59.93044472646077,
,,,,,,,,,,,,,,,,,,21.335475699997914,5,15.41080040000088,21.34809249999671,None,,,,,,,,,,,,,,,,001,P018,2025_Mar_07_1743,ConditionRich,2021.2.3,59.93044472646077,
0.0,4.0,0,0.0,Stimuli/Blank.png,0,0,0.0,0,0,0,0,,,,,,,,,,,,36.76396329999989,0.032668700005160645,0.032668700005160645,None,36.8116699999955,None,36.8116699999955,None,36.8116699999955,None,36.8116699999955,36.8116699999955,36.8116699999955,None,,001,P018,2025_Mar_07_1743,ConditionRich,2021.2.3,59.93044472646077,
4.0,7.75,26,0.75,Stimuli/P018/things_chandelier_09s.jpg,0,0,0.0,0,1,1,1,,,,,,,,,,,,,4.005869300002814,0.0058693000028142706,None,40.79880499999854,40.79880499999854,40.79880499999854,40.79880499999854,40.79880499999854,40.79880499999854,40.79880499999854,40.79880499999854,40.79880499999854,40.79880499999854,,001,P018,2025_Mar_07_1743,ConditionRich,2021.2.3,59.93044472646077,
7.75,8.0,41,0.0,Stimuli/Blank.png,0,0,0.0,0,2,2,2,,,,,,,,,,,,,7.775358500002767,0.02535850000276696,None,44.56883289999678,44.56883289999678,44.56883289999678,44.56883289999678,44.56883289999678,44.56883289999678,44.56883289999678,44.56883289999678,44.56883289999678,44.56883289999678,,001,P018,2025_Mar_07_1743,ConditionRich,2021.2.3,59.93044472646077,
8.0,11.75,3,0.75,Stimuli/P018/sun_acymmczhyuiimeub.jpg,0,0,0.0,0,3,3,3,,,,,,,,,,,,,8.02359090000391,0.023590900003910065,None,44.818797100000666,44.818797100000666,44.818797100000666,44.818797100000666,44.818797100000666,44.818797100000666,44.818797100000666,44.818797100000666,44.818797100000666,44.818797100000666,,001,P018,2025_Mar_07_1743,ConditionRich,2021.2.3,59.93044472646077,
11.75,12.0,41,0.0,Stimuli/Blank.png,0,0,0.0,0,4,4,4,,,,,,,,,,,,,11.77680600000167,0.026806000001670327,None,48.55622719999519,48.55622719999519,48.55622719999519,48.55622719999519,48.55622719999519,48.55622719999519,48.55622719999519,48.55622719999519,48.55622719999519,48.55622719999519,,001,P018,2025_Mar_07_1743,ConditionRich,2021.2.3,59.93044472646077,
12.0,15.75,6,0.75,Stimuli/P018/sun_atuyvunnykjurjgx.jpg,0,0,0.0,0,5,5,5,,,,,,,,,,,,,12.010490400003619,0.01049040000361856,None,48.80571839999902,48.80571839999902,48.80571839999902,48.80571839999902,48.80571839999902,48.80571839999902,48.80571839999902,48.80571839999902,48.80571839999902,48.80571839999902,,001,P018,2025_Mar_07_1743,ConditionRich,2021.2.3,59.93044472646077,
15.75,16.0,41,0.0,Stimuli/Blank.png,0,0,0.0,0,6,6,6,,,,,,,,,,,,,15.780990100000054,0.030990100000053644,None,52.558928899998136,52.558928899998136,52.558928899998136,52.558928899998136,52.558928899998136,52.558928899998136,52.558928899998136,52.558928899998136,52.558928899998136,52.558928899998136,,001,P018,2025_Mar_07_1743,ConditionRich,2021.2.3,59.93044472646077,
16.0,19.75,11,0.75,Stimuli/P018/sun_bdzxsadvniuolmio.jpg,1,1,1.75,0,7,7,7,,,,,,,,,,,,,16.014751700000488,0.0147517000004882,2,52.809175599999435,52.809175599999435,52.809175599999435,52.809175599999435,52.809175599999435,52.809175599999435,53.79335139999603,54.544017299995176,52.809175599999435,52.809175599999435,1.4357635999986087,001,P018,2025_Mar_07_1743,ConditionRich,2021.2.3,59.93044472646077,
19.75,20.0,41,0.0,Stimuli/Blank.png,0,0,0.0,0,8,8,8,,,,,,,,,,,,,19.76809890000004,0.018098900000040885,None,56.54584109999996,56.54584109999996,56.54584109999996,56.54584109999996,56.54584109999996,56.54584109999996,56.54584109999996,56.54584109999996,56.54584109999996,56.54584109999996,,001,P018,2025_Mar_07_1743,ConditionRich,2021.2.3,59.93044472646077,
20.0,23.75,10,0.75,Stimuli/P018/sun_bayxprasninnrnle.jpg,1,2,2.75,0,9,9,9,,,,,,,,,,,,,20.001580300006026,0.0015803000060259365,2,56.796011499995075,56.796011499995075,56.796011499995075,56.796011499995075,56.796011499995075,56.796011499995075,58.76441989999876,59.51508389999799,56.796011499995075,56.796011499995075,2.397918700000446,001,P018,2025_Mar_07_1743,ConditionRich,2021.2.3,59.93044472646077,
23.75,24.0,41,0.0,Stimuli/Blank.png,0,0,0.0,0,10,10,10,,,,,,,,,,,,,23.771305700000084,0.02130570000008447,None,60.549323399995046,60.549323399995046,60.549323399995046,60.549323399995046,60.549323399995046,60.549323399995046,60.549323399995046,60.549323399995046,60.549323399995046,60.549323399995046,,001,P018,2025_Mar_07_1743,ConditionRich,2021.2.3,59.93044472646077,
24.0,27.75,35,0.75,Stimuli/P018/things_lobster_09s.jpg,0,0,0.0,0,11,11,11,,,,,,,,,,,,,24.005234800002654,0.005234800002654083,None,60.799503899994306,60.799503899994306,60.799503899994306,60.799503899994306,60.799503899994306,60.799503899994306,60.799503899994306,60.799503899994306,60.799503899994306,60.799503899994306,,001,P018,2025_Mar_07_1743,ConditionRich,2021.2.3,59.93044472646077,
27.75,28.0,41,0.0,Stimuli/Blank.png,0,0,0.0,0,12,12,12,,,,,,,,,,,,,27.774310000000696,0.024310000000696164,None,64.55293949999759,64.55293949999759,64.55293949999759,64.55293949999759,64.55293949999759,64.55293949999759,64.55293949999759,64.55293949999759,64.55293949999759,64.55293949999759,,001,P018,2025_Mar_07_1743,ConditionRich,2021.2.3,59.93044472646077,
28.0,31.75,36,0.75,Stimuli/P018/things_nest_09s.jpg,0,0,0.0,0,13,13,13,,,,,,,,,,,,,28.00771700000041,0.007717000000411645,None,64.80308009999862,64.80308009999862,64.80308009999862,64.80308009999862,64.80308009999862,64.80308009999862,64.80308009999862,64.80308009999862,64.80308009999862,64.80308009999862,,001,P018,2025_Mar_07_1743,ConditionRich,2021.2.3,59.93044472646077,
31.75,32.0,41,0.0,Stimuli/Blank.png,0,0,0.0,0,14,14,14,,,,,,,,,,,,,31.78036950000387,0.030369500003871508,None,68.57310180000059,68.57310180000059,68.57310180000059,68.57310180000059,68.57310180000059,68.57310180000059,68.57310180000059,68.57310180000059,68.57310180000059,68.57310180000059,,001,P018,2025_Mar_07_1743,ConditionRich,2021.2.3,59.93044472646077,
32.0,35.75,9,0.75,Stimuli/P018/sun_ayidxslzurdumeps.jpg,0,0,0.0,0,15,15,15,,,,,,,,,,,,,32.02806210000563,0.028062100005627144,None,68.83999739999854,68.83999739999854,68.83999739999854,68.83999739999854,68.83999739999854,68.83999739999854,68.83999739999854,68.83999739999854,68.83999739999854,68.83999739999854,,001,P018,2025_Mar_07_1743,ConditionRich,2021.2.3,59.93044472646077,
35.75,36.0,41,0.0,Stimuli/Blank.png,0,0,0.0,0,16,16,16,,,,,,,,,,,,,35.80049169999984,0.0504916999998386,None,72.59333719999995,72.59333719999995,72.59333719999995,72.59333719999995,72.59333719999995,72.59333719999995,72.59333719999995,72.59333719999995,72.59333719999995,72.59333719999995,,001,P018,2025_Mar_07_1743,ConditionRich,2021.2.3,59.93044472646077,
36.0,39.75,14,0.75,Stimuli/P018/sun_bljpqnfmmqkjsfvx.jpg,1,3,3.75,0,17,17,17,,,,,,,,,,,,,36.01509290000104,0.015092900001036469,2,72.81087199999456,72.81087199999456,72.81087199999456,72.81087199999456,72.81087199999456,72.81087199999456,75.79624160000094,None,72.81087199999456,72.81087199999456,3.377211900005932,001,P018,2025_Mar_07_1743,ConditionRich,2021.2.3,59.93044472646077,
39.75,40.0,41,0.0,Stimuli/Blank.png,0,0,0.0,0,18,18,18,,,,,,,,,,,,,39.7692931000056,0.019293100005597807,None,76.54686589999619,76.54686589999619,76.54686589999619,76.54686589999619,76.54686589999619,76.54686589999619,76.54686589999619,76.54686589999619,76.54686589999619,76.54686589999619,,001,P018,2025_Mar_07_1743,ConditionRich,2021.2.3,59.93044472646077,
40.0,43.75,4,0.75,Stimuli/P018/sun_aibvvqlmlsjnrgdj.jpg,0,0,0.0,0,19,19,19,,,,,,,,,,,,,40.00284939999983,0.002849399999831803,None,76.78032179999718,76.78032179999718,76.78032179999718,76.78032179999718,76.78032179999718,76.78032179999718,76.78032179999718,76.78032179999718,76.78032179999718,76.78032179999718,,001,P018,2025_Mar_07_1743,ConditionRich,2021.2.3,59.93044472646077,
43.75,44.0,41,0.0,Stimuli/Blank.png,0,0,0.0,0,20,20,20,,,,,,,,,,,,,43.7556687000033,0.0056687000032979995,None,80.5336657999942,80.5336657999942,80.5336657999942,80.5336657999942,80.5336657999942,80.5336657999942,80.5336657999942,80.5336657999942,80.5336657999942,80.5336657999942,,001,P018,2025_Mar_07_1743,ConditionRich,2021.2.3,59.93044472646077,
44.0,47.75,7,0.75,Stimuli/P018/sun_auadhqmfjsjtjcue.jpg,0,0,0.0,0,21,21,21,,,,,,,,,,,,,44.00616160000209,0.006161600002087653,None,80.8005514999968,80.8005514999968,80.8005514999968,80.8005514999968,80.8005514999968,80.8005514999968,80.8005514999968,80.8005514999968,80.8005514999968,80.8005514999968,,001,P018,2025_Mar_07_1743,ConditionRich,2021.2.3,59.93044472646077,
47.75,48.0,41,0.0,Stimuli/Blank.png,0,0,0.0,0,22,22,22,,,,,,,,,,,,,47.776377500005765,0.026377500005764887,None,84.55387150000024,84.55387150000024,84.55387150000024,84.55387150000024,84.55387150000024,84.55387150000024,84.55387150000024,84.55387150000024,84.55387150000024,84.55387150000024,,001,P018,2025_Mar_07_1743,ConditionRich,2021.2.3,59.93044472646077,
48.0,51.75,39,0.75,Stimuli/P018/things_veil_09s.jpg,1,2,2.75,0,23,23,23,,,,,,,,,,,,,48.01052300000447,0.010523000004468486,2,84.80409429999418,84.80409429999418,84.80409429999418,84.80409429999418,84.80409429999418,84.80409429999418,86.78919459999452,87.53984059999493,84.80409429999418,84.80409429999418,2.3108759000024293,001,P018,2025_Mar_07_1743,ConditionRich,2021.2.3,59.93044472646077,
51.75,52.0,41,0.0,Stimuli/Blank.png,0,0,0.0,0,24,24,24,,,,,,,,,,,,,51.77929969999968,0.02929969999968307,None,88.55745909999678,88.55745909999678,88.55745909999678,88.55745909999678,88.55745909999678,88.55745909999678,88.55745909999678,88.55745909999678,88.55745909999678,88.55745909999678,,001,P018,2025_Mar_07_1743,ConditionRich,2021.2.3,59.93044472646077,
52.0,55.75,8,0.75,Stimuli/P018/sun_axsmqyyvebrcuhkn.jpg,0,0,0.0,0,25,25,25,,,,,,,,,,,,,52.01311090000672,0.013110900006722659,None,88.8076482999968,88.8076482999968,88.8076482999968,88.8076482999968,88.8076482999968,88.8076482999968,88.8076482999968,88.8076482999968,88.8076482999968,88.8076482999968,,001,P018,2025_Mar_07_1743,ConditionRich,2021.2.3,59.93044472646077,
55.75,56.0,41,0.0,Stimuli/Blank.png,0,0,0.0,0,26,26,26,,,,,,,,,,,,,55.76631860000634,0.01631860000634333,None,92.54428109999571,92.54428109999571,92.54428109999571,92.54428109999571,92.54428109999571,92.54428109999571,92.54428109999571,92.54428109999571,92.54428109999571,92.54428109999571,,001,P018,2025_Mar_07_1743,ConditionRich,2021.2.3,59.93044472646077,
56.0,59.75,17,0.75,Stimuli/P018/sun_brhndfjxyigqgiwl.jpg,0,0,0.0,0,27,27,27,,,,,,,,,,,,,56.0001795000062,0.00017950000619748607,None,92.81117899999663,92.81117899999663,92.81117899999663,92.81117899999663,92.81117899999663,92.81117899999663,92.81117899999663,92.81117899999663,92.81117899999663,92.81117899999663,,001,P018,2025_Mar_07_1743,ConditionRich,2021.2.3,59.93044472646077,
59.75,60.0,41,0.0,Stimuli/Blank.png,0,0,0.0,0,28,28,28,,,,,,,,,,,,,59.785880800001905,0.0358808000019053,None,96.5644844999988,96.5644844999988,96.5644844999988,96.5644844999988,96.5644844999988,96.5644844999988,96.5644844999988,96.5644844999988,96.5644844999988,96.5644844999988,,001,P018,2025_Mar_07_1743,ConditionRich,2021.2.3,59.93044472646077,
60.0,63.75,30,0.75,Stimuli/P018/things_girl_09s.jpg,0,0,0.0,0,29,29,29,,,,,,,,,,,,,60.00307640000392,0.0030764000039198436,None,96.79800029999751,96.79800029999751,96.79800029999751,96.79800029999751,96.79800029999751,96.79800029999751,96.79800029999751,96.79800029999751,96.79800029999751,96.79800029999751,,001,P018,2025_Mar_07_1743,ConditionRich,2021.2.3,59.93044472646077,
63.75,64.0,41,0.0,Stimuli/Blank.png,0,0,0.0,0,30,30,30,,,,,,,,,,,,,63.772899100004,0.022899100003996864,None,100.55142739999428,100.55142739999428,100.55142739999428,100.55142739999428,100.55142739999428,100.55142739999428,100.55142739999428,100.55142739999428,100.55142739999428,100.55142739999428,,001,P018,2025_Mar_07_1743,ConditionRich,2021.2.3,59.93044472646077,
64.0,67.75,16,0.75,Stimuli/P018/sun_brfwxjsnmauhmfzf.jpg,0,0,0.0,0,31,31,31,,,,,,,,,,,,,64.00687830000243,0.00687830000242684,None,100.80160179999802,100.80160179999802,100.80160179999802,100.80160179999802,100.80160179999802,100.80160179999802,100.80160179999802,100.80160179999802,100.80160179999802,100.80160179999802,,001,P018,2025_Mar_07_1743,ConditionRich,2021.2.3,59.93044472646077,
67.75,68.0,41,0.0,Stimuli/Blank.png,0,0,0.0,0,32,32,32,,,,,,,,,,,,,67.77642860000196,0.026428600001963787,None,104.55488259999402,104.55488259999402,104.55488259999402,104.55488259999402,104.55488259999402,104.55488259999402,104.55488259999402,104.55488259999402,104.55488259999402,104.55488259999402,,001,P018,2025_Mar_07_1743,ConditionRich,2021.2.3,59.93044472646077,
68.0,71.75,24,0.75,Stimuli/P018/things_breadbox_09s.jpg,0,0,0.0,0,33,33,33,,,,,,,,,,,,,68.01074690000678,0.01074690000677947,None,104.80514969999786,104.80514969999786,104.80514969999786,104.80514969999786,104.80514969999786,104.80514969999786,104.80514969999786,104.80514969999786,104.80514969999786,104.80514969999786,,001,P018,2025_Mar_07_1743,ConditionRich,2021.2.3,59.93044472646077,
71.75,72.0,41,0.0,Stimuli/Blank.png,0,0,0.0,0,34,34,34,,,,,,,,,,,,,71.78292650000367,0.03292650000366848,None,108.57512989999668,108.57512989999668,108.57512989999668,108.57512989999668,108.57512989999668,108.57512989999668,108.57512989999668,108.57512989999668,108.57512989999668,108.57512989999668,,001,P018,2025_Mar_07_1743,ConditionRich,2021.2.3,59.93044472646077,
72.0,75.75,23,0.75,Stimuli/P018/things_boy_09s.jpg,0,0,0.0,0,35,35,35,,,,,,,,,,,,,72.01330480000615,0.013304800006153528,None,108.80864559999463,108.80864559999463,108.80864559999463,108.80864559999463,108.80864559999463,108.80864559999463,108.80864559999463,108.80864559999463,108.80864559999463,108.80864559999463,,001,P018,2025_Mar_07_1743,ConditionRich,2021.2.3,59.93044472646077,
75.75,76.0,41,0.0,Stimuli/Blank.png,0,0,0.0,0,36,36,36,,,,,,,,,,,,,75.76734950000537,0.01734950000536628,None,112.54527650000091,112.54527650000091,112.54527650000091,112.54527650000091,112.54527650000091,112.54527650000091,112.54527650000091,112.54527650000091,112.54527650000091,112.54527650000091,,001,P018,2025_Mar_07_1743,ConditionRich,2021.2.3,59.93044472646077,
76.0,79.75,12,0.75,Stimuli/P018/sun_bhvaiabdgxjuwoth.jpg,1,1,1.75,0,37,37,37,,,,,,,,,,,,,76.00095450000663,0.0009545000066282228,2,112.79550529999688,112.79550529999688,112.79550529999688,112.79550529999688,112.79550529999688,112.79550529999688,113.77970229999482,114.53037319999567,112.79550529999688,112.79550529999688,1.3674229000025662,001,P018,2025_Mar_07_1743,ConditionRich,2021.2.3,59.93044472646077,
79.75,80.0,41,0.0,Stimuli/Blank.png,0,0,0.0,0,38,38,38,,,,,,,,,,,,,79.7727778000044,0.022777800004405435,None,116.56553449999774,116.56553449999774,116.56553449999774,116.56553449999774,116.56553449999774,116.56553449999774,116.56553449999774,116.56553449999774,116.56553449999774,116.56553449999774,,001,P018,2025_Mar_07_1743,ConditionRich,2021.2.3,59.93044472646077,
80.0,83.75,2,0.75,Stimuli/P018/sun_acliytrpktltxwsx.jpg,0,0,0.0,0,39,39,39,,,,,,,,,,,,,80.02052680000634,0.020526800006336998,None,116.8157310999959,116.8157310999959,116.8157310999959,116.8157310999959,116.8157310999959,116.8157310999959,116.8157310999959,116.8157310999959,116.8157310999959,116.8157310999959,,001,P018,2025_Mar_07_1743,ConditionRich,2021.2.3,59.93044472646077,
83.75,84.0,41,0.0,Stimuli/Blank.png,0,0,0.0,0,40,40,40,,,,,,,,,,,,,83.77571220000391,0.025712200003908947,None,120.56908139999723,120.56908139999723,120.56908139999723,120.56908139999723,120.56908139999723,120.56908139999723,120.56908139999723,120.56908139999723,120.56908139999723,120.56908139999723,,001,P018,2025_Mar_07_1743,ConditionRich,2021.2.3,59.93044472646077,
84.0,100.0,0,0.0,Stimuli/Blank.png,1,8,8.75,0,41,41,41,,,,,,,,,,,,,84.0263347,0.026334700000006706,2,120.81928060000064,120.81928060000064,120.81928060000064,120.81928060000064,120.81928060000064,120.81928060000064,128.79298259999632,129.5436422999992,120.81928060000064,120.81928060000064,8.411707999999635,001,P018,2025_Mar_07_1743,ConditionRich,2021.2.3,59.93044472646077,
100.0,103.75,18,0.75,Stimuli/P018/sun_brrvvswweljrvnlq.jpg,0,0,0.0,0,42,42,42,,,,,,,,,,,,,100.02220730000408,0.022207300004083663,None,136.8000583999965,136.8000583999965,136.8000583999965,136.8000583999965,136.8000583999965,136.8000583999965,136.8000583999965,136.8000583999965,136.8000583999965,136.8000583999965,,001,P018,2025_Mar_07_1743,ConditionRich,2021.2.3,59.93044472646077,
103.75,104.0,41,0.0,Stimuli/Blank.png,0,0,0.0,0,43,43,43,,,,,,,,,,,,,103.75891110000521,0.008911100005207118,None,140.5367025999949,140.5367025999949,140.5367025999949,140.5367025999949,140.5367025999949,140.5367025999949,140.5367025999949,140.5367025999949,140.5367025999949,140.5367025999949,,001,P018,2025_Mar_07_1743,ConditionRich,2021.2.3,59.93044472646077,
104.0,107.75,32,0.75,Stimuli/P018/things_horse_09s.jpg,0,0,0.0,0,44,44,44,,,,,,,,,,,,,104.0089655000047,0.008965500004705973,None,140.8036018999992,140.8036018999992,140.8036018999992,140.8036018999992,140.8036018999992,140.8036018999992,140.8036018999992,140.8036018999992,140.8036018999992,140.8036018999992,,001,P018,2025_Mar_07_1743,ConditionRich,2021.2.3,59.93044472646077,
107.75,108.0,41,0.0,Stimuli/Blank.png,0,0,0.0,0,45,45,45,,,,,,,,,,,,,107.78048950000084,0.030489500000840053,None,144.57360679999692,144.57360679999692,144.57360679999692,144.57360679999692,144.57360679999692,144.57360679999692,144.57360679999692,144.57360679999692,144.57360679999692,144.57360679999692,,001,P018,2025_Mar_07_1743,ConditionRich,2021.2.3,59.93044472646077,
108.0,111.75,25,0.75,Stimuli/P018/things_cannonball_09s.jpg,1,0,0.75,0,46,46,46,,,,,,,,,,,,,108.03068100000382,0.03068100000382401,2,144.8238177999956,144.8238177999956,144.8238177999956,144.8238177999956,144.8238177999956,144.8238177999956,144.8238177999956,145.55780719999893,144.8238177999956,144.8238177999956,0.46211359999870183,001,P018,2025_Mar_07_1743,ConditionRich,2021.2.3,59.93044472646077,
111.75,112.0,41,0.0,Stimuli/Blank.png,0,0,0.0,0,47,47,47,,,,,,,,,,,,,111.76607860000513,0.016078600005130284,None,148.54377969999769,148.54377969999769,148.54377969999769,148.54377969999769,148.54377969999769,148.54377969999769,148.54377969999769,148.54377969999769,148.54377969999769,148.54377969999769,,001,P018,2025_Mar_07_1743,ConditionRich,2021.2.3,59.93044472646077,
112.0,115.75,38,0.75,Stimuli/P018/things_pony_09s.jpg,1,0,0.75,0,48,48,48,,,,,,,,,,,,,112.00182840000343,0.0018284000034327619,2,148.8106839999964,148.8106839999964,148.8106839999964,148.8106839999964,148.8106839999964,148.8106839999964,148.8106839999964,149.5279853999964,148.8106839999964,148.8106839999964,0.427230099994631,001,P018,2025_Mar_07_1743,ConditionRich,2021.2.3,59.93044472646077,
115.75,116.0,41,0.0,Stimuli/Blank.png,0,0,0.0,0,49,49,49,,,,,,,,,,,,,115.78644840000197,0.036448400001972914,None,152.56399659999443,152.56399659999443,152.56399659999443,152.56399659999443,152.56399659999443,152.56399659999443,152.56399659999443,152.56399659999443,152.56399659999443,152.56399659999443,,001,P018,2025_Mar_07_1743,ConditionRich,2021.2.3,59.93044472646077,
116.0,119.75,15,0.75,Stimuli/P018/sun_bobznlnnzwznersx.jpg,0,0,0.0,0,50,50,50,,,,,,,,,,,,,116.00222680000297,0.0022268000029725954,None,152.79753849999543,152.79753849999543,152.79753849999543,152.79753849999543,152.79753849999543,152.79753849999543,152.79753849999543,152.79753849999543,152.79753849999543,152.79753849999543,,001,P018,2025_Mar_07_1743,ConditionRich,2021.2.3,59.93044472646077,
119.75,120.0,41,0.0,Stimuli/Blank.png,0,0,0.0,0,51,51,51,,,,,,,,,,,,,119.77223990000493,0.022239900004933588,None,156.55088439999963,156.55088439999963,156.55088439999963,156.55088439999963,156.55088439999963,156.55088439999963,156.55088439999963,156.55088439999963,156.55088439999963,156.55088439999963,,001,P018,2025_Mar_07_1743,ConditionRich,2021.2.3,59.93044472646077,
120.0,123.75,37,0.75,Stimuli/P018/things_plastic_film_09s.jpg,0,0,0.0,0,52,52,52,,,,,,,,,,,,,120.00583320000442,0.005833200004417449,None,156.80107509999652,156.80107509999652,156.80107509999652,156.80107509999652,156.80107509999652,156.80107509999652,156.80107509999652,156.80107509999652,156.80107509999652,156.80107509999652,,001,P018,2025_Mar_07_1743,ConditionRich,2021.2.3,59.93044472646077,
123.75,124.0,41,0.0,Stimuli/Blank.png,0,0,0.0,0,53,53,53,,,,,,,,,,,,,123.77661060000537,0.026610600005369633,None,160.55438799999683,160.55438799999683,160.55438799999683,160.55438799999683,160.55438799999683,160.55438799999683,160.55438799999683,160.55438799999683,160.55438799999683,160.55438799999683,,001,P018,2025_Mar_07_1743,ConditionRich,2021.2.3,59.93044472646077,
124.0,127.75,31,0.75,Stimuli/P018/things_highchair_09s.jpg,0,0,0.0,0,54,54,54,,,,,,,,,,,,,124.00987120000354,0.0098712000035448,None,160.80462789999729,160.80462789999729,160.80462789999729,160.80462789999729,160.80462789999729,160.80462789999729,160.80462789999729,160.80462789999729,160.80462789999729,160.80462789999729,,001,P018,2025_Mar_07_1743,ConditionRich,2021.2.3,59.93044472646077,
127.75,128.0,41,0.0,Stimuli/Blank.png,0,0,0.0,0,55,55,55,,,,,,,,,,,,,127.78015440000308,0.030154400003084447,None,164.5579257999998,164.5579257999998,164.5579257999998,164.5579257999998,164.5579257999998,164.5579257999998,164.5579257999998,164.5579257999998,164.5579257999998,164.5579257999998,,001,P018,2025_Mar_07_1743,ConditionRich,2021.2.3,59.93044472646077,
128.0,131.75,29,0.75,Stimuli/P018/things_face_09s.jpg,0,0,0.0,0,56,56,56,,,,,,,,,,,,,128.01288820000627,0.01288820000627311,None,164.82489129999885,164.82489129999885,164.82489129999885,164.82489129999885,164.82489129999885,164.82489129999885,164.82489129999885,164.82489129999885,164.82489129999885,164.82489129999885,,001,P018,2025_Mar_07_1743,ConditionRich,2021.2.3,59.93044472646077,
131.75,132.0,41,0.0,Stimuli/Blank.png,0,0,0.0,0,57,57,57,,,,,,,,,,,,,131.78281720000086,0.03281720000086352,None,168.56153419999464,168.56153419999464,168.56153419999464,168.56153419999464,168.56153419999464,168.56153419999464,168.56153419999464,168.56153419999464,168.56153419999464,168.56153419999464,,001,P018,2025_Mar_07_1743,ConditionRich,2021.2.3,59.93044472646077,
132.0,135.75,20,0.75,Stimuli/P018/sun_buukivvfbfhosrng.jpg,0,0,0.0,0,58,58,58,,,,,,,,,,,,,132.00003230000584,3.2300005841534585e-05,None,168.79500259999622,168.79500259999622,168.79500259999622,168.79500259999622,168.79500259999622,168.79500259999622,168.79500259999622,168.79500259999622,168.79500259999622,168.79500259999622,,001,P018,2025_Mar_07_1743,ConditionRich,2021.2.3,59.93044472646077,
135.75,136.0,41,0.0,Stimuli/Blank.png,0,0,0.0,0,59,59,59,,,,,,,,,,,,,135.77039350000268,0.02039350000268314,None,172.5483196999994,172.5483196999994,172.5483196999994,172.5483196999994,172.5483196999994,172.5483196999994,172.5483196999994,172.5483196999994,172.5483196999994,172.5483196999994,,001,P018,2025_Mar_07_1743,ConditionRich,2021.2.3,59.93044472646077,
136.0,139.75,22,0.75,Stimuli/P018/things_boat_09s.jpg,0,0,0.0,0,60,60,60,,,,,,,,,,,,,136.00552090000565,0.00552090000564931,None,172.79851979999512,172.79851979999512,172.79851979999512,172.79851979999512,172.79851979999512,172.79851979999512,172.79851979999512,172.79851979999512,172.79851979999512,172.79851979999512,,001,P018,2025_Mar_07_1743,ConditionRich,2021.2.3,59.93044472646077,
139.75,140.0,41,0.0,Stimuli/Blank.png,0,0,0.0,0,61,61,61,,,,,,,,,,,,,139.7738548000052,0.023854800005210564,None,176.55192119999992,176.55192119999992,176.55192119999992,176.55192119999992,176.55192119999992,176.55192119999992,176.55192119999992,176.55192119999992,176.55192119999992,176.55192119999992,,001,P018,2025_Mar_07_1743,ConditionRich,2021.2.3,59.93044472646077,
140.0,143.75,1,0.75,Stimuli/P018/sun_aawmwfqqbzauhqkb.jpg,1,2,2.75,0,62,62,62,,,,,,,,,,,,,140.0076412000053,0.007641200005309656,2,176.78538950000075,176.78538950000075,176.78538950000075,176.78538950000075,176.78538950000075,176.78538950000075,178.77048159999686,179.52114589999837,176.78538950000075,176.78538950000075,2.3066594999982044,001,P018,2025_Mar_07_1743,ConditionRich,2021.2.3,59.93044472646077,
143.75,144.0,41,0.0,Stimuli/Blank.png,0,0,0.0,0,63,63,63,,,,,,,,,,,,,143.76156340000307,0.011563400003069546,None,180.53868800000055,180.53868800000055,180.53868800000055,180.53868800000055,180.53868800000055,180.53868800000055,180.53868800000055,180.53868800000055,180.53868800000055,180.53868800000055,,001,P018,2025_Mar_07_1743,ConditionRich,2021.2.3,59.93044472646077,
144.0,147.75,27,0.75,Stimuli/P018/things_coffin_09s.jpg,0,0,0.0,0,64,64,64,,,,,,,,,,,,,144.01055120000092,0.01055120000091847,None,180.8223199999993,180.8223199999993,180.8223199999993,180.8223199999993,180.8223199999993,180.8223199999993,180.8223199999993,180.8223199999993,180.8223199999993,180.8223199999993,,001,P018,2025_Mar_07_1743,ConditionRich,2021.2.3,59.93044472646077,
147.75,148.0,41,0.0,Stimuli/Blank.png,0,0,0.0,0,65,65,65,,,,,,,,,,,,,147.79782750000595,0.04782750000595115,None,184.57562669999606,184.57562669999606,184.57562669999606,184.57562669999606,184.57562669999606,184.57562669999606,184.57562669999606,184.57562669999606,184.57562669999606,184.57562669999606,,001,P018,2025_Mar_07_1743,ConditionRich,2021.2.3,59.93044472646077,
148.0,151.75,28,0.75,Stimuli/P018/things_collar_09s.jpg,1,0,0.75,0,66,66,66,,,,,,,,,,,,,148.01437770000484,0.014377700004843064,2,184.82587839999906,184.82587839999906,184.82587839999906,184.82587839999906,184.82587839999906,184.82587839999906,184.82587839999906,185.5431421999965,184.82587839999906,184.82587839999906,0.4671130999995512,001,P018,2025_Mar_07_1743,ConditionRich,2021.2.3,59.93044472646077,
151.75,152.0,41,0.0,Stimuli/Blank.png,0,0,0.0,0,67,67,67,,,,,,,,,,,,,151.78601300000446,0.03601300000445917,None,188.5791731999998,188.5791731999998,188.5791731999998,188.5791731999998,188.5791731999998,188.5791731999998,188.5791731999998,188.5791731999998,188.5791731999998,188.5791731999998,,001,P018,2025_Mar_07_1743,ConditionRich,2021.2.3,59.93044472646077,
152.0,155.75,34,0.75,Stimuli/P018/things_llama_09s.jpg,0,0,0.0,0,68,68,68,,,,,,,,,,,,,152.0174843000059,0.017484300005889963,None,188.82940689999668,188.82940689999668,188.82940689999668,188.82940689999668,188.82940689999668,188.82940689999668,188.82940689999668,188.82940689999668,188.82940689999668,188.82940689999668,,001,P018,2025_Mar_07_1743,ConditionRich,2021.2.3,59.93044472646077,
155.75,156.0,41,0.0,Stimuli/Blank.png,0,0,0.0,0,69,69,69,,,,,,,,,,,,,155.78770200000145,0.03770200000144541,None,192.5660218999983,192.5660218999983,192.5660218999983,192.5660218999983,192.5660218999983,192.5660218999983,192.5660218999983,192.5660218999983,192.5660218999983,192.5660218999983,,001,P018,2025_Mar_07_1743,ConditionRich,2021.2.3,59.93044472646077,
156.0,159.75,5,0.75,Stimuli/P018/sun_apojgqgvdvsksdvo.jpg,0,0,0.0,0,70,70,70,,,,,,,,,,,,,156.00594439999986,0.005944399999862071,None,192.81624089999968,192.81624089999968,192.81624089999968,192.81624089999968,192.81624089999968,192.81624089999968,192.81624089999968,192.81624089999968,192.81624089999968,192.81624089999968,,001,P018,2025_Mar_07_1743,ConditionRich,2021.2.3,59.93044472646077,
159.75,160.0,41,0.0,Stimuli/Blank.png,0,0,0.0,0,71,71,71,,,,,,,,,,,,,159.79097890000412,0.04097890000412008,None,196.5695673999944,196.5695673999944,196.5695673999944,196.5695673999944,196.5695673999944,196.5695673999944,196.5695673999944,196.5695673999944,196.5695673999944,196.5695673999944,,001,P018,2025_Mar_07_1743,ConditionRich,2021.2.3,59.93044472646077,
160.0,163.75,40,0.75,Stimuli/P018/things_woman_09s.jpg,0,0,0.0,0,72,72,72,,,,,,,,,,,,,160.00784990000102,0.007849900001019705,None,196.7863711999962,196.7863711999962,196.7863711999962,196.7863711999962,196.7863711999962,196.7863711999962,196.7863711999962,196.7863711999962,196.7863711999962,196.7863711999962,,001,P018,2025_Mar_07_1743,ConditionRich,2021.2.3,59.93044472646077,
163.75,164.0,41,0.0,Stimuli/Blank.png,0,0,0.0,0,73,73,73,,,,,,,,,,,,,163.76162240000122,0.011622400001215283,None,200.53973929999484,200.53973929999484,200.53973929999484,200.53973929999484,200.53973929999484,200.53973929999484,200.53973929999484,200.53973929999484,200.53973929999484,200.53973929999484,,001,P018,2025_Mar_07_1743,ConditionRich,2021.2.3,59.93044472646077,
164.0,167.75,33,0.75,Stimuli/P018/things_lamb_09s.jpg,0,0,0.0,0,74,74,74,,,,,,,,,,,,,164.01145850000466,0.011458500004664529,None,200.80665279999812,200.80665279999812,200.80665279999812,200.80665279999812,200.80665279999812,200.80665279999812,200.80665279999812,200.80665279999812,200.80665279999812,200.80665279999812,,001,P018,2025_Mar_07_1743,ConditionRich,2021.2.3,59.93044472646077,
167.75,168.0,41,0.0,Stimuli/Blank.png,0,0,0.0,0,75,75,75,,,,,,,,,,,,,167.7817387000032,0.03173870000318857,None,204.57668510000076,204.57668510000076,204.57668510000076,204.57668510000076,204.57668510000076,204.57668510000076,204.57668510000076,204.57668510000076,204.57668510000076,204.57668510000076,,001,P018,2025_Mar_07_1743,ConditionRich,2021.2.3,59.93044472646077,
168.0,171.75,13,0.75,Stimuli/P018/sun_bizqwyomkqigheyx.jpg,0,0,0.0,0,76,76,76,,,,,,,,,,,,,168.03172440000344,0.03172440000344068,None,204.81017209999845,204.81017209999845,204.81017209999845,204.81017209999845,204.81017209999845,204.81017209999845,204.81017209999845,204.81017209999845,204.81017209999845,204.81017209999845,,001,P018,2025_Mar_07_1743,ConditionRich,2021.2.3,59.93044472646077,
171.75,172.0,41,0.0,Stimuli/Blank.png,0,0,0.0,0,77,77,77,,,,,,,,,,,,,171.7515937000062,0.001593700006196741,None,208.53013089999877,208.53013089999877,208.53013089999877,208.53013089999877,208.53013089999877,208.53013089999877,208.53013089999877,208.53013089999877,208.53013089999877,208.53013089999877,,001,P018,2025_Mar_07_1743,ConditionRich,2021.2.3,59.93044472646077,
172.0,175.75,19,0.75,Stimuli/P018/sun_brrwzaypucosdcgt.jpg,0,0,0.0,0,78,78,78,,,,,,,,,,,,,172.0025969000053,0.002596900005300995,None,208.79703999999765,208.79703999999765,208.79703999999765,208.79703999999765,208.79703999999765,208.79703999999765,208.79703999999765,208.79703999999765,208.79703999999765,208.79703999999765,,001,P018,2025_Mar_07_1743,ConditionRich,2021.2.3,59.93044472646077,
175.75,176.0,41,0.0,Stimuli/Blank.png,0,0,0.0,0,79,79,79,,,,,,,,,,,,,175.77239780000673,0.022397800006729085,None,212.55035189999762,212.55035189999762,212.55035189999762,212.55035189999762,212.55035189999762,212.55035189999762,212.55035189999762,212.55035189999762,212.55035189999762,212.55035189999762,,001,P018,2025_Mar_07_1743,ConditionRich,2021.2.3,59.93044472646077,
176.0,179.75,21,0.75,Stimuli/P018/things_baby_09s.jpg,1,2,2.75,0,80,80,80,,,,,,,,,,,,,176.00607850000233,0.006078500002331566,2,212.8005747999996,212.8005747999996,212.8005747999996,212.8005747999996,212.8005747999996,212.8005747999996,214.76898249999795,215.51964659999794,212.8005747999996,212.8005747999996,2.310700000001816,001,P018,2025_Mar_07_1743,ConditionRich,2021.2.3,59.93044472646077,
179.75,180.0,41,0.0,Stimuli/Blank.png,0,0,0.0,0,81,81,81,,,,,,,,,,,,,179.77600979999988,0.0260097999998834,None,216.55388849999872,216.55388849999872,216.55388849999872,216.55388849999872,216.55388849999872,216.55388849999872,216.55388849999872,216.55388849999872,216.55388849999872,216.55388849999872,,001,P018,2025_Mar_07_1743,ConditionRich,2021.2.3,59.93044472646077,
180.0,196.0,0,0.0,Stimuli/Blank.png,1,9,9.75,0,82,82,82,,,,,,,,,,,,,180.01187780000328,0.011877800003276207,2,216.8041241999963,216.8041241999963,216.8041241999963,216.8041241999963,216.8041241999963,216.8041241999963,225.7787102000002,226.52939689999766,216.8041241999963,216.8041241999963,9.334814300003927,001,P018,2025_Mar_07_1743,ConditionRich,2021.2.3,59.93044472646077,
196.0,199.75,24,0.75,Stimuli/P018/things_breadbox_09s.jpg,0,0,0.0,0,83,83,83,,,,,,,,,,,,,196.02561050000077,0.02561050000076648,None,232.81827109999722,232.81827109999722,232.81827109999722,232.81827109999722,232.81827109999722,232.81827109999722,232.81827109999722,232.81827109999722,232.81827109999722,232.81827109999722,,001,P018,2025_Mar_07_1743,ConditionRich,2021.2.3,59.93044472646077,
199.75,200.0,41,0.0,Stimuli/Blank.png,0,0,0.0,0,84,84,84,,,,,,,,,,,,,199.7770057000016,0.02700570000160951,None,236.55490019999706,236.55490019999706,236.55490019999706,236.55490019999706,236.55490019999706,236.55490019999706,236.55490019999706,236.55490019999706,236.55490019999706,236.55490019999706,,001,P018,2025_Mar_07_1743,ConditionRich,2021.2.3,59.93044472646077,
200.0,203.75,32,0.75,Stimuli/P018/things_horse_09s.jpg,0,0,0.0,0,85,85,85,,,,,,,,,,,,,200.01015420000476,0.01015420000476297,None,236.78844919999392,236.78844919999392,236.78844919999392,236.78844919999392,236.78844919999392,236.78844919999392,236.78844919999392,236.78844919999392,236.78844919999392,236.78844919999392,,001,P018,2025_Mar_07_1743,ConditionRich,2021.2.3,59.93044472646077,
203.75,204.0,41,0.0,Stimuli/Blank.png,0,0,0.0,0,86,86,86,,,,,,,,,,,,,203.76317460000428,0.013174600004276726,None,240.54176829999778,240.54176829999778,240.54176829999778,240.54176829999778,240.54176829999778,240.54176829999778,240.54176829999778,240.54176829999778,240.54176829999778,240.54176829999778,,001,P018,2025_Mar_07_1743,ConditionRich,2021.2.3,59.93044472646077,
204.0,207.75,9,0.75,Stimuli/P018/sun_ayidxslzurdumeps.jpg,0,0,0.0,0,87,87,87,,,,,,,,,,,,,204.0165347000002,0.01653470000019297,None,240.80867359999684,240.80867359999684,240.80867359999684,240.80867359999684,240.80867359999684,240.80867359999684,240.80867359999684,240.80867359999684,240.80867359999684,240.80867359999684,,001,P018,2025_Mar_07_1743,ConditionRich,2021.2.3,59.93044472646077,
207.75,208.0,41,0.0,Stimuli/Blank.png,0,0,0.0,0,88,88,88,,,,,,,,,,,,,207.76752600000327,0.017526000003272202,None,244.54530139999406,244.54530139999406,244.54530139999406,244.54530139999406,244.54530139999406,244.54530139999406,244.54530139999406,244.54530139999406,244.54530139999406,244.54530139999406,,001,P018,2025_Mar_07_1743,ConditionRich,2021.2.3,59.93044472646077,
208.0,211.75,16,0.75,Stimuli/P018/sun_brfwxjsnmauhmfzf.jpg,1,0,0.75,0,89,89,89,,,,,,,,,,,,,208.00039480000123,0.00039480000123148784,2,244.77884379999887,244.77884379999887,244.77884379999887,244.77884379999887,244.77884379999887,244.77884379999887,244.77884379999887,245.5128190999967,244.77884379999887,244.77884379999887,0.3862511000043014,001,P018,2025_Mar_07_1743,ConditionRich,2021.2.3,59.93044472646077,
211.75,212.0,41,0.0,Stimuli/Blank.png,0,0,0.0,0,90,90,90,,,,,,,,,,,,,211.7560433000035,0.006043300003511831,None,248.54886260000058,248.54886260000058,248.54886260000058,248.54886260000058,248.54886260000058,248.54886260000058,248.54886260000058,248.54886260000058,248.54886260000058,248.54886260000058,,001,P018,2025_Mar_07_1743,ConditionRich,2021.2.3,59.93044472646077,
212.0,215.75,30,0.75,Stimuli/P018/things_girl_09s.jpg,0,0,0.0,0,91,91,91,,,,,,,,,,,,,212.02117859999998,0.021178599999984726,None,248.79905869999493,248.79905869999493,248.79905869999493,248.79905869999493,248.79905869999493,248.79905869999493,248.79905869999493,248.79905869999493,248.79905869999493,248.79905869999493,,001,P018,2025_Mar_07_1743,ConditionRich,2021.2.3,59.93044472646077,
215.75,216.0,41,0.0,Stimuli/Blank.png,0,0,0.0,0,92,92,92,,,,,,,,,,,,,215.7572197000045,0.007219700004498009,None,252.5356890999974,252.5356890999974,252.5356890999974,252.5356890999974,252.5356890999974,252.5356890999974,252.5356890999974,252.5356890999974,252.5356890999974,252.5356890999974,,001,P018,2025_Mar_07_1743,ConditionRich,2021.2.3,59.93044472646077,
216.0,219.75,3,0.75,Stimuli/P018/sun_acymmczhyuiimeub.jpg,1,2,2.75,0,93,93,93,,,,,,,,,,,,,216.00748300000123,0.0074830000012298115,2,252.8025964999979,252.8025964999979,252.8025964999979,252.8025964999979,252.8025964999979,252.8025964999979,254.771061499996,255.5216786999954,252.8025964999979,252.8025964999979,2.333425900003931,001,P018,2025_Mar_07_1743,ConditionRich,2021.2.3,59.93044472646077,
219.75,220.0,41,0.0,Stimuli/Blank.png,0,0,0.0,0,94,94,94,,,,,,,,,,,,,219.7773873000042,0.027387300004193094,None,256.55591039999854,256.55591039999854,256.55591039999854,256.55591039999854,256.55591039999854,256.55591039999854,256.55591039999854,256.55591039999854,256.55591039999854,256.55591039999854,,001,P018,2025_Mar_07_1743,ConditionRich,2021.2.3,59.93044472646077,
220.0,223.75,8,0.75,Stimuli/P018/sun_axsmqyyvebrcuhkn.jpg,0,0,0.0,0,95,95,95,,,,,,,,,,,,,220.01111890000175,0.011118900001747534,None,256.78945699999895,256.78945699999895,256.78945699999895,256.78945699999895,256.78945699999895,256.78945699999895,256.78945699999895,256.78945699999895,256.78945699999895,256.78945699999895,,001,P018,2025_Mar_07_1743,ConditionRich,2021.2.3,59.93044472646077,
223.75,224.0,41,0.0,Stimuli/Blank.png,0,0,0.0,0,96,96,96,,,,,,,,,,,,,223.7647775000005,0.014777500000491273,None,260.5427733999968,260.5427733999968,260.5427733999968,260.5427733999968,260.5427733999968,260.5427733999968,260.5427733999968,260.5427733999968,260.5427733999968,260.5427733999968,,001,P018,2025_Mar_07_1743,ConditionRich,2021.2.3,59.93044472646077,
224.0,227.75,7,0.75,Stimuli/P018/sun_auadhqmfjsjtjcue.jpg,1,0,0.75,0,97,97,97,,,,,,,,,,,,,224.0144089000023,0.014408900002308656,2,260.79300549999607,260.79300549999607,260.79300549999607,260.79300549999607,260.79300549999607,260.79300549999607,260.79300549999607,261.52697120000084,260.79300549999607,260.79300549999607,0.5808978999993997,001,P018,2025_Mar_07_1743,ConditionRich,2021.2.3,59.93044472646077,
227.75,228.0,41,0.0,Stimuli/Blank.png,0,0,0.0,0,98,98,98,,,,,,,,,,,,,227.75180090000504,0.001800900005036965,None,264.529635699997,264.529635699997,264.529635699997,264.529635699997,264.529635699997,264.529635699997,264.529635699997,264.529635699997,264.529635699997,264.529635699997,,001,P018,2025_Mar_07_1743,ConditionRich,2021.2.3,59.93044472646077,
228.0,231.75,29,0.75,Stimuli/P018/things_face_09s.jpg,0,0,0.0,0,99,99,99,,,,,,,,,,,,,228.00200450000557,0.0020045000055688433,None,264.7965569999942,264.7965569999942,264.7965569999942,264.7965569999942,264.7965569999942,264.7965569999942,264.7965569999942,264.7965569999942,264.7965569999942,264.7965569999942,,001,P018,2025_Mar_07_1743,ConditionRich,2021.2.3,59.93044472646077,
231.75,232.0,41,0.0,Stimuli/Blank.png,0,0,0.0,0,100,100,100,,,,,,,,,,,,,231.77197350000642,0.02197350000642473,None,268.54984759999934,268.54984759999934,268.54984759999934,268.54984759999934,268.54984759999934,268.54984759999934,268.54984759999934,268.54984759999934,268.54984759999934,268.54984759999934,,001,P018,2025_Mar_07_1743,ConditionRich,2021.2.3,59.93044472646077,
232.0,235.75,20,0.75,Stimuli/P018/sun_buukivvfbfhosrng.jpg,0,0,0.0,0,101,101,101,,,,,,,,,,,,,232.00583680000273,0.005836800002725795,None,268.78338789999543,268.78338789999543,268.78338789999543,268.78338789999543,268.78338789999543,268.78338789999543,268.78338789999543,268.78338789999543,268.78338789999543,268.78338789999543,,001,P018,2025_Mar_07_1743,ConditionRich,2021.2.3,59.93044472646077,
235.75,236.0,41,0.0,Stimuli/Blank.png,0,0,0.0,0,102,102,102,,,,,,,,,,,,,235.7581527000002,0.008152700000209734,None,272.5367918999982,272.5367918999982,272.5367918999982,272.5367918999982,272.5367918999982,272.5367918999982,272.5367918999982,272.5367918999982,272.5367918999982,272.5367918999982,,001,P018,2025_Mar_07_1743,ConditionRich,2021.2.3,59.93044472646077,
236.0,239.75,1,0.75,Stimuli/P018/sun_aawmwfqqbzauhqkb.jpg,0,0,0.0,0,103,103,103,,,,,,,,,,,,,236.01059290000558,0.010592900005576666,None,272.8036185999954,272.8036185999954,272.8036185999954,272.8036185999954,272.8036185999954,272.8036185999954,272.8036185999954,272.8036185999954,272.8036185999954,272.8036185999954,,001,P018,2025_Mar_07_1743,ConditionRich,2021.2.3,59.93044472646077,
239.75,240.0,41,0.0,Stimuli/Blank.png,0,0,0.0,0,104,104,104,,,,,,,,,,,,,239.78101580000657,0.031015800006571226,None,276.57361639999726,276.57361639999726,276.57361639999726,276.57361639999726,276.57361639999726,276.57361639999726,276.57361639999726,276.57361639999726,276.57361639999726,276.57361639999726,,001,P018,2025_Mar_07_1743,ConditionRich,2021.2.3,59.93044472646077,
240.0,243.75,22,0.75,Stimuli/P018/things_boat_09s.jpg,0,0,0.0,0,105,105,105,,,,,,,,,,,,,240.03163230000064,0.03163230000063777,None,276.82384289999754,276.82384289999754,276.82384289999754,276.82384289999754,276.82384289999754,276.82384289999754,276.82384289999754,276.82384289999754,276.82384289999754,276.82384289999754,,001,P018,2025_Mar_07_1743,ConditionRich,2021.2.3,59.93044472646077,
243.75,244.0,41,0.0,Stimuli/Blank.png,0,0,0.0,0,106,106,106,,,,,,,,,,,,,243.7665832000057,0.016583200005698018,None,280.5437932999994,280.5437932999994,280.5437932999994,280.5437932999994,280.5437932999994,280.5437932999994,280.5437932999994,280.5437932999994,280.5437932999994,280.5437932999994,,001,P018,2025_Mar_07_1743,ConditionRich,2021.2.3,59.93044472646077,
244.0,247.75,25,0.75,Stimuli/P018/things_cannonball_09s.jpg,0,0,0.0,0,107,107,107,,,,,,,,,,,,,243.9989282000024,-0.001071799997589551,None,280.7773266000004,280.7773266000004,280.7773266000004,280.7773266000004,280.7773266000004,280.7773266000004,280.7773266000004,280.7773266000004,280.7773266000004,280.7773266000004,,001,P018,2025_Mar_07_1743,ConditionRich,2021.2.3,59.93044472646077,
247.75,248.0,41,0.0,Stimuli/Blank.png,0,0,0.0,0,108,108,108,,,,,,,,,,,,,247.7522026000006,0.002202600000600796,None,284.5307591999954,284.5307591999954,284.5307591999954,284.5307591999954,284.5307591999954,284.5307591999954,284.5307591999954,284.5307591999954,284.5307591999954,284.5307591999954,,001,P018,2025_Mar_07_1743,ConditionRich,2021.2.3,59.93044472646077,
248.0,251.75,10,0.75,Stimuli/P018/sun_bayxprasninnrnle.jpg,0,0,0.0,0,109,109,109,,,,,,,,,,,,,248.002793700005,0.0027937000049860217,None,284.78086439999606,284.78086439999606,284.78086439999606,284.78086439999606,284.78086439999606,284.78086439999606,284.78086439999606,284.78086439999606,284.78086439999606,284.78086439999606,,001,P018,2025_Mar_07_1743,ConditionRich,2021.2.3,59.93044472646077,
251.75,252.0,41,0.0,Stimuli/Blank.png,0,0,0.0,0,110,110,110,,,,,,,,,,,,,251.75562720000016,0.005627200000162702,None,288.53417539999646,288.53417539999646,288.53417539999646,288.53417539999646,288.53417539999646,288.53417539999646,288.53417539999646,288.53417539999646,288.53417539999646,288.53417539999646,,001,P018,2025_Mar_07_1743,ConditionRich,2021.2.3,59.93044472646077,
252.0,255.75,21,0.75,Stimuli/P018/things_baby_09s.jpg,0,0,0.0,0,111,111,111,,,,,,,,,,,,,252.00654000000213,0.006540000002132729,None,288.8010910000012,288.8010910000012,288.8010910000012,288.8010910000012,288.8010910000012,288.8010910000012,288.8010910000012,288.8010910000012,288.8010910000012,288.8010910000012,,001,P018,2025_Mar_07_1743,ConditionRich,2021.2.3,59.93044472646077,
255.75,256.0,41,0.0,Stimuli/Blank.png,0,0,0.0,0,112,112,112,,,,,,,,,,,,,255.77592640000512,0.02592640000511892,None,292.55442239999684,292.55442239999684,292.55442239999684,292.55442239999684,292.55442239999684,292.55442239999684,292.55442239999684,292.55442239999684,292.55442239999684,292.55442239999684,,001,P018,2025_Mar_07_1743,ConditionRich,2021.2.3,59.93044472646077,
256.0,259.75,19,0.75,Stimuli/P018/sun_brrwzaypucosdcgt.jpg,0,0,0.0,0,113,113,113,,,,,,,,,,,,,256.01015250000637,0.010152500006370246,None,292.80462969999644,292.80462969999644,292.80462969999644,292.80462969999644,292.80462969999644,292.80462969999644,292.80462969999644,292.80462969999644,292.80462969999644,292.80462969999644,,001,P018,2025_Mar_07_1743,ConditionRich,2021.2.3,59.93044472646077,
259.75,260.0,41,0.0,Stimuli/Blank.png,0,0,0.0,0,114,114,114,,,,,,,,,,,,,259.7801172000036,0.03011720000358764,None,296.5579495999991,296.5579495999991,296.5579495999991,296.5579495999991,296.5579495999991,296.5579495999991,296.5579495999991,296.5579495999991,296.5579495999991,296.5579495999991,,001,P018,2025_Mar_07_1743,ConditionRich,2021.2.3,59.93044472646077,
260.0,263.75,2,0.75,Stimuli/P018/sun_acliytrpktltxwsx.jpg,0,0,0.0,0,115,115,115,,,,,,,,,,,,,260.01592320000054,0.015923200000543147,None,296.80816739999864,296.80816739999864,296.80816739999864,296.80816739999864,296.80816739999864,296.80816739999864,296.80816739999864,296.80816739999864,296.80816739999864,296.80816739999864,,001,P018,2025_Mar_07_1743,ConditionRich,2021.2.3,59.93044472646077,
263.75,264.0,41,0.0,Stimuli/Blank.png,0,0,0.0,0,116,116,116,,,,,,,,,,,,,263.767179100003,0.017179100002977066,None,300.5448060999988,300.5448060999988,300.5448060999988,300.5448060999988,300.5448060999988,300.5448060999988,300.5448060999988,300.5448060999988,300.5448060999988,300.5448060999988,,001,P018,2025_Mar_07_1743,ConditionRich,2021.2.3,59.93044472646077,
264.0,267.75,5,0.75,Stimuli/P018/sun_apojgqgvdvsksdvo.jpg,1,3,3.75,0,117,117,117,,,,,,,,,,,,,264.00093200000265,0.0009320000026491471,2,300.77833769999415,300.77833769999415,300.77833769999415,300.77833769999415,300.77833769999415,300.77833769999415,303.76434940000036,304.5149681999974,300.77833769999415,300.77833769999415,3.40962700000091,001,P018,2025_Mar_07_1743,ConditionRich,2021.2.3,59.93044472646077,
267.75,268.0,41,0.0,Stimuli/Blank.png,0,0,0.0,0,118,118,118,,,,,,,,,,,,,267.75335020000057,0.003350200000568293,None,304.53165649999573,304.53165649999573,304.53165649999573,304.53165649999573,304.53165649999573,304.53165649999573,304.53165649999573,304.53165649999573,304.53165649999573,304.53165649999573,,001,P018,2025_Mar_07_1743,ConditionRich,2021.2.3,59.93044472646077,
268.0,271.75,40,0.75,Stimuli/P018/things_woman_09s.jpg,0,0,0.0,0,119,119,119,,,,,,,,,,,,,268.00330440000107,0.003304400001070462,None,304.79856629999995,304.79856629999995,304.79856629999995,304.79856629999995,304.79856629999995,304.79856629999995,304.79856629999995,304.79856629999995,304.79856629999995,304.79856629999995,,001,P018,2025_Mar_07_1743,ConditionRich,2021.2.3,59.93044472646077,
271.75,272.0,41,0.0,Stimuli/Blank.png,0,0,0.0,0,120,120,120,,,,,,,,,,,,,271.77556480000203,0.025564800002030097,None,308.56857899999886,308.56857899999886,308.56857899999886,308.56857899999886,308.56857899999886,308.56857899999886,308.56857899999886,308.56857899999886,308.56857899999886,308.56857899999886,,001,P018,2025_Mar_07_1743,ConditionRich,2021.2.3,59.93044472646077,
272.0,275.75,13,0.75,Stimuli/P018/sun_bizqwyomkqigheyx.jpg,0,0,0.0,0,121,121,121,,,,,,,,,,,,,272.0250889000017,0.025088900001719594,None,308.818786799995,308.818786799995,308.818786799995,308.818786799995,308.818786799995,308.818786799995,308.818786799995,308.818786799995,308.818786799995,308.818786799995,,001,P018,2025_Mar_07_1743,ConditionRich,2021.2.3,59.93044472646077,
275.75,276.0,41,0.0,Stimuli/Blank.png,0,0,0.0,0,122,122,122,,,,,,,,,,,,,275.776789800002,0.026789800002006814,None,312.5554179999963,312.5554179999963,312.5554179999963,312.5554179999963,312.5554179999963,312.5554179999963,312.5554179999963,312.5554179999963,312.5554179999963,312.5554179999963,,001,P018,2025_Mar_07_1743,ConditionRich,2021.2.3,59.93044472646077,
276.0,292.0,0,0.0,Stimuli/Blank.png,1,6,6.75,0,123,123,123,,,,,,,,,,,,,276.0118849999999,0.011884999999892898,2,312.7889670000004,312.7889670000004,312.7889670000004,312.7889670000004,312.7889670000004,312.7889670000004,318.77759259999584,319.5282462999967,312.7889670000004,312.7889670000004,6.370979100000113,001,P018,2025_Mar_07_1743,ConditionRich,2021.2.3,59.93044472646077,
292.0,295.75,18,0.75,Stimuli/P018/sun_brrvvswweljrvnlq.jpg,0,0,0.0,0,124,124,124,,,,,,,,,,,,,292.0084096999999,0.008409699999901932,None,328.8031178999954,328.8031178999954,328.8031178999954,328.8031178999954,328.8031178999954,328.8031178999954,328.8031178999954,328.8031178999954,328.8031178999954,328.8031178999954,,001,P018,2025_Mar_07_1743,ConditionRich,2021.2.3,59.93044472646077,
295.75,296.0,41,0.0,Stimuli/Blank.png,0,0,0.0,0,125,125,125,,,,,,,,,,,,,295.77781010000035,0.027810100000351667,None,332.5564324999941,332.5564324999941,332.5564324999941,332.5564324999941,332.5564324999941,332.5564324999941,332.5564324999941,332.5564324999941,332.5564324999941,332.5564324999941,,001,P018,2025_Mar_07_1743,ConditionRich,2021.2.3,59.93044472646077,
296.0,299.75,6,0.75,Stimuli/P018/sun_atuyvunnykjurjgx.jpg,0,0,0.0,0,126,126,126,,,,,,,,,,,,,296.0113780000029,0.011378000002878252,None,332.7899694000007,332.7899694000007,332.7899694000007,332.7899694000007,332.7899694000007,332.7899694000007,332.7899694000007,332.7899694000007,332.7899694000007,332.7899694000007,,001,P018,2025_Mar_07_1743,ConditionRich,2021.2.3,59.93044472646077,
299.75,300.0,41,0.0,Stimuli/Blank.png,0,0,0.0,0,127,127,127,,,,,,,,,,,,,299.76507510000374,0.015075100003741682,None,336.5432870000004,336.5432870000004,336.5432870000004,336.5432870000004,336.5432870000004,336.5432870000004,336.5432870000004,336.5432870000004,336.5432870000004,336.5432870000004,,001,P018,2025_Mar_07_1743,ConditionRich,2021.2.3,59.93044472646077,
300.0,303.75,35,0.75,Stimuli/P018/things_lobster_09s.jpg,0,0,0.0,0,128,128,128,,,,,,,,,,,,,300.01600250000047,0.01600250000046799,None,336.79351169999427,336.79351169999427,336.79351169999427,336.79351169999427,336.79351169999427,336.79351169999427,336.79351169999427,336.79351169999427,336.79351169999427,336.79351169999427,,001,P018,2025_Mar_07_1743,ConditionRich,2021.2.3,59.93044472646077,
303.75,304.0,41,0.0,Stimuli/Blank.png,0,0,0.0,0,129,129,129,,,,,,,,,,,,,303.7516767000052,0.0016767000051913783,None,340.5301413999987,340.5301413999987,340.5301413999987,340.5301413999987,340.5301413999987,340.5301413999987,340.5301413999987,340.5301413999987,340.5301413999987,340.5301413999987,,001,P018,2025_Mar_07_1743,ConditionRich,2021.2.3,59.93044472646077,
304.0,307.75,38,0.75,Stimuli/P018/things_pony_09s.jpg,0,0,0.0,0,130,130,130,,,,,,,,,,,,,304.00188110000454,0.0018811000045388937,None,340.7803714999973,340.7803714999973,340.7803714999973,340.7803714999973,340.7803714999973,340.7803714999973,340.7803714999973,340.7803714999973,340.7803714999973,340.7803714999973,,001,P018,2025_Mar_07_1743,ConditionRich,2021.2.3,59.93044472646077,
307.75,308.0,41,0.0,Stimuli/Blank.png,0,0,0.0,0,131,131,131,,,,,,,,,,,,,307.75570130000415,0.0057013000041479245,None,344.5336801999947,344.5336801999947,344.5336801999947,344.5336801999947,344.5336801999947,344.5336801999947,344.5336801999947,344.5336801999947,344.5336801999947,344.5336801999947,,001,P018,2025_Mar_07_1743,ConditionRich,2021.2.3,59.93044472646077,
308.0,311.75,36,0.75,Stimuli/P018/things_nest_09s.jpg,1,1,1.75,0,132,132,132,,,,,,,,,,,,,308.00533470000664,0.005334700006642379,2,344.78389869999955,344.78389869999955,344.78389869999955,344.78389869999955,344.78389869999955,344.78389869999955,345.76811339999404,346.51877969999623,344.78389869999955,344.78389869999955,1.3541160999957356,001,P018,2025_Mar_07_1743,ConditionRich,2021.2.3,59.93044472646077,
311.75,312.0,41,0.0,Stimuli/Blank.png,0,0,0.0,0,133,133,133,,,,,,,,,,,,,311.7591839000015,0.009183900001517031,None,348.53728489999776,348.53728489999776,348.53728489999776,348.53728489999776,348.53728489999776,348.53728489999776,348.53728489999776,348.53728489999776,348.53728489999776,348.53728489999776,,001,P018,2025_Mar_07_1743,ConditionRich,2021.2.3,59.93044472646077,
312.0,315.75,15,0.75,Stimuli/P018/sun_bobznlnnzwznersx.jpg,0,0,0.0,0,134,134,134,,,,,,,,,,,,,312.0119884000014,0.01198840000142809,None,348.80413119999866,348.80413119999866,348.80413119999866,348.80413119999866,348.80413119999866,348.80413119999866,348.80413119999866,348.80413119999866,348.80413119999866,348.80413119999866,,001,P018,2025_Mar_07_1743,ConditionRich,2021.2.3,59.93044472646077,
315.75,316.0,41,0.0,Stimuli/Blank.png,0,0,0.0,0,135,135,135,,,,,,,,,,,,,315.77980650000245,0.029806500002450775,None,352.5574549000012,352.5574549000012,352.5574549000012,352.5574549000012,352.5574549000012,352.5574549000012,352.5574549000012,352.5574549000012,352.5574549000012,352.5574549000012,,001,P018,2025_Mar_07_1743,ConditionRich,2021.2.3,59.93044472646077,
316.0,319.75,33,0.75,Stimuli/P018/things_lamb_09s.jpg,1,1,1.75,0,136,136,136,,,,,,,,,,,,,316.013080100005,0.013080100005026907,2,352.80770639999537,352.80770639999537,352.80770639999537,352.80770639999537,352.80770639999537,352.80770639999537,353.7752218999958,354.52584569999453,352.80770639999537,352.80770639999537,1.3094426000025123,001,P018,2025_Mar_07_1743,ConditionRich,2021.2.3,59.93044472646077,
319.75,320.0,41,0.0,Stimuli/Blank.png,0,0,0.0,0,137,137,137,,,,,,,,,,,,,319.765865500005,0.015865500005020294,None,356.5442977999992,356.5442977999992,356.5442977999992,356.5442977999992,356.5442977999992,356.5442977999992,356.5442977999992,356.5442977999992,356.5442977999992,356.5442977999992,,001,P018,2025_Mar_07_1743,ConditionRich,2021.2.3,59.93044472646077,
320.0,323.75,11,0.75,Stimuli/P018/sun_bdzxsadvniuolmio.jpg,0,0,0.0,0,138,138,138,,,,,,,,,,,,,320.00056210000184,0.0005621000018436462,None,356.79452379999566,356.79452379999566,356.79452379999566,356.79452379999566,356.79452379999566,356.79452379999566,356.79452379999566,356.79452379999566,356.79452379999566,356.79452379999566,,001,P018,2025_Mar_07_1743,ConditionRich,2021.2.3,59.93044472646077,
323.75,324.0,41,0.0,Stimuli/Blank.png,0,0,0.0,0,139,139,139,,,,,,,,,,,,,323.7699556000007,0.01995560000068508,None,360.54784449999715,360.54784449999715,360.54784449999715,360.54784449999715,360.54784449999715,360.54784449999715,360.54784449999715,360.54784449999715,360.54784449999715,360.54784449999715,,001,P018,2025_Mar_07_1743,ConditionRich,2021.2.3,59.93044472646077,
324.0,327.75,26,0.75,Stimuli/P018/things_chandelier_09s.jpg,1,1,1.75,0,140,140,140,,,,,,,,,,,,,324.0057680000027,0.005768000002717599,2,360.79805789999955,360.79805789999955,360.79805789999955,360.79805789999955,360.79805789999955,360.79805789999955,361.7822837999993,362.532927799999,360.79805789999955,360.79805789999955,1.3498781000016606,001,P018,2025_Mar_07_1743,ConditionRich,2021.2.3,59.93044472646077,
327.75,328.0,41,0.0,Stimuli/Blank.png,0,0,0.0,0,141,141,141,,,,,,,,,,,,,327.77291120000154,0.022911200001544785,None,364.5513690999942,364.5513690999942,364.5513690999942,364.5513690999942,364.5513690999942,364.5513690999942,364.5513690999942,364.5513690999942,364.5513690999942,364.5513690999942,,001,P018,2025_Mar_07_1743,ConditionRich,2021.2.3,59.93044472646077,
328.0,331.75,28,0.75,Stimuli/P018/things_collar_09s.jpg,0,0,0.0,0,142,142,142,,,,,,,,,,,,,328.00629400000616,0.006294000006164424,None,364.7849184000006,364.7849184000006,364.7849184000006,364.7849184000006,364.7849184000006,364.7849184000006,364.7849184000006,364.7849184000006,364.7849184000006,364.7849184000006,,001,P018,2025_Mar_07_1743,ConditionRich,2021.2.3,59.93044472646077,
331.75,332.0,41,0.0,Stimuli/Blank.png,0,0,0.0,0,143,143,143,,,,,,,,,,,,,331.7611396000066,0.011139600006572437,None,368.5382451999976,368.5382451999976,368.5382451999976,368.5382451999976,368.5382451999976,368.5382451999976,368.5382451999976,368.5382451999976,368.5382451999976,368.5382451999976,,001,P018,2025_Mar_07_1743,ConditionRich,2021.2.3,59.93044472646077,
332.0,335.75,14,0.75,Stimuli/P018/sun_bljpqnfmmqkjsfvx.jpg,1,0,0.75,0,144,144,144,,,,,,,,,,,,,332.0100201000023,0.010020100002293475,2,368.7884535999983,368.7884535999983,368.7884535999983,368.7884535999983,368.7884535999983,368.7884535999983,368.7884535999983,369.52243339999404,368.7884535999983,368.7884535999983,0.619857999998203,001,P018,2025_Mar_07_1743,ConditionRich,2021.2.3,59.93044472646077,
335.75,336.0,41,0.0,Stimuli/Blank.png,0,0,0.0,0,145,145,145,,,,,,,,,,,,,335.76394760000403,0.013947600004030392,None,372.5417961999992,372.5417961999992,372.5417961999992,372.5417961999992,372.5417961999992,372.5417961999992,372.5417961999992,372.5417961999992,372.5417961999992,372.5417961999992,,001,P018,2025_Mar_07_1743,ConditionRich,2021.2.3,59.93044472646077,
336.0,339.75,34,0.75,Stimuli/P018/things_llama_09s.jpg,0,0,0.0,0,146,146,146,,,,,,,,,,,,,336.01577100000577,0.015771000005770475,None,372.8086861999982,372.8086861999982,372.8086861999982,372.8086861999982,372.8086861999982,372.8086861999982,372.8086861999982,372.8086861999982,372.8086861999982,372.8086861999982,,001,P018,2025_Mar_07_1743,ConditionRich,2021.2.3,59.93044472646077,
339.75,340.0,41,0.0,Stimuli/Blank.png,0,0,0.0,0,147,147,147,,,,,,,,,,,,,339.76684450000175,0.01684450000175275,None,376.5453151999973,376.5453151999973,376.5453151999973,376.5453151999973,376.5453151999973,376.5453151999973,376.5453151999973,376.5453151999973,376.5453151999973,376.5453151999973,,001,P018,2025_Mar_07_1743,ConditionRich,2021.2.3,59.93044472646077,
340.0,343.75,12,0.75,Stimuli/P018/sun_bhvaiabdgxjuwoth.jpg,1,3,3.75,0,148,148,148,,,,,,,,,,,,,340.000280500004,0.00028050000400980935,2,376.7788556999949,376.7788556999949,376.7788556999949,376.7788556999949,376.7788556999949,376.7788556999949,379.76481709999643,380.51548389999516,376.7788556999949,376.7788556999949,3.375571900003706,001,P018,2025_Mar_07_1743,ConditionRich,2021.2.3,59.93044472646077,
343.75,344.0,41,0.0,Stimuli/Blank.png,0,0,0.0,0,149,149,149,,,,,,,,,,,,,343.75660460000654,0.00660460000653984,None,380.54885959999956,380.54885959999956,380.54885959999956,380.54885959999956,380.54885959999956,380.54885959999956,380.54885959999956,380.54885959999956,380.54885959999956,380.54885959999956,,001,P018,2025_Mar_07_1743,ConditionRich,2021.2.3,59.93044472646077,
344.0,347.75,31,0.75,Stimuli/P018/things_highchair_09s.jpg,0,0,0.0,0,150,150,150,,,,,,,,,,,,,344.0213655000043,0.021365500004321802,None,380.815757999997,380.815757999997,380.815757999997,380.815757999997,380.815757999997,380.815757999997,380.815757999997,380.815757999997,380.815757999997,380.815757999997,,001,P018,2025_Mar_07_1743,ConditionRich,2021.2.3,59.93044472646077,
347.75,348.0,41,0.0,Stimuli/Blank.png,0,0,0.0,0,151,151,151,,,,,,,,,,,,,347.77574370000366,0.025743700003658887,None,384.5690863999989,384.5690863999989,384.5690863999989,384.5690863999989,384.5690863999989,384.5690863999989,384.5690863999989,384.5690863999989,384.5690863999989,384.5690863999989,,001,P018,2025_Mar_07_1743,ConditionRich,2021.2.3,59.93044472646077,
348.0,351.75,37,0.75,Stimuli/P018/things_plastic_film_09s.jpg,0,0,0.0,0,152,152,152,,,,,,,,,,,,,348.0269821000038,0.02698210000380641,None,384.81931419999455,384.81931419999455,384.81931419999455,384.81931419999455,384.81931419999455,384.81931419999455,384.81931419999455,384.81931419999455,384.81931419999455,384.81931419999455,,001,P018,2025_Mar_07_1743,ConditionRich,2021.2.3,59.93044472646077,
351.75,352.0,41,0.0,Stimuli/Blank.png,0,0,0.0,0,153,153,153,,,,,,,,,,,,,351.7773243000047,0.027324300004693214,None,388.555924399996,388.555924399996,388.555924399996,388.555924399996,388.555924399996,388.555924399996,388.555924399996,388.555924399996,388.555924399996,388.555924399996,,001,P018,2025_Mar_07_1743,ConditionRich,2021.2.3,59.93044472646077,
352.0,355.75,17,0.75,Stimuli/P018/sun_brhndfjxyigqgiwl.jpg,0,0,0.0,0,154,154,154,,,,,,,,,,,,,352.01193890000286,0.011938900002860464,None,388.78947060000064,388.78947060000064,388.78947060000064,388.78947060000064,388.78947060000064,388.78947060000064,388.78947060000064,388.78947060000064,388.78947060000064,388.78947060000064,,001,P018,2025_Mar_07_1743,ConditionRich,2021.2.3,59.93044472646077,
355.75,356.0,41,0.0,Stimuli/Blank.png,0,0,0.0,0,155,155,155,,,,,,,,,,,,,355.76499400000466,0.014994000004662666,None,392.5427877999973,392.5427877999973,392.5427877999973,392.5427877999973,392.5427877999973,392.5427877999973,392.5427877999973,392.5427877999973,392.5427877999973,392.5427877999973,,001,P018,2025_Mar_07_1743,ConditionRich,2021.2.3,59.93044472646077,
356.0,359.75,4,0.75,Stimuli/P018/sun_aibvvqlmlsjnrgdj.jpg,0,0,0.0,0,156,156,156,,,,,,,,,,,,,356.0145652000065,0.014565200006472878,None,392.79300610000064,392.79300610000064,392.79300610000064,392.79300610000064,392.79300610000064,392.79300610000064,392.79300610000064,392.79300610000064,392.79300610000064,392.79300610000064,,001,P018,2025_Mar_07_1743,ConditionRich,2021.2.3,59.93044472646077,
359.75,360.0,41,0.0,Stimuli/Blank.png,0,0,0.0,0,157,157,157,,,,,,,,,,,,,359.7514511000045,0.001451100004487671,None,396.5296417999998,396.5296417999998,396.5296417999998,396.5296417999998,396.5296417999998,396.5296417999998,396.5296417999998,396.5296417999998,396.5296417999998,396.5296417999998,,001,P018,2025_Mar_07_1743,ConditionRich,2021.2.3,59.93044472646077,
360.0,363.75,23,0.75,Stimuli/P018/things_boy_09s.jpg,0,0,0.0,0,158,158,158,,,,,,,,,,,,,360.00181390000216,0.0018139000021619722,None,396.7798693999939,396.7798693999939,396.7798693999939,396.7798693999939,396.7798693999939,396.7798693999939,396.7798693999939,396.7798693999939,396.7798693999939,396.7798693999939,,001,P018,2025_Mar_07_1743,ConditionRich,2021.2.3,59.93044472646077,
363.75,364.0,41,0.0,Stimuli/Blank.png,0,0,0.0,0,159,159,159,,,,,,,,,,,,,363.7552629000056,0.005262900005618576,None,400.53318579999905,400.53318579999905,400.53318579999905,400.53318579999905,400.53318579999905,400.53318579999905,400.53318579999905,400.53318579999905,400.53318579999905,400.53318579999905,,001,P018,2025_Mar_07_1743,ConditionRich,2021.2.3,59.93044472646077,
364.0,367.75,27,0.75,Stimuli/P018/things_coffin_09s.jpg,0,0,0.0,0,160,160,160,,,,,,,,,,,,,364.0053255000021,0.005325500002072658,None,400.7834054999985,400.7834054999985,400.7834054999985,400.7834054999985,400.7834054999985,400.7834054999985,400.7834054999985,400.7834054999985,400.7834054999985,400.7834054999985,,001,P018,2025_Mar_07_1743,ConditionRich,2021.2.3,59.93044472646077,
367.75,368.0,41,0.0,Stimuli/Blank.png,0,0,0.0,0,161,161,161,,,,,,,,,,,,,367.75892770000064,0.00892770000064047,None,404.5367330999943,404.5367330999943,404.5367330999943,404.5367330999943,404.5367330999943,404.5367330999943,404.5367330999943,404.5367330999943,404.5367330999943,404.5367330999943,,001,P018,2025_Mar_07_1743,ConditionRich,2021.2.3,59.93044472646077,
368.0,371.75,39,0.75,Stimuli/P018/things_veil_09s.jpg,0,0,0.0,0,162,162,162,,,,,,,,,,,,,368.0091965000029,0.009196500002872199,None,404.7869447999983,404.7869447999983,404.7869447999983,404.7869447999983,404.7869447999983,404.7869447999983,404.7869447999983,404.7869447999983,404.7869447999983,404.7869447999983,,001,P018,2025_Mar_07_1743,ConditionRich,2021.2.3,59.93044472646077,
371.75,372.0,41,0.0,Stimuli/Blank.png,0,0,0.0,0,163,163,163,,,,,,,,,,,,,371.76164280000376,0.011642800003755838,None,408.5402591999955,408.5402591999955,408.5402591999955,408.5402591999955,408.5402591999955,408.5402591999955,408.5402591999955,408.5402591999955,408.5402591999955,408.5402591999955,,001,P018,2025_Mar_07_1743,ConditionRich,2021.2.3,59.93044472646077,
372.0,388.0,0,0.0,Stimuli/Blank.png,1,12,12.75,0,164,164,164,,,,,,,,,,,,,372.0127044000037,0.01270440000371309,2,408.79051159999653,408.79051159999653,408.79051159999653,408.79051159999653,408.79051159999653,408.79051159999653,420.7677696999963,421.5184045999995,408.79051159999653,408.79051159999653,12.335451200000534,001,P018,2025_Mar_07_1743,ConditionRich,2021.2.3,59.93044472646077,
