eventStartTime,eventEndTime,eventCond,imSize,imFile,responseEvent,fixRespStart,fixRespEnd,Events.thisRepN,Events.thisTrialN,Events.thisN,Events.thisIndex,Instructions.started,Instructions.stopped,participantReadyResponse.keys,participantReadyResponse.rt,participantReadyResponse.started,participantReadyResponse.stopped,startWaitforTrigger,triggerResponse.keys,triggerResponse.rt,triggerResponse.started,triggerResponse.stopped,globalTimer,actualStartTime,startTimingDiff,participantResponse.keys,participantResponse.rt,participantResponse.started,participantResponse.stopped,image.started,image.stopped,fixationOutside.started,fixationOutside.stopped,fixationResponse.started,fixationResponse.stopped,fixationInside.started,fixationInside.stopped,session,participant,date,expName,psychopyVersion,frameRate,
,,,,,,,,,,,,11.995612699996855,None,2,3.562946699996246,11.995612699996855,None,,,,,,,,,,,,,,,,,,,,,002,P018,2025_Mar_07_1751,ConditionRich,2021.2.3,59.92512954248162,
,,,,,,,,,,,,,,,,,,15.5768934000007,5,19.63823279999633,15.58936790000007,None,,,,,,,,,,,,,,,,002,P018,2025_Mar_07_1751,ConditionRich,2021.2.3,59.92512954248162,
0.0,4.0,0,0.0,Stimuli/Blank.png,0,0,0.0,0,0,0,0,,,,,,,,,,,,35.242382099997485,0.049005699998815544,0.049005699998815544,2,0.7198011000000406,35.30675170000177,None,35.30675170000177,None,35.30675170000177,None,35.30675170000177,35.30675170000177,35.30675170000177,None,002,P018,2025_Mar_07_1751,ConditionRich,2021.2.3,59.92512954248162,
4.0,4.75,34,0.75,Stimuli/P018/things_llama_09s.jpg,0,0,0.0,0,1,1,1,,,,,,,,,,,,,4.011567899993679,0.01156789999367902,None,,39.277265600001556,39.277265600001556,39.277265600001556,39.277265600001556,39.277265600001556,39.277265600001556,39.277265600001556,39.277265600001556,39.277265600001556,39.277265600001556,002,P018,2025_Mar_07_1751,ConditionRich,2021.2.3,59.92512954248162,
4.75,5.0,41,0.0,Stimuli/Blank.png,0,0,0.0,0,2,2,2,,,,,,,,,,,,,4.770591599997715,0.020591599997715093,None,,40.027864099996805,40.027864099996805,40.027864099996805,40.027864099996805,40.027864099996805,40.027864099996805,40.027864099996805,40.027864099996805,40.027864099996805,40.027864099996805,002,P018,2025_Mar_07_1751,ConditionRich,2021.2.3,59.92512954248162,
5.0,5.75,34,0.75,Stimuli/P018/things_llama_09s.jpg,0,0,0.0,0,3,3,3,,,,,,,,,,,,,5.004867699994065,0.004867699994065333,None,,40.27783929999714,40.27783929999714,40.27783929999714,40.27783929999714,40.27783929999714,40.27783929999714,40.27783929999714,40.27783929999714,40.27783929999714,40.27783929999714,002,P018,2025_Mar_07_1751,ConditionRich,2021.2.3,59.92512954248162,
5.75,6.0,41,0.0,Stimuli/Blank.png,0,0,0.0,0,4,4,4,,,,,,,,,,,,,5.772808199995779,0.022808199995779432,None,,41.02849179999612,41.02849179999612,41.02849179999612,41.02849179999612,41.02849179999612,41.02849179999612,41.02849179999612,41.02849179999612,41.02849179999612,41.02849179999612,002,P018,2025_Mar_07_1751,ConditionRich,2021.2.3,59.92512954248162,
6.0,6.75,34,0.75,Stimuli/P018/things_llama_09s.jpg,0,0,0.0,0,5,5,5,,,,,,,,,,,,,6.005074399996374,0.005074399996374268,None,,41.26202380000177,41.26202380000177,41.26202380000177,41.26202380000177,41.26202380000177,41.26202380000177,41.26202380000177,41.26202380000177,41.26202380000177,41.26202380000177,002,P018,2025_Mar_07_1751,ConditionRich,2021.2.3,59.92512954248162,
6.75,7.0,41,0.0,Stimuli/Blank.png,0,0,0.0,0,6,6,6,,,,,,,,,,,,,6.7557065000000875,0.005706500000087544,None,,42.01267740000185,42.01267740000185,42.01267740000185,42.01267740000185,42.01267740000185,42.01267740000185,42.01267740000185,42.01267740000185,42.01267740000185,42.01267740000185,002,P018,2025_Mar_07_1751,ConditionRich,2021.2.3,59.92512954248162,
7.0,7.75,34,0.75,Stimuli/P018/things_llama_09s.jpg,0,0,0.0,0,7,7,7,,,,,,,,,,,,,7.006913899997016,0.006913899997016415,None,,42.27958639999997,42.27958639999997,42.27958639999997,42.27958639999997,42.27958639999997,42.27958639999997,42.27958639999997,42.27958639999997,42.27958639999997,42.27958639999997,002,P018,2025_Mar_07_1751,ConditionRich,2021.2.3,59.92512954248162,
7.75,8.0,41,0.0,Stimuli/Blank.png,0,0,0.0,0,8,8,8,,,,,,,,,,,,,7.774420499998087,0.024420499998086598,None,,43.03025599999819,43.03025599999819,43.03025599999819,43.03025599999819,43.03025599999819,43.03025599999819,43.03025599999819,43.03025599999819,43.03025599999819,43.03025599999819,002,P018,2025_Mar_07_1751,ConditionRich,2021.2.3,59.92512954248162,
8.0,8.75,32,0.75,Stimuli/P018/things_horse_09s.jpg,0,0,0.0,0,9,9,9,,,,,,,,,,,,,8.007331199994951,0.007331199994951021,None,,43.28049040000042,43.28049040000042,43.28049040000042,43.28049040000042,43.28049040000042,43.28049040000042,43.28049040000042,43.28049040000042,43.28049040000042,43.28049040000042,002,P018,2025_Mar_07_1751,ConditionRich,2021.2.3,59.92512954248162,
8.75,9.0,41,0.0,Stimuli/Blank.png,0,0,0.0,0,10,10,10,,,,,,,,,,,,,8.775482599994575,0.02548259999457514,None,,44.03113859999576,44.03113859999576,44.03113859999576,44.03113859999576,44.03113859999576,44.03113859999576,44.03113859999576,44.03113859999576,44.03113859999576,44.03113859999576,002,P018,2025_Mar_07_1751,ConditionRich,2021.2.3,59.92512954248162,
9.0,9.75,32,0.75,Stimuli/P018/things_horse_09s.jpg,0,0,0.0,0,11,11,11,,,,,,,,,,,,,9.0098055999988,0.009805599998799153,None,,44.28136309999536,44.28136309999536,44.28136309999536,44.28136309999536,44.28136309999536,44.28136309999536,44.28136309999536,44.28136309999536,44.28136309999536,44.28136309999536,002,P018,2025_Mar_07_1751,ConditionRich,2021.2.3,59.92512954248162,
9.75,10.0,41,0.0,Stimuli/Blank.png,0,0,0.0,0,12,12,12,,,,,,,,,,,,,9.775169299995468,0.025169299995468464,None,,45.032025699998485,45.032025699998485,45.032025699998485,45.032025699998485,45.032025699998485,45.032025699998485,45.032025699998485,45.032025699998485,45.032025699998485,45.032025699998485,002,P018,2025_Mar_07_1751,ConditionRich,2021.2.3,59.92512954248162,
10.0,10.75,32,0.75,Stimuli/P018/things_horse_09s.jpg,0,0,0.0,0,13,13,13,,,,,,,,,,,,,10.009676599998784,0.009676599998783786,None,,45.26556239999627,45.26556239999627,45.26556239999627,45.26556239999627,45.26556239999627,45.26556239999627,45.26556239999627,45.26556239999627,45.26556239999627,45.26556239999627,002,P018,2025_Mar_07_1751,ConditionRich,2021.2.3,59.92512954248162,
10.75,11.0,41,0.0,Stimuli/Blank.png,0,0,0.0,0,14,14,14,,,,,,,,,,,,,10.759962199997972,0.009962199997971766,None,,46.016227300002356,46.016227300002356,46.016227300002356,46.016227300002356,46.016227300002356,46.016227300002356,46.016227300002356,46.016227300002356,46.016227300002356,46.016227300002356,002,P018,2025_Mar_07_1751,ConditionRich,2021.2.3,59.92512954248162,
11.0,11.75,32,0.75,Stimuli/P018/things_horse_09s.jpg,0,0,0.0,0,15,15,15,,,,,,,,,,,,,11.010735599993495,0.01073559999349527,None,,46.28313799999887,46.28313799999887,46.28313799999887,46.28313799999887,46.28313799999887,46.28313799999887,46.28313799999887,46.28313799999887,46.28313799999887,46.28313799999887,002,P018,2025_Mar_07_1751,ConditionRich,2021.2.3,59.92512954248162,
11.75,12.0,41,0.0,Stimuli/Blank.png,0,0,0.0,0,16,16,16,,,,,,,,,,,,,11.77702579999459,0.02702579999458976,None,,47.033885500000906,47.033885500000906,47.033885500000906,47.033885500000906,47.033885500000906,47.033885500000906,47.033885500000906,47.033885500000906,47.033885500000906,47.033885500000906,002,P018,2025_Mar_07_1751,ConditionRich,2021.2.3,59.92512954248162,
12.0,12.75,33,0.75,Stimuli/P018/things_lamb_09s.jpg,1,0,0.75,0,17,17,17,,,,,,,,,,,,,12.010437699995236,0.010437699995236471,2,0.3542087000023457,47.26731909999944,47.26731909999944,47.26731909999944,47.26731909999944,47.26731909999944,47.26731909999944,47.26731909999944,48.00130619999982,47.26731909999944,47.26731909999944,002,P018,2025_Mar_07_1751,ConditionRich,2021.2.3,59.92512954248162,
12.75,13.0,41,0.0,Stimuli/Blank.png,0,0,0.0,0,18,18,18,,,,,,,,,,,,,12.761073399997258,0.011073399997258093,None,,48.01798759999656,48.01798759999656,48.01798759999656,48.01798759999656,48.01798759999656,48.01798759999656,48.01798759999656,48.01798759999656,48.01798759999656,48.01798759999656,002,P018,2025_Mar_07_1751,ConditionRich,2021.2.3,59.92512954248162,
13.0,13.75,33,0.75,Stimuli/P018/things_lamb_09s.jpg,0,0,0.0,0,19,19,19,,,,,,,,,,,,,13.011832199998025,0.011832199998025317,None,,48.28492259999621,48.28492259999621,48.28492259999621,48.28492259999621,48.28492259999621,48.28492259999621,48.28492259999621,48.28492259999621,48.28492259999621,48.28492259999621,002,P018,2025_Mar_07_1751,ConditionRich,2021.2.3,59.92512954248162,
13.75,14.0,41,0.0,Stimuli/Blank.png,0,0,0.0,0,20,20,20,,,,,,,,,,,,,13.779943399997137,0.02994339999713702,None,,49.035573499997554,49.035573499997554,49.035573499997554,49.035573499997554,49.035573499997554,49.035573499997554,49.035573499997554,49.035573499997554,49.035573499997554,49.035573499997554,002,P018,2025_Mar_07_1751,ConditionRich,2021.2.3,59.92512954248162,
14.0,14.75,33,0.75,Stimuli/P018/things_lamb_09s.jpg,0,0,0.0,0,21,21,21,,,,,,,,,,,,,14.012952599994605,0.012952599994605407,None,,49.26909119999618,49.26909119999618,49.26909119999618,49.26909119999618,49.26909119999618,49.26909119999618,49.26909119999618,49.26909119999618,49.26909119999618,49.26909119999618,002,P018,2025_Mar_07_1751,ConditionRich,2021.2.3,59.92512954248162,
14.75,15.0,41,0.0,Stimuli/Blank.png,0,0,0.0,0,22,22,22,,,,,,,,,,,,,14.764103699999396,0.014103699999395758,None,,50.01976819999982,50.01976819999982,50.01976819999982,50.01976819999982,50.01976819999982,50.01976819999982,50.01976819999982,50.01976819999982,50.01976819999982,50.01976819999982,002,P018,2025_Mar_07_1751,ConditionRich,2021.2.3,59.92512954248162,
15.0,15.75,33,0.75,Stimuli/P018/things_lamb_09s.jpg,0,0,0.0,0,23,23,23,,,,,,,,,,,,,15.015009399998235,0.015009399998234585,None,,50.28667219999625,50.28667219999625,50.28667219999625,50.28667219999625,50.28667219999625,50.28667219999625,50.28667219999625,50.28667219999625,50.28667219999625,50.28667219999625,002,P018,2025_Mar_07_1751,ConditionRich,2021.2.3,59.92512954248162,
15.75,16.0,41,0.0,Stimuli/Blank.png,0,0,0.0,0,24,24,24,,,,,,,,,,,,,15.764283899996371,0.014283899996371474,None,,51.020650400001614,51.020650400001614,51.020650400001614,51.020650400001614,51.020650400001614,51.020650400001614,51.020650400001614,51.020650400001614,51.020650400001614,51.020650400001614,002,P018,2025_Mar_07_1751,ConditionRich,2021.2.3,59.92512954248162,
16.0,16.75,28,0.75,Stimuli/P018/things_collar_09s.jpg,0,0,0.0,0,25,25,25,,,,,,,,,,,,,16.014600499998778,0.014600499998778105,None,,51.270863500001724,51.270863500001724,51.270863500001724,51.270863500001724,51.270863500001724,51.270863500001724,51.270863500001724,51.270863500001724,51.270863500001724,51.270863500001724,002,P018,2025_Mar_07_1751,ConditionRich,2021.2.3,59.92512954248162,
16.75,17.0,41,0.0,Stimuli/Blank.png,0,0,0.0,0,26,26,26,,,,,,,,,,,,,16.765236899998854,0.015236899998853914,None,,52.021521399998164,52.021521399998164,52.021521399998164,52.021521399998164,52.021521399998164,52.021521399998164,52.021521399998164,52.021521399998164,52.021521399998164,52.021521399998164,002,P018,2025_Mar_07_1751,ConditionRich,2021.2.3,59.92512954248162,
17.0,17.75,28,0.75,Stimuli/P018/things_collar_09s.jpg,0,0,0.0,0,27,27,27,,,,,,,,,,,,,17.015537100000074,0.015537100000074133,None,,52.271746799997345,52.271746799997345,52.271746799997345,52.271746799997345,52.271746799997345,52.271746799997345,52.271746799997345,52.271746799997345,52.271746799997345,52.271746799997345,002,P018,2025_Mar_07_1751,ConditionRich,2021.2.3,59.92512954248162,
17.75,18.0,41,0.0,Stimuli/Blank.png,0,0,0.0,0,28,28,28,,,,,,,,,,,,,17.74956669999665,-0.000433300003351178,None,,53.0057358999984,53.0057358999984,53.0057358999984,53.0057358999984,53.0057358999984,53.0057358999984,53.0057358999984,53.0057358999984,53.0057358999984,53.0057358999984,002,P018,2025_Mar_07_1751,ConditionRich,2021.2.3,59.92512954248162,
18.0,18.75,28,0.75,Stimuli/P018/things_collar_09s.jpg,0,0,0.0,0,29,29,29,,,,,,,,,,,,,17.999272299995937,-0.000727700004063081,None,,53.255951799998,53.255951799998,53.255951799998,53.255951799998,53.255951799998,53.255951799998,53.255951799998,53.255951799998,53.255951799998,53.255951799998,002,P018,2025_Mar_07_1751,ConditionRich,2021.2.3,59.92512954248162,
18.75,19.0,41,0.0,Stimuli/Blank.png,0,0,0.0,0,30,30,30,,,,,,,,,,,,,18.75026539999817,0.00026539999817032367,None,,54.00661979999859,54.00661979999859,54.00661979999859,54.00661979999859,54.00661979999859,54.00661979999859,54.00661979999859,54.00661979999859,54.00661979999859,54.00661979999859,002,P018,2025_Mar_07_1751,ConditionRich,2021.2.3,59.92512954248162,
19.0,19.75,28,0.75,Stimuli/P018/things_collar_09s.jpg,0,0,0.0,0,31,31,31,,,,,,,,,,,,,19.000602699998126,0.0006026999981258996,None,,54.27352389999578,54.27352389999578,54.27352389999578,54.27352389999578,54.27352389999578,54.27352389999578,54.27352389999578,54.27352389999578,54.27352389999578,54.27352389999578,002,P018,2025_Mar_07_1751,ConditionRich,2021.2.3,59.92512954248162,
19.75,20.0,41,0.0,Stimuli/Blank.png,0,0,0.0,0,32,32,32,,,,,,,,,,,,,19.768056900000374,0.0180569000003743,None,,55.02419640000153,55.02419640000153,55.02419640000153,55.02419640000153,55.02419640000153,55.02419640000153,55.02419640000153,55.02419640000153,55.02419640000153,55.02419640000153,002,P018,2025_Mar_07_1751,ConditionRich,2021.2.3,59.92512954248162,
20.0,20.75,31,0.75,Stimuli/P018/things_highchair_09s.jpg,0,0,0.0,0,33,33,33,,,,,,,,,,,,,20.001249900000403,0.0012499000004027039,None,,55.25771749999694,55.25771749999694,55.25771749999694,55.25771749999694,55.25771749999694,55.25771749999694,55.25771749999694,55.25771749999694,55.25771749999694,55.25771749999694,002,P018,2025_Mar_07_1751,ConditionRich,2021.2.3,59.92512954248162,
20.75,21.0,41,0.0,Stimuli/Blank.png,0,0,0.0,0,34,34,34,,,,,,,,,,,,,20.75241859999369,0.0024185999936889857,None,,56.00839830000041,56.00839830000041,56.00839830000041,56.00839830000041,56.00839830000041,56.00839830000041,56.00839830000041,56.00839830000041,56.00839830000041,56.00839830000041,002,P018,2025_Mar_07_1751,ConditionRich,2021.2.3,59.92512954248162,
21.0,21.75,31,0.75,Stimuli/P018/things_highchair_09s.jpg,0,0,0.0,0,35,35,35,,,,,,,,,,,,,21.003417799998715,0.0034177999987150542,None,,56.27527779999946,56.27527779999946,56.27527779999946,56.27527779999946,56.27527779999946,56.27527779999946,56.27527779999946,56.27527779999946,56.27527779999946,56.27527779999946,002,P018,2025_Mar_07_1751,ConditionRich,2021.2.3,59.92512954248162,
21.75,22.0,41,0.0,Stimuli/Blank.png,0,0,0.0,0,36,36,36,,,,,,,,,,,,,21.769604699999036,0.019604699999035802,None,,57.02595899999869,57.02595899999869,57.02595899999869,57.02595899999869,57.02595899999869,57.02595899999869,57.02595899999869,57.02595899999869,57.02595899999869,57.02595899999869,002,P018,2025_Mar_07_1751,ConditionRich,2021.2.3,59.92512954248162,
22.0,22.75,31,0.75,Stimuli/P018/things_highchair_09s.jpg,0,0,0.0,0,37,37,37,,,,,,,,,,,,,22.00454589999572,0.004545899995719083,None,,57.276184499998635,57.276184499998635,57.276184499998635,57.276184499998635,57.276184499998635,57.276184499998635,57.276184499998635,57.276184499998635,57.276184499998635,57.276184499998635,002,P018,2025_Mar_07_1751,ConditionRich,2021.2.3,59.92512954248162,
22.75,23.0,41,0.0,Stimuli/Blank.png,0,0,0.0,0,38,38,38,,,,,,,,,,,,,22.770493399999395,0.02049339999939548,None,,58.02685090000159,58.02685090000159,58.02685090000159,58.02685090000159,58.02685090000159,58.02685090000159,58.02685090000159,58.02685090000159,58.02685090000159,58.02685090000159,002,P018,2025_Mar_07_1751,ConditionRich,2021.2.3,59.92512954248162,
23.0,23.75,31,0.75,Stimuli/P018/things_highchair_09s.jpg,0,0,0.0,0,39,39,39,,,,,,,,,,,,,23.004133999995247,0.004133999995246995,None,,58.26037910000014,58.26037910000014,58.26037910000014,58.26037910000014,58.26037910000014,58.26037910000014,58.26037910000014,58.26037910000014,58.26037910000014,58.26037910000014,002,P018,2025_Mar_07_1751,ConditionRich,2021.2.3,59.92512954248162,
23.75,24.0,41,0.0,Stimuli/Blank.png,0,0,0.0,0,40,40,40,,,,,,,,,,,,,23.75562479999644,0.005624799996439833,None,,59.011042400001315,59.011042400001315,59.011042400001315,59.011042400001315,59.011042400001315,59.011042400001315,59.011042400001315,59.011042400001315,59.011042400001315,59.011042400001315,002,P018,2025_Mar_07_1751,ConditionRich,2021.2.3,59.92512954248162,
24.0,24.75,22,0.75,Stimuli/P018/things_boat_09s.jpg,0,0,0.0,0,41,41,41,,,,,,,,,,,,,24.004885799993644,0.0048857999936444685,None,,59.27797689999716,59.27797689999716,59.27797689999716,59.27797689999716,59.27797689999716,59.27797689999716,59.27797689999716,59.27797689999716,59.27797689999716,59.27797689999716,002,P018,2025_Mar_07_1751,ConditionRich,2021.2.3,59.92512954248162,
24.75,25.0,41,0.0,Stimuli/Blank.png,0,0,0.0,0,42,42,42,,,,,,,,,,,,,24.77156699999614,0.021566999996139202,None,,60.02863449999859,60.02863449999859,60.02863449999859,60.02863449999859,60.02863449999859,60.02863449999859,60.02863449999859,60.02863449999859,60.02863449999859,60.02863449999859,002,P018,2025_Mar_07_1751,ConditionRich,2021.2.3,59.92512954248162,
25.0,25.75,22,0.75,Stimuli/P018/things_boat_09s.jpg,0,0,0.0,0,43,43,43,,,,,,,,,,,,,25.005987199998344,0.005987199998344295,None,,60.278856600001745,60.278856600001745,60.278856600001745,60.278856600001745,60.278856600001745,60.278856600001745,60.278856600001745,60.278856600001745,60.278856600001745,60.278856600001745,002,P018,2025_Mar_07_1751,ConditionRich,2021.2.3,59.92512954248162,
25.75,26.0,41,0.0,Stimuli/Blank.png,0,0,0.0,0,44,44,44,,,,,,,,,,,,,25.773049699993862,0.023049699993862305,None,,61.02949429999717,61.02949429999717,61.02949429999717,61.02949429999717,61.02949429999717,61.02949429999717,61.02949429999717,61.02949429999717,61.02949429999717,61.02949429999717,002,P018,2025_Mar_07_1751,ConditionRich,2021.2.3,59.92512954248162,
26.0,26.75,22,0.75,Stimuli/P018/things_boat_09s.jpg,0,0,0.0,0,45,45,45,,,,,,,,,,,,,26.00595909999538,0.005959099995379802,None,,61.26303370000096,61.26303370000096,61.26303370000096,61.26303370000096,61.26303370000096,61.26303370000096,61.26303370000096,61.26303370000096,61.26303370000096,61.26303370000096,002,P018,2025_Mar_07_1751,ConditionRich,2021.2.3,59.92512954248162,
26.75,27.0,41,0.0,Stimuli/Blank.png,0,0,0.0,0,46,46,46,,,,,,,,,,,,,26.758048299998336,0.008048299998336006,None,,62.0137235000002,62.0137235000002,62.0137235000002,62.0137235000002,62.0137235000002,62.0137235000002,62.0137235000002,62.0137235000002,62.0137235000002,62.0137235000002,002,P018,2025_Mar_07_1751,ConditionRich,2021.2.3,59.92512954248162,
27.0,27.75,22,0.75,Stimuli/P018/things_boat_09s.jpg,0,0,0.0,0,47,47,47,,,,,,,,,,,,,27.007048899999063,0.007048899999062996,None,,62.280617399999755,62.280617399999755,62.280617399999755,62.280617399999755,62.280617399999755,62.280617399999755,62.280617399999755,62.280617399999755,62.280617399999755,62.280617399999755,002,P018,2025_Mar_07_1751,ConditionRich,2021.2.3,59.92512954248162,
27.75,28.0,41,0.0,Stimuli/Blank.png,0,0,0.0,0,48,48,48,,,,,,,,,,,,,27.77439179999783,0.024391799997829366,None,,63.03123719999712,63.03123719999712,63.03123719999712,63.03123719999712,63.03123719999712,63.03123719999712,63.03123719999712,63.03123719999712,63.03123719999712,63.03123719999712,002,P018,2025_Mar_07_1751,ConditionRich,2021.2.3,59.92512954248162,
28.0,28.75,4,0.75,Stimuli/P018/sun_aibvvqlmlsjnrgdj.jpg,0,0,0.0,0,49,49,49,,,,,,,,,,,,,28.008066599999438,0.00806659999943804,None,,63.26477309999609,63.26477309999609,63.26477309999609,63.26477309999609,63.26477309999609,63.26477309999609,63.26477309999609,63.26477309999609,63.26477309999609,63.26477309999609,002,P018,2025_Mar_07_1751,ConditionRich,2021.2.3,59.92512954248162,
28.75,29.0,41,0.0,Stimuli/Blank.png,0,0,0.0,0,50,50,50,,,,,,,,,,,,,28.75887469999725,0.00887469999724999,None,,64.01547149999533,64.01547149999533,64.01547149999533,64.01547149999533,64.01547149999533,64.01547149999533,64.01547149999533,64.01547149999533,64.01547149999533,64.01547149999533,002,P018,2025_Mar_07_1751,ConditionRich,2021.2.3,59.92512954248162,
29.0,29.75,4,0.75,Stimuli/P018/sun_aibvvqlmlsjnrgdj.jpg,0,0,0.0,0,51,51,51,,,,,,,,,,,,,29.009373299995787,0.00937329999578651,None,,64.26569980000204,64.26569980000204,64.26569980000204,64.26569980000204,64.26569980000204,64.26569980000204,64.26569980000204,64.26569980000204,64.26569980000204,64.26569980000204,002,P018,2025_Mar_07_1751,ConditionRich,2021.2.3,59.92512954248162,
29.75,30.0,41,0.0,Stimuli/Blank.png,0,0,0.0,0,52,52,52,,,,,,,,,,,,,29.76011689999723,0.010116899997228757,None,,65.01723869999842,65.01723869999842,65.01723869999842,65.01723869999842,65.01723869999842,65.01723869999842,65.01723869999842,65.01723869999842,65.01723869999842,65.01723869999842,002,P018,2025_Mar_07_1751,ConditionRich,2021.2.3,59.92512954248162,
30.0,30.75,4,0.75,Stimuli/P018/sun_aibvvqlmlsjnrgdj.jpg,0,0,0.0,0,53,53,53,,,,,,,,,,,,,30.010619900000165,0.010619900000165217,None,,65.26667549999547,65.26667549999547,65.26667549999547,65.26667549999547,65.26667549999547,65.26667549999547,65.26667549999547,65.26667549999547,65.26667549999547,65.26667549999547,002,P018,2025_Mar_07_1751,ConditionRich,2021.2.3,59.92512954248162,
30.75,31.0,41,0.0,Stimuli/Blank.png,0,0,0.0,0,54,54,54,,,,,,,,,,,,,30.760855299995455,0.010855299995455425,None,,66.01723279999715,66.01723279999715,66.01723279999715,66.01723279999715,66.01723279999715,66.01723279999715,66.01723279999715,66.01723279999715,66.01723279999715,66.01723279999715,002,P018,2025_Mar_07_1751,ConditionRich,2021.2.3,59.92512954248162,
31.0,31.75,4,0.75,Stimuli/P018/sun_aibvvqlmlsjnrgdj.jpg,0,0,0.0,0,55,55,55,,,,,,,,,,,,,31.01111949999904,0.011119499999040272,None,,66.26745680000022,66.26745680000022,66.26745680000022,66.26745680000022,66.26745680000022,66.26745680000022,66.26745680000022,66.26745680000022,66.26745680000022,66.26745680000022,002,P018,2025_Mar_07_1751,ConditionRich,2021.2.3,59.92512954248162,
31.75,32.0,41,0.0,Stimuli/Blank.png,0,0,0.0,0,56,56,56,,,,,,,,,,,,,31.76127959999576,0.011279599995759781,None,,67.01812580000114,67.01812580000114,67.01812580000114,67.01812580000114,67.01812580000114,67.01812580000114,67.01812580000114,67.01812580000114,67.01812580000114,67.01812580000114,002,P018,2025_Mar_07_1751,ConditionRich,2021.2.3,59.92512954248162,
32.0,32.75,36,0.75,Stimuli/P018/things_nest_09s.jpg,1,0,0.75,0,57,57,57,,,,,,,,,,,,,32.01134839999577,0.011348399995767977,2,0.43250560000160476,67.2850247000024,67.2850247000024,67.2850247000024,67.2850247000024,67.2850247000024,67.2850247000024,67.2850247000024,68.00235899999825,67.2850247000024,67.2850247000024,002,P018,2025_Mar_07_1751,ConditionRich,2021.2.3,59.92512954248162,
32.75,33.0,41,0.0,Stimuli/Blank.png,0,0,0.0,0,58,58,58,,,,,,,,,,,,,32.780326899999636,0.030326899999636225,None,,68.0356912999996,68.0356912999996,68.0356912999996,68.0356912999996,68.0356912999996,68.0356912999996,68.0356912999996,68.0356912999996,68.0356912999996,68.0356912999996,002,P018,2025_Mar_07_1751,ConditionRich,2021.2.3,59.92512954248162,
33.0,33.75,36,0.75,Stimuli/P018/things_nest_09s.jpg,0,0,0.0,0,59,59,59,,,,,,,,,,,,,33.014612200000556,0.014612200000556186,None,,68.2859110999998,68.2859110999998,68.2859110999998,68.2859110999998,68.2859110999998,68.2859110999998,68.2859110999998,68.2859110999998,68.2859110999998,68.2859110999998,002,P018,2025_Mar_07_1751,ConditionRich,2021.2.3,59.92512954248162,
33.75,34.0,41,0.0,Stimuli/Blank.png,0,0,0.0,0,60,60,60,,,,,,,,,,,,,33.780525899994245,0.030525899994245265,None,,69.03656929999852,69.03656929999852,69.03656929999852,69.03656929999852,69.03656929999852,69.03656929999852,69.03656929999852,69.03656929999852,69.03656929999852,69.03656929999852,002,P018,2025_Mar_07_1751,ConditionRich,2021.2.3,59.92512954248162,
34.0,34.75,36,0.75,Stimuli/P018/things_nest_09s.jpg,0,0,0.0,0,61,61,61,,,,,,,,,,,,,34.01374329999817,0.013743299998168368,None,,69.27010689999588,69.27010689999588,69.27010689999588,69.27010689999588,69.27010689999588,69.27010689999588,69.27010689999588,69.27010689999588,69.27010689999588,69.27010689999588,002,P018,2025_Mar_07_1751,ConditionRich,2021.2.3,59.92512954248162,
34.75,35.0,41,0.0,Stimuli/Blank.png,0,0,0.0,0,62,62,62,,,,,,,,,,,,,34.765336799995566,0.015336799995566253,None,,70.02078220000112,70.02078220000112,70.02078220000112,70.02078220000112,70.02078220000112,70.02078220000112,70.02078220000112,70.02078220000112,70.02078220000112,70.02078220000112,002,P018,2025_Mar_07_1751,ConditionRich,2021.2.3,59.92512954248162,
35.0,35.75,36,0.75,Stimuli/P018/things_nest_09s.jpg,0,0,0.0,0,63,63,63,,,,,,,,,,,,,35.01618629999575,0.01618629999575205,None,,70.28768390000187,70.28768390000187,70.28768390000187,70.28768390000187,70.28768390000187,70.28768390000187,70.28768390000187,70.28768390000187,70.28768390000187,70.28768390000187,002,P018,2025_Mar_07_1751,ConditionRich,2021.2.3,59.92512954248162,
35.75,36.0,41,0.0,Stimuli/Blank.png,0,0,0.0,0,64,64,64,,,,,,,,,,,,,35.764667099996586,0.01466709999658633,None,,71.02166359999683,71.02166359999683,71.02166359999683,71.02166359999683,71.02166359999683,71.02166359999683,71.02166359999683,71.02166359999683,71.02166359999683,71.02166359999683,002,P018,2025_Mar_07_1751,ConditionRich,2021.2.3,59.92512954248162,
36.0,36.75,7,0.75,Stimuli/P018/sun_auadhqmfjsjtjcue.jpg,0,0,0.0,0,65,65,65,,,,,,,,,,,,,36.01546740000049,0.015467400000488851,None,,71.27187330000015,71.27187330000015,71.27187330000015,71.27187330000015,71.27187330000015,71.27187330000015,71.27187330000015,71.27187330000015,71.27187330000015,71.27187330000015,002,P018,2025_Mar_07_1751,ConditionRich,2021.2.3,59.92512954248162,
36.75,37.0,41,0.0,Stimuli/Blank.png,0,0,0.0,0,66,66,66,,,,,,,,,,,,,36.74883520000003,-0.0011647999999695458,None,,72.0058590999979,72.0058590999979,72.0058590999979,72.0058590999979,72.0058590999979,72.0058590999979,72.0058590999979,72.0058590999979,72.0058590999979,72.0058590999979,002,P018,2025_Mar_07_1751,ConditionRich,2021.2.3,59.92512954248162,
37.0,37.75,7,0.75,Stimuli/P018/sun_auadhqmfjsjtjcue.jpg,0,0,0.0,0,67,67,67,,,,,,,,,,,,,36.99940859999333,-0.0005914000066695735,None,,72.25609009999607,72.25609009999607,72.25609009999607,72.25609009999607,72.25609009999607,72.25609009999607,72.25609009999607,72.25609009999607,72.25609009999607,72.25609009999607,002,P018,2025_Mar_07_1751,ConditionRich,2021.2.3,59.92512954248162,
37.75,38.0,41,0.0,Stimuli/Blank.png,0,0,0.0,0,68,68,68,,,,,,,,,,,,,37.750767099998484,0.0007670999984839,None,,73.00675590000174,73.00675590000174,73.00675590000174,73.00675590000174,73.00675590000174,73.00675590000174,73.00675590000174,73.00675590000174,73.00675590000174,73.00675590000174,002,P018,2025_Mar_07_1751,ConditionRich,2021.2.3,59.92512954248162,
38.0,38.75,7,0.75,Stimuli/P018/sun_auadhqmfjsjtjcue.jpg,0,0,0.0,0,69,69,69,,,,,,,,,,,,,38.00009949999367,9.949999366654083e-05,None,,73.25692680000066,73.25692680000066,73.25692680000066,73.25692680000066,73.25692680000066,73.25692680000066,73.25692680000066,73.25692680000066,73.25692680000066,73.25692680000066,002,P018,2025_Mar_07_1751,ConditionRich,2021.2.3,59.92512954248162,
38.75,39.0,41,0.0,Stimuli/Blank.png,0,0,0.0,0,70,70,70,,,,,,,,,,,,,38.750640499994915,0.0006404999949154444,None,,74.00763139999617,74.00763139999617,74.00763139999617,74.00763139999617,74.00763139999617,74.00763139999617,74.00763139999617,74.00763139999617,74.00763139999617,74.00763139999617,002,P018,2025_Mar_07_1751,ConditionRich,2021.2.3,59.92512954248162,
39.0,39.75,7,0.75,Stimuli/P018/sun_auadhqmfjsjtjcue.jpg,0,0,0.0,0,71,71,71,,,,,,,,,,,,,39.000976299998,0.0009762999980011955,None,,74.25784340000246,74.25784340000246,74.25784340000246,74.25784340000246,74.25784340000246,74.25784340000246,74.25784340000246,74.25784340000246,74.25784340000246,74.25784340000246,002,P018,2025_Mar_07_1751,ConditionRich,2021.2.3,59.92512954248162,
39.75,40.0,41,0.0,Stimuli/Blank.png,0,0,0.0,0,72,72,72,,,,,,,,,,,,,39.75217979999434,0.0021797999943373725,None,,75.00852450000093,75.00852450000093,75.00852450000093,75.00852450000093,75.00852450000093,75.00852450000093,75.00852450000093,75.00852450000093,75.00852450000093,75.00852450000093,002,P018,2025_Mar_07_1751,ConditionRich,2021.2.3,59.92512954248162,
40.0,40.75,10,0.75,Stimuli/P018/sun_bayxprasninnrnle.jpg,0,0,0.0,0,73,73,73,,,,,,,,,,,,,40.002196199995524,0.0021961999955237843,None,,75.2587343999985,75.2587343999985,75.2587343999985,75.2587343999985,75.2587343999985,75.2587343999985,75.2587343999985,75.2587343999985,75.2587343999985,75.2587343999985,002,P018,2025_Mar_07_1751,ConditionRich,2021.2.3,59.92512954248162,
40.75,41.0,41,0.0,Stimuli/Blank.png,0,0,0.0,0,74,74,74,,,,,,,,,,,,,40.7523785999947,0.0023785999946994707,None,,76.00941079999757,76.00941079999757,76.00941079999757,76.00941079999757,76.00941079999757,76.00941079999757,76.00941079999757,76.00941079999757,76.00941079999757,76.00941079999757,002,P018,2025_Mar_07_1751,ConditionRich,2021.2.3,59.92512954248162,
41.0,41.75,10,0.75,Stimuli/P018/sun_bayxprasninnrnle.jpg,0,0,0.0,0,75,75,75,,,,,,,,,,,,,41.0034713999994,0.0034713999993982725,None,,76.25963029999548,76.25963029999548,76.25963029999548,76.25963029999548,76.25963029999548,76.25963029999548,76.25963029999548,76.25963029999548,76.25963029999548,76.25963029999548,002,P018,2025_Mar_07_1751,ConditionRich,2021.2.3,59.92512954248162,
41.75,42.0,41,0.0,Stimuli/Blank.png,0,0,0.0,0,76,76,76,,,,,,,,,,,,,41.754411800000526,0.004411800000525545,None,,77.01029810000182,77.01029810000182,77.01029810000182,77.01029810000182,77.01029810000182,77.01029810000182,77.01029810000182,77.01029810000182,77.01029810000182,77.01029810000182,002,P018,2025_Mar_07_1751,ConditionRich,2021.2.3,59.92512954248162,
42.0,42.75,10,0.75,Stimuli/P018/sun_bayxprasninnrnle.jpg,0,0,0.0,0,77,77,77,,,,,,,,,,,,,42.00452499999665,0.004524999996647239,None,,77.26050889999897,77.26050889999897,77.26050889999897,77.26050889999897,77.26050889999897,77.26050889999897,77.26050889999897,77.26050889999897,77.26050889999897,77.26050889999897,002,P018,2025_Mar_07_1751,ConditionRich,2021.2.3,59.92512954248162,
42.75,43.0,41,0.0,Stimuli/Blank.png,0,0,0.0,0,78,78,78,,,,,,,,,,,,,42.75550129999465,0.005501299994648434,None,,78.0111762000015,78.0111762000015,78.0111762000015,78.0111762000015,78.0111762000015,78.0111762000015,78.0111762000015,78.0111762000015,78.0111762000015,78.0111762000015,002,P018,2025_Mar_07_1751,ConditionRich,2021.2.3,59.92512954248162,
43.0,43.75,10,0.75,Stimuli/P018/sun_bayxprasninnrnle.jpg,0,0,0.0,0,79,79,79,,,,,,,,,,,,,43.006548399993335,0.006548399993334897,None,,78.27808109999751,78.27808109999751,78.27808109999751,78.27808109999751,78.27808109999751,78.27808109999751,78.27808109999751,78.27808109999751,78.27808109999751,78.27808109999751,002,P018,2025_Mar_07_1751,ConditionRich,2021.2.3,59.92512954248162,
43.75,44.0,41,0.0,Stimuli/Blank.png,0,0,0.0,0,80,80,80,,,,,,,,,,,,,43.771718500000134,0.021718500000133645,None,,79.02874209999572,79.02874209999572,79.02874209999572,79.02874209999572,79.02874209999572,79.02874209999572,79.02874209999572,79.02874209999572,79.02874209999572,79.02874209999572,002,P018,2025_Mar_07_1751,ConditionRich,2021.2.3,59.92512954248162,
44.0,44.75,39,0.75,Stimuli/P018/things_veil_09s.jpg,0,0,0.0,0,81,81,81,,,,,,,,,,,,,44.00522169999749,0.005221699997491669,None,,79.26229089999833,79.26229089999833,79.26229089999833,79.26229089999833,79.26229089999833,79.26229089999833,79.26229089999833,79.26229089999833,79.26229089999833,79.26229089999833,002,P018,2025_Mar_07_1751,ConditionRich,2021.2.3,59.92512954248162,
44.75,45.0,41,0.0,Stimuli/Blank.png,0,0,0.0,0,82,82,82,,,,,,,,,,,,,44.75687839999591,0.006878399995912332,None,,80.01294339999731,80.01294339999731,80.01294339999731,80.01294339999731,80.01294339999731,80.01294339999731,80.01294339999731,80.01294339999731,80.01294339999731,80.01294339999731,002,P018,2025_Mar_07_1751,ConditionRich,2021.2.3,59.92512954248162,
45.0,45.75,39,0.75,Stimuli/P018/things_veil_09s.jpg,0,0,0.0,0,83,83,83,,,,,,,,,,,,,45.0061929999938,0.006192999993800186,None,,80.2631590000019,80.2631590000019,80.2631590000019,80.2631590000019,80.2631590000019,80.2631590000019,80.2631590000019,80.2631590000019,80.2631590000019,80.2631590000019,002,P018,2025_Mar_07_1751,ConditionRich,2021.2.3,59.92512954248162,
45.75,46.0,41,0.0,Stimuli/Blank.png,0,0,0.0,0,84,84,84,,,,,,,,,,,,,45.757255499993335,0.007255499993334524,None,,81.0138231000019,81.0138231000019,81.0138231000019,81.0138231000019,81.0138231000019,81.0138231000019,81.0138231000019,81.0138231000019,81.0138231000019,81.0138231000019,002,P018,2025_Mar_07_1751,ConditionRich,2021.2.3,59.92512954248162,
46.0,46.75,39,0.75,Stimuli/P018/things_veil_09s.jpg,0,0,0.0,0,85,85,85,,,,,,,,,,,,,46.00753179999447,0.007531799994467292,None,,81.2807382999963,81.2807382999963,81.2807382999963,81.2807382999963,81.2807382999963,81.2807382999963,81.2807382999963,81.2807382999963,81.2807382999963,81.2807382999963,002,P018,2025_Mar_07_1751,ConditionRich,2021.2.3,59.92512954248162,
46.75,47.0,41,0.0,Stimuli/Blank.png,0,0,0.0,0,86,86,86,,,,,,,,,,,,,46.775019599997904,0.02501959999790415,None,,82.03138690000196,82.03138690000196,82.03138690000196,82.03138690000196,82.03138690000196,82.03138690000196,82.03138690000196,82.03138690000196,82.03138690000196,82.03138690000196,002,P018,2025_Mar_07_1751,ConditionRich,2021.2.3,59.92512954248162,
47.0,47.75,39,0.75,Stimuli/P018/things_veil_09s.jpg,0,0,0.0,0,87,87,87,,,,,,,,,,,,,47.00861249999434,0.008612499994342215,None,,82.26494329999696,82.26494329999696,82.26494329999696,82.26494329999696,82.26494329999696,82.26494329999696,82.26494329999696,82.26494329999696,82.26494329999696,82.26494329999696,002,P018,2025_Mar_07_1751,ConditionRich,2021.2.3,59.92512954248162,
47.75,48.0,41,0.0,Stimuli/Blank.png,0,0,0.0,0,88,88,88,,,,,,,,,,,,,47.7593665999957,0.009366599995701108,None,,83.01559009999619,83.01559009999619,83.01559009999619,83.01559009999619,83.01559009999619,83.01559009999619,83.01559009999619,83.01559009999619,83.01559009999619,83.01559009999619,002,P018,2025_Mar_07_1751,ConditionRich,2021.2.3,59.92512954248162,
48.0,48.75,1,0.75,Stimuli/P018/sun_aawmwfqqbzauhqkb.jpg,0,0,0.0,0,89,89,89,,,,,,,,,,,,,48.010589899997285,0.010589899997285102,None,,83.26628389999678,83.26628389999678,83.26628389999678,83.26628389999678,83.26628389999678,83.26628389999678,83.26628389999678,83.26628389999678,83.26628389999678,83.26628389999678,002,P018,2025_Mar_07_1751,ConditionRich,2021.2.3,59.92512954248162,
48.75,49.0,41,0.0,Stimuli/Blank.png,0,0,0.0,0,90,90,90,,,,,,,,,,,,,48.76052259999415,0.01052259999414673,None,,84.01647460000095,84.01647460000095,84.01647460000095,84.01647460000095,84.01647460000095,84.01647460000095,84.01647460000095,84.01647460000095,84.01647460000095,84.01647460000095,002,P018,2025_Mar_07_1751,ConditionRich,2021.2.3,59.92512954248162,
49.0,49.75,1,0.75,Stimuli/P018/sun_aawmwfqqbzauhqkb.jpg,0,0,0.0,0,91,91,91,,,,,,,,,,,,,49.010456500000146,0.010456500000145752,None,,84.26670410000224,84.26670410000224,84.26670410000224,84.26670410000224,84.26670410000224,84.26670410000224,84.26670410000224,84.26670410000224,84.26670410000224,84.26670410000224,002,P018,2025_Mar_07_1751,ConditionRich,2021.2.3,59.92512954248162,
49.75,50.0,41,0.0,Stimuli/Blank.png,0,0,0.0,0,92,92,92,,,,,,,,,,,,,49.76045979999617,0.01045979999616975,None,,85.01736140000139,85.01736140000139,85.01736140000139,85.01736140000139,85.01736140000139,85.01736140000139,85.01736140000139,85.01736140000139,85.01736140000139,85.01736140000139,002,P018,2025_Mar_07_1751,ConditionRich,2021.2.3,59.92512954248162,
50.0,50.75,1,0.75,Stimuli/P018/sun_aawmwfqqbzauhqkb.jpg,0,0,0.0,0,93,93,93,,,,,,,,,,,,,50.01143079999747,0.011430799997469876,None,,85.26758690000133,85.26758690000133,85.26758690000133,85.26758690000133,85.26758690000133,85.26758690000133,85.26758690000133,85.26758690000133,85.26758690000133,85.26758690000133,002,P018,2025_Mar_07_1751,ConditionRich,2021.2.3,59.92512954248162,
50.75,51.0,41,0.0,Stimuli/Blank.png,0,0,0.0,0,94,94,94,,,,,,,,,,,,,50.76293489999807,0.01293489999807207,None,,86.01827269999922,86.01827269999922,86.01827269999922,86.01827269999922,86.01827269999922,86.01827269999922,86.01827269999922,86.01827269999922,86.01827269999922,86.01827269999922,002,P018,2025_Mar_07_1751,ConditionRich,2021.2.3,59.92512954248162,
51.0,51.75,1,0.75,Stimuli/P018/sun_aawmwfqqbzauhqkb.jpg,0,0,0.0,0,95,95,95,,,,,,,,,,,,,51.011484999995446,0.011484999995445833,None,,86.2851509999964,86.2851509999964,86.2851509999964,86.2851509999964,86.2851509999964,86.2851509999964,86.2851509999964,86.2851509999964,86.2851509999964,86.2851509999964,002,P018,2025_Mar_07_1751,ConditionRich,2021.2.3,59.92512954248162,
51.75,52.0,41,0.0,Stimuli/Blank.png,0,0,0.0,0,96,96,96,,,,,,,,,,,,,51.77904589999525,0.02904589999525342,None,,87.03581799999665,87.03581799999665,87.03581799999665,87.03581799999665,87.03581799999665,87.03581799999665,87.03581799999665,87.03581799999665,87.03581799999665,87.03581799999665,002,P018,2025_Mar_07_1751,ConditionRich,2021.2.3,59.92512954248162,
52.0,52.75,15,0.75,Stimuli/P018/sun_bobznlnnzwznersx.jpg,0,0,0.0,0,97,97,97,,,,,,,,,,,,,52.012427800000296,0.012427800000295974,None,,87.28603979999752,87.28603979999752,87.28603979999752,87.28603979999752,87.28603979999752,87.28603979999752,87.28603979999752,87.28603979999752,87.28603979999752,87.28603979999752,002,P018,2025_Mar_07_1751,ConditionRich,2021.2.3,59.92512954248162,
52.75,53.0,41,0.0,Stimuli/Blank.png,0,0,0.0,0,98,98,98,,,,,,,,,,,,,52.780381199998374,0.03038119999837363,None,,88.03670289999718,88.03670289999718,88.03670289999718,88.03670289999718,88.03670289999718,88.03670289999718,88.03670289999718,88.03670289999718,88.03670289999718,88.03670289999718,002,P018,2025_Mar_07_1751,ConditionRich,2021.2.3,59.92512954248162,
53.0,53.75,15,0.75,Stimuli/P018/sun_bobznlnnzwznersx.jpg,0,0,0.0,0,99,99,99,,,,,,,,,,,,,53.01407659999677,0.0140765999967698,None,,88.286924,88.286924,88.286924,88.286924,88.286924,88.286924,88.286924,88.286924,88.286924,88.286924,002,P018,2025_Mar_07_1751,ConditionRich,2021.2.3,59.92512954248162,
53.75,54.0,41,0.0,Stimuli/Blank.png,0,0,0.0,0,100,100,100,,,,,,,,,,,,,53.78158409999742,0.03158409999741707,None,,89.03759159999754,89.03759159999754,89.03759159999754,89.03759159999754,89.03759159999754,89.03759159999754,89.03759159999754,89.03759159999754,89.03759159999754,89.03759159999754,002,P018,2025_Mar_07_1751,ConditionRich,2021.2.3,59.92512954248162,
54.0,54.75,15,0.75,Stimuli/P018/sun_bobznlnnzwznersx.jpg,0,0,0.0,0,101,101,101,,,,,,,,,,,,,54.014944199996535,0.014944199996534735,None,,89.27117449999787,89.27117449999787,89.27117449999787,89.27117449999787,89.27117449999787,89.27117449999787,89.27117449999787,89.27117449999787,89.27117449999787,89.27117449999787,002,P018,2025_Mar_07_1751,ConditionRich,2021.2.3,59.92512954248162,
54.75,55.0,41,0.0,Stimuli/Blank.png,0,0,0.0,0,102,102,102,,,,,,,,,,,,,54.76552179999999,0.015521799999987707,None,,90.02179969999997,90.02179969999997,90.02179969999997,90.02179969999997,90.02179969999997,90.02179969999997,90.02179969999997,90.02179969999997,90.02179969999997,90.02179969999997,002,P018,2025_Mar_07_1751,ConditionRich,2021.2.3,59.92512954248162,
55.0,55.75,15,0.75,Stimuli/P018/sun_bobznlnnzwznersx.jpg,0,0,0.0,0,103,103,103,,,,,,,,,,,,,54.99931719999586,-0.0006828000041423365,None,,90.25535300000047,90.25535300000047,90.25535300000047,90.25535300000047,90.25535300000047,90.25535300000047,90.25535300000047,90.25535300000047,90.25535300000047,90.25535300000047,002,P018,2025_Mar_07_1751,ConditionRich,2021.2.3,59.92512954248162,
55.75,56.0,41,0.0,Stimuli/Blank.png,0,0,0.0,0,104,104,104,,,,,,,,,,,,,55.75023439999495,0.00023439999495167285,None,,91.00599720000173,91.00599720000173,91.00599720000173,91.00599720000173,91.00599720000173,91.00599720000173,91.00599720000173,91.00599720000173,91.00599720000173,91.00599720000173,002,P018,2025_Mar_07_1751,ConditionRich,2021.2.3,59.92512954248162,
56.0,56.75,19,0.75,Stimuli/P018/sun_brrwzaypucosdcgt.jpg,1,0,0.75,0,105,105,105,,,,,,,,,,,,,55.99950269999681,-0.0004973000031895936,2,0.5413686999963829,91.25620350000099,91.25620350000099,91.25620350000099,91.25620350000099,91.25620350000099,91.25620350000099,91.25620350000099,91.99019540000154,91.25620350000099,91.25620350000099,002,P018,2025_Mar_07_1751,ConditionRich,2021.2.3,59.92512954248162,
56.75,57.0,41,0.0,Stimuli/Blank.png,0,0,0.0,0,106,106,106,,,,,,,,,,,,,56.75000100000034,1.0000003385357559e-06,None,,92.0068689999971,92.0068689999971,92.0068689999971,92.0068689999971,92.0068689999971,92.0068689999971,92.0068689999971,92.0068689999971,92.0068689999971,92.0068689999971,002,P018,2025_Mar_07_1751,ConditionRich,2021.2.3,59.92512954248162,
57.0,57.75,19,0.75,Stimuli/P018/sun_brrwzaypucosdcgt.jpg,0,0,0.0,0,107,107,107,,,,,,,,,,,,,57.00021559999732,0.00021559999731834978,None,,92.25709559999814,92.25709559999814,92.25709559999814,92.25709559999814,92.25709559999814,92.25709559999814,92.25709559999814,92.25709559999814,92.25709559999814,92.25709559999814,002,P018,2025_Mar_07_1751,ConditionRich,2021.2.3,59.92512954248162,
57.75,58.0,41,0.0,Stimuli/Blank.png,0,0,0.0,0,108,108,108,,,,,,,,,,,,,57.75070589999814,0.000705899998138193,None,,93.00775430000067,93.00775430000067,93.00775430000067,93.00775430000067,93.00775430000067,93.00775430000067,93.00775430000067,93.00775430000067,93.00775430000067,93.00775430000067,002,P018,2025_Mar_07_1751,ConditionRich,2021.2.3,59.92512954248162,
58.0,58.75,19,0.75,Stimuli/P018/sun_brrwzaypucosdcgt.jpg,0,0,0.0,0,109,109,109,,,,,,,,,,,,,58.00114709999616,0.0011470999961602502,None,,93.2579837000012,93.2579837000012,93.2579837000012,93.2579837000012,93.2579837000012,93.2579837000012,93.2579837000012,93.2579837000012,93.2579837000012,93.2579837000012,002,P018,2025_Mar_07_1751,ConditionRich,2021.2.3,59.92512954248162,
58.75,59.0,41,0.0,Stimuli/Blank.png,0,0,0.0,0,110,110,110,,,,,,,,,,,,,58.75234819999605,0.002348199996049516,None,,94.00864159999765,94.00864159999765,94.00864159999765,94.00864159999765,94.00864159999765,94.00864159999765,94.00864159999765,94.00864159999765,94.00864159999765,94.00864159999765,002,P018,2025_Mar_07_1751,ConditionRich,2021.2.3,59.92512954248162,
59.0,59.75,19,0.75,Stimuli/P018/sun_brrwzaypucosdcgt.jpg,0,0,0.0,0,111,111,111,,,,,,,,,,,,,59.00182729999506,0.0018272999950568192,None,,94.25886860000173,94.25886860000173,94.25886860000173,94.25886860000173,94.25886860000173,94.25886860000173,94.25886860000173,94.25886860000173,94.25886860000173,94.25886860000173,002,P018,2025_Mar_07_1751,ConditionRich,2021.2.3,59.92512954248162,
59.75,60.0,41,0.0,Stimuli/Blank.png,0,0,0.0,0,112,112,112,,,,,,,,,,,,,59.754816000000574,0.004816000000573695,None,,95.00955059999978,95.00955059999978,95.00955059999978,95.00955059999978,95.00955059999978,95.00955059999978,95.00955059999978,95.00955059999978,95.00955059999978,95.00955059999978,002,P018,2025_Mar_07_1751,ConditionRich,2021.2.3,59.92512954248162,
60.0,60.75,38,0.75,Stimuli/P018/things_pony_09s.jpg,1,0,0.75,0,113,113,113,,,,,,,,,,,,,60.00313869999809,0.003138699998089578,None,,95.25974860000133,95.25974860000133,95.25974860000133,95.25974860000133,95.25974860000133,95.25974860000133,95.25974860000133,95.99372779999976,95.25974860000133,95.25974860000133,002,P018,2025_Mar_07_1751,ConditionRich,2021.2.3,59.92512954248162,
60.75,61.0,41,0.0,Stimuli/Blank.png,0,0,0.0,0,114,114,114,,,,,,,,,,,,,60.754306499999075,0.004306499999074731,None,,96.01041979999718,96.01041979999718,96.01041979999718,96.01041979999718,96.01041979999718,96.01041979999718,96.01041979999718,96.01041979999718,96.01041979999718,96.01041979999718,002,P018,2025_Mar_07_1751,ConditionRich,2021.2.3,59.92512954248162,
61.0,61.75,38,0.75,Stimuli/P018/things_pony_09s.jpg,0,0,0.0,0,115,115,115,,,,,,,,,,,,,61.004898799998045,0.004898799998045433,None,,96.27731449999555,96.27731449999555,96.27731449999555,96.27731449999555,96.27731449999555,96.27731449999555,96.27731449999555,96.27731449999555,96.27731449999555,96.27731449999555,002,P018,2025_Mar_07_1751,ConditionRich,2021.2.3,59.92512954248162,
61.75,62.0,41,0.0,Stimuli/Blank.png,0,0,0.0,0,116,116,116,,,,,,,,,,,,,61.77123669999855,0.021236699998553377,None,,97.02798199999961,97.02798199999961,97.02798199999961,97.02798199999961,97.02798199999961,97.02798199999961,97.02798199999961,97.02798199999961,97.02798199999961,97.02798199999961,002,P018,2025_Mar_07_1751,ConditionRich,2021.2.3,59.92512954248162,
62.0,62.75,38,0.75,Stimuli/P018/things_pony_09s.jpg,0,0,0.0,0,117,117,117,,,,,,,,,,,,,62.00491929999407,0.00491929999407148,None,,97.2615181000001,97.2615181000001,97.2615181000001,97.2615181000001,97.2615181000001,97.2615181000001,97.2615181000001,97.2615181000001,97.2615181000001,97.2615181000001,002,P018,2025_Mar_07_1751,ConditionRich,2021.2.3,59.92512954248162,
62.75,63.0,41,0.0,Stimuli/Blank.png,0,0,0.0,0,118,118,118,,,,,,,,,,,,,62.755972899998596,0.005972899998596404,None,,98.01217899999756,98.01217899999756,98.01217899999756,98.01217899999756,98.01217899999756,98.01217899999756,98.01217899999756,98.01217899999756,98.01217899999756,98.01217899999756,002,P018,2025_Mar_07_1751,ConditionRich,2021.2.3,59.92512954248162,
63.0,63.75,38,0.75,Stimuli/P018/things_pony_09s.jpg,0,0,0.0,0,119,119,119,,,,,,,,,,,,,63.00555959999474,0.005559599994739983,None,,98.26240749999852,98.26240749999852,98.26240749999852,98.26240749999852,98.26240749999852,98.26240749999852,98.26240749999852,98.26240749999852,98.26240749999852,98.26240749999852,002,P018,2025_Mar_07_1751,ConditionRich,2021.2.3,59.92512954248162,
63.75,64.0,41,0.0,Stimuli/Blank.png,0,0,0.0,0,120,120,120,,,,,,,,,,,,,63.75599510000029,0.0059951000002911314,None,,99.01307049999741,99.01307049999741,99.01307049999741,99.01307049999741,99.01307049999741,99.01307049999741,99.01307049999741,99.01307049999741,99.01307049999741,99.01307049999741,002,P018,2025_Mar_07_1751,ConditionRich,2021.2.3,59.92512954248162,
64.0,64.75,21,0.75,Stimuli/P018/things_baby_09s.jpg,0,0,0.0,0,121,121,121,,,,,,,,,,,,,64.00625020000007,0.006250200000067707,None,,99.26329149999947,99.26329149999947,99.26329149999947,99.26329149999947,99.26329149999947,99.26329149999947,99.26329149999947,99.26329149999947,99.26329149999947,99.26329149999947,002,P018,2025_Mar_07_1751,ConditionRich,2021.2.3,59.92512954248162,
64.75,65.0,41,0.0,Stimuli/Blank.png,0,0,0.0,0,122,122,122,,,,,,,,,,,,,64.75991149999754,0.009911499997542705,None,,100.03065889999561,100.03065889999561,100.03065889999561,100.03065889999561,100.03065889999561,100.03065889999561,100.03065889999561,100.03065889999561,100.03065889999561,100.03065889999561,002,P018,2025_Mar_07_1751,ConditionRich,2021.2.3,59.92512954248162,
65.0,65.75,21,0.75,Stimuli/P018/things_baby_09s.jpg,0,0,0.0,0,123,123,123,,,,,,,,,,,,,65.02406199999677,0.02406199999677483,None,,100.2808475999991,100.2808475999991,100.2808475999991,100.2808475999991,100.2808475999991,100.2808475999991,100.2808475999991,100.2808475999991,100.2808475999991,100.2808475999991,002,P018,2025_Mar_07_1751,ConditionRich,2021.2.3,59.92512954248162,
65.75,66.0,41,0.0,Stimuli/Blank.png,0,0,0.0,0,124,124,124,,,,,,,,,,,,,65.75910949999525,0.009109499995247461,None,,101.0148429999972,101.0148429999972,101.0148429999972,101.0148429999972,101.0148429999972,101.0148429999972,101.0148429999972,101.0148429999972,101.0148429999972,101.0148429999972,002,P018,2025_Mar_07_1751,ConditionRich,2021.2.3,59.92512954248162,
66.0,66.75,21,0.75,Stimuli/P018/things_baby_09s.jpg,0,0,0.0,0,125,125,125,,,,,,,,,,,,,66.00898929999676,0.008989299996756017,None,,101.2656621999995,101.2656621999995,101.2656621999995,101.2656621999995,101.2656621999995,101.2656621999995,101.2656621999995,101.2656621999995,101.2656621999995,101.2656621999995,002,P018,2025_Mar_07_1751,ConditionRich,2021.2.3,59.92512954248162,
66.75,67.0,41,0.0,Stimuli/Blank.png,0,0,0.0,0,126,126,126,,,,,,,,,,,,,66.75935499999468,0.009354999994684476,None,,102.01572979999764,102.01572979999764,102.01572979999764,102.01572979999764,102.01572979999764,102.01572979999764,102.01572979999764,102.01572979999764,102.01572979999764,102.01572979999764,002,P018,2025_Mar_07_1751,ConditionRich,2021.2.3,59.92512954248162,
67.0,67.75,21,0.75,Stimuli/P018/things_baby_09s.jpg,0,0,0.0,0,127,127,127,,,,,,,,,,,,,67.0096424000003,0.009642400000302587,None,,102.26594659999682,102.26594659999682,102.26594659999682,102.26594659999682,102.26594659999682,102.26594659999682,102.26594659999682,102.26594659999682,102.26594659999682,102.26594659999682,002,P018,2025_Mar_07_1751,ConditionRich,2021.2.3,59.92512954248162,
67.75,68.0,41,0.0,Stimuli/Blank.png,0,0,0.0,0,128,128,128,,,,,,,,,,,,,67.76062049999746,0.010620499997457955,None,,103.03331510000135,103.03331510000135,103.03331510000135,103.03331510000135,103.03331510000135,103.03331510000135,103.03331510000135,103.03331510000135,103.03331510000135,103.03331510000135,002,P018,2025_Mar_07_1751,ConditionRich,2021.2.3,59.92512954248162,
68.0,68.75,40,0.75,Stimuli/P018/things_woman_09s.jpg,0,0,0.0,0,129,129,129,,,,,,,,,,,,,68.02789459999622,0.02789459999621613,None,,103.30018579999887,103.30018579999887,103.30018579999887,103.30018579999887,103.30018579999887,103.30018579999887,103.30018579999887,103.30018579999887,103.30018579999887,103.30018579999887,002,P018,2025_Mar_07_1751,ConditionRich,2021.2.3,59.92512954248162,
68.75,69.0,41,0.0,Stimuli/Blank.png,0,0,0.0,0,130,130,130,,,,,,,,,,,,,68.77982949999569,0.029829499995685183,None,,104.05086070000107,104.05086070000107,104.05086070000107,104.05086070000107,104.05086070000107,104.05086070000107,104.05086070000107,104.05086070000107,104.05086070000107,104.05086070000107,002,P018,2025_Mar_07_1751,ConditionRich,2021.2.3,59.92512954248162,
69.0,69.75,40,0.75,Stimuli/P018/things_woman_09s.jpg,0,0,0.0,0,131,131,131,,,,,,,,,,,,,69.03004739999596,0.030047399995964952,None,,104.30108689999906,104.30108689999906,104.30108689999906,104.30108689999906,104.30108689999906,104.30108689999906,104.30108689999906,104.30108689999906,104.30108689999906,104.30108689999906,002,P018,2025_Mar_07_1751,ConditionRich,2021.2.3,59.92512954248162,
69.75,70.0,41,0.0,Stimuli/Blank.png,0,0,0.0,0,132,132,132,,,,,,,,,,,,,69.7805045999994,0.03050459999940358,None,,105.05175359999703,105.05175359999703,105.05175359999703,105.05175359999703,105.05175359999703,105.05175359999703,105.05175359999703,105.05175359999703,105.05175359999703,105.05175359999703,002,P018,2025_Mar_07_1751,ConditionRich,2021.2.3,59.92512954248162,
70.0,70.75,40,0.75,Stimuli/P018/things_woman_09s.jpg,0,0,0.0,0,133,133,133,,,,,,,,,,,,,70.03095579999354,0.030955799993535038,None,,105.30196299999807,105.30196299999807,105.30196299999807,105.30196299999807,105.30196299999807,105.30196299999807,105.30196299999807,105.30196299999807,105.30196299999807,105.30196299999807,002,P018,2025_Mar_07_1751,ConditionRich,2021.2.3,59.92512954248162,
70.75,71.0,41,0.0,Stimuli/Blank.png,0,0,0.0,0,134,134,134,,,,,,,,,,,,,70.78053439999348,0.03053439999348484,None,,106.03594280000107,106.03594280000107,106.03594280000107,106.03594280000107,106.03594280000107,106.03594280000107,106.03594280000107,106.03594280000107,106.03594280000107,106.03594280000107,002,P018,2025_Mar_07_1751,ConditionRich,2021.2.3,59.92512954248162,
71.0,71.75,40,0.75,Stimuli/P018/things_woman_09s.jpg,0,0,0.0,0,135,135,135,,,,,,,,,,,,,71.01258019999659,0.012580199996591546,None,,106.26948840000114,106.26948840000114,106.26948840000114,106.26948840000114,106.26948840000114,106.26948840000114,106.26948840000114,106.26948840000114,106.26948840000114,106.26948840000114,002,P018,2025_Mar_07_1751,ConditionRich,2021.2.3,59.92512954248162,
71.75,72.0,41,0.0,Stimuli/Blank.png,0,0,0.0,0,136,136,136,,,,,,,,,,,,,71.76626089999627,0.016260899996268563,None,,107.03683379999711,107.03683379999711,107.03683379999711,107.03683379999711,107.03683379999711,107.03683379999711,107.03683379999711,107.03683379999711,107.03683379999711,107.03683379999711,002,P018,2025_Mar_07_1751,ConditionRich,2021.2.3,59.92512954248162,
72.0,72.75,11,0.75,Stimuli/P018/sun_bdzxsadvniuolmio.jpg,0,0,0.0,0,137,137,137,,,,,,,,,,,,,72.01397699999507,0.013976999995065853,None,,107.27036159999989,107.27036159999989,107.27036159999989,107.27036159999989,107.27036159999989,107.27036159999989,107.27036159999989,107.27036159999989,107.27036159999989,107.27036159999989,002,P018,2025_Mar_07_1751,ConditionRich,2021.2.3,59.92512954248162,
72.75,73.0,41,0.0,Stimuli/Blank.png,0,0,0.0,0,138,138,138,,,,,,,,,,,,,72.76469319999887,0.014693199998873752,None,,108.02103350000107,108.02103350000107,108.02103350000107,108.02103350000107,108.02103350000107,108.02103350000107,108.02103350000107,108.02103350000107,108.02103350000107,108.02103350000107,002,P018,2025_Mar_07_1751,ConditionRich,2021.2.3,59.92512954248162,
73.0,73.75,11,0.75,Stimuli/P018/sun_bdzxsadvniuolmio.jpg,0,0,0.0,0,139,139,139,,,,,,,,,,,,,73.01587179999478,0.01587179999478394,None,,108.2879385999986,108.2879385999986,108.2879385999986,108.2879385999986,108.2879385999986,108.2879385999986,108.2879385999986,108.2879385999986,108.2879385999986,108.2879385999986,002,P018,2025_Mar_07_1751,ConditionRich,2021.2.3,59.92512954248162,
73.75,74.0,41,0.0,Stimuli/Blank.png,0,0,0.0,0,140,140,140,,,,,,,,,,,,,73.76545709999482,0.015457099994819146,None,,109.02191999999923,109.02191999999923,109.02191999999923,109.02191999999923,109.02191999999923,109.02191999999923,109.02191999999923,109.02191999999923,109.02191999999923,109.02191999999923,002,P018,2025_Mar_07_1751,ConditionRich,2021.2.3,59.92512954248162,
74.0,74.75,11,0.75,Stimuli/P018/sun_bdzxsadvniuolmio.jpg,0,0,0.0,0,141,141,141,,,,,,,,,,,,,74.0156771999973,0.015677199997298885,None,,109.27217879999807,109.27217879999807,109.27217879999807,109.27217879999807,109.27217879999807,109.27217879999807,109.27217879999807,109.27217879999807,109.27217879999807,109.27217879999807,002,P018,2025_Mar_07_1751,ConditionRich,2021.2.3,59.92512954248162,
74.75,75.0,41,0.0,Stimuli/Blank.png,0,0,0.0,0,142,142,142,,,,,,,,,,,,,74.75057399999787,0.0005739999978686683,None,,110.0061218999981,110.0061218999981,110.0061218999981,110.0061218999981,110.0061218999981,110.0061218999981,110.0061218999981,110.0061218999981,110.0061218999981,110.0061218999981,002,P018,2025_Mar_07_1751,ConditionRich,2021.2.3,59.92512954248162,
75.0,75.75,11,0.75,Stimuli/P018/sun_bdzxsadvniuolmio.jpg,1,0,0.75,0,143,143,143,,,,,,,,,,,,,74.99929789999442,-0.0007021000055829063,2,0.5143048000027193,110.25630409999576,110.25630409999576,110.25630409999576,110.25630409999576,110.25630409999576,110.25630409999576,110.25630409999576,110.990326799998,110.25630409999576,110.25630409999576,002,P018,2025_Mar_07_1751,ConditionRich,2021.2.3,59.92512954248162,
75.75,76.0,41,0.0,Stimuli/Blank.png,0,0,0.0,0,144,144,144,,,,,,,,,,,,,75.75048830000014,0.0004883000001427718,None,,111.00700169999618,111.00700169999618,111.00700169999618,111.00700169999618,111.00700169999618,111.00700169999618,111.00700169999618,111.00700169999618,111.00700169999618,111.00700169999618,002,P018,2025_Mar_07_1751,ConditionRich,2021.2.3,59.92512954248162,
76.0,76.75,16,0.75,Stimuli/P018/sun_brfwxjsnmauhmfzf.jpg,0,0,0.0,0,145,145,145,,,,,,,,,,,,,76.00026329999673,0.0002632999967318028,None,,111.25722230000247,111.25722230000247,111.25722230000247,111.25722230000247,111.25722230000247,111.25722230000247,111.25722230000247,111.25722230000247,111.25722230000247,111.25722230000247,002,P018,2025_Mar_07_1751,ConditionRich,2021.2.3,59.92512954248162,
76.75,77.0,41,0.0,Stimuli/Blank.png,0,0,0.0,0,146,146,146,,,,,,,,,,,,,76.75091629999952,0.000916299999516923,None,,112.00788479999756,112.00788479999756,112.00788479999756,112.00788479999756,112.00788479999756,112.00788479999756,112.00788479999756,112.00788479999756,112.00788479999756,112.00788479999756,002,P018,2025_Mar_07_1751,ConditionRich,2021.2.3,59.92512954248162,
77.0,77.75,16,0.75,Stimuli/P018/sun_brfwxjsnmauhmfzf.jpg,0,0,0.0,0,147,147,147,,,,,,,,,,,,,77.00181389999489,0.0018138999948860146,None,,112.25811129999784,112.25811129999784,112.25811129999784,112.25811129999784,112.25811129999784,112.25811129999784,112.25811129999784,112.25811129999784,112.25811129999784,112.25811129999784,002,P018,2025_Mar_07_1751,ConditionRich,2021.2.3,59.92512954248162,
77.75,78.0,41,0.0,Stimuli/Blank.png,0,0,0.0,0,148,148,148,,,,,,,,,,,,,77.7531239999953,0.0031239999952958897,None,,113.0087865999958,113.0087865999958,113.0087865999958,113.0087865999958,113.0087865999958,113.0087865999958,113.0087865999958,113.0087865999958,113.0087865999958,113.0087865999958,002,P018,2025_Mar_07_1751,ConditionRich,2021.2.3,59.92512954248162,
78.0,78.75,16,0.75,Stimuli/P018/sun_brfwxjsnmauhmfzf.jpg,0,0,0.0,0,149,149,149,,,,,,,,,,,,,78.0027981999956,0.002798199995595496,None,,113.27567669999553,113.27567669999553,113.27567669999553,113.27567669999553,113.27567669999553,113.27567669999553,113.27567669999553,113.27567669999553,113.27567669999553,113.27567669999553,002,P018,2025_Mar_07_1751,ConditionRich,2021.2.3,59.92512954248162,
78.75,79.0,41,0.0,Stimuli/Blank.png,0,0,0.0,0,150,150,150,,,,,,,,,,,,,78.77004719999968,0.020047199999680743,None,,114.02634299999772,114.02634299999772,114.02634299999772,114.02634299999772,114.02634299999772,114.02634299999772,114.02634299999772,114.02634299999772,114.02634299999772,114.02634299999772,002,P018,2025_Mar_07_1751,ConditionRich,2021.2.3,59.92512954248162,
79.0,79.75,16,0.75,Stimuli/P018/sun_brfwxjsnmauhmfzf.jpg,0,0,0.0,0,151,151,151,,,,,,,,,,,,,79.00489389999711,0.004893899997114204,None,,114.27655799999775,114.27655799999775,114.27655799999775,114.27655799999775,114.27655799999775,114.27655799999775,114.27655799999775,114.27655799999775,114.27655799999775,114.27655799999775,002,P018,2025_Mar_07_1751,ConditionRich,2021.2.3,59.92512954248162,
79.75,80.0,41,0.0,Stimuli/Blank.png,0,0,0.0,0,152,152,152,,,,,,,,,,,,,79.77043919999414,0.020439199994143564,None,,115.02722659999563,115.02722659999563,115.02722659999563,115.02722659999563,115.02722659999563,115.02722659999563,115.02722659999563,115.02722659999563,115.02722659999563,115.02722659999563,002,P018,2025_Mar_07_1751,ConditionRich,2021.2.3,59.92512954248162,
80.0,80.75,12,0.75,Stimuli/P018/sun_bhvaiabdgxjuwoth.jpg,0,0,0.0,0,153,153,153,,,,,,,,,,,,,80.00396139999793,0.003961399997933768,None,,115.26076150000154,115.26076150000154,115.26076150000154,115.26076150000154,115.26076150000154,115.26076150000154,115.26076150000154,115.26076150000154,115.26076150000154,115.26076150000154,002,P018,2025_Mar_07_1751,ConditionRich,2021.2.3,59.92512954248162,
80.75,81.0,41,0.0,Stimuli/Blank.png,0,0,0.0,0,154,154,154,,,,,,,,,,,,,80.75552079999761,0.005520799997611903,None,,116.01144609999756,116.01144609999756,116.01144609999756,116.01144609999756,116.01144609999756,116.01144609999756,116.01144609999756,116.01144609999756,116.01144609999756,116.01144609999756,002,P018,2025_Mar_07_1751,ConditionRich,2021.2.3,59.92512954248162,
81.0,81.75,12,0.75,Stimuli/P018/sun_bhvaiabdgxjuwoth.jpg,0,0,0.0,0,155,155,155,,,,,,,,,,,,,81.00595629999589,0.005956299995887093,None,,116.27834119999898,116.27834119999898,116.27834119999898,116.27834119999898,116.27834119999898,116.27834119999898,116.27834119999898,116.27834119999898,116.27834119999898,116.27834119999898,002,P018,2025_Mar_07_1751,ConditionRich,2021.2.3,59.92512954248162,
81.75,82.0,41,0.0,Stimuli/Blank.png,0,0,0.0,0,156,156,156,,,,,,,,,,,,,81.77247009999701,0.02247009999700822,None,,117.02900000000227,117.02900000000227,117.02900000000227,117.02900000000227,117.02900000000227,117.02900000000227,117.02900000000227,117.02900000000227,117.02900000000227,117.02900000000227,002,P018,2025_Mar_07_1751,ConditionRich,2021.2.3,59.92512954248162,
82.0,82.75,12,0.75,Stimuli/P018/sun_bhvaiabdgxjuwoth.jpg,0,0,0.0,0,157,157,157,,,,,,,,,,,,,82.00596659999428,0.005966599994280841,None,,117.26253189999989,117.26253189999989,117.26253189999989,117.26253189999989,117.26253189999989,117.26253189999989,117.26253189999989,117.26253189999989,117.26253189999989,117.26253189999989,002,P018,2025_Mar_07_1751,ConditionRich,2021.2.3,59.92512954248162,
82.75,83.0,41,0.0,Stimuli/Blank.png,0,0,0.0,0,158,158,158,,,,,,,,,,,,,82.75717209999857,0.007172099998570047,None,,118.01319820000208,118.01319820000208,118.01319820000208,118.01319820000208,118.01319820000208,118.01319820000208,118.01319820000208,118.01319820000208,118.01319820000208,118.01319820000208,002,P018,2025_Mar_07_1751,ConditionRich,2021.2.3,59.92512954248162,
83.0,83.75,12,0.75,Stimuli/P018/sun_bhvaiabdgxjuwoth.jpg,0,0,0.0,0,159,159,159,,,,,,,,,,,,,83.00641469999391,0.006414699993911199,None,,118.2634160000016,118.2634160000016,118.2634160000016,118.2634160000016,118.2634160000016,118.2634160000016,118.2634160000016,118.2634160000016,118.2634160000016,118.2634160000016,002,P018,2025_Mar_07_1751,ConditionRich,2021.2.3,59.92512954248162,
83.75,84.0,41,0.0,Stimuli/Blank.png,0,0,0.0,0,160,160,160,,,,,,,,,,,,,83.75970369999413,0.009703699994133785,None,,119.03077800000028,119.03077800000028,119.03077800000028,119.03077800000028,119.03077800000028,119.03077800000028,119.03077800000028,119.03077800000028,119.03077800000028,119.03077800000028,002,P018,2025_Mar_07_1751,ConditionRich,2021.2.3,59.92512954248162,
84.0,100.0,0,0.0,Stimuli/Blank.png,1,11,11.75,0,161,161,161,,,,,,,,,,,,,84.02471059999516,0.02471059999516001,2,11.346588400003384,119.28098469999532,119.28098469999532,119.28098469999532,119.28098469999532,119.28098469999532,119.28098469999532,130.25734329999977,131.00808469999902,119.28098469999532,119.28098469999532,002,P018,2025_Mar_07_1751,ConditionRich,2021.2.3,59.92512954248162,
100.0,100.75,37,0.75,Stimuli/P018/things_plastic_film_09s.jpg,0,0,0.0,0,162,162,162,,,,,,,,,,,,,100.00526790000004,0.005267900000035297,None,,135.26177559999633,135.26177559999633,135.26177559999633,135.26177559999633,135.26177559999633,135.26177559999633,135.26177559999633,135.26177559999633,135.26177559999633,135.26177559999633,002,P018,2025_Mar_07_1751,ConditionRich,2021.2.3,59.92512954248162,
100.75,101.0,41,0.0,Stimuli/Blank.png,0,0,0.0,0,163,163,163,,,,,,,,,,,,,100.75585560000036,0.005855600000359118,None,,136.0124358999965,136.0124358999965,136.0124358999965,136.0124358999965,136.0124358999965,136.0124358999965,136.0124358999965,136.0124358999965,136.0124358999965,136.0124358999965,002,P018,2025_Mar_07_1751,ConditionRich,2021.2.3,59.92512954248162,
101.0,101.75,37,0.75,Stimuli/P018/things_plastic_film_09s.jpg,0,0,0.0,0,164,164,164,,,,,,,,,,,,,101.00571610000043,0.0057161000004271045,None,,136.26265659999626,136.26265659999626,136.26265659999626,136.26265659999626,136.26265659999626,136.26265659999626,136.26265659999626,136.26265659999626,136.26265659999626,136.26265659999626,002,P018,2025_Mar_07_1751,ConditionRich,2021.2.3,59.92512954248162,
101.75,102.0,41,0.0,Stimuli/Blank.png,0,0,0.0,0,165,165,165,,,,,,,,,,,,,101.7564859999984,0.006485999998403713,None,,137.01334289999795,137.01334289999795,137.01334289999795,137.01334289999795,137.01334289999795,137.01334289999795,137.01334289999795,137.01334289999795,137.01334289999795,137.01334289999795,002,P018,2025_Mar_07_1751,ConditionRich,2021.2.3,59.92512954248162,
102.0,102.75,37,0.75,Stimuli/P018/things_plastic_film_09s.jpg,0,0,0.0,0,166,166,166,,,,,,,,,,,,,102.00744969999505,0.007449699995049741,None,,137.28026030000183,137.28026030000183,137.28026030000183,137.28026030000183,137.28026030000183,137.28026030000183,137.28026030000183,137.28026030000183,137.28026030000183,137.28026030000183,002,P018,2025_Mar_07_1751,ConditionRich,2021.2.3,59.92512954248162,
102.75,103.0,41,0.0,Stimuli/Blank.png,0,0,0.0,0,167,167,167,,,,,,,,,,,,,102.7747287999955,0.024728799995500594,None,,138.03091069999937,138.03091069999937,138.03091069999937,138.03091069999937,138.03091069999937,138.03091069999937,138.03091069999937,138.03091069999937,138.03091069999937,138.03091069999937,002,P018,2025_Mar_07_1751,ConditionRich,2021.2.3,59.92512954248162,
103.0,103.75,37,0.75,Stimuli/P018/things_plastic_film_09s.jpg,0,0,0.0,0,168,168,168,,,,,,,,,,,,,103.01045949999389,0.010459499993885402,None,,138.28112449999753,138.28112449999753,138.28112449999753,138.28112449999753,138.28112449999753,138.28112449999753,138.28112449999753,138.28112449999753,138.28112449999753,138.28112449999753,002,P018,2025_Mar_07_1751,ConditionRich,2021.2.3,59.92512954248162,
103.75,104.0,41,0.0,Stimuli/Blank.png,0,0,0.0,0,169,169,169,,,,,,,,,,,,,103.7765744999997,0.026574499999696855,None,,139.0484651000006,139.0484651000006,139.0484651000006,139.0484651000006,139.0484651000006,139.0484651000006,139.0484651000006,139.0484651000006,139.0484651000006,139.0484651000006,002,P018,2025_Mar_07_1751,ConditionRich,2021.2.3,59.92512954248162,
104.0,104.75,6,0.75,Stimuli/P018/sun_atuyvunnykjurjgx.jpg,0,0,0.0,0,170,170,170,,,,,,,,,,,,,104.0258216000002,0.025821600000199396,None,,139.29870590000064,139.29870590000064,139.29870590000064,139.29870590000064,139.29870590000064,139.29870590000064,139.29870590000064,139.29870590000064,139.29870590000064,139.29870590000064,002,P018,2025_Mar_07_1751,ConditionRich,2021.2.3,59.92512954248162,
104.75,105.0,41,0.0,Stimuli/Blank.png,0,0,0.0,0,171,171,171,,,,,,,,,,,,,104.77627579999535,0.02627579999534646,None,,140.03265429999738,140.03265429999738,140.03265429999738,140.03265429999738,140.03265429999738,140.03265429999738,140.03265429999738,140.03265429999738,140.03265429999738,140.03265429999738,002,P018,2025_Mar_07_1751,ConditionRich,2021.2.3,59.92512954248162,
105.0,105.75,6,0.75,Stimuli/P018/sun_atuyvunnykjurjgx.jpg,0,0,0.0,0,172,172,172,,,,,,,,,,,,,105.01041049999913,0.010410499999125022,None,,140.26620309999998,140.26620309999998,140.26620309999998,140.26620309999998,140.26620309999998,140.26620309999998,140.26620309999998,140.26620309999998,140.26620309999998,140.26620309999998,002,P018,2025_Mar_07_1751,ConditionRich,2021.2.3,59.92512954248162,
105.75,106.0,41,0.0,Stimuli/Blank.png,0,0,0.0,0,173,173,173,,,,,,,,,,,,,105.76222979999875,0.012229799998749513,None,,141.033554499998,141.033554499998,141.033554499998,141.033554499998,141.033554499998,141.033554499998,141.033554499998,141.033554499998,141.033554499998,141.033554499998,002,P018,2025_Mar_07_1751,ConditionRich,2021.2.3,59.92512954248162,
106.0,106.75,6,0.75,Stimuli/P018/sun_atuyvunnykjurjgx.jpg,0,0,0.0,0,174,174,174,,,,,,,,,,,,,106.02686439999525,0.026864399995247368,None,,141.28376449999632,141.28376449999632,141.28376449999632,141.28376449999632,141.28376449999632,141.28376449999632,141.28376449999632,141.28376449999632,141.28376449999632,141.28376449999632,002,P018,2025_Mar_07_1751,ConditionRich,2021.2.3,59.92512954248162,
106.75,107.0,41,0.0,Stimuli/Blank.png,0,0,0.0,0,175,175,175,,,,,,,,,,,,,106.761439599999,0.011439599998993799,None,,142.01771619999636,142.01771619999636,142.01771619999636,142.01771619999636,142.01771619999636,142.01771619999636,142.01771619999636,142.01771619999636,142.01771619999636,142.01771619999636,002,P018,2025_Mar_07_1751,ConditionRich,2021.2.3,59.92512954248162,
107.0,107.75,6,0.75,Stimuli/P018/sun_atuyvunnykjurjgx.jpg,0,0,0.0,0,176,176,176,,,,,,,,,,,,,107.0116099999941,0.011609999994107056,None,,142.26800609999918,142.26800609999918,142.26800609999918,142.26800609999918,142.26800609999918,142.26800609999918,142.26800609999918,142.26800609999918,142.26800609999918,142.26800609999918,002,P018,2025_Mar_07_1751,ConditionRich,2021.2.3,59.92512954248162,
107.75,108.0,41,0.0,Stimuli/Blank.png,0,0,0.0,0,177,177,177,,,,,,,,,,,,,107.76165629999741,0.011656299997412134,None,,143.01862809999875,143.01862809999875,143.01862809999875,143.01862809999875,143.01862809999875,143.01862809999875,143.01862809999875,143.01862809999875,143.01862809999875,143.01862809999875,002,P018,2025_Mar_07_1751,ConditionRich,2021.2.3,59.92512954248162,
108.0,108.75,35,0.75,Stimuli/P018/things_lobster_09s.jpg,0,0,0.0,0,178,178,178,,,,,,,,,,,,,108.01190839999617,0.011908399996173102,None,,143.2855561999968,143.2855561999968,143.2855561999968,143.2855561999968,143.2855561999968,143.2855561999968,143.2855561999968,143.2855561999968,143.2855561999968,143.2855561999968,002,P018,2025_Mar_07_1751,ConditionRich,2021.2.3,59.92512954248162,
108.75,109.0,41,0.0,Stimuli/Blank.png,0,0,0.0,0,179,179,179,,,,,,,,,,,,,108.78023459999531,0.03023459999531042,None,,144.0362019000022,144.0362019000022,144.0362019000022,144.0362019000022,144.0362019000022,144.0362019000022,144.0362019000022,144.0362019000022,144.0362019000022,144.0362019000022,002,P018,2025_Mar_07_1751,ConditionRich,2021.2.3,59.92512954248162,
109.0,109.75,35,0.75,Stimuli/P018/things_lobster_09s.jpg,0,0,0.0,0,180,180,180,,,,,,,,,,,,,109.01498559999891,0.014985599998908583,None,,144.28644599999825,144.28644599999825,144.28644599999825,144.28644599999825,144.28644599999825,144.28644599999825,144.28644599999825,144.28644599999825,144.28644599999825,144.28644599999825,002,P018,2025_Mar_07_1751,ConditionRich,2021.2.3,59.92512954248162,
109.75,110.0,41,0.0,Stimuli/Blank.png,0,0,0.0,0,181,181,181,,,,,,,,,,,,,109.78076319999673,0.030763199996727053,None,,145.03707700000086,145.03707700000086,145.03707700000086,145.03707700000086,145.03707700000086,145.03707700000086,145.03707700000086,145.03707700000086,145.03707700000086,145.03707700000086,002,P018,2025_Mar_07_1751,ConditionRich,2021.2.3,59.92512954248162,
110.0,110.75,35,0.75,Stimuli/P018/things_lobster_09s.jpg,0,0,0.0,0,182,182,182,,,,,,,,,,,,,110.0146550999998,0.014655099999799859,None,,145.2706169000012,145.2706169000012,145.2706169000012,145.2706169000012,145.2706169000012,145.2706169000012,145.2706169000012,145.2706169000012,145.2706169000012,145.2706169000012,002,P018,2025_Mar_07_1751,ConditionRich,2021.2.3,59.92512954248162,
110.75,111.0,41,0.0,Stimuli/Blank.png,0,0,0.0,0,183,183,183,,,,,,,,,,,,,110.76588079999783,0.015880799997830763,None,,146.03797169999598,146.03797169999598,146.03797169999598,146.03797169999598,146.03797169999598,146.03797169999598,146.03797169999598,146.03797169999598,146.03797169999598,146.03797169999598,002,P018,2025_Mar_07_1751,ConditionRich,2021.2.3,59.92512954248162,
111.0,111.75,35,0.75,Stimuli/P018/things_lobster_09s.jpg,0,0,0.0,0,184,184,184,,,,,,,,,,,,,111.01568599999882,0.01568599999882281,None,,146.27152119999664,146.27152119999664,146.27152119999664,146.27152119999664,146.27152119999664,146.27152119999664,146.27152119999664,146.27152119999664,146.27152119999664,146.27152119999664,002,P018,2025_Mar_07_1751,ConditionRich,2021.2.3,59.92512954248162,
111.75,112.0,41,0.0,Stimuli/Blank.png,0,0,0.0,0,185,185,185,,,,,,,,,,,,,111.74953389999428,-0.0004661000057240017,None,,147.00548519999575,147.00548519999575,147.00548519999575,147.00548519999575,147.00548519999575,147.00548519999575,147.00548519999575,147.00548519999575,147.00548519999575,147.00548519999575,002,P018,2025_Mar_07_1751,ConditionRich,2021.2.3,59.92512954248162,
112.0,112.75,29,0.75,Stimuli/P018/things_face_09s.jpg,0,0,0.0,0,186,186,186,,,,,,,,,,,,,111.9986848999979,-0.0013151000021025538,None,,147.25570709999738,147.25570709999738,147.25570709999738,147.25570709999738,147.25570709999738,147.25570709999738,147.25570709999738,147.25570709999738,147.25570709999738,147.25570709999738,002,P018,2025_Mar_07_1751,ConditionRich,2021.2.3,59.92512954248162,
112.75,113.0,41,0.0,Stimuli/Blank.png,0,0,0.0,0,187,187,187,,,,,,,,,,,,,112.75007639999967,7.639999967068434e-05,None,,148.00638069999695,148.00638069999695,148.00638069999695,148.00638069999695,148.00638069999695,148.00638069999695,148.00638069999695,148.00638069999695,148.00638069999695,148.00638069999695,002,P018,2025_Mar_07_1751,ConditionRich,2021.2.3,59.92512954248162,
113.0,113.75,29,0.75,Stimuli/P018/things_face_09s.jpg,0,0,0.0,0,188,188,188,,,,,,,,,,,,,113.00064749999729,0.0006474999972851947,None,,148.27333779999753,148.27333779999753,148.27333779999753,148.27333779999753,148.27333779999753,148.27333779999753,148.27333779999753,148.27333779999753,148.27333779999753,148.27333779999753,002,P018,2025_Mar_07_1751,ConditionRich,2021.2.3,59.92512954248162,
113.75,114.0,41,0.0,Stimuli/Blank.png,0,0,0.0,0,189,189,189,,,,,,,,,,,,,113.76745939999819,0.01745939999818802,None,,149.02394069999718,149.02394069999718,149.02394069999718,149.02394069999718,149.02394069999718,149.02394069999718,149.02394069999718,149.02394069999718,149.02394069999718,149.02394069999718,002,P018,2025_Mar_07_1751,ConditionRich,2021.2.3,59.92512954248162,
114.0,114.75,29,0.75,Stimuli/P018/things_face_09s.jpg,0,0,0.0,0,190,190,190,,,,,,,,,,,,,114.00152619999426,0.001526199994259514,None,,149.2574800000002,149.2574800000002,149.2574800000002,149.2574800000002,149.2574800000002,149.2574800000002,149.2574800000002,149.2574800000002,149.2574800000002,149.2574800000002,002,P018,2025_Mar_07_1751,ConditionRich,2021.2.3,59.92512954248162,
114.75,115.0,41,0.0,Stimuli/Blank.png,0,0,0.0,0,191,191,191,,,,,,,,,,,,,114.75128240000049,0.0012824000004911795,None,,150.00814399999945,150.00814399999945,150.00814399999945,150.00814399999945,150.00814399999945,150.00814399999945,150.00814399999945,150.00814399999945,150.00814399999945,150.00814399999945,002,P018,2025_Mar_07_1751,ConditionRich,2021.2.3,59.92512954248162,
115.0,115.75,29,0.75,Stimuli/P018/things_face_09s.jpg,0,0,0.0,0,192,192,192,,,,,,,,,,,,,115.00250499999675,0.0025049999967450276,None,,150.275046499999,150.275046499999,150.275046499999,150.275046499999,150.275046499999,150.275046499999,150.275046499999,150.275046499999,150.275046499999,150.275046499999,002,P018,2025_Mar_07_1751,ConditionRich,2021.2.3,59.92512954248162,
115.75,116.0,41,0.0,Stimuli/Blank.png,0,0,0.0,0,193,193,193,,,,,,,,,,,,,115.76924239999789,0.01924239999789279,None,,151.02570150000247,151.02570150000247,151.02570150000247,151.02570150000247,151.02570150000247,151.02570150000247,151.02570150000247,151.02570150000247,151.02570150000247,151.02570150000247,002,P018,2025_Mar_07_1751,ConditionRich,2021.2.3,59.92512954248162,
116.0,116.75,9,0.75,Stimuli/P018/sun_ayidxslzurdumeps.jpg,0,0,0.0,0,194,194,194,,,,,,,,,,,,,116.00284660000034,0.0028466000003390945,None,,151.25924739999755,151.25924739999755,151.25924739999755,151.25924739999755,151.25924739999755,151.25924739999755,151.25924739999755,151.25924739999755,151.25924739999755,151.25924739999755,002,P018,2025_Mar_07_1751,ConditionRich,2021.2.3,59.92512954248162,
116.75,117.0,41,0.0,Stimuli/Blank.png,0,0,0.0,0,195,195,195,,,,,,,,,,,,,116.7531741999992,0.003174199999193661,None,,152.01000229999772,152.01000229999772,152.01000229999772,152.01000229999772,152.01000229999772,152.01000229999772,152.01000229999772,152.01000229999772,152.01000229999772,152.01000229999772,002,P018,2025_Mar_07_1751,ConditionRich,2021.2.3,59.92512954248162,
117.0,117.75,9,0.75,Stimuli/P018/sun_ayidxslzurdumeps.jpg,0,0,0.0,0,196,196,196,,,,,,,,,,,,,117.00412569999753,0.004125699997530319,None,,152.27680770000006,152.27680770000006,152.27680770000006,152.27680770000006,152.27680770000006,152.27680770000006,152.27680770000006,152.27680770000006,152.27680770000006,152.27680770000006,002,P018,2025_Mar_07_1751,ConditionRich,2021.2.3,59.92512954248162,
117.75,118.0,41,0.0,Stimuli/Blank.png,0,0,0.0,0,197,197,197,,,,,,,,,,,,,117.77126039999712,0.02126039999711793,None,,153.02748900000006,153.02748900000006,153.02748900000006,153.02748900000006,153.02748900000006,153.02748900000006,153.02748900000006,153.02748900000006,153.02748900000006,153.02748900000006,002,P018,2025_Mar_07_1751,ConditionRich,2021.2.3,59.92512954248162,
118.0,118.75,9,0.75,Stimuli/P018/sun_ayidxslzurdumeps.jpg,0,0,0.0,0,198,198,198,,,,,,,,,,,,,118.00451500000054,0.004515000000537839,None,,153.26102810000157,153.26102810000157,153.26102810000157,153.26102810000157,153.26102810000157,153.26102810000157,153.26102810000157,153.26102810000157,153.26102810000157,153.26102810000157,002,P018,2025_Mar_07_1751,ConditionRich,2021.2.3,59.92512954248162,
118.75,119.0,41,0.0,Stimuli/Blank.png,0,0,0.0,0,199,199,199,,,,,,,,,,,,,118.75574389999383,0.005743899993831292,None,,154.01169949999894,154.01169949999894,154.01169949999894,154.01169949999894,154.01169949999894,154.01169949999894,154.01169949999894,154.01169949999894,154.01169949999894,154.01169949999894,002,P018,2025_Mar_07_1751,ConditionRich,2021.2.3,59.92512954248162,
119.0,119.75,9,0.75,Stimuli/P018/sun_ayidxslzurdumeps.jpg,0,0,0.0,0,200,200,200,,,,,,,,,,,,,119.00521839999419,0.005218399994191714,None,,154.26190540000243,154.26190540000243,154.26190540000243,154.26190540000243,154.26190540000243,154.26190540000243,154.26190540000243,154.26190540000243,154.26190540000243,154.26190540000243,002,P018,2025_Mar_07_1751,ConditionRich,2021.2.3,59.92512954248162,
119.75,120.0,41,0.0,Stimuli/Blank.png,0,0,0.0,0,201,201,201,,,,,,,,,,,,,119.75560330000008,0.005603300000075251,None,,155.01255980000133,155.01255980000133,155.01255980000133,155.01255980000133,155.01255980000133,155.01255980000133,155.01255980000133,155.01255980000133,155.01255980000133,155.01255980000133,002,P018,2025_Mar_07_1751,ConditionRich,2021.2.3,59.92512954248162,
120.0,120.75,17,0.75,Stimuli/P018/sun_brhndfjxyigqgiwl.jpg,0,0,0.0,0,202,202,202,,,,,,,,,,,,,120.00638949999848,0.006389499998476822,None,,155.26274199999898,155.26274199999898,155.26274199999898,155.26274199999898,155.26274199999898,155.26274199999898,155.26274199999898,155.26274199999898,155.26274199999898,155.26274199999898,002,P018,2025_Mar_07_1751,ConditionRich,2021.2.3,59.92512954248162,
120.75,121.0,41,0.0,Stimuli/Blank.png,0,0,0.0,0,203,203,203,,,,,,,,,,,,,120.75679589999345,0.006795899993448984,None,,156.01351949999662,156.01351949999662,156.01351949999662,156.01351949999662,156.01351949999662,156.01351949999662,156.01351949999662,156.01351949999662,156.01351949999662,156.01351949999662,002,P018,2025_Mar_07_1751,ConditionRich,2021.2.3,59.92512954248162,
121.0,121.75,17,0.75,Stimuli/P018/sun_brhndfjxyigqgiwl.jpg,0,0,0.0,0,204,204,204,,,,,,,,,,,,,121.00745249999454,0.00745249999454245,None,,156.28038409999863,156.28038409999863,156.28038409999863,156.28038409999863,156.28038409999863,156.28038409999863,156.28038409999863,156.28038409999863,156.28038409999863,156.28038409999863,002,P018,2025_Mar_07_1751,ConditionRich,2021.2.3,59.92512954248162,
121.75,122.0,41,0.0,Stimuli/Blank.png,0,0,0.0,0,205,205,205,,,,,,,,,,,,,121.77406209999754,0.02406209999753628,None,,157.03101310000056,157.03101310000056,157.03101310000056,157.03101310000056,157.03101310000056,157.03101310000056,157.03101310000056,157.03101310000056,157.03101310000056,157.03101310000056,002,P018,2025_Mar_07_1751,ConditionRich,2021.2.3,59.92512954248162,
122.0,122.75,17,0.75,Stimuli/P018/sun_brhndfjxyigqgiwl.jpg,0,0,0.0,0,206,206,206,,,,,,,,,,,,,122.0096795999998,0.009679599999799393,None,,157.28124379999645,157.28124379999645,157.28124379999645,157.28124379999645,157.28124379999645,157.28124379999645,157.28124379999645,157.28124379999645,157.28124379999645,157.28124379999645,002,P018,2025_Mar_07_1751,ConditionRich,2021.2.3,59.92512954248162,
122.75,123.0,41,0.0,Stimuli/Blank.png,0,0,0.0,0,207,207,207,,,,,,,,,,,,,122.77555189999839,0.02555189999839058,None,,158.0319473999989,158.0319473999989,158.0319473999989,158.0319473999989,158.0319473999989,158.0319473999989,158.0319473999989,158.0319473999989,158.0319473999989,158.0319473999989,002,P018,2025_Mar_07_1751,ConditionRich,2021.2.3,59.92512954248162,
123.0,123.75,17,0.75,Stimuli/P018/sun_brhndfjxyigqgiwl.jpg,0,0,0.0,0,208,208,208,,,,,,,,,,,,,123.00857209999958,0.00857209999958286,None,,158.26544540000032,158.26544540000032,158.26544540000032,158.26544540000032,158.26544540000032,158.26544540000032,158.26544540000032,158.26544540000032,158.26544540000032,158.26544540000032,002,P018,2025_Mar_07_1751,ConditionRich,2021.2.3,59.92512954248162,
123.75,124.0,41,0.0,Stimuli/Blank.png,0,0,0.0,0,209,209,209,,,,,,,,,,,,,123.75936299999739,0.009362999997392762,None,,159.0161103999999,159.0161103999999,159.0161103999999,159.0161103999999,159.0161103999999,159.0161103999999,159.0161103999999,159.0161103999999,159.0161103999999,159.0161103999999,002,P018,2025_Mar_07_1751,ConditionRich,2021.2.3,59.92512954248162,
124.0,124.75,26,0.75,Stimuli/P018/things_chandelier_09s.jpg,0,0,0.0,0,210,210,210,,,,,,,,,,,,,124.00962969999819,0.00962969999818597,None,,159.26632109999628,159.26632109999628,159.26632109999628,159.26632109999628,159.26632109999628,159.26632109999628,159.26632109999628,159.26632109999628,159.26632109999628,159.26632109999628,002,P018,2025_Mar_07_1751,ConditionRich,2021.2.3,59.92512954248162,
124.75,125.0,41,0.0,Stimuli/Blank.png,0,0,0.0,0,211,211,211,,,,,,,,,,,,,124.76039519999904,0.010395199999038596,None,,160.0169640000022,160.0169640000022,160.0169640000022,160.0169640000022,160.0169640000022,160.0169640000022,160.0169640000022,160.0169640000022,160.0169640000022,160.0169640000022,002,P018,2025_Mar_07_1751,ConditionRich,2021.2.3,59.92512954248162,
125.0,125.75,26,0.75,Stimuli/P018/things_chandelier_09s.jpg,0,0,0.0,0,212,212,212,,,,,,,,,,,,,125.01031809999404,0.010318099994037766,None,,160.26720439999917,160.26720439999917,160.26720439999917,160.26720439999917,160.26720439999917,160.26720439999917,160.26720439999917,160.26720439999917,160.26720439999917,160.26720439999917,002,P018,2025_Mar_07_1751,ConditionRich,2021.2.3,59.92512954248162,
125.75,126.0,41,0.0,Stimuli/Blank.png,0,0,0.0,0,213,213,213,,,,,,,,,,,,,125.76146609999705,0.01146609999705106,None,,161.01787150000018,161.01787150000018,161.01787150000018,161.01787150000018,161.01787150000018,161.01787150000018,161.01787150000018,161.01787150000018,161.01787150000018,161.01787150000018,002,P018,2025_Mar_07_1751,ConditionRich,2021.2.3,59.92512954248162,
126.0,126.75,26,0.75,Stimuli/P018/things_chandelier_09s.jpg,1,0,0.75,0,214,214,214,,,,,,,,,,,,,126.01194339999347,0.011943399993469939,2,0.37668500000290805,161.2848124000011,161.2848124000011,161.2848124000011,161.2848124000011,161.2848124000011,161.2848124000011,161.2848124000011,162.00209370000084,161.2848124000011,161.2848124000011,002,P018,2025_Mar_07_1751,ConditionRich,2021.2.3,59.92512954248162,
126.75,127.0,41,0.0,Stimuli/Blank.png,0,0,0.0,0,215,215,215,,,,,,,,,,,,,126.77932759999385,0.029327599993848708,None,,162.03544749999855,162.03544749999855,162.03544749999855,162.03544749999855,162.03544749999855,162.03544749999855,162.03544749999855,162.03544749999855,162.03544749999855,162.03544749999855,002,P018,2025_Mar_07_1751,ConditionRich,2021.2.3,59.92512954248162,
127.0,127.75,26,0.75,Stimuli/P018/things_chandelier_09s.jpg,0,0,0.0,0,216,216,216,,,,,,,,,,,,,127.0119252000004,0.011925200000405312,None,,162.28568290000112,162.28568290000112,162.28568290000112,162.28568290000112,162.28568290000112,162.28568290000112,162.28568290000112,162.28568290000112,162.28568290000112,162.28568290000112,002,P018,2025_Mar_07_1751,ConditionRich,2021.2.3,59.92512954248162,
127.75,128.0,41,0.0,Stimuli/Blank.png,0,0,0.0,0,217,217,217,,,,,,,,,,,,,127.78029479999532,0.03029479999531759,None,,163.0363475999984,163.0363475999984,163.0363475999984,163.0363475999984,163.0363475999984,163.0363475999984,163.0363475999984,163.0363475999984,163.0363475999984,163.0363475999984,002,P018,2025_Mar_07_1751,ConditionRich,2021.2.3,59.92512954248162,
128.0,128.75,30,0.75,Stimuli/P018/things_girl_09s.jpg,0,0,0.0,0,218,218,218,,,,,,,,,,,,,128.01277589999518,0.012775899995176587,None,,163.28656970000156,163.28656970000156,163.28656970000156,163.28656970000156,163.28656970000156,163.28656970000156,163.28656970000156,163.28656970000156,163.28656970000156,163.28656970000156,002,P018,2025_Mar_07_1751,ConditionRich,2021.2.3,59.92512954248162,
128.75,129.0,41,0.0,Stimuli/Blank.png,0,0,0.0,0,219,219,219,,,,,,,,,,,,,128.78100619999896,0.031006199998955708,None,,164.03720749999775,164.03720749999775,164.03720749999775,164.03720749999775,164.03720749999775,164.03720749999775,164.03720749999775,164.03720749999775,164.03720749999775,164.03720749999775,002,P018,2025_Mar_07_1751,ConditionRich,2021.2.3,59.92512954248162,
129.0,129.75,30,0.75,Stimuli/P018/things_girl_09s.jpg,0,0,0.0,0,220,220,220,,,,,,,,,,,,,129.01478659999702,0.014786599997023586,None,,164.28742690000217,164.28742690000217,164.28742690000217,164.28742690000217,164.28742690000217,164.28742690000217,164.28742690000217,164.28742690000217,164.28742690000217,164.28742690000217,002,P018,2025_Mar_07_1751,ConditionRich,2021.2.3,59.92512954248162,
129.75,130.0,41,0.0,Stimuli/Blank.png,0,0,0.0,0,221,221,221,,,,,,,,,,,,,129.7812002999999,0.031200299999909475,None,,165.03808910000225,165.03808910000225,165.03808910000225,165.03808910000225,165.03808910000225,165.03808910000225,165.03808910000225,165.03808910000225,165.03808910000225,165.03808910000225,002,P018,2025_Mar_07_1751,ConditionRich,2021.2.3,59.92512954248162,
130.0,130.75,30,0.75,Stimuli/P018/things_girl_09s.jpg,0,0,0.0,0,222,222,222,,,,,,,,,,,,,130.0146523999938,0.014652399993792642,None,,165.27162829999725,165.27162829999725,165.27162829999725,165.27162829999725,165.27162829999725,165.27162829999725,165.27162829999725,165.27162829999725,165.27162829999725,165.27162829999725,002,P018,2025_Mar_07_1751,ConditionRich,2021.2.3,59.92512954248162,
130.75,131.0,41,0.0,Stimuli/Blank.png,0,0,0.0,0,223,223,223,,,,,,,,,,,,,130.7654251999993,0.015425199999299366,None,,166.02226749999681,166.02226749999681,166.02226749999681,166.02226749999681,166.02226749999681,166.02226749999681,166.02226749999681,166.02226749999681,166.02226749999681,166.02226749999681,002,P018,2025_Mar_07_1751,ConditionRich,2021.2.3,59.92512954248162,
131.0,131.75,30,0.75,Stimuli/P018/things_girl_09s.jpg,1,0,0.75,0,224,224,224,,,,,,,,,,,,,130.99963779999962,-0.00036220000038156286,2,0.40932469999825116,166.27251989999786,166.27251989999786,166.27251989999786,166.27251989999786,166.27251989999786,166.27251989999786,166.27251989999786,166.9898514000015,166.27251989999786,166.27251989999786,002,P018,2025_Mar_07_1751,ConditionRich,2021.2.3,59.92512954248162,
131.75,132.0,41,0.0,Stimuli/Blank.png,0,0,0.0,0,225,225,225,,,,,,,,,,,,,131.7670330999972,0.01703309999720659,None,,167.02318759999616,167.02318759999616,167.02318759999616,167.02318759999616,167.02318759999616,167.02318759999616,167.02318759999616,167.02318759999616,167.02318759999616,167.02318759999616,002,P018,2025_Mar_07_1751,ConditionRich,2021.2.3,59.92512954248162,
132.0,132.75,18,0.75,Stimuli/P018/sun_brrvvswweljrvnlq.jpg,0,0,0.0,0,226,226,226,,,,,,,,,,,,,132.00024789999588,0.00024789999588392675,None,,167.2567201999991,167.2567201999991,167.2567201999991,167.2567201999991,167.2567201999991,167.2567201999991,167.2567201999991,167.2567201999991,167.2567201999991,167.2567201999991,002,P018,2025_Mar_07_1751,ConditionRich,2021.2.3,59.92512954248162,
132.75,133.0,41,0.0,Stimuli/Blank.png,0,0,0.0,0,227,227,227,,,,,,,,,,,,,132.75138069999957,0.0013806999995722435,None,,168.00744169999962,168.00744169999962,168.00744169999962,168.00744169999962,168.00744169999962,168.00744169999962,168.00744169999962,168.00744169999962,168.00744169999962,168.00744169999962,002,P018,2025_Mar_07_1751,ConditionRich,2021.2.3,59.92512954248162,
133.0,133.75,18,0.75,Stimuli/P018/sun_brrvvswweljrvnlq.jpg,0,0,0.0,0,228,228,228,,,,,,,,,,,,,133.00060539999686,0.0006053999968571588,None,,168.2576026999959,168.2576026999959,168.2576026999959,168.2576026999959,168.2576026999959,168.2576026999959,168.2576026999959,168.2576026999959,168.2576026999959,168.2576026999959,002,P018,2025_Mar_07_1751,ConditionRich,2021.2.3,59.92512954248162,
133.75,134.0,41,0.0,Stimuli/Blank.png,0,0,0.0,0,229,229,229,,,,,,,,,,,,,133.75121729999955,0.001217299999552779,None,,169.008267899997,169.008267899997,169.008267899997,169.008267899997,169.008267899997,169.008267899997,169.008267899997,169.008267899997,169.008267899997,169.008267899997,002,P018,2025_Mar_07_1751,ConditionRich,2021.2.3,59.92512954248162,
134.0,134.75,18,0.75,Stimuli/P018/sun_brrvvswweljrvnlq.jpg,0,0,0.0,0,230,230,230,,,,,,,,,,,,,134.00251209999988,0.0025120999998762272,None,,169.27517429999716,169.27517429999716,169.27517429999716,169.27517429999716,169.27517429999716,169.27517429999716,169.27517429999716,169.27517429999716,169.27517429999716,169.27517429999716,002,P018,2025_Mar_07_1751,ConditionRich,2021.2.3,59.92512954248162,
134.75,135.0,41,0.0,Stimuli/Blank.png,0,0,0.0,0,231,231,231,,,,,,,,,,,,,134.7688758000004,0.018875800000387244,None,,170.02583500000037,170.02583500000037,170.02583500000037,170.02583500000037,170.02583500000037,170.02583500000037,170.02583500000037,170.02583500000037,170.02583500000037,170.02583500000037,002,P018,2025_Mar_07_1751,ConditionRich,2021.2.3,59.92512954248162,
135.0,135.75,18,0.75,Stimuli/P018/sun_brrvvswweljrvnlq.jpg,0,0,0.0,0,232,232,232,,,,,,,,,,,,,135.00239419999707,0.0023941999970702454,None,,170.27605989999574,170.27605989999574,170.27605989999574,170.27605989999574,170.27605989999574,170.27605989999574,170.27605989999574,170.27605989999574,170.27605989999574,170.27605989999574,002,P018,2025_Mar_07_1751,ConditionRich,2021.2.3,59.92512954248162,
135.75,136.0,41,0.0,Stimuli/Blank.png,0,0,0.0,0,233,233,233,,,,,,,,,,,,,135.77054549999593,0.020545499995932914,None,,171.02675620000082,171.02675620000082,171.02675620000082,171.02675620000082,171.02675620000082,171.02675620000082,171.02675620000082,171.02675620000082,171.02675620000082,171.02675620000082,002,P018,2025_Mar_07_1751,ConditionRich,2021.2.3,59.92512954248162,
136.0,136.75,3,0.75,Stimuli/P018/sun_acymmczhyuiimeub.jpg,0,0,0.0,0,234,234,234,,,,,,,,,,,,,136.00400419999642,0.004004199996415991,None,,171.2602893000003,171.2602893000003,171.2602893000003,171.2602893000003,171.2602893000003,171.2602893000003,171.2602893000003,171.2602893000003,171.2602893000003,171.2602893000003,002,P018,2025_Mar_07_1751,ConditionRich,2021.2.3,59.92512954248162,
136.75,137.0,41,0.0,Stimuli/Blank.png,0,0,0.0,0,235,235,235,,,,,,,,,,,,,136.7542121000006,0.004212100000586361,None,,172.0109225999986,172.0109225999986,172.0109225999986,172.0109225999986,172.0109225999986,172.0109225999986,172.0109225999986,172.0109225999986,172.0109225999986,172.0109225999986,002,P018,2025_Mar_07_1751,ConditionRich,2021.2.3,59.92512954248162,
137.0,137.75,3,0.75,Stimuli/P018/sun_acymmczhyuiimeub.jpg,0,0,0.0,0,236,236,236,,,,,,,,,,,,,137.00478279999516,0.004782799995155074,None,,172.26114750000124,172.26114750000124,172.26114750000124,172.26114750000124,172.26114750000124,172.26114750000124,172.26114750000124,172.26114750000124,172.26114750000124,172.26114750000124,002,P018,2025_Mar_07_1751,ConditionRich,2021.2.3,59.92512954248162,
137.75,138.0,41,0.0,Stimuli/Blank.png,0,0,0.0,0,237,237,237,,,,,,,,,,,,,137.75551099999575,0.005510999995749444,None,,173.01186839999718,173.01186839999718,173.01186839999718,173.01186839999718,173.01186839999718,173.01186839999718,173.01186839999718,173.01186839999718,173.01186839999718,173.01186839999718,002,P018,2025_Mar_07_1751,ConditionRich,2021.2.3,59.92512954248162,
138.0,138.75,3,0.75,Stimuli/P018/sun_acymmczhyuiimeub.jpg,0,0,0.0,0,238,238,238,,,,,,,,,,,,,138.0054672999977,0.005467299997690134,None,,173.26206300000194,173.26206300000194,173.26206300000194,173.26206300000194,173.26206300000194,173.26206300000194,173.26206300000194,173.26206300000194,173.26206300000194,173.26206300000194,002,P018,2025_Mar_07_1751,ConditionRich,2021.2.3,59.92512954248162,
138.75,139.0,41,0.0,Stimuli/Blank.png,0,0,0.0,0,239,239,239,,,,,,,,,,,,,138.75683939999726,0.006839399997261353,None,,174.01285949999874,174.01285949999874,174.01285949999874,174.01285949999874,174.01285949999874,174.01285949999874,174.01285949999874,174.01285949999874,174.01285949999874,174.01285949999874,002,P018,2025_Mar_07_1751,ConditionRich,2021.2.3,59.92512954248162,
139.0,139.75,3,0.75,Stimuli/P018/sun_acymmczhyuiimeub.jpg,0,0,0.0,0,240,240,240,,,,,,,,,,,,,139.00723509999807,0.007235099998069927,None,,174.27959449999616,174.27959449999616,174.27959449999616,174.27959449999616,174.27959449999616,174.27959449999616,174.27959449999616,174.27959449999616,174.27959449999616,174.27959449999616,002,P018,2025_Mar_07_1751,ConditionRich,2021.2.3,59.92512954248162,
139.75,140.0,41,0.0,Stimuli/Blank.png,0,0,0.0,0,241,241,241,,,,,,,,,,,,,139.7743171999973,0.024317199997312855,None,,175.03025740000157,175.03025740000157,175.03025740000157,175.03025740000157,175.03025740000157,175.03025740000157,175.03025740000157,175.03025740000157,175.03025740000157,175.03025740000157,002,P018,2025_Mar_07_1751,ConditionRich,2021.2.3,59.92512954248162,
140.0,140.75,24,0.75,Stimuli/P018/things_breadbox_09s.jpg,0,0,0.0,0,242,242,242,,,,,,,,,,,,,140.00774859999365,0.007748599993647076,None,,175.28049109999847,175.28049109999847,175.28049109999847,175.28049109999847,175.28049109999847,175.28049109999847,175.28049109999847,175.28049109999847,175.28049109999847,175.28049109999847,002,P018,2025_Mar_07_1751,ConditionRich,2021.2.3,59.92512954248162,
140.75,141.0,41,0.0,Stimuli/Blank.png,0,0,0.0,0,243,243,243,,,,,,,,,,,,,140.77461349999794,0.02461349999794038,None,,176.0311440000005,176.0311440000005,176.0311440000005,176.0311440000005,176.0311440000005,176.0311440000005,176.0311440000005,176.0311440000005,176.0311440000005,176.0311440000005,002,P018,2025_Mar_07_1751,ConditionRich,2021.2.3,59.92512954248162,
141.0,141.75,24,0.75,Stimuli/P018/things_breadbox_09s.jpg,0,0,0.0,0,244,244,244,,,,,,,,,,,,,141.00897749999422,0.008977499994216487,None,,176.28137609999976,176.28137609999976,176.28137609999976,176.28137609999976,176.28137609999976,176.28137609999976,176.28137609999976,176.28137609999976,176.28137609999976,176.28137609999976,002,P018,2025_Mar_07_1751,ConditionRich,2021.2.3,59.92512954248162,
141.75,142.0,41,0.0,Stimuli/Blank.png,0,0,0.0,0,245,245,245,,,,,,,,,,,,,141.7755693999934,0.02556939999340102,None,,177.0320251000012,177.0320251000012,177.0320251000012,177.0320251000012,177.0320251000012,177.0320251000012,177.0320251000012,177.0320251000012,177.0320251000012,177.0320251000012,002,P018,2025_Mar_07_1751,ConditionRich,2021.2.3,59.92512954248162,
142.0,142.75,24,0.75,Stimuli/P018/things_breadbox_09s.jpg,0,0,0.0,0,246,246,246,,,,,,,,,,,,,142.00914119999652,0.0091411999965203,None,,177.26556749999872,177.26556749999872,177.26556749999872,177.26556749999872,177.26556749999872,177.26556749999872,177.26556749999872,177.26556749999872,177.26556749999872,177.26556749999872,002,P018,2025_Mar_07_1751,ConditionRich,2021.2.3,59.92512954248162,
142.75,143.0,41,0.0,Stimuli/Blank.png,0,0,0.0,0,247,247,247,,,,,,,,,,,,,142.75984590000007,0.009845900000073016,None,,178.016231900001,178.016231900001,178.016231900001,178.016231900001,178.016231900001,178.016231900001,178.016231900001,178.016231900001,178.016231900001,178.016231900001,002,P018,2025_Mar_07_1751,ConditionRich,2021.2.3,59.92512954248162,
143.0,143.75,24,0.75,Stimuli/P018/things_breadbox_09s.jpg,0,0,0.0,0,248,248,248,,,,,,,,,,,,,143.00949620000029,0.009496200000285171,None,,178.2664616999973,178.2664616999973,178.2664616999973,178.2664616999973,178.2664616999973,178.2664616999973,178.2664616999973,178.2664616999973,178.2664616999973,178.2664616999973,002,P018,2025_Mar_07_1751,ConditionRich,2021.2.3,59.92512954248162,
143.75,144.0,41,0.0,Stimuli/Blank.png,0,0,0.0,0,249,249,249,,,,,,,,,,,,,143.760220199998,0.0102201999980025,None,,179.01711839999916,179.01711839999916,179.01711839999916,179.01711839999916,179.01711839999916,179.01711839999916,179.01711839999916,179.01711839999916,179.01711839999916,179.01711839999916,002,P018,2025_Mar_07_1751,ConditionRich,2021.2.3,59.92512954248162,
144.0,144.75,25,0.75,Stimuli/P018/things_cannonball_09s.jpg,0,0,0.0,0,250,250,250,,,,,,,,,,,,,144.0104732999971,0.010473299997102004,None,,179.26733959999547,179.26733959999547,179.26733959999547,179.26733959999547,179.26733959999547,179.26733959999547,179.26733959999547,179.26733959999547,179.26733959999547,179.26733959999547,002,P018,2025_Mar_07_1751,ConditionRich,2021.2.3,59.92512954248162,
144.75,145.0,41,0.0,Stimuli/Blank.png,0,0,0.0,0,251,251,251,,,,,,,,,,,,,144.76173359999666,0.011733599996659905,None,,180.01801310000155,180.01801310000155,180.01801310000155,180.01801310000155,180.01801310000155,180.01801310000155,180.01801310000155,180.01801310000155,180.01801310000155,180.01801310000155,002,P018,2025_Mar_07_1751,ConditionRich,2021.2.3,59.92512954248162,
145.0,145.75,25,0.75,Stimuli/P018/things_cannonball_09s.jpg,0,0,0.0,0,252,252,252,,,,,,,,,,,,,145.0142227999968,0.014222799996787217,None,,180.28491439999925,180.28491439999925,180.28491439999925,180.28491439999925,180.28491439999925,180.28491439999925,180.28491439999925,180.28491439999925,180.28491439999925,180.28491439999925,002,P018,2025_Mar_07_1751,ConditionRich,2021.2.3,59.92512954248162,
145.75,146.0,41,0.0,Stimuli/Blank.png,0,0,0.0,0,253,253,253,,,,,,,,,,,,,145.77948069999547,0.029480699995474424,None,,181.05229379999946,181.05229379999946,181.05229379999946,181.05229379999946,181.05229379999946,181.05229379999946,181.05229379999946,181.05229379999946,181.05229379999946,181.05229379999946,002,P018,2025_Mar_07_1751,ConditionRich,2021.2.3,59.92512954248162,
146.0,146.75,25,0.75,Stimuli/P018/things_cannonball_09s.jpg,0,0,0.0,0,254,254,254,,,,,,,,,,,,,146.02986309999687,0.029863099996873643,None,,181.30250910000177,181.30250910000177,181.30250910000177,181.30250910000177,181.30250910000177,181.30250910000177,181.30250910000177,181.30250910000177,181.30250910000177,181.30250910000177,002,P018,2025_Mar_07_1751,ConditionRich,2021.2.3,59.92512954248162,
146.75,147.0,41,0.0,Stimuli/Blank.png,0,0,0.0,0,255,255,255,,,,,,,,,,,,,146.77983599999425,0.029835999994247686,None,,182.03645929999766,182.03645929999766,182.03645929999766,182.03645929999766,182.03645929999766,182.03645929999766,182.03645929999766,182.03645929999766,182.03645929999766,182.03645929999766,002,P018,2025_Mar_07_1751,ConditionRich,2021.2.3,59.92512954248162,
147.0,147.75,25,0.75,Stimuli/P018/things_cannonball_09s.jpg,0,0,0.0,0,256,256,256,,,,,,,,,,,,,147.01369679999334,0.013696799993340392,None,,182.28670550000243,182.28670550000243,182.28670550000243,182.28670550000243,182.28670550000243,182.28670550000243,182.28670550000243,182.28670550000243,182.28670550000243,182.28670550000243,002,P018,2025_Mar_07_1751,ConditionRich,2021.2.3,59.92512954248162,
147.75,148.0,41,0.0,Stimuli/Blank.png,0,0,0.0,0,257,257,257,,,,,,,,,,,,,147.7811711999966,0.031171199996606447,None,,183.03739530000166,183.03739530000166,183.03739530000166,183.03739530000166,183.03739530000166,183.03739530000166,183.03739530000166,183.03739530000166,183.03739530000166,183.03739530000166,002,P018,2025_Mar_07_1751,ConditionRich,2021.2.3,59.92512954248162,
148.0,148.75,8,0.75,Stimuli/P018/sun_axsmqyyvebrcuhkn.jpg,0,0,0.0,0,258,258,258,,,,,,,,,,,,,148.01469299999735,0.014692999997350853,None,,183.27087039999606,183.27087039999606,183.27087039999606,183.27087039999606,183.27087039999606,183.27087039999606,183.27087039999606,183.27087039999606,183.27087039999606,183.27087039999606,002,P018,2025_Mar_07_1751,ConditionRich,2021.2.3,59.92512954248162,
148.75,149.0,41,0.0,Stimuli/Blank.png,0,0,0.0,0,259,259,259,,,,,,,,,,,,,148.76478399999905,0.014783999999053776,None,,184.02154259999952,184.02154259999952,184.02154259999952,184.02154259999952,184.02154259999952,184.02154259999952,184.02154259999952,184.02154259999952,184.02154259999952,184.02154259999952,002,P018,2025_Mar_07_1751,ConditionRich,2021.2.3,59.92512954248162,
149.0,149.75,8,0.75,Stimuli/P018/sun_axsmqyyvebrcuhkn.jpg,0,0,0.0,0,260,260,260,,,,,,,,,,,,,149.01546369999414,0.015463699994143099,None,,184.27173519999633,184.27173519999633,184.27173519999633,184.27173519999633,184.27173519999633,184.27173519999633,184.27173519999633,184.27173519999633,184.27173519999633,184.27173519999633,002,P018,2025_Mar_07_1751,ConditionRich,2021.2.3,59.92512954248162,
149.75,150.0,41,0.0,Stimuli/Blank.png,0,0,0.0,0,261,261,261,,,,,,,,,,,,,149.749484699998,-0.0005153000020072795,None,,185.00575329999992,185.00575329999992,185.00575329999992,185.00575329999992,185.00575329999992,185.00575329999992,185.00575329999992,185.00575329999992,185.00575329999992,185.00575329999992,002,P018,2025_Mar_07_1751,ConditionRich,2021.2.3,59.92512954248162,
