eventStartTime,eventEndTime,eventCond,imSize,imFile,responseEvent,fixRespStart,fixRespEnd,Events.thisRepN,Events.thisTrialN,Events.thisN,Events.thisIndex,Instructions.started,Instructions.stopped,participantReadyResponse.keys,participantReadyResponse.rt,participantReadyResponse.started,participantReadyResponse.stopped,startWaitforTrigger,triggerResponse.keys,triggerResponse.rt,triggerResponse.started,triggerResponse.stopped,globalTimer,actualStartTime,startTimingDiff,participantResponse.keys,participantResponse.started,participantResponse.stopped,image.started,image.stopped,fixationOutside.started,fixationOutside.stopped,fixationResponse.started,fixationResponse.stopped,fixationInside.started,fixationInside.stopped,participantResponse.rt,session,participant,date,expName,psychopyVersion,frameRate,
,,,,,,,,,,,,10.880422900001577,None,2,1.1261059999960708,10.880422900001577,None,,,,,,,,,,,,,,,,,,,,,005,P018,2025_Mar_07_1819,ConditionRich,2021.2.3,59.94797714622766,
,,,,,,,,,,,,,,,,,,12.025198000003002,5,14.248461100003624,12.038159100004123,None,,,,,,,,,,,,,,,,005,P018,2025_Mar_07_1819,ConditionRich,2021.2.3,59.94797714622766,
0.0,4.0,0,0.0,Stimuli/Blank.png,0,0,0.0,0,0,0,0,,,,,,,,,,,,26.304257300005702,0.05122229999687988,0.05122229999687988,None,26.367486800001643,None,26.367486800001643,None,26.367486800001643,None,26.367486800001643,26.367486800001643,26.367486800001643,None,,005,P018,2025_Mar_07_1819,ConditionRich,2021.2.3,59.94797714622766,
4.0,4.75,10,0.75,Stimuli/P018/sun_bayxprasninnrnle.jpg,0,0,0.0,0,1,1,1,,,,,,,,,,,,,4.0087329000016325,0.008732900001632515,None,30.33798620000016,30.33798620000016,30.33798620000016,30.33798620000016,30.33798620000016,30.33798620000016,30.33798620000016,30.33798620000016,30.33798620000016,30.33798620000016,,005,P018,2025_Mar_07_1819,ConditionRich,2021.2.3,59.94797714622766,
4.75,5.0,41,0.0,Stimuli/Blank.png,0,0,0.0,0,2,2,2,,,,,,,,,,,,,4.770141200002399,0.020141200002399273,None,31.08861280000565,31.08861280000565,31.08861280000565,31.08861280000565,31.08861280000565,31.08861280000565,31.08861280000565,31.08861280000565,31.08861280000565,31.08861280000565,,005,P018,2025_Mar_07_1819,ConditionRich,2021.2.3,59.94797714622766,
5.0,5.75,10,0.75,Stimuli/P018/sun_bayxprasninnrnle.jpg,0,0,0.0,0,3,3,3,,,,,,,,,,,,,5.004989399996703,0.004989399996702559,None,31.338555900001666,31.338555900001666,31.338555900001666,31.338555900001666,31.338555900001666,31.338555900001666,31.338555900001666,31.338555900001666,31.338555900001666,31.338555900001666,,005,P018,2025_Mar_07_1819,ConditionRich,2021.2.3,59.94797714622766,
5.75,6.0,41,0.0,Stimuli/Blank.png,0,0,0.0,0,4,4,4,,,,,,,,,,,,,5.771168400002352,0.021168400002352428,None,32.08921200000623,32.08921200000623,32.08921200000623,32.08921200000623,32.08921200000623,32.08921200000623,32.08921200000623,32.08921200000623,32.08921200000623,32.08921200000623,,005,P018,2025_Mar_07_1819,ConditionRich,2021.2.3,59.94797714622766,
6.0,6.75,10,0.75,Stimuli/P018/sun_bayxprasninnrnle.jpg,0,0,0.0,0,5,5,5,,,,,,,,,,,,,6.0043221000014455,0.004322100001445506,None,32.322763200005284,32.322763200005284,32.322763200005284,32.322763200005284,32.322763200005284,32.322763200005284,32.322763200005284,32.322763200005284,32.322763200005284,32.322763200005284,,005,P018,2025_Mar_07_1819,ConditionRich,2021.2.3,59.94797714622766,
6.75,7.0,41,0.0,Stimuli/Blank.png,0,0,0.0,0,6,6,6,,,,,,,,,,,,,6.755561099998886,0.005561099998885766,None,33.07342459999927,33.07342459999927,33.07342459999927,33.07342459999927,33.07342459999927,33.07342459999927,33.07342459999927,33.07342459999927,33.07342459999927,33.07342459999927,,005,P018,2025_Mar_07_1819,ConditionRich,2021.2.3,59.94797714622766,
7.0,7.75,10,0.75,Stimuli/P018/sun_bayxprasninnrnle.jpg,0,0,0.0,0,7,7,7,,,,,,,,,,,,,7.00541279999743,0.005412799997429829,None,33.34034860000247,33.34034860000247,33.34034860000247,33.34034860000247,33.34034860000247,33.34034860000247,33.34034860000247,33.34034860000247,33.34034860000247,33.34034860000247,,005,P018,2025_Mar_07_1819,ConditionRich,2021.2.3,59.94797714622766,
7.75,8.0,41,0.0,Stimuli/Blank.png,0,0,0.0,0,8,8,8,,,,,,,,,,,,,7.772124600000097,0.022124600000097416,None,34.0910315000001,34.0910315000001,34.0910315000001,34.0910315000001,34.0910315000001,34.0910315000001,34.0910315000001,34.0910315000001,34.0910315000001,34.0910315000001,,005,P018,2025_Mar_07_1819,ConditionRich,2021.2.3,59.94797714622766,
8.0,8.75,18,0.75,Stimuli/P018/sun_brrvvswweljrvnlq.jpg,0,0,0.0,0,9,9,9,,,,,,,,,,,,,8.005851699999766,0.005851699999766424,None,34.324556100000336,34.324556100000336,34.324556100000336,34.324556100000336,34.324556100000336,34.324556100000336,34.324556100000336,34.324556100000336,34.324556100000336,34.324556100000336,,005,P018,2025_Mar_07_1819,ConditionRich,2021.2.3,59.94797714622766,
8.75,9.0,41,0.0,Stimuli/Blank.png,0,0,0.0,0,10,10,10,,,,,,,,,,,,,8.756885800001328,0.00688580000132788,None,35.075193900003796,35.075193900003796,35.075193900003796,35.075193900003796,35.075193900003796,35.075193900003796,35.075193900003796,35.075193900003796,35.075193900003796,35.075193900003796,,005,P018,2025_Mar_07_1819,ConditionRich,2021.2.3,59.94797714622766,
9.0,9.75,18,0.75,Stimuli/P018/sun_brrvvswweljrvnlq.jpg,0,0,0.0,0,11,11,11,,,,,,,,,,,,,9.006510699997307,0.006510699997306801,None,35.32541019999917,35.32541019999917,35.32541019999917,35.32541019999917,35.32541019999917,35.32541019999917,35.32541019999917,35.32541019999917,35.32541019999917,35.32541019999917,,005,P018,2025_Mar_07_1819,ConditionRich,2021.2.3,59.94797714622766,
9.75,10.0,41,0.0,Stimuli/Blank.png,0,0,0.0,0,12,12,12,,,,,,,,,,,,,9.757127899996703,0.007127899996703491,None,36.076089400005,36.076089400005,36.076089400005,36.076089400005,36.076089400005,36.076089400005,36.076089400005,36.076089400005,36.076089400005,36.076089400005,,005,P018,2025_Mar_07_1819,ConditionRich,2021.2.3,59.94797714622766,
10.0,10.75,18,0.75,Stimuli/P018/sun_brrvvswweljrvnlq.jpg,0,0,0.0,0,13,13,13,,,,,,,,,,,,,10.008409299996856,0.008409299996856134,None,36.34299910000118,36.34299910000118,36.34299910000118,36.34299910000118,36.34299910000118,36.34299910000118,36.34299910000118,36.34299910000118,36.34299910000118,36.34299910000118,,005,P018,2025_Mar_07_1819,ConditionRich,2021.2.3,59.94797714622766,
10.75,11.0,41,0.0,Stimuli/Blank.png,0,0,0.0,0,14,14,14,,,,,,,,,,,,,10.775343699999212,0.02534369999921182,None,37.093612399999984,37.093612399999984,37.093612399999984,37.093612399999984,37.093612399999984,37.093612399999984,37.093612399999984,37.093612399999984,37.093612399999984,37.093612399999984,,005,P018,2025_Mar_07_1819,ConditionRich,2021.2.3,59.94797714622766,
11.0,11.75,18,0.75,Stimuli/P018/sun_brrvvswweljrvnlq.jpg,0,0,0.0,0,15,15,15,,,,,,,,,,,,,11.00903919999837,0.00903919999836944,None,37.32718620000378,37.32718620000378,37.32718620000378,37.32718620000378,37.32718620000378,37.32718620000378,37.32718620000378,37.32718620000378,37.32718620000378,37.32718620000378,,005,P018,2025_Mar_07_1819,ConditionRich,2021.2.3,59.94797714622766,
11.75,12.0,41,0.0,Stimuli/Blank.png,0,0,0.0,0,16,16,16,,,,,,,,,,,,,11.759825900000578,0.009825900000578258,None,38.077850400004536,38.077850400004536,38.077850400004536,38.077850400004536,38.077850400004536,38.077850400004536,38.077850400004536,38.077850400004536,38.077850400004536,38.077850400004536,,005,P018,2025_Mar_07_1819,ConditionRich,2021.2.3,59.94797714622766,
12.0,12.75,4,0.75,Stimuli/P018/sun_aibvvqlmlsjnrgdj.jpg,0,0,0.0,0,17,17,17,,,,,,,,,,,,,12.009879299999739,0.009879299999738578,None,38.328056000005745,38.328056000005745,38.328056000005745,38.328056000005745,38.328056000005745,38.328056000005745,38.328056000005745,38.328056000005745,38.328056000005745,38.328056000005745,,005,P018,2025_Mar_07_1819,ConditionRich,2021.2.3,59.94797714622766,
12.75,13.0,41,0.0,Stimuli/Blank.png,0,0,0.0,0,18,18,18,,,,,,,,,,,,,12.760059100000944,0.010059100000944454,None,39.07872670000506,39.07872670000506,39.07872670000506,39.07872670000506,39.07872670000506,39.07872670000506,39.07872670000506,39.07872670000506,39.07872670000506,39.07872670000506,,005,P018,2025_Mar_07_1819,ConditionRich,2021.2.3,59.94797714622766,
13.0,13.75,4,0.75,Stimuli/P018/sun_aibvvqlmlsjnrgdj.jpg,1,0,0.75,0,19,19,19,,,,,,,,,,,,,13.010925199996564,0.010925199996563606,2,39.34562910000386,39.34562910000386,39.34562910000386,39.34562910000386,39.34562910000386,39.34562910000386,39.34562910000386,40.06293310000183,39.34562910000386,39.34562910000386,0.5818288000009488,005,P018,2025_Mar_07_1819,ConditionRich,2021.2.3,59.94797714622766,
13.75,14.0,41,0.0,Stimuli/Blank.png,0,0,0.0,0,20,20,20,,,,,,,,,,,,,13.780215899998439,0.030215899998438545,None,40.11299300000246,40.11299300000246,40.11299300000246,40.11299300000246,40.11299300000246,40.11299300000246,40.11299300000246,40.11299300000246,40.11299300000246,40.11299300000246,,005,P018,2025_Mar_07_1819,ConditionRich,2021.2.3,59.94797714622766,
14.0,14.75,4,0.75,Stimuli/P018/sun_aibvvqlmlsjnrgdj.jpg,0,0,0.0,0,21,21,21,,,,,,,,,,,,,14.029568699996162,0.02956869999616174,None,40.363197099999525,40.363197099999525,40.363197099999525,40.363197099999525,40.363197099999525,40.363197099999525,40.363197099999525,40.363197099999525,40.363197099999525,40.363197099999525,,005,P018,2025_Mar_07_1819,ConditionRich,2021.2.3,59.94797714622766,
14.75,15.0,41,0.0,Stimuli/Blank.png,0,0,0.0,0,22,22,22,,,,,,,,,,,,,14.779545500001404,0.029545500001404434,None,41.0971886000043,41.0971886000043,41.0971886000043,41.0971886000043,41.0971886000043,41.0971886000043,41.0971886000043,41.0971886000043,41.0971886000043,41.0971886000043,,005,P018,2025_Mar_07_1819,ConditionRich,2021.2.3,59.94797714622766,
15.0,15.75,4,0.75,Stimuli/P018/sun_aibvvqlmlsjnrgdj.jpg,0,0,0.0,0,23,23,23,,,,,,,,,,,,,15.014505200000713,0.014505200000712648,None,41.34741030000441,41.34741030000441,41.34741030000441,41.34741030000441,41.34741030000441,41.34741030000441,41.34741030000441,41.34741030000441,41.34741030000441,41.34741030000441,,005,P018,2025_Mar_07_1819,ConditionRich,2021.2.3,59.94797714622766,
15.75,16.0,41,0.0,Stimuli/Blank.png,0,0,0.0,0,24,24,24,,,,,,,,,,,,,15.779322800000955,0.029322800000954885,None,42.09808670000348,42.09808670000348,42.09808670000348,42.09808670000348,42.09808670000348,42.09808670000348,42.09808670000348,42.09808670000348,42.09808670000348,42.09808670000348,,005,P018,2025_Mar_07_1819,ConditionRich,2021.2.3,59.94797714622766,
16.0,16.75,22,0.75,Stimuli/P018/things_boat_09s.jpg,0,0,0.0,0,25,25,25,,,,,,,,,,,,,16.015636899996025,0.015636899996025022,None,42.34829570000147,42.34829570000147,42.34829570000147,42.34829570000147,42.34829570000147,42.34829570000147,42.34829570000147,42.34829570000147,42.34829570000147,42.34829570000147,,005,P018,2025_Mar_07_1819,ConditionRich,2021.2.3,59.94797714622766,
16.75,17.0,41,0.0,Stimuli/Blank.png,0,0,0.0,0,26,26,26,,,,,,,,,,,,,16.764696799997182,0.014696799997182097,None,43.082277300003625,43.082277300003625,43.082277300003625,43.082277300003625,43.082277300003625,43.082277300003625,43.082277300003625,43.082277300003625,43.082277300003625,43.082277300003625,,005,P018,2025_Mar_07_1819,ConditionRich,2021.2.3,59.94797714622766,
17.0,17.75,22,0.75,Stimuli/P018/things_boat_09s.jpg,0,0,0.0,0,27,27,27,,,,,,,,,,,,,17.01378200000181,0.013782000001810957,None,43.3324747000006,43.3324747000006,43.3324747000006,43.3324747000006,43.3324747000006,43.3324747000006,43.3324747000006,43.3324747000006,43.3324747000006,43.3324747000006,,005,P018,2025_Mar_07_1819,ConditionRich,2021.2.3,59.94797714622766,
17.75,18.0,41,0.0,Stimuli/Blank.png,0,0,0.0,0,28,28,28,,,,,,,,,,,,,17.76557099999627,0.015570999996270984,None,44.0998333000025,44.0998333000025,44.0998333000025,44.0998333000025,44.0998333000025,44.0998333000025,44.0998333000025,44.0998333000025,44.0998333000025,44.0998333000025,,005,P018,2025_Mar_07_1819,ConditionRich,2021.2.3,59.94797714622766,
18.0,18.75,22,0.75,Stimuli/P018/things_boat_09s.jpg,0,0,0.0,0,29,29,29,,,,,,,,,,,,,18.016274800000247,0.016274800000246614,None,44.3500583999994,44.3500583999994,44.3500583999994,44.3500583999994,44.3500583999994,44.3500583999994,44.3500583999994,44.3500583999994,44.3500583999994,44.3500583999994,,005,P018,2025_Mar_07_1819,ConditionRich,2021.2.3,59.94797714622766,
18.75,19.0,41,0.0,Stimuli/Blank.png,0,0,0.0,0,30,30,30,,,,,,,,,,,,,18.765888299996732,0.015888299996731803,None,45.08403350000299,45.08403350000299,45.08403350000299,45.08403350000299,45.08403350000299,45.08403350000299,45.08403350000299,45.08403350000299,45.08403350000299,45.08403350000299,,005,P018,2025_Mar_07_1819,ConditionRich,2021.2.3,59.94797714622766,
19.0,19.75,22,0.75,Stimuli/P018/things_boat_09s.jpg,0,0,0.0,0,31,31,31,,,,,,,,,,,,,18.999400299995614,-0.0005997000043862499,None,45.334262700002,45.334262700002,45.334262700002,45.334262700002,45.334262700002,45.334262700002,45.334262700002,45.334262700002,45.334262700002,45.334262700002,,005,P018,2025_Mar_07_1819,ConditionRich,2021.2.3,59.94797714622766,
19.75,20.0,41,0.0,Stimuli/Blank.png,0,0,0.0,0,32,32,32,,,,,,,,,,,,,19.766482400002133,0.016482400002132636,None,46.0849187000058,46.0849187000058,46.0849187000058,46.0849187000058,46.0849187000058,46.0849187000058,46.0849187000058,46.0849187000058,46.0849187000058,46.0849187000058,,005,P018,2025_Mar_07_1819,ConditionRich,2021.2.3,59.94797714622766,
20.0,20.75,15,0.75,Stimuli/P018/sun_bobznlnnzwznersx.jpg,0,0,0.0,0,33,33,33,,,,,,,,,,,,,19.999953300000925,-4.669999907491729e-05,None,46.318489500001306,46.318489500001306,46.318489500001306,46.318489500001306,46.318489500001306,46.318489500001306,46.318489500001306,46.318489500001306,46.318489500001306,46.318489500001306,,005,P018,2025_Mar_07_1819,ConditionRich,2021.2.3,59.94797714622766,
20.75,21.0,41,0.0,Stimuli/Blank.png,0,0,0.0,0,34,34,34,,,,,,,,,,,,,20.750378500000807,0.00037850000080652535,None,47.0691461000024,47.0691461000024,47.0691461000024,47.0691461000024,47.0691461000024,47.0691461000024,47.0691461000024,47.0691461000024,47.0691461000024,47.0691461000024,,005,P018,2025_Mar_07_1819,ConditionRich,2021.2.3,59.94797714622766,
21.0,21.75,15,0.75,Stimuli/P018/sun_bobznlnnzwznersx.jpg,0,0,0.0,0,35,35,35,,,,,,,,,,,,,21.001559199998155,0.0015591999981552362,None,47.31933250000293,47.31933250000293,47.31933250000293,47.31933250000293,47.31933250000293,47.31933250000293,47.31933250000293,47.31933250000293,47.31933250000293,47.31933250000293,,005,P018,2025_Mar_07_1819,ConditionRich,2021.2.3,59.94797714622766,
21.75,22.0,41,0.0,Stimuli/Blank.png,0,0,0.0,0,36,36,36,,,,,,,,,,,,,21.75173270000232,0.0017327000023215078,None,48.070086400002765,48.070086400002765,48.070086400002765,48.070086400002765,48.070086400002765,48.070086400002765,48.070086400002765,48.070086400002765,48.070086400002765,48.070086400002765,,005,P018,2025_Mar_07_1819,ConditionRich,2021.2.3,59.94797714622766,
22.0,22.75,15,0.75,Stimuli/P018/sun_bobznlnnzwznersx.jpg,0,0,0.0,0,37,37,37,,,,,,,,,,,,,22.001603899996553,0.001603899996553082,None,48.320226900003036,48.320226900003036,48.320226900003036,48.320226900003036,48.320226900003036,48.320226900003036,48.320226900003036,48.320226900003036,48.320226900003036,48.320226900003036,,005,P018,2025_Mar_07_1819,ConditionRich,2021.2.3,59.94797714622766,
22.75,23.0,41,0.0,Stimuli/Blank.png,0,0,0.0,0,38,38,38,,,,,,,,,,,,,22.75275949999923,0.002759499999228865,None,49.07091120000405,49.07091120000405,49.07091120000405,49.07091120000405,49.07091120000405,49.07091120000405,49.07091120000405,49.07091120000405,49.07091120000405,49.07091120000405,,005,P018,2025_Mar_07_1819,ConditionRich,2021.2.3,59.94797714622766,
23.0,23.75,15,0.75,Stimuli/P018/sun_bobznlnnzwznersx.jpg,0,0,0.0,0,39,39,39,,,,,,,,,,,,,23.00241709999682,0.002417099996819161,None,49.33781080000335,49.33781080000335,49.33781080000335,49.33781080000335,49.33781080000335,49.33781080000335,49.33781080000335,49.33781080000335,49.33781080000335,49.33781080000335,,005,P018,2025_Mar_07_1819,ConditionRich,2021.2.3,59.94797714622766,
23.75,24.0,41,0.0,Stimuli/Blank.png,0,0,0.0,0,40,40,40,,,,,,,,,,,,,23.770281199998863,0.020281199998862576,None,50.08846410000115,50.08846410000115,50.08846410000115,50.08846410000115,50.08846410000115,50.08846410000115,50.08846410000115,50.08846410000115,50.08846410000115,50.08846410000115,,005,P018,2025_Mar_07_1819,ConditionRich,2021.2.3,59.94797714622766,
24.0,24.75,8,0.75,Stimuli/P018/sun_axsmqyyvebrcuhkn.jpg,0,0,0.0,0,41,41,41,,,,,,,,,,,,,24.003645400000096,0.003645400000095833,None,50.32199600000604,50.32199600000604,50.32199600000604,50.32199600000604,50.32199600000604,50.32199600000604,50.32199600000604,50.32199600000604,50.32199600000604,50.32199600000604,,005,P018,2025_Mar_07_1819,ConditionRich,2021.2.3,59.94797714622766,
24.75,25.0,41,0.0,Stimuli/Blank.png,0,0,0.0,0,42,42,42,,,,,,,,,,,,,24.753713300000527,0.0037133000005269423,None,51.07265770000231,51.07265770000231,51.07265770000231,51.07265770000231,51.07265770000231,51.07265770000231,51.07265770000231,51.07265770000231,51.07265770000231,51.07265770000231,,005,P018,2025_Mar_07_1819,ConditionRich,2021.2.3,59.94797714622766,
25.0,25.75,8,0.75,Stimuli/P018/sun_axsmqyyvebrcuhkn.jpg,0,0,0.0,0,43,43,43,,,,,,,,,,,,,25.004130900000746,0.004130900000745896,None,51.3228814000031,51.3228814000031,51.3228814000031,51.3228814000031,51.3228814000031,51.3228814000031,51.3228814000031,51.3228814000031,51.3228814000031,51.3228814000031,,005,P018,2025_Mar_07_1819,ConditionRich,2021.2.3,59.94797714622766,
25.75,26.0,41,0.0,Stimuli/Blank.png,0,0,0.0,0,44,44,44,,,,,,,,,,,,,25.755306599996402,0.005306599996401928,None,52.07356440000149,52.07356440000149,52.07356440000149,52.07356440000149,52.07356440000149,52.07356440000149,52.07356440000149,52.07356440000149,52.07356440000149,52.07356440000149,,005,P018,2025_Mar_07_1819,ConditionRich,2021.2.3,59.94797714622766,
26.0,26.75,8,0.75,Stimuli/P018/sun_axsmqyyvebrcuhkn.jpg,0,0,0.0,0,45,45,45,,,,,,,,,,,,,26.005644899996696,0.00564489999669604,None,52.32377420000557,52.32377420000557,52.32377420000557,52.32377420000557,52.32377420000557,52.32377420000557,52.32377420000557,52.32377420000557,52.32377420000557,52.32377420000557,,005,P018,2025_Mar_07_1819,ConditionRich,2021.2.3,59.94797714622766,
26.75,27.0,41,0.0,Stimuli/Blank.png,0,0,0.0,0,46,46,46,,,,,,,,,,,,,26.75607019999734,0.006070199997338932,None,53.07443200000125,53.07443200000125,53.07443200000125,53.07443200000125,53.07443200000125,53.07443200000125,53.07443200000125,53.07443200000125,53.07443200000125,53.07443200000125,,005,P018,2025_Mar_07_1819,ConditionRich,2021.2.3,59.94797714622766,
27.0,27.75,8,0.75,Stimuli/P018/sun_axsmqyyvebrcuhkn.jpg,0,0,0.0,0,47,47,47,,,,,,,,,,,,,27.006270899997617,0.006270899997616652,None,53.341351400005806,53.341351400005806,53.341351400005806,53.341351400005806,53.341351400005806,53.341351400005806,53.341351400005806,53.341351400005806,53.341351400005806,53.341351400005806,,005,P018,2025_Mar_07_1819,ConditionRich,2021.2.3,59.94797714622766,
27.75,28.0,41,0.0,Stimuli/Blank.png,0,0,0.0,0,48,48,48,,,,,,,,,,,,,27.773740899996483,0.023740899996482767,None,54.09200350000174,54.09200350000174,54.09200350000174,54.09200350000174,54.09200350000174,54.09200350000174,54.09200350000174,54.09200350000174,54.09200350000174,54.09200350000174,,005,P018,2025_Mar_07_1819,ConditionRich,2021.2.3,59.94797714622766,
28.0,28.75,35,0.75,Stimuli/P018/things_lobster_09s.jpg,0,0,0.0,0,49,49,49,,,,,,,,,,,,,28.00693350000074,0.006933500000741333,None,54.32553639999969,54.32553639999969,54.32553639999969,54.32553639999969,54.32553639999969,54.32553639999969,54.32553639999969,54.32553639999969,54.32553639999969,54.32553639999969,,005,P018,2025_Mar_07_1819,ConditionRich,2021.2.3,59.94797714622766,
28.75,29.0,41,0.0,Stimuli/Blank.png,0,0,0.0,0,50,50,50,,,,,,,,,,,,,28.757349699997576,0.007349699997575954,None,55.07619830000476,55.07619830000476,55.07619830000476,55.07619830000476,55.07619830000476,55.07619830000476,55.07619830000476,55.07619830000476,55.07619830000476,55.07619830000476,,005,P018,2025_Mar_07_1819,ConditionRich,2021.2.3,59.94797714622766,
29.0,29.75,35,0.75,Stimuli/P018/things_lobster_09s.jpg,0,0,0.0,0,51,51,51,,,,,,,,,,,,,29.01005240000086,0.010052400000859052,None,55.34314319999976,55.34314319999976,55.34314319999976,55.34314319999976,55.34314319999976,55.34314319999976,55.34314319999976,55.34314319999976,55.34314319999976,55.34314319999976,,005,P018,2025_Mar_07_1819,ConditionRich,2021.2.3,59.94797714622766,
29.75,30.0,41,0.0,Stimuli/Blank.png,0,0,0.0,0,52,52,52,,,,,,,,,,,,,29.775525299999572,0.02552529999957187,None,56.093781400006264,56.093781400006264,56.093781400006264,56.093781400006264,56.093781400006264,56.093781400006264,56.093781400006264,56.093781400006264,56.093781400006264,56.093781400006264,,005,P018,2025_Mar_07_1819,ConditionRich,2021.2.3,59.94797714622766,
30.0,30.75,35,0.75,Stimuli/P018/things_lobster_09s.jpg,0,0,0.0,0,53,53,53,,,,,,,,,,,,,30.008982400002424,0.008982400002423674,None,56.32730060000176,56.32730060000176,56.32730060000176,56.32730060000176,56.32730060000176,56.32730060000176,56.32730060000176,56.32730060000176,56.32730060000176,56.32730060000176,,005,P018,2025_Mar_07_1819,ConditionRich,2021.2.3,59.94797714622766,
30.75,31.0,41,0.0,Stimuli/Blank.png,0,0,0.0,0,54,54,54,,,,,,,,,,,,,30.760186300001806,0.010186300001805648,None,57.07797980000032,57.07797980000032,57.07797980000032,57.07797980000032,57.07797980000032,57.07797980000032,57.07797980000032,57.07797980000032,57.07797980000032,57.07797980000032,,005,P018,2025_Mar_07_1819,ConditionRich,2021.2.3,59.94797714622766,
31.0,31.75,35,0.75,Stimuli/P018/things_lobster_09s.jpg,0,0,0.0,0,55,55,55,,,,,,,,,,,,,31.010520700001507,0.010520700001507066,None,57.344872600006056,57.344872600006056,57.344872600006056,57.344872600006056,57.344872600006056,57.344872600006056,57.344872600006056,57.344872600006056,57.344872600006056,57.344872600006056,,005,P018,2025_Mar_07_1819,ConditionRich,2021.2.3,59.94797714622766,
31.75,32.0,41,0.0,Stimuli/Blank.png,0,0,0.0,0,56,56,56,,,,,,,,,,,,,31.77981059999729,0.02981059999729041,None,58.11224810000567,58.11224810000567,58.11224810000567,58.11224810000567,58.11224810000567,58.11224810000567,58.11224810000567,58.11224810000567,58.11224810000567,58.11224810000567,,005,P018,2025_Mar_07_1819,ConditionRich,2021.2.3,59.94797714622766,
32.0,32.75,38,0.75,Stimuli/P018/things_pony_09s.jpg,0,0,0.0,0,57,57,57,,,,,,,,,,,,,32.02947860000131,0.02947860000131186,None,58.36244129999977,58.36244129999977,58.36244129999977,58.36244129999977,58.36244129999977,58.36244129999977,58.36244129999977,58.36244129999977,58.36244129999977,58.36244129999977,,005,P018,2025_Mar_07_1819,ConditionRich,2021.2.3,59.94797714622766,
32.75,33.0,41,0.0,Stimuli/Blank.png,0,0,0.0,0,58,58,58,,,,,,,,,,,,,32.778968300001,0.02896830000099726,None,59.0964363000021,59.0964363000021,59.0964363000021,59.0964363000021,59.0964363000021,59.0964363000021,59.0964363000021,59.0964363000021,59.0964363000021,59.0964363000021,,005,P018,2025_Mar_07_1819,ConditionRich,2021.2.3,59.94797714622766,
33.0,33.75,38,0.75,Stimuli/P018/things_pony_09s.jpg,0,0,0.0,0,59,59,59,,,,,,,,,,,,,33.01176139999734,0.01176139999734005,None,59.346662600000855,59.346662600000855,59.346662600000855,59.346662600000855,59.346662600000855,59.346662600000855,59.346662600000855,59.346662600000855,59.346662600000855,59.346662600000855,,005,P018,2025_Mar_07_1819,ConditionRich,2021.2.3,59.94797714622766,
33.75,34.0,41,0.0,Stimuli/Blank.png,0,0,0.0,0,60,60,60,,,,,,,,,,,,,33.77915309999662,0.029153099996619858,None,60.0973124000011,60.0973124000011,60.0973124000011,60.0973124000011,60.0973124000011,60.0973124000011,60.0973124000011,60.0973124000011,60.0973124000011,60.0973124000011,,005,P018,2025_Mar_07_1819,ConditionRich,2021.2.3,59.94797714622766,
34.0,34.75,38,0.75,Stimuli/P018/things_pony_09s.jpg,0,0,0.0,0,61,61,61,,,,,,,,,,,,,34.01207730000169,0.012077300001692493,None,60.34756000000198,60.34756000000198,60.34756000000198,60.34756000000198,60.34756000000198,60.34756000000198,60.34756000000198,60.34756000000198,60.34756000000198,60.34756000000198,,005,P018,2025_Mar_07_1819,ConditionRich,2021.2.3,59.94797714622766,
34.75,35.0,41,0.0,Stimuli/Blank.png,0,0,0.0,0,62,62,62,,,,,,,,,,,,,34.77994929999841,0.029949299998406786,None,61.09820340000442,61.09820340000442,61.09820340000442,61.09820340000442,61.09820340000442,61.09820340000442,61.09820340000442,61.09820340000442,61.09820340000442,61.09820340000442,,005,P018,2025_Mar_07_1819,ConditionRich,2021.2.3,59.94797714622766,
35.0,35.75,38,0.75,Stimuli/P018/things_pony_09s.jpg,0,0,0.0,0,63,63,63,,,,,,,,,,,,,35.014849799998046,0.014849799998046365,None,61.34842230000504,61.34842230000504,61.34842230000504,61.34842230000504,61.34842230000504,61.34842230000504,61.34842230000504,61.34842230000504,61.34842230000504,61.34842230000504,,005,P018,2025_Mar_07_1819,ConditionRich,2021.2.3,59.94797714622766,
35.75,36.0,41,0.0,Stimuli/Blank.png,0,0,0.0,0,64,64,64,,,,,,,,,,,,,35.780818699997326,0.030818699997325893,None,62.09908500000165,62.09908500000165,62.09908500000165,62.09908500000165,62.09908500000165,62.09908500000165,62.09908500000165,62.09908500000165,62.09908500000165,62.09908500000165,,005,P018,2025_Mar_07_1819,ConditionRich,2021.2.3,59.94797714622766,
36.0,36.75,6,0.75,Stimuli/P018/sun_atuyvunnykjurjgx.jpg,0,0,0.0,0,65,65,65,,,,,,,,,,,,,36.01444259999698,0.014442599996982608,None,62.34930410000379,62.34930410000379,62.34930410000379,62.34930410000379,62.34930410000379,62.34930410000379,62.34930410000379,62.34930410000379,62.34930410000379,62.34930410000379,,005,P018,2025_Mar_07_1819,ConditionRich,2021.2.3,59.94797714622766,
36.75,37.0,41,0.0,Stimuli/Blank.png,0,0,0.0,0,66,66,66,,,,,,,,,,,,,36.7811023999966,0.03110239999659825,None,63.0999570999993,63.0999570999993,63.0999570999993,63.0999570999993,63.0999570999993,63.0999570999993,63.0999570999993,63.0999570999993,63.0999570999993,63.0999570999993,,005,P018,2025_Mar_07_1819,ConditionRich,2021.2.3,59.94797714622766,
37.0,37.75,6,0.75,Stimuli/P018/sun_atuyvunnykjurjgx.jpg,0,0,0.0,0,67,67,67,,,,,,,,,,,,,37.01556079999864,0.015560799998638686,None,63.33351050000056,63.33351050000056,63.33351050000056,63.33351050000056,63.33351050000056,63.33351050000056,63.33351050000056,63.33351050000056,63.33351050000056,63.33351050000056,,005,P018,2025_Mar_07_1819,ConditionRich,2021.2.3,59.94797714622766,
37.75,38.0,41,0.0,Stimuli/Blank.png,0,0,0.0,0,68,68,68,,,,,,,,,,,,,37.74884870000096,-0.0011512999990372919,None,64.0674685000049,64.0674685000049,64.0674685000049,64.0674685000049,64.0674685000049,64.0674685000049,64.0674685000049,64.0674685000049,64.0674685000049,64.0674685000049,,005,P018,2025_Mar_07_1819,ConditionRich,2021.2.3,59.94797714622766,
38.0,38.75,6,0.75,Stimuli/P018/sun_atuyvunnykjurjgx.jpg,0,0,0.0,0,69,69,69,,,,,,,,,,,,,37.99947709999833,-0.0005229000016697682,None,64.31770510000206,64.31770510000206,64.31770510000206,64.31770510000206,64.31770510000206,64.31770510000206,64.31770510000206,64.31770510000206,64.31770510000206,64.31770510000206,,005,P018,2025_Mar_07_1819,ConditionRich,2021.2.3,59.94797714622766,
38.75,39.0,41,0.0,Stimuli/Blank.png,0,0,0.0,0,70,70,70,,,,,,,,,,,,,38.75038079999649,0.00038079999649198726,None,65.06838180000341,65.06838180000341,65.06838180000341,65.06838180000341,65.06838180000341,65.06838180000341,65.06838180000341,65.06838180000341,65.06838180000341,65.06838180000341,,005,P018,2025_Mar_07_1819,ConditionRich,2021.2.3,59.94797714622766,
39.0,39.75,6,0.75,Stimuli/P018/sun_atuyvunnykjurjgx.jpg,0,0,0.0,0,71,71,71,,,,,,,,,,,,,39.00047900000209,0.00047900000208755955,None,65.33526390000043,65.33526390000043,65.33526390000043,65.33526390000043,65.33526390000043,65.33526390000043,65.33526390000043,65.33526390000043,65.33526390000043,65.33526390000043,,005,P018,2025_Mar_07_1819,ConditionRich,2021.2.3,59.94797714622766,
39.75,40.0,41,0.0,Stimuli/Blank.png,0,0,0.0,0,72,72,72,,,,,,,,,,,,,39.769967899999756,0.0199678999997559,None,66.10263540000597,66.10263540000597,66.10263540000597,66.10263540000597,66.10263540000597,66.10263540000597,66.10263540000597,66.10263540000597,66.10263540000597,66.10263540000597,,005,P018,2025_Mar_07_1819,ConditionRich,2021.2.3,59.94797714622766,
40.0,40.75,5,0.75,Stimuli/P018/sun_apojgqgvdvsksdvo.jpg,0,0,0.0,0,73,73,73,,,,,,,,,,,,,40.01883500000258,0.018835000002582092,None,66.35284270000557,66.35284270000557,66.35284270000557,66.35284270000557,66.35284270000557,66.35284270000557,66.35284270000557,66.35284270000557,66.35284270000557,66.35284270000557,,005,P018,2025_Mar_07_1819,ConditionRich,2021.2.3,59.94797714622766,
40.75,41.0,41,0.0,Stimuli/Blank.png,0,0,0.0,0,74,74,74,,,,,,,,,,,,,40.76914840000245,0.019148400002450217,None,67.08682970000518,67.08682970000518,67.08682970000518,67.08682970000518,67.08682970000518,67.08682970000518,67.08682970000518,67.08682970000518,67.08682970000518,67.08682970000518,,005,P018,2025_Mar_07_1819,ConditionRich,2021.2.3,59.94797714622766,
41.0,41.75,5,0.75,Stimuli/P018/sun_apojgqgvdvsksdvo.jpg,0,0,0.0,0,75,75,75,,,,,,,,,,,,,41.001477999998315,0.0014779999983147718,None,67.33705990000453,67.33705990000453,67.33705990000453,67.33705990000453,67.33705990000453,67.33705990000453,67.33705990000453,67.33705990000453,67.33705990000453,67.33705990000453,,005,P018,2025_Mar_07_1819,ConditionRich,2021.2.3,59.94797714622766,
41.75,42.0,41,0.0,Stimuli/Blank.png,0,0,0.0,0,76,76,76,,,,,,,,,,,,,41.76879679999547,0.018796799995470792,None,68.08767990000342,68.08767990000342,68.08767990000342,68.08767990000342,68.08767990000342,68.08767990000342,68.08767990000342,68.08767990000342,68.08767990000342,68.08767990000342,,005,P018,2025_Mar_07_1819,ConditionRich,2021.2.3,59.94797714622766,
42.0,42.75,5,0.75,Stimuli/P018/sun_apojgqgvdvsksdvo.jpg,0,0,0.0,0,77,77,77,,,,,,,,,,,,,42.00333849999879,0.003338499998790212,None,68.3379225000026,68.3379225000026,68.3379225000026,68.3379225000026,68.3379225000026,68.3379225000026,68.3379225000026,68.3379225000026,68.3379225000026,68.3379225000026,,005,P018,2025_Mar_07_1819,ConditionRich,2021.2.3,59.94797714622766,
42.75,43.0,41,0.0,Stimuli/Blank.png,0,0,0.0,0,78,78,78,,,,,,,,,,,,,42.77168169999641,0.021681699996406678,None,69.08860719999939,69.08860719999939,69.08860719999939,69.08860719999939,69.08860719999939,69.08860719999939,69.08860719999939,69.08860719999939,69.08860719999939,69.08860719999939,,005,P018,2025_Mar_07_1819,ConditionRich,2021.2.3,59.94797714622766,
43.0,43.75,5,0.75,Stimuli/P018/sun_apojgqgvdvsksdvo.jpg,0,0,0.0,0,79,79,79,,,,,,,,,,,,,43.00340889999643,0.0034088999964296818,None,69.3221188000025,69.3221188000025,69.3221188000025,69.3221188000025,69.3221188000025,69.3221188000025,69.3221188000025,69.3221188000025,69.3221188000025,69.3221188000025,,005,P018,2025_Mar_07_1819,ConditionRich,2021.2.3,59.94797714622766,
43.75,44.0,41,0.0,Stimuli/Blank.png,0,0,0.0,0,80,80,80,,,,,,,,,,,,,43.753875000002154,0.0038750000021536835,None,70.0727865000008,70.0727865000008,70.0727865000008,70.0727865000008,70.0727865000008,70.0727865000008,70.0727865000008,70.0727865000008,70.0727865000008,70.0727865000008,,005,P018,2025_Mar_07_1819,ConditionRich,2021.2.3,59.94797714622766,
44.0,44.75,3,0.75,Stimuli/P018/sun_acymmczhyuiimeub.jpg,0,0,0.0,0,81,81,81,,,,,,,,,,,,,44.00494520000211,0.00494520000211196,None,70.33971020000172,70.33971020000172,70.33971020000172,70.33971020000172,70.33971020000172,70.33971020000172,70.33971020000172,70.33971020000172,70.33971020000172,70.33971020000172,,005,P018,2025_Mar_07_1819,ConditionRich,2021.2.3,59.94797714622766,
44.75,45.0,41,0.0,Stimuli/Blank.png,0,0,0.0,0,82,82,82,,,,,,,,,,,,,44.77233709999564,0.02233709999563871,None,71.09037580000586,71.09037580000586,71.09037580000586,71.09037580000586,71.09037580000586,71.09037580000586,71.09037580000586,71.09037580000586,71.09037580000586,71.09037580000586,,005,P018,2025_Mar_07_1819,ConditionRich,2021.2.3,59.94797714622766,
45.0,45.75,3,0.75,Stimuli/P018/sun_acymmczhyuiimeub.jpg,0,0,0.0,0,83,83,83,,,,,,,,,,,,,45.00560509999923,0.005605099999229424,None,71.32389970000077,71.32389970000077,71.32389970000077,71.32389970000077,71.32389970000077,71.32389970000077,71.32389970000077,71.32389970000077,71.32389970000077,71.32389970000077,,005,P018,2025_Mar_07_1819,ConditionRich,2021.2.3,59.94797714622766,
45.75,46.0,41,0.0,Stimuli/Blank.png,0,0,0.0,0,84,84,84,,,,,,,,,,,,,45.75607149999996,0.006071499999961816,None,72.07455330000084,72.07455330000084,72.07455330000084,72.07455330000084,72.07455330000084,72.07455330000084,72.07455330000084,72.07455330000084,72.07455330000084,72.07455330000084,,005,P018,2025_Mar_07_1819,ConditionRich,2021.2.3,59.94797714622766,
46.0,46.75,3,0.75,Stimuli/P018/sun_acymmczhyuiimeub.jpg,1,0,0.75,0,85,85,85,,,,,,,,,,,,,46.00682389999565,0.006823899995652027,2,72.32479620000231,72.32479620000231,72.32479620000231,72.32479620000231,72.32479620000231,72.32479620000231,72.32479620000231,73.05874960000074,72.32479620000231,72.32479620000231,0.4844758000035654,005,P018,2025_Mar_07_1819,ConditionRich,2021.2.3,59.94797714622766,
46.75,47.0,41,0.0,Stimuli/Blank.png,0,0,0.0,0,86,86,86,,,,,,,,,,,,,46.759858699995675,0.009858699995675124,None,73.09214430000429,73.09214430000429,73.09214430000429,73.09214430000429,73.09214430000429,73.09214430000429,73.09214430000429,73.09214430000429,73.09214430000429,73.09214430000429,,005,P018,2025_Mar_07_1819,ConditionRich,2021.2.3,59.94797714622766,
47.0,47.75,3,0.75,Stimuli/P018/sun_acymmczhyuiimeub.jpg,0,0,0.0,0,87,87,87,,,,,,,,,,,,,47.024383999996644,0.02438399999664398,None,73.35900740000216,73.35900740000216,73.35900740000216,73.35900740000216,73.35900740000216,73.35900740000216,73.35900740000216,73.35900740000216,73.35900740000216,73.35900740000216,,005,P018,2025_Mar_07_1819,ConditionRich,2021.2.3,59.94797714622766,
47.75,48.0,41,0.0,Stimuli/Blank.png,0,0,0.0,0,88,88,88,,,,,,,,,,,,,47.77492849999544,0.02492849999543978,None,74.09305339999992,74.09305339999992,74.09305339999992,74.09305339999992,74.09305339999992,74.09305339999992,74.09305339999992,74.09305339999992,74.09305339999992,74.09305339999992,,005,P018,2025_Mar_07_1819,ConditionRich,2021.2.3,59.94797714622766,
48.0,48.75,36,0.75,Stimuli/P018/things_nest_09s.jpg,0,0,0.0,0,89,89,89,,,,,,,,,,,,,48.00973140000133,0.009731400001328439,None,74.34323830000358,74.34323830000358,74.34323830000358,74.34323830000358,74.34323830000358,74.34323830000358,74.34323830000358,74.34323830000358,74.34323830000358,74.34323830000358,,005,P018,2025_Mar_07_1819,ConditionRich,2021.2.3,59.94797714622766,
48.75,49.0,41,0.0,Stimuli/Blank.png,0,0,0.0,0,90,90,90,,,,,,,,,,,,,48.77585079999699,0.025850799996987917,None,75.09388990000298,75.09388990000298,75.09388990000298,75.09388990000298,75.09388990000298,75.09388990000298,75.09388990000298,75.09388990000298,75.09388990000298,75.09388990000298,,005,P018,2025_Mar_07_1819,ConditionRich,2021.2.3,59.94797714622766,
49.0,49.75,36,0.75,Stimuli/P018/things_nest_09s.jpg,0,0,0.0,0,91,91,91,,,,,,,,,,,,,49.00858889999654,0.008588899996539112,None,75.32742700000381,75.32742700000381,75.32742700000381,75.32742700000381,75.32742700000381,75.32742700000381,75.32742700000381,75.32742700000381,75.32742700000381,75.32742700000381,,005,P018,2025_Mar_07_1819,ConditionRich,2021.2.3,59.94797714622766,
49.75,50.0,41,0.0,Stimuli/Blank.png,0,0,0.0,0,92,92,92,,,,,,,,,,,,,49.7603483999992,0.010348399999202229,None,76.0780992,76.0780992,76.0780992,76.0780992,76.0780992,76.0780992,76.0780992,76.0780992,76.0780992,76.0780992,,005,P018,2025_Mar_07_1819,ConditionRich,2021.2.3,59.94797714622766,
50.0,50.75,36,0.75,Stimuli/P018/things_nest_09s.jpg,0,0,0.0,0,93,93,93,,,,,,,,,,,,,50.00995259999763,0.009952599997632205,None,76.3283417000057,76.3283417000057,76.3283417000057,76.3283417000057,76.3283417000057,76.3283417000057,76.3283417000057,76.3283417000057,76.3283417000057,76.3283417000057,,005,P018,2025_Mar_07_1819,ConditionRich,2021.2.3,59.94797714622766,
50.75,51.0,41,0.0,Stimuli/Blank.png,0,0,0.0,0,94,94,94,,,,,,,,,,,,,50.76023469999927,0.010234699999273289,None,77.07898040000146,77.07898040000146,77.07898040000146,77.07898040000146,77.07898040000146,77.07898040000146,77.07898040000146,77.07898040000146,77.07898040000146,77.07898040000146,,005,P018,2025_Mar_07_1819,ConditionRich,2021.2.3,59.94797714622766,
51.0,51.75,36,0.75,Stimuli/P018/things_nest_09s.jpg,0,0,0.0,0,95,95,95,,,,,,,,,,,,,51.01033730000199,0.010337300001992844,None,77.3292189000058,77.3292189000058,77.3292189000058,77.3292189000058,77.3292189000058,77.3292189000058,77.3292189000058,77.3292189000058,77.3292189000058,77.3292189000058,,005,P018,2025_Mar_07_1819,ConditionRich,2021.2.3,59.94797714622766,
51.75,52.0,41,0.0,Stimuli/Blank.png,0,0,0.0,0,96,96,96,,,,,,,,,,,,,51.76112699999794,0.011126999997941311,None,78.0798747000008,78.0798747000008,78.0798747000008,78.0798747000008,78.0798747000008,78.0798747000008,78.0798747000008,78.0798747000008,78.0798747000008,78.0798747000008,,005,P018,2025_Mar_07_1819,ConditionRich,2021.2.3,59.94797714622766,
52.0,52.75,27,0.75,Stimuli/P018/things_coffin_09s.jpg,0,0,0.0,0,97,97,97,,,,,,,,,,,,,52.01197289999982,0.011972899999818765,None,78.34680110000045,78.34680110000045,78.34680110000045,78.34680110000045,78.34680110000045,78.34680110000045,78.34680110000045,78.34680110000045,78.34680110000045,78.34680110000045,,005,P018,2025_Mar_07_1819,ConditionRich,2021.2.3,59.94797714622766,
52.75,53.0,41,0.0,Stimuli/Blank.png,0,0,0.0,0,98,98,98,,,,,,,,,,,,,52.77921509999578,0.029215099995781202,None,79.09743330000492,79.09743330000492,79.09743330000492,79.09743330000492,79.09743330000492,79.09743330000492,79.09743330000492,79.09743330000492,79.09743330000492,79.09743330000492,,005,P018,2025_Mar_07_1819,ConditionRich,2021.2.3,59.94797714622766,
53.0,53.75,27,0.75,Stimuli/P018/things_coffin_09s.jpg,0,0,0.0,0,99,99,99,,,,,,,,,,,,,53.01307029999589,0.01307029999588849,None,79.34766240000317,79.34766240000317,79.34766240000317,79.34766240000317,79.34766240000317,79.34766240000317,79.34766240000317,79.34766240000317,79.34766240000317,79.34766240000317,,005,P018,2025_Mar_07_1819,ConditionRich,2021.2.3,59.94797714622766,
53.75,54.0,41,0.0,Stimuli/Blank.png,0,0,0.0,0,100,100,100,,,,,,,,,,,,,53.780138900001475,0.030138900001475122,None,80.0983211000057,80.0983211000057,80.0983211000057,80.0983211000057,80.0983211000057,80.0983211000057,80.0983211000057,80.0983211000057,80.0983211000057,80.0983211000057,,005,P018,2025_Mar_07_1819,ConditionRich,2021.2.3,59.94797714622766,
54.0,54.75,27,0.75,Stimuli/P018/things_coffin_09s.jpg,0,0,0.0,0,101,101,101,,,,,,,,,,,,,54.01506530000188,0.015065300001879223,None,80.34857159999956,80.34857159999956,80.34857159999956,80.34857159999956,80.34857159999956,80.34857159999956,80.34857159999956,80.34857159999956,80.34857159999956,80.34857159999956,,005,P018,2025_Mar_07_1819,ConditionRich,2021.2.3,59.94797714622766,
54.75,55.0,41,0.0,Stimuli/Blank.png,0,0,0.0,0,102,102,102,,,,,,,,,,,,,54.76466380000056,0.014663800000562333,None,81.08253120000154,81.08253120000154,81.08253120000154,81.08253120000154,81.08253120000154,81.08253120000154,81.08253120000154,81.08253120000154,81.08253120000154,81.08253120000154,,005,P018,2025_Mar_07_1819,ConditionRich,2021.2.3,59.94797714622766,
55.0,55.75,27,0.75,Stimuli/P018/things_coffin_09s.jpg,0,0,0.0,0,103,103,103,,,,,,,,,,,,,55.0138478000008,0.013847800000803545,None,81.33273480000207,81.33273480000207,81.33273480000207,81.33273480000207,81.33273480000207,81.33273480000207,81.33273480000207,81.33273480000207,81.33273480000207,81.33273480000207,,005,P018,2025_Mar_07_1819,ConditionRich,2021.2.3,59.94797714622766,
55.75,56.0,41,0.0,Stimuli/Blank.png,0,0,0.0,0,104,104,104,,,,,,,,,,,,,55.765686599996116,0.015686599996115547,None,82.0834113000019,82.0834113000019,82.0834113000019,82.0834113000019,82.0834113000019,82.0834113000019,82.0834113000019,82.0834113000019,82.0834113000019,82.0834113000019,,005,P018,2025_Mar_07_1819,ConditionRich,2021.2.3,59.94797714622766,
56.0,56.75,9,0.75,Stimuli/P018/sun_ayidxslzurdumeps.jpg,0,0,0.0,0,105,105,105,,,,,,,,,,,,,55.999523699996644,-0.0004763000033563003,None,82.33366670000396,82.33366670000396,82.33366670000396,82.33366670000396,82.33366670000396,82.33366670000396,82.33366670000396,82.33366670000396,82.33366670000396,82.33366670000396,,005,P018,2025_Mar_07_1819,ConditionRich,2021.2.3,59.94797714622766,
56.75,57.0,41,0.0,Stimuli/Blank.png,0,0,0.0,0,106,106,106,,,,,,,,,,,,,56.766002799995476,0.01600279999547638,None,83.0842976999993,83.0842976999993,83.0842976999993,83.0842976999993,83.0842976999993,83.0842976999993,83.0842976999993,83.0842976999993,83.0842976999993,83.0842976999993,,005,P018,2025_Mar_07_1819,ConditionRich,2021.2.3,59.94797714622766,
57.0,57.75,9,0.75,Stimuli/P018/sun_ayidxslzurdumeps.jpg,0,0,0.0,0,107,107,107,,,,,,,,,,,,,56.99895159999869,-0.0010484000013093464,None,83.31779800000368,83.31779800000368,83.31779800000368,83.31779800000368,83.31779800000368,83.31779800000368,83.31779800000368,83.31779800000368,83.31779800000368,83.31779800000368,,005,P018,2025_Mar_07_1819,ConditionRich,2021.2.3,59.94797714622766,
57.75,58.0,41,0.0,Stimuli/Blank.png,0,0,0.0,0,108,108,108,,,,,,,,,,,,,57.74966709999717,-0.00033290000283159316,None,84.0684934000019,84.0684934000019,84.0684934000019,84.0684934000019,84.0684934000019,84.0684934000019,84.0684934000019,84.0684934000019,84.0684934000019,84.0684934000019,,005,P018,2025_Mar_07_1819,ConditionRich,2021.2.3,59.94797714622766,
58.0,58.75,9,0.75,Stimuli/P018/sun_ayidxslzurdumeps.jpg,0,0,0.0,0,109,109,109,,,,,,,,,,,,,58.000373999995645,0.00037399999564513564,None,84.31868899999972,84.31868899999972,84.31868899999972,84.31868899999972,84.31868899999972,84.31868899999972,84.31868899999972,84.31868899999972,84.31868899999972,84.31868899999972,,005,P018,2025_Mar_07_1819,ConditionRich,2021.2.3,59.94797714622766,
58.75,59.0,41,0.0,Stimuli/Blank.png,0,0,0.0,0,110,110,110,,,,,,,,,,,,,58.75105330000224,0.0010533000022405759,None,85.06937940000353,85.06937940000353,85.06937940000353,85.06937940000353,85.06937940000353,85.06937940000353,85.06937940000353,85.06937940000353,85.06937940000353,85.06937940000353,,005,P018,2025_Mar_07_1819,ConditionRich,2021.2.3,59.94797714622766,
59.0,59.75,9,0.75,Stimuli/P018/sun_ayidxslzurdumeps.jpg,0,0,0.0,0,111,111,111,,,,,,,,,,,,,59.00085350000154,0.0008535000015399419,None,85.31959640000423,85.31959640000423,85.31959640000423,85.31959640000423,85.31959640000423,85.31959640000423,85.31959640000423,85.31959640000423,85.31959640000423,85.31959640000423,,005,P018,2025_Mar_07_1819,ConditionRich,2021.2.3,59.94797714622766,
59.75,60.0,41,0.0,Stimuli/Blank.png,0,0,0.0,0,112,112,112,,,,,,,,,,,,,59.7516237000018,0.0016237000018008985,None,86.07027150000067,86.07027150000067,86.07027150000067,86.07027150000067,86.07027150000067,86.07027150000067,86.07027150000067,86.07027150000067,86.07027150000067,86.07027150000067,,005,P018,2025_Mar_07_1819,ConditionRich,2021.2.3,59.94797714622766,
60.0,60.75,17,0.75,Stimuli/P018/sun_brhndfjxyigqgiwl.jpg,0,0,0.0,0,113,113,113,,,,,,,,,,,,,60.002256699997815,0.0022566999978153035,None,86.33718590000353,86.33718590000353,86.33718590000353,86.33718590000353,86.33718590000353,86.33718590000353,86.33718590000353,86.33718590000353,86.33718590000353,86.33718590000353,,005,P018,2025_Mar_07_1819,ConditionRich,2021.2.3,59.94797714622766,
60.75,61.0,41,0.0,Stimuli/Blank.png,0,0,0.0,0,114,114,114,,,,,,,,,,,,,60.770223100000294,0.020223100000293925,None,87.08783640000183,87.08783640000183,87.08783640000183,87.08783640000183,87.08783640000183,87.08783640000183,87.08783640000183,87.08783640000183,87.08783640000183,87.08783640000183,,005,P018,2025_Mar_07_1819,ConditionRich,2021.2.3,59.94797714622766,
61.0,61.75,17,0.75,Stimuli/P018/sun_brhndfjxyigqgiwl.jpg,0,0,0.0,0,115,115,115,,,,,,,,,,,,,61.005824899999425,0.005824899999424815,None,87.33807570000499,87.33807570000499,87.33807570000499,87.33807570000499,87.33807570000499,87.33807570000499,87.33807570000499,87.33807570000499,87.33807570000499,87.33807570000499,,005,P018,2025_Mar_07_1819,ConditionRich,2021.2.3,59.94797714622766,
61.75,62.0,41,0.0,Stimuli/Blank.png,0,0,0.0,0,116,116,116,,,,,,,,,,,,,61.7698034999994,0.0198034999993979,None,88.08871740000177,88.08871740000177,88.08871740000177,88.08871740000177,88.08871740000177,88.08871740000177,88.08871740000177,88.08871740000177,88.08871740000177,88.08871740000177,,005,P018,2025_Mar_07_1819,ConditionRich,2021.2.3,59.94797714622766,
62.0,62.75,17,0.75,Stimuli/P018/sun_brhndfjxyigqgiwl.jpg,0,0,0.0,0,117,117,117,,,,,,,,,,,,,62.00439699999697,0.004396999996970408,None,88.32225870000548,88.32225870000548,88.32225870000548,88.32225870000548,88.32225870000548,88.32225870000548,88.32225870000548,88.32225870000548,88.32225870000548,88.32225870000548,,005,P018,2025_Mar_07_1819,ConditionRich,2021.2.3,59.94797714622766,
62.75,63.0,41,0.0,Stimuli/Blank.png,0,0,0.0,0,118,118,118,,,,,,,,,,,,,62.755602099998214,0.0056020999982138164,None,89.08960440000374,89.08960440000374,89.08960440000374,89.08960440000374,89.08960440000374,89.08960440000374,89.08960440000374,89.08960440000374,89.08960440000374,89.08960440000374,,005,P018,2025_Mar_07_1819,ConditionRich,2021.2.3,59.94797714622766,
63.0,63.75,17,0.75,Stimuli/P018/sun_brhndfjxyigqgiwl.jpg,0,0,0.0,0,119,119,119,,,,,,,,,,,,,63.02098609999666,0.020986099996662233,None,89.3398254000058,89.3398254000058,89.3398254000058,89.3398254000058,89.3398254000058,89.3398254000058,89.3398254000058,89.3398254000058,89.3398254000058,89.3398254000058,,005,P018,2025_Mar_07_1819,ConditionRich,2021.2.3,59.94797714622766,
63.75,64.0,41,0.0,Stimuli/Blank.png,0,0,0.0,0,120,120,120,,,,,,,,,,,,,63.75621010000032,0.006210100000316743,None,90.07381230000465,90.07381230000465,90.07381230000465,90.07381230000465,90.07381230000465,90.07381230000465,90.07381230000465,90.07381230000465,90.07381230000465,90.07381230000465,,005,P018,2025_Mar_07_1819,ConditionRich,2021.2.3,59.94797714622766,
64.0,64.75,24,0.75,Stimuli/P018/things_breadbox_09s.jpg,0,0,0.0,0,121,121,121,,,,,,,,,,,,,64.00577519999933,0.005775199999334291,None,90.32402510000247,90.32402510000247,90.32402510000247,90.32402510000247,90.32402510000247,90.32402510000247,90.32402510000247,90.32402510000247,90.32402510000247,90.32402510000247,,005,P018,2025_Mar_07_1819,ConditionRich,2021.2.3,59.94797714622766,
64.75,65.0,41,0.0,Stimuli/Blank.png,0,0,0.0,0,122,122,122,,,,,,,,,,,,,64.75597559999733,0.005975599997327663,None,91.07478980000451,91.07478980000451,91.07478980000451,91.07478980000451,91.07478980000451,91.07478980000451,91.07478980000451,91.07478980000451,91.07478980000451,91.07478980000451,,005,P018,2025_Mar_07_1819,ConditionRich,2021.2.3,59.94797714622766,
65.0,65.75,24,0.75,Stimuli/P018/things_breadbox_09s.jpg,0,0,0.0,0,123,123,123,,,,,,,,,,,,,65.00627879999956,0.006278799999563489,None,91.34160330000304,91.34160330000304,91.34160330000304,91.34160330000304,91.34160330000304,91.34160330000304,91.34160330000304,91.34160330000304,91.34160330000304,91.34160330000304,,005,P018,2025_Mar_07_1819,ConditionRich,2021.2.3,59.94797714622766,
65.75,66.0,41,0.0,Stimuli/Blank.png,0,0,0.0,0,124,124,124,,,,,,,,,,,,,65.77526609999768,0.025266099997679703,None,92.10908820000623,92.10908820000623,92.10908820000623,92.10908820000623,92.10908820000623,92.10908820000623,92.10908820000623,92.10908820000623,92.10908820000623,92.10908820000623,,005,P018,2025_Mar_07_1819,ConditionRich,2021.2.3,59.94797714622766,
66.0,66.75,24,0.75,Stimuli/P018/things_breadbox_09s.jpg,0,0,0.0,0,125,125,125,,,,,,,,,,,,,66.02362799999537,0.023627999995369464,None,92.34247970000433,92.34247970000433,92.34247970000433,92.34247970000433,92.34247970000433,92.34247970000433,92.34247970000433,92.34247970000433,92.34247970000433,92.34247970000433,,005,P018,2025_Mar_07_1819,ConditionRich,2021.2.3,59.94797714622766,
66.75,67.0,41,0.0,Stimuli/Blank.png,0,0,0.0,0,126,126,126,,,,,,,,,,,,,66.75904640000226,0.00904640000226209,None,93.07647100000031,93.07647100000031,93.07647100000031,93.07647100000031,93.07647100000031,93.07647100000031,93.07647100000031,93.07647100000031,93.07647100000031,93.07647100000031,,005,P018,2025_Mar_07_1819,ConditionRich,2021.2.3,59.94797714622766,
67.0,67.75,24,0.75,Stimuli/P018/things_breadbox_09s.jpg,0,0,0.0,0,127,127,127,,,,,,,,,,,,,67.0112431000016,0.01124310000159312,None,93.34338910000224,93.34338910000224,93.34338910000224,93.34338910000224,93.34338910000224,93.34338910000224,93.34338910000224,93.34338910000224,93.34338910000224,93.34338910000224,,005,P018,2025_Mar_07_1819,ConditionRich,2021.2.3,59.94797714622766,
67.75,68.0,41,0.0,Stimuli/Blank.png,0,0,0.0,0,128,128,128,,,,,,,,,,,,,67.77519709999615,0.02519709999614861,None,94.09401970000181,94.09401970000181,94.09401970000181,94.09401970000181,94.09401970000181,94.09401970000181,94.09401970000181,94.09401970000181,94.09401970000181,94.09401970000181,,005,P018,2025_Mar_07_1819,ConditionRich,2021.2.3,59.94797714622766,
68.0,68.75,31,0.75,Stimuli/P018/things_highchair_09s.jpg,0,0,0.0,0,129,129,129,,,,,,,,,,,,,68.0087951999958,0.00879519999580225,None,94.32756490000611,94.32756490000611,94.32756490000611,94.32756490000611,94.32756490000611,94.32756490000611,94.32756490000611,94.32756490000611,94.32756490000611,94.32756490000611,,005,P018,2025_Mar_07_1819,ConditionRich,2021.2.3,59.94797714622766,
68.75,69.0,41,0.0,Stimuli/Blank.png,0,0,0.0,0,130,130,130,,,,,,,,,,,,,68.76006100000086,0.010061000000860076,None,95.0782146000056,95.0782146000056,95.0782146000056,95.0782146000056,95.0782146000056,95.0782146000056,95.0782146000056,95.0782146000056,95.0782146000056,95.0782146000056,,005,P018,2025_Mar_07_1819,ConditionRich,2021.2.3,59.94797714622766,
69.0,69.75,31,0.75,Stimuli/P018/things_highchair_09s.jpg,0,0,0.0,0,131,131,131,,,,,,,,,,,,,69.00975540000218,0.009755400002177339,None,95.32844290000503,95.32844290000503,95.32844290000503,95.32844290000503,95.32844290000503,95.32844290000503,95.32844290000503,95.32844290000503,95.32844290000503,95.32844290000503,,005,P018,2025_Mar_07_1819,ConditionRich,2021.2.3,59.94797714622766,
69.75,70.0,41,0.0,Stimuli/Blank.png,0,0,0.0,0,132,132,132,,,,,,,,,,,,,69.76094329999614,0.010943299996142741,None,96.0791148999997,96.0791148999997,96.0791148999997,96.0791148999997,96.0791148999997,96.0791148999997,96.0791148999997,96.0791148999997,96.0791148999997,96.0791148999997,,005,P018,2025_Mar_07_1819,ConditionRich,2021.2.3,59.94797714622766,
70.0,70.75,31,0.75,Stimuli/P018/things_highchair_09s.jpg,0,0,0.0,0,133,133,133,,,,,,,,,,,,,70.01117759999761,0.011177599997608922,None,96.34604850000323,96.34604850000323,96.34604850000323,96.34604850000323,96.34604850000323,96.34604850000323,96.34604850000323,96.34604850000323,96.34604850000323,96.34604850000323,,005,P018,2025_Mar_07_1819,ConditionRich,2021.2.3,59.94797714622766,
70.75,71.0,41,0.0,Stimuli/Blank.png,0,0,0.0,0,134,134,134,,,,,,,,,,,,,70.77837379999983,0.028373799999826588,None,97.09668050000619,97.09668050000619,97.09668050000619,97.09668050000619,97.09668050000619,97.09668050000619,97.09668050000619,97.09668050000619,97.09668050000619,97.09668050000619,,005,P018,2025_Mar_07_1819,ConditionRich,2021.2.3,59.94797714622766,
71.0,71.75,31,0.75,Stimuli/P018/things_highchair_09s.jpg,0,0,0.0,0,135,135,135,,,,,,,,,,,,,71.01230170000053,0.012301700000534765,None,97.34692090000317,97.34692090000317,97.34692090000317,97.34692090000317,97.34692090000317,97.34692090000317,97.34692090000317,97.34692090000317,97.34692090000317,97.34692090000317,,005,P018,2025_Mar_07_1819,ConditionRich,2021.2.3,59.94797714622766,
71.75,72.0,41,0.0,Stimuli/Blank.png,0,0,0.0,0,136,136,136,,,,,,,,,,,,,71.77973109999584,0.02973109999584267,None,98.09756530000595,98.09756530000595,98.09756530000595,98.09756530000595,98.09756530000595,98.09756530000595,98.09756530000595,98.09756530000595,98.09756530000595,98.09756530000595,,005,P018,2025_Mar_07_1819,ConditionRich,2021.2.3,59.94797714622766,
72.0,72.75,34,0.75,Stimuli/P018/things_llama_09s.jpg,0,0,0.0,0,137,137,137,,,,,,,,,,,,,72.01319269999658,0.013192699996579904,None,98.33109960000002,98.33109960000002,98.33109960000002,98.33109960000002,98.33109960000002,98.33109960000002,98.33109960000002,98.33109960000002,98.33109960000002,98.33109960000002,,005,P018,2025_Mar_07_1819,ConditionRich,2021.2.3,59.94797714622766,
72.75,73.0,41,0.0,Stimuli/Blank.png,0,0,0.0,0,138,138,138,,,,,,,,,,,,,72.76571200000035,0.01571200000034878,None,99.09847400000581,99.09847400000581,99.09847400000581,99.09847400000581,99.09847400000581,99.09847400000581,99.09847400000581,99.09847400000581,99.09847400000581,99.09847400000581,,005,P018,2025_Mar_07_1819,ConditionRich,2021.2.3,59.94797714622766,
73.0,73.75,34,0.75,Stimuli/P018/things_llama_09s.jpg,0,0,0.0,0,139,139,139,,,,,,,,,,,,,73.01581769999757,0.015817699997569434,None,99.34870810000575,99.34870810000575,99.34870810000575,99.34870810000575,99.34870810000575,99.34870810000575,99.34870810000575,99.34870810000575,99.34870810000575,99.34870810000575,,005,P018,2025_Mar_07_1819,ConditionRich,2021.2.3,59.94797714622766,
73.75,74.0,41,0.0,Stimuli/Blank.png,0,0,0.0,0,140,140,140,,,,,,,,,,,,,73.76491379999788,0.01491379999788478,None,100.08265080000274,100.08265080000274,100.08265080000274,100.08265080000274,100.08265080000274,100.08265080000274,100.08265080000274,100.08265080000274,100.08265080000274,100.08265080000274,,005,P018,2025_Mar_07_1819,ConditionRich,2021.2.3,59.94797714622766,
74.0,74.75,34,0.75,Stimuli/P018/things_llama_09s.jpg,0,0,0.0,0,141,141,141,,,,,,,,,,,,,74.01487030000135,0.014870300001348369,None,100.34955790000095,100.34955790000095,100.34955790000095,100.34955790000095,100.34955790000095,100.34955790000095,100.34955790000095,100.34955790000095,100.34955790000095,100.34955790000095,,005,P018,2025_Mar_07_1819,ConditionRich,2021.2.3,59.94797714622766,
74.75,75.0,41,0.0,Stimuli/Blank.png,0,0,0.0,0,142,142,142,,,,,,,,,,,,,74.78183549999812,0.03183549999812385,None,101.10021450000204,101.10021450000204,101.10021450000204,101.10021450000204,101.10021450000204,101.10021450000204,101.10021450000204,101.10021450000204,101.10021450000204,101.10021450000204,,005,P018,2025_Mar_07_1819,ConditionRich,2021.2.3,59.94797714622766,
75.0,75.75,34,0.75,Stimuli/P018/things_llama_09s.jpg,0,0,0.0,0,143,143,143,,,,,,,,,,,,,75.01513580000028,0.015135800000280142,None,101.33374910000566,101.33374910000566,101.33374910000566,101.33374910000566,101.33374910000566,101.33374910000566,101.33374910000566,101.33374910000566,101.33374910000566,101.33374910000566,,005,P018,2025_Mar_07_1819,ConditionRich,2021.2.3,59.94797714622766,
75.75,76.0,41,0.0,Stimuli/Blank.png,0,0,0.0,0,144,144,144,,,,,,,,,,,,,75.75034389999928,0.00034389999927952886,None,102.06774150000274,102.06774150000274,102.06774150000274,102.06774150000274,102.06774150000274,102.06774150000274,102.06774150000274,102.06774150000274,102.06774150000274,102.06774150000274,,005,P018,2025_Mar_07_1819,ConditionRich,2021.2.3,59.94797714622766,
76.0,76.75,23,0.75,Stimuli/P018/things_boy_09s.jpg,0,0,0.0,0,145,145,145,,,,,,,,,,,,,75.99921219999669,-0.0007878000033088028,None,102.3179569999993,102.3179569999993,102.3179569999993,102.3179569999993,102.3179569999993,102.3179569999993,102.3179569999993,102.3179569999993,102.3179569999993,102.3179569999993,,005,P018,2025_Mar_07_1819,ConditionRich,2021.2.3,59.94797714622766,
76.75,77.0,41,0.0,Stimuli/Blank.png,0,0,0.0,0,146,146,146,,,,,,,,,,,,,76.75042569999641,0.0004256999964127317,None,103.06861800000479,103.06861800000479,103.06861800000479,103.06861800000479,103.06861800000479,103.06861800000479,103.06861800000479,103.06861800000479,103.06861800000479,103.06861800000479,,005,P018,2025_Mar_07_1819,ConditionRich,2021.2.3,59.94797714622766,
77.0,77.75,23,0.75,Stimuli/P018/things_boy_09s.jpg,0,0,0.0,0,147,147,147,,,,,,,,,,,,,77.00057849999575,0.0005784999957541004,None,103.31883830000152,103.31883830000152,103.31883830000152,103.31883830000152,103.31883830000152,103.31883830000152,103.31883830000152,103.31883830000152,103.31883830000152,103.31883830000152,,005,P018,2025_Mar_07_1819,ConditionRich,2021.2.3,59.94797714622766,
77.75,78.0,41,0.0,Stimuli/Blank.png,0,0,0.0,0,148,148,148,,,,,,,,,,,,,77.75173260000156,0.0017326000015600584,None,104.06959820000338,104.06959820000338,104.06959820000338,104.06959820000338,104.06959820000338,104.06959820000338,104.06959820000338,104.06959820000338,104.06959820000338,104.06959820000338,,005,P018,2025_Mar_07_1819,ConditionRich,2021.2.3,59.94797714622766,
78.0,78.75,23,0.75,Stimuli/P018/things_boy_09s.jpg,1,0,0.75,0,149,149,149,,,,,,,,,,,,,78.0012934999977,0.0012934999977005646,2,104.31973090000247,104.31973090000247,104.31973090000247,104.31973090000247,104.31973090000247,104.31973090000247,104.31973090000247,105.05375520000234,104.31973090000247,104.31973090000247,0.6837281999978586,005,P018,2025_Mar_07_1819,ConditionRich,2021.2.3,59.94797714622766,
78.75,79.0,41,0.0,Stimuli/Blank.png,0,0,0.0,0,150,150,150,,,,,,,,,,,,,78.75258229999599,0.0025822999959927984,None,105.07041780000145,105.07041780000145,105.07041780000145,105.07041780000145,105.07041780000145,105.07041780000145,105.07041780000145,105.07041780000145,105.07041780000145,105.07041780000145,,005,P018,2025_Mar_07_1819,ConditionRich,2021.2.3,59.94797714622766,
79.0,79.75,23,0.75,Stimuli/P018/things_boy_09s.jpg,0,0,0.0,0,151,151,151,,,,,,,,,,,,,79.00442820000171,0.004428200001711957,None,105.33729820000008,105.33729820000008,105.33729820000008,105.33729820000008,105.33729820000008,105.33729820000008,105.33729820000008,105.33729820000008,105.33729820000008,105.33729820000008,,005,P018,2025_Mar_07_1819,ConditionRich,2021.2.3,59.94797714622766,
79.75,80.0,41,0.0,Stimuli/Blank.png,0,0,0.0,0,152,152,152,,,,,,,,,,,,,79.77049509999779,0.020495099997788202,None,106.10465720000502,106.10465720000502,106.10465720000502,106.10465720000502,106.10465720000502,106.10465720000502,106.10465720000502,106.10465720000502,106.10465720000502,106.10465720000502,,005,P018,2025_Mar_07_1819,ConditionRich,2021.2.3,59.94797714622766,
80.0,80.75,1,0.75,Stimuli/P018/sun_aawmwfqqbzauhqkb.jpg,0,0,0.0,0,153,153,153,,,,,,,,,,,,,80.02017239999986,0.020172399999864865,None,106.33818289999908,106.33818289999908,106.33818289999908,106.33818289999908,106.33818289999908,106.33818289999908,106.33818289999908,106.33818289999908,106.33818289999908,106.33818289999908,,005,P018,2025_Mar_07_1819,ConditionRich,2021.2.3,59.94797714622766,
80.75,81.0,41,0.0,Stimuli/Blank.png,0,0,0.0,0,154,154,154,,,,,,,,,,,,,80.75433809999959,0.00433809999958612,None,107.07216500000504,107.07216500000504,107.07216500000504,107.07216500000504,107.07216500000504,107.07216500000504,107.07216500000504,107.07216500000504,107.07216500000504,107.07216500000504,,005,P018,2025_Mar_07_1819,ConditionRich,2021.2.3,59.94797714622766,
81.0,81.75,1,0.75,Stimuli/P018/sun_aawmwfqqbzauhqkb.jpg,0,0,0.0,0,155,155,155,,,,,,,,,,,,,81.00420669999585,0.0042066999958478846,None,107.32238870000583,107.32238870000583,107.32238870000583,107.32238870000583,107.32238870000583,107.32238870000583,107.32238870000583,107.32238870000583,107.32238870000583,107.32238870000583,,005,P018,2025_Mar_07_1819,ConditionRich,2021.2.3,59.94797714622766,
81.75,82.0,41,0.0,Stimuli/Blank.png,0,0,0.0,0,156,156,156,,,,,,,,,,,,,81.7541349000021,0.004134900002100039,None,108.0730543000027,108.0730543000027,108.0730543000027,108.0730543000027,108.0730543000027,108.0730543000027,108.0730543000027,108.0730543000027,108.0730543000027,108.0730543000027,,005,P018,2025_Mar_07_1819,ConditionRich,2021.2.3,59.94797714622766,
82.0,82.75,1,0.75,Stimuli/P018/sun_aawmwfqqbzauhqkb.jpg,1,0,0.75,0,157,157,157,,,,,,,,,,,,,82.00459440000122,0.00459440000122413,2,108.3232749000017,108.3232749000017,108.3232749000017,108.3232749000017,108.3232749000017,108.3232749000017,108.3232749000017,109.05725730000268,108.3232749000017,108.3232749000017,0.4149921999996877,005,P018,2025_Mar_07_1819,ConditionRich,2021.2.3,59.94797714622766,
82.75,83.0,41,0.0,Stimuli/Blank.png,0,0,0.0,0,158,158,158,,,,,,,,,,,,,82.75574390000111,0.005743900001107249,None,109.07392570000229,109.07392570000229,109.07392570000229,109.07392570000229,109.07392570000229,109.07392570000229,109.07392570000229,109.07392570000229,109.07392570000229,109.07392570000229,,005,P018,2025_Mar_07_1819,ConditionRich,2021.2.3,59.94797714622766,
83.0,83.75,1,0.75,Stimuli/P018/sun_aawmwfqqbzauhqkb.jpg,0,0,0.0,0,159,159,159,,,,,,,,,,,,,83.00541430000158,0.0054143000015756115,None,109.32417060000444,109.32417060000444,109.32417060000444,109.32417060000444,109.32417060000444,109.32417060000444,109.32417060000444,109.32417060000444,109.32417060000444,109.32417060000444,,005,P018,2025_Mar_07_1819,ConditionRich,2021.2.3,59.94797714622766,
83.75,84.0,41,0.0,Stimuli/Blank.png,0,0,0.0,0,160,160,160,,,,,,,,,,,,,83.75592499999766,0.005924999997660052,None,110.07486930000596,110.07486930000596,110.07486930000596,110.07486930000596,110.07486930000596,110.07486930000596,110.07486930000596,110.07486930000596,110.07486930000596,110.07486930000596,,005,P018,2025_Mar_07_1819,ConditionRich,2021.2.3,59.94797714622766,
84.0,100.0,0,0.0,Stimuli/Blank.png,1,7,7.75,0,161,161,161,,,,,,,,,,,,,84.00653339999553,0.006533399995532818,2,110.32512630000565,110.32512630000565,110.32512630000565,110.32512630000565,110.32512630000565,110.32512630000565,117.31458920000296,118.065254000001,110.32512630000565,110.32512630000565,7.3602737999972305,005,P018,2025_Mar_07_1819,ConditionRich,2021.2.3,59.94797714622766,
100.0,100.75,32,0.75,Stimuli/P018/things_horse_09s.jpg,0,0,0.0,0,162,162,162,,,,,,,,,,,,,100.00388720000046,0.0038872000004630536,None,126.32251470000483,126.32251470000483,126.32251470000483,126.32251470000483,126.32251470000483,126.32251470000483,126.32251470000483,126.32251470000483,126.32251470000483,126.32251470000483,,005,P018,2025_Mar_07_1819,ConditionRich,2021.2.3,59.94797714622766,
100.75,101.0,41,0.0,Stimuli/Blank.png,0,0,0.0,0,163,163,163,,,,,,,,,,,,,100.75443359999917,0.004433599999174476,None,127.07315300000482,127.07315300000482,127.07315300000482,127.07315300000482,127.07315300000482,127.07315300000482,127.07315300000482,127.07315300000482,127.07315300000482,127.07315300000482,,005,P018,2025_Mar_07_1819,ConditionRich,2021.2.3,59.94797714622766,
101.0,101.75,32,0.75,Stimuli/P018/things_horse_09s.jpg,0,0,0.0,0,164,164,164,,,,,,,,,,,,,101.00466269999743,0.004662699997425079,None,127.32339599999978,127.32339599999978,127.32339599999978,127.32339599999978,127.32339599999978,127.32339599999978,127.32339599999978,127.32339599999978,127.32339599999978,127.32339599999978,,005,P018,2025_Mar_07_1819,ConditionRich,2021.2.3,59.94797714622766,
101.75,102.0,41,0.0,Stimuli/Blank.png,0,0,0.0,0,165,165,165,,,,,,,,,,,,,101.75530289999733,0.005302899997332133,None,128.07403570000315,128.07403570000315,128.07403570000315,128.07403570000315,128.07403570000315,128.07403570000315,128.07403570000315,128.07403570000315,128.07403570000315,128.07403570000315,,005,P018,2025_Mar_07_1819,ConditionRich,2021.2.3,59.94797714622766,
102.0,102.75,32,0.75,Stimuli/P018/things_horse_09s.jpg,0,0,0.0,0,166,166,166,,,,,,,,,,,,,102.0055979999961,0.005597999996098224,None,128.32442340000125,128.32442340000125,128.32442340000125,128.32442340000125,128.32442340000125,128.32442340000125,128.32442340000125,128.32442340000125,128.32442340000125,128.32442340000125,,005,P018,2025_Mar_07_1819,ConditionRich,2021.2.3,59.94797714622766,
102.75,103.0,41,0.0,Stimuli/Blank.png,0,0,0.0,0,167,167,167,,,,,,,,,,,,,102.75688590000209,0.006885900002089329,None,129.07494869999937,129.07494869999937,129.07494869999937,129.07494869999937,129.07494869999937,129.07494869999937,129.07494869999937,129.07494869999937,129.07494869999937,129.07494869999937,,005,P018,2025_Mar_07_1819,ConditionRich,2021.2.3,59.94797714622766,
103.0,103.75,32,0.75,Stimuli/P018/things_horse_09s.jpg,0,0,0.0,0,168,168,168,,,,,,,,,,,,,103.00646060000145,0.006460600001446437,None,129.32517410000582,129.32517410000582,129.32517410000582,129.32517410000582,129.32517410000582,129.32517410000582,129.32517410000582,129.32517410000582,129.32517410000582,129.32517410000582,,005,P018,2025_Mar_07_1819,ConditionRich,2021.2.3,59.94797714622766,
103.75,104.0,41,0.0,Stimuli/Blank.png,0,0,0.0,0,169,169,169,,,,,,,,,,,,,103.75716029999603,0.007160299996030517,None,130.0758324000053,130.0758324000053,130.0758324000053,130.0758324000053,130.0758324000053,130.0758324000053,130.0758324000053,130.0758324000053,130.0758324000053,130.0758324000053,,005,P018,2025_Mar_07_1819,ConditionRich,2021.2.3,59.94797714622766,
104.0,104.75,39,0.75,Stimuli/P018/things_veil_09s.jpg,0,0,0.0,0,170,170,170,,,,,,,,,,,,,104.00736640000105,0.0073664000010467134,None,130.32605719999992,130.32605719999992,130.32605719999992,130.32605719999992,130.32605719999992,130.32605719999992,130.32605719999992,130.32605719999992,130.32605719999992,130.32605719999992,,005,P018,2025_Mar_07_1819,ConditionRich,2021.2.3,59.94797714622766,
104.75,105.0,41,0.0,Stimuli/Blank.png,0,0,0.0,0,171,171,171,,,,,,,,,,,,,104.75808899999538,0.008088999995379709,None,131.07668760000524,131.07668760000524,131.07668760000524,131.07668760000524,131.07668760000524,131.07668760000524,131.07668760000524,131.07668760000524,131.07668760000524,131.07668760000524,,005,P018,2025_Mar_07_1819,ConditionRich,2021.2.3,59.94797714622766,
105.0,105.75,39,0.75,Stimuli/P018/things_veil_09s.jpg,0,0,0.0,0,172,172,172,,,,,,,,,,,,,105.00801030000002,0.008010300000023562,None,131.3269419999997,131.3269419999997,131.3269419999997,131.3269419999997,131.3269419999997,131.3269419999997,131.3269419999997,131.3269419999997,131.3269419999997,131.3269419999997,,005,P018,2025_Mar_07_1819,ConditionRich,2021.2.3,59.94797714622766,
105.75,106.0,41,0.0,Stimuli/Blank.png,0,0,0.0,0,173,173,173,,,,,,,,,,,,,105.75951070000156,0.00951070000155596,None,132.0776074000023,132.0776074000023,132.0776074000023,132.0776074000023,132.0776074000023,132.0776074000023,132.0776074000023,132.0776074000023,132.0776074000023,132.0776074000023,,005,P018,2025_Mar_07_1819,ConditionRich,2021.2.3,59.94797714622766,
106.0,106.75,39,0.75,Stimuli/P018/things_veil_09s.jpg,0,0,0.0,0,174,174,174,,,,,,,,,,,,,106.0094625999991,0.00946259999909671,None,132.32779190000292,132.32779190000292,132.32779190000292,132.32779190000292,132.32779190000292,132.32779190000292,132.32779190000292,132.32779190000292,132.32779190000292,132.32779190000292,,005,P018,2025_Mar_07_1819,ConditionRich,2021.2.3,59.94797714622766,
106.75,107.0,41,0.0,Stimuli/Blank.png,0,0,0.0,0,175,175,175,,,,,,,,,,,,,106.76011840000137,0.010118400001374539,None,133.07846530000097,133.07846530000097,133.07846530000097,133.07846530000097,133.07846530000097,133.07846530000097,133.07846530000097,133.07846530000097,133.07846530000097,133.07846530000097,,005,P018,2025_Mar_07_1819,ConditionRich,2021.2.3,59.94797714622766,
107.0,107.75,39,0.75,Stimuli/P018/things_veil_09s.jpg,0,0,0.0,0,176,176,176,,,,,,,,,,,,,107.00978819999727,0.009788199997274205,None,133.3286752999993,133.3286752999993,133.3286752999993,133.3286752999993,133.3286752999993,133.3286752999993,133.3286752999993,133.3286752999993,133.3286752999993,133.3286752999993,,005,P018,2025_Mar_07_1819,ConditionRich,2021.2.3,59.94797714622766,
107.75,108.0,41,0.0,Stimuli/Blank.png,0,0,0.0,0,177,177,177,,,,,,,,,,,,,107.76047010000184,0.010470100001839455,None,134.07934430000023,134.07934430000023,134.07934430000023,134.07934430000023,134.07934430000023,134.07934430000023,134.07934430000023,134.07934430000023,134.07934430000023,134.07934430000023,,005,P018,2025_Mar_07_1819,ConditionRich,2021.2.3,59.94797714622766,
108.0,108.75,12,0.75,Stimuli/P018/sun_bhvaiabdgxjuwoth.jpg,0,0,0.0,0,178,178,178,,,,,,,,,,,,,108.01165539999784,0.011655399997835048,None,134.32959510000364,134.32959510000364,134.32959510000364,134.32959510000364,134.32959510000364,134.32959510000364,134.32959510000364,134.32959510000364,134.32959510000364,134.32959510000364,,005,P018,2025_Mar_07_1819,ConditionRich,2021.2.3,59.94797714622766,
108.75,109.0,41,0.0,Stimuli/Blank.png,0,0,0.0,0,179,179,179,,,,,,,,,,,,,108.76191819999804,0.011918199998035561,None,135.0802524000028,135.0802524000028,135.0802524000028,135.0802524000028,135.0802524000028,135.0802524000028,135.0802524000028,135.0802524000028,135.0802524000028,135.0802524000028,,005,P018,2025_Mar_07_1819,ConditionRich,2021.2.3,59.94797714622766,
109.0,109.75,12,0.75,Stimuli/P018/sun_bhvaiabdgxjuwoth.jpg,0,0,0.0,0,180,180,180,,,,,,,,,,,,,109.01181340000039,0.011813400000391994,None,135.33045390000188,135.33045390000188,135.33045390000188,135.33045390000188,135.33045390000188,135.33045390000188,135.33045390000188,135.33045390000188,135.33045390000188,135.33045390000188,,005,P018,2025_Mar_07_1819,ConditionRich,2021.2.3,59.94797714622766,
109.75,110.0,41,0.0,Stimuli/Blank.png,0,0,0.0,0,181,181,181,,,,,,,,,,,,,109.76443039999867,0.014430399998673238,None,136.09783990000142,136.09783990000142,136.09783990000142,136.09783990000142,136.09783990000142,136.09783990000142,136.09783990000142,136.09783990000142,136.09783990000142,136.09783990000142,,005,P018,2025_Mar_07_1819,ConditionRich,2021.2.3,59.94797714622766,
110.0,110.75,12,0.75,Stimuli/P018/sun_bhvaiabdgxjuwoth.jpg,0,0,0.0,0,182,182,182,,,,,,,,,,,,,110.0295771999954,0.029577199995401315,None,136.3480356,136.3480356,136.3480356,136.3480356,136.3480356,136.3480356,136.3480356,136.3480356,136.3480356,136.3480356,,005,P018,2025_Mar_07_1819,ConditionRich,2021.2.3,59.94797714622766,
110.75,111.0,41,0.0,Stimuli/Blank.png,0,0,0.0,0,183,183,183,,,,,,,,,,,,,110.76583830000163,0.015838300001632888,None,137.09870810000575,137.09870810000575,137.09870810000575,137.09870810000575,137.09870810000575,137.09870810000575,137.09870810000575,137.09870810000575,137.09870810000575,137.09870810000575,,005,P018,2025_Mar_07_1819,ConditionRich,2021.2.3,59.94797714622766,
111.0,111.75,12,0.75,Stimuli/P018/sun_bhvaiabdgxjuwoth.jpg,0,0,0.0,0,184,184,184,,,,,,,,,,,,,111.0140653999988,0.014065399998798966,None,137.34892560000299,137.34892560000299,137.34892560000299,137.34892560000299,137.34892560000299,137.34892560000299,137.34892560000299,137.34892560000299,137.34892560000299,137.34892560000299,,005,P018,2025_Mar_07_1819,ConditionRich,2021.2.3,59.94797714622766,
111.75,112.0,41,0.0,Stimuli/Blank.png,0,0,0.0,0,185,185,185,,,,,,,,,,,,,111.78082849999919,0.030828499999188352,None,138.09959180000442,138.09959180000442,138.09959180000442,138.09959180000442,138.09959180000442,138.09959180000442,138.09959180000442,138.09959180000442,138.09959180000442,138.09959180000442,,005,P018,2025_Mar_07_1819,ConditionRich,2021.2.3,59.94797714622766,
112.0,112.75,19,0.75,Stimuli/P018/sun_brrwzaypucosdcgt.jpg,1,0,0.75,0,186,186,186,,,,,,,,,,,,,112.01438449999841,0.014384499998413958,2,138.33312719999958,138.33312719999958,138.33312719999958,138.33312719999958,138.33312719999958,138.33312719999958,138.33312719999958,139.06711650000216,138.33312719999958,138.33312719999958,0.6742570999995223,005,P018,2025_Mar_07_1819,ConditionRich,2021.2.3,59.94797714622766,
112.75,113.0,41,0.0,Stimuli/Blank.png,0,0,0.0,0,187,187,187,,,,,,,,,,,,,112.76562269999704,0.01562269999703858,None,139.08379690000584,139.08379690000584,139.08379690000584,139.08379690000584,139.08379690000584,139.08379690000584,139.08379690000584,139.08379690000584,139.08379690000584,139.08379690000584,,005,P018,2025_Mar_07_1819,ConditionRich,2021.2.3,59.94797714622766,
113.0,113.75,19,0.75,Stimuli/P018/sun_brrwzaypucosdcgt.jpg,0,0,0.0,0,188,188,188,,,,,,,,,,,,,112.99909289999778,-0.0009071000022231601,None,139.3340257000018,139.3340257000018,139.3340257000018,139.3340257000018,139.3340257000018,139.3340257000018,139.3340257000018,139.3340257000018,139.3340257000018,139.3340257000018,,005,P018,2025_Mar_07_1819,ConditionRich,2021.2.3,59.94797714622766,
113.75,114.0,41,0.0,Stimuli/Blank.png,0,0,0.0,0,189,189,189,,,,,,,,,,,,,113.76637269999628,0.01637269999628188,None,140.08467860000383,140.08467860000383,140.08467860000383,140.08467860000383,140.08467860000383,140.08467860000383,140.08467860000383,140.08467860000383,140.08467860000383,140.08467860000383,,005,P018,2025_Mar_07_1819,ConditionRich,2021.2.3,59.94797714622766,
114.0,114.75,19,0.75,Stimuli/P018/sun_brrwzaypucosdcgt.jpg,0,0,0.0,0,190,190,190,,,,,,,,,,,,,114.00049159999617,0.0004915999961667694,None,140.33490020000318,140.33490020000318,140.33490020000318,140.33490020000318,140.33490020000318,140.33490020000318,140.33490020000318,140.33490020000318,140.33490020000318,140.33490020000318,,005,P018,2025_Mar_07_1819,ConditionRich,2021.2.3,59.94797714622766,
114.75,115.0,41,0.0,Stimuli/Blank.png,0,0,0.0,0,191,191,191,,,,,,,,,,,,,114.76694979999593,0.016949799995927606,None,141.08556320000207,141.08556320000207,141.08556320000207,141.08556320000207,141.08556320000207,141.08556320000207,141.08556320000207,141.08556320000207,141.08556320000207,141.08556320000207,,005,P018,2025_Mar_07_1819,ConditionRich,2021.2.3,59.94797714622766,
115.0,115.75,19,0.75,Stimuli/P018/sun_brrwzaypucosdcgt.jpg,0,0,0.0,0,192,192,192,,,,,,,,,,,,,115.00125010000193,0.0012501000019256026,None,141.33582800000295,141.33582800000295,141.33582800000295,141.33582800000295,141.33582800000295,141.33582800000295,141.33582800000295,141.33582800000295,141.33582800000295,141.33582800000295,,005,P018,2025_Mar_07_1819,ConditionRich,2021.2.3,59.94797714622766,
115.75,116.0,41,0.0,Stimuli/Blank.png,0,0,0.0,0,193,193,193,,,,,,,,,,,,,115.76824140000099,0.018241400000988506,None,142.08645070000057,142.08645070000057,142.08645070000057,142.08645070000057,142.08645070000057,142.08645070000057,142.08645070000057,142.08645070000057,142.08645070000057,142.08645070000057,,005,P018,2025_Mar_07_1819,ConditionRich,2021.2.3,59.94797714622766,
116.0,116.75,40,0.75,Stimuli/P018/things_woman_09s.jpg,0,0,0.0,0,194,194,194,,,,,,,,,,,,,116.00173930000165,0.0017393000016454607,None,142.33667850000347,142.33667850000347,142.33667850000347,142.33667850000347,142.33667850000347,142.33667850000347,142.33667850000347,142.33667850000347,142.33667850000347,142.33667850000347,,005,P018,2025_Mar_07_1819,ConditionRich,2021.2.3,59.94797714622766,
116.75,117.0,41,0.0,Stimuli/Blank.png,0,0,0.0,0,195,195,195,,,,,,,,,,,,,116.7693849999996,0.01938499999960186,None,143.08733349999966,143.08733349999966,143.08733349999966,143.08733349999966,143.08733349999966,143.08733349999966,143.08733349999966,143.08733349999966,143.08733349999966,143.08733349999966,,005,P018,2025_Mar_07_1819,ConditionRich,2021.2.3,59.94797714622766,
117.0,117.75,40,0.75,Stimuli/P018/things_woman_09s.jpg,0,0,0.0,0,196,196,196,,,,,,,,,,,,,117.00466130000132,0.004661300001316704,None,143.33756250000442,143.33756250000442,143.33756250000442,143.33756250000442,143.33756250000442,143.33756250000442,143.33756250000442,143.33756250000442,143.33756250000442,143.33756250000442,,005,P018,2025_Mar_07_1819,ConditionRich,2021.2.3,59.94797714622766,
117.75,118.0,41,0.0,Stimuli/Blank.png,0,0,0.0,0,197,197,197,,,,,,,,,,,,,117.77106749999803,0.021067499998025596,None,144.10492810000142,144.10492810000142,144.10492810000142,144.10492810000142,144.10492810000142,144.10492810000142,144.10492810000142,144.10492810000142,144.10492810000142,144.10492810000142,,005,P018,2025_Mar_07_1819,ConditionRich,2021.2.3,59.94797714622766,
118.0,118.75,40,0.75,Stimuli/P018/things_woman_09s.jpg,0,0,0.0,0,198,198,198,,,,,,,,,,,,,118.02041869999812,0.020418699998117518,None,144.338456700003,144.338456700003,144.338456700003,144.338456700003,144.338456700003,144.338456700003,144.338456700003,144.338456700003,144.338456700003,144.338456700003,,005,P018,2025_Mar_07_1819,ConditionRich,2021.2.3,59.94797714622766,
118.75,119.0,41,0.0,Stimuli/Blank.png,0,0,0.0,0,199,199,199,,,,,,,,,,,,,118.75424390000262,0.004243900002620649,None,145.0724279999995,145.0724279999995,145.0724279999995,145.0724279999995,145.0724279999995,145.0724279999995,145.0724279999995,145.0724279999995,145.0724279999995,145.0724279999995,,005,P018,2025_Mar_07_1819,ConditionRich,2021.2.3,59.94797714622766,
119.0,119.75,40,0.75,Stimuli/P018/things_woman_09s.jpg,0,0,0.0,0,200,200,200,,,,,,,,,,,,,119.00380949999817,0.0038094999981694855,None,145.32265150000603,145.32265150000603,145.32265150000603,145.32265150000603,145.32265150000603,145.32265150000603,145.32265150000603,145.32265150000603,145.32265150000603,145.32265150000603,,005,P018,2025_Mar_07_1819,ConditionRich,2021.2.3,59.94797714622766,
119.75,120.0,41,0.0,Stimuli/Blank.png,0,0,0.0,0,201,201,201,,,,,,,,,,,,,119.75494479999907,0.004944799999066163,None,146.07333890000154,146.07333890000154,146.07333890000154,146.07333890000154,146.07333890000154,146.07333890000154,146.07333890000154,146.07333890000154,146.07333890000154,146.07333890000154,,005,P018,2025_Mar_07_1819,ConditionRich,2021.2.3,59.94797714622766,
120.0,120.75,33,0.75,Stimuli/P018/things_lamb_09s.jpg,0,0,0.0,0,202,202,202,,,,,,,,,,,,,120.00572159999865,0.005721599998651072,None,146.32405149999977,146.32405149999977,146.32405149999977,146.32405149999977,146.32405149999977,146.32405149999977,146.32405149999977,146.32405149999977,146.32405149999977,146.32405149999977,,005,P018,2025_Mar_07_1819,ConditionRich,2021.2.3,59.94797714622766,
120.75,121.0,41,0.0,Stimuli/Blank.png,0,0,0.0,0,203,203,203,,,,,,,,,,,,,120.75536779999675,0.005367799996747635,None,147.0741918000058,147.0741918000058,147.0741918000058,147.0741918000058,147.0741918000058,147.0741918000058,147.0741918000058,147.0741918000058,147.0741918000058,147.0741918000058,,005,P018,2025_Mar_07_1819,ConditionRich,2021.2.3,59.94797714622766,
121.0,121.75,33,0.75,Stimuli/P018/things_lamb_09s.jpg,0,0,0.0,0,204,204,204,,,,,,,,,,,,,121.00558119999914,0.0055811999991419725,None,147.32441640000616,147.32441640000616,147.32441640000616,147.32441640000616,147.32441640000616,147.32441640000616,147.32441640000616,147.32441640000616,147.32441640000616,147.32441640000616,,005,P018,2025_Mar_07_1819,ConditionRich,2021.2.3,59.94797714622766,
121.75,122.0,41,0.0,Stimuli/Blank.png,0,0,0.0,0,205,205,205,,,,,,,,,,,,,121.75642900000094,0.006429000000935048,None,148.07507869999972,148.07507869999972,148.07507869999972,148.07507869999972,148.07507869999972,148.07507869999972,148.07507869999972,148.07507869999972,148.07507869999972,148.07507869999972,,005,P018,2025_Mar_07_1819,ConditionRich,2021.2.3,59.94797714622766,
122.0,122.75,33,0.75,Stimuli/P018/things_lamb_09s.jpg,0,0,0.0,0,206,206,206,,,,,,,,,,,,,122.00693799999863,0.006937999998626765,None,148.34198880000622,148.34198880000622,148.34198880000622,148.34198880000622,148.34198880000622,148.34198880000622,148.34198880000622,148.34198880000622,148.34198880000622,148.34198880000622,,005,P018,2025_Mar_07_1819,ConditionRich,2021.2.3,59.94797714622766,
122.75,123.0,41,0.0,Stimuli/Blank.png,0,0,0.0,0,207,207,207,,,,,,,,,,,,,122.77460569999675,0.024605699996754993,None,149.09264249999978,149.09264249999978,149.09264249999978,149.09264249999978,149.09264249999978,149.09264249999978,149.09264249999978,149.09264249999978,149.09264249999978,149.09264249999978,,005,P018,2025_Mar_07_1819,ConditionRich,2021.2.3,59.94797714622766,
123.0,123.75,33,0.75,Stimuli/P018/things_lamb_09s.jpg,0,0,0.0,0,208,208,208,,,,,,,,,,,,,123.01004169999942,0.010041699999419507,None,149.34286850000353,149.34286850000353,149.34286850000353,149.34286850000353,149.34286850000353,149.34286850000353,149.34286850000353,149.34286850000353,149.34286850000353,149.34286850000353,,005,P018,2025_Mar_07_1819,ConditionRich,2021.2.3,59.94797714622766,
123.75,124.0,41,0.0,Stimuli/Blank.png,0,0,0.0,0,209,209,209,,,,,,,,,,,,,123.77614989999711,0.02614989999710815,None,150.1102580000006,150.1102580000006,150.1102580000006,150.1102580000006,150.1102580000006,150.1102580000006,150.1102580000006,150.1102580000006,150.1102580000006,150.1102580000006,,005,P018,2025_Mar_07_1819,ConditionRich,2021.2.3,59.94797714622766,
124.0,124.75,29,0.75,Stimuli/P018/things_face_09s.jpg,0,0,0.0,0,210,210,210,,,,,,,,,,,,,124.02552360000118,0.025523600001179148,None,150.34374329999991,150.34374329999991,150.34374329999991,150.34374329999991,150.34374329999991,150.34374329999991,150.34374329999991,150.34374329999991,150.34374329999991,150.34374329999991,,005,P018,2025_Mar_07_1819,ConditionRich,2021.2.3,59.94797714622766,
124.75,125.0,41,0.0,Stimuli/Blank.png,0,0,0.0,0,211,211,211,,,,,,,,,,,,,124.7599149000016,0.00991490000160411,None,151.07770440000604,151.07770440000604,151.07770440000604,151.07770440000604,151.07770440000604,151.07770440000604,151.07770440000604,151.07770440000604,151.07770440000604,151.07770440000604,,005,P018,2025_Mar_07_1819,ConditionRich,2021.2.3,59.94797714622766,
125.0,125.75,29,0.75,Stimuli/P018/things_face_09s.jpg,1,0,0.75,0,212,212,212,,,,,,,,,,,,,125.00946709999698,0.009467099996982142,2,151.32798850000108,151.32798850000108,151.32798850000108,151.32798850000108,151.32798850000108,151.32798850000108,151.32798850000108,152.06193560000247,151.32798850000108,151.32798850000108,0.42841300000145566,005,P018,2025_Mar_07_1819,ConditionRich,2021.2.3,59.94797714622766,
125.75,126.0,41,0.0,Stimuli/Blank.png,0,0,0.0,0,213,213,213,,,,,,,,,,,,,125.76058699999703,0.010586999997030944,None,152.07861360000243,152.07861360000243,152.07861360000243,152.07861360000243,152.07861360000243,152.07861360000243,152.07861360000243,152.07861360000243,152.07861360000243,152.07861360000243,,005,P018,2025_Mar_07_1819,ConditionRich,2021.2.3,59.94797714622766,
126.0,126.75,29,0.75,Stimuli/P018/things_face_09s.jpg,0,0,0.0,0,214,214,214,,,,,,,,,,,,,126.01113189999887,0.011131899998872541,None,152.34553290000622,152.34553290000622,152.34553290000622,152.34553290000622,152.34553290000622,152.34553290000622,152.34553290000622,152.34553290000622,152.34553290000622,152.34553290000622,,005,P018,2025_Mar_07_1819,ConditionRich,2021.2.3,59.94797714622766,
126.75,127.0,41,0.0,Stimuli/Blank.png,0,0,0.0,0,215,215,215,,,,,,,,,,,,,126.77804440000182,0.02804440000181785,None,153.09618910000427,153.09618910000427,153.09618910000427,153.09618910000427,153.09618910000427,153.09618910000427,153.09618910000427,153.09618910000427,153.09618910000427,153.09618910000427,,005,P018,2025_Mar_07_1819,ConditionRich,2021.2.3,59.94797714622766,
127.0,127.75,29,0.75,Stimuli/P018/things_face_09s.jpg,0,0,0.0,0,216,216,216,,,,,,,,,,,,,127.01173980000021,0.011739800000214018,None,153.34640970000328,153.34640970000328,153.34640970000328,153.34640970000328,153.34640970000328,153.34640970000328,153.34640970000328,153.34640970000328,153.34640970000328,153.34640970000328,,005,P018,2025_Mar_07_1819,ConditionRich,2021.2.3,59.94797714622766,
127.75,128.0,41,0.0,Stimuli/Blank.png,0,0,0.0,0,217,217,217,,,,,,,,,,,,,127.78118379999796,0.031183799997961614,None,154.11375010000484,154.11375010000484,154.11375010000484,154.11375010000484,154.11375010000484,154.11375010000484,154.11375010000484,154.11375010000484,154.11375010000484,154.11375010000484,,005,P018,2025_Mar_07_1819,ConditionRich,2021.2.3,59.94797714622766,
128.0,128.75,21,0.75,Stimuli/P018/things_baby_09s.jpg,0,0,0.0,0,218,218,218,,,,,,,,,,,,,128.0285193000018,0.028519300001789816,None,154.34729060000245,154.34729060000245,154.34729060000245,154.34729060000245,154.34729060000245,154.34729060000245,154.34729060000245,154.34729060000245,154.34729060000245,154.34729060000245,,005,P018,2025_Mar_07_1819,ConditionRich,2021.2.3,59.94797714622766,
128.75,129.0,41,0.0,Stimuli/Blank.png,0,0,0.0,0,219,219,219,,,,,,,,,,,,,128.76469250000082,0.014692500000819564,None,155.0979656000054,155.0979656000054,155.0979656000054,155.0979656000054,155.0979656000054,155.0979656000054,155.0979656000054,155.0979656000054,155.0979656000054,155.0979656000054,,005,P018,2025_Mar_07_1819,ConditionRich,2021.2.3,59.94797714622766,
129.0,129.75,21,0.75,Stimuli/P018/things_baby_09s.jpg,0,0,0.0,0,220,220,220,,,,,,,,,,,,,129.02949770000123,0.029497700001229532,None,155.34817309999926,155.34817309999926,155.34817309999926,155.34817309999926,155.34817309999926,155.34817309999926,155.34817309999926,155.34817309999926,155.34817309999926,155.34817309999926,,005,P018,2025_Mar_07_1819,ConditionRich,2021.2.3,59.94797714622766,
129.75,130.0,41,0.0,Stimuli/Blank.png,0,0,0.0,0,221,221,221,,,,,,,,,,,,,129.76488509999763,0.014885099997627549,None,156.0988806000023,156.0988806000023,156.0988806000023,156.0988806000023,156.0988806000023,156.0988806000023,156.0988806000023,156.0988806000023,156.0988806000023,156.0988806000023,,005,P018,2025_Mar_07_1819,ConditionRich,2021.2.3,59.94797714622766,
130.0,130.75,21,0.75,Stimuli/P018/things_baby_09s.jpg,0,0,0.0,0,222,222,222,,,,,,,,,,,,,130.03021530000115,0.030215300001145806,None,156.34905540000182,156.34905540000182,156.34905540000182,156.34905540000182,156.34905540000182,156.34905540000182,156.34905540000182,156.34905540000182,156.34905540000182,156.34905540000182,,005,P018,2025_Mar_07_1819,ConditionRich,2021.2.3,59.94797714622766,
130.75,131.0,41,0.0,Stimuli/Blank.png,0,0,0.0,0,223,223,223,,,,,,,,,,,,,130.7649523,0.01495230000000447,None,157.0830547000005,157.0830547000005,157.0830547000005,157.0830547000005,157.0830547000005,157.0830547000005,157.0830547000005,157.0830547000005,157.0830547000005,157.0830547000005,,005,P018,2025_Mar_07_1819,ConditionRich,2021.2.3,59.94797714622766,
131.0,131.75,21,0.75,Stimuli/P018/things_baby_09s.jpg,0,0,0.0,0,224,224,224,,,,,,,,,,,,,131.01440690000163,0.014406900001631584,None,157.33325660000264,157.33325660000264,157.33325660000264,157.33325660000264,157.33325660000264,157.33325660000264,157.33325660000264,157.33325660000264,157.33325660000264,157.33325660000264,,005,P018,2025_Mar_07_1819,ConditionRich,2021.2.3,59.94797714622766,
131.75,132.0,41,0.0,Stimuli/Blank.png,0,0,0.0,0,225,225,225,,,,,,,,,,,,,131.76586990000214,0.015869900002144277,None,158.10062760000437,158.10062760000437,158.10062760000437,158.10062760000437,158.10062760000437,158.10062760000437,158.10062760000437,158.10062760000437,158.10062760000437,158.10062760000437,,005,P018,2025_Mar_07_1819,ConditionRich,2021.2.3,59.94797714622766,
132.0,132.75,14,0.75,Stimuli/P018/sun_bljpqnfmmqkjsfvx.jpg,0,0,0.0,0,226,226,226,,,,,,,,,,,,,132.0157462999996,0.01574629999959143,None,158.33414910000283,158.33414910000283,158.33414910000283,158.33414910000283,158.33414910000283,158.33414910000283,158.33414910000283,158.33414910000283,158.33414910000283,158.33414910000283,,005,P018,2025_Mar_07_1819,ConditionRich,2021.2.3,59.94797714622766,
132.75,133.0,41,0.0,Stimuli/Blank.png,0,0,0.0,0,227,227,227,,,,,,,,,,,,,132.7499128999989,-8.710000111022964e-05,None,159.06813120000152,159.06813120000152,159.06813120000152,159.06813120000152,159.06813120000152,159.06813120000152,159.06813120000152,159.06813120000152,159.06813120000152,159.06813120000152,,005,P018,2025_Mar_07_1819,ConditionRich,2021.2.3,59.94797714622766,
133.0,133.75,14,0.75,Stimuli/P018/sun_bljpqnfmmqkjsfvx.jpg,0,0,0.0,0,228,228,228,,,,,,,,,,,,,133.0004495999965,0.0004495999965001829,None,159.31835230000434,159.31835230000434,159.31835230000434,159.31835230000434,159.31835230000434,159.31835230000434,159.31835230000434,159.31835230000434,159.31835230000434,159.31835230000434,,005,P018,2025_Mar_07_1819,ConditionRich,2021.2.3,59.94797714622766,
133.75,134.0,41,0.0,Stimuli/Blank.png,0,0,0.0,0,229,229,229,,,,,,,,,,,,,133.75022539999918,0.00022539999918080866,None,160.06899120000162,160.06899120000162,160.06899120000162,160.06899120000162,160.06899120000162,160.06899120000162,160.06899120000162,160.06899120000162,160.06899120000162,160.06899120000162,,005,P018,2025_Mar_07_1819,ConditionRich,2021.2.3,59.94797714622766,
134.0,134.75,14,0.75,Stimuli/P018/sun_bljpqnfmmqkjsfvx.jpg,0,0,0.0,0,230,230,230,,,,,,,,,,,,,134.00078589999612,0.000785899996117223,None,160.3359261000005,160.3359261000005,160.3359261000005,160.3359261000005,160.3359261000005,160.3359261000005,160.3359261000005,160.3359261000005,160.3359261000005,160.3359261000005,,005,P018,2025_Mar_07_1819,ConditionRich,2021.2.3,59.94797714622766,
134.75,135.0,41,0.0,Stimuli/Blank.png,0,0,0.0,0,231,231,231,,,,,,,,,,,,,134.76975200000015,0.019752000000153203,None,161.1032692000008,161.1032692000008,161.1032692000008,161.1032692000008,161.1032692000008,161.1032692000008,161.1032692000008,161.1032692000008,161.1032692000008,161.1032692000008,,005,P018,2025_Mar_07_1819,ConditionRich,2021.2.3,59.94797714622766,
135.0,135.75,14,0.75,Stimuli/P018/sun_bljpqnfmmqkjsfvx.jpg,0,0,0.0,0,232,232,232,,,,,,,,,,,,,135.02061569999933,0.020615699999325443,None,161.35348750000412,161.35348750000412,161.35348750000412,161.35348750000412,161.35348750000412,161.35348750000412,161.35348750000412,161.35348750000412,161.35348750000412,161.35348750000412,,005,P018,2025_Mar_07_1819,ConditionRich,2021.2.3,59.94797714622766,
135.75,136.0,41,0.0,Stimuli/Blank.png,0,0,0.0,0,233,233,233,,,,,,,,,,,,,135.7685177999956,0.018517799995606765,None,162.08743750000576,162.08743750000576,162.08743750000576,162.08743750000576,162.08743750000576,162.08743750000576,162.08743750000576,162.08743750000576,162.08743750000576,162.08743750000576,,005,P018,2025_Mar_07_1819,ConditionRich,2021.2.3,59.94797714622766,
136.0,136.75,2,0.75,Stimuli/P018/sun_acliytrpktltxwsx.jpg,0,0,0.0,0,234,234,234,,,,,,,,,,,,,136.00232030000188,0.0023203000018838793,None,162.32100830000127,162.32100830000127,162.32100830000127,162.32100830000127,162.32100830000127,162.32100830000127,162.32100830000127,162.32100830000127,162.32100830000127,162.32100830000127,,005,P018,2025_Mar_07_1819,ConditionRich,2021.2.3,59.94797714622766,
136.75,137.0,41,0.0,Stimuli/Blank.png,0,0,0.0,0,235,235,235,,,,,,,,,,,,,136.75415500000236,0.004155000002356246,None,163.07167219999974,163.07167219999974,163.07167219999974,163.07167219999974,163.07167219999974,163.07167219999974,163.07167219999974,163.07167219999974,163.07167219999974,163.07167219999974,,005,P018,2025_Mar_07_1819,ConditionRich,2021.2.3,59.94797714622766,
137.0,137.75,2,0.75,Stimuli/P018/sun_acliytrpktltxwsx.jpg,0,0,0.0,0,236,236,236,,,,,,,,,,,,,137.00379450000037,0.0037945000003674068,None,163.3385974000048,163.3385974000048,163.3385974000048,163.3385974000048,163.3385974000048,163.3385974000048,163.3385974000048,163.3385974000048,163.3385974000048,163.3385974000048,,005,P018,2025_Mar_07_1819,ConditionRich,2021.2.3,59.94797714622766,
137.75,138.0,41,0.0,Stimuli/Blank.png,0,0,0.0,0,237,237,237,,,,,,,,,,,,,137.77124789999652,0.02124789999652421,None,164.0891776999997,164.0891776999997,164.0891776999997,164.0891776999997,164.0891776999997,164.0891776999997,164.0891776999997,164.0891776999997,164.0891776999997,164.0891776999997,,005,P018,2025_Mar_07_1819,ConditionRich,2021.2.3,59.94797714622766,
138.0,138.75,2,0.75,Stimuli/P018/sun_acliytrpktltxwsx.jpg,0,0,0.0,0,238,238,238,,,,,,,,,,,,,138.00416389999737,0.004163899997365661,None,164.32277070000418,164.32277070000418,164.32277070000418,164.32277070000418,164.32277070000418,164.32277070000418,164.32277070000418,164.32277070000418,164.32277070000418,164.32277070000418,,005,P018,2025_Mar_07_1819,ConditionRich,2021.2.3,59.94797714622766,
138.75,139.0,41,0.0,Stimuli/Blank.png,0,0,0.0,0,239,239,239,,,,,,,,,,,,,138.75520759999927,0.005207599999266677,None,165.09013770000456,165.09013770000456,165.09013770000456,165.09013770000456,165.09013770000456,165.09013770000456,165.09013770000456,165.09013770000456,165.09013770000456,165.09013770000456,,005,P018,2025_Mar_07_1819,ConditionRich,2021.2.3,59.94797714622766,
139.0,139.75,2,0.75,Stimuli/P018/sun_acliytrpktltxwsx.jpg,0,0,0.0,0,240,240,240,,,,,,,,,,,,,139.02160739999817,0.021607399998174515,None,165.3403369000007,165.3403369000007,165.3403369000007,165.3403369000007,165.3403369000007,165.3403369000007,165.3403369000007,165.3403369000007,165.3403369000007,165.3403369000007,,005,P018,2025_Mar_07_1819,ConditionRich,2021.2.3,59.94797714622766,
139.75,140.0,41,0.0,Stimuli/Blank.png,0,0,0.0,0,241,241,241,,,,,,,,,,,,,139.75556779999897,0.005567799998971168,None,166.07430440000462,166.07430440000462,166.07430440000462,166.07430440000462,166.07430440000462,166.07430440000462,166.07430440000462,166.07430440000462,166.07430440000462,166.07430440000462,,005,P018,2025_Mar_07_1819,ConditionRich,2021.2.3,59.94797714622766,
140.0,140.75,26,0.75,Stimuli/P018/things_chandelier_09s.jpg,1,0,0.75,0,242,242,242,,,,,,,,,,,,,140.00572609999654,0.0057260999965365045,2,166.3245337000044,166.3245337000044,166.3245337000044,166.3245337000044,166.3245337000044,166.3245337000044,166.3245337000044,167.05852230000164,166.3245337000044,166.3245337000044,0.41097810000064783,005,P018,2025_Mar_07_1819,ConditionRich,2021.2.3,59.94797714622766,
140.75,141.0,41,0.0,Stimuli/Blank.png,0,0,0.0,0,243,243,243,,,,,,,,,,,,,140.7573579000018,0.007357900001807138,None,167.07520289999957,167.07520289999957,167.07520289999957,167.07520289999957,167.07520289999957,167.07520289999957,167.07520289999957,167.07520289999957,167.07520289999957,167.07520289999957,,005,P018,2025_Mar_07_1819,ConditionRich,2021.2.3,59.94797714622766,
141.0,141.75,26,0.75,Stimuli/P018/things_chandelier_09s.jpg,0,0,0.0,0,244,244,244,,,,,,,,,,,,,141.00787580000178,0.007875800001784228,None,167.34211530000175,167.34211530000175,167.34211530000175,167.34211530000175,167.34211530000175,167.34211530000175,167.34211530000175,167.34211530000175,167.34211530000175,167.34211530000175,,005,P018,2025_Mar_07_1819,ConditionRich,2021.2.3,59.94797714622766,
141.75,142.0,41,0.0,Stimuli/Blank.png,0,0,0.0,0,245,245,245,,,,,,,,,,,,,141.77394490000006,0.023944900000060443,None,168.0927817000047,168.0927817000047,168.0927817000047,168.0927817000047,168.0927817000047,168.0927817000047,168.0927817000047,168.0927817000047,168.0927817000047,168.0927817000047,,005,P018,2025_Mar_07_1819,ConditionRich,2021.2.3,59.94797714622766,
142.0,142.75,26,0.75,Stimuli/P018/things_chandelier_09s.jpg,0,0,0.0,0,246,246,246,,,,,,,,,,,,,142.00742889999674,0.0074288999967393465,None,168.32630350000545,168.32630350000545,168.32630350000545,168.32630350000545,168.32630350000545,168.32630350000545,168.32630350000545,168.32630350000545,168.32630350000545,168.32630350000545,,005,P018,2025_Mar_07_1819,ConditionRich,2021.2.3,59.94797714622766,
142.75,143.0,41,0.0,Stimuli/Blank.png,0,0,0.0,0,247,247,247,,,,,,,,,,,,,142.76020679999783,0.010206799997831695,None,169.09366540000337,169.09366540000337,169.09366540000337,169.09366540000337,169.09366540000337,169.09366540000337,169.09366540000337,169.09366540000337,169.09366540000337,169.09366540000337,,005,P018,2025_Mar_07_1819,ConditionRich,2021.2.3,59.94797714622766,
143.0,143.75,26,0.75,Stimuli/P018/things_chandelier_09s.jpg,0,0,0.0,0,248,248,248,,,,,,,,,,,,,143.0255229999966,0.02552299999661045,None,169.36058230000344,169.36058230000344,169.36058230000344,169.36058230000344,169.36058230000344,169.36058230000344,169.36058230000344,169.36058230000344,169.36058230000344,169.36058230000344,,005,P018,2025_Mar_07_1819,ConditionRich,2021.2.3,59.94797714622766,
143.75,144.0,41,0.0,Stimuli/Blank.png,0,0,0.0,0,249,249,249,,,,,,,,,,,,,143.77576879999833,0.025768799998331815,None,170.09453340000618,170.09453340000618,170.09453340000618,170.09453340000618,170.09453340000618,170.09453340000618,170.09453340000618,170.09453340000618,170.09453340000618,170.09453340000618,,005,P018,2025_Mar_07_1819,ConditionRich,2021.2.3,59.94797714622766,
144.0,144.75,37,0.75,Stimuli/P018/things_plastic_film_09s.jpg,0,0,0.0,0,250,250,250,,,,,,,,,,,,,144.00921930000186,0.009219300001859665,None,170.32808790000126,170.32808790000126,170.32808790000126,170.32808790000126,170.32808790000126,170.32808790000126,170.32808790000126,170.32808790000126,170.32808790000126,170.32808790000126,,005,P018,2025_Mar_07_1819,ConditionRich,2021.2.3,59.94797714622766,
144.75,145.0,41,0.0,Stimuli/Blank.png,0,0,0.0,0,251,251,251,,,,,,,,,,,,,144.76074030000018,0.010740300000179559,None,171.0787549000015,171.0787549000015,171.0787549000015,171.0787549000015,171.0787549000015,171.0787549000015,171.0787549000015,171.0787549000015,171.0787549000015,171.0787549000015,,005,P018,2025_Mar_07_1819,ConditionRich,2021.2.3,59.94797714622766,
145.0,145.75,37,0.75,Stimuli/P018/things_plastic_film_09s.jpg,0,0,0.0,0,252,252,252,,,,,,,,,,,,,145.01110289999633,0.011102899996330962,None,171.34564740000496,171.34564740000496,171.34564740000496,171.34564740000496,171.34564740000496,171.34564740000496,171.34564740000496,171.34564740000496,171.34564740000496,171.34564740000496,,005,P018,2025_Mar_07_1819,ConditionRich,2021.2.3,59.94797714622766,
145.75,146.0,41,0.0,Stimuli/Blank.png,0,0,0.0,0,253,253,253,,,,,,,,,,,,,145.77940549999767,0.029405499997665174,None,172.11300689999916,172.11300689999916,172.11300689999916,172.11300689999916,172.11300689999916,172.11300689999916,172.11300689999916,172.11300689999916,172.11300689999916,172.11300689999916,,005,P018,2025_Mar_07_1819,ConditionRich,2021.2.3,59.94797714622766,
146.0,146.75,37,0.75,Stimuli/P018/things_plastic_film_09s.jpg,0,0,0.0,0,254,254,254,,,,,,,,,,,,,146.0298554999972,0.029855499997211155,None,172.36326100000588,172.36326100000588,172.36326100000588,172.36326100000588,172.36326100000588,172.36326100000588,172.36326100000588,172.36326100000588,172.36326100000588,172.36326100000588,,005,P018,2025_Mar_07_1819,ConditionRich,2021.2.3,59.94797714622766,
146.75,147.0,41,0.0,Stimuli/Blank.png,0,0,0.0,0,255,255,255,,,,,,,,,,,,,146.77900979999686,0.0290097999968566,None,173.09719659999973,173.09719659999973,173.09719659999973,173.09719659999973,173.09719659999973,173.09719659999973,173.09719659999973,173.09719659999973,173.09719659999973,173.09719659999973,,005,P018,2025_Mar_07_1819,ConditionRich,2021.2.3,59.94797714622766,
147.0,147.75,37,0.75,Stimuli/P018/things_plastic_film_09s.jpg,0,0,0.0,0,256,256,256,,,,,,,,,,,,,147.01483890000236,0.014838900002359878,None,173.34741620000568,173.34741620000568,173.34741620000568,173.34741620000568,173.34741620000568,173.34741620000568,173.34741620000568,173.34741620000568,173.34741620000568,173.34741620000568,,005,P018,2025_Mar_07_1819,ConditionRich,2021.2.3,59.94797714622766,
147.75,148.0,41,0.0,Stimuli/Blank.png,0,0,0.0,0,257,257,257,,,,,,,,,,,,,147.7804238999961,0.030423899996094406,None,174.0980811000045,174.0980811000045,174.0980811000045,174.0980811000045,174.0980811000045,174.0980811000045,174.0980811000045,174.0980811000045,174.0980811000045,174.0980811000045,,005,P018,2025_Mar_07_1819,ConditionRich,2021.2.3,59.94797714622766,
148.0,148.75,20,0.75,Stimuli/P018/sun_buukivvfbfhosrng.jpg,0,0,0.0,0,258,258,258,,,,,,,,,,,,,148.0158386999974,0.015838699997402728,None,174.34830480000528,174.34830480000528,174.34830480000528,174.34830480000528,174.34830480000528,174.34830480000528,174.34830480000528,174.34830480000528,174.34830480000528,174.34830480000528,,005,P018,2025_Mar_07_1819,ConditionRich,2021.2.3,59.94797714622766,
148.75,149.0,41,0.0,Stimuli/Blank.png,0,0,0.0,0,259,259,259,,,,,,,,,,,,,148.76345230000152,0.01345230000151787,None,175.0822834999999,175.0822834999999,175.0822834999999,175.0822834999999,175.0822834999999,175.0822834999999,175.0822834999999,175.0822834999999,175.0822834999999,175.0822834999999,,005,P018,2025_Mar_07_1819,ConditionRich,2021.2.3,59.94797714622766,
149.0,149.75,20,0.75,Stimuli/P018/sun_buukivvfbfhosrng.jpg,0,0,0.0,0,260,260,260,,,,,,,,,,,,,149.01436229999672,0.01436229999671923,None,175.34919220000302,175.34919220000302,175.34919220000302,175.34919220000302,175.34919220000302,175.34919220000302,175.34919220000302,175.34919220000302,175.34919220000302,175.34919220000302,,005,P018,2025_Mar_07_1819,ConditionRich,2021.2.3,59.94797714622766,
149.75,150.0,41,0.0,Stimuli/Blank.png,0,0,0.0,0,261,261,261,,,,,,,,,,,,,149.78094659999624,0.030946599996241275,None,176.09984740000073,176.09984740000073,176.09984740000073,176.09984740000073,176.09984740000073,176.09984740000073,176.09984740000073,176.09984740000073,176.09984740000073,176.09984740000073,,005,P018,2025_Mar_07_1819,ConditionRich,2021.2.3,59.94797714622766,
150.0,150.75,20,0.75,Stimuli/P018/sun_buukivvfbfhosrng.jpg,0,0,0.0,0,262,262,262,,,,,,,,,,,,,150.0159077999997,0.01590779999969527,None,176.35007900000346,176.35007900000346,176.35007900000346,176.35007900000346,176.35007900000346,176.35007900000346,176.35007900000346,176.35007900000346,176.35007900000346,176.35007900000346,,005,P018,2025_Mar_07_1819,ConditionRich,2021.2.3,59.94797714622766,
