eventStartTime,eventEndTime,eventCond,imSize,imFile,responseEvent,fixRespStart,fixRespEnd,Events.thisRepN,Events.thisTrialN,Events.thisN,Events.thisIndex,Instructions.started,Instructions.stopped,participantReadyResponse.keys,participantReadyResponse.rt,participantReadyResponse.started,participantReadyResponse.stopped,startWaitforTrigger,triggerResponse.keys,triggerResponse.rt,triggerResponse.started,triggerResponse.stopped,globalTimer,actualStartTime,startTimingDiff,participantResponse.keys,participantResponse.started,participantResponse.stopped,image.started,image.stopped,fixationOutside.started,fixationOutside.stopped,fixationResponse.started,fixationResponse.stopped,fixationInside.started,fixationInside.stopped,participantResponse.rt,session,participant,date,expName,psychopyVersion,frameRate,
,,,,,,,,,,,,11.74472809999861,None,2,0.7549891000016942,11.74472809999861,None,,,,,,,,,,,,,,,,,,,,,008,P018,2025_Mar_07_1846,ConditionRich,2021.2.3,59.940970132342926,
,,,,,,,,,,,,,,,,,,12.518154299999878,5,15.841158199997153,12.530957999995735,None,,,,,,,,,,,,,,,,008,P018,2025_Mar_07_1846,ConditionRich,2021.2.3,59.940970132342926,
0.0,4.0,0,0.0,Stimuli/Blank.png,0,0,0.0,0,0,0,0,,,,,,,,,,,,28.382101299997885,0.06634059999487363,0.06634059999487363,None,28.461744099993666,None,28.461744099993666,None,28.461744099993666,None,28.461744099993666,28.461744099993666,28.461744099993666,None,,008,P018,2025_Mar_07_1846,ConditionRich,2021.2.3,59.940970132342926,
4.0,4.75,14,0.75,Stimuli/P018/sun_bljpqnfmmqkjsfvx.jpg,0,0,0.0,0,1,1,1,,,,,,,,,,,,,4.003435899998294,0.0034358999982941896,None,32.39896299999964,32.39896299999964,32.39896299999964,32.39896299999964,32.39896299999964,32.39896299999964,32.39896299999964,32.39896299999964,32.39896299999964,32.39896299999964,,008,P018,2025_Mar_07_1846,ConditionRich,2021.2.3,59.940970132342926,
4.75,5.0,41,0.0,Stimuli/Blank.png,0,0,0.0,0,2,2,2,,,,,,,,,,,,,4.752734800000326,0.0027348000003257766,None,33.149561999998696,33.149561999998696,33.149561999998696,33.149561999998696,33.149561999998696,33.149561999998696,33.149561999998696,33.149561999998696,33.149561999998696,33.149561999998696,,008,P018,2025_Mar_07_1846,ConditionRich,2021.2.3,59.940970132342926,
5.0,5.75,14,0.75,Stimuli/P018/sun_bljpqnfmmqkjsfvx.jpg,0,0,0.0,0,3,3,3,,,,,,,,,,,,,5.003607799997553,0.0036077999975532293,None,33.39953859999514,33.39953859999514,33.39953859999514,33.39953859999514,33.39953859999514,33.39953859999514,33.39953859999514,33.39953859999514,33.39953859999514,33.39953859999514,,008,P018,2025_Mar_07_1846,ConditionRich,2021.2.3,59.940970132342926,
5.75,6.0,41,0.0,Stimuli/Blank.png,0,0,0.0,0,4,4,4,,,,,,,,,,,,,5.754103200000827,0.004103200000827201,None,34.15020339999319,34.15020339999319,34.15020339999319,34.15020339999319,34.15020339999319,34.15020339999319,34.15020339999319,34.15020339999319,34.15020339999319,34.15020339999319,,008,P018,2025_Mar_07_1846,ConditionRich,2021.2.3,59.940970132342926,
6.0,6.75,14,0.75,Stimuli/P018/sun_bljpqnfmmqkjsfvx.jpg,0,0,0.0,0,5,5,5,,,,,,,,,,,,,6.004169299994828,0.0041692999948281795,None,34.400436199997785,34.400436199997785,34.400436199997785,34.400436199997785,34.400436199997785,34.400436199997785,34.400436199997785,34.400436199997785,34.400436199997785,34.400436199997785,,008,P018,2025_Mar_07_1846,ConditionRich,2021.2.3,59.940970132342926,
6.75,7.0,41,0.0,Stimuli/Blank.png,0,0,0.0,0,6,6,6,,,,,,,,,,,,,6.754552200000035,0.004552200000034645,None,35.151097499998286,35.151097499998286,35.151097499998286,35.151097499998286,35.151097499998286,35.151097499998286,35.151097499998286,35.151097499998286,35.151097499998286,35.151097499998286,,008,P018,2025_Mar_07_1846,ConditionRich,2021.2.3,59.940970132342926,
7.0,7.75,14,0.75,Stimuli/P018/sun_bljpqnfmmqkjsfvx.jpg,0,0,0.0,0,7,7,7,,,,,,,,,,,,,7.005408999997599,0.005408999997598585,None,35.418050599997514,35.418050599997514,35.418050599997514,35.418050599997514,35.418050599997514,35.418050599997514,35.418050599997514,35.418050599997514,35.418050599997514,35.418050599997514,,008,P018,2025_Mar_07_1846,ConditionRich,2021.2.3,59.940970132342926,
7.75,8.0,41,0.0,Stimuli/Blank.png,0,0,0.0,0,8,8,8,,,,,,,,,,,,,7.772750500000257,0.02275050000025658,None,36.16869929999666,36.16869929999666,36.16869929999666,36.16869929999666,36.16869929999666,36.16869929999666,36.16869929999666,36.16869929999666,36.16869929999666,36.16869929999666,,008,P018,2025_Mar_07_1846,ConditionRich,2021.2.3,59.940970132342926,
8.0,8.75,19,0.75,Stimuli/P018/sun_brrwzaypucosdcgt.jpg,0,0,0.0,0,9,9,9,,,,,,,,,,,,,8.005649399994581,0.005649399994581472,None,36.40222910000011,36.40222910000011,36.40222910000011,36.40222910000011,36.40222910000011,36.40222910000011,36.40222910000011,36.40222910000011,36.40222910000011,36.40222910000011,,008,P018,2025_Mar_07_1846,ConditionRich,2021.2.3,59.940970132342926,
8.75,9.0,41,0.0,Stimuli/Blank.png,0,0,0.0,0,10,10,10,,,,,,,,,,,,,8.758318599997438,0.008318599997437559,None,37.169586199997866,37.169586199997866,37.169586199997866,37.169586199997866,37.169586199997866,37.169586199997866,37.169586199997866,37.169586199997866,37.169586199997866,37.169586199997866,,008,P018,2025_Mar_07_1846,ConditionRich,2021.2.3,59.940970132342926,
9.0,9.75,19,0.75,Stimuli/P018/sun_brrwzaypucosdcgt.jpg,0,0,0.0,0,11,11,11,,,,,,,,,,,,,9.024411399994278,0.024411399994278327,None,37.41980959999637,37.41980959999637,37.41980959999637,37.41980959999637,37.41980959999637,37.41980959999637,37.41980959999637,37.41980959999637,37.41980959999637,37.41980959999637,,008,P018,2025_Mar_07_1846,ConditionRich,2021.2.3,59.940970132342926,
9.75,10.0,41,0.0,Stimuli/Blank.png,0,0,0.0,0,12,12,12,,,,,,,,,,,,,9.75742779999564,0.0074277999956393614,None,38.153872599999886,38.153872599999886,38.153872599999886,38.153872599999886,38.153872599999886,38.153872599999886,38.153872599999886,38.153872599999886,38.153872599999886,38.153872599999886,,008,P018,2025_Mar_07_1846,ConditionRich,2021.2.3,59.940970132342926,
10.0,10.75,19,0.75,Stimuli/P018/sun_brrwzaypucosdcgt.jpg,0,0,0.0,0,13,13,13,,,,,,,,,,,,,10.007838999998057,0.007838999998057261,None,38.40408629999729,38.40408629999729,38.40408629999729,38.40408629999729,38.40408629999729,38.40408629999729,38.40408629999729,38.40408629999729,38.40408629999729,38.40408629999729,,008,P018,2025_Mar_07_1846,ConditionRich,2021.2.3,59.940970132342926,
10.75,11.0,41,0.0,Stimuli/Blank.png,0,0,0.0,0,14,14,14,,,,,,,,,,,,,10.758661100000609,0.008661100000608712,None,39.15475659999356,39.15475659999356,39.15475659999356,39.15475659999356,39.15475659999356,39.15475659999356,39.15475659999356,39.15475659999356,39.15475659999356,39.15475659999356,,008,P018,2025_Mar_07_1846,ConditionRich,2021.2.3,59.940970132342926,
11.0,11.75,19,0.75,Stimuli/P018/sun_brrwzaypucosdcgt.jpg,0,0,0.0,0,15,15,15,,,,,,,,,,,,,11.008908299998438,0.008908299998438451,None,39.42165269999532,39.42165269999532,39.42165269999532,39.42165269999532,39.42165269999532,39.42165269999532,39.42165269999532,39.42165269999532,39.42165269999532,39.42165269999532,,008,P018,2025_Mar_07_1846,ConditionRich,2021.2.3,59.940970132342926,
11.75,12.0,41,0.0,Stimuli/Blank.png,0,0,0.0,0,16,16,16,,,,,,,,,,,,,11.778108099999372,0.028108099999371916,None,40.18900759999815,40.18900759999815,40.18900759999815,40.18900759999815,40.18900759999815,40.18900759999815,40.18900759999815,40.18900759999815,40.18900759999815,40.18900759999815,,008,P018,2025_Mar_07_1846,ConditionRich,2021.2.3,59.940970132342926,
12.0,12.75,35,0.75,Stimuli/P018/things_lobster_09s.jpg,0,0,0.0,0,17,17,17,,,,,,,,,,,,,12.025821699993685,0.025821699993684888,None,40.439245999994455,40.439245999994455,40.439245999994455,40.439245999994455,40.439245999994455,40.439245999994455,40.439245999994455,40.439245999994455,40.439245999994455,40.439245999994455,,008,P018,2025_Mar_07_1846,ConditionRich,2021.2.3,59.940970132342926,
12.75,13.0,41,0.0,Stimuli/Blank.png,0,0,0.0,0,18,18,18,,,,,,,,,,,,,12.778646299993852,0.028646299993852153,None,41.18990529999428,41.18990529999428,41.18990529999428,41.18990529999428,41.18990529999428,41.18990529999428,41.18990529999428,41.18990529999428,41.18990529999428,41.18990529999428,,008,P018,2025_Mar_07_1846,ConditionRich,2021.2.3,59.940970132342926,
13.0,13.75,35,0.75,Stimuli/P018/things_lobster_09s.jpg,0,0,0.0,0,19,19,19,,,,,,,,,,,,,13.028633599999011,0.028633599999011494,None,41.44010949999938,41.44010949999938,41.44010949999938,41.44010949999938,41.44010949999938,41.44010949999938,41.44010949999938,41.44010949999938,41.44010949999938,41.44010949999938,,008,P018,2025_Mar_07_1846,ConditionRich,2021.2.3,59.940970132342926,
13.75,14.0,41,0.0,Stimuli/Blank.png,0,0,0.0,0,20,20,20,,,,,,,,,,,,,13.777380399995309,0.027380399995308835,None,42.174092699999164,42.174092699999164,42.174092699999164,42.174092699999164,42.174092699999164,42.174092699999164,42.174092699999164,42.174092699999164,42.174092699999164,42.174092699999164,,008,P018,2025_Mar_07_1846,ConditionRich,2021.2.3,59.940970132342926,
14.0,14.75,35,0.75,Stimuli/P018/things_lobster_09s.jpg,0,0,0.0,0,21,21,21,,,,,,,,,,,,,14.011491999997816,0.011491999997815583,None,42.40762999999424,42.40762999999424,42.40762999999424,42.40762999999424,42.40762999999424,42.40762999999424,42.40762999999424,42.40762999999424,42.40762999999424,42.40762999999424,,008,P018,2025_Mar_07_1846,ConditionRich,2021.2.3,59.940970132342926,
14.75,15.0,41,0.0,Stimuli/Blank.png,0,0,0.0,0,22,22,22,,,,,,,,,,,,,14.761705099997926,0.011705099997925572,None,43.15829369999847,43.15829369999847,43.15829369999847,43.15829369999847,43.15829369999847,43.15829369999847,43.15829369999847,43.15829369999847,43.15829369999847,43.15829369999847,,008,P018,2025_Mar_07_1846,ConditionRich,2021.2.3,59.940970132342926,
15.0,15.75,35,0.75,Stimuli/P018/things_lobster_09s.jpg,0,0,0.0,0,23,23,23,,,,,,,,,,,,,15.012780099998054,0.012780099998053629,None,43.42518889999337,43.42518889999337,43.42518889999337,43.42518889999337,43.42518889999337,43.42518889999337,43.42518889999337,43.42518889999337,43.42518889999337,43.42518889999337,,008,P018,2025_Mar_07_1846,ConditionRich,2021.2.3,59.940970132342926,
15.75,16.0,41,0.0,Stimuli/Blank.png,0,0,0.0,0,24,24,24,,,,,,,,,,,,,15.780128499995044,0.030128499995043967,None,44.175877999994555,44.175877999994555,44.175877999994555,44.175877999994555,44.175877999994555,44.175877999994555,44.175877999994555,44.175877999994555,44.175877999994555,44.175877999994555,,008,P018,2025_Mar_07_1846,ConditionRich,2021.2.3,59.940970132342926,
16.0,16.75,38,0.75,Stimuli/P018/things_pony_09s.jpg,0,0,0.0,0,25,25,25,,,,,,,,,,,,,16.01366859999689,0.013668599996890407,None,44.42617279999831,44.42617279999831,44.42617279999831,44.42617279999831,44.42617279999831,44.42617279999831,44.42617279999831,44.42617279999831,44.42617279999831,44.42617279999831,,008,P018,2025_Mar_07_1846,ConditionRich,2021.2.3,59.940970132342926,
16.75,17.0,41,0.0,Stimuli/Blank.png,0,0,0.0,0,26,26,26,,,,,,,,,,,,,16.78003439999884,0.030034399998839945,None,45.17674169999373,45.17674169999373,45.17674169999373,45.17674169999373,45.17674169999373,45.17674169999373,45.17674169999373,45.17674169999373,45.17674169999373,45.17674169999373,,008,P018,2025_Mar_07_1846,ConditionRich,2021.2.3,59.940970132342926,
17.0,17.75,38,0.75,Stimuli/P018/things_pony_09s.jpg,0,0,0.0,0,27,27,27,,,,,,,,,,,,,17.013697099995625,0.01369709999562474,None,45.41027639999811,45.41027639999811,45.41027639999811,45.41027639999811,45.41027639999811,45.41027639999811,45.41027639999811,45.41027639999811,45.41027639999811,45.41027639999811,,008,P018,2025_Mar_07_1846,ConditionRich,2021.2.3,59.940970132342926,
17.75,18.0,41,0.0,Stimuli/Blank.png,0,0,0.0,0,28,28,28,,,,,,,,,,,,,17.765061199999764,0.01506119999976363,None,46.16093849999743,46.16093849999743,46.16093849999743,46.16093849999743,46.16093849999743,46.16093849999743,46.16093849999743,46.16093849999743,46.16093849999743,46.16093849999743,,008,P018,2025_Mar_07_1846,ConditionRich,2021.2.3,59.940970132342926,
18.0,18.75,38,0.75,Stimuli/P018/things_pony_09s.jpg,0,0,0.0,0,29,29,29,,,,,,,,,,,,,18.014820899996266,0.014820899996266235,None,46.411164299999655,46.411164299999655,46.411164299999655,46.411164299999655,46.411164299999655,46.411164299999655,46.411164299999655,46.411164299999655,46.411164299999655,46.411164299999655,,008,P018,2025_Mar_07_1846,ConditionRich,2021.2.3,59.940970132342926,
18.75,19.0,41,0.0,Stimuli/Blank.png,0,0,0.0,0,30,30,30,,,,,,,,,,,,,18.76508119999926,0.015081199999258388,None,47.16183759999694,47.16183759999694,47.16183759999694,47.16183759999694,47.16183759999694,47.16183759999694,47.16183759999694,47.16183759999694,47.16183759999694,47.16183759999694,,008,P018,2025_Mar_07_1846,ConditionRich,2021.2.3,59.940970132342926,
19.0,19.75,38,0.75,Stimuli/P018/things_pony_09s.jpg,0,0,0.0,0,31,31,31,,,,,,,,,,,,,19.018291899999895,0.018291899999894667,None,47.428738099995826,47.428738099995826,47.428738099995826,47.428738099995826,47.428738099995826,47.428738099995826,47.428738099995826,47.428738099995826,47.428738099995826,47.428738099995826,,008,P018,2025_Mar_07_1846,ConditionRich,2021.2.3,59.940970132342926,
19.75,20.0,41,0.0,Stimuli/Blank.png,0,0,0.0,0,32,32,32,,,,,,,,,,,,,19.768521099998907,0.01852109999890672,None,48.17940119999548,48.17940119999548,48.17940119999548,48.17940119999548,48.17940119999548,48.17940119999548,48.17940119999548,48.17940119999548,48.17940119999548,48.17940119999548,,008,P018,2025_Mar_07_1846,ConditionRich,2021.2.3,59.940970132342926,
20.0,20.75,8,0.75,Stimuli/P018/sun_axsmqyyvebrcuhkn.jpg,0,0,0.0,0,33,33,33,,,,,,,,,,,,,20.018298799994227,0.01829879999422701,None,48.4296319999994,48.4296319999994,48.4296319999994,48.4296319999994,48.4296319999994,48.4296319999994,48.4296319999994,48.4296319999994,48.4296319999994,48.4296319999994,,008,P018,2025_Mar_07_1846,ConditionRich,2021.2.3,59.940970132342926,
20.75,21.0,41,0.0,Stimuli/Blank.png,0,0,0.0,0,34,34,34,,,,,,,,,,,,,20.76863649999723,0.018636499997228384,None,49.18031169999449,49.18031169999449,49.18031169999449,49.18031169999449,49.18031169999449,49.18031169999449,49.18031169999449,49.18031169999449,49.18031169999449,49.18031169999449,,008,P018,2025_Mar_07_1846,ConditionRich,2021.2.3,59.940970132342926,
21.0,21.75,8,0.75,Stimuli/P018/sun_axsmqyyvebrcuhkn.jpg,0,0,0.0,0,35,35,35,,,,,,,,,,,,,21.01706969999941,0.01706969999941066,None,49.41382569999405,49.41382569999405,49.41382569999405,49.41382569999405,49.41382569999405,49.41382569999405,49.41382569999405,49.41382569999405,49.41382569999405,49.41382569999405,,008,P018,2025_Mar_07_1846,ConditionRich,2021.2.3,59.940970132342926,
21.75,22.0,41,0.0,Stimuli/Blank.png,0,0,0.0,0,36,36,36,,,,,,,,,,,,,21.751775099997758,0.001775099997757934,None,50.1478541999968,50.1478541999968,50.1478541999968,50.1478541999968,50.1478541999968,50.1478541999968,50.1478541999968,50.1478541999968,50.1478541999968,50.1478541999968,,008,P018,2025_Mar_07_1846,ConditionRich,2021.2.3,59.940970132342926,
22.0,22.75,8,0.75,Stimuli/P018/sun_axsmqyyvebrcuhkn.jpg,0,0,0.0,0,37,37,37,,,,,,,,,,,,,22.0034744999939,0.0034744999938993715,None,50.414708799995424,50.414708799995424,50.414708799995424,50.414708799995424,50.414708799995424,50.414708799995424,50.414708799995424,50.414708799995424,50.414708799995424,50.414708799995424,,008,P018,2025_Mar_07_1846,ConditionRich,2021.2.3,59.940970132342926,
22.75,23.0,41,0.0,Stimuli/Blank.png,0,0,0.0,0,38,38,38,,,,,,,,,,,,,22.769101399993815,0.019101399993814994,None,51.16537399999652,51.16537399999652,51.16537399999652,51.16537399999652,51.16537399999652,51.16537399999652,51.16537399999652,51.16537399999652,51.16537399999652,51.16537399999652,,008,P018,2025_Mar_07_1846,ConditionRich,2021.2.3,59.940970132342926,
23.0,23.75,8,0.75,Stimuli/P018/sun_axsmqyyvebrcuhkn.jpg,0,0,0.0,0,39,39,39,,,,,,,,,,,,,23.002910699993663,0.002910699993663002,None,51.415594399994006,51.415594399994006,51.415594399994006,51.415594399994006,51.415594399994006,51.415594399994006,51.415594399994006,51.415594399994006,51.415594399994006,51.415594399994006,,008,P018,2025_Mar_07_1846,ConditionRich,2021.2.3,59.940970132342926,
23.75,24.0,41,0.0,Stimuli/Blank.png,0,0,0.0,0,40,40,40,,,,,,,,,,,,,23.769712599998456,0.019712599998456426,None,52.16625789999671,52.16625789999671,52.16625789999671,52.16625789999671,52.16625789999671,52.16625789999671,52.16625789999671,52.16625789999671,52.16625789999671,52.16625789999671,,008,P018,2025_Mar_07_1846,ConditionRich,2021.2.3,59.940970132342926,
24.0,24.75,23,0.75,Stimuli/P018/things_boy_09s.jpg,0,0,0.0,0,41,41,41,,,,,,,,,,,,,24.004035199999635,0.004035199999634642,None,52.39980669999932,52.39980669999932,52.39980669999932,52.39980669999932,52.39980669999932,52.39980669999932,52.39980669999932,52.39980669999932,52.39980669999932,52.39980669999932,,008,P018,2025_Mar_07_1846,ConditionRich,2021.2.3,59.940970132342926,
24.75,25.0,41,0.0,Stimuli/Blank.png,0,0,0.0,0,42,42,42,,,,,,,,,,,,,24.754419199998665,0.004419199998665135,None,53.150456499999564,53.150456499999564,53.150456499999564,53.150456499999564,53.150456499999564,53.150456499999564,53.150456499999564,53.150456499999564,53.150456499999564,53.150456499999564,,008,P018,2025_Mar_07_1846,ConditionRich,2021.2.3,59.940970132342926,
25.0,25.75,23,0.75,Stimuli/P018/things_boy_09s.jpg,0,0,0.0,0,43,43,43,,,,,,,,,,,,,25.004085399996256,0.004085399996256456,None,53.40067899999849,53.40067899999849,53.40067899999849,53.40067899999849,53.40067899999849,53.40067899999849,53.40067899999849,53.40067899999849,53.40067899999849,53.40067899999849,,008,P018,2025_Mar_07_1846,ConditionRich,2021.2.3,59.940970132342926,
25.75,26.0,41,0.0,Stimuli/Blank.png,0,0,0.0,0,44,44,44,,,,,,,,,,,,,25.754731999993965,0.004731999993964564,None,54.15133909999713,54.15133909999713,54.15133909999713,54.15133909999713,54.15133909999713,54.15133909999713,54.15133909999713,54.15133909999713,54.15133909999713,54.15133909999713,,008,P018,2025_Mar_07_1846,ConditionRich,2021.2.3,59.940970132342926,
26.0,26.75,23,0.75,Stimuli/P018/things_boy_09s.jpg,0,0,0.0,0,45,45,45,,,,,,,,,,,,,26.00483749999694,0.004837499996938277,None,54.401566900000034,54.401566900000034,54.401566900000034,54.401566900000034,54.401566900000034,54.401566900000034,54.401566900000034,54.401566900000034,54.401566900000034,54.401566900000034,,008,P018,2025_Mar_07_1846,ConditionRich,2021.2.3,59.940970132342926,
26.75,27.0,41,0.0,Stimuli/Blank.png,0,0,0.0,0,46,46,46,,,,,,,,,,,,,26.7555435999966,0.005543599996599369,None,55.1522346999991,55.1522346999991,55.1522346999991,55.1522346999991,55.1522346999991,55.1522346999991,55.1522346999991,55.1522346999991,55.1522346999991,55.1522346999991,,008,P018,2025_Mar_07_1846,ConditionRich,2021.2.3,59.940970132342926,
27.0,27.75,23,0.75,Stimuli/P018/things_boy_09s.jpg,0,0,0.0,0,47,47,47,,,,,,,,,,,,,27.006450299995777,0.0064502999957767315,None,55.41910019999341,55.41910019999341,55.41910019999341,55.41910019999341,55.41910019999341,55.41910019999341,55.41910019999341,55.41910019999341,55.41910019999341,55.41910019999341,,008,P018,2025_Mar_07_1846,ConditionRich,2021.2.3,59.940970132342926,
27.75,28.0,41,0.0,Stimuli/Blank.png,0,0,0.0,0,48,48,48,,,,,,,,,,,,,27.77381929999683,0.023819299996830523,None,56.16980349999358,56.16980349999358,56.16980349999358,56.16980349999358,56.16980349999358,56.16980349999358,56.16980349999358,56.16980349999358,56.16980349999358,56.16980349999358,,008,P018,2025_Mar_07_1846,ConditionRich,2021.2.3,59.940970132342926,
28.0,28.75,39,0.75,Stimuli/P018/things_veil_09s.jpg,0,0,0.0,0,49,49,49,,,,,,,,,,,,,28.00813819999894,0.008138199998938944,None,56.42002059999504,56.42002059999504,56.42002059999504,56.42002059999504,56.42002059999504,56.42002059999504,56.42002059999504,56.42002059999504,56.42002059999504,56.42002059999504,,008,P018,2025_Mar_07_1846,ConditionRich,2021.2.3,59.940970132342926,
28.75,29.0,41,0.0,Stimuli/Blank.png,0,0,0.0,0,50,50,50,,,,,,,,,,,,,28.77449869999691,0.024498699996911455,None,57.17068179999478,57.17068179999478,57.17068179999478,57.17068179999478,57.17068179999478,57.17068179999478,57.17068179999478,57.17068179999478,57.17068179999478,57.17068179999478,,008,P018,2025_Mar_07_1846,ConditionRich,2021.2.3,59.940970132342926,
29.0,29.75,39,0.75,Stimuli/P018/things_veil_09s.jpg,0,0,0.0,0,51,51,51,,,,,,,,,,,,,29.008044399997743,0.008044399997743312,None,57.40421939999942,57.40421939999942,57.40421939999942,57.40421939999942,57.40421939999942,57.40421939999942,57.40421939999942,57.40421939999942,57.40421939999942,57.40421939999942,,008,P018,2025_Mar_07_1846,ConditionRich,2021.2.3,59.940970132342926,
29.75,30.0,41,0.0,Stimuli/Blank.png,0,0,0.0,0,52,52,52,,,,,,,,,,,,,29.758801299998595,0.008801299998594914,None,58.15489589999925,58.15489589999925,58.15489589999925,58.15489589999925,58.15489589999925,58.15489589999925,58.15489589999925,58.15489589999925,58.15489589999925,58.15489589999925,,008,P018,2025_Mar_07_1846,ConditionRich,2021.2.3,59.940970132342926,
30.0,30.75,39,0.75,Stimuli/P018/things_veil_09s.jpg,0,0,0.0,0,53,53,53,,,,,,,,,,,,,30.00918869999441,0.009188699994410854,None,58.40511549999792,58.40511549999792,58.40511549999792,58.40511549999792,58.40511549999792,58.40511549999792,58.40511549999792,58.40511549999792,58.40511549999792,58.40511549999792,,008,P018,2025_Mar_07_1846,ConditionRich,2021.2.3,59.940970132342926,
30.75,31.0,41,0.0,Stimuli/Blank.png,0,0,0.0,0,54,54,54,,,,,,,,,,,,,30.759256699995603,0.009256699995603412,None,59.15577229999326,59.15577229999326,59.15577229999326,59.15577229999326,59.15577229999326,59.15577229999326,59.15577229999326,59.15577229999326,59.15577229999326,59.15577229999326,,008,P018,2025_Mar_07_1846,ConditionRich,2021.2.3,59.940970132342926,
31.0,31.75,39,0.75,Stimuli/P018/things_veil_09s.jpg,0,0,0.0,0,55,55,55,,,,,,,,,,,,,31.00951659999555,0.009516599995549768,None,59.40599269999802,59.40599269999802,59.40599269999802,59.40599269999802,59.40599269999802,59.40599269999802,59.40599269999802,59.40599269999802,59.40599269999802,59.40599269999802,,008,P018,2025_Mar_07_1846,ConditionRich,2021.2.3,59.940970132342926,
31.75,32.0,41,0.0,Stimuli/Blank.png,0,0,0.0,0,56,56,56,,,,,,,,,,,,,31.75994069999433,0.009940699994331226,None,60.15665619999345,60.15665619999345,60.15665619999345,60.15665619999345,60.15665619999345,60.15665619999345,60.15665619999345,60.15665619999345,60.15665619999345,60.15665619999345,,008,P018,2025_Mar_07_1846,ConditionRich,2021.2.3,59.940970132342926,
32.0,32.75,30,0.75,Stimuli/P018/things_girl_09s.jpg,0,0,0.0,0,57,57,57,,,,,,,,,,,,,32.0112089999966,0.011208999996597413,None,60.42356489999656,60.42356489999656,60.42356489999656,60.42356489999656,60.42356489999656,60.42356489999656,60.42356489999656,60.42356489999656,60.42356489999656,60.42356489999656,,008,P018,2025_Mar_07_1846,ConditionRich,2021.2.3,59.940970132342926,
32.75,33.0,41,0.0,Stimuli/Blank.png,0,0,0.0,0,58,58,58,,,,,,,,,,,,,32.77892869999778,0.028928699997777585,None,61.17423279999639,61.17423279999639,61.17423279999639,61.17423279999639,61.17423279999639,61.17423279999639,61.17423279999639,61.17423279999639,61.17423279999639,61.17423279999639,,008,P018,2025_Mar_07_1846,ConditionRich,2021.2.3,59.940970132342926,
33.0,33.75,30,0.75,Stimuli/P018/things_girl_09s.jpg,0,0,0.0,0,59,59,59,,,,,,,,,,,,,33.013547700000345,0.013547700000344776,None,61.424464899995655,61.424464899995655,61.424464899995655,61.424464899995655,61.424464899995655,61.424464899995655,61.424464899995655,61.424464899995655,61.424464899995655,61.424464899995655,,008,P018,2025_Mar_07_1846,ConditionRich,2021.2.3,59.940970132342926,
33.75,34.0,41,0.0,Stimuli/Blank.png,0,0,0.0,0,60,60,60,,,,,,,,,,,,,33.778969699997106,0.028969699997105636,None,62.17505419999361,62.17505419999361,62.17505419999361,62.17505419999361,62.17505419999361,62.17505419999361,62.17505419999361,62.17505419999361,62.17505419999361,62.17505419999361,,008,P018,2025_Mar_07_1846,ConditionRich,2021.2.3,59.940970132342926,
34.0,34.75,30,0.75,Stimuli/P018/things_girl_09s.jpg,0,0,0.0,0,61,61,61,,,,,,,,,,,,,34.011962999997195,0.011962999997194856,None,62.4086565999969,62.4086565999969,62.4086565999969,62.4086565999969,62.4086565999969,62.4086565999969,62.4086565999969,62.4086565999969,62.4086565999969,62.4086565999969,,008,P018,2025_Mar_07_1846,ConditionRich,2021.2.3,59.940970132342926,
34.75,35.0,41,0.0,Stimuli/Blank.png,0,0,0.0,0,62,62,62,,,,,,,,,,,,,34.762740099999064,0.012740099999064114,None,63.15931009999622,63.15931009999622,63.15931009999622,63.15931009999622,63.15931009999622,63.15931009999622,63.15931009999622,63.15931009999622,63.15931009999622,63.15931009999622,,008,P018,2025_Mar_07_1846,ConditionRich,2021.2.3,59.940970132342926,
35.0,35.75,30,0.75,Stimuli/P018/things_girl_09s.jpg,0,0,0.0,0,63,63,63,,,,,,,,,,,,,35.01361949999409,0.013619499994092621,None,63.42624269999942,63.42624269999942,63.42624269999942,63.42624269999942,63.42624269999942,63.42624269999942,63.42624269999942,63.42624269999942,63.42624269999942,63.42624269999942,,008,P018,2025_Mar_07_1846,ConditionRich,2021.2.3,59.940970132342926,
35.75,36.0,41,0.0,Stimuli/Blank.png,0,0,0.0,0,64,64,64,,,,,,,,,,,,,35.78303020000021,0.03303020000021206,None,64.19358289999946,64.19358289999946,64.19358289999946,64.19358289999946,64.19358289999946,64.19358289999946,64.19358289999946,64.19358289999946,64.19358289999946,64.19358289999946,,008,P018,2025_Mar_07_1846,ConditionRich,2021.2.3,59.940970132342926,
36.0,36.75,12,0.75,Stimuli/P018/sun_bhvaiabdgxjuwoth.jpg,1,0,0.75,0,65,65,65,,,,,,,,,,,,,36.01386409999395,0.01386409999395255,2,64.41041729999415,64.41041729999415,64.41041729999415,64.41041729999415,64.41041729999415,64.41041729999415,64.41041729999415,65.14439239999774,64.41041729999415,64.41041729999415,0.40232199999445584,008,P018,2025_Mar_07_1846,ConditionRich,2021.2.3,59.940970132342926,
36.75,37.0,41,0.0,Stimuli/Blank.png,0,0,0.0,0,66,66,66,,,,,,,,,,,,,36.76486219999788,0.014862199997878633,None,65.16108849999728,65.16108849999728,65.16108849999728,65.16108849999728,65.16108849999728,65.16108849999728,65.16108849999728,65.16108849999728,65.16108849999728,65.16108849999728,,008,P018,2025_Mar_07_1846,ConditionRich,2021.2.3,59.940970132342926,
37.0,37.75,12,0.75,Stimuli/P018/sun_bhvaiabdgxjuwoth.jpg,0,0,0.0,0,67,67,67,,,,,,,,,,,,,37.014715099998284,0.014715099998284131,None,65.42799489999743,65.42799489999743,65.42799489999743,65.42799489999743,65.42799489999743,65.42799489999743,65.42799489999743,65.42799489999743,65.42799489999743,65.42799489999743,,008,P018,2025_Mar_07_1846,ConditionRich,2021.2.3,59.940970132342926,
37.75,38.0,41,0.0,Stimuli/Blank.png,0,0,0.0,0,68,68,68,,,,,,,,,,,,,37.781869200000074,0.03186920000007376,None,66.17869479999354,66.17869479999354,66.17869479999354,66.17869479999354,66.17869479999354,66.17869479999354,66.17869479999354,66.17869479999354,66.17869479999354,66.17869479999354,,008,P018,2025_Mar_07_1846,ConditionRich,2021.2.3,59.940970132342926,
38.0,38.75,12,0.75,Stimuli/P018/sun_bhvaiabdgxjuwoth.jpg,0,0,0.0,0,69,69,69,,,,,,,,,,,,,38.01854309999908,0.01854309999907855,None,66.4288807999983,66.4288807999983,66.4288807999983,66.4288807999983,66.4288807999983,66.4288807999983,66.4288807999983,66.4288807999983,66.4288807999983,66.4288807999983,,008,P018,2025_Mar_07_1846,ConditionRich,2021.2.3,59.940970132342926,
38.75,39.0,41,0.0,Stimuli/Blank.png,0,0,0.0,0,70,70,70,,,,,,,,,,,,,38.76678879999963,0.01678879999963101,None,67.16286769999715,67.16286769999715,67.16286769999715,67.16286769999715,67.16286769999715,67.16286769999715,67.16286769999715,67.16286769999715,67.16286769999715,67.16286769999715,,008,P018,2025_Mar_07_1846,ConditionRich,2021.2.3,59.940970132342926,
39.0,39.75,12,0.75,Stimuli/P018/sun_bhvaiabdgxjuwoth.jpg,0,0,0.0,0,71,71,71,,,,,,,,,,,,,39.00042989999929,0.0004298999992897734,None,67.39638069999637,67.39638069999637,67.39638069999637,67.39638069999637,67.39638069999637,67.39638069999637,67.39638069999637,67.39638069999637,67.39638069999637,67.39638069999637,,008,P018,2025_Mar_07_1846,ConditionRich,2021.2.3,59.940970132342926,
39.75,40.0,41,0.0,Stimuli/Blank.png,0,0,0.0,0,72,72,72,,,,,,,,,,,,,39.75035709999793,0.00035709999792743474,None,68.1470554999978,68.1470554999978,68.1470554999978,68.1470554999978,68.1470554999978,68.1470554999978,68.1470554999978,68.1470554999978,68.1470554999978,68.1470554999978,,008,P018,2025_Mar_07_1846,ConditionRich,2021.2.3,59.940970132342926,
40.0,40.75,1,0.75,Stimuli/P018/sun_aawmwfqqbzauhqkb.jpg,0,0,0.0,0,73,73,73,,,,,,,,,,,,,40.00333859999955,0.0033385999995516613,None,68.41396199999872,68.41396199999872,68.41396199999872,68.41396199999872,68.41396199999872,68.41396199999872,68.41396199999872,68.41396199999872,68.41396199999872,68.41396199999872,,008,P018,2025_Mar_07_1846,ConditionRich,2021.2.3,59.940970132342926,
40.75,41.0,41,0.0,Stimuli/Blank.png,0,0,0.0,0,74,74,74,,,,,,,,,,,,,40.7685805000001,0.018580500000098255,None,69.16461789999448,69.16461789999448,69.16461789999448,69.16461789999448,69.16461789999448,69.16461789999448,69.16461789999448,69.16461789999448,69.16461789999448,69.16461789999448,,008,P018,2025_Mar_07_1846,ConditionRich,2021.2.3,59.940970132342926,
41.0,41.75,1,0.75,Stimuli/P018/sun_aawmwfqqbzauhqkb.jpg,0,0,0.0,0,75,75,75,,,,,,,,,,,,,41.00354289999814,0.0035428999981377274,None,69.41485489999468,69.41485489999468,69.41485489999468,69.41485489999468,69.41485489999468,69.41485489999468,69.41485489999468,69.41485489999468,69.41485489999468,69.41485489999468,,008,P018,2025_Mar_07_1846,ConditionRich,2021.2.3,59.940970132342926,
41.75,42.0,41,0.0,Stimuli/Blank.png,0,0,0.0,0,76,76,76,,,,,,,,,,,,,41.768898999995145,0.01889899999514455,None,70.16551089999848,70.16551089999848,70.16551089999848,70.16551089999848,70.16551089999848,70.16551089999848,70.16551089999848,70.16551089999848,70.16551089999848,70.16551089999848,,008,P018,2025_Mar_07_1846,ConditionRich,2021.2.3,59.940970132342926,
42.0,42.75,1,0.75,Stimuli/P018/sun_aawmwfqqbzauhqkb.jpg,0,0,0.0,0,77,77,77,,,,,,,,,,,,,42.00239429999783,0.0023942999978316948,None,70.39904629999364,70.39904629999364,70.39904629999364,70.39904629999364,70.39904629999364,70.39904629999364,70.39904629999364,70.39904629999364,70.39904629999364,70.39904629999364,,008,P018,2025_Mar_07_1846,ConditionRich,2021.2.3,59.940970132342926,
42.75,43.0,41,0.0,Stimuli/Blank.png,0,0,0.0,0,78,78,78,,,,,,,,,,,,,42.75366939999367,0.003669399993668776,None,71.14970699999685,71.14970699999685,71.14970699999685,71.14970699999685,71.14970699999685,71.14970699999685,71.14970699999685,71.14970699999685,71.14970699999685,71.14970699999685,,008,P018,2025_Mar_07_1846,ConditionRich,2021.2.3,59.940970132342926,
43.0,43.75,1,0.75,Stimuli/P018/sun_aawmwfqqbzauhqkb.jpg,1,0,0.75,0,79,79,79,,,,,,,,,,,,,43.00436769999942,0.004367699999420438,2,71.39993039999536,71.39993039999536,71.39993039999536,71.39993039999536,71.39993039999536,71.39993039999536,71.39993039999536,72.1339314999932,71.39993039999536,71.39993039999536,0.43076060000021243,008,P018,2025_Mar_07_1846,ConditionRich,2021.2.3,59.940970132342926,
43.75,44.0,41,0.0,Stimuli/Blank.png,0,0,0.0,0,80,80,80,,,,,,,,,,,,,43.75436300000001,0.004363000000012107,None,72.15060299999459,72.15060299999459,72.15060299999459,72.15060299999459,72.15060299999459,72.15060299999459,72.15060299999459,72.15060299999459,72.15060299999459,72.15060299999459,,008,P018,2025_Mar_07_1846,ConditionRich,2021.2.3,59.940970132342926,
44.0,44.75,2,0.75,Stimuli/P018/sun_acliytrpktltxwsx.jpg,0,0,0.0,0,81,81,81,,,,,,,,,,,,,44.00449089999893,0.004490899998927489,None,72.41753590000008,72.41753590000008,72.41753590000008,72.41753590000008,72.41753590000008,72.41753590000008,72.41753590000008,72.41753590000008,72.41753590000008,72.41753590000008,,008,P018,2025_Mar_07_1846,ConditionRich,2021.2.3,59.940970132342926,
44.75,45.0,41,0.0,Stimuli/Blank.png,0,0,0.0,0,82,82,82,,,,,,,,,,,,,44.77447289999691,0.02447289999690838,None,73.18485569999757,73.18485569999757,73.18485569999757,73.18485569999757,73.18485569999757,73.18485569999757,73.18485569999757,73.18485569999757,73.18485569999757,73.18485569999757,,008,P018,2025_Mar_07_1846,ConditionRich,2021.2.3,59.940970132342926,
45.0,45.75,2,0.75,Stimuli/P018/sun_acliytrpktltxwsx.jpg,0,0,0.0,0,83,83,83,,,,,,,,,,,,,45.02311219999683,0.023112199996830896,None,73.43507499999396,73.43507499999396,73.43507499999396,73.43507499999396,73.43507499999396,73.43507499999396,73.43507499999396,73.43507499999396,73.43507499999396,73.43507499999396,,008,P018,2025_Mar_07_1846,ConditionRich,2021.2.3,59.940970132342926,
45.75,46.0,41,0.0,Stimuli/Blank.png,0,0,0.0,0,84,84,84,,,,,,,,,,,,,45.77237629999581,0.022376299995812587,None,74.16905119999865,74.16905119999865,74.16905119999865,74.16905119999865,74.16905119999865,74.16905119999865,74.16905119999865,74.16905119999865,74.16905119999865,74.16905119999865,,008,P018,2025_Mar_07_1846,ConditionRich,2021.2.3,59.940970132342926,
46.0,46.75,2,0.75,Stimuli/P018/sun_acliytrpktltxwsx.jpg,0,0,0.0,0,85,85,85,,,,,,,,,,,,,46.00662369999918,0.006623699999181554,None,74.41927489999944,74.41927489999944,74.41927489999944,74.41927489999944,74.41927489999944,74.41927489999944,74.41927489999944,74.41927489999944,74.41927489999944,74.41927489999944,,008,P018,2025_Mar_07_1846,ConditionRich,2021.2.3,59.940970132342926,
46.75,47.0,41,0.0,Stimuli/Blank.png,0,0,0.0,0,86,86,86,,,,,,,,,,,,,46.77415779999865,0.024157799998647533,None,75.1699324000001,75.1699324000001,75.1699324000001,75.1699324000001,75.1699324000001,75.1699324000001,75.1699324000001,75.1699324000001,75.1699324000001,75.1699324000001,,008,P018,2025_Mar_07_1846,ConditionRich,2021.2.3,59.940970132342926,
47.0,47.75,2,0.75,Stimuli/P018/sun_acliytrpktltxwsx.jpg,0,0,0.0,0,87,87,87,,,,,,,,,,,,,47.00768419999804,0.007684199998038821,None,75.42016289999447,75.42016289999447,75.42016289999447,75.42016289999447,75.42016289999447,75.42016289999447,75.42016289999447,75.42016289999447,75.42016289999447,75.42016289999447,,008,P018,2025_Mar_07_1846,ConditionRich,2021.2.3,59.940970132342926,
47.75,48.0,41,0.0,Stimuli/Blank.png,0,0,0.0,0,88,88,88,,,,,,,,,,,,,47.774907299994084,0.024907299994083587,None,76.17083599999751,76.17083599999751,76.17083599999751,76.17083599999751,76.17083599999751,76.17083599999751,76.17083599999751,76.17083599999751,76.17083599999751,76.17083599999751,,008,P018,2025_Mar_07_1846,ConditionRich,2021.2.3,59.940970132342926,
48.0,48.75,6,0.75,Stimuli/P018/sun_atuyvunnykjurjgx.jpg,0,0,0.0,0,89,89,89,,,,,,,,,,,,,48.007793500000844,0.007793500000843778,None,76.40435719999368,76.40435719999368,76.40435719999368,76.40435719999368,76.40435719999368,76.40435719999368,76.40435719999368,76.40435719999368,76.40435719999368,76.40435719999368,,008,P018,2025_Mar_07_1846,ConditionRich,2021.2.3,59.940970132342926,
48.75,49.0,41,0.0,Stimuli/Blank.png,0,0,0.0,0,90,90,90,,,,,,,,,,,,,48.758255499997176,0.00825549999717623,None,77.15503079999326,77.15503079999326,77.15503079999326,77.15503079999326,77.15503079999326,77.15503079999326,77.15503079999326,77.15503079999326,77.15503079999326,77.15503079999326,,008,P018,2025_Mar_07_1846,ConditionRich,2021.2.3,59.940970132342926,
49.0,49.75,6,0.75,Stimuli/P018/sun_atuyvunnykjurjgx.jpg,0,0,0.0,0,91,91,91,,,,,,,,,,,,,49.00905629999761,0.00905629999761004,None,77.40525449999404,77.40525449999404,77.40525449999404,77.40525449999404,77.40525449999404,77.40525449999404,77.40525449999404,77.40525449999404,77.40525449999404,77.40525449999404,,008,P018,2025_Mar_07_1846,ConditionRich,2021.2.3,59.940970132342926,
49.75,50.0,41,0.0,Stimuli/Blank.png,0,0,0.0,0,92,92,92,,,,,,,,,,,,,49.75923469999543,0.009234699995431583,None,78.15590599999996,78.15590599999996,78.15590599999996,78.15590599999996,78.15590599999996,78.15590599999996,78.15590599999996,78.15590599999996,78.15590599999996,78.15590599999996,,008,P018,2025_Mar_07_1846,ConditionRich,2021.2.3,59.940970132342926,
50.0,50.75,6,0.75,Stimuli/P018/sun_atuyvunnykjurjgx.jpg,0,0,0.0,0,93,93,93,,,,,,,,,,,,,50.00947129999986,0.009471299999859184,None,78.40612919999694,78.40612919999694,78.40612919999694,78.40612919999694,78.40612919999694,78.40612919999694,78.40612919999694,78.40612919999694,78.40612919999694,78.40612919999694,,008,P018,2025_Mar_07_1846,ConditionRich,2021.2.3,59.940970132342926,
50.75,51.0,41,0.0,Stimuli/Blank.png,0,0,0.0,0,94,94,94,,,,,,,,,,,,,50.76137949999975,0.011379499999748077,None,79.15680699999939,79.15680699999939,79.15680699999939,79.15680699999939,79.15680699999939,79.15680699999939,79.15680699999939,79.15680699999939,79.15680699999939,79.15680699999939,,008,P018,2025_Mar_07_1846,ConditionRich,2021.2.3,59.940970132342926,
51.0,51.75,6,0.75,Stimuli/P018/sun_atuyvunnykjurjgx.jpg,0,0,0.0,0,95,95,95,,,,,,,,,,,,,51.01299569999537,0.012995699995371979,None,79.42369869999675,79.42369869999675,79.42369869999675,79.42369869999675,79.42369869999675,79.42369869999675,79.42369869999675,79.42369869999675,79.42369869999675,79.42369869999675,,008,P018,2025_Mar_07_1846,ConditionRich,2021.2.3,59.940970132342926,
51.75,52.0,41,0.0,Stimuli/Blank.png,0,0,0.0,0,96,96,96,,,,,,,,,,,,,51.77776179999637,0.02776179999636952,None,80.17437719999725,80.17437719999725,80.17437719999725,80.17437719999725,80.17437719999725,80.17437719999725,80.17437719999725,80.17437719999725,80.17437719999725,80.17437719999725,,008,P018,2025_Mar_07_1846,ConditionRich,2021.2.3,59.940970132342926,
52.0,52.75,34,0.75,Stimuli/P018/things_llama_09s.jpg,0,0,0.0,0,97,97,97,,,,,,,,,,,,,52.011542699998245,0.011542699998244643,None,80.40790089999791,80.40790089999791,80.40790089999791,80.40790089999791,80.40790089999791,80.40790089999791,80.40790089999791,80.40790089999791,80.40790089999791,80.40790089999791,,008,P018,2025_Mar_07_1846,ConditionRich,2021.2.3,59.940970132342926,
52.75,53.0,41,0.0,Stimuli/Blank.png,0,0,0.0,0,98,98,98,,,,,,,,,,,,,52.76343189999898,0.013431899998977315,None,81.15857449999748,81.15857449999748,81.15857449999748,81.15857449999748,81.15857449999748,81.15857449999748,81.15857449999748,81.15857449999748,81.15857449999748,81.15857449999748,,008,P018,2025_Mar_07_1846,ConditionRich,2021.2.3,59.940970132342926,
53.0,53.75,34,0.75,Stimuli/P018/things_llama_09s.jpg,0,0,0.0,0,99,99,99,,,,,,,,,,,,,53.01354079999874,0.013540799998736475,None,81.42547849999391,81.42547849999391,81.42547849999391,81.42547849999391,81.42547849999391,81.42547849999391,81.42547849999391,81.42547849999391,81.42547849999391,81.42547849999391,,008,P018,2025_Mar_07_1846,ConditionRich,2021.2.3,59.940970132342926,
53.75,54.0,41,0.0,Stimuli/Blank.png,0,0,0.0,0,100,100,100,,,,,,,,,,,,,53.77967279999575,0.02967279999575112,None,82.17613639999763,82.17613639999763,82.17613639999763,82.17613639999763,82.17613639999763,82.17613639999763,82.17613639999763,82.17613639999763,82.17613639999763,82.17613639999763,,008,P018,2025_Mar_07_1846,ConditionRich,2021.2.3,59.940970132342926,
54.0,54.75,34,0.75,Stimuli/P018/things_llama_09s.jpg,0,0,0.0,0,101,101,101,,,,,,,,,,,,,54.012989999995625,0.012989999995625112,None,82.40966349999508,82.40966349999508,82.40966349999508,82.40966349999508,82.40966349999508,82.40966349999508,82.40966349999508,82.40966349999508,82.40966349999508,82.40966349999508,,008,P018,2025_Mar_07_1846,ConditionRich,2021.2.3,59.940970132342926,
54.75,55.0,41,0.0,Stimuli/Blank.png,0,0,0.0,0,102,102,102,,,,,,,,,,,,,54.763850999996066,0.013850999996066093,None,83.16032979999727,83.16032979999727,83.16032979999727,83.16032979999727,83.16032979999727,83.16032979999727,83.16032979999727,83.16032979999727,83.16032979999727,83.16032979999727,,008,P018,2025_Mar_07_1846,ConditionRich,2021.2.3,59.940970132342926,
55.0,55.75,34,0.75,Stimuli/P018/things_llama_09s.jpg,0,0,0.0,0,103,103,103,,,,,,,,,,,,,55.01464569999371,0.01464569999370724,None,83.42723589999514,83.42723589999514,83.42723589999514,83.42723589999514,83.42723589999514,83.42723589999514,83.42723589999514,83.42723589999514,83.42723589999514,83.42723589999514,,008,P018,2025_Mar_07_1846,ConditionRich,2021.2.3,59.940970132342926,
55.75,56.0,41,0.0,Stimuli/Blank.png,0,0,0.0,0,104,104,104,,,,,,,,,,,,,55.783452699994086,0.03345269999408629,None,84.19460160000017,84.19460160000017,84.19460160000017,84.19460160000017,84.19460160000017,84.19460160000017,84.19460160000017,84.19460160000017,84.19460160000017,84.19460160000017,,008,P018,2025_Mar_07_1846,ConditionRich,2021.2.3,59.940970132342926,
56.0,56.75,37,0.75,Stimuli/P018/things_plastic_film_09s.jpg,0,0,0.0,0,105,105,105,,,,,,,,,,,,,56.015367799998785,0.015367799998784903,None,84.41143860000011,84.41143860000011,84.41143860000011,84.41143860000011,84.41143860000011,84.41143860000011,84.41143860000011,84.41143860000011,84.41143860000011,84.41143860000011,,008,P018,2025_Mar_07_1846,ConditionRich,2021.2.3,59.940970132342926,
56.75,57.0,41,0.0,Stimuli/Blank.png,0,0,0.0,0,106,106,106,,,,,,,,,,,,,56.74874979999731,-0.001250200002687052,None,85.14541699999972,85.14541699999972,85.14541699999972,85.14541699999972,85.14541699999972,85.14541699999972,85.14541699999972,85.14541699999972,85.14541699999972,85.14541699999972,,008,P018,2025_Mar_07_1846,ConditionRich,2021.2.3,59.940970132342926,
57.0,57.75,37,0.75,Stimuli/P018/things_plastic_film_09s.jpg,0,0,0.0,0,107,107,107,,,,,,,,,,,,,57.01827929999854,0.0182792999985395,None,85.42900859999645,85.42900859999645,85.42900859999645,85.42900859999645,85.42900859999645,85.42900859999645,85.42900859999645,85.42900859999645,85.42900859999645,85.42900859999645,,008,P018,2025_Mar_07_1846,ConditionRich,2021.2.3,59.940970132342926,
57.75,58.0,41,0.0,Stimuli/Blank.png,0,0,0.0,0,108,108,108,,,,,,,,,,,,,57.769291599994176,0.019291599994176067,None,86.17967959999805,86.17967959999805,86.17967959999805,86.17967959999805,86.17967959999805,86.17967959999805,86.17967959999805,86.17967959999805,86.17967959999805,86.17967959999805,,008,P018,2025_Mar_07_1846,ConditionRich,2021.2.3,59.940970132342926,
58.0,58.75,37,0.75,Stimuli/P018/things_plastic_film_09s.jpg,0,0,0.0,0,109,109,109,,,,,,,,,,,,,58.01850969999941,0.018509699999412987,None,86.42990039999859,86.42990039999859,86.42990039999859,86.42990039999859,86.42990039999859,86.42990039999859,86.42990039999859,86.42990039999859,86.42990039999859,86.42990039999859,,008,P018,2025_Mar_07_1846,ConditionRich,2021.2.3,59.940970132342926,
58.75,59.0,41,0.0,Stimuli/Blank.png,0,0,0.0,0,110,110,110,,,,,,,,,,,,,58.76716879999731,0.01716879999730736,None,87.1638793999955,87.1638793999955,87.1638793999955,87.1638793999955,87.1638793999955,87.1638793999955,87.1638793999955,87.1638793999955,87.1638793999955,87.1638793999955,,008,P018,2025_Mar_07_1846,ConditionRich,2021.2.3,59.940970132342926,
59.0,59.75,37,0.75,Stimuli/P018/things_plastic_film_09s.jpg,0,0,0.0,0,111,111,111,,,,,,,,,,,,,59.002825899995514,0.0028258999955141917,None,87.41411019999941,87.41411019999941,87.41411019999941,87.41411019999941,87.41411019999941,87.41411019999941,87.41411019999941,87.41411019999941,87.41411019999941,87.41411019999941,,008,P018,2025_Mar_07_1846,ConditionRich,2021.2.3,59.940970132342926,
59.75,60.0,41,0.0,Stimuli/Blank.png,0,0,0.0,0,112,112,112,,,,,,,,,,,,,59.76813279999624,0.018132799996237736,None,88.16475329999957,88.16475329999957,88.16475329999957,88.16475329999957,88.16475329999957,88.16475329999957,88.16475329999957,88.16475329999957,88.16475329999957,88.16475329999957,,008,P018,2025_Mar_07_1846,ConditionRich,2021.2.3,59.940970132342926,
60.0,60.75,24,0.75,Stimuli/P018/things_breadbox_09s.jpg,0,0,0.0,0,113,113,113,,,,,,,,,,,,,60.00212909999391,0.002129099993908312,None,88.39829529999406,88.39829529999406,88.39829529999406,88.39829529999406,88.39829529999406,88.39829529999406,88.39829529999406,88.39829529999406,88.39829529999406,88.39829529999406,,008,P018,2025_Mar_07_1846,ConditionRich,2021.2.3,59.940970132342926,
60.75,61.0,41,0.0,Stimuli/Blank.png,0,0,0.0,0,114,114,114,,,,,,,,,,,,,60.75310779999563,0.0031077999956323765,None,89.14897199999541,89.14897199999541,89.14897199999541,89.14897199999541,89.14897199999541,89.14897199999541,89.14897199999541,89.14897199999541,89.14897199999541,89.14897199999541,,008,P018,2025_Mar_07_1846,ConditionRich,2021.2.3,59.940970132342926,
61.0,61.75,24,0.75,Stimuli/P018/things_breadbox_09s.jpg,0,0,0.0,0,115,115,115,,,,,,,,,,,,,61.00407059999998,0.004070599999977276,None,89.41587209999852,89.41587209999852,89.41587209999852,89.41587209999852,89.41587209999852,89.41587209999852,89.41587209999852,89.41587209999852,89.41587209999852,89.41587209999852,,008,P018,2025_Mar_07_1846,ConditionRich,2021.2.3,59.940970132342926,
61.75,62.0,41,0.0,Stimuli/Blank.png,0,0,0.0,0,116,116,116,,,,,,,,,,,,,61.77057909999712,0.020579099997121375,None,90.1665417999975,90.1665417999975,90.1665417999975,90.1665417999975,90.1665417999975,90.1665417999975,90.1665417999975,90.1665417999975,90.1665417999975,90.1665417999975,,008,P018,2025_Mar_07_1846,ConditionRich,2021.2.3,59.940970132342926,
62.0,62.75,24,0.75,Stimuli/P018/things_breadbox_09s.jpg,0,0,0.0,0,117,117,117,,,,,,,,,,,,,62.004076400000486,0.004076400000485592,None,90.4000648999936,90.4000648999936,90.4000648999936,90.4000648999936,90.4000648999936,90.4000648999936,90.4000648999936,90.4000648999936,90.4000648999936,90.4000648999936,,008,P018,2025_Mar_07_1846,ConditionRich,2021.2.3,59.940970132342926,
62.75,63.0,41,0.0,Stimuli/Blank.png,0,0,0.0,0,118,118,118,,,,,,,,,,,,,62.75495559999399,0.0049555999939912,None,91.1507666999969,91.1507666999969,91.1507666999969,91.1507666999969,91.1507666999969,91.1507666999969,91.1507666999969,91.1507666999969,91.1507666999969,91.1507666999969,,008,P018,2025_Mar_07_1846,ConditionRich,2021.2.3,59.940970132342926,
63.0,63.75,24,0.75,Stimuli/P018/things_breadbox_09s.jpg,0,0,0.0,0,119,119,119,,,,,,,,,,,,,63.00524880000012,0.005248800000117626,None,91.40095739999379,91.40095739999379,91.40095739999379,91.40095739999379,91.40095739999379,91.40095739999379,91.40095739999379,91.40095739999379,91.40095739999379,91.40095739999379,,008,P018,2025_Mar_07_1846,ConditionRich,2021.2.3,59.940970132342926,
63.75,64.0,41,0.0,Stimuli/Blank.png,0,0,0.0,0,120,120,120,,,,,,,,,,,,,63.75500629999442,0.00500629999442026,None,92.15159469999344,92.15159469999344,92.15159469999344,92.15159469999344,92.15159469999344,92.15159469999344,92.15159469999344,92.15159469999344,92.15159469999344,92.15159469999344,,008,P018,2025_Mar_07_1846,ConditionRich,2021.2.3,59.940970132342926,
64.0,64.75,10,0.75,Stimuli/P018/sun_bayxprasninnrnle.jpg,0,0,0.0,0,121,121,121,,,,,,,,,,,,,64.00815469999361,0.008154699993610848,None,92.41853149999952,92.41853149999952,92.41853149999952,92.41853149999952,92.41853149999952,92.41853149999952,92.41853149999952,92.41853149999952,92.41853149999952,92.41853149999952,,008,P018,2025_Mar_07_1846,ConditionRich,2021.2.3,59.940970132342926,
64.75,65.0,41,0.0,Stimuli/Blank.png,0,0,0.0,0,122,122,122,,,,,,,,,,,,,64.77265079999779,0.022650799997791182,None,93.16918879999866,93.16918879999866,93.16918879999866,93.16918879999866,93.16918879999866,93.16918879999866,93.16918879999866,93.16918879999866,93.16918879999866,93.16918879999866,,008,P018,2025_Mar_07_1846,ConditionRich,2021.2.3,59.940970132342926,
65.0,65.75,10,0.75,Stimuli/P018/sun_bayxprasninnrnle.jpg,0,0,0.0,0,123,123,123,,,,,,,,,,,,,65.00858529999823,0.008585299998230767,None,93.41940819999581,93.41940819999581,93.41940819999581,93.41940819999581,93.41940819999581,93.41940819999581,93.41940819999581,93.41940819999581,93.41940819999581,93.41940819999581,,008,P018,2025_Mar_07_1846,ConditionRich,2021.2.3,59.940970132342926,
65.75,66.0,41,0.0,Stimuli/Blank.png,0,0,0.0,0,124,124,124,,,,,,,,,,,,,65.77403799999593,0.02403799999592593,None,94.17004769999767,94.17004769999767,94.17004769999767,94.17004769999767,94.17004769999767,94.17004769999767,94.17004769999767,94.17004769999767,94.17004769999767,94.17004769999767,,008,P018,2025_Mar_07_1846,ConditionRich,2021.2.3,59.940970132342926,
66.0,66.75,10,0.75,Stimuli/P018/sun_bayxprasninnrnle.jpg,0,0,0.0,0,125,125,125,,,,,,,,,,,,,66.00811899999826,0.008118999998259824,None,94.42032529999415,94.42032529999415,94.42032529999415,94.42032529999415,94.42032529999415,94.42032529999415,94.42032529999415,94.42032529999415,94.42032529999415,94.42032529999415,,008,P018,2025_Mar_07_1846,ConditionRich,2021.2.3,59.940970132342926,
66.75,67.0,41,0.0,Stimuli/Blank.png,0,0,0.0,0,126,126,126,,,,,,,,,,,,,66.77522429999954,0.025224299999536015,None,95.17094599999837,95.17094599999837,95.17094599999837,95.17094599999837,95.17094599999837,95.17094599999837,95.17094599999837,95.17094599999837,95.17094599999837,95.17094599999837,,008,P018,2025_Mar_07_1846,ConditionRich,2021.2.3,59.940970132342926,
67.0,67.75,10,0.75,Stimuli/P018/sun_bayxprasninnrnle.jpg,0,0,0.0,0,127,127,127,,,,,,,,,,,,,67.00837399999727,0.00837399999727495,None,95.4212011999989,95.4212011999989,95.4212011999989,95.4212011999989,95.4212011999989,95.4212011999989,95.4212011999989,95.4212011999989,95.4212011999989,95.4212011999989,,008,P018,2025_Mar_07_1846,ConditionRich,2021.2.3,59.940970132342926,
67.75,68.0,41,0.0,Stimuli/Blank.png,0,0,0.0,0,128,128,128,,,,,,,,,,,,,67.77506989999529,0.025069899995287415,None,96.17184959999577,96.17184959999577,96.17184959999577,96.17184959999577,96.17184959999577,96.17184959999577,96.17184959999577,96.17184959999577,96.17184959999577,96.17184959999577,,008,P018,2025_Mar_07_1846,ConditionRich,2021.2.3,59.940970132342926,
68.0,68.75,22,0.75,Stimuli/P018/things_boat_09s.jpg,0,0,0.0,0,129,129,129,,,,,,,,,,,,,68.00928510000085,0.009285100000852253,None,96.40538039999956,96.40538039999956,96.40538039999956,96.40538039999956,96.40538039999956,96.40538039999956,96.40538039999956,96.40538039999956,96.40538039999956,96.40538039999956,,008,P018,2025_Mar_07_1846,ConditionRich,2021.2.3,59.940970132342926,
68.75,69.0,41,0.0,Stimuli/Blank.png,0,0,0.0,0,130,130,130,,,,,,,,,,,,,68.75920249999763,0.009202499997627456,None,97.15604509999685,97.15604509999685,97.15604509999685,97.15604509999685,97.15604509999685,97.15604509999685,97.15604509999685,97.15604509999685,97.15604509999685,97.15604509999685,,008,P018,2025_Mar_07_1846,ConditionRich,2021.2.3,59.940970132342926,
69.0,69.75,22,0.75,Stimuli/P018/things_boat_09s.jpg,0,0,0.0,0,131,131,131,,,,,,,,,,,,,69.01045529999828,0.010455299998284318,None,97.40623899999628,97.40623899999628,97.40623899999628,97.40623899999628,97.40623899999628,97.40623899999628,97.40623899999628,97.40623899999628,97.40623899999628,97.40623899999628,,008,P018,2025_Mar_07_1846,ConditionRich,2021.2.3,59.940970132342926,
69.75,70.0,41,0.0,Stimuli/Blank.png,0,0,0.0,0,132,132,132,,,,,,,,,,,,,69.76081359999807,0.010813599998073187,None,98.1569967999967,98.1569967999967,98.1569967999967,98.1569967999967,98.1569967999967,98.1569967999967,98.1569967999967,98.1569967999967,98.1569967999967,98.1569967999967,,008,P018,2025_Mar_07_1846,ConditionRich,2021.2.3,59.940970132342926,
70.0,70.75,22,0.75,Stimuli/P018/things_boat_09s.jpg,0,0,0.0,0,133,133,133,,,,,,,,,,,,,70.01317049999489,0.013170499994885176,None,98.42382349999389,98.42382349999389,98.42382349999389,98.42382349999389,98.42382349999389,98.42382349999389,98.42382349999389,98.42382349999389,98.42382349999389,98.42382349999389,,008,P018,2025_Mar_07_1846,ConditionRich,2021.2.3,59.940970132342926,
70.75,71.0,41,0.0,Stimuli/Blank.png,0,0,0.0,0,134,134,134,,,,,,,,,,,,,70.77857640000002,0.02857640000001993,None,99.17450409999583,99.17450409999583,99.17450409999583,99.17450409999583,99.17450409999583,99.17450409999583,99.17450409999583,99.17450409999583,99.17450409999583,99.17450409999583,,008,P018,2025_Mar_07_1846,ConditionRich,2021.2.3,59.940970132342926,
71.0,71.75,22,0.75,Stimuli/P018/things_boat_09s.jpg,0,0,0.0,0,135,135,135,,,,,,,,,,,,,71.01413079999475,0.014130799994745757,None,99.42471879999357,99.42471879999357,99.42471879999357,99.42471879999357,99.42471879999357,99.42471879999357,99.42471879999357,99.42471879999357,99.42471879999357,99.42471879999357,,008,P018,2025_Mar_07_1846,ConditionRich,2021.2.3,59.940970132342926,
71.75,72.0,41,0.0,Stimuli/Blank.png,0,0,0.0,0,136,136,136,,,,,,,,,,,,,71.77932979999605,0.029329799996048678,None,100.17537459999585,100.17537459999585,100.17537459999585,100.17537459999585,100.17537459999585,100.17537459999585,100.17537459999585,100.17537459999585,100.17537459999585,100.17537459999585,,008,P018,2025_Mar_07_1846,ConditionRich,2021.2.3,59.940970132342926,
72.0,72.75,3,0.75,Stimuli/P018/sun_acymmczhyuiimeub.jpg,0,0,0.0,0,137,137,137,,,,,,,,,,,,,72.01240239999606,0.01240239999606274,None,100.40891479999846,100.40891479999846,100.40891479999846,100.40891479999846,100.40891479999846,100.40891479999846,100.40891479999846,100.40891479999846,100.40891479999846,100.40891479999846,,008,P018,2025_Mar_07_1846,ConditionRich,2021.2.3,59.940970132342926,
72.75,73.0,41,0.0,Stimuli/Blank.png,0,0,0.0,0,138,138,138,,,,,,,,,,,,,72.76386989999446,0.013869899994460866,None,101.15958629999659,101.15958629999659,101.15958629999659,101.15958629999659,101.15958629999659,101.15958629999659,101.15958629999659,101.15958629999659,101.15958629999659,101.15958629999659,,008,P018,2025_Mar_07_1846,ConditionRich,2021.2.3,59.940970132342926,
73.0,73.75,3,0.75,Stimuli/P018/sun_acymmczhyuiimeub.jpg,0,0,0.0,0,139,139,139,,,,,,,,,,,,,73.01392710000073,0.013927100000728387,None,101.42648269999336,101.42648269999336,101.42648269999336,101.42648269999336,101.42648269999336,101.42648269999336,101.42648269999336,101.42648269999336,101.42648269999336,101.42648269999336,,008,P018,2025_Mar_07_1846,ConditionRich,2021.2.3,59.940970132342926,
73.75,74.0,41,0.0,Stimuli/Blank.png,0,0,0.0,0,140,140,140,,,,,,,,,,,,,73.78303699999378,0.033036999993782956,None,102.19386849999864,102.19386849999864,102.19386849999864,102.19386849999864,102.19386849999864,102.19386849999864,102.19386849999864,102.19386849999864,102.19386849999864,102.19386849999864,,008,P018,2025_Mar_07_1846,ConditionRich,2021.2.3,59.940970132342926,
74.0,74.75,3,0.75,Stimuli/P018/sun_acymmczhyuiimeub.jpg,1,0,0.75,0,141,141,141,,,,,,,,,,,,,74.01416609999433,0.014166099994326942,2,102.41068449999875,102.41068449999875,102.41068449999875,102.41068449999875,102.41068449999875,102.41068449999875,102.41068449999875,103.14467869999498,102.41068449999875,102.41068449999875,0.3631050999974832,008,P018,2025_Mar_07_1846,ConditionRich,2021.2.3,59.940970132342926,
74.75,75.0,41,0.0,Stimuli/Blank.png,0,0,0.0,0,142,142,142,,,,,,,,,,,,,74.76484459999483,0.014844599994830787,None,103.16135309999663,103.16135309999663,103.16135309999663,103.16135309999663,103.16135309999663,103.16135309999663,103.16135309999663,103.16135309999663,103.16135309999663,103.16135309999663,,008,P018,2025_Mar_07_1846,ConditionRich,2021.2.3,59.940970132342926,
75.0,75.75,3,0.75,Stimuli/P018/sun_acymmczhyuiimeub.jpg,0,0,0.0,0,143,143,143,,,,,,,,,,,,,75.01558490000025,0.015584900000249036,None,103.41156969999429,103.41156969999429,103.41156969999429,103.41156969999429,103.41156969999429,103.41156969999429,103.41156969999429,103.41156969999429,103.41156969999429,103.41156969999429,,008,P018,2025_Mar_07_1846,ConditionRich,2021.2.3,59.940970132342926,
75.75,76.0,41,0.0,Stimuli/Blank.png,0,0,0.0,0,144,144,144,,,,,,,,,,,,,75.7494000000006,-0.0005999999993946403,None,104.1455649999989,104.1455649999989,104.1455649999989,104.1455649999989,104.1455649999989,104.1455649999989,104.1455649999989,104.1455649999989,104.1455649999989,104.1455649999989,,008,P018,2025_Mar_07_1846,ConditionRich,2021.2.3,59.940970132342926,
76.0,76.75,27,0.75,Stimuli/P018/things_coffin_09s.jpg,0,0,0.0,0,145,145,145,,,,,,,,,,,,,75.99977209999633,-0.00022790000366512686,None,104.39577319999808,104.39577319999808,104.39577319999808,104.39577319999808,104.39577319999808,104.39577319999808,104.39577319999808,104.39577319999808,104.39577319999808,104.39577319999808,,008,P018,2025_Mar_07_1846,ConditionRich,2021.2.3,59.940970132342926,
76.75,77.0,41,0.0,Stimuli/Blank.png,0,0,0.0,0,146,146,146,,,,,,,,,,,,,76.749831299996,-0.00016870000399649143,None,105.14644079999562,105.14644079999562,105.14644079999562,105.14644079999562,105.14644079999562,105.14644079999562,105.14644079999562,105.14644079999562,105.14644079999562,105.14644079999562,,008,P018,2025_Mar_07_1846,ConditionRich,2021.2.3,59.940970132342926,
77.0,77.75,27,0.75,Stimuli/P018/things_coffin_09s.jpg,0,0,0.0,0,147,147,147,,,,,,,,,,,,,77.00072359999467,0.000723599994671531,None,105.41334699999425,105.41334699999425,105.41334699999425,105.41334699999425,105.41334699999425,105.41334699999425,105.41334699999425,105.41334699999425,105.41334699999425,105.41334699999425,,008,P018,2025_Mar_07_1846,ConditionRich,2021.2.3,59.940970132342926,
77.75,78.0,41,0.0,Stimuli/Blank.png,0,0,0.0,0,148,148,148,,,,,,,,,,,,,77.76753979999921,0.017539799999212846,None,106.1640042999934,106.1640042999934,106.1640042999934,106.1640042999934,106.1640042999934,106.1640042999934,106.1640042999934,106.1640042999934,106.1640042999934,106.1640042999934,,008,P018,2025_Mar_07_1846,ConditionRich,2021.2.3,59.940970132342926,
78.0,78.75,27,0.75,Stimuli/P018/things_coffin_09s.jpg,1,0,0.75,0,149,149,149,,,,,,,,,,,,,78.00204789999407,0.0020478999940678477,2,106.4142298999941,106.4142298999941,106.4142298999941,106.4142298999941,106.4142298999941,106.4142298999941,106.4142298999941,107.13157049999427,106.4142298999941,106.4142298999941,0.40863330000138376,008,P018,2025_Mar_07_1846,ConditionRich,2021.2.3,59.940970132342926,
78.75,79.0,41,0.0,Stimuli/Blank.png,0,0,0.0,0,150,150,150,,,,,,,,,,,,,78.76899989999947,0.01899989999947138,None,107.16489649999858,107.16489649999858,107.16489649999858,107.16489649999858,107.16489649999858,107.16489649999858,107.16489649999858,107.16489649999858,107.16489649999858,107.16489649999858,,008,P018,2025_Mar_07_1846,ConditionRich,2021.2.3,59.940970132342926,
79.0,79.75,27,0.75,Stimuli/P018/things_coffin_09s.jpg,0,0,0.0,0,151,151,151,,,,,,,,,,,,,79.00295740000001,0.0029574000000138767,None,107.4151145999931,107.4151145999931,107.4151145999931,107.4151145999931,107.4151145999931,107.4151145999931,107.4151145999931,107.4151145999931,107.4151145999931,107.4151145999931,,008,P018,2025_Mar_07_1846,ConditionRich,2021.2.3,59.940970132342926,
79.75,80.0,41,0.0,Stimuli/Blank.png,0,0,0.0,0,152,152,152,,,,,,,,,,,,,79.76898739999888,0.018987399998877663,None,108.16577509999479,108.16577509999479,108.16577509999479,108.16577509999479,108.16577509999479,108.16577509999479,108.16577509999479,108.16577509999479,108.16577509999479,108.16577509999479,,008,P018,2025_Mar_07_1846,ConditionRich,2021.2.3,59.940970132342926,
80.0,80.75,4,0.75,Stimuli/P018/sun_aibvvqlmlsjnrgdj.jpg,0,0,0.0,0,153,153,153,,,,,,,,,,,,,80.00343509999948,0.0034350999994785525,None,108.3993130999952,108.3993130999952,108.3993130999952,108.3993130999952,108.3993130999952,108.3993130999952,108.3993130999952,108.3993130999952,108.3993130999952,108.3993130999952,,008,P018,2025_Mar_07_1846,ConditionRich,2021.2.3,59.940970132342926,
80.75,81.0,41,0.0,Stimuli/Blank.png,0,0,0.0,0,154,154,154,,,,,,,,,,,,,80.75449059999664,0.004490599996643141,None,109.1499943999952,109.1499943999952,109.1499943999952,109.1499943999952,109.1499943999952,109.1499943999952,109.1499943999952,109.1499943999952,109.1499943999952,109.1499943999952,,008,P018,2025_Mar_07_1846,ConditionRich,2021.2.3,59.940970132342926,
81.0,81.75,4,0.75,Stimuli/P018/sun_aibvvqlmlsjnrgdj.jpg,0,0,0.0,0,155,155,155,,,,,,,,,,,,,81.00399319999997,0.003993199999968056,None,109.40020829999412,109.40020829999412,109.40020829999412,109.40020829999412,109.40020829999412,109.40020829999412,109.40020829999412,109.40020829999412,109.40020829999412,109.40020829999412,,008,P018,2025_Mar_07_1846,ConditionRich,2021.2.3,59.940970132342926,
81.75,82.0,41,0.0,Stimuli/Blank.png,0,0,0.0,0,156,156,156,,,,,,,,,,,,,81.75470099999802,0.004700999998021871,None,110.15087129999301,110.15087129999301,110.15087129999301,110.15087129999301,110.15087129999301,110.15087129999301,110.15087129999301,110.15087129999301,110.15087129999301,110.15087129999301,,008,P018,2025_Mar_07_1846,ConditionRich,2021.2.3,59.940970132342926,
82.0,82.75,4,0.75,Stimuli/P018/sun_aibvvqlmlsjnrgdj.jpg,0,0,0.0,0,157,157,157,,,,,,,,,,,,,82.00540409999667,0.005404099996667355,None,110.41776949999621,110.41776949999621,110.41776949999621,110.41776949999621,110.41776949999621,110.41776949999621,110.41776949999621,110.41776949999621,110.41776949999621,110.41776949999621,,008,P018,2025_Mar_07_1846,ConditionRich,2021.2.3,59.940970132342926,
82.75,83.0,41,0.0,Stimuli/Blank.png,0,0,0.0,0,158,158,158,,,,,,,,,,,,,82.77289759999985,0.02289759999985108,None,111.16843879999942,111.16843879999942,111.16843879999942,111.16843879999942,111.16843879999942,111.16843879999942,111.16843879999942,111.16843879999942,111.16843879999942,111.16843879999942,,008,P018,2025_Mar_07_1846,ConditionRich,2021.2.3,59.940970132342926,
83.0,83.75,4,0.75,Stimuli/P018/sun_aibvvqlmlsjnrgdj.jpg,0,0,0.0,0,159,159,159,,,,,,,,,,,,,83.00819609999598,0.008196099995984696,None,111.41865829999733,111.41865829999733,111.41865829999733,111.41865829999733,111.41865829999733,111.41865829999733,111.41865829999733,111.41865829999733,111.41865829999733,111.41865829999733,,008,P018,2025_Mar_07_1846,ConditionRich,2021.2.3,59.940970132342926,
83.75,84.0,41,0.0,Stimuli/Blank.png,0,0,0.0,0,160,160,160,,,,,,,,,,,,,83.77323959999921,0.023239599999214988,None,112.16932349999843,112.16932349999843,112.16932349999843,112.16932349999843,112.16932349999843,112.16932349999843,112.16932349999843,112.16932349999843,112.16932349999843,112.16932349999843,,008,P018,2025_Mar_07_1846,ConditionRich,2021.2.3,59.940970132342926,
84.0,100.0,0,0.0,Stimuli/Blank.png,1,4,4.75,0,161,161,161,,,,,,,,,,,,,84.00684029999684,0.006840299996838439,2,112.40287129999342,112.40287129999342,112.40287129999342,112.40287129999342,112.40287129999342,112.40287129999342,116.38972999999532,117.14054449999821,112.40287129999342,112.40287129999342,4.417833999999857,008,P018,2025_Mar_07_1846,ConditionRich,2021.2.3,59.940970132342926,
100.0,100.75,40,0.75,Stimuli/P018/things_woman_09s.jpg,0,0,0.0,0,162,162,162,,,,,,,,,,,,,100.00443169999926,0.0044316999992588535,None,128.40034059999743,128.40034059999743,128.40034059999743,128.40034059999743,128.40034059999743,128.40034059999743,128.40034059999743,128.40034059999743,128.40034059999743,128.40034059999743,,008,P018,2025_Mar_07_1846,ConditionRich,2021.2.3,59.940970132342926,
100.75,101.0,41,0.0,Stimuli/Blank.png,0,0,0.0,0,163,163,163,,,,,,,,,,,,,100.75444069999503,0.004440699995029718,None,129.15099889999692,129.15099889999692,129.15099889999692,129.15099889999692,129.15099889999692,129.15099889999692,129.15099889999692,129.15099889999692,129.15099889999692,129.15099889999692,,008,P018,2025_Mar_07_1846,ConditionRich,2021.2.3,59.940970132342926,
101.0,101.75,40,0.75,Stimuli/P018/things_woman_09s.jpg,0,0,0.0,0,164,164,164,,,,,,,,,,,,,101.00450769999588,0.0045076999958837405,None,129.40121879999788,129.40121879999788,129.40121879999788,129.40121879999788,129.40121879999788,129.40121879999788,129.40121879999788,129.40121879999788,129.40121879999788,129.40121879999788,,008,P018,2025_Mar_07_1846,ConditionRich,2021.2.3,59.940970132342926,
101.75,102.0,41,0.0,Stimuli/Blank.png,0,0,0.0,0,165,165,165,,,,,,,,,,,,,101.7552457999991,0.005245799999102019,None,130.15188469999703,130.15188469999703,130.15188469999703,130.15188469999703,130.15188469999703,130.15188469999703,130.15188469999703,130.15188469999703,130.15188469999703,130.15188469999703,,008,P018,2025_Mar_07_1846,ConditionRich,2021.2.3,59.940970132342926,
102.0,102.75,40,0.75,Stimuli/P018/things_woman_09s.jpg,0,0,0.0,0,166,166,166,,,,,,,,,,,,,102.00606989999505,0.006069899995054584,None,130.40210409999418,130.40210409999418,130.40210409999418,130.40210409999418,130.40210409999418,130.40210409999418,130.40210409999418,130.40210409999418,130.40210409999418,130.40210409999418,,008,P018,2025_Mar_07_1846,ConditionRich,2021.2.3,59.940970132342926,
102.75,103.0,41,0.0,Stimuli/Blank.png,0,0,0.0,0,167,167,167,,,,,,,,,,,,,102.75915329999407,0.00915329999406822,None,131.16945589999523,131.16945589999523,131.16945589999523,131.16945589999523,131.16945589999523,131.16945589999523,131.16945589999523,131.16945589999523,131.16945589999523,131.16945589999523,,008,P018,2025_Mar_07_1846,ConditionRich,2021.2.3,59.940970132342926,
103.0,103.75,40,0.75,Stimuli/P018/things_woman_09s.jpg,1,0,0.75,0,168,168,168,,,,,,,,,,,,,103.02320060000056,0.02320060000056401,2,131.41967859999568,131.41967859999568,131.41967859999568,131.41967859999568,131.41967859999568,131.41967859999568,131.41967859999568,None,131.41967859999568,131.41967859999568,0.4321579999959795,008,P018,2025_Mar_07_1846,ConditionRich,2021.2.3,59.940970132342926,
103.75,104.0,41,0.0,Stimuli/Blank.png,0,0,0.0,0,169,169,169,,,,,,,,,,,,,103.75735049999639,0.007350499996391591,None,132.15367439999682,132.15367439999682,132.15367439999682,132.15367439999682,132.15367439999682,132.15367439999682,132.15367439999682,132.15367439999682,132.15367439999682,132.15367439999682,,008,P018,2025_Mar_07_1846,ConditionRich,2021.2.3,59.940970132342926,
104.0,104.75,25,0.75,Stimuli/P018/things_cannonball_09s.jpg,0,0,0.0,0,170,170,170,,,,,,,,,,,,,104.00768550000066,0.007685500000661705,None,132.40387889999693,132.40387889999693,132.40387889999693,132.40387889999693,132.40387889999693,132.40387889999693,132.40387889999693,132.40387889999693,132.40387889999693,132.40387889999693,,008,P018,2025_Mar_07_1846,ConditionRich,2021.2.3,59.940970132342926,
104.75,105.0,41,0.0,Stimuli/Blank.png,0,0,0.0,0,171,171,171,,,,,,,,,,,,,104.75894529999641,0.00894529999641236,None,133.17128389999561,133.17128389999561,133.17128389999561,133.17128389999561,133.17128389999561,133.17128389999561,133.17128389999561,133.17128389999561,133.17128389999561,133.17128389999561,,008,P018,2025_Mar_07_1846,ConditionRich,2021.2.3,59.940970132342926,
105.0,105.75,25,0.75,Stimuli/P018/things_cannonball_09s.jpg,0,0,0.0,0,172,172,172,,,,,,,,,,,,,105.02540289999888,0.025402899998880457,None,133.43814399999974,133.43814399999974,133.43814399999974,133.43814399999974,133.43814399999974,133.43814399999974,133.43814399999974,133.43814399999974,133.43814399999974,133.43814399999974,,008,P018,2025_Mar_07_1846,ConditionRich,2021.2.3,59.940970132342926,
105.75,106.0,41,0.0,Stimuli/Blank.png,0,0,0.0,0,173,173,173,,,,,,,,,,,,,105.77532689999498,0.025326899994979613,None,134.1721161999958,134.1721161999958,134.1721161999958,134.1721161999958,134.1721161999958,134.1721161999958,134.1721161999958,134.1721161999958,134.1721161999958,134.1721161999958,,008,P018,2025_Mar_07_1846,ConditionRich,2021.2.3,59.940970132342926,
106.0,106.75,25,0.75,Stimuli/P018/things_cannonball_09s.jpg,0,0,0.0,0,174,174,174,,,,,,,,,,,,,106.00952659999894,0.009526599998935126,None,134.4056488999995,134.4056488999995,134.4056488999995,134.4056488999995,134.4056488999995,134.4056488999995,134.4056488999995,134.4056488999995,134.4056488999995,134.4056488999995,,008,P018,2025_Mar_07_1846,ConditionRich,2021.2.3,59.940970132342926,
106.75,107.0,41,0.0,Stimuli/Blank.png,0,0,0.0,0,175,175,175,,,,,,,,,,,,,106.76291739999579,0.012917399995785672,None,135.17312709999533,135.17312709999533,135.17312709999533,135.17312709999533,135.17312709999533,135.17312709999533,135.17312709999533,135.17312709999533,135.17312709999533,135.17312709999533,,008,P018,2025_Mar_07_1846,ConditionRich,2021.2.3,59.940970132342926,
107.0,107.75,25,0.75,Stimuli/P018/things_cannonball_09s.jpg,0,0,0.0,0,176,176,176,,,,,,,,,,,,,107.02849559999595,0.028495599995949306,None,135.4399126999997,135.4399126999997,135.4399126999997,135.4399126999997,135.4399126999997,135.4399126999997,135.4399126999997,135.4399126999997,135.4399126999997,135.4399126999997,,008,P018,2025_Mar_07_1846,ConditionRich,2021.2.3,59.940970132342926,
107.75,108.0,41,0.0,Stimuli/Blank.png,0,0,0.0,0,177,177,177,,,,,,,,,,,,,107.77778119999857,0.027781199998571537,None,136.17388399999618,136.17388399999618,136.17388399999618,136.17388399999618,136.17388399999618,136.17388399999618,136.17388399999618,136.17388399999618,136.17388399999618,136.17388399999618,,008,P018,2025_Mar_07_1846,ConditionRich,2021.2.3,59.940970132342926,
108.0,108.75,9,0.75,Stimuli/P018/sun_ayidxslzurdumeps.jpg,0,0,0.0,0,178,178,178,,,,,,,,,,,,,108.01415999999881,0.014159999998810235,None,136.42412459999468,136.42412459999468,136.42412459999468,136.42412459999468,136.42412459999468,136.42412459999468,136.42412459999468,136.42412459999468,136.42412459999468,136.42412459999468,,008,P018,2025_Mar_07_1846,ConditionRich,2021.2.3,59.940970132342926,
108.75,109.0,41,0.0,Stimuli/Blank.png,0,0,0.0,0,179,179,179,,,,,,,,,,,,,108.77900529999897,0.029005299998971168,None,137.19148659999337,137.19148659999337,137.19148659999337,137.19148659999337,137.19148659999337,137.19148659999337,137.19148659999337,137.19148659999337,137.19148659999337,137.19148659999337,,008,P018,2025_Mar_07_1846,ConditionRich,2021.2.3,59.940970132342926,
109.0,109.75,9,0.75,Stimuli/P018/sun_ayidxslzurdumeps.jpg,0,0,0.0,0,180,180,180,,,,,,,,,,,,,109.02905629999441,0.02905629999440862,None,137.42497979999462,137.42497979999462,137.42497979999462,137.42497979999462,137.42497979999462,137.42497979999462,137.42497979999462,137.42497979999462,137.42497979999462,137.42497979999462,,008,P018,2025_Mar_07_1846,ConditionRich,2021.2.3,59.940970132342926,
109.75,110.0,41,0.0,Stimuli/Blank.png,0,0,0.0,0,181,181,181,,,,,,,,,,,,,109.76348549999966,0.013485499999660533,None,138.15897929999483,138.15897929999483,138.15897929999483,138.15897929999483,138.15897929999483,138.15897929999483,138.15897929999483,138.15897929999483,138.15897929999483,138.15897929999483,,008,P018,2025_Mar_07_1846,ConditionRich,2021.2.3,59.940970132342926,
110.0,110.75,9,0.75,Stimuli/P018/sun_ayidxslzurdumeps.jpg,0,0,0.0,0,182,182,182,,,,,,,,,,,,,110.0131251999992,0.013125199999194592,None,138.40918009999587,138.40918009999587,138.40918009999587,138.40918009999587,138.40918009999587,138.40918009999587,138.40918009999587,138.40918009999587,138.40918009999587,138.40918009999587,,008,P018,2025_Mar_07_1846,ConditionRich,2021.2.3,59.940970132342926,
110.75,111.0,41,0.0,Stimuli/Blank.png,0,0,0.0,0,183,183,183,,,,,,,,,,,,,110.76395259999845,0.013952599998447113,None,139.1598537999962,139.1598537999962,139.1598537999962,139.1598537999962,139.1598537999962,139.1598537999962,139.1598537999962,139.1598537999962,139.1598537999962,139.1598537999962,,008,P018,2025_Mar_07_1846,ConditionRich,2021.2.3,59.940970132342926,
111.0,111.75,9,0.75,Stimuli/P018/sun_ayidxslzurdumeps.jpg,0,0,0.0,0,184,184,184,,,,,,,,,,,,,111.01398749999498,0.0139874999949825,None,139.42675210000016,139.42675210000016,139.42675210000016,139.42675210000016,139.42675210000016,139.42675210000016,139.42675210000016,139.42675210000016,139.42675210000016,139.42675210000016,,008,P018,2025_Mar_07_1846,ConditionRich,2021.2.3,59.940970132342926,
111.75,112.0,41,0.0,Stimuli/Blank.png,0,0,0.0,0,185,185,185,,,,,,,,,,,,,111.78297049999674,0.03297049999673618,None,140.19411019999825,140.19411019999825,140.19411019999825,140.19411019999825,140.19411019999825,140.19411019999825,140.19411019999825,140.19411019999825,140.19411019999825,140.19411019999825,,008,P018,2025_Mar_07_1846,ConditionRich,2021.2.3,59.940970132342926,
112.0,112.75,16,0.75,Stimuli/P018/sun_brfwxjsnmauhmfzf.jpg,0,0,0.0,0,186,186,186,,,,,,,,,,,,,112.01541339999676,0.015413399996759836,None,140.41097059999447,140.41097059999447,140.41097059999447,140.41097059999447,140.41097059999447,140.41097059999447,140.41097059999447,140.41097059999447,140.41097059999447,140.41097059999447,,008,P018,2025_Mar_07_1846,ConditionRich,2021.2.3,59.940970132342926,
112.75,113.0,41,0.0,Stimuli/Blank.png,0,0,0.0,0,187,187,187,,,,,,,,,,,,,112.74899259999802,-0.0010074000019812956,None,141.14493549999315,141.14493549999315,141.14493549999315,141.14493549999315,141.14493549999315,141.14493549999315,141.14493549999315,141.14493549999315,141.14493549999315,141.14493549999315,,008,P018,2025_Mar_07_1846,ConditionRich,2021.2.3,59.940970132342926,
113.0,113.75,16,0.75,Stimuli/P018/sun_brfwxjsnmauhmfzf.jpg,0,0,0.0,0,188,188,188,,,,,,,,,,,,,112.99911579999753,-0.0008842000024742447,None,141.3951584999959,141.3951584999959,141.3951584999959,141.3951584999959,141.3951584999959,141.3951584999959,141.3951584999959,141.3951584999959,141.3951584999959,141.3951584999959,,008,P018,2025_Mar_07_1846,ConditionRich,2021.2.3,59.940970132342926,
113.75,114.0,41,0.0,Stimuli/Blank.png,0,0,0.0,0,189,189,189,,,,,,,,,,,,,113.7499014999994,-9.850000060396269e-05,None,142.14582469999732,142.14582469999732,142.14582469999732,142.14582469999732,142.14582469999732,142.14582469999732,142.14582469999732,142.14582469999732,142.14582469999732,142.14582469999732,,008,P018,2025_Mar_07_1846,ConditionRich,2021.2.3,59.940970132342926,
114.0,114.75,16,0.75,Stimuli/P018/sun_brfwxjsnmauhmfzf.jpg,0,0,0.0,0,190,190,190,,,,,,,,,,,,,114.00007069999992,7.069999992381781e-05,None,142.41272639999806,142.41272639999806,142.41272639999806,142.41272639999806,142.41272639999806,142.41272639999806,142.41272639999806,142.41272639999806,142.41272639999806,142.41272639999806,,008,P018,2025_Mar_07_1846,ConditionRich,2021.2.3,59.940970132342926,
114.75,115.0,41,0.0,Stimuli/Blank.png,0,0,0.0,0,191,191,191,,,,,,,,,,,,,114.76945899999555,0.019458999995549675,None,143.18009059999895,143.18009059999895,143.18009059999895,143.18009059999895,143.18009059999895,143.18009059999895,143.18009059999895,143.18009059999895,143.18009059999895,143.18009059999895,,008,P018,2025_Mar_07_1846,ConditionRich,2021.2.3,59.940970132342926,
115.0,115.75,16,0.75,Stimuli/P018/sun_brfwxjsnmauhmfzf.jpg,0,0,0.0,0,192,192,192,,,,,,,,,,,,,115.01733279999462,0.017332799994619563,None,143.41360829999758,143.41360829999758,143.41360829999758,143.41360829999758,143.41360829999758,143.41360829999758,143.41360829999758,143.41360829999758,143.41360829999758,143.41360829999758,,008,P018,2025_Mar_07_1846,ConditionRich,2021.2.3,59.940970132342926,
115.75,116.0,41,0.0,Stimuli/Blank.png,0,0,0.0,0,193,193,193,,,,,,,,,,,,,115.75325149999844,0.0032514999984414317,None,144.16429199999402,144.16429199999402,144.16429199999402,144.16429199999402,144.16429199999402,144.16429199999402,144.16429199999402,144.16429199999402,144.16429199999402,144.16429199999402,,008,P018,2025_Mar_07_1846,ConditionRich,2021.2.3,59.940970132342926,
116.0,116.75,33,0.75,Stimuli/P018/things_lamb_09s.jpg,0,0,0.0,0,194,194,194,,,,,,,,,,,,,116.0180423999991,0.01804239999910351,None,144.4144923999993,144.4144923999993,144.4144923999993,144.4144923999993,144.4144923999993,144.4144923999993,144.4144923999993,144.4144923999993,144.4144923999993,144.4144923999993,,008,P018,2025_Mar_07_1846,ConditionRich,2021.2.3,59.940970132342926,
116.75,117.0,41,0.0,Stimuli/Blank.png,0,0,0.0,0,195,195,195,,,,,,,,,,,,,116.75250439999945,0.002504399999452289,None,145.14847789999476,145.14847789999476,145.14847789999476,145.14847789999476,145.14847789999476,145.14847789999476,145.14847789999476,145.14847789999476,145.14847789999476,145.14847789999476,,008,P018,2025_Mar_07_1846,ConditionRich,2021.2.3,59.940970132342926,
117.0,117.75,33,0.75,Stimuli/P018/things_lamb_09s.jpg,0,0,0.0,0,196,196,196,,,,,,,,,,,,,117.00270669999736,0.0027066999973612837,None,145.398703699997,145.398703699997,145.398703699997,145.398703699997,145.398703699997,145.398703699997,145.398703699997,145.398703699997,145.398703699997,145.398703699997,,008,P018,2025_Mar_07_1846,ConditionRich,2021.2.3,59.940970132342926,
117.75,118.0,41,0.0,Stimuli/Blank.png,0,0,0.0,0,197,197,197,,,,,,,,,,,,,117.7539886999948,0.003988699994806666,None,146.14937399999326,146.14937399999326,146.14937399999326,146.14937399999326,146.14937399999326,146.14937399999326,146.14937399999326,146.14937399999326,146.14937399999326,146.14937399999326,,008,P018,2025_Mar_07_1846,ConditionRich,2021.2.3,59.940970132342926,
118.0,118.75,33,0.75,Stimuli/P018/things_lamb_09s.jpg,0,0,0.0,0,198,198,198,,,,,,,,,,,,,118.00352529999509,0.003525299995089881,None,146.39958829999523,146.39958829999523,146.39958829999523,146.39958829999523,146.39958829999523,146.39958829999523,146.39958829999523,146.39958829999523,146.39958829999523,146.39958829999523,,008,P018,2025_Mar_07_1846,ConditionRich,2021.2.3,59.940970132342926,
118.75,119.0,41,0.0,Stimuli/Blank.png,0,0,0.0,0,199,199,199,,,,,,,,,,,,,118.75393239999539,0.003932399995392188,None,147.15025639999658,147.15025639999658,147.15025639999658,147.15025639999658,147.15025639999658,147.15025639999658,147.15025639999658,147.15025639999658,147.15025639999658,147.15025639999658,,008,P018,2025_Mar_07_1846,ConditionRich,2021.2.3,59.940970132342926,
119.0,119.75,33,0.75,Stimuli/P018/things_lamb_09s.jpg,0,0,0.0,0,200,200,200,,,,,,,,,,,,,119.0038751999964,0.0038751999964006245,None,147.40046739999525,147.40046739999525,147.40046739999525,147.40046739999525,147.40046739999525,147.40046739999525,147.40046739999525,147.40046739999525,147.40046739999525,147.40046739999525,,008,P018,2025_Mar_07_1846,ConditionRich,2021.2.3,59.940970132342926,
119.75,120.0,41,0.0,Stimuli/Blank.png,0,0,0.0,0,201,201,201,,,,,,,,,,,,,119.75452279999445,0.0045227999944472685,None,148.15113679999922,148.15113679999922,148.15113679999922,148.15113679999922,148.15113679999922,148.15113679999922,148.15113679999922,148.15113679999922,148.15113679999922,148.15113679999922,,008,P018,2025_Mar_07_1846,ConditionRich,2021.2.3,59.940970132342926,
120.0,120.75,21,0.75,Stimuli/P018/things_baby_09s.jpg,0,0,0.0,0,202,202,202,,,,,,,,,,,,,120.00475979999464,0.004759799994644709,None,148.40136349999375,148.40136349999375,148.40136349999375,148.40136349999375,148.40136349999375,148.40136349999375,148.40136349999375,148.40136349999375,148.40136349999375,148.40136349999375,,008,P018,2025_Mar_07_1846,ConditionRich,2021.2.3,59.940970132342926,
120.75,121.0,41,0.0,Stimuli/Blank.png,0,0,0.0,0,203,203,203,,,,,,,,,,,,,120.75819329999649,0.008193299996491987,None,149.16872650000005,149.16872650000005,149.16872650000005,149.16872650000005,149.16872650000005,149.16872650000005,149.16872650000005,149.16872650000005,149.16872650000005,149.16872650000005,,008,P018,2025_Mar_07_1846,ConditionRich,2021.2.3,59.940970132342926,
121.0,121.75,21,0.75,Stimuli/P018/things_baby_09s.jpg,0,0,0.0,0,204,204,204,,,,,,,,,,,,,121.02287950000027,0.022879500000271946,None,149.43560839999554,149.43560839999554,149.43560839999554,149.43560839999554,149.43560839999554,149.43560839999554,149.43560839999554,149.43560839999554,149.43560839999554,149.43560839999554,,008,P018,2025_Mar_07_1846,ConditionRich,2021.2.3,59.940970132342926,
121.75,122.0,41,0.0,Stimuli/Blank.png,0,0,0.0,0,205,205,205,,,,,,,,,,,,,121.77303439999378,0.023034399993775878,None,150.16959309999947,150.16959309999947,150.16959309999947,150.16959309999947,150.16959309999947,150.16959309999947,150.16959309999947,150.16959309999947,150.16959309999947,150.16959309999947,,008,P018,2025_Mar_07_1846,ConditionRich,2021.2.3,59.940970132342926,
122.0,122.75,21,0.75,Stimuli/P018/things_baby_09s.jpg,0,0,0.0,0,206,206,206,,,,,,,,,,,,,122.00838469999871,0.008384699998714495,None,150.4198241999984,150.4198241999984,150.4198241999984,150.4198241999984,150.4198241999984,150.4198241999984,150.4198241999984,150.4198241999984,150.4198241999984,150.4198241999984,,008,P018,2025_Mar_07_1846,ConditionRich,2021.2.3,59.940970132342926,
122.75,123.0,41,0.0,Stimuli/Blank.png,0,0,0.0,0,207,207,207,,,,,,,,,,,,,122.77418059999763,0.024180599997635,None,151.17047269999603,151.17047269999603,151.17047269999603,151.17047269999603,151.17047269999603,151.17047269999603,151.17047269999603,151.17047269999603,151.17047269999603,151.17047269999603,,008,P018,2025_Mar_07_1846,ConditionRich,2021.2.3,59.940970132342926,
123.0,123.75,21,0.75,Stimuli/P018/things_baby_09s.jpg,0,0,0.0,0,208,208,208,,,,,,,,,,,,,123.0072463999968,0.007246399996802211,None,151.4039874999944,151.4039874999944,151.4039874999944,151.4039874999944,151.4039874999944,151.4039874999944,151.4039874999944,151.4039874999944,151.4039874999944,151.4039874999944,,008,P018,2025_Mar_07_1846,ConditionRich,2021.2.3,59.940970132342926,
123.75,124.0,41,0.0,Stimuli/Blank.png,0,0,0.0,0,209,209,209,,,,,,,,,,,,,123.75862749999942,0.008627499999420252,None,152.15467939999508,152.15467939999508,152.15467939999508,152.15467939999508,152.15467939999508,152.15467939999508,152.15467939999508,152.15467939999508,152.15467939999508,152.15467939999508,,008,P018,2025_Mar_07_1846,ConditionRich,2021.2.3,59.940970132342926,
124.0,124.75,28,0.75,Stimuli/P018/things_collar_09s.jpg,0,0,0.0,0,210,210,210,,,,,,,,,,,,,124.00875619999715,0.00875619999715127,None,152.40489779999916,152.40489779999916,152.40489779999916,152.40489779999916,152.40489779999916,152.40489779999916,152.40489779999916,152.40489779999916,152.40489779999916,152.40489779999916,,008,P018,2025_Mar_07_1846,ConditionRich,2021.2.3,59.940970132342926,
124.75,125.0,41,0.0,Stimuli/Blank.png,0,0,0.0,0,211,211,211,,,,,,,,,,,,,124.75896089999878,0.008960899998783134,None,153.15552889999526,153.15552889999526,153.15552889999526,153.15552889999526,153.15552889999526,153.15552889999526,153.15552889999526,153.15552889999526,153.15552889999526,153.15552889999526,,008,P018,2025_Mar_07_1846,ConditionRich,2021.2.3,59.940970132342926,
125.0,125.75,28,0.75,Stimuli/P018/things_collar_09s.jpg,0,0,0.0,0,212,212,212,,,,,,,,,,,,,125.00977449999482,0.009774499994819053,None,153.4225257999933,153.4225257999933,153.4225257999933,153.4225257999933,153.4225257999933,153.4225257999933,153.4225257999933,153.4225257999933,153.4225257999933,153.4225257999933,,008,P018,2025_Mar_07_1846,ConditionRich,2021.2.3,59.940970132342926,
125.75,126.0,41,0.0,Stimuli/Blank.png,0,0,0.0,0,213,213,213,,,,,,,,,,,,,125.77811979999387,0.02811979999387404,None,154.17310099999304,154.17310099999304,154.17310099999304,154.17310099999304,154.17310099999304,154.17310099999304,154.17310099999304,154.17310099999304,154.17310099999304,154.17310099999304,,008,P018,2025_Mar_07_1846,ConditionRich,2021.2.3,59.940970132342926,
126.0,126.75,28,0.75,Stimuli/P018/things_collar_09s.jpg,0,0,0.0,0,214,214,214,,,,,,,,,,,,,126.01033879999886,0.010338799998862669,None,154.40666509999573,154.40666509999573,154.40666509999573,154.40666509999573,154.40666509999573,154.40666509999573,154.40666509999573,154.40666509999573,154.40666509999573,154.40666509999573,,008,P018,2025_Mar_07_1846,ConditionRich,2021.2.3,59.940970132342926,
126.75,127.0,41,0.0,Stimuli/Blank.png,0,0,0.0,0,215,215,215,,,,,,,,,,,,,126.76159329999791,0.011593299997912254,None,155.15734749999683,155.15734749999683,155.15734749999683,155.15734749999683,155.15734749999683,155.15734749999683,155.15734749999683,155.15734749999683,155.15734749999683,155.15734749999683,,008,P018,2025_Mar_07_1846,ConditionRich,2021.2.3,59.940970132342926,
127.0,127.75,28,0.75,Stimuli/P018/things_collar_09s.jpg,0,0,0.0,0,216,216,216,,,,,,,,,,,,,127.01298870000028,0.012988700000278186,None,155.4242505000002,155.4242505000002,155.4242505000002,155.4242505000002,155.4242505000002,155.4242505000002,155.4242505000002,155.4242505000002,155.4242505000002,155.4242505000002,,008,P018,2025_Mar_07_1846,ConditionRich,2021.2.3,59.940970132342926,
127.75,128.0,41,0.0,Stimuli/Blank.png,0,0,0.0,0,217,217,217,,,,,,,,,,,,,127.77882229999523,0.028822299995226786,None,156.1748976999952,156.1748976999952,156.1748976999952,156.1748976999952,156.1748976999952,156.1748976999952,156.1748976999952,156.1748976999952,156.1748976999952,156.1748976999952,,008,P018,2025_Mar_07_1846,ConditionRich,2021.2.3,59.940970132342926,
128.0,128.75,20,0.75,Stimuli/P018/sun_buukivvfbfhosrng.jpg,0,0,0.0,0,218,218,218,,,,,,,,,,,,,128.01291329999367,0.01291329999367008,None,156.40844079999806,156.40844079999806,156.40844079999806,156.40844079999806,156.40844079999806,156.40844079999806,156.40844079999806,156.40844079999806,156.40844079999806,156.40844079999806,,008,P018,2025_Mar_07_1846,ConditionRich,2021.2.3,59.940970132342926,
128.75,129.0,41,0.0,Stimuli/Blank.png,0,0,0.0,0,219,219,219,,,,,,,,,,,,,128.76380129999598,0.013801299995975569,None,157.15910809999332,157.15910809999332,157.15910809999332,157.15910809999332,157.15910809999332,157.15910809999332,157.15910809999332,157.15910809999332,157.15910809999332,157.15910809999332,,008,P018,2025_Mar_07_1846,ConditionRich,2021.2.3,59.940970132342926,
129.0,129.75,20,0.75,Stimuli/P018/sun_buukivvfbfhosrng.jpg,0,0,0.0,0,220,220,220,,,,,,,,,,,,,129.0126237999939,0.012623799993889406,None,157.40931920000003,157.40931920000003,157.40931920000003,157.40931920000003,157.40931920000003,157.40931920000003,157.40931920000003,157.40931920000003,157.40931920000003,157.40931920000003,,008,P018,2025_Mar_07_1846,ConditionRich,2021.2.3,59.940970132342926,
129.75,130.0,41,0.0,Stimuli/Blank.png,0,0,0.0,0,221,221,221,,,,,,,,,,,,,129.7643226,0.014322600000014063,None,158.17668330000015,158.17668330000015,158.17668330000015,158.17668330000015,158.17668330000015,158.17668330000015,158.17668330000015,158.17668330000015,158.17668330000015,158.17668330000015,,008,P018,2025_Mar_07_1846,ConditionRich,2021.2.3,59.940970132342926,
130.0,130.75,20,0.75,Stimuli/P018/sun_buukivvfbfhosrng.jpg,1,0,0.75,0,222,222,222,,,,,,,,,,,,,130.0333399999945,0.033339999994495884,2,158.44357599999785,159.16083359999902,158.44357599999785,159.16083359999902,158.44357599999785,159.16083359999902,158.44357599999785,None,158.44357599999785,159.16083359999902,0.5084674000027007,008,P018,2025_Mar_07_1846,ConditionRich,2021.2.3,59.940970132342926,
130.75,131.0,41,0.0,Stimuli/Blank.png,0,0,0.0,0,223,223,223,,,,,,,,,,,,,130.78086849999818,0.030868499998177867,None,159.17758209999738,None,159.17758209999738,None,159.17758209999738,None,159.17758209999738,159.17758209999738,159.17758209999738,None,,008,P018,2025_Mar_07_1846,ConditionRich,2021.2.3,59.940970132342926,
131.0,131.75,20,0.75,Stimuli/P018/sun_buukivvfbfhosrng.jpg,0,0,0.0,0,224,224,224,,,,,,,,,,,,,131.01452089999657,0.014520899996568915,None,159.41108659999736,159.41108659999736,159.41108659999736,159.41108659999736,159.41108659999736,159.41108659999736,159.41108659999736,159.41108659999736,159.41108659999736,159.41108659999736,,008,P018,2025_Mar_07_1846,ConditionRich,2021.2.3,59.940970132342926,
131.75,132.0,41,0.0,Stimuli/Blank.png,0,0,0.0,0,225,225,225,,,,,,,,,,,,,131.7659041999941,0.015904199994110968,None,160.16177819999575,160.16177819999575,160.16177819999575,160.16177819999575,160.16177819999575,160.16177819999575,160.16177819999575,160.16177819999575,160.16177819999575,160.16177819999575,,008,P018,2025_Mar_07_1846,ConditionRich,2021.2.3,59.940970132342926,
132.0,132.75,32,0.75,Stimuli/P018/things_horse_09s.jpg,0,0,0.0,0,226,226,226,,,,,,,,,,,,,131.99917769999593,-0.00082230000407435,None,160.39525229999708,160.39525229999708,160.39525229999708,160.39525229999708,160.39525229999708,160.39525229999708,160.39525229999708,160.39525229999708,160.39525229999708,160.39525229999708,,008,P018,2025_Mar_07_1846,ConditionRich,2021.2.3,59.940970132342926,
132.75,133.0,41,0.0,Stimuli/Blank.png,0,0,0.0,0,227,227,227,,,,,,,,,,,,,132.74922359999618,-0.0007764000038150698,None,161.1459579999937,161.1459579999937,161.1459579999937,161.1459579999937,161.1459579999937,161.1459579999937,161.1459579999937,161.1459579999937,161.1459579999937,161.1459579999937,,008,P018,2025_Mar_07_1846,ConditionRich,2021.2.3,59.940970132342926,
133.0,133.75,32,0.75,Stimuli/P018/things_horse_09s.jpg,0,0,0.0,0,228,228,228,,,,,,,,,,,,,132.9995698999992,-0.0004301000008126721,None,161.3961824999933,161.3961824999933,161.3961824999933,161.3961824999933,161.3961824999933,161.3961824999933,161.3961824999933,161.3961824999933,161.3961824999933,161.3961824999933,,008,P018,2025_Mar_07_1846,ConditionRich,2021.2.3,59.940970132342926,
133.75,134.0,41,0.0,Stimuli/Blank.png,0,0,0.0,0,229,229,229,,,,,,,,,,,,,133.7508841999952,0.0008841999951982871,None,162.14691909999965,162.14691909999965,162.14691909999965,162.14691909999965,162.14691909999965,162.14691909999965,162.14691909999965,162.14691909999965,162.14691909999965,162.14691909999965,,008,P018,2025_Mar_07_1846,ConditionRich,2021.2.3,59.940970132342926,
134.0,134.75,32,0.75,Stimuli/P018/things_horse_09s.jpg,0,0,0.0,0,230,230,230,,,,,,,,,,,,,134.00088149999647,0.0008814999964670278,None,162.41375789999438,162.41375789999438,162.41375789999438,162.41375789999438,162.41375789999438,162.41375789999438,162.41375789999438,162.41375789999438,162.41375789999438,162.41375789999438,,008,P018,2025_Mar_07_1846,ConditionRich,2021.2.3,59.940970132342926,
134.75,135.0,41,0.0,Stimuli/Blank.png,0,0,0.0,0,231,231,231,,,,,,,,,,,,,134.7688038999986,0.01880389999860199,None,163.16441119999945,163.16441119999945,163.16441119999945,163.16441119999945,163.16441119999945,163.16441119999945,163.16441119999945,163.16441119999945,163.16441119999945,163.16441119999945,,008,P018,2025_Mar_07_1846,ConditionRich,2021.2.3,59.940970132342926,
135.0,135.75,32,0.75,Stimuli/P018/things_horse_09s.jpg,0,0,0.0,0,232,232,232,,,,,,,,,,,,,135.0033986999988,0.003398699998797383,None,163.41466739999305,163.41466739999305,163.41466739999305,163.41466739999305,163.41466739999305,163.41466739999305,163.41466739999305,163.41466739999305,163.41466739999305,163.41466739999305,,008,P018,2025_Mar_07_1846,ConditionRich,2021.2.3,59.940970132342926,
135.75,136.0,41,0.0,Stimuli/Blank.png,0,0,0.0,0,233,233,233,,,,,,,,,,,,,135.76853899999696,0.018538999996962957,None,164.16530129999592,164.16530129999592,164.16530129999592,164.16530129999592,164.16530129999592,164.16530129999592,164.16530129999592,164.16530129999592,164.16530129999592,164.16530129999592,,008,P018,2025_Mar_07_1846,ConditionRich,2021.2.3,59.940970132342926,
136.0,136.75,17,0.75,Stimuli/P018/sun_brhndfjxyigqgiwl.jpg,0,0,0.0,0,234,234,234,,,,,,,,,,,,,136.00258269999904,0.0025826999990385957,None,164.3988376999987,164.3988376999987,164.3988376999987,164.3988376999987,164.3988376999987,164.3988376999987,164.3988376999987,164.3988376999987,164.3988376999987,164.3988376999987,,008,P018,2025_Mar_07_1846,ConditionRich,2021.2.3,59.940970132342926,
136.75,137.0,41,0.0,Stimuli/Blank.png,0,0,0.0,0,235,235,235,,,,,,,,,,,,,136.75414479999745,0.00414479999744799,None,165.1495025999975,165.1495025999975,165.1495025999975,165.1495025999975,165.1495025999975,165.1495025999975,165.1495025999975,165.1495025999975,165.1495025999975,165.1495025999975,,008,P018,2025_Mar_07_1846,ConditionRich,2021.2.3,59.940970132342926,
137.0,137.75,17,0.75,Stimuli/P018/sun_brhndfjxyigqgiwl.jpg,0,0,0.0,0,236,236,236,,,,,,,,,,,,,137.00409419999778,0.004094199997780379,None,165.41641789999994,165.41641789999994,165.41641789999994,165.41641789999994,165.41641789999994,165.41641789999994,165.41641789999994,165.41641789999994,165.41641789999994,165.41641789999994,,008,P018,2025_Mar_07_1846,ConditionRich,2021.2.3,59.940970132342926,
137.75,138.0,41,0.0,Stimuli/Blank.png,0,0,0.0,0,237,237,237,,,,,,,,,,,,,137.7705771999972,0.020577199997205753,None,166.16715809999732,166.16715809999732,166.16715809999732,166.16715809999732,166.16715809999732,166.16715809999732,166.16715809999732,166.16715809999732,166.16715809999732,166.16715809999732,,008,P018,2025_Mar_07_1846,ConditionRich,2021.2.3,59.940970132342926,
138.0,138.75,17,0.75,Stimuli/P018/sun_brhndfjxyigqgiwl.jpg,0,0,0.0,0,238,238,238,,,,,,,,,,,,,138.00419300000067,0.00419300000066869,None,166.40060869999434,166.40060869999434,166.40060869999434,166.40060869999434,166.40060869999434,166.40060869999434,166.40060869999434,166.40060869999434,166.40060869999434,166.40060869999434,,008,P018,2025_Mar_07_1846,ConditionRich,2021.2.3,59.940970132342926,
138.75,139.0,41,0.0,Stimuli/Blank.png,0,0,0.0,0,239,239,239,,,,,,,,,,,,,138.75512469999376,0.005124699993757531,None,167.15127549999306,167.15127549999306,167.15127549999306,167.15127549999306,167.15127549999306,167.15127549999306,167.15127549999306,167.15127549999306,167.15127549999306,167.15127549999306,,008,P018,2025_Mar_07_1846,ConditionRich,2021.2.3,59.940970132342926,
139.0,139.75,17,0.75,Stimuli/P018/sun_brhndfjxyigqgiwl.jpg,0,0,0.0,0,240,240,240,,,,,,,,,,,,,139.00573219999933,0.005732199999329168,None,167.41819889999897,167.41819889999897,167.41819889999897,167.41819889999897,167.41819889999897,167.41819889999897,167.41819889999897,167.41819889999897,167.41819889999897,167.41819889999897,,008,P018,2025_Mar_07_1846,ConditionRich,2021.2.3,59.940970132342926,
139.75,140.0,41,0.0,Stimuli/Blank.png,0,0,0.0,0,241,241,241,,,,,,,,,,,,,139.77275109999755,0.022751099997549318,None,168.16884359999676,168.16884359999676,168.16884359999676,168.16884359999676,168.16884359999676,168.16884359999676,168.16884359999676,168.16884359999676,168.16884359999676,168.16884359999676,,008,P018,2025_Mar_07_1846,ConditionRich,2021.2.3,59.940970132342926,
140.0,140.75,7,0.75,Stimuli/P018/sun_auadhqmfjsjtjcue.jpg,0,0,0.0,0,242,242,242,,,,,,,,,,,,,140.00606629999675,0.006066299996746238,None,168.41908649999823,168.41908649999823,168.41908649999823,168.41908649999823,168.41908649999823,168.41908649999823,168.41908649999823,168.41908649999823,168.41908649999823,168.41908649999823,,008,P018,2025_Mar_07_1846,ConditionRich,2021.2.3,59.940970132342926,
140.75,141.0,41,0.0,Stimuli/Blank.png,0,0,0.0,0,243,243,243,,,,,,,,,,,,,140.77371719999792,0.023717199997918215,None,169.16972259999602,169.16972259999602,169.16972259999602,169.16972259999602,169.16972259999602,169.16972259999602,169.16972259999602,169.16972259999602,169.16972259999602,169.16972259999602,,008,P018,2025_Mar_07_1846,ConditionRich,2021.2.3,59.940970132342926,
141.0,141.75,7,0.75,Stimuli/P018/sun_auadhqmfjsjtjcue.jpg,0,0,0.0,0,244,244,244,,,,,,,,,,,,,141.00848459999543,0.008484599995426834,None,169.419945499998,169.419945499998,169.419945499998,169.419945499998,169.419945499998,169.419945499998,169.419945499998,169.419945499998,169.419945499998,169.419945499998,,008,P018,2025_Mar_07_1846,ConditionRich,2021.2.3,59.940970132342926,
141.75,142.0,41,0.0,Stimuli/Blank.png,0,0,0.0,0,245,245,245,,,,,,,,,,,,,141.77446809999674,0.0244680999967386,None,170.17060309999943,170.17060309999943,170.17060309999943,170.17060309999943,170.17060309999943,170.17060309999943,170.17060309999943,170.17060309999943,170.17060309999943,170.17060309999943,,008,P018,2025_Mar_07_1846,ConditionRich,2021.2.3,59.940970132342926,
142.0,142.75,7,0.75,Stimuli/P018/sun_auadhqmfjsjtjcue.jpg,0,0,0.0,0,246,246,246,,,,,,,,,,,,,142.00735749999876,0.007357499998761341,None,170.404146199995,170.404146199995,170.404146199995,170.404146199995,170.404146199995,170.404146199995,170.404146199995,170.404146199995,170.404146199995,170.404146199995,,008,P018,2025_Mar_07_1846,ConditionRich,2021.2.3,59.940970132342926,
142.75,143.0,41,0.0,Stimuli/Blank.png,0,0,0.0,0,247,247,247,,,,,,,,,,,,,142.75871750000078,0.00871750000078464,None,171.15477649999957,171.15477649999957,171.15477649999957,171.15477649999957,171.15477649999957,171.15477649999957,171.15477649999957,171.15477649999957,171.15477649999957,171.15477649999957,,008,P018,2025_Mar_07_1846,ConditionRich,2021.2.3,59.940970132342926,
143.0,143.75,7,0.75,Stimuli/P018/sun_auadhqmfjsjtjcue.jpg,0,0,0.0,0,248,248,248,,,,,,,,,,,,,143.00848919999407,0.008489199994073715,None,171.40510799999902,171.40510799999902,171.40510799999902,171.40510799999902,171.40510799999902,171.40510799999902,171.40510799999902,171.40510799999902,171.40510799999902,171.40510799999902,,008,P018,2025_Mar_07_1846,ConditionRich,2021.2.3,59.940970132342926,
143.75,144.0,41,0.0,Stimuli/Blank.png,0,0,0.0,0,249,249,249,,,,,,,,,,,,,143.75908009999694,0.009080099996936042,None,172.15570729999308,172.15570729999308,172.15570729999308,172.15570729999308,172.15570729999308,172.15570729999308,172.15570729999308,172.15570729999308,172.15570729999308,172.15570729999308,,008,P018,2025_Mar_07_1846,ConditionRich,2021.2.3,59.940970132342926,
144.0,144.75,13,0.75,Stimuli/P018/sun_bizqwyomkqigheyx.jpg,0,0,0.0,0,250,250,250,,,,,,,,,,,,,144.00931919999857,0.009319199998572003,None,172.40590819999488,172.40590819999488,172.40590819999488,172.40590819999488,172.40590819999488,172.40590819999488,172.40590819999488,172.40590819999488,172.40590819999488,172.40590819999488,,008,P018,2025_Mar_07_1846,ConditionRich,2021.2.3,59.940970132342926,
144.75,145.0,41,0.0,Stimuli/Blank.png,0,0,0.0,0,251,251,251,,,,,,,,,,,,,144.7605390999961,0.010539099996094592,None,173.15667140000005,173.15667140000005,173.15667140000005,173.15667140000005,173.15667140000005,173.15667140000005,173.15667140000005,173.15667140000005,173.15667140000005,173.15667140000005,,008,P018,2025_Mar_07_1846,ConditionRich,2021.2.3,59.940970132342926,
145.0,145.75,13,0.75,Stimuli/P018/sun_bizqwyomkqigheyx.jpg,0,0,0.0,0,252,252,252,,,,,,,,,,,,,145.01078309999866,0.010783099998661783,None,173.4067975999933,173.4067975999933,173.4067975999933,173.4067975999933,173.4067975999933,173.4067975999933,173.4067975999933,173.4067975999933,173.4067975999933,173.4067975999933,,008,P018,2025_Mar_07_1846,ConditionRich,2021.2.3,59.940970132342926,
145.75,146.0,41,0.0,Stimuli/Blank.png,0,0,0.0,0,253,253,253,,,,,,,,,,,,,145.76319030000013,0.013190300000132993,None,174.17415659999824,174.17415659999824,174.17415659999824,174.17415659999824,174.17415659999824,174.17415659999824,174.17415659999824,174.17415659999824,174.17415659999824,174.17415659999824,,008,P018,2025_Mar_07_1846,ConditionRich,2021.2.3,59.940970132342926,
146.0,146.75,13,0.75,Stimuli/P018/sun_bizqwyomkqigheyx.jpg,0,0,0.0,0,254,254,254,,,,,,,,,,,,,146.02833950000058,0.02833950000058394,None,174.424365699997,174.424365699997,174.424365699997,174.424365699997,174.424365699997,174.424365699997,174.424365699997,174.424365699997,174.424365699997,174.424365699997,,008,P018,2025_Mar_07_1846,ConditionRich,2021.2.3,59.940970132342926,
146.75,147.0,41,0.0,Stimuli/Blank.png,0,0,0.0,0,255,255,255,,,,,,,,,,,,,146.76234409999597,0.012344099995971192,None,175.1583565999972,175.1583565999972,175.1583565999972,175.1583565999972,175.1583565999972,175.1583565999972,175.1583565999972,175.1583565999972,175.1583565999972,175.1583565999972,,008,P018,2025_Mar_07_1846,ConditionRich,2021.2.3,59.940970132342926,
147.0,147.75,13,0.75,Stimuli/P018/sun_bizqwyomkqigheyx.jpg,0,0,0.0,0,256,256,256,,,,,,,,,,,,,147.01255499999388,0.01255499999388121,None,175.4252772999971,175.4252772999971,175.4252772999971,175.4252772999971,175.4252772999971,175.4252772999971,175.4252772999971,175.4252772999971,175.4252772999971,175.4252772999971,,008,P018,2025_Mar_07_1846,ConditionRich,2021.2.3,59.940970132342926,
147.75,148.0,41,0.0,Stimuli/Blank.png,0,0,0.0,0,257,257,257,,,,,,,,,,,,,147.77932339999825,0.029323399998247623,None,176.17590909999853,176.17590909999853,176.17590909999853,176.17590909999853,176.17590909999853,176.17590909999853,176.17590909999853,176.17590909999853,176.17590909999853,176.17590909999853,,008,P018,2025_Mar_07_1846,ConditionRich,2021.2.3,59.940970132342926,
148.0,148.75,36,0.75,Stimuli/P018/things_nest_09s.jpg,0,0,0.0,0,258,258,258,,,,,,,,,,,,,148.01284799999848,0.012847999998484738,None,176.4094485999958,176.4094485999958,176.4094485999958,176.4094485999958,176.4094485999958,176.4094485999958,176.4094485999958,176.4094485999958,176.4094485999958,176.4094485999958,,008,P018,2025_Mar_07_1846,ConditionRich,2021.2.3,59.940970132342926,
148.75,149.0,41,0.0,Stimuli/Blank.png,0,0,0.0,0,259,259,259,,,,,,,,,,,,,148.76398649999464,0.013986499994643964,None,177.16011359999538,177.16011359999538,177.16011359999538,177.16011359999538,177.16011359999538,177.16011359999538,177.16011359999538,177.16011359999538,177.16011359999538,177.16011359999538,,008,P018,2025_Mar_07_1846,ConditionRich,2021.2.3,59.940970132342926,
149.0,149.75,36,0.75,Stimuli/P018/things_nest_09s.jpg,0,0,0.0,0,260,260,260,,,,,,,,,,,,,149.0142932999952,0.014293299995188136,None,177.41033179999795,177.41033179999795,177.41033179999795,177.41033179999795,177.41033179999795,177.41033179999795,177.41033179999795,177.41033179999795,177.41033179999795,177.41033179999795,,008,P018,2025_Mar_07_1846,ConditionRich,2021.2.3,59.940970132342926,
149.75,150.0,41,0.0,Stimuli/Blank.png,0,0,0.0,0,261,261,261,,,,,,,,,,,,,149.7644355999946,0.014435599994612858,None,178.16100219999498,178.16100219999498,178.16100219999498,178.16100219999498,178.16100219999498,178.16100219999498,178.16100219999498,178.16100219999498,178.16100219999498,178.16100219999498,,008,P018,2025_Mar_07_1846,ConditionRich,2021.2.3,59.940970132342926,
