eventStartTime,eventEndTime,eventCond,imSize,imFile,responseEvent,fixRespStart,fixRespEnd,Events.thisRepN,Events.thisTrialN,Events.thisN,Events.thisIndex,Instructions.started,Instructions.stopped,participantReadyResponse.keys,participantReadyResponse.rt,participantReadyResponse.started,participantReadyResponse.stopped,startWaitforTrigger,triggerResponse.keys,triggerResponse.rt,triggerResponse.started,triggerResponse.stopped,globalTimer,actualStartTime,startTimingDiff,participantResponse.keys,participantResponse.started,participantResponse.stopped,image.started,image.stopped,fixationOutside.started,fixationOutside.stopped,fixationResponse.started,fixationResponse.stopped,fixationInside.started,fixationInside.stopped,participantResponse.rt,session,participant,date,expName,psychopyVersion,frameRate,
,,,,,,,,,,,,9.813742799997272,None,2,0.9442991000032634,9.813742799997272,None,,,,,,,,,,,,,,,,,,,,,003,P018,2025_Mar_07_1758,ConditionRich,2021.2.3,59.942551057761115,
,,,,,,,,,,,,,,,,,,10.762968199996976,5,17.999815399998624,10.776185599999735,None,,,,,,,,,,,,,,,,003,P018,2025_Mar_07_1758,ConditionRich,2021.2.3,59.942551057761115,
0.0,4.0,0,0.0,Stimuli/Blank.png,0,0.0,0.0,0,0,0,0,,,,,,,,,,,,28.779505300000892,0.01703350000025239,0.01703350000025239,None,28.808836299998802,None,28.808836299998802,None,28.808836299998802,None,28.808836299998802,28.808836299998802,28.808836299998802,None,,003,P018,2025_Mar_07_1758,ConditionRich,2021.2.3,59.942551057761115,
4.0,4.75,6,0.75,Stimuli/P018/sun_atuyvunnykjurjgx.jpg,0,0.0,0.0,0,1,1,1,,,,,,,,,,,,,4.00286369999958,0.002863699999579694,None,32.79599060000328,32.79599060000328,32.79599060000328,32.79599060000328,32.79599060000328,32.79599060000328,32.79599060000328,32.79599060000328,32.79599060000328,32.79599060000328,,003,P018,2025_Mar_07_1758,ConditionRich,2021.2.3,59.942551057761115,
4.75,8.0,41,0.0,Stimuli/Blank.png,0,0.0,0.0,0,2,2,2,,,,,,,,,,,,,4.752978799995617,0.0029787999956170097,None,33.546711900002265,33.546711900002265,33.546711900002265,33.546711900002265,33.546711900002265,33.546711900002265,33.546711900002265,33.546711900002265,33.546711900002265,33.546711900002265,,003,P018,2025_Mar_07_1758,ConditionRich,2021.2.3,59.942551057761115,
8.0,8.75,4,0.75,Stimuli/P018/sun_aibvvqlmlsjnrgdj.jpg,0,0.0,0.0,0,3,3,3,,,,,,,,,,,,,8.005057899994426,0.005057899994426407,None,36.79921040000045,36.79921040000045,36.79921040000045,36.79921040000045,36.79921040000045,36.79921040000045,36.79921040000045,36.79921040000045,36.79921040000045,36.79921040000045,,003,P018,2025_Mar_07_1758,ConditionRich,2021.2.3,59.942551057761115,
8.75,12.0,41,0.0,Stimuli/Blank.png,0,0.0,0.0,0,4,4,4,,,,,,,,,,,,,8.756802500000049,0.0068025000000488944,None,37.549919600001886,37.549919600001886,37.549919600001886,37.549919600001886,37.549919600001886,37.549919600001886,37.549919600001886,37.549919600001886,37.549919600001886,37.549919600001886,,003,P018,2025_Mar_07_1758,ConditionRich,2021.2.3,59.942551057761115,
12.0,12.75,24,0.75,Stimuli/P018/things_breadbox_09s.jpg,0,0.0,0.0,0,5,5,5,,,,,,,,,,,,,12.009149799996521,0.009149799996521324,None,40.802786899999774,40.802786899999774,40.802786899999774,40.802786899999774,40.802786899999774,40.802786899999774,40.802786899999774,40.802786899999774,40.802786899999774,40.802786899999774,,003,P018,2025_Mar_07_1758,ConditionRich,2021.2.3,59.942551057761115,
12.75,16.0,41,0.0,Stimuli/Blank.png,0,0.0,0.0,0,6,6,6,,,,,,,,,,,,,12.759975299995858,0.009975299995858222,None,41.5534387000007,41.5534387000007,41.5534387000007,41.5534387000007,41.5534387000007,41.5534387000007,41.5534387000007,41.5534387000007,41.5534387000007,41.5534387000007,,003,P018,2025_Mar_07_1758,ConditionRich,2021.2.3,59.942551057761115,
16.0,16.75,34,0.75,Stimuli/P018/things_llama_09s.jpg,0,0.0,0.0,0,7,7,7,,,,,,,,,,,,,16.012723299994832,0.012723299994831905,None,44.80630940000265,44.80630940000265,44.80630940000265,44.80630940000265,44.80630940000265,44.80630940000265,44.80630940000265,44.80630940000265,44.80630940000265,44.80630940000265,,003,P018,2025_Mar_07_1758,ConditionRich,2021.2.3,59.942551057761115,
16.75,20.0,41,0.0,Stimuli/Blank.png,0,0.0,0.0,0,8,8,8,,,,,,,,,,,,,16.76336829999491,0.013368299994908739,None,45.55702149999706,45.55702149999706,45.55702149999706,45.55702149999706,45.55702149999706,45.55702149999706,45.55702149999706,45.55702149999706,45.55702149999706,45.55702149999706,,003,P018,2025_Mar_07_1758,ConditionRich,2021.2.3,59.942551057761115,
20.0,20.75,31,0.75,Stimuli/P018/things_highchair_09s.jpg,1,0.0,0.75,0,9,9,9,,,,,,,,,,,,,19.998972499997762,-0.0010275000022375025,2,48.79322040000261,48.79322040000261,48.79322040000261,48.79322040000261,48.79322040000261,48.79322040000261,48.79322040000261,49.52715300000273,48.79322040000261,48.79322040000261,0.4487356000026921,003,P018,2025_Mar_07_1758,ConditionRich,2021.2.3,59.942551057761115,
20.75,24.0,41,0.0,Stimuli/Blank.png,0,0.0,0.0,0,10,10,10,,,,,,,,,,,,,20.74976759999845,-0.00023240000155055895,None,49.54383719999896,49.54383719999896,49.54383719999896,49.54383719999896,49.54383719999896,49.54383719999896,49.54383719999896,49.54383719999896,49.54383719999896,49.54383719999896,,003,P018,2025_Mar_07_1758,ConditionRich,2021.2.3,59.942551057761115,
24.0,24.75,19,0.75,Stimuli/P018/sun_brrwzaypucosdcgt.jpg,0,0.0,0.0,0,11,11,11,,,,,,,,,,,,,24.00353819999873,0.0035381999987293966,None,52.79679880000185,52.79679880000185,52.79679880000185,52.79679880000185,52.79679880000185,52.79679880000185,52.79679880000185,52.79679880000185,52.79679880000185,52.79679880000185,,003,P018,2025_Mar_07_1758,ConditionRich,2021.2.3,59.942551057761115,
24.75,28.0,41,0.0,Stimuli/Blank.png,0,0.0,0.0,0,12,12,12,,,,,,,,,,,,,24.753851999994367,0.003851999994367361,None,53.54741849999846,53.54741849999846,53.54741849999846,53.54741849999846,53.54741849999846,53.54741849999846,53.54741849999846,53.54741849999846,53.54741849999846,53.54741849999846,,003,P018,2025_Mar_07_1758,ConditionRich,2021.2.3,59.942551057761115,
28.0,28.75,26,0.75,Stimuli/P018/things_chandelier_09s.jpg,0,0.0,0.0,0,13,13,13,,,,,,,,,,,,,28.006544099996972,0.0065440999969723634,None,56.80021239999769,56.80021239999769,56.80021239999769,56.80021239999769,56.80021239999769,56.80021239999769,56.80021239999769,56.80021239999769,56.80021239999769,56.80021239999769,,003,P018,2025_Mar_07_1758,ConditionRich,2021.2.3,59.942551057761115,
28.75,32.0,41,0.0,Stimuli/Blank.png,0,0.0,0.0,0,14,14,14,,,,,,,,,,,,,28.756880599998112,0.006880599998112302,None,57.55101609999838,57.55101609999838,57.55101609999838,57.55101609999838,57.55101609999838,57.55101609999838,57.55101609999838,57.55101609999838,57.55101609999838,57.55101609999838,,003,P018,2025_Mar_07_1758,ConditionRich,2021.2.3,59.942551057761115,
32.0,32.75,40,0.75,Stimuli/P018/things_woman_09s.jpg,0,0.0,0.0,0,15,15,15,,,,,,,,,,,,,32.009669699997175,0.009669699997175485,None,60.803783499999554,60.803783499999554,60.803783499999554,60.803783499999554,60.803783499999554,60.803783499999554,60.803783499999554,60.803783499999554,60.803783499999554,60.803783499999554,,003,P018,2025_Mar_07_1758,ConditionRich,2021.2.3,59.942551057761115,
32.75,36.0,41,0.0,Stimuli/Blank.png,0,0.0,0.0,0,16,16,16,,,,,,,,,,,,,32.76030129999708,0.010301299997081514,None,61.55444510000234,61.55444510000234,61.55444510000234,61.55444510000234,61.55444510000234,61.55444510000234,61.55444510000234,61.55444510000234,61.55444510000234,61.55444510000234,,003,P018,2025_Mar_07_1758,ConditionRich,2021.2.3,59.942551057761115,
36.0,36.75,37,0.75,Stimuli/P018/things_plastic_film_09s.jpg,0,0.0,0.0,0,17,17,17,,,,,,,,,,,,,36.016360599998734,0.01636059999873396,None,64.82405670000298,64.82405670000298,64.82405670000298,64.82405670000298,64.82405670000298,64.82405670000298,64.82405670000298,64.82405670000298,64.82405670000298,64.82405670000298,,003,P018,2025_Mar_07_1758,ConditionRich,2021.2.3,59.942551057761115,
36.75,40.0,41,0.0,Stimuli/Blank.png,1,1.25,2.0,0,18,18,18,,,,,,,,,,,,,36.76467430000048,0.01467430000047898,2,65.55800080000336,65.55800080000336,65.55800080000336,65.55800080000336,65.55800080000336,65.55800080000336,66.79242279999744,67.5430520000009,65.55800080000336,65.55800080000336,1.6161396999959834,003,P018,2025_Mar_07_1758,ConditionRich,2021.2.3,59.942551057761115,
40.0,40.75,23,0.75,Stimuli/P018/things_boy_09s.jpg,0,0.0,0.0,0,19,19,19,,,,,,,,,,,,,40.000836599996546,0.0008365999965462834,None,68.81086270000378,68.81086270000378,68.81086270000378,68.81086270000378,68.81086270000378,68.81086270000378,68.81086270000378,68.81086270000378,68.81086270000378,68.81086270000378,,003,P018,2025_Mar_07_1758,ConditionRich,2021.2.3,59.942551057761115,
40.75,44.0,41,0.0,Stimuli/Blank.png,1,2.25,3.0,0,20,20,20,,,,,,,,,,,,,40.77019509999809,0.020195099998090882,2,69.5782182000039,69.5782182000039,69.5782182000039,69.5782182000039,69.5782182000039,69.5782182000039,71.81351530000393,72.56418049999775,69.5782182000039,69.5782182000039,2.6360514999978477,003,P018,2025_Mar_07_1758,ConditionRich,2021.2.3,59.942551057761115,
44.0,44.75,3,0.75,Stimuli/P018/sun_acymmczhyuiimeub.jpg,0,0.0,0.0,0,21,21,21,,,,,,,,,,,,,44.02064799999789,0.02064799999789102,None,72.81440090000251,72.81440090000251,72.81440090000251,72.81440090000251,72.81440090000251,72.81440090000251,72.81440090000251,72.81440090000251,72.81440090000251,72.81440090000251,,003,P018,2025_Mar_07_1758,ConditionRich,2021.2.3,59.942551057761115,
44.75,48.0,41,0.0,Stimuli/Blank.png,0,0.0,0.0,0,22,22,22,,,,,,,,,,,,,44.75468649999675,0.004686499996751081,None,73.54838269999891,73.54838269999891,73.54838269999891,73.54838269999891,73.54838269999891,73.54838269999891,73.54838269999891,73.54838269999891,73.54838269999891,73.54838269999891,,003,P018,2025_Mar_07_1758,ConditionRich,2021.2.3,59.942551057761115,
48.0,48.75,27,0.75,Stimuli/P018/things_coffin_09s.jpg,0,0.0,0.0,0,23,23,23,,,,,,,,,,,,,48.007355999994616,0.0073559999946155585,None,76.80123029999959,76.80123029999959,76.80123029999959,76.80123029999959,76.80123029999959,76.80123029999959,76.80123029999959,76.80123029999959,76.80123029999959,76.80123029999959,,003,P018,2025_Mar_07_1758,ConditionRich,2021.2.3,59.942551057761115,
48.75,52.0,41,0.0,Stimuli/Blank.png,0,0.0,0.0,0,24,24,24,,,,,,,,,,,,,48.757799299994076,0.0077992999940761365,None,77.55192800000077,77.55192800000077,77.55192800000077,77.55192800000077,77.55192800000077,77.55192800000077,77.55192800000077,77.55192800000077,77.55192800000077,77.55192800000077,,003,P018,2025_Mar_07_1758,ConditionRich,2021.2.3,59.942551057761115,
52.0,52.75,9,0.75,Stimuli/P018/sun_ayidxslzurdumeps.jpg,0,0.0,0.0,0,25,25,25,,,,,,,,,,,,,52.010692600000766,0.010692600000766106,None,80.80480389999866,80.80480389999866,80.80480389999866,80.80480389999866,80.80480389999866,80.80480389999866,80.80480389999866,80.80480389999866,80.80480389999866,80.80480389999866,,003,P018,2025_Mar_07_1758,ConditionRich,2021.2.3,59.942551057761115,
52.75,56.0,41,0.0,Stimuli/Blank.png,0,0.0,0.0,0,26,26,26,,,,,,,,,,,,,52.76244410000072,0.012444100000720937,None,81.55546119999781,81.55546119999781,81.55546119999781,81.55546119999781,81.55546119999781,81.55546119999781,81.55546119999781,81.55546119999781,81.55546119999781,81.55546119999781,,003,P018,2025_Mar_07_1758,ConditionRich,2021.2.3,59.942551057761115,
56.0,56.75,39,0.75,Stimuli/P018/things_veil_09s.jpg,0,0.0,0.0,0,27,27,27,,,,,,,,,,,,,56.01423280000017,0.014232800000172574,None,84.8083362000034,84.8083362000034,84.8083362000034,84.8083362000034,84.8083362000034,84.8083362000034,84.8083362000034,84.8083362000034,84.8083362000034,84.8083362000034,,003,P018,2025_Mar_07_1758,ConditionRich,2021.2.3,59.942551057761115,
56.75,60.0,41,0.0,Stimuli/Blank.png,1,1.25,2.0,0,28,28,28,,,,,,,,,,,,,56.765848499999265,0.015848499999265186,2,85.55900780000229,85.55900780000229,85.55900780000229,85.55900780000229,85.55900780000229,85.55900780000229,86.79342319999705,87.54408970000077,85.55900780000229,85.55900780000229,1.6063598999971873,003,P018,2025_Mar_07_1758,ConditionRich,2021.2.3,59.942551057761115,
60.0,60.75,29,0.75,Stimuli/P018/things_face_09s.jpg,0,0.0,0.0,0,29,29,29,,,,,,,,,,,,,60.00126729999465,0.0012672999946516939,None,88.79515730000276,88.79515730000276,88.79515730000276,88.79515730000276,88.79515730000276,88.79515730000276,88.79515730000276,88.79515730000276,88.79515730000276,88.79515730000276,,003,P018,2025_Mar_07_1758,ConditionRich,2021.2.3,59.942551057761115,
60.75,64.0,41,0.0,Stimuli/Blank.png,0,0.0,0.0,0,30,30,30,,,,,,,,,,,,,60.752400799996394,0.0024007999963941984,None,89.56257919999916,89.56257919999916,89.56257919999916,89.56257919999916,89.56257919999916,89.56257919999916,89.56257919999916,89.56257919999916,89.56257919999916,89.56257919999916,,003,P018,2025_Mar_07_1758,ConditionRich,2021.2.3,59.942551057761115,
64.0,64.75,20,0.75,Stimuli/P018/sun_buukivvfbfhosrng.jpg,0,0.0,0.0,0,31,31,31,,,,,,,,,,,,,64.0224218000003,0.022421800000302028,None,92.83209679999709,92.83209679999709,92.83209679999709,92.83209679999709,92.83209679999709,92.83209679999709,92.83209679999709,92.83209679999709,92.83209679999709,92.83209679999709,,003,P018,2025_Mar_07_1758,ConditionRich,2021.2.3,59.942551057761115,
64.75,68.0,41,0.0,Stimuli/Blank.png,0,0.0,0.0,0,32,32,32,,,,,,,,,,,,,64.77231149999716,0.022311499997158535,None,93.56672599999729,93.56672599999729,93.56672599999729,93.56672599999729,93.56672599999729,93.56672599999729,93.56672599999729,93.56672599999729,93.56672599999729,93.56672599999729,,003,P018,2025_Mar_07_1758,ConditionRich,2021.2.3,59.942551057761115,
68.0,68.75,13,0.75,Stimuli/P018/sun_bizqwyomkqigheyx.jpg,0,0.0,0.0,0,33,33,33,,,,,,,,,,,,,68.01139559999865,0.011395599998650141,None,96.81897559999925,96.81897559999925,96.81897559999925,96.81897559999925,96.81897559999925,96.81897559999925,96.81897559999925,96.81897559999925,96.81897559999925,96.81897559999925,,003,P018,2025_Mar_07_1758,ConditionRich,2021.2.3,59.942551057761115,
68.75,72.0,41,0.0,Stimuli/Blank.png,0,0.0,0.0,0,34,34,34,,,,,,,,,,,,,68.77593119999801,0.025931199998012744,None,97.56961990000127,97.56961990000127,97.56961990000127,97.56961990000127,97.56961990000127,97.56961990000127,97.56961990000127,97.56961990000127,97.56961990000127,97.56961990000127,,003,P018,2025_Mar_07_1758,ConditionRich,2021.2.3,59.942551057761115,
72.0,72.75,30,0.75,Stimuli/P018/things_girl_09s.jpg,0,0.0,0.0,0,35,35,35,,,,,,,,,,,,,72.01184429999557,0.011844299995573238,None,100.80580690000352,100.80580690000352,100.80580690000352,100.80580690000352,100.80580690000352,100.80580690000352,100.80580690000352,100.80580690000352,100.80580690000352,100.80580690000352,,003,P018,2025_Mar_07_1758,ConditionRich,2021.2.3,59.942551057761115,
72.75,76.0,41,0.0,Stimuli/Blank.png,0,0.0,0.0,0,36,36,36,,,,,,,,,,,,,72.76233549999597,0.012335499995970167,None,101.55647519999911,101.55647519999911,101.55647519999911,101.55647519999911,101.55647519999911,101.55647519999911,101.55647519999911,101.55647519999911,101.55647519999911,101.55647519999911,,003,P018,2025_Mar_07_1758,ConditionRich,2021.2.3,59.942551057761115,
76.0,76.75,10,0.75,Stimuli/P018/sun_bayxprasninnrnle.jpg,0,0.0,0.0,0,37,37,37,,,,,,,,,,,,,76.01546789999702,0.01546789999702014,None,104.80935239999963,104.80935239999963,104.80935239999963,104.80935239999963,104.80935239999963,104.80935239999963,104.80935239999963,104.80935239999963,104.80935239999963,104.80935239999963,,003,P018,2025_Mar_07_1758,ConditionRich,2021.2.3,59.942551057761115,
76.75,80.0,41,0.0,Stimuli/Blank.png,0,0.0,0.0,0,38,38,38,,,,,,,,,,,,,76.74994850000076,-5.149999924469739e-05,None,105.54334080000262,105.54334080000262,105.54334080000262,105.54334080000262,105.54334080000262,105.54334080000262,105.54334080000262,105.54334080000262,105.54334080000262,105.54334080000262,,003,P018,2025_Mar_07_1758,ConditionRich,2021.2.3,59.942551057761115,
80.0,80.75,36,0.75,Stimuli/P018/things_nest_09s.jpg,0,0.0,0.0,0,39,39,39,,,,,,,,,,,,,80.00259849999566,0.0025984999956563115,None,108.79621349999798,108.79621349999798,108.79621349999798,108.79621349999798,108.79621349999798,108.79621349999798,108.79621349999798,108.79621349999798,108.79621349999798,108.79621349999798,,003,P018,2025_Mar_07_1758,ConditionRich,2021.2.3,59.942551057761115,
80.75,84.0,41,0.0,Stimuli/Blank.png,1,1.25,2.0,0,40,40,40,,,,,,,,,,,,,80.7531164999964,0.0031164999963948503,2,109.54687700000068,109.54687700000068,109.54687700000068,109.54687700000068,109.54687700000068,109.54687700000068,110.7813141000006,111.53197499999806,109.54687700000068,109.54687700000068,1.6373163999960525,003,P018,2025_Mar_07_1758,ConditionRich,2021.2.3,59.942551057761115,
84.0,100.0,0,0.0,Stimuli/Blank.png,1,11.0,11.75,0,41,41,41,,,,,,,,,,,,,84.00589039999613,0.0058903999961330555,2,112.79975079999713,112.79975079999713,112.79975079999713,112.79975079999713,112.79975079999713,112.79975079999713,123.77618169999914,124.5267875999998,112.79975079999713,112.79975079999713,11.39128619999974,003,P018,2025_Mar_07_1758,ConditionRich,2021.2.3,59.942551057761115,
100.0,100.75,17,0.75,Stimuli/P018/sun_brhndfjxyigqgiwl.jpg,0,0.0,0.0,0,42,42,42,,,,,,,,,,,,,100.00458280000021,0.004582800000207499,None,128.8139095000006,128.8139095000006,128.8139095000006,128.8139095000006,128.8139095000006,128.8139095000006,128.8139095000006,128.8139095000006,128.8139095000006,128.8139095000006,,003,P018,2025_Mar_07_1758,ConditionRich,2021.2.3,59.942551057761115,
100.75,104.0,41,0.0,Stimuli/Blank.png,0,0.0,0.0,0,43,43,43,,,,,,,,,,,,,100.77051260000007,0.0205126000000746,None,129.564512500001,129.564512500001,129.564512500001,129.564512500001,129.564512500001,129.564512500001,129.564512500001,129.564512500001,129.564512500001,129.564512500001,,003,P018,2025_Mar_07_1758,ConditionRich,2021.2.3,59.942551057761115,
104.0,104.75,16,0.75,Stimuli/P018/sun_brfwxjsnmauhmfzf.jpg,0,0.0,0.0,0,44,44,44,,,,,,,,,,,,,104.00677929999802,0.006779299998015631,None,132.80075139999826,132.80075139999826,132.80075139999826,132.80075139999826,132.80075139999826,132.80075139999826,132.80075139999826,132.80075139999826,132.80075139999826,132.80075139999826,,003,P018,2025_Mar_07_1758,ConditionRich,2021.2.3,59.942551057761115,
104.75,108.0,41,0.0,Stimuli/Blank.png,0,0.0,0.0,0,45,45,45,,,,,,,,,,,,,104.75786929999595,0.007869299995945767,None,133.55142419999902,133.55142419999902,133.55142419999902,133.55142419999902,133.55142419999902,133.55142419999902,133.55142419999902,133.55142419999902,133.55142419999902,133.55142419999902,,003,P018,2025_Mar_07_1758,ConditionRich,2021.2.3,59.942551057761115,
108.0,108.75,14,0.75,Stimuli/P018/sun_bljpqnfmmqkjsfvx.jpg,0,0.0,0.0,0,46,46,46,,,,,,,,,,,,,108.0116310999947,0.011631099994701799,None,136.82098609999957,136.82098609999957,136.82098609999957,136.82098609999957,136.82098609999957,136.82098609999957,136.82098609999957,136.82098609999957,136.82098609999957,136.82098609999957,,003,P018,2025_Mar_07_1758,ConditionRich,2021.2.3,59.942551057761115,
108.75,112.0,41,0.0,Stimuli/Blank.png,1,2.25,3.0,0,47,47,47,,,,,,,,,,,,,108.78033959999448,0.030339599994476885,2,137.58833890000096,137.58833890000096,137.58833890000096,137.58833890000096,137.58833890000096,137.58833890000096,139.82362090000242,140.57430120000208,137.58833890000096,137.58833890000096,2.669779500000004,003,P018,2025_Mar_07_1758,ConditionRich,2021.2.3,59.942551057761115,
112.0,112.75,5,0.75,Stimuli/P018/sun_apojgqgvdvsksdvo.jpg,0,0.0,0.0,0,48,48,48,,,,,,,,,,,,,112.01425009999366,0.014250099993660115,None,140.80784800000401,140.80784800000401,140.80784800000401,140.80784800000401,140.80784800000401,140.80784800000401,140.80784800000401,140.80784800000401,140.80784800000401,140.80784800000401,,003,P018,2025_Mar_07_1758,ConditionRich,2021.2.3,59.942551057761115,
112.75,116.0,41,0.0,Stimuli/Blank.png,1,0.25,1.0,0,49,49,49,,,,,,,,,,,,,112.76459599999362,0.014595999993616715,2,141.558500799998,141.558500799998,141.558500799998,141.558500799998,141.558500799998,141.558500799998,141.7920579999991,142.54269940000086,141.558500799998,141.558500799998,0.6336426000052597,003,P018,2025_Mar_07_1758,ConditionRich,2021.2.3,59.942551057761115,
116.0,116.75,15,0.75,Stimuli/P018/sun_bobznlnnzwznersx.jpg,0,0.0,0.0,0,50,50,50,,,,,,,,,,,,,116.00060769999982,0.0006076999998185784,None,144.79465190000337,144.79465190000337,144.79465190000337,144.79465190000337,144.79465190000337,144.79465190000337,144.79465190000337,144.79465190000337,144.79465190000337,144.79465190000337,,003,P018,2025_Mar_07_1758,ConditionRich,2021.2.3,59.942551057761115,
116.75,120.0,41,0.0,Stimuli/Blank.png,0,0.0,0.0,0,51,51,51,,,,,,,,,,,,,116.75134089999483,0.0013408999948296696,None,145.54535659999965,145.54535659999965,145.54535659999965,145.54535659999965,145.54535659999965,145.54535659999965,145.54535659999965,145.54535659999965,145.54535659999965,145.54535659999965,,003,P018,2025_Mar_07_1758,ConditionRich,2021.2.3,59.942551057761115,
120.0,120.75,2,0.75,Stimuli/P018/sun_acliytrpktltxwsx.jpg,1,0.0,0.75,0,52,52,52,,,,,,,,,,,,,120.00545169999532,0.005451699995319359,2,148.81491169999936,148.81491169999936,148.81491169999936,148.81491169999936,148.81491169999936,148.81491169999936,148.81491169999936,149.53223979999893,148.81491169999936,148.81491169999936,0.4791624000063166,003,P018,2025_Mar_07_1758,ConditionRich,2021.2.3,59.942551057761115,
120.75,124.0,41,0.0,Stimuli/Blank.png,0,0.0,0.0,0,53,53,53,,,,,,,,,,,,,120.77227769999445,0.022277699994447175,None,149.56558100000257,149.56558100000257,149.56558100000257,149.56558100000257,149.56558100000257,149.56558100000257,149.56558100000257,149.56558100000257,149.56558100000257,149.56558100000257,,003,P018,2025_Mar_07_1758,ConditionRich,2021.2.3,59.942551057761115,
124.0,124.75,35,0.75,Stimuli/P018/things_lobster_09s.jpg,0,0.0,0.0,0,54,54,54,,,,,,,,,,,,,124.00849649999873,0.008496499998727813,None,152.8184543000025,152.8184543000025,152.8184543000025,152.8184543000025,152.8184543000025,152.8184543000025,152.8184543000025,152.8184543000025,152.8184543000025,152.8184543000025,,003,P018,2025_Mar_07_1758,ConditionRich,2021.2.3,59.942551057761115,
124.75,128.0,41,0.0,Stimuli/Blank.png,0,0.0,0.0,0,55,55,55,,,,,,,,,,,,,124.77625019999687,0.026250199996866286,None,153.58582410000236,153.58582410000236,153.58582410000236,153.58582410000236,153.58582410000236,153.58582410000236,153.58582410000236,153.58582410000236,153.58582410000236,153.58582410000236,,003,P018,2025_Mar_07_1758,ConditionRich,2021.2.3,59.942551057761115,
128.0,128.75,7,0.75,Stimuli/P018/sun_auadhqmfjsjtjcue.jpg,0,0.0,0.0,0,56,56,56,,,,,,,,,,,,,128.03033469999355,0.030334699993545655,None,156.83869330000016,156.83869330000016,156.83869330000016,156.83869330000016,156.83869330000016,156.83869330000016,156.83869330000016,156.83869330000016,156.83869330000016,156.83869330000016,,003,P018,2025_Mar_07_1758,ConditionRich,2021.2.3,59.942551057761115,
128.75,132.0,41,0.0,Stimuli/Blank.png,0,0.0,0.0,0,57,57,57,,,,,,,,,,,,,128.78055049999966,0.03055049999966286,None,157.5893572999994,157.5893572999994,157.5893572999994,157.5893572999994,157.5893572999994,157.5893572999994,157.5893572999994,157.5893572999994,157.5893572999994,157.5893572999994,,003,P018,2025_Mar_07_1758,ConditionRich,2021.2.3,59.942551057761115,
132.0,132.75,32,0.75,Stimuli/P018/things_horse_09s.jpg,0,0.0,0.0,0,58,58,58,,,,,,,,,,,,,132.01577299999917,0.01577299999917159,None,160.82553229999758,160.82553229999758,160.82553229999758,160.82553229999758,160.82553229999758,160.82553229999758,160.82553229999758,160.82553229999758,160.82553229999758,160.82553229999758,,003,P018,2025_Mar_07_1758,ConditionRich,2021.2.3,59.942551057761115,
132.75,136.0,41,0.0,Stimuli/Blank.png,0,0.0,0.0,0,59,59,59,,,,,,,,,,,,,132.76647989999765,0.016479899997648317,None,161.55951099999947,161.55951099999947,161.55951099999947,161.55951099999947,161.55951099999947,161.55951099999947,161.55951099999947,161.55951099999947,161.55951099999947,161.55951099999947,,003,P018,2025_Mar_07_1758,ConditionRich,2021.2.3,59.942551057761115,
136.0,136.75,25,0.75,Stimuli/P018/things_cannonball_09s.jpg,0,0.0,0.0,0,60,60,60,,,,,,,,,,,,,136.00226419999672,0.002264199996716343,None,164.8124205999993,164.8124205999993,164.8124205999993,164.8124205999993,164.8124205999993,164.8124205999993,164.8124205999993,164.8124205999993,164.8124205999993,164.8124205999993,,003,P018,2025_Mar_07_1758,ConditionRich,2021.2.3,59.942551057761115,
136.75,140.0,41,0.0,Stimuli/Blank.png,1,2.25,3.0,0,61,61,61,,,,,,,,,,,,,136.76971679999406,0.01971679999405751,2,165.56306290000066,165.56306290000066,165.56306290000066,165.56306290000066,165.56306290000066,165.56306290000066,167.79836529999739,168.54903159999958,165.56306290000066,165.56306290000066,2.64819840000564,003,P018,2025_Mar_07_1758,ConditionRich,2021.2.3,59.942551057761115,
140.0,140.75,22,0.75,Stimuli/P018/things_boat_09s.jpg,0,0.0,0.0,0,62,62,62,,,,,,,,,,,,,140.00615429999743,0.006154299997433554,None,168.81594439999753,168.81594439999753,168.81594439999753,168.81594439999753,168.81594439999753,168.81594439999753,168.81594439999753,168.81594439999753,168.81594439999753,168.81594439999753,,003,P018,2025_Mar_07_1758,ConditionRich,2021.2.3,59.942551057761115,
140.75,144.0,41,0.0,Stimuli/Blank.png,0,0.0,0.0,0,63,63,63,,,,,,,,,,,,,140.77548589999788,0.025485899997875094,None,169.5832878000001,169.5832878000001,169.5832878000001,169.5832878000001,169.5832878000001,169.5832878000001,169.5832878000001,169.5832878000001,169.5832878000001,169.5832878000001,,003,P018,2025_Mar_07_1758,ConditionRich,2021.2.3,59.942551057761115,
144.0,144.75,18,0.75,Stimuli/P018/sun_brrvvswweljrvnlq.jpg,0,0.0,0.0,0,64,64,64,,,,,,,,,,,,,144.0254719000004,0.02547190000041155,None,172.81946450000396,172.81946450000396,172.81946450000396,172.81946450000396,172.81946450000396,172.81946450000396,172.81946450000396,172.81946450000396,172.81946450000396,172.81946450000396,,003,P018,2025_Mar_07_1758,ConditionRich,2021.2.3,59.942551057761115,
144.75,148.0,41,0.0,Stimuli/Blank.png,0,0.0,0.0,0,65,65,65,,,,,,,,,,,,,144.75964639999438,0.009646399994380772,None,173.55344219999824,173.55344219999824,173.55344219999824,173.55344219999824,173.55344219999824,173.55344219999824,173.55344219999824,173.55344219999824,173.55344219999824,173.55344219999824,,003,P018,2025_Mar_07_1758,ConditionRich,2021.2.3,59.942551057761115,
148.0,148.75,8,0.75,Stimuli/P018/sun_axsmqyyvebrcuhkn.jpg,0,0.0,0.0,0,66,66,66,,,,,,,,,,,,,148.01220339999418,0.012203399994177744,None,176.80631490000087,176.80631490000087,176.80631490000087,176.80631490000087,176.80631490000087,176.80631490000087,176.80631490000087,176.80631490000087,176.80631490000087,176.80631490000087,,003,P018,2025_Mar_07_1758,ConditionRich,2021.2.3,59.942551057761115,
148.75,152.0,41,0.0,Stimuli/Blank.png,0,0.0,0.0,0,67,67,67,,,,,,,,,,,,,148.76279809999687,0.012798099996871315,None,177.55705039999884,177.55705039999884,177.55705039999884,177.55705039999884,177.55705039999884,177.55705039999884,177.55705039999884,177.55705039999884,177.55705039999884,177.55705039999884,,003,P018,2025_Mar_07_1758,ConditionRich,2021.2.3,59.942551057761115,
152.0,152.75,21,0.75,Stimuli/P018/things_baby_09s.jpg,0,0.0,0.0,0,68,68,68,,,,,,,,,,,,,152.01570820000052,0.015708200000517536,None,180.80986459999986,180.80986459999986,180.80986459999986,180.80986459999986,180.80986459999986,180.80986459999986,180.80986459999986,180.80986459999986,180.80986459999986,180.80986459999986,,003,P018,2025_Mar_07_1758,ConditionRich,2021.2.3,59.942551057761115,
152.75,156.0,41,0.0,Stimuli/Blank.png,0,0.0,0.0,0,69,69,69,,,,,,,,,,,,,152.75033059999987,0.00033059999987017363,None,181.5438404000015,181.5438404000015,181.5438404000015,181.5438404000015,181.5438404000015,181.5438404000015,181.5438404000015,181.5438404000015,181.5438404000015,181.5438404000015,,003,P018,2025_Mar_07_1758,ConditionRich,2021.2.3,59.942551057761115,
156.0,156.75,1,0.75,Stimuli/P018/sun_aawmwfqqbzauhqkb.jpg,0,0.0,0.0,0,70,70,70,,,,,,,,,,,,,156.00533670000004,0.005336700000043493,None,184.81340400000045,184.81340400000045,184.81340400000045,184.81340400000045,184.81340400000045,184.81340400000045,184.81340400000045,184.81340400000045,184.81340400000045,184.81340400000045,,003,P018,2025_Mar_07_1758,ConditionRich,2021.2.3,59.942551057761115,
156.75,160.0,41,0.0,Stimuli/Blank.png,0,0.0,0.0,0,71,71,71,,,,,,,,,,,,,156.77060060000076,0.020600600000761915,None,185.56406660000357,185.56406660000357,185.56406660000357,185.56406660000357,185.56406660000357,185.56406660000357,185.56406660000357,185.56406660000357,185.56406660000357,185.56406660000357,,003,P018,2025_Mar_07_1758,ConditionRich,2021.2.3,59.942551057761115,
160.0,160.75,28,0.75,Stimuli/P018/things_collar_09s.jpg,0,0.0,0.0,0,72,72,72,,,,,,,,,,,,,160.00721829999384,0.007218299993837718,None,188.81693939999968,188.81693939999968,188.81693939999968,188.81693939999968,188.81693939999968,188.81693939999968,188.81693939999968,188.81693939999968,188.81693939999968,188.81693939999968,,003,P018,2025_Mar_07_1758,ConditionRich,2021.2.3,59.942551057761115,
160.75,164.0,41,0.0,Stimuli/Blank.png,0,0.0,0.0,0,73,73,73,,,,,,,,,,,,,160.77548789999855,0.025487899998552166,None,189.58428540000023,189.58428540000023,189.58428540000023,189.58428540000023,189.58428540000023,189.58428540000023,189.58428540000023,189.58428540000023,189.58428540000023,189.58428540000023,,003,P018,2025_Mar_07_1758,ConditionRich,2021.2.3,59.942551057761115,
164.0,164.75,12,0.75,Stimuli/P018/sun_bhvaiabdgxjuwoth.jpg,0,0.0,0.0,0,74,74,74,,,,,,,,,,,,,164.02717739999935,0.027177399999345653,None,192.8204700999995,192.8204700999995,192.8204700999995,192.8204700999995,192.8204700999995,192.8204700999995,192.8204700999995,192.8204700999995,192.8204700999995,192.8204700999995,,003,P018,2025_Mar_07_1758,ConditionRich,2021.2.3,59.942551057761115,
164.75,168.0,41,0.0,Stimuli/Blank.png,0,0.0,0.0,0,75,75,75,,,,,,,,,,,,,164.76032009999471,0.010320099994714838,None,193.55445460000192,193.55445460000192,193.55445460000192,193.55445460000192,193.55445460000192,193.55445460000192,193.55445460000192,193.55445460000192,193.55445460000192,193.55445460000192,,003,P018,2025_Mar_07_1758,ConditionRich,2021.2.3,59.942551057761115,
168.0,168.75,11,0.75,Stimuli/P018/sun_bdzxsadvniuolmio.jpg,0,0.0,0.0,0,76,76,76,,,,,,,,,,,,,168.01391429999785,0.013914299997850321,None,196.807329700001,196.807329700001,196.807329700001,196.807329700001,196.807329700001,196.807329700001,196.807329700001,196.807329700001,196.807329700001,196.807329700001,,003,P018,2025_Mar_07_1758,ConditionRich,2021.2.3,59.942551057761115,
168.75,172.0,41,0.0,Stimuli/Blank.png,1,1.25,2.0,0,77,77,77,,,,,,,,,,,,,168.76461339999514,0.014613399995141663,2,197.55800389999786,197.55800389999786,197.55800389999786,197.55800389999786,197.55800389999786,197.55800389999786,198.79245470000023,199.54308960000344,197.55800389999786,197.55800389999786,1.6084228000036092,003,P018,2025_Mar_07_1758,ConditionRich,2021.2.3,59.942551057761115,
172.0,172.75,33,0.75,Stimuli/P018/things_lamb_09s.jpg,0,0.0,0.0,0,78,78,78,,,,,,,,,,,,,172.0008125999957,0.0008125999956973828,None,200.8108429999993,200.8108429999993,200.8108429999993,200.8108429999993,200.8108429999993,200.8108429999993,200.8108429999993,200.8108429999993,200.8108429999993,200.8108429999993,,003,P018,2025_Mar_07_1758,ConditionRich,2021.2.3,59.942551057761115,
172.75,176.0,41,0.0,Stimuli/Blank.png,0,0.0,0.0,0,79,79,79,,,,,,,,,,,,,172.76773709999543,0.017737099995429162,None,201.56154219999735,201.56154219999735,201.56154219999735,201.56154219999735,201.56154219999735,201.56154219999735,201.56154219999735,201.56154219999735,201.56154219999735,201.56154219999735,,003,P018,2025_Mar_07_1758,ConditionRich,2021.2.3,59.942551057761115,
176.0,176.75,38,0.75,Stimuli/P018/things_pony_09s.jpg,0,0.0,0.0,0,80,80,80,,,,,,,,,,,,,176.0058194999947,0.005819499994686339,None,204.81442239999888,204.81442239999888,204.81442239999888,204.81442239999888,204.81442239999888,204.81442239999888,204.81442239999888,204.81442239999888,204.81442239999888,204.81442239999888,,003,P018,2025_Mar_07_1758,ConditionRich,2021.2.3,59.942551057761115,
176.75,180.0,41,0.0,Stimuli/Blank.png,0,0.0,0.0,0,81,81,81,,,,,,,,,,,,,176.77154669999436,0.021546699994360097,None,205.56507070000225,205.56507070000225,205.56507070000225,205.56507070000225,205.56507070000225,205.56507070000225,205.56507070000225,205.56507070000225,205.56507070000225,205.56507070000225,,003,P018,2025_Mar_07_1758,ConditionRich,2021.2.3,59.942551057761115,
180.0,196.0,0,0.0,Stimuli/Blank.png,1,3.0,3.75,0,82,82,82,,,,,,,,,,,,,180.00835329999973,0.008353299999726005,2,208.80128169999807,208.80128169999807,208.80128169999807,208.80128169999807,208.80128169999807,208.80128169999807,211.78724440000224,212.53791759999876,208.80128169999807,208.80128169999807,3.3458457000015187,003,P018,2025_Mar_07_1758,ConditionRich,2021.2.3,59.942551057761115,
196.0,196.75,24,0.75,Stimuli/P018/things_breadbox_09s.jpg,0,0.0,0.0,0,83,83,83,,,,,,,,,,,,,196.0059129999936,0.005912999993597623,None,224.81543070000043,224.81543070000043,224.81543070000043,224.81543070000043,224.81543070000043,224.81543070000043,224.81543070000043,224.81543070000043,224.81543070000043,224.81543070000043,,003,P018,2025_Mar_07_1758,ConditionRich,2021.2.3,59.942551057761115,
196.75,200.0,41,0.0,Stimuli/Blank.png,0,0.0,0.0,0,84,84,84,,,,,,,,,,,,,196.77314509999997,0.02314509999996517,None,225.5660957,225.5660957,225.5660957,225.5660957,225.5660957,225.5660957,225.5660957,225.5660957,225.5660957,225.5660957,,003,P018,2025_Mar_07_1758,ConditionRich,2021.2.3,59.942551057761115,
200.0,200.75,8,0.75,Stimuli/P018/sun_axsmqyyvebrcuhkn.jpg,0,0.0,0.0,0,85,85,85,,,,,,,,,,,,,200.01045729999896,0.010457299998961389,None,228.81896840000263,228.81896840000263,228.81896840000263,228.81896840000263,228.81896840000263,228.81896840000263,228.81896840000263,228.81896840000263,228.81896840000263,228.81896840000263,,003,P018,2025_Mar_07_1758,ConditionRich,2021.2.3,59.942551057761115,
200.75,204.0,41,0.0,Stimuli/Blank.png,0,0.0,0.0,0,86,86,86,,,,,,,,,,,,,200.77547729999787,0.02547729999787407,None,229.56963070000347,229.56963070000347,229.56963070000347,229.56963070000347,229.56963070000347,229.56963070000347,229.56963070000347,229.56963070000347,229.56963070000347,229.56963070000347,,003,P018,2025_Mar_07_1758,ConditionRich,2021.2.3,59.942551057761115,
204.0,204.75,7,0.75,Stimuli/P018/sun_auadhqmfjsjtjcue.jpg,0,0.0,0.0,0,87,87,87,,,,,,,,,,,,,204.01278269999602,0.012782699996023439,None,232.80583050000132,232.80583050000132,232.80583050000132,232.80583050000132,232.80583050000132,232.80583050000132,232.80583050000132,232.80583050000132,232.80583050000132,232.80583050000132,,003,P018,2025_Mar_07_1758,ConditionRich,2021.2.3,59.942551057761115,
204.75,208.0,41,0.0,Stimuli/Blank.png,0,0.0,0.0,0,88,88,88,,,,,,,,,,,,,204.7651362999968,0.015136299996811431,None,233.57316910000372,233.57316910000372,233.57316910000372,233.57316910000372,233.57316910000372,233.57316910000372,233.57316910000372,233.57316910000372,233.57316910000372,233.57316910000372,,003,P018,2025_Mar_07_1758,ConditionRich,2021.2.3,59.942551057761115,
208.0,208.75,14,0.75,Stimuli/P018/sun_bljpqnfmmqkjsfvx.jpg,0,0.0,0.0,0,89,89,89,,,,,,,,,,,,,208.01538029999938,0.015380299999378622,None,236.80933399999776,236.80933399999776,236.80933399999776,236.80933399999776,236.80933399999776,236.80933399999776,236.80933399999776,236.80933399999776,236.80933399999776,236.80933399999776,,003,P018,2025_Mar_07_1758,ConditionRich,2021.2.3,59.942551057761115,
208.75,212.0,41,0.0,Stimuli/Blank.png,0,0.0,0.0,0,90,90,90,,,,,,,,,,,,,208.749290199994,-0.0007098000060068443,None,237.54334380000364,237.54334380000364,237.54334380000364,237.54334380000364,237.54334380000364,237.54334380000364,237.54334380000364,237.54334380000364,237.54334380000364,237.54334380000364,,003,P018,2025_Mar_07_1758,ConditionRich,2021.2.3,59.942551057761115,
212.0,212.75,29,0.75,Stimuli/P018/things_face_09s.jpg,0,0.0,0.0,0,91,91,91,,,,,,,,,,,,,212.00224799999705,0.0022479999970528297,None,240.79620720000094,240.79620720000094,240.79620720000094,240.79620720000094,240.79620720000094,240.79620720000094,240.79620720000094,240.79620720000094,240.79620720000094,240.79620720000094,,003,P018,2025_Mar_07_1758,ConditionRich,2021.2.3,59.942551057761115,
212.75,216.0,41,0.0,Stimuli/Blank.png,0,0.0,0.0,0,92,92,92,,,,,,,,,,,,,212.7555332999982,0.005533299998205621,None,241.5635667000024,241.5635667000024,241.5635667000024,241.5635667000024,241.5635667000024,241.5635667000024,241.5635667000024,241.5635667000024,241.5635667000024,241.5635667000024,,003,P018,2025_Mar_07_1758,ConditionRich,2021.2.3,59.942551057761115,
216.0,216.75,33,0.75,Stimuli/P018/things_lamb_09s.jpg,0,0.0,0.0,0,93,93,93,,,,,,,,,,,,,216.02513259999978,0.025132599999778904,None,244.83312509999814,244.83312509999814,244.83312509999814,244.83312509999814,244.83312509999814,244.83312509999814,244.83312509999814,244.83312509999814,244.83312509999814,244.83312509999814,,003,P018,2025_Mar_07_1758,ConditionRich,2021.2.3,59.942551057761115,
216.75,220.0,41,0.0,Stimuli/Blank.png,0,0.0,0.0,0,94,94,94,,,,,,,,,,,,,216.7756573000006,0.025657300000602845,None,245.58378220000304,245.58378220000304,245.58378220000304,245.58378220000304,245.58378220000304,245.58378220000304,245.58378220000304,245.58378220000304,245.58378220000304,245.58378220000304,,003,P018,2025_Mar_07_1758,ConditionRich,2021.2.3,59.942551057761115,
220.0,220.75,20,0.75,Stimuli/P018/sun_buukivvfbfhosrng.jpg,0,0.0,0.0,0,95,95,95,,,,,,,,,,,,,220.02598139999463,0.025981399994634558,None,248.81997550000233,248.81997550000233,248.81997550000233,248.81997550000233,248.81997550000233,248.81997550000233,248.81997550000233,248.81997550000233,248.81997550000233,248.81997550000233,,003,P018,2025_Mar_07_1758,ConditionRich,2021.2.3,59.942551057761115,
220.75,224.0,41,0.0,Stimuli/Blank.png,1,2.25,3.0,0,96,96,96,,,,,,,,,,,,,220.7598519999956,0.009851999995589722,2,249.55396130000008,249.55396130000008,249.55396130000008,249.55396130000008,249.55396130000008,249.55396130000008,251.7892778000023,252.53992650000146,249.55396130000008,249.55396130000008,2.625130200001877,003,P018,2025_Mar_07_1758,ConditionRich,2021.2.3,59.942551057761115,
224.0,224.75,35,0.75,Stimuli/P018/things_lobster_09s.jpg,0,0.0,0.0,0,97,97,97,,,,,,,,,,,,,224.0126719999971,0.012671999997110106,None,252.80683000000136,252.80683000000136,252.80683000000136,252.80683000000136,252.80683000000136,252.80683000000136,252.80683000000136,252.80683000000136,252.80683000000136,252.80683000000136,,003,P018,2025_Mar_07_1758,ConditionRich,2021.2.3,59.942551057761115,
224.75,228.0,41,0.0,Stimuli/Blank.png,0,0.0,0.0,0,98,98,98,,,,,,,,,,,,,224.7636549999952,0.013654999995196704,None,253.55749639999704,253.55749639999704,253.55749639999704,253.55749639999704,253.55749639999704,253.55749639999704,253.55749639999704,253.55749639999704,253.55749639999704,253.55749639999704,,003,P018,2025_Mar_07_1758,ConditionRich,2021.2.3,59.942551057761115,
228.0,228.75,16,0.75,Stimuli/P018/sun_brfwxjsnmauhmfzf.jpg,0,0.0,0.0,0,99,99,99,,,,,,,,,,,,,227.99982610000006,-0.00017389999993611127,None,256.7936838000023,256.7936838000023,256.7936838000023,256.7936838000023,256.7936838000023,256.7936838000023,256.7936838000023,256.7936838000023,256.7936838000023,256.7936838000023,,003,P018,2025_Mar_07_1758,ConditionRich,2021.2.3,59.942551057761115,
228.75,232.0,41,0.0,Stimuli/Blank.png,0,0.0,0.0,0,100,100,100,,,,,,,,,,,,,228.7508807999984,0.0008807999984128401,None,257.544338300002,257.544338300002,257.544338300002,257.544338300002,257.544338300002,257.544338300002,257.544338300002,257.544338300002,257.544338300002,257.544338300002,,003,P018,2025_Mar_07_1758,ConditionRich,2021.2.3,59.942551057761115,
232.0,232.75,10,0.75,Stimuli/P018/sun_bayxprasninnrnle.jpg,0,0.0,0.0,0,101,101,101,,,,,,,,,,,,,232.00504639999417,0.0050463999941712245,None,260.81391260000237,260.81391260000237,260.81391260000237,260.81391260000237,260.81391260000237,260.81391260000237,260.81391260000237,260.81391260000237,260.81391260000237,260.81391260000237,,003,P018,2025_Mar_07_1758,ConditionRich,2021.2.3,59.942551057761115,
232.75,236.0,41,0.0,Stimuli/Blank.png,0,0.0,0.0,0,102,102,102,,,,,,,,,,,,,232.77114159999473,0.02114159999473486,None,261.5645799999984,261.5645799999984,261.5645799999984,261.5645799999984,261.5645799999984,261.5645799999984,261.5645799999984,261.5645799999984,261.5645799999984,261.5645799999984,,003,P018,2025_Mar_07_1758,ConditionRich,2021.2.3,59.942551057761115,
236.0,236.75,30,0.75,Stimuli/P018/things_girl_09s.jpg,0,0.0,0.0,0,103,103,103,,,,,,,,,,,,,236.00674199999776,0.006741999997757375,None,264.80076030000055,264.80076030000055,264.80076030000055,264.80076030000055,264.80076030000055,264.80076030000055,264.80076030000055,264.80076030000055,264.80076030000055,264.80076030000055,,003,P018,2025_Mar_07_1758,ConditionRich,2021.2.3,59.942551057761115,
236.75,240.0,41,0.0,Stimuli/Blank.png,0,0.0,0.0,0,104,104,104,,,,,,,,,,,,,236.75730909999402,0.007309099994017743,None,265.5514278999981,265.5514278999981,265.5514278999981,265.5514278999981,265.5514278999981,265.5514278999981,265.5514278999981,265.5514278999981,265.5514278999981,265.5514278999981,,003,P018,2025_Mar_07_1758,ConditionRich,2021.2.3,59.942551057761115,
240.0,240.75,11,0.75,Stimuli/P018/sun_bdzxsadvniuolmio.jpg,0,0.0,0.0,0,105,105,105,,,,,,,,,,,,,240.01103809999768,0.011038099997676909,None,268.8209513999973,268.8209513999973,268.8209513999973,268.8209513999973,268.8209513999973,268.8209513999973,268.8209513999973,268.8209513999973,268.8209513999973,268.8209513999973,,003,P018,2025_Mar_07_1758,ConditionRich,2021.2.3,59.942551057761115,
240.75,244.0,41,0.0,Stimuli/Blank.png,0,0.0,0.0,0,106,106,106,,,,,,,,,,,,,240.77997089999553,0.029970899995532818,None,269.58834000000206,269.58834000000206,269.58834000000206,269.58834000000206,269.58834000000206,269.58834000000206,269.58834000000206,269.58834000000206,269.58834000000206,269.58834000000206,,003,P018,2025_Mar_07_1758,ConditionRich,2021.2.3,59.942551057761115,
244.0,244.75,12,0.75,Stimuli/P018/sun_bhvaiabdgxjuwoth.jpg,0,0.0,0.0,0,107,107,107,,,,,,,,,,,,,244.0144089999958,0.014408999995794147,None,272.8245261999982,272.8245261999982,272.8245261999982,272.8245261999982,272.8245261999982,272.8245261999982,272.8245261999982,272.8245261999982,272.8245261999982,272.8245261999982,,003,P018,2025_Mar_07_1758,ConditionRich,2021.2.3,59.942551057761115,
244.75,248.0,41,0.0,Stimuli/Blank.png,0,0.0,0.0,0,108,108,108,,,,,,,,,,,,,244.7817733999982,0.03177339999820106,None,273.57516739999846,273.57516739999846,273.57516739999846,273.57516739999846,273.57516739999846,273.57516739999846,273.57516739999846,273.57516739999846,273.57516739999846,273.57516739999846,,003,P018,2025_Mar_07_1758,ConditionRich,2021.2.3,59.942551057761115,
248.0,248.75,19,0.75,Stimuli/P018/sun_brrwzaypucosdcgt.jpg,0,0.0,0.0,0,109,109,109,,,,,,,,,,,,,248.00120049999532,0.0012004999953205697,None,276.811406300003,276.811406300003,276.811406300003,276.811406300003,276.811406300003,276.811406300003,276.811406300003,276.811406300003,276.811406300003,276.811406300003,,003,P018,2025_Mar_07_1758,ConditionRich,2021.2.3,59.942551057761115,
248.75,252.0,41,0.0,Stimuli/Blank.png,1,2.25,3.0,0,110,110,110,,,,,,,,,,,,,248.7699563999995,0.019956399999500718,2,277.5787341000032,277.5787341000032,277.5787341000032,277.5787341000032,277.5787341000032,277.5787341000032,279.81403000000137,280.5646960000013,277.5787341000032,277.5787341000032,2.581390999999712,003,P018,2025_Mar_07_1758,ConditionRich,2021.2.3,59.942551057761115,
252.0,252.75,13,0.75,Stimuli/P018/sun_bizqwyomkqigheyx.jpg,0,0.0,0.0,0,111,111,111,,,,,,,,,,,,,252.0208519000007,0.020851900000707246,None,280.81492080000316,280.81492080000316,280.81492080000316,280.81492080000316,280.81492080000316,280.81492080000316,280.81492080000316,280.81492080000316,280.81492080000316,280.81492080000316,,003,P018,2025_Mar_07_1758,ConditionRich,2021.2.3,59.942551057761115,
252.75,256.0,41,0.0,Stimuli/Blank.png,0,0.0,0.0,0,112,112,112,,,,,,,,,,,,,252.7554158999992,0.005415899999206886,None,281.5489067000017,281.5489067000017,281.5489067000017,281.5489067000017,281.5489067000017,281.5489067000017,281.5489067000017,281.5489067000017,281.5489067000017,281.5489067000017,,003,P018,2025_Mar_07_1758,ConditionRich,2021.2.3,59.942551057761115,
256.0,256.75,37,0.75,Stimuli/P018/things_plastic_film_09s.jpg,0,0.0,0.0,0,113,113,113,,,,,,,,,,,,,256.01221090000035,0.01221090000035474,None,284.81848380000156,284.81848380000156,284.81848380000156,284.81848380000156,284.81848380000156,284.81848380000156,284.81848380000156,284.81848380000156,284.81848380000156,284.81848380000156,,003,P018,2025_Mar_07_1758,ConditionRich,2021.2.3,59.942551057761115,
256.75,260.0,41,0.0,Stimuli/Blank.png,1,0.25,1.0,0,114,114,114,,,,,,,,,,,,,256.7761410999956,0.026141099995584227,2,285.5691287000009,285.5691287000009,285.5691287000009,285.5691287000009,285.5691287000009,285.5691287000009,285.802683300004,286.55331860000297,285.5691287000009,285.5691287000009,0.6609838000003947,003,P018,2025_Mar_07_1758,ConditionRich,2021.2.3,59.942551057761115,
260.0,260.75,21,0.75,Stimuli/P018/things_baby_09s.jpg,0,0.0,0.0,0,115,115,115,,,,,,,,,,,,,260.01243569999497,0.012435699994966853,None,288.8220280000023,288.8220280000023,288.8220280000023,288.8220280000023,288.8220280000023,288.8220280000023,288.8220280000023,288.8220280000023,288.8220280000023,288.8220280000023,,003,P018,2025_Mar_07_1758,ConditionRich,2021.2.3,59.942551057761115,
260.75,264.0,41,0.0,Stimuli/Blank.png,0,0.0,0.0,0,116,116,116,,,,,,,,,,,,,260.7806450999997,0.03064509999967413,None,289.58934859999863,289.58934859999863,289.58934859999863,289.58934859999863,289.58934859999863,289.58934859999863,289.58934859999863,289.58934859999863,289.58934859999863,289.58934859999863,,003,P018,2025_Mar_07_1758,ConditionRich,2021.2.3,59.942551057761115,
264.0,264.75,9,0.75,Stimuli/P018/sun_ayidxslzurdumeps.jpg,0,0.0,0.0,0,117,117,117,,,,,,,,,,,,,264.01589269999386,0.015892699993855786,None,292.825560199999,292.825560199999,292.825560199999,292.825560199999,292.825560199999,292.825560199999,292.825560199999,292.825560199999,292.825560199999,292.825560199999,,003,P018,2025_Mar_07_1758,ConditionRich,2021.2.3,59.942551057761115,
264.75,268.0,41,0.0,Stimuli/Blank.png,0,0.0,0.0,0,118,118,118,,,,,,,,,,,,,264.7661309999967,0.01613099999667611,None,293.5596065999998,293.5596065999998,293.5596065999998,293.5596065999998,293.5596065999998,293.5596065999998,293.5596065999998,293.5596065999998,293.5596065999998,293.5596065999998,,003,P018,2025_Mar_07_1758,ConditionRich,2021.2.3,59.942551057761115,
268.0,268.75,32,0.75,Stimuli/P018/things_horse_09s.jpg,0,0.0,0.0,0,119,119,119,,,,,,,,,,,,,268.00171659999614,0.0017165999961434864,None,296.79567569999926,296.79567569999926,296.79567569999926,296.79567569999926,296.79567569999926,296.79567569999926,296.79567569999926,296.79567569999926,296.79567569999926,296.79567569999926,,003,P018,2025_Mar_07_1758,ConditionRich,2021.2.3,59.942551057761115,
268.75,272.0,41,0.0,Stimuli/Blank.png,1,0.25,1.0,0,120,120,120,,,,,,,,,,,,,268.7530071000001,0.0030071000001044013,2,297.54648050000105,297.54648050000105,297.54648050000105,297.54648050000105,297.54648050000105,297.54648050000105,297.7799567999973,298.53057830000034,297.54648050000105,297.54648050000105,0.6165757999988273,003,P018,2025_Mar_07_1758,ConditionRich,2021.2.3,59.942551057761115,
272.0,272.75,38,0.75,Stimuli/P018/things_pony_09s.jpg,0,0.0,0.0,0,121,121,121,,,,,,,,,,,,,272.006100599996,0.006100599995988887,None,300.8159491999977,300.8159491999977,300.8159491999977,300.8159491999977,300.8159491999977,300.8159491999977,300.8159491999977,300.8159491999977,300.8159491999977,300.8159491999977,,003,P018,2025_Mar_07_1758,ConditionRich,2021.2.3,59.942551057761115,
272.75,276.0,41,0.0,Stimuli/Blank.png,0,0.0,0.0,0,122,122,122,,,,,,,,,,,,,272.7751614000008,0.025161400000797585,None,301.58329129999765,301.58329129999765,301.58329129999765,301.58329129999765,301.58329129999765,301.58329129999765,301.58329129999765,301.58329129999765,301.58329129999765,301.58329129999765,,003,P018,2025_Mar_07_1758,ConditionRich,2021.2.3,59.942551057761115,
276.0,292.0,0,0.0,Stimuli/Blank.png,1,5.0,5.75,0,123,123,123,,,,,,,,,,,,,276.02691739999864,0.026917399998637848,2,304.8194769000038,304.8194769000038,304.8194769000038,304.8194769000038,304.8194769000038,304.8194769000038,309.8072116999974,310.5578722999999,304.8194769000038,304.8194769000038,5.378756699996302,003,P018,2025_Mar_07_1758,ConditionRich,2021.2.3,59.942551057761115,
292.0,292.75,27,0.75,Stimuli/P018/things_coffin_09s.jpg,1,0.0,0.75,0,124,124,124,,,,,,,,,,,,,292.0070892999938,0.007089299993822351,2,320.80025990000286,320.80025990000286,320.80025990000286,320.80025990000286,320.80025990000286,320.80025990000286,320.80025990000286,321.5342462999979,320.80025990000286,320.80025990000286,0.3401549999980489,003,P018,2025_Mar_07_1758,ConditionRich,2021.2.3,59.942551057761115,
292.75,296.0,41,0.0,Stimuli/Blank.png,0,0.0,0.0,0,125,125,125,,,,,,,,,,,,,292.75728459999664,0.007284599996637553,None,321.55102420000185,321.55102420000185,321.55102420000185,321.55102420000185,321.55102420000185,321.55102420000185,321.55102420000185,321.55102420000185,321.55102420000185,321.55102420000185,,003,P018,2025_Mar_07_1758,ConditionRich,2021.2.3,59.942551057761115,
296.0,296.75,31,0.75,Stimuli/P018/things_highchair_09s.jpg,0,0.0,0.0,0,126,126,126,,,,,,,,,,,,,296.0103777999975,0.010377799997513648,None,324.8205653000041,324.8205653000041,324.8205653000041,324.8205653000041,324.8205653000041,324.8205653000041,324.8205653000041,324.8205653000041,324.8205653000041,324.8205653000041,,003,P018,2025_Mar_07_1758,ConditionRich,2021.2.3,59.942551057761115,
296.75,300.0,41,0.0,Stimuli/Blank.png,0,0.0,0.0,0,127,127,127,,,,,,,,,,,,,296.77999909999926,0.02999909999925876,None,325.5878964000003,325.5878964000003,325.5878964000003,325.5878964000003,325.5878964000003,325.5878964000003,325.5878964000003,325.5878964000003,325.5878964000003,325.5878964000003,,003,P018,2025_Mar_07_1758,ConditionRich,2021.2.3,59.942551057761115,
300.0,300.75,17,0.75,Stimuli/P018/sun_brhndfjxyigqgiwl.jpg,0,0.0,0.0,0,128,128,128,,,,,,,,,,,,,300.01457339999615,0.014573399996152148,None,328.8240322999991,328.8240322999991,328.8240322999991,328.8240322999991,328.8240322999991,328.8240322999991,328.8240322999991,328.8240322999991,328.8240322999991,328.8240322999991,,003,P018,2025_Mar_07_1758,ConditionRich,2021.2.3,59.942551057761115,
300.75,304.0,41,0.0,Stimuli/Blank.png,0,0.0,0.0,0,129,129,129,,,,,,,,,,,,,300.7808143000002,0.03081430000020191,None,329.574803800002,329.574803800002,329.574803800002,329.574803800002,329.574803800002,329.574803800002,329.574803800002,329.574803800002,329.574803800002,329.574803800002,,003,P018,2025_Mar_07_1758,ConditionRich,2021.2.3,59.942551057761115,
304.0,304.75,2,0.75,Stimuli/P018/sun_acliytrpktltxwsx.jpg,0,0.0,0.0,0,130,130,130,,,,,,,,,,,,,304.0001045999961,0.00010459999612066895,None,332.79419770000095,332.79419770000095,332.79419770000095,332.79419770000095,332.79419770000095,332.79419770000095,332.79419770000095,332.79419770000095,332.79419770000095,332.79419770000095,,003,P018,2025_Mar_07_1758,ConditionRich,2021.2.3,59.942551057761115,
304.75,308.0,41,0.0,Stimuli/Blank.png,0,0.0,0.0,0,131,131,131,,,,,,,,,,,,,304.7508000999951,0.0008000999951036647,None,333.5448689000041,333.5448689000041,333.5448689000041,333.5448689000041,333.5448689000041,333.5448689000041,333.5448689000041,333.5448689000041,333.5448689000041,333.5448689000041,,003,P018,2025_Mar_07_1758,ConditionRich,2021.2.3,59.942551057761115,
308.0,308.75,26,0.75,Stimuli/P018/things_chandelier_09s.jpg,0,0.0,0.0,0,132,132,132,,,,,,,,,,,,,308.00449639999715,0.004496399997151457,None,336.81442850000167,336.81442850000167,336.81442850000167,336.81442850000167,336.81442850000167,336.81442850000167,336.81442850000167,336.81442850000167,336.81442850000167,336.81442850000167,,003,P018,2025_Mar_07_1758,ConditionRich,2021.2.3,59.942551057761115,
308.75,312.0,41,0.0,Stimuli/Blank.png,0,0.0,0.0,0,133,133,133,,,,,,,,,,,,,308.7709426999936,0.020942699993611313,None,337.565076699997,337.565076699997,337.565076699997,337.565076699997,337.565076699997,337.565076699997,337.565076699997,337.565076699997,337.565076699997,337.565076699997,,003,P018,2025_Mar_07_1758,ConditionRich,2021.2.3,59.942551057761115,
312.0,312.75,15,0.75,Stimuli/P018/sun_bobznlnnzwznersx.jpg,0,0.0,0.0,0,134,134,134,,,,,,,,,,,,,312.01041899999836,0.010418999998364598,None,340.81796040000336,340.81796040000336,340.81796040000336,340.81796040000336,340.81796040000336,340.81796040000336,340.81796040000336,340.81796040000336,340.81796040000336,340.81796040000336,,003,P018,2025_Mar_07_1758,ConditionRich,2021.2.3,59.942551057761115,
312.75,316.0,41,0.0,Stimuli/Blank.png,0,0.0,0.0,0,135,135,135,,,,,,,,,,,,,312.7750730999978,0.02507309999782592,None,341.5686130000031,341.5686130000031,341.5686130000031,341.5686130000031,341.5686130000031,341.5686130000031,341.5686130000031,341.5686130000031,341.5686130000031,341.5686130000031,,003,P018,2025_Mar_07_1758,ConditionRich,2021.2.3,59.942551057761115,
316.0,316.75,28,0.75,Stimuli/P018/things_collar_09s.jpg,0,0.0,0.0,0,136,136,136,,,,,,,,,,,,,316.01092129999597,0.010921299995970912,None,344.80481000000145,344.80481000000145,344.80481000000145,344.80481000000145,344.80481000000145,344.80481000000145,344.80481000000145,344.80481000000145,344.80481000000145,344.80481000000145,,003,P018,2025_Mar_07_1758,ConditionRich,2021.2.3,59.942551057761115,
316.75,320.0,41,0.0,Stimuli/Blank.png,0,0.0,0.0,0,137,137,137,,,,,,,,,,,,,316.7612889999946,0.011288999994576443,None,345.5554695000028,345.5554695000028,345.5554695000028,345.5554695000028,345.5554695000028,345.5554695000028,345.5554695000028,345.5554695000028,345.5554695000028,345.5554695000028,,003,P018,2025_Mar_07_1758,ConditionRich,2021.2.3,59.942551057761115,
320.0,320.75,39,0.75,Stimuli/P018/things_veil_09s.jpg,0,0.0,0.0,0,138,138,138,,,,,,,,,,,,,320.015845599999,0.01584559999901103,None,348.82504060000065,348.82504060000065,348.82504060000065,348.82504060000065,348.82504060000065,348.82504060000065,348.82504060000065,348.82504060000065,348.82504060000065,348.82504060000065,,003,P018,2025_Mar_07_1758,ConditionRich,2021.2.3,59.942551057761115,
320.75,324.0,41,0.0,Stimuli/Blank.png,0,0.0,0.0,0,139,139,139,,,,,,,,,,,,,320.76548669999465,0.015486699994653463,None,349.55901260000246,349.55901260000246,349.55901260000246,349.55901260000246,349.55901260000246,349.55901260000246,349.55901260000246,349.55901260000246,349.55901260000246,349.55901260000246,,003,P018,2025_Mar_07_1758,ConditionRich,2021.2.3,59.942551057761115,
324.0,324.75,4,0.75,Stimuli/P018/sun_aibvvqlmlsjnrgdj.jpg,0,0.0,0.0,0,140,140,140,,,,,,,,,,,,,324.0011394999965,0.0011394999964977615,None,352.7952015999981,352.7952015999981,352.7952015999981,352.7952015999981,352.7952015999981,352.7952015999981,352.7952015999981,352.7952015999981,352.7952015999981,352.7952015999981,,003,P018,2025_Mar_07_1758,ConditionRich,2021.2.3,59.942551057761115,
324.75,328.0,41,0.0,Stimuli/Blank.png,0,0.0,0.0,0,141,141,141,,,,,,,,,,,,,324.75238510000054,0.002385100000537932,None,353.545861700004,353.545861700004,353.545861700004,353.545861700004,353.545861700004,353.545861700004,353.545861700004,353.545861700004,353.545861700004,353.545861700004,,003,P018,2025_Mar_07_1758,ConditionRich,2021.2.3,59.942551057761115,
328.0,328.75,36,0.75,Stimuli/P018/things_nest_09s.jpg,0,0.0,0.0,0,142,142,142,,,,,,,,,,,,,328.00534009999683,0.00534009999682894,None,356.7987412000002,356.7987412000002,356.7987412000002,356.7987412000002,356.7987412000002,356.7987412000002,356.7987412000002,356.7987412000002,356.7987412000002,356.7987412000002,,003,P018,2025_Mar_07_1758,ConditionRich,2021.2.3,59.942551057761115,
328.75,332.0,41,0.0,Stimuli/Blank.png,1,1.25,2.0,0,143,143,143,,,,,,,,,,,,,328.75548269999854,0.00548269999853801,2,357.54940850000276,357.54940850000276,357.54940850000276,357.54940850000276,357.54940850000276,357.54940850000276,358.783832000001,359.534510999998,357.54940850000276,357.54940850000276,1.624861399999645,003,P018,2025_Mar_07_1758,ConditionRich,2021.2.3,59.942551057761115,
332.0,332.75,22,0.75,Stimuli/P018/things_boat_09s.jpg,0,0.0,0.0,0,144,144,144,,,,,,,,,,,,,332.0099323999966,0.00993239999661455,None,360.8189654000016,360.8189654000016,360.8189654000016,360.8189654000016,360.8189654000016,360.8189654000016,360.8189654000016,360.8189654000016,360.8189654000016,360.8189654000016,,003,P018,2025_Mar_07_1758,ConditionRich,2021.2.3,59.942551057761115,
332.75,336.0,41,0.0,Stimuli/Blank.png,0,0.0,0.0,0,145,145,145,,,,,,,,,,,,,332.77558249999856,0.025582499998563435,None,361.5696293000001,361.5696293000001,361.5696293000001,361.5696293000001,361.5696293000001,361.5696293000001,361.5696293000001,361.5696293000001,361.5696293000001,361.5696293000001,,003,P018,2025_Mar_07_1758,ConditionRich,2021.2.3,59.942551057761115,
336.0,336.75,18,0.75,Stimuli/P018/sun_brrvvswweljrvnlq.jpg,0,0.0,0.0,0,146,146,146,,,,,,,,,,,,,336.0121005999972,0.012100599997211248,None,364.82250329999806,364.82250329999806,364.82250329999806,364.82250329999806,364.82250329999806,364.82250329999806,364.82250329999806,364.82250329999806,364.82250329999806,364.82250329999806,,003,P018,2025_Mar_07_1758,ConditionRich,2021.2.3,59.942551057761115,
336.75,340.0,41,0.0,Stimuli/Blank.png,1,1.25,2.0,0,147,147,147,,,,,,,,,,,,,336.77998300000036,0.029983000000356697,2,365.5731789999991,365.5731789999991,365.5731789999991,365.5731789999991,365.5731789999991,365.5731789999991,366.80758349999815,367.55825860000186,365.5731789999991,365.5731789999991,1.6109852000008686,003,P018,2025_Mar_07_1758,ConditionRich,2021.2.3,59.942551057761115,
340.0,340.75,3,0.75,Stimuli/P018/sun_acymmczhyuiimeub.jpg,0,0.0,0.0,0,148,148,148,,,,,,,,,,,,,340.0006616999963,0.0006616999962716363,None,368.8093721000041,368.8093721000041,368.8093721000041,368.8093721000041,368.8093721000041,368.8093721000041,368.8093721000041,368.8093721000041,368.8093721000041,368.8093721000041,,003,P018,2025_Mar_07_1758,ConditionRich,2021.2.3,59.942551057761115,
340.75,344.0,41,0.0,Stimuli/Blank.png,1,2.25,3.0,0,149,149,149,,,,,,,,,,,,,340.76672300000064,0.01672300000063842,2,369.56002140000055,369.56002140000055,369.56002140000055,369.56002140000055,369.56002140000055,369.56002140000055,371.7953789000021,372.545987700003,369.56002140000055,369.56002140000055,2.553090699999302,003,P018,2025_Mar_07_1758,ConditionRich,2021.2.3,59.942551057761115,
344.0,344.75,23,0.75,Stimuli/P018/things_boy_09s.jpg,0,0.0,0.0,0,150,150,150,,,,,,,,,,,,,344.00213559999975,0.0021355999997467734,None,372.7962081000005,372.7962081000005,372.7962081000005,372.7962081000005,372.7962081000005,372.7962081000005,372.7962081000005,372.7962081000005,372.7962081000005,372.7962081000005,,003,P018,2025_Mar_07_1758,ConditionRich,2021.2.3,59.942551057761115,
344.75,348.0,41,0.0,Stimuli/Blank.png,0,0.0,0.0,0,151,151,151,,,,,,,,,,,,,344.7562537999984,0.006253799998376053,None,373.5635842999982,373.5635842999982,373.5635842999982,373.5635842999982,373.5635842999982,373.5635842999982,373.5635842999982,373.5635842999982,373.5635842999982,373.5635842999982,,003,P018,2025_Mar_07_1758,ConditionRich,2021.2.3,59.942551057761115,
348.0,348.75,5,0.75,Stimuli/P018/sun_apojgqgvdvsksdvo.jpg,0,0.0,0.0,0,152,152,152,,,,,,,,,,,,,348.02527839999675,0.025278399996750522,None,376.83312509999814,376.83312509999814,376.83312509999814,376.83312509999814,376.83312509999814,376.83312509999814,376.83312509999814,376.83312509999814,376.83312509999814,376.83312509999814,,003,P018,2025_Mar_07_1758,ConditionRich,2021.2.3,59.942551057761115,
348.75,352.0,41,0.0,Stimuli/Blank.png,0,0.0,0.0,0,153,153,153,,,,,,,,,,,,,348.77522229999886,0.025222299998858944,None,377.5837833999976,377.5837833999976,377.5837833999976,377.5837833999976,377.5837833999976,377.5837833999976,377.5837833999976,377.5837833999976,377.5837833999976,377.5837833999976,,003,P018,2025_Mar_07_1758,ConditionRich,2021.2.3,59.942551057761115,
352.0,352.75,25,0.75,Stimuli/P018/things_cannonball_09s.jpg,0,0.0,0.0,0,154,154,154,,,,,,,,,,,,,352.0265097999945,0.026509799994528294,None,380.81997579999734,380.81997579999734,380.81997579999734,380.81997579999734,380.81997579999734,380.81997579999734,380.81997579999734,380.81997579999734,380.81997579999734,380.81997579999734,,003,P018,2025_Mar_07_1758,ConditionRich,2021.2.3,59.942551057761115,
352.75,356.0,41,0.0,Stimuli/Blank.png,0,0.0,0.0,0,155,155,155,,,,,,,,,,,,,352.75978739999846,0.009787399998458568,None,381.5539675999971,381.5539675999971,381.5539675999971,381.5539675999971,381.5539675999971,381.5539675999971,381.5539675999971,381.5539675999971,381.5539675999971,381.5539675999971,,003,P018,2025_Mar_07_1758,ConditionRich,2021.2.3,59.942551057761115,
356.0,356.75,6,0.75,Stimuli/P018/sun_atuyvunnykjurjgx.jpg,0,0.0,0.0,0,156,156,156,,,,,,,,,,,,,356.0128148999938,0.012814899993827567,None,384.8068252000012,384.8068252000012,384.8068252000012,384.8068252000012,384.8068252000012,384.8068252000012,384.8068252000012,384.8068252000012,384.8068252000012,384.8068252000012,,003,P018,2025_Mar_07_1758,ConditionRich,2021.2.3,59.942551057761115,
356.75,360.0,41,0.0,Stimuli/Blank.png,0,0.0,0.0,0,157,157,157,,,,,,,,,,,,,356.7653470000005,0.015347000000474509,None,385.57418999999936,385.57418999999936,385.57418999999936,385.57418999999936,385.57418999999936,385.57418999999936,385.57418999999936,385.57418999999936,385.57418999999936,385.57418999999936,,003,P018,2025_Mar_07_1758,ConditionRich,2021.2.3,59.942551057761115,
360.0,360.75,40,0.75,Stimuli/P018/things_woman_09s.jpg,1,0.0,0.75,0,158,158,158,,,,,,,,,,,,,360.0162937999994,0.016293799999402836,2,388.81036770000355,388.81036770000355,388.81036770000355,388.81036770000355,388.81036770000355,388.81036770000355,388.81036770000355,None,388.81036770000355,388.81036770000355,0.43279679999977816,003,P018,2025_Mar_07_1758,ConditionRich,2021.2.3,59.942551057761115,
360.75,364.0,41,0.0,Stimuli/Blank.png,0,0.0,0.0,0,159,159,159,,,,,,,,,,,,,360.75259430000006,0.0025943000000552274,None,389.54436839999835,389.54436839999835,389.54436839999835,389.54436839999835,389.54436839999835,389.54436839999835,389.54436839999835,389.54436839999835,389.54436839999835,389.54436839999835,,003,P018,2025_Mar_07_1758,ConditionRich,2021.2.3,59.942551057761115,
364.0,364.75,34,0.75,Stimuli/P018/things_llama_09s.jpg,0,0.0,0.0,0,160,160,160,,,,,,,,,,,,,364.00536160000047,0.00536160000046948,None,392.81393399999797,392.81393399999797,392.81393399999797,392.81393399999797,392.81393399999797,392.81393399999797,392.81393399999797,392.81393399999797,392.81393399999797,392.81393399999797,,003,P018,2025_Mar_07_1758,ConditionRich,2021.2.3,59.942551057761115,
364.75,368.0,41,0.0,Stimuli/Blank.png,0,0.0,0.0,0,161,161,161,,,,,,,,,,,,,364.77150399999664,0.021503999996639322,None,393.56457180000143,393.56457180000143,393.56457180000143,393.56457180000143,393.56457180000143,393.56457180000143,393.56457180000143,393.56457180000143,393.56457180000143,393.56457180000143,,003,P018,2025_Mar_07_1758,ConditionRich,2021.2.3,59.942551057761115,
368.0,368.75,1,0.75,Stimuli/P018/sun_aawmwfqqbzauhqkb.jpg,0,0.0,0.0,0,162,162,162,,,,,,,,,,,,,368.0074642999971,0.00746429999708198,None,396.817463600004,396.817463600004,396.817463600004,396.817463600004,396.817463600004,396.817463600004,396.817463600004,396.817463600004,396.817463600004,396.817463600004,,003,P018,2025_Mar_07_1758,ConditionRich,2021.2.3,59.942551057761115,
368.75,372.0,41,0.0,Stimuli/Blank.png,0,0.0,0.0,0,163,163,163,,,,,,,,,,,,,368.77495599999384,0.024955999993835576,None,397.5681224,397.5681224,397.5681224,397.5681224,397.5681224,397.5681224,397.5681224,397.5681224,397.5681224,397.5681224,,003,P018,2025_Mar_07_1758,ConditionRich,2021.2.3,59.942551057761115,
372.0,388.0,0,0.0,Stimuli/Blank.png,1,12.0,12.75,0,164,164,164,,,,,,,,,,,,,372.01021149999724,0.010211499997240026,2,400.8043103000018,400.8043103000018,400.8043103000018,400.8043103000018,400.8043103000018,400.8043103000018,412.7815530000007,413.53223669999716,400.8043103000018,400.8043103000018,12.362918600003468,003,P018,2025_Mar_07_1758,ConditionRich,2021.2.3,59.942551057761115,
