eventStartTime,eventEndTime,eventCond,imSize,imFile,responseEvent,fixRespStart,fixRespEnd,Events.thisRepN,Events.thisTrialN,Events.thisN,Events.thisIndex,Instructions.started,Instructions.stopped,participantReadyResponse.keys,participantReadyResponse.rt,participantReadyResponse.started,participantReadyResponse.stopped,startWaitforTrigger,triggerResponse.keys,triggerResponse.rt,triggerResponse.started,triggerResponse.stopped,globalTimer,actualStartTime,startTimingDiff,participantResponse.keys,participantResponse.started,participantResponse.stopped,image.started,image.stopped,fixationOutside.started,fixationOutside.stopped,fixationResponse.started,fixationResponse.stopped,fixationInside.started,fixationInside.stopped,participantResponse.rt,session,participant,date,expName,psychopyVersion,frameRate,
,,,,,,,,,,,,11.285766799999692,None,2,2.2958662000019103,11.285766799999692,None,,,,,,,,,,,,,,,,,,,,,007,P018,2025_Mar_07_1839,ConditionRich,2021.2.3,59.94553348876264,
,,,,,,,,,,,,,,,,,,13.592097399996419,5,15.463203400002385,13.605410399999528,None,,,,,,,,,,,,,,,,007,P018,2025_Mar_07_1839,ConditionRich,2021.2.3,59.94553348876264,
0.0,4.0,0,0.0,Stimuli/Blank.png,0,0,0.0,0,0,0,0,,,,,,,,,,,,29.07325629999832,0.032499599998118356,0.032499599998118356,None,29.119122999996762,None,29.119122999996762,None,29.119122999996762,None,29.119122999996762,29.119122999996762,29.119122999996762,None,,007,P018,2025_Mar_07_1839,ConditionRich,2021.2.3,59.94553348876264,
4.0,7.75,39,0.75,Stimuli/P018/things_veil_09s.jpg,0,0,0.0,0,1,1,1,,,,,,,,,,,,,4.00205989999813,0.002059899998130277,None,33.08957969999756,33.08957969999756,33.08957969999756,33.08957969999756,33.08957969999756,33.08957969999756,33.08957969999756,33.08957969999756,33.08957969999756,33.08957969999756,,007,P018,2025_Mar_07_1839,ConditionRich,2021.2.3,59.94553348876264,
7.75,8.0,41,0.0,Stimuli/Blank.png,0,0,0.0,0,2,2,2,,,,,,,,,,,,,7.755396299995482,0.005396299995481968,None,36.842909499995585,36.842909499995585,36.842909499995585,36.842909499995585,36.842909499995585,36.842909499995585,36.842909499995585,36.842909499995585,36.842909499995585,36.842909499995585,,007,P018,2025_Mar_07_1839,ConditionRich,2021.2.3,59.94553348876264,
8.0,11.75,17,0.75,Stimuli/P018/sun_brhndfjxyigqgiwl.jpg,0,0,0.0,0,3,3,3,,,,,,,,,,,,,8.005776999998488,0.0057769999984884635,None,37.10951699999714,37.10951699999714,37.10951699999714,37.10951699999714,37.10951699999714,37.10951699999714,37.10951699999714,37.10951699999714,37.10951699999714,37.10951699999714,,007,P018,2025_Mar_07_1839,ConditionRich,2021.2.3,59.94553348876264,
11.75,12.0,41,0.0,Stimuli/Blank.png,0,0,0.0,0,4,4,4,,,,,,,,,,,,,11.775016899999173,0.025016899999172892,None,40.8628122999944,40.8628122999944,40.8628122999944,40.8628122999944,40.8628122999944,40.8628122999944,40.8628122999944,40.8628122999944,40.8628122999944,40.8628122999944,,007,P018,2025_Mar_07_1839,ConditionRich,2021.2.3,59.94553348876264,
12.0,15.75,8,0.75,Stimuli/P018/sun_axsmqyyvebrcuhkn.jpg,1,3,3.75,0,5,5,5,,,,,,,,,,,,,12.00936169999477,0.009361699994769879,None,41.09637880000082,41.09637880000082,41.09637880000082,41.09637880000082,41.09637880000082,41.09637880000082,44.08235199999763,44.833004000000074,41.09637880000082,41.09637880000082,,007,P018,2025_Mar_07_1839,ConditionRich,2021.2.3,59.94553348876264,
15.75,16.0,41,0.0,Stimuli/Blank.png,0,0,0.0,0,6,6,6,,,,,,,,,,,,,15.762452799994207,0.012452799994207453,None,44.84967109999707,44.84967109999707,44.84967109999707,44.84967109999707,44.84967109999707,44.84967109999707,44.84967109999707,44.84967109999707,44.84967109999707,44.84967109999707,,007,P018,2025_Mar_07_1839,ConditionRich,2021.2.3,59.94553348876264,
16.0,19.75,26,0.75,Stimuli/P018/things_chandelier_09s.jpg,0,0,0.0,0,7,7,7,,,,,,,,,,,,,16.012781699995685,0.012781699995684903,None,45.0999182999949,45.0999182999949,45.0999182999949,45.0999182999949,45.0999182999949,45.0999182999949,45.0999182999949,45.0999182999949,45.0999182999949,45.0999182999949,,007,P018,2025_Mar_07_1839,ConditionRich,2021.2.3,59.94553348876264,
19.75,20.0,41,0.0,Stimuli/Blank.png,0,0,0.0,0,8,8,8,,,,,,,,,,,,,19.750346299995726,0.0003462999957264401,None,48.83656599999813,48.83656599999813,48.83656599999813,48.83656599999813,48.83656599999813,48.83656599999813,48.83656599999813,48.83656599999813,48.83656599999813,48.83656599999813,,007,P018,2025_Mar_07_1839,ConditionRich,2021.2.3,59.94553348876264,
20.0,23.75,32,0.75,Stimuli/P018/things_horse_09s.jpg,0,0,0.0,0,9,9,9,,,,,,,,,,,,,20.001721599997836,0.0017215999978361651,None,49.103457499993965,49.103457499993965,49.103457499993965,49.103457499993965,49.103457499993965,49.103457499993965,49.103457499993965,49.103457499993965,49.103457499993965,49.103457499993965,,007,P018,2025_Mar_07_1839,ConditionRich,2021.2.3,59.94553348876264,
23.75,24.0,41,0.0,Stimuli/Blank.png,0,0,0.0,0,10,10,10,,,,,,,,,,,,,23.771917799997027,0.021917799997027032,None,52.87345509999432,52.87345509999432,52.87345509999432,52.87345509999432,52.87345509999432,52.87345509999432,52.87345509999432,52.87345509999432,52.87345509999432,52.87345509999432,,007,P018,2025_Mar_07_1839,ConditionRich,2021.2.3,59.94553348876264,
24.0,27.75,2,0.75,Stimuli/P018/sun_acliytrpktltxwsx.jpg,0,0,0.0,0,11,11,11,,,,,,,,,,,,,24.02185599999939,0.021855999999388587,None,53.12368569999671,53.12368569999671,53.12368569999671,53.12368569999671,53.12368569999671,53.12368569999671,53.12368569999671,53.12368569999671,53.12368569999671,53.12368569999671,,007,P018,2025_Mar_07_1839,ConditionRich,2021.2.3,59.94553348876264,
27.75,28.0,41,0.0,Stimuli/Blank.png,0,0,0.0,0,12,12,12,,,,,,,,,,,,,27.77322599999752,0.023225999997521285,None,56.860401300000376,56.860401300000376,56.860401300000376,56.860401300000376,56.860401300000376,56.860401300000376,56.860401300000376,56.860401300000376,56.860401300000376,56.860401300000376,,007,P018,2025_Mar_07_1839,ConditionRich,2021.2.3,59.94553348876264,
28.0,31.75,30,0.75,Stimuli/P018/things_girl_09s.jpg,0,0,0.0,0,13,13,13,,,,,,,,,,,,,28.006850999998278,0.0068509999982779846,None,57.110538000000815,57.110538000000815,57.110538000000815,57.110538000000815,57.110538000000815,57.110538000000815,57.110538000000815,57.110538000000815,57.110538000000815,57.110538000000815,,007,P018,2025_Mar_07_1839,ConditionRich,2021.2.3,59.94553348876264,
31.75,32.0,41,0.0,Stimuli/Blank.png,0,0,0.0,0,14,14,14,,,,,,,,,,,,,31.776096499997948,0.02609649999794783,None,60.863850800000364,60.863850800000364,60.863850800000364,60.863850800000364,60.863850800000364,60.863850800000364,60.863850800000364,60.863850800000364,60.863850800000364,60.863850800000364,,007,P018,2025_Mar_07_1839,ConditionRich,2021.2.3,59.94553348876264,
32.0,35.75,4,0.75,Stimuli/P018/sun_aibvvqlmlsjnrgdj.jpg,0,0,0.0,0,15,15,15,,,,,,,,,,,,,32.01011350000044,0.01011350000044331,None,61.09738759999891,61.09738759999891,61.09738759999891,61.09738759999891,61.09738759999891,61.09738759999891,61.09738759999891,61.09738759999891,61.09738759999891,61.09738759999891,,007,P018,2025_Mar_07_1839,ConditionRich,2021.2.3,59.94553348876264,
35.75,36.0,41,0.0,Stimuli/Blank.png,0,0,0.0,0,16,16,16,,,,,,,,,,,,,35.76352159999806,0.013521599998057354,None,64.85072479999508,64.85072479999508,64.85072479999508,64.85072479999508,64.85072479999508,64.85072479999508,64.85072479999508,64.85072479999508,64.85072479999508,64.85072479999508,,007,P018,2025_Mar_07_1839,ConditionRich,2021.2.3,59.94553348876264,
36.0,39.75,34,0.75,Stimuli/P018/things_llama_09s.jpg,0,0,0.0,0,17,17,17,,,,,,,,,,,,,36.01574719999917,0.015747199999168515,None,65.11761999999726,65.11761999999726,65.11761999999726,65.11761999999726,65.11761999999726,65.11761999999726,65.11761999999726,65.11761999999726,65.11761999999726,65.11761999999726,,007,P018,2025_Mar_07_1839,ConditionRich,2021.2.3,59.94553348876264,
39.75,40.0,41,0.0,Stimuli/Blank.png,0,0,0.0,0,18,18,18,,,,,,,,,,,,,39.76635299999907,0.01635299999907147,None,68.8542512999993,68.8542512999993,68.8542512999993,68.8542512999993,68.8542512999993,68.8542512999993,68.8542512999993,68.8542512999993,68.8542512999993,68.8542512999993,,007,P018,2025_Mar_07_1839,ConditionRich,2021.2.3,59.94553348876264,
40.0,43.75,25,0.75,Stimuli/P018/things_cannonball_09s.jpg,1,3,3.75,0,19,19,19,,,,,,,,,,,,,40.00061619999906,0.0006161999990581535,2,69.08775649999734,69.08775649999734,69.08775649999734,69.08775649999734,69.08775649999734,69.08775649999734,72.07376139999542,72.82448099999601,69.08775649999734,69.08775649999734,3.3447770999991917,007,P018,2025_Mar_07_1839,ConditionRich,2021.2.3,59.94553348876264,
43.75,44.0,41,0.0,Stimuli/Blank.png,0,0,0.0,0,20,20,20,,,,,,,,,,,,,43.75434569999925,0.004345699999248609,None,72.84111899999698,72.84111899999698,72.84111899999698,72.84111899999698,72.84111899999698,72.84111899999698,72.84111899999698,72.84111899999698,72.84111899999698,72.84111899999698,,007,P018,2025_Mar_07_1839,ConditionRich,2021.2.3,59.94553348876264,
44.0,47.75,16,0.75,Stimuli/P018/sun_brfwxjsnmauhmfzf.jpg,0,0,0.0,0,21,21,21,,,,,,,,,,,,,44.00364879999688,0.00364879999688128,None,73.10801820000052,73.10801820000052,73.10801820000052,73.10801820000052,73.10801820000052,73.10801820000052,73.10801820000052,73.10801820000052,73.10801820000052,73.10801820000052,,007,P018,2025_Mar_07_1839,ConditionRich,2021.2.3,59.94553348876264,
47.75,48.0,41,0.0,Stimuli/Blank.png,0,0,0.0,0,22,22,22,,,,,,,,,,,,,47.7759178999986,0.02591789999860339,None,76.87802050000028,76.87802050000028,76.87802050000028,76.87802050000028,76.87802050000028,76.87802050000028,76.87802050000028,76.87802050000028,76.87802050000028,76.87802050000028,,007,P018,2025_Mar_07_1839,ConditionRich,2021.2.3,59.94553348876264,
48.0,51.75,19,0.75,Stimuli/P018/sun_brrwzaypucosdcgt.jpg,1,3,3.75,0,23,23,23,,,,,,,,,,,,,48.02388619999692,0.023886199996923096,2,77.12825519999751,77.12825519999751,77.12825519999751,77.12825519999751,77.12825519999751,77.12825519999751,80.0975088999985,80.84822399999393,77.12825519999751,77.12825519999751,3.3923682999957236,007,P018,2025_Mar_07_1839,ConditionRich,2021.2.3,59.94553348876264,
51.75,52.0,41,0.0,Stimuli/Blank.png,0,0,0.0,0,24,24,24,,,,,,,,,,,,,51.778293600000325,0.02829360000032466,None,80.8648761000004,80.8648761000004,80.8648761000004,80.8648761000004,80.8648761000004,80.8648761000004,80.8648761000004,80.8648761000004,80.8648761000004,80.8648761000004,,007,P018,2025_Mar_07_1839,ConditionRich,2021.2.3,59.94553348876264,
52.0,55.75,36,0.75,Stimuli/P018/things_nest_09s.jpg,0,0,0.0,0,25,25,25,,,,,,,,,,,,,52.01061089999712,0.010610899997118395,None,81.09840469999472,81.09840469999472,81.09840469999472,81.09840469999472,81.09840469999472,81.09840469999472,81.09840469999472,81.09840469999472,81.09840469999472,81.09840469999472,,007,P018,2025_Mar_07_1839,ConditionRich,2021.2.3,59.94553348876264,
55.75,56.0,41,0.0,Stimuli/Blank.png,0,0,0.0,0,26,26,26,,,,,,,,,,,,,55.765572699994664,0.015572699994663708,None,84.85174239999469,84.85174239999469,84.85174239999469,84.85174239999469,84.85174239999469,84.85174239999469,84.85174239999469,84.85174239999469,84.85174239999469,84.85174239999469,,007,P018,2025_Mar_07_1839,ConditionRich,2021.2.3,59.94553348876264,
56.0,59.75,12,0.75,Stimuli/P018/sun_bhvaiabdgxjuwoth.jpg,0,0,0.0,0,27,27,27,,,,,,,,,,,,,55.99820379999437,-0.0017962000056286342,None,85.10193040000013,85.10193040000013,85.10193040000013,85.10193040000013,85.10193040000013,85.10193040000013,85.10193040000013,85.10193040000013,85.10193040000013,85.10193040000013,,007,P018,2025_Mar_07_1839,ConditionRich,2021.2.3,59.94553348876264,
59.75,60.0,41,0.0,Stimuli/Blank.png,0,0,0.0,0,28,28,28,,,,,,,,,,,,,59.76843779999763,0.018437799997627735,None,88.85530830000062,88.85530830000062,88.85530830000062,88.85530830000062,88.85530830000062,88.85530830000062,88.85530830000062,88.85530830000062,88.85530830000062,88.85530830000062,,007,P018,2025_Mar_07_1839,ConditionRich,2021.2.3,59.94553348876264,
60.0,63.75,7,0.75,Stimuli/P018/sun_auadhqmfjsjtjcue.jpg,0,0,0.0,0,29,29,29,,,,,,,,,,,,,60.00196099999448,0.0019609999944805168,None,89.10544289999962,89.10544289999962,89.10544289999962,89.10544289999962,89.10544289999962,89.10544289999962,89.10544289999962,89.10544289999962,89.10544289999962,89.10544289999962,,007,P018,2025_Mar_07_1839,ConditionRich,2021.2.3,59.94553348876264,
63.75,64.0,41,0.0,Stimuli/Blank.png,0,0,0.0,0,30,30,30,,,,,,,,,,,,,63.77214399999502,0.022143999995023478,None,92.85881309999968,92.85881309999968,92.85881309999968,92.85881309999968,92.85881309999968,92.85881309999968,92.85881309999968,92.85881309999968,92.85881309999968,92.85881309999968,,007,P018,2025_Mar_07_1839,ConditionRich,2021.2.3,59.94553348876264,
64.0,67.75,9,0.75,Stimuli/P018/sun_ayidxslzurdumeps.jpg,0,0,0.0,0,31,31,31,,,,,,,,,,,,,64.00520939999842,0.0052093999984208494,None,93.10903239999607,93.10903239999607,93.10903239999607,93.10903239999607,93.10903239999607,93.10903239999607,93.10903239999607,93.10903239999607,93.10903239999607,93.10903239999607,,007,P018,2025_Mar_07_1839,ConditionRich,2021.2.3,59.94553348876264,
67.75,68.0,41,0.0,Stimuli/Blank.png,0,0,0.0,0,32,32,32,,,,,,,,,,,,,67.77730529999826,0.027305299998261034,None,96.87904179999896,96.87904179999896,96.87904179999896,96.87904179999896,96.87904179999896,96.87904179999896,96.87904179999896,96.87904179999896,96.87904179999896,96.87904179999896,,007,P018,2025_Mar_07_1839,ConditionRich,2021.2.3,59.94553348876264,
68.0,71.75,11,0.75,Stimuli/P018/sun_bdzxsadvniuolmio.jpg,1,2,2.75,0,33,33,33,,,,,,,,,,,,,68.02472549999948,0.024725499999476597,2,97.11256349999894,97.11256349999894,97.11256349999894,97.11256349999894,97.11256349999894,97.11256349999894,99.09764589999395,99.84831219999614,97.11256349999894,97.11256349999894,2.349029299999529,007,P018,2025_Mar_07_1839,ConditionRich,2021.2.3,59.94553348876264,
71.75,72.0,41,0.0,Stimuli/Blank.png,0,0,0.0,0,34,34,34,,,,,,,,,,,,,71.76205349999509,0.012053499995090533,None,100.85001889999694,100.85001889999694,100.85001889999694,100.85001889999694,100.85001889999694,100.85001889999694,100.85001889999694,100.85001889999694,100.85001889999694,100.85001889999694,,007,P018,2025_Mar_07_1839,ConditionRich,2021.2.3,59.94553348876264,
72.0,75.75,3,0.75,Stimuli/P018/sun_acymmczhyuiimeub.jpg,0,0,0.0,0,35,35,35,,,,,,,,,,,,,72.01187119999668,0.011871199996676296,None,101.09946140000102,101.09946140000102,101.09946140000102,101.09946140000102,101.09946140000102,101.09946140000102,101.09946140000102,101.09946140000102,101.09946140000102,101.09946140000102,,007,P018,2025_Mar_07_1839,ConditionRich,2021.2.3,59.94553348876264,
75.75,76.0,41,0.0,Stimuli/Blank.png,0,0,0.0,0,36,36,36,,,,,,,,,,,,,75.76574619999883,0.01574619999882998,None,104.85274539999955,104.85274539999955,104.85274539999955,104.85274539999955,104.85274539999955,104.85274539999955,104.85274539999955,104.85274539999955,104.85274539999955,104.85274539999955,,007,P018,2025_Mar_07_1839,ConditionRich,2021.2.3,59.94553348876264,
76.0,79.75,13,0.75,Stimuli/P018/sun_bizqwyomkqigheyx.jpg,0,0,0.0,0,37,37,37,,,,,,,,,,,,,76.0011841999949,0.0011841999948956072,None,105.1029869999984,105.1029869999984,105.1029869999984,105.1029869999984,105.1029869999984,105.1029869999984,105.1029869999984,105.1029869999984,105.1029869999984,105.1029869999984,,007,P018,2025_Mar_07_1839,ConditionRich,2021.2.3,59.94553348876264,
79.75,80.0,41,0.0,Stimuli/Blank.png,0,0,0.0,0,38,38,38,,,,,,,,,,,,,79.77146569999604,0.02146569999604253,None,108.87296190000052,108.87296190000052,108.87296190000052,108.87296190000052,108.87296190000052,108.87296190000052,108.87296190000052,108.87296190000052,108.87296190000052,108.87296190000052,,007,P018,2025_Mar_07_1839,ConditionRich,2021.2.3,59.94553348876264,
80.0,83.75,35,0.75,Stimuli/P018/things_lobster_09s.jpg,0,0,0.0,0,39,39,39,,,,,,,,,,,,,80.01915879999433,0.019158799994329456,None,109.1232084000003,109.1232084000003,109.1232084000003,109.1232084000003,109.1232084000003,109.1232084000003,109.1232084000003,109.1232084000003,109.1232084000003,109.1232084000003,,007,P018,2025_Mar_07_1839,ConditionRich,2021.2.3,59.94553348876264,
83.75,84.0,41,0.0,Stimuli/Blank.png,0,0,0.0,0,40,40,40,,,,,,,,,,,,,83.7728266999984,0.022826699998404365,None,112.85982610000065,112.85982610000065,112.85982610000065,112.85982610000065,112.85982610000065,112.85982610000065,112.85982610000065,112.85982610000065,112.85982610000065,112.85982610000065,,007,P018,2025_Mar_07_1839,ConditionRich,2021.2.3,59.94553348876264,
84.0,100.0,0,0.0,Stimuli/Blank.png,1,9,9.75,0,41,41,41,,,,,,,,,,,,,84.00575329999992,0.005753299999923911,2,113.09331539999403,113.09331539999403,113.09331539999403,113.09331539999403,113.09331539999403,113.09331539999403,122.08467269999528,122.83529559999442,113.09331539999403,113.09331539999403,9.821305700002995,007,P018,2025_Mar_07_1839,ConditionRich,2021.2.3,59.94553348876264,
100.0,103.75,5,0.75,Stimuli/P018/sun_apojgqgvdvsksdvo.jpg,0,0,0.0,0,42,42,42,,,,,,,,,,,,,100.00373369999579,0.0037336999957915395,None,129.0907831000004,129.0907831000004,129.0907831000004,129.0907831000004,129.0907831000004,129.0907831000004,129.0907831000004,129.0907831000004,129.0907831000004,129.0907831000004,,007,P018,2025_Mar_07_1839,ConditionRich,2021.2.3,59.94553348876264,
103.75,104.0,41,0.0,Stimuli/Blank.png,0,0,0.0,0,43,43,43,,,,,,,,,,,,,103.75691349999397,0.006913499993970618,None,132.84415609999996,132.84415609999996,132.84415609999996,132.84415609999996,132.84415609999996,132.84415609999996,132.84415609999996,132.84415609999996,132.84415609999996,132.84415609999996,,007,P018,2025_Mar_07_1839,ConditionRich,2021.2.3,59.94553348876264,
104.0,107.75,6,0.75,Stimuli/P018/sun_atuyvunnykjurjgx.jpg,1,2,2.75,0,44,44,44,,,,,,,,,,,,,104.00692499999423,0.0069249999942258,2,133.09432730000117,133.09432730000117,133.09432730000117,133.09432730000117,133.09432730000117,133.09432730000117,135.07944829999906,135.83016189999762,133.09432730000117,133.09432730000117,2.3603495999996085,007,P018,2025_Mar_07_1839,ConditionRich,2021.2.3,59.94553348876264,
107.75,108.0,41,0.0,Stimuli/Blank.png,0,0,0.0,0,45,45,45,,,,,,,,,,,,,107.76077149999765,0.010771499997645151,None,136.84769749999396,136.84769749999396,136.84769749999396,136.84769749999396,136.84769749999396,136.84769749999396,136.84769749999396,136.84769749999396,136.84769749999396,136.84769749999396,,007,P018,2025_Mar_07_1839,ConditionRich,2021.2.3,59.94553348876264,
108.0,111.75,21,0.75,Stimuli/P018/things_baby_09s.jpg,0,0,0.0,0,46,46,46,,,,,,,,,,,,,108.01129930000025,0.011299300000246149,None,137.09840289999556,137.09840289999556,137.09840289999556,137.09840289999556,137.09840289999556,137.09840289999556,137.09840289999556,137.09840289999556,137.09840289999556,137.09840289999556,,007,P018,2025_Mar_07_1839,ConditionRich,2021.2.3,59.94553348876264,
111.75,112.0,41,0.0,Stimuli/Blank.png,0,0,0.0,0,47,47,47,,,,,,,,,,,,,111.76578609999706,0.015786099997058045,None,140.867909099994,140.867909099994,140.867909099994,140.867909099994,140.867909099994,140.867909099994,140.867909099994,140.867909099994,140.867909099994,140.867909099994,,007,P018,2025_Mar_07_1839,ConditionRich,2021.2.3,59.94553348876264,
112.0,115.75,33,0.75,Stimuli/P018/things_lamb_09s.jpg,0,0,0.0,0,48,48,48,,,,,,,,,,,,,112.0149037999945,0.014903799994499423,None,141.11812289999943,141.11812289999943,141.11812289999943,141.11812289999943,141.11812289999943,141.11812289999943,141.11812289999943,141.11812289999943,141.11812289999943,141.11812289999943,,007,P018,2025_Mar_07_1839,ConditionRich,2021.2.3,59.94553348876264,
115.75,116.0,41,0.0,Stimuli/Blank.png,0,0,0.0,0,49,49,49,,,,,,,,,,,,,115.76687690000108,0.016876900001079775,None,144.8547524999958,144.8547524999958,144.8547524999958,144.8547524999958,144.8547524999958,144.8547524999958,144.8547524999958,144.8547524999958,144.8547524999958,144.8547524999958,,007,P018,2025_Mar_07_1839,ConditionRich,2021.2.3,59.94553348876264,
116.0,119.75,37,0.75,Stimuli/P018/things_plastic_film_09s.jpg,1,2,2.75,0,50,50,50,,,,,,,,,,,,,116.00170179999986,0.0017017999998643063,2,145.10500189999584,145.10500189999584,145.10500189999584,145.10500189999584,145.10500189999584,145.10500189999584,147.07338769999478,147.824108599998,145.10500189999584,145.10500189999584,2.401607799998601,007,P018,2025_Mar_07_1839,ConditionRich,2021.2.3,59.94553348876264,
119.75,120.0,41,0.0,Stimuli/Blank.png,0,0,0.0,0,51,51,51,,,,,,,,,,,,,119.77138389999891,0.021383899998909328,None,148.8583032999959,148.8583032999959,148.8583032999959,148.8583032999959,148.8583032999959,148.8583032999959,148.8583032999959,148.8583032999959,148.8583032999959,148.8583032999959,,007,P018,2025_Mar_07_1839,ConditionRich,2021.2.3,59.94553348876264,
120.0,123.75,15,0.75,Stimuli/P018/sun_bobznlnnzwznersx.jpg,0,0,0.0,0,52,52,52,,,,,,,,,,,,,120.00610549999692,0.006105499996920116,None,149.108533300001,149.108533300001,149.108533300001,149.108533300001,149.108533300001,149.108533300001,149.108533300001,149.108533300001,149.108533300001,149.108533300001,,007,P018,2025_Mar_07_1839,ConditionRich,2021.2.3,59.94553348876264,
123.75,124.0,41,0.0,Stimuli/Blank.png,0,0,0.0,0,53,53,53,,,,,,,,,,,,,123.77477009999711,0.024770099997112993,None,152.86188050000055,152.86188050000055,152.86188050000055,152.86188050000055,152.86188050000055,152.86188050000055,152.86188050000055,152.86188050000055,152.86188050000055,152.86188050000055,,007,P018,2025_Mar_07_1839,ConditionRich,2021.2.3,59.94553348876264,
124.0,127.75,29,0.75,Stimuli/P018/things_face_09s.jpg,0,0,0.0,0,54,54,54,,,,,,,,,,,,,124.00870600000053,0.008706000000529457,None,153.11206569999922,153.11206569999922,153.11206569999922,153.11206569999922,153.11206569999922,153.11206569999922,153.11206569999922,153.11206569999922,153.11206569999922,153.11206569999922,,007,P018,2025_Mar_07_1839,ConditionRich,2021.2.3,59.94553348876264,
127.75,128.0,41,0.0,Stimuli/Blank.png,0,0,0.0,0,55,55,55,,,,,,,,,,,,,127.77802859999792,0.028028599997924175,None,156.86537179999868,156.86537179999868,156.86537179999868,156.86537179999868,156.86537179999868,156.86537179999868,156.86537179999868,156.86537179999868,156.86537179999868,156.86537179999868,,007,P018,2025_Mar_07_1839,ConditionRich,2021.2.3,59.94553348876264,
128.0,131.75,18,0.75,Stimuli/P018/sun_brrvvswweljrvnlq.jpg,0,0,0.0,0,56,56,56,,,,,,,,,,,,,128.0118599999987,0.011859999998705462,None,157.1156153999982,157.1156153999982,157.1156153999982,157.1156153999982,157.1156153999982,157.1156153999982,157.1156153999982,157.1156153999982,157.1156153999982,157.1156153999982,,007,P018,2025_Mar_07_1839,ConditionRich,2021.2.3,59.94553348876264,
131.75,132.0,41,0.0,Stimuli/Blank.png,0,0,0.0,0,57,57,57,,,,,,,,,,,,,131.78171450000082,0.03171450000081677,None,160.86892229999648,160.86892229999648,160.86892229999648,160.86892229999648,160.86892229999648,160.86892229999648,160.86892229999648,160.86892229999648,160.86892229999648,160.86892229999648,,007,P018,2025_Mar_07_1839,ConditionRich,2021.2.3,59.94553348876264,
132.0,135.75,40,0.75,Stimuli/P018/things_woman_09s.jpg,0,0,0.0,0,58,58,58,,,,,,,,,,,,,132.01533099999506,0.015330999995057937,None,161.10245779999968,161.10245779999968,161.10245779999968,161.10245779999968,161.10245779999968,161.10245779999968,161.10245779999968,161.10245779999968,161.10245779999968,161.10245779999968,,007,P018,2025_Mar_07_1839,ConditionRich,2021.2.3,59.94553348876264,
135.75,136.0,41,0.0,Stimuli/Blank.png,0,0,0.0,0,59,59,59,,,,,,,,,,,,,135.7519637000005,0.0019637000004877336,None,164.83908909999445,164.83908909999445,164.83908909999445,164.83908909999445,164.83908909999445,164.83908909999445,164.83908909999445,164.83908909999445,164.83908909999445,164.83908909999445,,007,P018,2025_Mar_07_1839,ConditionRich,2021.2.3,59.94553348876264,
136.0,139.75,31,0.75,Stimuli/P018/things_highchair_09s.jpg,0,0,0.0,0,60,60,60,,,,,,,,,,,,,136.00225579999824,0.002255799998238217,None,165.08927199999744,165.08927199999744,165.08927199999744,165.08927199999744,165.08927199999744,165.08927199999744,165.08927199999744,165.08927199999744,165.08927199999744,165.08927199999744,,007,P018,2025_Mar_07_1839,ConditionRich,2021.2.3,59.94553348876264,
139.75,140.0,41,0.0,Stimuli/Blank.png,0,0,0.0,0,61,61,61,,,,,,,,,,,,,139.75619609999558,0.006196099995577242,None,168.84264429999894,168.84264429999894,168.84264429999894,168.84264429999894,168.84264429999894,168.84264429999894,168.84264429999894,168.84264429999894,168.84264429999894,168.84264429999894,,007,P018,2025_Mar_07_1839,ConditionRich,2021.2.3,59.94553348876264,
140.0,143.75,1,0.75,Stimuli/P018/sun_aawmwfqqbzauhqkb.jpg,0,0,0.0,0,62,62,62,,,,,,,,,,,,,140.00673670000106,0.006736700001056306,None,169.1095370999974,169.1095370999974,169.1095370999974,169.1095370999974,169.1095370999974,169.1095370999974,169.1095370999974,169.1095370999974,169.1095370999974,169.1095370999974,,007,P018,2025_Mar_07_1839,ConditionRich,2021.2.3,59.94553348876264,
143.75,144.0,41,0.0,Stimuli/Blank.png,0,0,0.0,0,63,63,63,,,,,,,,,,,,,143.77654289999919,0.026542899999185465,None,172.87953500000003,172.87953500000003,172.87953500000003,172.87953500000003,172.87953500000003,172.87953500000003,172.87953500000003,172.87953500000003,172.87953500000003,172.87953500000003,,007,P018,2025_Mar_07_1839,ConditionRich,2021.2.3,59.94553348876264,
144.0,147.75,22,0.75,Stimuli/P018/things_boat_09s.jpg,0,0,0.0,0,64,64,64,,,,,,,,,,,,,144.02585869999893,0.025858699998934753,None,173.11307409999426,173.11307409999426,173.11307409999426,173.11307409999426,173.11307409999426,173.11307409999426,173.11307409999426,173.11307409999426,173.11307409999426,173.11307409999426,,007,P018,2025_Mar_07_1839,ConditionRich,2021.2.3,59.94553348876264,
147.75,148.0,41,0.0,Stimuli/Blank.png,0,0,0.0,0,65,65,65,,,,,,,,,,,,,147.7617936999959,0.011793699995905627,None,176.84971409999707,176.84971409999707,176.84971409999707,176.84971409999707,176.84971409999707,176.84971409999707,176.84971409999707,176.84971409999707,176.84971409999707,176.84971409999707,,007,P018,2025_Mar_07_1839,ConditionRich,2021.2.3,59.94553348876264,
148.0,151.75,28,0.75,Stimuli/P018/things_collar_09s.jpg,0,0,0.0,0,66,66,66,,,,,,,,,,,,,148.01274429999467,0.012744299994665198,None,177.09993140000006,177.09993140000006,177.09993140000006,177.09993140000006,177.09993140000006,177.09993140000006,177.09993140000006,177.09993140000006,177.09993140000006,177.09993140000006,,007,P018,2025_Mar_07_1839,ConditionRich,2021.2.3,59.94553348876264,
151.75,152.0,41,0.0,Stimuli/Blank.png,0,0,0.0,0,67,67,67,,,,,,,,,,,,,151.75084519999655,0.0008451999965473078,None,180.8532653000002,180.8532653000002,180.8532653000002,180.8532653000002,180.8532653000002,180.8532653000002,180.8532653000002,180.8532653000002,180.8532653000002,180.8532653000002,,007,P018,2025_Mar_07_1839,ConditionRich,2021.2.3,59.94553348876264,
152.0,155.75,27,0.75,Stimuli/P018/things_coffin_09s.jpg,0,0,0.0,0,68,68,68,,,,,,,,,,,,,152.01644020000094,0.01644020000094315,None,181.1034673999966,181.1034673999966,181.1034673999966,181.1034673999966,181.1034673999966,181.1034673999966,181.1034673999966,181.1034673999966,181.1034673999966,181.1034673999966,,007,P018,2025_Mar_07_1839,ConditionRich,2021.2.3,59.94553348876264,
155.75,156.0,41,0.0,Stimuli/Blank.png,0,0,0.0,0,69,69,69,,,,,,,,,,,,,155.75236489999952,0.0023648999995202757,None,184.84010370000033,184.84010370000033,184.84010370000033,184.84010370000033,184.84010370000033,184.84010370000033,184.84010370000033,184.84010370000033,184.84010370000033,184.84010370000033,,007,P018,2025_Mar_07_1839,ConditionRich,2021.2.3,59.94553348876264,
156.0,159.75,20,0.75,Stimuli/P018/sun_buukivvfbfhosrng.jpg,0,0,0.0,0,70,70,70,,,,,,,,,,,,,156.00262349999684,0.002623499996843748,None,185.09033199999976,185.09033199999976,185.09033199999976,185.09033199999976,185.09033199999976,185.09033199999976,185.09033199999976,185.09033199999976,185.09033199999976,185.09033199999976,,007,P018,2025_Mar_07_1839,ConditionRich,2021.2.3,59.94553348876264,
159.75,160.0,41,0.0,Stimuli/Blank.png,0,0,0.0,0,71,71,71,,,,,,,,,,,,,159.75642789999984,0.006427899999835063,None,188.8436565000011,188.8436565000011,188.8436565000011,188.8436565000011,188.8436565000011,188.8436565000011,188.8436565000011,188.8436565000011,188.8436565000011,188.8436565000011,,007,P018,2025_Mar_07_1839,ConditionRich,2021.2.3,59.94553348876264,
160.0,163.75,38,0.75,Stimuli/P018/things_pony_09s.jpg,0,0,0.0,0,72,72,72,,,,,,,,,,,,,160.00686660000065,0.006866600000648759,None,189.1105499999976,189.1105499999976,189.1105499999976,189.1105499999976,189.1105499999976,189.1105499999976,189.1105499999976,189.1105499999976,189.1105499999976,189.1105499999976,,007,P018,2025_Mar_07_1839,ConditionRich,2021.2.3,59.94553348876264,
163.75,164.0,41,0.0,Stimuli/Blank.png,0,0,0.0,0,73,73,73,,,,,,,,,,,,,163.77763779999805,0.02763779999804683,None,192.86387969999487,192.86387969999487,192.86387969999487,192.86387969999487,192.86387969999487,192.86387969999487,192.86387969999487,192.86387969999487,192.86387969999487,192.86387969999487,,007,P018,2025_Mar_07_1839,ConditionRich,2021.2.3,59.94553348876264,
164.0,167.75,10,0.75,Stimuli/P018/sun_bayxprasninnrnle.jpg,1,1,1.75,0,74,74,74,,,,,,,,,,,,,164.01242259999708,0.012422599997080397,2,193.11411550000048,193.11411550000048,193.11411550000048,193.11411550000048,193.11411550000048,193.11411550000048,194.08164810000017,194.83223390000057,193.11411550000048,193.11411550000048,1.3105656000043382,007,P018,2025_Mar_07_1839,ConditionRich,2021.2.3,59.94553348876264,
167.75,168.0,41,0.0,Stimuli/Blank.png,0,0,0.0,0,75,75,75,,,,,,,,,,,,,167.7631437999953,0.013143799995305017,None,196.8507307999971,196.8507307999971,196.8507307999971,196.8507307999971,196.8507307999971,196.8507307999971,196.8507307999971,196.8507307999971,196.8507307999971,196.8507307999971,,007,P018,2025_Mar_07_1839,ConditionRich,2021.2.3,59.94553348876264,
168.0,171.75,14,0.75,Stimuli/P018/sun_bljpqnfmmqkjsfvx.jpg,0,0,0.0,0,76,76,76,,,,,,,,,,,,,168.01309619999665,0.013096199996653013,None,197.10093649999908,197.10093649999908,197.10093649999908,197.10093649999908,197.10093649999908,197.10093649999908,197.10093649999908,197.10093649999908,197.10093649999908,197.10093649999908,,007,P018,2025_Mar_07_1839,ConditionRich,2021.2.3,59.94553348876264,
171.75,172.0,41,0.0,Stimuli/Blank.png,0,0,0.0,0,77,77,77,,,,,,,,,,,,,171.7496930999987,-0.0003069000013056211,None,200.8376225999964,200.8376225999964,200.8376225999964,200.8376225999964,200.8376225999964,200.8376225999964,200.8376225999964,200.8376225999964,200.8376225999964,200.8376225999964,,007,P018,2025_Mar_07_1839,ConditionRich,2021.2.3,59.94553348876264,
172.0,175.75,24,0.75,Stimuli/P018/things_breadbox_09s.jpg,0,0,0.0,0,78,78,78,,,,,,,,,,,,,172.00003640000068,3.640000068116933e-05,None,201.08779369999684,201.08779369999684,201.08779369999684,201.08779369999684,201.08779369999684,201.08779369999684,201.08779369999684,201.08779369999684,201.08779369999684,201.08779369999684,,007,P018,2025_Mar_07_1839,ConditionRich,2021.2.3,59.94553348876264,
175.75,176.0,41,0.0,Stimuli/Blank.png,0,0,0.0,0,79,79,79,,,,,,,,,,,,,175.75582049999502,0.005820499995024875,None,204.85782449999533,204.85782449999533,204.85782449999533,204.85782449999533,204.85782449999533,204.85782449999533,204.85782449999533,204.85782449999533,204.85782449999533,204.85782449999533,,007,P018,2025_Mar_07_1839,ConditionRich,2021.2.3,59.94553348876264,
176.0,179.75,23,0.75,Stimuli/P018/things_boy_09s.jpg,1,1,1.75,0,80,80,80,,,,,,,,,,,,,176.02117970000108,0.02117970000108471,2,205.1080301999973,205.1080301999973,205.1080301999973,205.1080301999973,205.1080301999973,205.1080301999973,206.0922528999945,206.84290519999922,205.1080301999973,205.1080301999973,1.3906470000001718,007,P018,2025_Mar_07_1839,ConditionRich,2021.2.3,59.94553348876264,
179.75,180.0,41,0.0,Stimuli/Blank.png,0,0,0.0,0,81,81,81,,,,,,,,,,,,,179.75706589999754,0.007065899997542147,None,208.84465600000112,208.84465600000112,208.84465600000112,208.84465600000112,208.84465600000112,208.84465600000112,208.84465600000112,208.84465600000112,208.84465600000112,208.84465600000112,,007,P018,2025_Mar_07_1839,ConditionRich,2021.2.3,59.94553348876264,
180.0,196.0,0,0.0,Stimuli/Blank.png,1,5,5.75,0,82,82,82,,,,,,,,,,,,,180.00767590000032,0.0076759000003221445,2,209.0948916999987,209.0948916999987,209.0948916999987,209.0948916999987,209.0948916999987,209.0948916999987,214.08262090000062,214.83328970000002,209.0948916999987,209.0948916999987,5.40494139999646,007,P018,2025_Mar_07_1839,ConditionRich,2021.2.3,59.94553348876264,
196.0,199.75,20,0.75,Stimuli/P018/sun_buukivvfbfhosrng.jpg,0,0,0.0,0,83,83,83,,,,,,,,,,,,,196.00676469999598,0.006764699995983392,None,225.1090677999964,225.1090677999964,225.1090677999964,225.1090677999964,225.1090677999964,225.1090677999964,225.1090677999964,225.1090677999964,225.1090677999964,225.1090677999964,,007,P018,2025_Mar_07_1839,ConditionRich,2021.2.3,59.94553348876264,
199.75,200.0,41,0.0,Stimuli/Blank.png,0,0,0.0,0,84,84,84,,,,,,,,,,,,,199.77530229999684,0.025302299996837974,None,228.86237569999503,228.86237569999503,228.86237569999503,228.86237569999503,228.86237569999503,228.86237569999503,228.86237569999503,228.86237569999503,228.86237569999503,228.86237569999503,,007,P018,2025_Mar_07_1839,ConditionRich,2021.2.3,59.94553348876264,
200.0,203.75,32,0.75,Stimuli/P018/things_horse_09s.jpg,1,3,3.75,0,85,85,85,,,,,,,,,,,,,200.00811119999707,0.008111199997074436,2,229.1126168999981,229.1126168999981,229.1126168999981,229.1126168999981,229.1126168999981,229.1126168999981,232.08189429999766,232.8325313999958,229.1126168999981,229.1126168999981,3.3571271000037086,007,P018,2025_Mar_07_1839,ConditionRich,2021.2.3,59.94553348876264,
203.75,204.0,41,0.0,Stimuli/Blank.png,0,0,0.0,0,86,86,86,,,,,,,,,,,,,203.77927519999503,0.029275199995026924,None,232.86590639999486,232.86590639999486,232.86590639999486,232.86590639999486,232.86590639999486,232.86590639999486,232.86590639999486,232.86590639999486,232.86590639999486,232.86590639999486,,007,P018,2025_Mar_07_1839,ConditionRich,2021.2.3,59.94553348876264,
204.0,207.75,1,0.75,Stimuli/P018/sun_aawmwfqqbzauhqkb.jpg,0,0,0.0,0,87,87,87,,,,,,,,,,,,,204.01172529999894,0.011725299998943228,None,233.0994353999995,233.0994353999995,233.0994353999995,233.0994353999995,233.0994353999995,233.0994353999995,233.0994353999995,233.0994353999995,233.0994353999995,233.0994353999995,,007,P018,2025_Mar_07_1839,ConditionRich,2021.2.3,59.94553348876264,
207.75,208.0,41,0.0,Stimuli/Blank.png,0,0,0.0,0,88,88,88,,,,,,,,,,,,,207.76497099999688,0.014970999996876344,None,236.85274919999938,236.85274919999938,236.85274919999938,236.85274919999938,236.85274919999938,236.85274919999938,236.85274919999938,236.85274919999938,236.85274919999938,236.85274919999938,,007,P018,2025_Mar_07_1839,ConditionRich,2021.2.3,59.94553348876264,
208.0,211.75,38,0.75,Stimuli/P018/things_pony_09s.jpg,0,0,0.0,0,89,89,89,,,,,,,,,,,,,208.01641709999967,0.016417099999671336,None,237.11970419999852,237.11970419999852,237.11970419999852,237.11970419999852,237.11970419999852,237.11970419999852,237.11970419999852,237.11970419999852,237.11970419999852,237.11970419999852,,007,P018,2025_Mar_07_1839,ConditionRich,2021.2.3,59.94553348876264,
211.75,212.0,41,0.0,Stimuli/Blank.png,0,0,0.0,0,90,90,90,,,,,,,,,,,,,211.76854009999806,0.018540099998062942,None,240.85629060000065,240.85629060000065,240.85629060000065,240.85629060000065,240.85629060000065,240.85629060000065,240.85629060000065,240.85629060000065,240.85629060000065,240.85629060000065,,007,P018,2025_Mar_07_1839,ConditionRich,2021.2.3,59.94553348876264,
212.0,215.75,18,0.75,Stimuli/P018/sun_brrvvswweljrvnlq.jpg,1,3,3.75,0,91,91,91,,,,,,,,,,,,,212.00270949999685,0.0027094999968539923,2,241.0898343999943,241.0898343999943,241.0898343999943,241.0898343999943,241.0898343999943,241.0898343999943,244.07580510000116,244.82645929999853,241.0898343999943,241.0898343999943,3.33174660000077,007,P018,2025_Mar_07_1839,ConditionRich,2021.2.3,59.94553348876264,
215.75,216.0,41,0.0,Stimuli/Blank.png,0,0,0.0,0,92,92,92,,,,,,,,,,,,,215.75598669999454,0.005986699994537048,None,244.84317629999714,244.84317629999714,244.84317629999714,244.84317629999714,244.84317629999714,244.84317629999714,244.84317629999714,244.84317629999714,244.84317629999714,244.84317629999714,,007,P018,2025_Mar_07_1839,ConditionRich,2021.2.3,59.94553348876264,
216.0,219.75,26,0.75,Stimuli/P018/things_chandelier_09s.jpg,0,0,0.0,0,93,93,93,,,,,,,,,,,,,216.0068284999943,0.006828499994298909,None,245.11008169999695,245.11008169999695,245.11008169999695,245.11008169999695,245.11008169999695,245.11008169999695,245.11008169999695,245.11008169999695,245.11008169999695,245.11008169999695,,007,P018,2025_Mar_07_1839,ConditionRich,2021.2.3,59.94553348876264,
219.75,220.0,41,0.0,Stimuli/Blank.png,0,0,0.0,0,94,94,94,,,,,,,,,,,,,219.7763971999957,0.02639719999569934,None,248.8633725999971,248.8633725999971,248.8633725999971,248.8633725999971,248.8633725999971,248.8633725999971,248.8633725999971,248.8633725999971,248.8633725999971,248.8633725999971,,007,P018,2025_Mar_07_1839,ConditionRich,2021.2.3,59.94553348876264,
220.0,223.75,11,0.75,Stimuli/P018/sun_bdzxsadvniuolmio.jpg,0,0,0.0,0,95,95,95,,,,,,,,,,,,,220.0102626999942,0.010262699994200375,None,249.1135901999951,249.1135901999951,249.1135901999951,249.1135901999951,249.1135901999951,249.1135901999951,249.1135901999951,249.1135901999951,249.1135901999951,249.1135901999951,,007,P018,2025_Mar_07_1839,ConditionRich,2021.2.3,59.94553348876264,
223.75,224.0,41,0.0,Stimuli/Blank.png,0,0,0.0,0,96,96,96,,,,,,,,,,,,,223.78120409999974,0.03120409999974072,None,252.8835956999974,252.8835956999974,252.8835956999974,252.8835956999974,252.8835956999974,252.8835956999974,252.8835956999974,252.8835956999974,252.8835956999974,252.8835956999974,,007,P018,2025_Mar_07_1839,ConditionRich,2021.2.3,59.94553348876264,
224.0,227.75,4,0.75,Stimuli/P018/sun_aibvvqlmlsjnrgdj.jpg,1,3,3.75,0,97,97,97,,,,,,,,,,,,,224.03203940000094,0.03203940000094008,None,253.13381699999445,256.8537575999944,253.13381699999445,256.8537575999944,253.13381699999445,256.8537575999944,256.1197918999969,None,253.13381699999445,256.8537575999944,,007,P018,2025_Mar_07_1839,ConditionRich,2021.2.3,59.94553348876264,
227.75,228.0,41,0.0,Stimuli/Blank.png,0,0,0.0,0,98,98,98,,,,,,,,,,,,,227.78314529999625,0.03314529999624938,None,256.87041899999895,None,256.87041899999895,None,256.87041899999895,None,256.87041899999895,256.87041899999895,256.87041899999895,None,,007,P018,2025_Mar_07_1839,ConditionRich,2021.2.3,59.94553348876264,
228.0,231.75,27,0.75,Stimuli/P018/things_coffin_09s.jpg,1,2,2.75,0,99,99,99,,,,,,,,,,,,,228.0026194999955,0.0026194999954896048,2,257.10400139999547,257.10400139999547,257.10400139999547,257.10400139999547,257.10400139999547,257.10400139999547,259.0890700999953,259.83976640000037,257.10400139999547,257.10400139999547,2.408733600001142,007,P018,2025_Mar_07_1839,ConditionRich,2021.2.3,59.94553348876264,
231.75,232.0,41,0.0,Stimuli/Blank.png,0,0,0.0,0,100,100,100,,,,,,,,,,,,,231.7715728999974,0.021572899997408967,None,260.8739939999941,260.8739939999941,260.8739939999941,260.8739939999941,260.8739939999941,260.8739939999941,260.8739939999941,260.8739939999941,260.8739939999941,260.8739939999941,,007,P018,2025_Mar_07_1839,ConditionRich,2021.2.3,59.94553348876264,
232.0,235.75,31,0.75,Stimuli/P018/things_highchair_09s.jpg,0,0,0.0,0,101,101,101,,,,,,,,,,,,,232.01970179999626,0.01970179999625543,None,261.1075311999957,261.1075311999957,261.1075311999957,261.1075311999957,261.1075311999957,261.1075311999957,261.1075311999957,261.1075311999957,261.1075311999957,261.1075311999957,,007,P018,2025_Mar_07_1839,ConditionRich,2021.2.3,59.94553348876264,
235.75,236.0,41,0.0,Stimuli/Blank.png,0,0,0.0,0,102,102,102,,,,,,,,,,,,,235.7573110999947,0.007311099994694814,None,264.8441636999996,264.8441636999996,264.8441636999996,264.8441636999996,264.8441636999996,264.8441636999996,264.8441636999996,264.8441636999996,264.8441636999996,264.8441636999996,,007,P018,2025_Mar_07_1839,ConditionRich,2021.2.3,59.94553348876264,
236.0,239.75,14,0.75,Stimuli/P018/sun_bljpqnfmmqkjsfvx.jpg,0,0,0.0,0,103,103,103,,,,,,,,,,,,,236.00733619999664,0.0073361999966437,None,265.1110673000003,265.1110673000003,265.1110673000003,265.1110673000003,265.1110673000003,265.1110673000003,265.1110673000003,265.1110673000003,265.1110673000003,265.1110673000003,,007,P018,2025_Mar_07_1839,ConditionRich,2021.2.3,59.94553348876264,
239.75,240.0,41,0.0,Stimuli/Blank.png,0,0,0.0,0,104,104,104,,,,,,,,,,,,,239.77674560000014,0.026745600000140257,None,268.8643804999956,268.8643804999956,268.8643804999956,268.8643804999956,268.8643804999956,268.8643804999956,268.8643804999956,268.8643804999956,268.8643804999956,268.8643804999956,,007,P018,2025_Mar_07_1839,ConditionRich,2021.2.3,59.94553348876264,
240.0,243.75,12,0.75,Stimuli/P018/sun_bhvaiabdgxjuwoth.jpg,1,1,1.75,0,105,105,105,,,,,,,,,,,,,240.01042589999997,0.010425899999972899,2,269.09794339999644,269.09794339999644,269.09794339999644,269.09794339999644,269.09794339999644,269.09794339999644,270.0821503999978,270.8327999999965,269.09794339999644,269.09794339999644,1.3877967999942484,007,P018,2025_Mar_07_1839,ConditionRich,2021.2.3,59.94553348876264,
243.75,244.0,41,0.0,Stimuli/Blank.png,0,0,0.0,0,106,106,106,,,,,,,,,,,,,243.7641844999962,0.014184499996190425,None,272.8512613999992,272.8512613999992,272.8512613999992,272.8512613999992,272.8512613999992,272.8512613999992,272.8512613999992,272.8512613999992,272.8512613999992,272.8512613999992,,007,P018,2025_Mar_07_1839,ConditionRich,2021.2.3,59.94553348876264,
244.0,247.75,40,0.75,Stimuli/P018/things_woman_09s.jpg,0,0,0.0,0,107,107,107,,,,,,,,,,,,,244.01467409999896,0.01467409999895608,None,273.118158499994,273.118158499994,273.118158499994,273.118158499994,273.118158499994,273.118158499994,273.118158499994,273.118158499994,273.118158499994,273.118158499994,,007,P018,2025_Mar_07_1839,ConditionRich,2021.2.3,59.94553348876264,
247.75,248.0,41,0.0,Stimuli/Blank.png,0,0,0.0,0,108,108,108,,,,,,,,,,,,,247.76713849999942,0.017138499999418855,None,276.8547705999954,276.8547705999954,276.8547705999954,276.8547705999954,276.8547705999954,276.8547705999954,276.8547705999954,276.8547705999954,276.8547705999954,276.8547705999954,,007,P018,2025_Mar_07_1839,ConditionRich,2021.2.3,59.94553348876264,
248.0,251.75,28,0.75,Stimuli/P018/things_collar_09s.jpg,0,0,0.0,0,109,109,109,,,,,,,,,,,,,248.00167969999893,0.001679699998931028,None,277.1050194999989,277.1050194999989,277.1050194999989,277.1050194999989,277.1050194999989,277.1050194999989,277.1050194999989,277.1050194999989,277.1050194999989,277.1050194999989,,007,P018,2025_Mar_07_1839,ConditionRich,2021.2.3,59.94553348876264,
251.75,252.0,41,0.0,Stimuli/Blank.png,0,0,0.0,0,110,110,110,,,,,,,,,,,,,251.7710936000003,0.021093600000313018,None,280.8583135000008,280.8583135000008,280.8583135000008,280.8583135000008,280.8583135000008,280.8583135000008,280.8583135000008,280.8583135000008,280.8583135000008,280.8583135000008,,007,P018,2025_Mar_07_1839,ConditionRich,2021.2.3,59.94553348876264,
252.0,255.75,10,0.75,Stimuli/P018/sun_bayxprasninnrnle.jpg,0,0,0.0,0,111,111,111,,,,,,,,,,,,,252.00469259999954,0.004692599999543745,None,281.09185419999994,281.09185419999994,281.09185419999994,281.09185419999994,281.09185419999994,281.09185419999994,281.09185419999994,281.09185419999994,281.09185419999994,281.09185419999994,,007,P018,2025_Mar_07_1839,ConditionRich,2021.2.3,59.94553348876264,
255.75,256.0,41,0.0,Stimuli/Blank.png,0,0,0.0,0,112,112,112,,,,,,,,,,,,,255.75819149999734,0.008191499997337814,None,284.8451666999972,284.8451666999972,284.8451666999972,284.8451666999972,284.8451666999972,284.8451666999972,284.8451666999972,284.8451666999972,284.8451666999972,284.8451666999972,,007,P018,2025_Mar_07_1839,ConditionRich,2021.2.3,59.94553348876264,
256.0,259.75,3,0.75,Stimuli/P018/sun_acymmczhyuiimeub.jpg,0,0,0.0,0,113,113,113,,,,,,,,,,,,,256.0077086999954,0.0077086999954190105,None,285.0953914999991,285.0953914999991,285.0953914999991,285.0953914999991,285.0953914999991,285.0953914999991,285.0953914999991,285.0953914999991,285.0953914999991,285.0953914999991,,007,P018,2025_Mar_07_1839,ConditionRich,2021.2.3,59.94553348876264,
259.75,260.0,41,0.0,Stimuli/Blank.png,0,0,0.0,0,114,114,114,,,,,,,,,,,,,259.761039099998,0.011039099998015445,None,288.8487083,288.8487083,288.8487083,288.8487083,288.8487083,288.8487083,288.8487083,288.8487083,288.8487083,288.8487083,,007,P018,2025_Mar_07_1839,ConditionRich,2021.2.3,59.94553348876264,
260.0,263.75,16,0.75,Stimuli/P018/sun_brfwxjsnmauhmfzf.jpg,0,0,0.0,0,115,115,115,,,,,,,,,,,,,260.01213459999417,0.012134599994169548,None,289.11564829999406,289.11564829999406,289.11564829999406,289.11564829999406,289.11564829999406,289.11564829999406,289.11564829999406,289.11564829999406,289.11564829999406,289.11564829999406,,007,P018,2025_Mar_07_1839,ConditionRich,2021.2.3,59.94553348876264,
263.75,264.0,41,0.0,Stimuli/Blank.png,0,0,0.0,0,116,116,116,,,,,,,,,,,,,263.7811793000001,0.031179300000076182,None,292.86892909999733,292.86892909999733,292.86892909999733,292.86892909999733,292.86892909999733,292.86892909999733,292.86892909999733,292.86892909999733,292.86892909999733,292.86892909999733,,007,P018,2025_Mar_07_1839,ConditionRich,2021.2.3,59.94553348876264,
264.0,267.75,5,0.75,Stimuli/P018/sun_apojgqgvdvsksdvo.jpg,0,0,0.0,0,117,117,117,,,,,,,,,,,,,264.0158913999985,0.01589139999850886,None,293.11915549999685,293.11915549999685,293.11915549999685,293.11915549999685,293.11915549999685,293.11915549999685,293.11915549999685,293.11915549999685,293.11915549999685,293.11915549999685,,007,P018,2025_Mar_07_1839,ConditionRich,2021.2.3,59.94553348876264,
267.75,268.0,41,0.0,Stimuli/Blank.png,0,0,0.0,0,118,118,118,,,,,,,,,,,,,267.7686218999952,0.018621899995196145,None,296.8557914999983,296.8557914999983,296.8557914999983,296.8557914999983,296.8557914999983,296.8557914999983,296.8557914999983,296.8557914999983,296.8557914999983,296.8557914999983,,007,P018,2025_Mar_07_1839,ConditionRich,2021.2.3,59.94553348876264,
268.0,271.75,22,0.75,Stimuli/P018/things_boat_09s.jpg,0,0,0.0,0,119,119,119,,,,,,,,,,,,,268.00231959999655,0.002319599996553734,None,297.0893313999986,297.0893313999986,297.0893313999986,297.0893313999986,297.0893313999986,297.0893313999986,297.0893313999986,297.0893313999986,297.0893313999986,297.0893313999986,,007,P018,2025_Mar_07_1839,ConditionRich,2021.2.3,59.94553348876264,
271.75,272.0,41,0.0,Stimuli/Blank.png,0,0,0.0,0,120,120,120,,,,,,,,,,,,,271.7554813999959,0.005481399995915126,None,300.8426471999992,300.8426471999992,300.8426471999992,300.8426471999992,300.8426471999992,300.8426471999992,300.8426471999992,300.8426471999992,300.8426471999992,300.8426471999992,,007,P018,2025_Mar_07_1839,ConditionRich,2021.2.3,59.94553348876264,
272.0,275.75,21,0.75,Stimuli/P018/things_baby_09s.jpg,0,0,0.0,0,121,121,121,,,,,,,,,,,,,272.0066936000003,0.0066936000002897345,None,301.10955749999994,301.10955749999994,301.10955749999994,301.10955749999994,301.10955749999994,301.10955749999994,301.10955749999994,301.10955749999994,301.10955749999994,301.10955749999994,,007,P018,2025_Mar_07_1839,ConditionRich,2021.2.3,59.94553348876264,
275.75,276.0,41,0.0,Stimuli/Blank.png,0,0,0.0,0,122,122,122,,,,,,,,,,,,,275.77632189999713,0.02632189999712864,None,304.8628810000009,304.8628810000009,304.8628810000009,304.8628810000009,304.8628810000009,304.8628810000009,304.8628810000009,304.8628810000009,304.8628810000009,304.8628810000009,,007,P018,2025_Mar_07_1839,ConditionRich,2021.2.3,59.94553348876264,
276.0,292.0,0,0.0,Stimuli/Blank.png,1,10,10.75,0,123,123,123,,,,,,,,,,,,,276.0112661999956,0.011266199995588977,2,305.1131027999945,305.1131027999945,305.1131027999945,305.1131027999945,305.1131027999945,305.1131027999945,315.08858920000057,315.83923429999413,305.1131027999945,305.1131027999945,10.406584399999701,007,P018,2025_Mar_07_1839,ConditionRich,2021.2.3,59.94553348876264,
292.0,295.75,33,0.75,Stimuli/P018/things_lamb_09s.jpg,0,0,0.0,0,124,124,124,,,,,,,,,,,,,292.0240180999972,0.02401809999719262,None,321.1272430999961,321.1272430999961,321.1272430999961,321.1272430999961,321.1272430999961,321.1272430999961,321.1272430999961,321.1272430999961,321.1272430999961,321.1272430999961,,007,P018,2025_Mar_07_1839,ConditionRich,2021.2.3,59.94553348876264,
295.75,296.0,41,0.0,Stimuli/Blank.png,0,0,0.0,0,125,125,125,,,,,,,,,,,,,295.7769155999995,0.026915599999483675,None,324.86388409999927,324.86388409999927,324.86388409999927,324.86388409999927,324.86388409999927,324.86388409999927,324.86388409999927,324.86388409999927,324.86388409999927,324.86388409999927,,007,P018,2025_Mar_07_1839,ConditionRich,2021.2.3,59.94553348876264,
296.0,299.75,30,0.75,Stimuli/P018/things_girl_09s.jpg,1,0,0.75,0,126,126,126,,,,,,,,,,,,,296.01046179999685,0.010461799996846821,2,325.0974281999952,325.0974281999952,325.0974281999952,325.0974281999952,325.0974281999952,325.0974281999952,325.0974281999952,325.8314473999999,325.0974281999952,325.0974281999952,0.4222421000013128,007,P018,2025_Mar_07_1839,ConditionRich,2021.2.3,59.94553348876264,
299.75,300.0,41,0.0,Stimuli/Blank.png,0,0,0.0,0,127,127,127,,,,,,,,,,,,,299.7635012999963,0.013501299996278249,None,328.85074399999576,328.85074399999576,328.85074399999576,328.85074399999576,328.85074399999576,328.85074399999576,328.85074399999576,328.85074399999576,328.85074399999576,328.85074399999576,,007,P018,2025_Mar_07_1839,ConditionRich,2021.2.3,59.94553348876264,
300.0,303.75,36,0.75,Stimuli/P018/things_nest_09s.jpg,0,0,0.0,0,128,128,128,,,,,,,,,,,,,300.01399639999727,0.013996399997267872,None,329.11764579999726,329.11764579999726,329.11764579999726,329.11764579999726,329.11764579999726,329.11764579999726,329.11764579999726,329.11764579999726,329.11764579999726,329.11764579999726,,007,P018,2025_Mar_07_1839,ConditionRich,2021.2.3,59.94553348876264,
303.75,304.0,41,0.0,Stimuli/Blank.png,0,0,0.0,0,129,129,129,,,,,,,,,,,,,303.7665014999948,0.01650149999477435,None,332.85427929999423,332.85427929999423,332.85427929999423,332.85427929999423,332.85427929999423,332.85427929999423,332.85427929999423,332.85427929999423,332.85427929999423,332.85427929999423,,007,P018,2025_Mar_07_1839,ConditionRich,2021.2.3,59.94553348876264,
304.0,307.75,7,0.75,Stimuli/P018/sun_auadhqmfjsjtjcue.jpg,0,0,0.0,0,130,130,130,,,,,,,,,,,,,304.00062039999466,0.0006203999946592376,None,333.10450729999866,333.10450729999866,333.10450729999866,333.10450729999866,333.10450729999866,333.10450729999866,333.10450729999866,333.10450729999866,333.10450729999866,333.10450729999866,,007,P018,2025_Mar_07_1839,ConditionRich,2021.2.3,59.94553348876264,
307.75,308.0,41,0.0,Stimuli/Blank.png,0,0,0.0,0,131,131,131,,,,,,,,,,,,,307.77000259999477,0.02000259999476839,None,336.8578411999988,336.8578411999988,336.8578411999988,336.8578411999988,336.8578411999988,336.8578411999988,336.8578411999988,336.8578411999988,336.8578411999988,336.8578411999988,,007,P018,2025_Mar_07_1839,ConditionRich,2021.2.3,59.94553348876264,
308.0,311.75,34,0.75,Stimuli/P018/things_llama_09s.jpg,0,0,0.0,0,132,132,132,,,,,,,,,,,,,308.00353679999535,0.0035367999953450635,None,337.1080531999978,337.1080531999978,337.1080531999978,337.1080531999978,337.1080531999978,337.1080531999978,337.1080531999978,337.1080531999978,337.1080531999978,337.1080531999978,,007,P018,2025_Mar_07_1839,ConditionRich,2021.2.3,59.94553348876264,
311.75,312.0,41,0.0,Stimuli/Blank.png,0,0,0.0,0,133,133,133,,,,,,,,,,,,,311.7742359999975,0.02423599999747239,None,340.86136650000117,340.86136650000117,340.86136650000117,340.86136650000117,340.86136650000117,340.86136650000117,340.86136650000117,340.86136650000117,340.86136650000117,340.86136650000117,,007,P018,2025_Mar_07_1839,ConditionRich,2021.2.3,59.94553348876264,
312.0,315.75,37,0.75,Stimuli/P018/things_plastic_film_09s.jpg,0,0,0.0,0,134,134,134,,,,,,,,,,,,,312.0072116999945,0.007211699994513765,None,341.09490019999794,341.09490019999794,341.09490019999794,341.09490019999794,341.09490019999794,341.09490019999794,341.09490019999794,341.09490019999794,341.09490019999794,341.09490019999794,,007,P018,2025_Mar_07_1839,ConditionRich,2021.2.3,59.94553348876264,
315.75,316.0,41,0.0,Stimuli/Blank.png,0,0,0.0,0,135,135,135,,,,,,,,,,,,,315.76155469999503,0.011554699995031115,None,344.84822390000045,344.84822390000045,344.84822390000045,344.84822390000045,344.84822390000045,344.84822390000045,344.84822390000045,344.84822390000045,344.84822390000045,344.84822390000045,,007,P018,2025_Mar_07_1839,ConditionRich,2021.2.3,59.94553348876264,
316.0,319.75,19,0.75,Stimuli/P018/sun_brrwzaypucosdcgt.jpg,0,0,0.0,0,136,136,136,,,,,,,,,,,,,316.01123269999516,0.011232699995161965,None,345.115149199999,345.115149199999,345.115149199999,345.115149199999,345.115149199999,345.115149199999,345.115149199999,345.115149199999,345.115149199999,345.115149199999,,007,P018,2025_Mar_07_1839,ConditionRich,2021.2.3,59.94553348876264,
319.75,320.0,41,0.0,Stimuli/Blank.png,0,0,0.0,0,137,137,137,,,,,,,,,,,,,319.7811881999951,0.031188199995085597,None,348.8684390999988,348.8684390999988,348.8684390999988,348.8684390999988,348.8684390999988,348.8684390999988,348.8684390999988,348.8684390999988,348.8684390999988,348.8684390999988,,007,P018,2025_Mar_07_1839,ConditionRich,2021.2.3,59.94553348876264,
320.0,323.75,24,0.75,Stimuli/P018/things_breadbox_09s.jpg,0,0,0.0,0,138,138,138,,,,,,,,,,,,,320.01719149999553,0.017191499995533377,None,349.1186682999978,349.1186682999978,349.1186682999978,349.1186682999978,349.1186682999978,349.1186682999978,349.1186682999978,349.1186682999978,349.1186682999978,349.1186682999978,,007,P018,2025_Mar_07_1839,ConditionRich,2021.2.3,59.94553348876264,
323.75,324.0,41,0.0,Stimuli/Blank.png,0,0,0.0,0,139,139,139,,,,,,,,,,,,,323.76807899999403,0.01807899999403162,None,352.8552978999942,352.8552978999942,352.8552978999942,352.8552978999942,352.8552978999942,352.8552978999942,352.8552978999942,352.8552978999942,352.8552978999942,352.8552978999942,,007,P018,2025_Mar_07_1839,ConditionRich,2021.2.3,59.94553348876264,
324.0,327.75,2,0.75,Stimuli/P018/sun_acliytrpktltxwsx.jpg,1,3,3.75,0,140,140,140,,,,,,,,,,,,,324.00167990000045,0.0016799000004539266,2,353.0888447999969,353.0888447999969,353.0888447999969,353.0888447999969,353.0888447999969,353.0888447999969,356.07485019999876,356.82547429999977,353.0888447999969,353.0888447999969,3.3699973999973736,007,P018,2025_Mar_07_1839,ConditionRich,2021.2.3,59.94553348876264,
327.75,328.0,41,0.0,Stimuli/Blank.png,0,0,0.0,0,141,141,141,,,,,,,,,,,,,327.7565063000002,0.006506300000182819,None,356.8588491999981,356.8588491999981,356.8588491999981,356.8588491999981,356.8588491999981,356.8588491999981,356.8588491999981,356.8588491999981,356.8588491999981,356.8588491999981,,007,P018,2025_Mar_07_1839,ConditionRich,2021.2.3,59.94553348876264,
328.0,331.75,15,0.75,Stimuli/P018/sun_bobznlnnzwznersx.jpg,0,0,0.0,0,142,142,142,,,,,,,,,,,,,328.02257209999516,0.02257209999515908,None,357.12575020000077,357.12575020000077,357.12575020000077,357.12575020000077,357.12575020000077,357.12575020000077,357.12575020000077,357.12575020000077,357.12575020000077,357.12575020000077,,007,P018,2025_Mar_07_1839,ConditionRich,2021.2.3,59.94553348876264,
331.75,332.0,41,0.0,Stimuli/Blank.png,0,0,0.0,0,143,143,143,,,,,,,,,,,,,331.7753079999966,0.02530799999658484,None,360.862377999998,360.862377999998,360.862377999998,360.862377999998,360.862377999998,360.862377999998,360.862377999998,360.862377999998,360.862377999998,360.862377999998,,007,P018,2025_Mar_07_1839,ConditionRich,2021.2.3,59.94553348876264,
332.0,335.75,8,0.75,Stimuli/P018/sun_axsmqyyvebrcuhkn.jpg,1,2,2.75,0,144,144,144,,,,,,,,,,,,,332.0088331999941,0.008833199994114693,2,361.11261430000013,361.11261430000013,361.11261430000013,361.11261430000013,361.11261430000013,361.11261430000013,363.08100179999747,363.8316730999941,361.11261430000013,361.11261430000013,2.3002197000023443,007,P018,2025_Mar_07_1839,ConditionRich,2021.2.3,59.94553348876264,
335.75,336.0,41,0.0,Stimuli/Blank.png,0,0,0.0,0,145,145,145,,,,,,,,,,,,,335.7780911000009,0.028091100000892766,None,364.8659183999989,364.8659183999989,364.8659183999989,364.8659183999989,364.8659183999989,364.8659183999989,364.8659183999989,364.8659183999989,364.8659183999989,364.8659183999989,,007,P018,2025_Mar_07_1839,ConditionRich,2021.2.3,59.94553348876264,
336.0,339.75,6,0.75,Stimuli/P018/sun_atuyvunnykjurjgx.jpg,0,0,0.0,0,146,146,146,,,,,,,,,,,,,336.01228309999715,0.012283099997148383,None,365.09947269999975,365.09947269999975,365.09947269999975,365.09947269999975,365.09947269999975,365.09947269999975,365.09947269999975,365.09947269999975,365.09947269999975,365.09947269999975,,007,P018,2025_Mar_07_1839,ConditionRich,2021.2.3,59.94553348876264,
339.75,340.0,41,0.0,Stimuli/Blank.png,0,0,0.0,0,147,147,147,,,,,,,,,,,,,339.7657029999973,0.01570299999730196,None,368.8527744999956,368.8527744999956,368.8527744999956,368.8527744999956,368.8527744999956,368.8527744999956,368.8527744999956,368.8527744999956,368.8527744999956,368.8527744999956,,007,P018,2025_Mar_07_1839,ConditionRich,2021.2.3,59.94553348876264,
340.0,343.75,17,0.75,Stimuli/P018/sun_brhndfjxyigqgiwl.jpg,0,0,0.0,0,148,148,148,,,,,,,,,,,,,339.99856789999467,-0.0014321000053314492,None,369.10303959999874,369.10303959999874,369.10303959999874,369.10303959999874,369.10303959999874,369.10303959999874,369.10303959999874,369.10303959999874,369.10303959999874,369.10303959999874,,007,P018,2025_Mar_07_1839,ConditionRich,2021.2.3,59.94553348876264,
343.75,344.0,41,0.0,Stimuli/Blank.png,0,0,0.0,0,149,149,149,,,,,,,,,,,,,343.7686157999997,0.01861579999967944,None,372.85646819999965,372.85646819999965,372.85646819999965,372.85646819999965,372.85646819999965,372.85646819999965,372.85646819999965,372.85646819999965,372.85646819999965,372.85646819999965,,007,P018,2025_Mar_07_1839,ConditionRich,2021.2.3,59.94553348876264,
344.0,347.75,39,0.75,Stimuli/P018/things_veil_09s.jpg,1,2,2.75,0,150,150,150,,,,,,,,,,,,,344.0030870999981,0.0030870999980834313,2,373.0899105999997,373.0899105999997,373.0899105999997,373.0899105999997,373.0899105999997,373.0899105999997,375.07493989999784,375.8256662999993,373.0899105999997,373.0899105999997,2.386797999999544,007,P018,2025_Mar_07_1839,ConditionRich,2021.2.3,59.94553348876264,
347.75,348.0,41,0.0,Stimuli/Blank.png,0,0,0.0,0,151,151,151,,,,,,,,,,,,,347.7556043000004,0.005604300000413787,None,376.8431677999979,376.8431677999979,376.8431677999979,376.8431677999979,376.8431677999979,376.8431677999979,376.8431677999979,376.8431677999979,376.8431677999979,376.8431677999979,,007,P018,2025_Mar_07_1839,ConditionRich,2021.2.3,59.94553348876264,
348.0,351.75,23,0.75,Stimuli/P018/things_boy_09s.jpg,0,0,0.0,0,152,152,152,,,,,,,,,,,,,348.0056217999954,0.005621799995424226,None,377.09337749999395,377.09337749999395,377.09337749999395,377.09337749999395,377.09337749999395,377.09337749999395,377.09337749999395,377.09337749999395,377.09337749999395,377.09337749999395,,007,P018,2025_Mar_07_1839,ConditionRich,2021.2.3,59.94553348876264,
351.75,352.0,41,0.0,Stimuli/Blank.png,0,0,0.0,0,153,153,153,,,,,,,,,,,,,351.76117169999634,0.011171699996339157,None,380.8633944999965,380.8633944999965,380.8633944999965,380.8633944999965,380.8633944999965,380.8633944999965,380.8633944999965,380.8633944999965,380.8633944999965,380.8633944999965,,007,P018,2025_Mar_07_1839,ConditionRich,2021.2.3,59.94553348876264,
352.0,355.75,35,0.75,Stimuli/P018/things_lobster_09s.jpg,0,0,0.0,0,154,154,154,,,,,,,,,,,,,352.0265278999941,0.02652789999410743,None,381.1303162999975,381.1303162999975,381.1303162999975,381.1303162999975,381.1303162999975,381.1303162999975,381.1303162999975,381.1303162999975,381.1303162999975,381.1303162999975,,007,P018,2025_Mar_07_1839,ConditionRich,2021.2.3,59.94553348876264,
355.75,356.0,41,0.0,Stimuli/Blank.png,0,0,0.0,0,155,155,155,,,,,,,,,,,,,355.78115389999584,0.03115389999584295,None,384.88362100000086,384.88362100000086,384.88362100000086,384.88362100000086,384.88362100000086,384.88362100000086,384.88362100000086,384.88362100000086,384.88362100000086,384.88362100000086,,007,P018,2025_Mar_07_1839,ConditionRich,2021.2.3,59.94553348876264,
356.0,359.75,25,0.75,Stimuli/P018/things_cannonball_09s.jpg,0,0,0.0,0,156,156,156,,,,,,,,,,,,,356.03150079999614,0.031500799996138085,None,385.13384469999437,385.13384469999437,385.13384469999437,385.13384469999437,385.13384469999437,385.13384469999437,385.13384469999437,385.13384469999437,385.13384469999437,385.13384469999437,,007,P018,2025_Mar_07_1839,ConditionRich,2021.2.3,59.94553348876264,
359.75,360.0,41,0.0,Stimuli/Blank.png,0,0,0.0,0,157,157,157,,,,,,,,,,,,,359.76653559999977,0.016535599999770056,None,388.85378990000027,388.85378990000027,388.85378990000027,388.85378990000027,388.85378990000027,388.85378990000027,388.85378990000027,388.85378990000027,388.85378990000027,388.85378990000027,,007,P018,2025_Mar_07_1839,ConditionRich,2021.2.3,59.94553348876264,
360.0,363.75,29,0.75,Stimuli/P018/things_face_09s.jpg,1,2,2.75,0,158,158,158,,,,,,,,,,,,,360.0010961999942,0.0010961999942082912,2,389.10398089999944,389.10398089999944,389.10398089999944,389.10398089999944,389.10398089999944,389.10398089999944,391.0726110999967,391.8230684000009,389.10398089999944,389.10398089999944,2.343094999996538,007,P018,2025_Mar_07_1839,ConditionRich,2021.2.3,59.94553348876264,
363.75,364.0,41,0.0,Stimuli/Blank.png,0,0,0.0,0,159,159,159,,,,,,,,,,,,,363.7726518999989,0.022651899998891167,None,392.87401390000014,392.87401390000014,392.87401390000014,392.87401390000014,392.87401390000014,392.87401390000014,392.87401390000014,392.87401390000014,392.87401390000014,392.87401390000014,,007,P018,2025_Mar_07_1839,ConditionRich,2021.2.3,59.94553348876264,
364.0,367.75,13,0.75,Stimuli/P018/sun_bizqwyomkqigheyx.jpg,0,0,0.0,0,160,160,160,,,,,,,,,,,,,364.0213655999978,0.021365599997807294,None,393.12424669999746,393.12424669999746,393.12424669999746,393.12424669999746,393.12424669999746,393.12424669999746,393.12424669999746,393.12424669999746,393.12424669999746,393.12424669999746,,007,P018,2025_Mar_07_1839,ConditionRich,2021.2.3,59.94553348876264,
367.75,368.0,41,0.0,Stimuli/Blank.png,0,0,0.0,0,161,161,161,,,,,,,,,,,,,367.77317039999616,0.023170399996160995,None,396.86083239999425,396.86083239999425,396.86083239999425,396.86083239999425,396.86083239999425,396.86083239999425,396.86083239999425,396.86083239999425,396.86083239999425,396.86083239999425,,007,P018,2025_Mar_07_1839,ConditionRich,2021.2.3,59.94553348876264,
368.0,371.75,9,0.75,Stimuli/P018/sun_ayidxslzurdumeps.jpg,0,0,0.0,0,162,162,162,,,,,,,,,,,,,368.00658459999977,0.006584599999769125,None,397.0943982999961,397.0943982999961,397.0943982999961,397.0943982999961,397.0943982999961,397.0943982999961,397.0943982999961,397.0943982999961,397.0943982999961,397.0943982999961,,007,P018,2025_Mar_07_1839,ConditionRich,2021.2.3,59.94553348876264,
371.75,372.0,41,0.0,Stimuli/Blank.png,0,0,0.0,0,163,163,163,,,,,,,,,,,,,371.76064499999484,0.010644999994838145,None,400.84772639999574,400.84772639999574,400.84772639999574,400.84772639999574,400.84772639999574,400.84772639999574,400.84772639999574,400.84772639999574,400.84772639999574,400.84772639999574,,007,P018,2025_Mar_07_1839,ConditionRich,2021.2.3,59.94553348876264,
372.0,388.0,0,0.0,Stimuli/Blank.png,1,6,6.75,0,164,164,164,,,,,,,,,,,,,372.0107760999963,0.010776099996292032,2,401.09794110000075,401.09794110000075,401.09794110000075,401.09794110000075,401.09794110000075,401.09794110000075,407.0865406000012,407.83723889999965,401.09794110000075,401.09794110000075,6.7337984000041615,007,P018,2025_Mar_07_1839,ConditionRich,2021.2.3,59.94553348876264,
