eventStartTime,eventEndTime,eventCond,imSize,imFile,responseEvent,fixRespStart,fixRespEnd,Events.thisRepN,Events.thisTrialN,Events.thisN,Events.thisIndex,Instructions.started,Instructions.stopped,participantReadyResponse.keys,participantReadyResponse.rt,participantReadyResponse.started,participantReadyResponse.stopped,startWaitforTrigger,triggerResponse.keys,triggerResponse.rt,triggerResponse.started,triggerResponse.stopped,globalTimer,actualStartTime,startTimingDiff,participantResponse.keys,participantResponse.started,participantResponse.stopped,image.started,image.stopped,fixationOutside.started,fixationOutside.stopped,fixationResponse.started,fixationResponse.stopped,fixationInside.started,fixationInside.stopped,participantResponse.rt,session,participant,date,expName,psychopyVersion,frameRate,
,,,,,,,,,,,,10.963807799998904,None,2,7.71005989999685,10.963807799998904,None,,,,,,,,,,,,,,,,,,,,,004,P018,2025_Mar_07_1811,ConditionRich,2021.2.3,59.92505772421061,
,,,,,,,,,,,,,,,,,,18.683408700002474,5,15.980660299996089,18.69612519999646,None,,,,,,,,,,,,,,,,004,P018,2025_Mar_07_1811,ConditionRich,2021.2.3,59.92505772421061,
0.0,4.0,0,0.0,Stimuli/Blank.png,0,0,0.0,0,0,0,0,,,,,,,,,,,,34.680292799996096,0.0464157999958843,0.0464157999958843,None,34.74365340000077,None,34.74365340000077,None,34.74365340000077,None,34.74365340000077,34.74365340000077,34.74365340000077,None,,004,P018,2025_Mar_07_1811,ConditionRich,2021.2.3,59.92505772421061,
4.0,7.75,40,0.75,Stimuli/P018/things_woman_09s.jpg,0,0,0.0,0,1,1,1,,,,,,,,,,,,,4.003736699996807,0.003736699996807147,None,38.697442700002284,38.697442700002284,38.697442700002284,38.697442700002284,38.697442700002284,38.697442700002284,38.697442700002284,38.697442700002284,38.697442700002284,38.697442700002284,,004,P018,2025_Mar_07_1811,ConditionRich,2021.2.3,59.92505772421061,
7.75,8.0,41,0.0,Stimuli/Blank.png,0,0,0.0,0,2,2,2,,,,,,,,,,,,,7.757047499995679,0.007047499995678663,None,42.46751879999647,42.46751879999647,42.46751879999647,42.46751879999647,42.46751879999647,42.46751879999647,42.46751879999647,42.46751879999647,42.46751879999647,42.46751879999647,,004,P018,2025_Mar_07_1811,ConditionRich,2021.2.3,59.92505772421061,
8.0,11.75,18,0.75,Stimuli/P018/sun_brrvvswweljrvnlq.jpg,0,0,0.0,0,3,3,3,,,,,,,,,,,,,8.023229300000821,0.02322930000082124,None,42.71756910000113,42.71756910000113,42.71756910000113,42.71756910000113,42.71756910000113,42.71756910000113,42.71756910000113,42.71756910000113,42.71756910000113,42.71756910000113,,004,P018,2025_Mar_07_1811,ConditionRich,2021.2.3,59.92505772421061,
11.75,12.0,41,0.0,Stimuli/Blank.png,0,0,0.0,0,4,4,4,,,,,,,,,,,,,11.759907100000419,0.009907100000418723,None,46.454025300001376,46.454025300001376,46.454025300001376,46.454025300001376,46.454025300001376,46.454025300001376,46.454025300001376,46.454025300001376,46.454025300001376,46.454025300001376,,004,P018,2025_Mar_07_1811,ConditionRich,2021.2.3,59.92505772421061,
12.0,15.75,22,0.75,Stimuli/P018/things_boat_09s.jpg,0,0,0.0,0,5,5,5,,,,,,,,,,,,,12.009317099997133,0.009317099997133482,None,46.704227100002754,46.704227100002754,46.704227100002754,46.704227100002754,46.704227100002754,46.704227100002754,46.704227100002754,46.704227100002754,46.704227100002754,46.704227100002754,,004,P018,2025_Mar_07_1811,ConditionRich,2021.2.3,59.92505772421061,
15.75,16.0,41,0.0,Stimuli/Blank.png,0,0,0.0,0,6,6,6,,,,,,,,,,,,,15.763586799999757,0.013586799999757204,None,50.457570400001714,50.457570400001714,50.457570400001714,50.457570400001714,50.457570400001714,50.457570400001714,50.457570400001714,50.457570400001714,50.457570400001714,50.457570400001714,,004,P018,2025_Mar_07_1811,ConditionRich,2021.2.3,59.92505772421061,
16.0,19.75,27,0.75,Stimuli/P018/things_coffin_09s.jpg,0,0,0.0,0,7,7,7,,,,,,,,,,,,,16.013465999996697,0.013465999996697064,None,50.7077683000025,50.7077683000025,50.7077683000025,50.7077683000025,50.7077683000025,50.7077683000025,50.7077683000025,50.7077683000025,50.7077683000025,50.7077683000025,,004,P018,2025_Mar_07_1811,ConditionRich,2021.2.3,59.92505772421061,
19.75,20.0,41,0.0,Stimuli/Blank.png,0,0,0.0,0,8,8,8,,,,,,,,,,,,,19.749483200001123,-0.0005167999988771044,None,54.44446549999702,54.44446549999702,54.44446549999702,54.44446549999702,54.44446549999702,54.44446549999702,54.44446549999702,54.44446549999702,54.44446549999702,54.44446549999702,,004,P018,2025_Mar_07_1811,ConditionRich,2021.2.3,59.92505772421061,
20.0,23.75,9,0.75,Stimuli/P018/sun_ayidxslzurdumeps.jpg,0,0,0.0,0,9,9,9,,,,,,,,,,,,,20.002525199997763,0.0025251999977626838,None,54.71130670000275,54.71130670000275,54.71130670000275,54.71130670000275,54.71130670000275,54.71130670000275,54.71130670000275,54.71130670000275,54.71130670000275,54.71130670000275,,004,P018,2025_Mar_07_1811,ConditionRich,2021.2.3,59.92505772421061,
23.75,24.0,41,0.0,Stimuli/Blank.png,0,0,0.0,0,10,10,10,,,,,,,,,,,,,23.76964169999701,0.01964169999700971,None,58.46463059999951,58.46463059999951,58.46463059999951,58.46463059999951,58.46463059999951,58.46463059999951,58.46463059999951,58.46463059999951,58.46463059999951,58.46463059999951,,004,P018,2025_Mar_07_1811,ConditionRich,2021.2.3,59.92505772421061,
24.0,27.75,24,0.75,Stimuli/P018/things_breadbox_09s.jpg,1,0,0.75,0,11,11,11,,,,,,,,,,,,,24.00371720000112,0.003717200001119636,2,58.69813150000118,58.69813150000118,58.69813150000118,58.69813150000118,58.69813150000118,58.69813150000118,58.69813150000118,59.43213749999995,58.69813150000118,58.69813150000118,0.4096659999995609,004,P018,2025_Mar_07_1811,ConditionRich,2021.2.3,59.92505772421061,
27.75,28.0,41,0.0,Stimuli/Blank.png,0,0,0.0,0,12,12,12,,,,,,,,,,,,,27.757013599999482,0.007013599999481812,None,62.451478099996166,62.451478099996166,62.451478099996166,62.451478099996166,62.451478099996166,62.451478099996166,62.451478099996166,62.451478099996166,62.451478099996166,62.451478099996166,,004,P018,2025_Mar_07_1811,ConditionRich,2021.2.3,59.92505772421061,
28.0,31.75,16,0.75,Stimuli/P018/sun_brfwxjsnmauhmfzf.jpg,0,0,0.0,0,13,13,13,,,,,,,,,,,,,28.008513100001437,0.008513100001437124,None,62.718409100001736,62.718409100001736,62.718409100001736,62.718409100001736,62.718409100001736,62.718409100001736,62.718409100001736,62.718409100001736,62.718409100001736,62.718409100001736,,004,P018,2025_Mar_07_1811,ConditionRich,2021.2.3,59.92505772421061,
31.75,32.0,41,0.0,Stimuli/Blank.png,0,0,0.0,0,14,14,14,,,,,,,,,,,,,31.777453299997433,0.027453299997432623,None,66.47170080000069,66.47170080000069,66.47170080000069,66.47170080000069,66.47170080000069,66.47170080000069,66.47170080000069,66.47170080000069,66.47170080000069,66.47170080000069,,004,P018,2025_Mar_07_1811,ConditionRich,2021.2.3,59.92505772421061,
32.0,35.75,38,0.75,Stimuli/P018/things_pony_09s.jpg,0,0,0.0,0,15,15,15,,,,,,,,,,,,,32.01082360000146,0.010823600001458544,None,66.70523619999585,66.70523619999585,66.70523619999585,66.70523619999585,66.70523619999585,66.70523619999585,66.70523619999585,66.70523619999585,66.70523619999585,66.70523619999585,,004,P018,2025_Mar_07_1811,ConditionRich,2021.2.3,59.92505772421061,
35.75,36.0,41,0.0,Stimuli/Blank.png,0,0,0.0,0,16,16,16,,,,,,,,,,,,,35.76471459999448,0.014714599994476885,None,70.45855679999659,70.45855679999659,70.45855679999659,70.45855679999659,70.45855679999659,70.45855679999659,70.45855679999659,70.45855679999659,70.45855679999659,70.45855679999659,,004,P018,2025_Mar_07_1811,ConditionRich,2021.2.3,59.92505772421061,
36.0,39.75,25,0.75,Stimuli/P018/things_cannonball_09s.jpg,1,2,2.75,0,17,17,17,,,,,,,,,,,,,36.01475349999964,0.014753499999642372,2,70.7087801000016,70.7087801000016,70.7087801000016,70.7087801000016,70.7087801000016,70.7087801000016,72.69393809999747,73.44452849999652,70.7087801000016,70.7087801000016,2.3891394999955082,004,P018,2025_Mar_07_1811,ConditionRich,2021.2.3,59.92505772421061,
39.75,40.0,41,0.0,Stimuli/Blank.png,0,0,0.0,0,18,18,18,,,,,,,,,,,,,39.75271000000066,0.002710000000661239,None,74.46210659999633,74.46210659999633,74.46210659999633,74.46210659999633,74.46210659999633,74.46210659999633,74.46210659999633,74.46210659999633,74.46210659999633,74.46210659999633,,004,P018,2025_Mar_07_1811,ConditionRich,2021.2.3,59.92505772421061,
40.0,43.75,34,0.75,Stimuli/P018/things_llama_09s.jpg,0,0,0.0,0,19,19,19,,,,,,,,,,,,,40.018455299999914,0.018455299999914132,None,74.71232130000135,74.71232130000135,74.71232130000135,74.71232130000135,74.71232130000135,74.71232130000135,74.71232130000135,74.71232130000135,74.71232130000135,74.71232130000135,,004,P018,2025_Mar_07_1811,ConditionRich,2021.2.3,59.92505772421061,
43.75,44.0,41,0.0,Stimuli/Blank.png,0,0,0.0,0,20,20,20,,,,,,,,,,,,,43.7544648999974,0.004464899997401517,None,78.44888820000051,78.44888820000051,78.44888820000051,78.44888820000051,78.44888820000051,78.44888820000051,78.44888820000051,78.44888820000051,78.44888820000051,78.44888820000051,,004,P018,2025_Mar_07_1811,ConditionRich,2021.2.3,59.92505772421061,
44.0,47.75,17,0.75,Stimuli/P018/sun_brhndfjxyigqgiwl.jpg,0,0,0.0,0,21,21,21,,,,,,,,,,,,,44.00479429999541,0.004794299995410256,None,78.71586679999746,78.71586679999746,78.71586679999746,78.71586679999746,78.71586679999746,78.71586679999746,78.71586679999746,78.71586679999746,78.71586679999746,78.71586679999746,,004,P018,2025_Mar_07_1811,ConditionRich,2021.2.3,59.92505772421061,
47.75,48.0,41,0.0,Stimuli/Blank.png,0,0,0.0,0,22,22,22,,,,,,,,,,,,,47.774270199995954,0.02427019999595359,None,82.46926659999735,82.46926659999735,82.46926659999735,82.46926659999735,82.46926659999735,82.46926659999735,82.46926659999735,82.46926659999735,82.46926659999735,82.46926659999735,,004,P018,2025_Mar_07_1811,ConditionRich,2021.2.3,59.92505772421061,
48.0,51.75,23,0.75,Stimuli/P018/things_boy_09s.jpg,0,0,0.0,0,23,23,23,,,,,,,,,,,,,48.00850099999661,0.008500999996613245,None,82.70266889999766,82.70266889999766,82.70266889999766,82.70266889999766,82.70266889999766,82.70266889999766,82.70266889999766,82.70266889999766,82.70266889999766,82.70266889999766,,004,P018,2025_Mar_07_1811,ConditionRich,2021.2.3,59.92505772421061,
51.75,52.0,41,0.0,Stimuli/Blank.png,0,0,0.0,0,24,24,24,,,,,,,,,,,,,51.76191169999947,0.011911699999473058,None,86.45603300000221,86.45603300000221,86.45603300000221,86.45603300000221,86.45603300000221,86.45603300000221,86.45603300000221,86.45603300000221,86.45603300000221,86.45603300000221,,004,P018,2025_Mar_07_1811,ConditionRich,2021.2.3,59.92505772421061,
52.0,55.75,28,0.75,Stimuli/P018/things_collar_09s.jpg,0,0,0.0,0,25,25,25,,,,,,,,,,,,,52.01181219999853,0.01181219999853056,None,86.70624859999953,86.70624859999953,86.70624859999953,86.70624859999953,86.70624859999953,86.70624859999953,86.70624859999953,86.70624859999953,86.70624859999953,86.70624859999953,,004,P018,2025_Mar_07_1811,ConditionRich,2021.2.3,59.92505772421061,
55.75,56.0,41,0.0,Stimuli/Blank.png,0,0,0.0,0,26,26,26,,,,,,,,,,,,,55.76757949999592,0.017579499995918013,None,90.4762555999987,90.4762555999987,90.4762555999987,90.4762555999987,90.4762555999987,90.4762555999987,90.4762555999987,90.4762555999987,90.4762555999987,90.4762555999987,,004,P018,2025_Mar_07_1811,ConditionRich,2021.2.3,59.92505772421061,
56.0,59.75,13,0.75,Stimuli/P018/sun_bizqwyomkqigheyx.jpg,0,0,0.0,0,27,27,27,,,,,,,,,,,,,56.016339199995855,0.01633919999585487,None,90.72648440000194,90.72648440000194,90.72648440000194,90.72648440000194,90.72648440000194,90.72648440000194,90.72648440000194,90.72648440000194,90.72648440000194,90.72648440000194,,004,P018,2025_Mar_07_1811,ConditionRich,2021.2.3,59.92505772421061,
59.75,60.0,41,0.0,Stimuli/Blank.png,0,0,0.0,0,28,28,28,,,,,,,,,,,,,59.76841169999534,0.018411699995340314,None,94.46310860000085,94.46310860000085,94.46310860000085,94.46310860000085,94.46310860000085,94.46310860000085,94.46310860000085,94.46310860000085,94.46310860000085,94.46310860000085,,004,P018,2025_Mar_07_1811,ConditionRich,2021.2.3,59.92505772421061,
60.0,63.75,10,0.75,Stimuli/P018/sun_bayxprasninnrnle.jpg,1,2,2.75,0,29,29,29,,,,,,,,,,,,,60.00269449999905,0.0026944999990519136,2,94.7132999999958,94.7132999999958,94.7132999999958,94.7132999999958,94.7132999999958,94.7132999999958,96.68174069999804,97.43240109999897,94.7132999999958,94.7132999999958,2.339530700002797,004,P018,2025_Mar_07_1811,ConditionRich,2021.2.3,59.92505772421061,
63.75,64.0,41,0.0,Stimuli/Blank.png,0,0,0.0,0,30,30,30,,,,,,,,,,,,,63.77244770000107,0.02244770000106655,None,98.46664859999873,98.46664859999873,98.46664859999873,98.46664859999873,98.46664859999873,98.46664859999873,98.46664859999873,98.46664859999873,98.46664859999873,98.46664859999873,,004,P018,2025_Mar_07_1811,ConditionRich,2021.2.3,59.92505772421061,
64.0,67.75,8,0.75,Stimuli/P018/sun_axsmqyyvebrcuhkn.jpg,0,0,0.0,0,31,31,31,,,,,,,,,,,,,64.00744929999928,0.007449299999279901,None,98.71686580000096,98.71686580000096,98.71686580000096,98.71686580000096,98.71686580000096,98.71686580000096,98.71686580000096,98.71686580000096,98.71686580000096,98.71686580000096,,004,P018,2025_Mar_07_1811,ConditionRich,2021.2.3,59.92505772421061,
67.75,68.0,41,0.0,Stimuli/Blank.png,0,0,0.0,0,32,32,32,,,,,,,,,,,,,67.77819979999913,0.028199799999129027,None,102.48687490000157,102.48687490000157,102.48687490000157,102.48687490000157,102.48687490000157,102.48687490000157,102.48687490000157,102.48687490000157,102.48687490000157,102.48687490000157,,004,P018,2025_Mar_07_1811,ConditionRich,2021.2.3,59.92505772421061,
68.0,71.75,14,0.75,Stimuli/P018/sun_bljpqnfmmqkjsfvx.jpg,1,0,0.75,0,33,33,33,,,,,,,,,,,,,68.02817279999726,0.02817279999726452,2,102.73709899999812,102.73709899999812,102.73709899999812,102.73709899999812,102.73709899999812,102.73709899999812,102.73709899999812,103.47107870000036,102.73709899999812,102.73709899999812,0.3857581999982358,004,P018,2025_Mar_07_1811,ConditionRich,2021.2.3,59.92505772421061,
71.75,72.0,41,0.0,Stimuli/Blank.png,0,0,0.0,0,34,34,34,,,,,,,,,,,,,71.77954809999937,0.029548099999374244,None,106.47372960000212,106.47372960000212,106.47372960000212,106.47372960000212,106.47372960000212,106.47372960000212,106.47372960000212,106.47372960000212,106.47372960000212,106.47372960000212,,004,P018,2025_Mar_07_1811,ConditionRich,2021.2.3,59.92505772421061,
72.0,75.75,35,0.75,Stimuli/P018/things_lobster_09s.jpg,0,0,0.0,0,35,35,35,,,,,,,,,,,,,72.01247109999531,0.012471099995309487,None,106.70726760000252,106.70726760000252,106.70726760000252,106.70726760000252,106.70726760000252,106.70726760000252,106.70726760000252,106.70726760000252,106.70726760000252,106.70726760000252,,004,P018,2025_Mar_07_1811,ConditionRich,2021.2.3,59.92505772421061,
75.75,76.0,41,0.0,Stimuli/Blank.png,0,0,0.0,0,36,36,36,,,,,,,,,,,,,75.74966090000089,-0.00033909999910974875,None,110.44398910000018,110.44398910000018,110.44398910000018,110.44398910000018,110.44398910000018,110.44398910000018,110.44398910000018,110.44398910000018,110.44398910000018,110.44398910000018,,004,P018,2025_Mar_07_1811,ConditionRich,2021.2.3,59.92505772421061,
76.0,79.75,1,0.75,Stimuli/P018/sun_aawmwfqqbzauhqkb.jpg,1,3,3.75,0,37,37,37,,,,,,,,,,,,,76.00204729999678,0.0020472999967751093,2,110.71080369999981,110.71080369999981,110.71080369999981,110.71080369999981,110.71080369999981,110.71080369999981,113.69676929999696,114.44744589999755,110.71080369999981,110.71080369999981,3.2982069999998203,004,P018,2025_Mar_07_1811,ConditionRich,2021.2.3,59.92505772421061,
79.75,80.0,41,0.0,Stimuli/Blank.png,0,0,0.0,0,38,38,38,,,,,,,,,,,,,79.76939679999487,0.019396799994865432,None,114.4641300000003,114.4641300000003,114.4641300000003,114.4641300000003,114.4641300000003,114.4641300000003,114.4641300000003,114.4641300000003,114.4641300000003,114.4641300000003,,004,P018,2025_Mar_07_1811,ConditionRich,2021.2.3,59.92505772421061,
80.0,83.75,26,0.75,Stimuli/P018/things_chandelier_09s.jpg,0,0,0.0,0,39,39,39,,,,,,,,,,,,,80.00285409999924,0.002854099999240134,None,114.69762040000205,114.69762040000205,114.69762040000205,114.69762040000205,114.69762040000205,114.69762040000205,114.69762040000205,114.69762040000205,114.69762040000205,114.69762040000205,,004,P018,2025_Mar_07_1811,ConditionRich,2021.2.3,59.92505772421061,
83.75,84.0,41,0.0,Stimuli/Blank.png,0,0,0.0,0,40,40,40,,,,,,,,,,,,,83.75733249999757,0.007332499997573905,None,118.4509859000027,118.4509859000027,118.4509859000027,118.4509859000027,118.4509859000027,118.4509859000027,118.4509859000027,118.4509859000027,118.4509859000027,118.4509859000027,,004,P018,2025_Mar_07_1811,ConditionRich,2021.2.3,59.92505772421061,
84.0,100.0,0,0.0,Stimuli/Blank.png,1,6,6.75,0,41,41,41,,,,,,,,,,,,,84.00672119999945,0.006721199999446981,2,118.70116360000247,118.70116360000247,118.70116360000247,118.70116360000247,118.70116360000247,118.70116360000247,124.68983689999732,125.44049249999807,118.70116360000247,118.70116360000247,6.350695900000574,004,P018,2025_Mar_07_1811,ConditionRich,2021.2.3,59.92505772421061,
100.0,103.75,32,0.75,Stimuli/P018/things_horse_09s.jpg,1,3,3.75,0,42,42,42,,,,,,,,,,,,,100.00428909999755,0.0042890999975497834,2,134.71535959999892,134.71535959999892,134.71535959999892,134.71535959999892,134.71535959999892,134.71535959999892,137.6846910999957,138.43533369999932,134.71535959999892,134.71535959999892,3.323568100000557,004,P018,2025_Mar_07_1811,ConditionRich,2021.2.3,59.92505772421061,
103.75,104.0,41,0.0,Stimuli/Blank.png,0,0,0.0,0,43,43,43,,,,,,,,,,,,,103.77466369999456,0.024663699994562194,None,138.46868220000033,138.46868220000033,138.46868220000033,138.46868220000033,138.46868220000033,138.46868220000033,138.46868220000033,138.46868220000033,138.46868220000033,138.46868220000033,,004,P018,2025_Mar_07_1811,ConditionRich,2021.2.3,59.92505772421061,
104.0,107.75,3,0.75,Stimuli/P018/sun_acymmczhyuiimeub.jpg,0,0,0.0,0,44,44,44,,,,,,,,,,,,,104.00859330000094,0.008593300000939053,None,138.70216409999557,138.70216409999557,138.70216409999557,138.70216409999557,138.70216409999557,138.70216409999557,138.70216409999557,138.70216409999557,138.70216409999557,138.70216409999557,,004,P018,2025_Mar_07_1811,ConditionRich,2021.2.3,59.92505772421061,
107.75,108.0,41,0.0,Stimuli/Blank.png,0,0,0.0,0,45,45,45,,,,,,,,,,,,,107.76282309999806,0.012823099998058751,None,142.47222460000194,142.47222460000194,142.47222460000194,142.47222460000194,142.47222460000194,142.47222460000194,142.47222460000194,142.47222460000194,142.47222460000194,142.47222460000194,,004,P018,2025_Mar_07_1811,ConditionRich,2021.2.3,59.92505772421061,
108.0,111.75,39,0.75,Stimuli/P018/things_veil_09s.jpg,0,0,0.0,0,46,46,46,,,,,,,,,,,,,108.02855239999917,0.02855239999917103,None,142.72243080000044,142.72243080000044,142.72243080000044,142.72243080000044,142.72243080000044,142.72243080000044,142.72243080000044,142.72243080000044,142.72243080000044,142.72243080000044,,004,P018,2025_Mar_07_1811,ConditionRich,2021.2.3,59.92505772421061,
111.75,112.0,41,0.0,Stimuli/Blank.png,0,0,0.0,0,47,47,47,,,,,,,,,,,,,111.76505819999875,0.015058199998748023,None,146.45908029999555,146.45908029999555,146.45908029999555,146.45908029999555,146.45908029999555,146.45908029999555,146.45908029999555,146.45908029999555,146.45908029999555,146.45908029999555,,004,P018,2025_Mar_07_1811,ConditionRich,2021.2.3,59.92505772421061,
112.0,115.75,21,0.75,Stimuli/P018/things_baby_09s.jpg,1,3,3.75,0,48,48,48,,,,,,,,,,,,,112.01432619999832,0.014326199998322409,2,146.70929819999583,146.70929819999583,146.70929819999583,146.70929819999583,146.70929819999583,146.70929819999583,149.6952941999989,None,146.70929819999583,146.70929819999583,3.333693900000071,004,P018,2025_Mar_07_1811,ConditionRich,2021.2.3,59.92505772421061,
115.75,116.0,41,0.0,Stimuli/Blank.png,0,0,0.0,0,49,49,49,,,,,,,,,,,,,115.75270399999863,0.0027039999986300245,None,150.44593960000202,150.44593960000202,150.44593960000202,150.44593960000202,150.44593960000202,150.44593960000202,150.44593960000202,150.44593960000202,150.44593960000202,150.44593960000202,,004,P018,2025_Mar_07_1811,ConditionRich,2021.2.3,59.92505772421061,
116.0,119.75,37,0.75,Stimuli/P018/things_plastic_film_09s.jpg,1,1,1.75,0,50,50,50,,,,,,,,,,,,,116.00186399999802,0.0018639999980223365,2,150.69612580000103,150.69612580000103,150.69612580000103,150.69612580000103,150.69612580000103,150.69612580000103,151.6804293000023,152.4310181999972,150.69612580000103,150.69612580000103,1.4138034999996307,004,P018,2025_Mar_07_1811,ConditionRich,2021.2.3,59.92505772421061,
119.75,120.0,41,0.0,Stimuli/Blank.png,0,0,0.0,0,51,51,51,,,,,,,,,,,,,119.75464959999954,0.004649599999538623,None,154.4494607000015,154.4494607000015,154.4494607000015,154.4494607000015,154.4494607000015,154.4494607000015,154.4494607000015,154.4494607000015,154.4494607000015,154.4494607000015,,004,P018,2025_Mar_07_1811,ConditionRich,2021.2.3,59.92505772421061,
120.0,123.75,2,0.75,Stimuli/P018/sun_acliytrpktltxwsx.jpg,0,0,0.0,0,52,52,52,,,,,,,,,,,,,120.00581149999925,0.005811499999254011,None,154.71637299999566,154.71637299999566,154.71637299999566,154.71637299999566,154.71637299999566,154.71637299999566,154.71637299999566,154.71637299999566,154.71637299999566,154.71637299999566,,004,P018,2025_Mar_07_1811,ConditionRich,2021.2.3,59.92505772421061,
123.75,124.0,41,0.0,Stimuli/Blank.png,0,0,0.0,0,53,53,53,,,,,,,,,,,,,123.77605100000073,0.026051000000734348,None,158.46970590000274,158.46970590000274,158.46970590000274,158.46970590000274,158.46970590000274,158.46970590000274,158.46970590000274,158.46970590000274,158.46970590000274,158.46970590000274,,004,P018,2025_Mar_07_1811,ConditionRich,2021.2.3,59.92505772421061,
124.0,127.75,15,0.75,Stimuli/P018/sun_bobznlnnzwznersx.jpg,0,0,0.0,0,54,54,54,,,,,,,,,,,,,124.00896210000064,0.008962100000644568,None,158.71992799999862,158.71992799999862,158.71992799999862,158.71992799999862,158.71992799999862,158.71992799999862,158.71992799999862,158.71992799999862,158.71992799999862,158.71992799999862,,004,P018,2025_Mar_07_1811,ConditionRich,2021.2.3,59.92505772421061,
127.75,128.0,41,0.0,Stimuli/Blank.png,0,0,0.0,0,55,55,55,,,,,,,,,,,,,127.77884890000132,0.028848900001321454,None,162.4732210000002,162.4732210000002,162.4732210000002,162.4732210000002,162.4732210000002,162.4732210000002,162.4732210000002,162.4732210000002,162.4732210000002,162.4732210000002,,004,P018,2025_Mar_07_1811,ConditionRich,2021.2.3,59.92505772421061,
128.0,131.75,29,0.75,Stimuli/P018/things_face_09s.jpg,0,0,0.0,0,56,56,56,,,,,,,,,,,,,128.01293799999985,0.012937999999849126,None,162.72346529999777,162.72346529999777,162.72346529999777,162.72346529999777,162.72346529999777,162.72346529999777,162.72346529999777,162.72346529999777,162.72346529999777,162.72346529999777,,004,P018,2025_Mar_07_1811,ConditionRich,2021.2.3,59.92505772421061,
131.75,132.0,41,0.0,Stimuli/Blank.png,0,0,0.0,0,57,57,57,,,,,,,,,,,,,131.767130799999,0.017130799998994917,None,166.4767709000007,166.4767709000007,166.4767709000007,166.4767709000007,166.4767709000007,166.4767709000007,166.4767709000007,166.4767709000007,166.4767709000007,166.4767709000007,,004,P018,2025_Mar_07_1811,ConditionRich,2021.2.3,59.92505772421061,
132.0,135.75,12,0.75,Stimuli/P018/sun_bhvaiabdgxjuwoth.jpg,0,0,0.0,0,58,58,58,,,,,,,,,,,,,132.0173861000003,0.01738610000029439,None,166.7270228999987,166.7270228999987,166.7270228999987,166.7270228999987,166.7270228999987,166.7270228999987,166.7270228999987,166.7270228999987,166.7270228999987,166.7270228999987,,004,P018,2025_Mar_07_1811,ConditionRich,2021.2.3,59.92505772421061,
135.75,136.0,41,0.0,Stimuli/Blank.png,0,0,0.0,0,59,59,59,,,,,,,,,,,,,135.76897729999473,0.018977299994730856,None,170.46361639999668,170.46361639999668,170.46361639999668,170.46361639999668,170.46361639999668,170.46361639999668,170.46361639999668,170.46361639999668,170.46361639999668,170.46361639999668,,004,P018,2025_Mar_07_1811,ConditionRich,2021.2.3,59.92505772421061,
136.0,139.75,19,0.75,Stimuli/P018/sun_brrwzaypucosdcgt.jpg,1,2,2.75,0,60,60,60,,,,,,,,,,,,,136.00333899999532,0.003338999995321501,2,170.7138646999956,170.7138646999956,170.7138646999956,170.7138646999956,170.7138646999956,170.7138646999956,172.6822486000019,173.43295829999988,170.7138646999956,170.7138646999956,2.305952700000489,004,P018,2025_Mar_07_1811,ConditionRich,2021.2.3,59.92505772421061,
139.75,140.0,41,0.0,Stimuli/Blank.png,0,0,0.0,0,61,61,61,,,,,,,,,,,,,139.77340539999568,0.023405399995681364,None,174.46717779999744,174.46717779999744,174.46717779999744,174.46717779999744,174.46717779999744,174.46717779999744,174.46717779999744,174.46717779999744,174.46717779999744,174.46717779999744,,004,P018,2025_Mar_07_1811,ConditionRich,2021.2.3,59.92505772421061,
140.0,143.75,7,0.75,Stimuli/P018/sun_auadhqmfjsjtjcue.jpg,0,0,0.0,0,62,62,62,,,,,,,,,,,,,140.00686570000107,0.006865700001071673,None,174.7173885000011,174.7173885000011,174.7173885000011,174.7173885000011,174.7173885000011,174.7173885000011,174.7173885000011,174.7173885000011,174.7173885000011,174.7173885000011,,004,P018,2025_Mar_07_1811,ConditionRich,2021.2.3,59.92505772421061,
143.75,144.0,41,0.0,Stimuli/Blank.png,0,0,0.0,0,63,63,63,,,,,,,,,,,,,143.77690549999534,0.026905499995336868,None,178.47070359999634,178.47070359999634,178.47070359999634,178.47070359999634,178.47070359999634,178.47070359999634,178.47070359999634,178.47070359999634,178.47070359999634,178.47070359999634,,004,P018,2025_Mar_07_1811,ConditionRich,2021.2.3,59.92505772421061,
144.0,147.75,5,0.75,Stimuli/P018/sun_apojgqgvdvsksdvo.jpg,1,3,3.75,0,64,64,64,,,,,,,,,,,,,144.01008079999883,0.010080799998831935,2,178.72092200000043,178.72092200000043,178.72092200000043,178.72092200000043,178.72092200000043,178.72092200000043,181.69023700000253,182.44087379999837,178.72092200000043,178.72092200000043,3.3320918000026722,004,P018,2025_Mar_07_1811,ConditionRich,2021.2.3,59.92505772421061,
147.75,148.0,41,0.0,Stimuli/Blank.png,0,0,0.0,0,65,65,65,,,,,,,,,,,,,147.7802492999981,0.030249299998104107,None,182.47424090000277,182.47424090000277,182.47424090000277,182.47424090000277,182.47424090000277,182.47424090000277,182.47424090000277,182.47424090000277,182.47424090000277,182.47424090000277,,004,P018,2025_Mar_07_1811,ConditionRich,2021.2.3,59.92505772421061,
148.0,151.75,4,0.75,Stimuli/P018/sun_aibvvqlmlsjnrgdj.jpg,0,0,0.0,0,66,66,66,,,,,,,,,,,,,148.01295599999867,0.012955999998666812,None,182.7077752999976,182.7077752999976,182.7077752999976,182.7077752999976,182.7077752999976,182.7077752999976,182.7077752999976,182.7077752999976,182.7077752999976,182.7077752999976,,004,P018,2025_Mar_07_1811,ConditionRich,2021.2.3,59.92505772421061,
151.75,152.0,41,0.0,Stimuli/Blank.png,0,0,0.0,0,67,67,67,,,,,,,,,,,,,151.75209399999585,0.0020939999958500266,None,186.4611122999995,186.4611122999995,186.4611122999995,186.4611122999995,186.4611122999995,186.4611122999995,186.4611122999995,186.4611122999995,186.4611122999995,186.4611122999995,,004,P018,2025_Mar_07_1811,ConditionRich,2021.2.3,59.92505772421061,
152.0,155.75,31,0.75,Stimuli/P018/things_highchair_09s.jpg,0,0,0.0,0,68,68,68,,,,,,,,,,,,,152.01663689999987,0.016636899999866728,None,186.71131530000275,186.71131530000275,186.71131530000275,186.71131530000275,186.71131530000275,186.71131530000275,186.71131530000275,186.71131530000275,186.71131530000275,186.71131530000275,,004,P018,2025_Mar_07_1811,ConditionRich,2021.2.3,59.92505772421061,
155.75,156.0,41,0.0,Stimuli/Blank.png,0,0,0.0,0,69,69,69,,,,,,,,,,,,,155.75317209999776,0.00317209999775514,None,190.44794559999718,190.44794559999718,190.44794559999718,190.44794559999718,190.44794559999718,190.44794559999718,190.44794559999718,190.44794559999718,190.44794559999718,190.44794559999718,,004,P018,2025_Mar_07_1811,ConditionRich,2021.2.3,59.92505772421061,
156.0,159.75,11,0.75,Stimuli/P018/sun_bdzxsadvniuolmio.jpg,0,0,0.0,0,70,70,70,,,,,,,,,,,,,156.0033445999943,0.0033445999943069182,None,190.69816990000254,190.69816990000254,190.69816990000254,190.69816990000254,190.69816990000254,190.69816990000254,190.69816990000254,190.69816990000254,190.69816990000254,190.69816990000254,,004,P018,2025_Mar_07_1811,ConditionRich,2021.2.3,59.92505772421061,
159.75,160.0,41,0.0,Stimuli/Blank.png,0,0,0.0,0,71,71,71,,,,,,,,,,,,,159.75733369999944,0.007333699999435339,None,194.45149449999735,194.45149449999735,194.45149449999735,194.45149449999735,194.45149449999735,194.45149449999735,194.45149449999735,194.45149449999735,194.45149449999735,194.45149449999735,,004,P018,2025_Mar_07_1811,ConditionRich,2021.2.3,59.92505772421061,
160.0,163.75,6,0.75,Stimuli/P018/sun_atuyvunnykjurjgx.jpg,0,0,0.0,0,72,72,72,,,,,,,,,,,,,160.00751129999844,0.007511299998441245,None,194.7183958999958,194.7183958999958,194.7183958999958,194.7183958999958,194.7183958999958,194.7183958999958,194.7183958999958,194.7183958999958,194.7183958999958,194.7183958999958,,004,P018,2025_Mar_07_1811,ConditionRich,2021.2.3,59.92505772421061,
163.75,164.0,41,0.0,Stimuli/Blank.png,0,0,0.0,0,73,73,73,,,,,,,,,,,,,163.77813849999802,0.02813849999802187,None,198.48841800000082,198.48841800000082,198.48841800000082,198.48841800000082,198.48841800000082,198.48841800000082,198.48841800000082,198.48841800000082,198.48841800000082,198.48841800000082,,004,P018,2025_Mar_07_1811,ConditionRich,2021.2.3,59.92505772421061,
164.0,167.75,30,0.75,Stimuli/P018/things_girl_09s.jpg,0,0,0.0,0,74,74,74,,,,,,,,,,,,,164.0280502999958,0.028050299995811656,None,198.73862250000093,198.73862250000093,198.73862250000093,198.73862250000093,198.73862250000093,198.73862250000093,198.73862250000093,198.73862250000093,198.73862250000093,198.73862250000093,,004,P018,2025_Mar_07_1811,ConditionRich,2021.2.3,59.92505772421061,
167.75,168.0,41,0.0,Stimuli/Blank.png,0,0,0.0,0,75,75,75,,,,,,,,,,,,,167.78230769999936,0.03230769999936456,None,202.49196339999617,202.49196339999617,202.49196339999617,202.49196339999617,202.49196339999617,202.49196339999617,202.49196339999617,202.49196339999617,202.49196339999617,202.49196339999617,,004,P018,2025_Mar_07_1811,ConditionRich,2021.2.3,59.92505772421061,
168.0,171.75,33,0.75,Stimuli/P018/things_lamb_09s.jpg,0,0,0.0,0,76,76,76,,,,,,,,,,,,,168.014806399995,0.014806399994995445,None,202.70879269999568,202.70879269999568,202.70879269999568,202.70879269999568,202.70879269999568,202.70879269999568,202.70879269999568,202.70879269999568,202.70879269999568,202.70879269999568,,004,P018,2025_Mar_07_1811,ConditionRich,2021.2.3,59.92505772421061,
171.75,172.0,41,0.0,Stimuli/Blank.png,0,0,0.0,0,77,77,77,,,,,,,,,,,,,171.75262149999617,0.0026214999961666763,None,206.4621246999959,206.4621246999959,206.4621246999959,206.4621246999959,206.4621246999959,206.4621246999959,206.4621246999959,206.4621246999959,206.4621246999959,206.4621246999959,,004,P018,2025_Mar_07_1811,ConditionRich,2021.2.3,59.92505772421061,
172.0,175.75,20,0.75,Stimuli/P018/sun_buukivvfbfhosrng.jpg,0,0,0.0,0,78,78,78,,,,,,,,,,,,,172.01790239999536,0.01790239999536425,None,206.71232939999754,206.71232939999754,206.71232939999754,206.71232939999754,206.71232939999754,206.71232939999754,206.71232939999754,206.71232939999754,206.71232939999754,206.71232939999754,,004,P018,2025_Mar_07_1811,ConditionRich,2021.2.3,59.92505772421061,
175.75,176.0,41,0.0,Stimuli/Blank.png,0,0,0.0,0,79,79,79,,,,,,,,,,,,,175.7546813999943,0.004681399994296953,None,210.4489606999996,210.4489606999996,210.4489606999996,210.4489606999996,210.4489606999996,210.4489606999996,210.4489606999996,210.4489606999996,210.4489606999996,210.4489606999996,,004,P018,2025_Mar_07_1811,ConditionRich,2021.2.3,59.92505772421061,
176.0,179.75,36,0.75,Stimuli/P018/things_nest_09s.jpg,0,0,0.0,0,80,80,80,,,,,,,,,,,,,176.00441419999697,0.004414199996972457,None,210.71586240000033,210.71586240000033,210.71586240000033,210.71586240000033,210.71586240000033,210.71586240000033,210.71586240000033,210.71586240000033,210.71586240000033,210.71586240000033,,004,P018,2025_Mar_07_1811,ConditionRich,2021.2.3,59.92505772421061,
179.75,180.0,41,0.0,Stimuli/Blank.png,0,0,0.0,0,81,81,81,,,,,,,,,,,,,179.77449019999767,0.02449019999767188,None,214.46919279999565,214.46919279999565,214.46919279999565,214.46919279999565,214.46919279999565,214.46919279999565,214.46919279999565,214.46919279999565,214.46919279999565,214.46919279999565,,004,P018,2025_Mar_07_1811,ConditionRich,2021.2.3,59.92505772421061,
180.0,196.0,0,0.0,Stimuli/Blank.png,1,13,13.75,0,82,82,82,,,,,,,,,,,,,180.00789129999612,0.007891299996117596,2,214.70273109999835,214.70273109999835,214.70273109999835,214.70273109999835,214.70273109999835,214.70273109999835,227.68087460000243,228.4315379999971,214.70273109999835,214.70273109999835,13.391314299995429,004,P018,2025_Mar_07_1811,ConditionRich,2021.2.3,59.92505772421061,
196.0,199.75,24,0.75,Stimuli/P018/things_breadbox_09s.jpg,0,0,0.0,0,83,83,83,,,,,,,,,,,,,196.00842769999872,0.008427699998719618,None,230.71689989999868,230.71689989999868,230.71689989999868,230.71689989999868,230.71689989999868,230.71689989999868,230.71689989999868,230.71689989999868,230.71689989999868,230.71689989999868,,004,P018,2025_Mar_07_1811,ConditionRich,2021.2.3,59.92505772421061,
199.75,200.0,41,0.0,Stimuli/Blank.png,0,0,0.0,0,84,84,84,,,,,,,,,,,,,199.77724529999978,0.027245299999776762,None,234.48689030000241,234.48689030000241,234.48689030000241,234.48689030000241,234.48689030000241,234.48689030000241,234.48689030000241,234.48689030000241,234.48689030000241,234.48689030000241,,004,P018,2025_Mar_07_1811,ConditionRich,2021.2.3,59.92505772421061,
200.0,203.75,16,0.75,Stimuli/P018/sun_brfwxjsnmauhmfzf.jpg,0,0,0.0,0,85,85,85,,,,,,,,,,,,,200.027594399995,0.02759439999499591,None,234.73716440000135,234.73716440000135,234.73716440000135,234.73716440000135,234.73716440000135,234.73716440000135,234.73716440000135,234.73716440000135,234.73716440000135,234.73716440000135,,004,P018,2025_Mar_07_1811,ConditionRich,2021.2.3,59.92505772421061,
203.75,204.0,41,0.0,Stimuli/Blank.png,0,0,0.0,0,86,86,86,,,,,,,,,,,,,203.77994499999477,0.029944999994768295,None,238.47382729999663,238.47382729999663,238.47382729999663,238.47382729999663,238.47382729999663,238.47382729999663,238.47382729999663,238.47382729999663,238.47382729999663,238.47382729999663,,004,P018,2025_Mar_07_1811,ConditionRich,2021.2.3,59.92505772421061,
204.0,207.75,35,0.75,Stimuli/P018/things_lobster_09s.jpg,0,0,0.0,0,87,87,87,,,,,,,,,,,,,204.0134548999995,0.01345489999948768,None,238.72396589999698,238.72396589999698,238.72396589999698,238.72396589999698,238.72396589999698,238.72396589999698,238.72396589999698,238.72396589999698,238.72396589999698,238.72396589999698,,004,P018,2025_Mar_07_1811,ConditionRich,2021.2.3,59.92505772421061,
207.75,208.0,41,0.0,Stimuli/Blank.png,0,0,0.0,0,88,88,88,,,,,,,,,,,,,207.76642809999612,0.016428099996119272,None,242.46060099999886,242.46060099999886,242.46060099999886,242.46060099999886,242.46060099999886,242.46060099999886,242.46060099999886,242.46060099999886,242.46060099999886,242.46060099999886,,004,P018,2025_Mar_07_1811,ConditionRich,2021.2.3,59.92505772421061,
208.0,211.75,29,0.75,Stimuli/P018/things_face_09s.jpg,1,2,2.75,0,89,89,89,,,,,,,,,,,,,207.99961349999649,-0.0003865000035148114,2,242.6941372000001,242.6941372000001,242.6941372000001,242.6941372000001,242.6941372000001,242.6941372000001,244.67922800000088,245.4298972999968,242.6941372000001,242.6941372000001,2.3467213999974774,004,P018,2025_Mar_07_1811,ConditionRich,2021.2.3,59.92505772421061,
211.75,212.0,41,0.0,Stimuli/Blank.png,0,0,0.0,0,90,90,90,,,,,,,,,,,,,211.752737099996,0.0027370999960112385,None,246.44745279999916,246.44745279999916,246.44745279999916,246.44745279999916,246.44745279999916,246.44745279999916,246.44745279999916,246.44745279999916,246.44745279999916,246.44745279999916,,004,P018,2025_Mar_07_1811,ConditionRich,2021.2.3,59.92505772421061,
212.0,215.75,23,0.75,Stimuli/P018/things_boy_09s.jpg,0,0,0.0,0,91,91,91,,,,,,,,,,,,,212.00341990000015,0.003419900000153575,None,246.69767709999724,246.69767709999724,246.69767709999724,246.69767709999724,246.69767709999724,246.69767709999724,246.69767709999724,246.69767709999724,246.69767709999724,246.69767709999724,,004,P018,2025_Mar_07_1811,ConditionRich,2021.2.3,59.92505772421061,
215.75,216.0,41,0.0,Stimuli/Blank.png,0,0,0.0,0,92,92,92,,,,,,,,,,,,,215.75678909999988,0.00678909999987809,None,250.4509945000027,250.4509945000027,250.4509945000027,250.4509945000027,250.4509945000027,250.4509945000027,250.4509945000027,250.4509945000027,250.4509945000027,250.4509945000027,,004,P018,2025_Mar_07_1811,ConditionRich,2021.2.3,59.92505772421061,
216.0,219.75,27,0.75,Stimuli/P018/things_coffin_09s.jpg,1,0,0.75,0,93,93,93,,,,,,,,,,,,,216.00706869999703,0.007068699997034855,2,250.71790260000125,250.71790260000125,250.71790260000125,250.71790260000125,250.71790260000125,250.71790260000125,250.71790260000125,251.4351932999998,250.71790260000125,250.71790260000125,0.39499680000153603,004,P018,2025_Mar_07_1811,ConditionRich,2021.2.3,59.92505772421061,
219.75,220.0,41,0.0,Stimuli/Blank.png,0,0,0.0,0,94,94,94,,,,,,,,,,,,,219.77710169999773,0.027101699997729156,None,254.47122189999936,254.47122189999936,254.47122189999936,254.47122189999936,254.47122189999936,254.47122189999936,254.47122189999936,254.47122189999936,254.47122189999936,254.47122189999936,,004,P018,2025_Mar_07_1811,ConditionRich,2021.2.3,59.92505772421061,
220.0,223.75,7,0.75,Stimuli/P018/sun_auadhqmfjsjtjcue.jpg,0,0,0.0,0,95,95,95,,,,,,,,,,,,,220.00981260000117,0.009812600001168903,None,254.7214593999961,254.7214593999961,254.7214593999961,254.7214593999961,254.7214593999961,254.7214593999961,254.7214593999961,254.7214593999961,254.7214593999961,254.7214593999961,,004,P018,2025_Mar_07_1811,ConditionRich,2021.2.3,59.92505772421061,
223.75,224.0,41,0.0,Stimuli/Blank.png,0,0,0.0,0,96,96,96,,,,,,,,,,,,,223.78163949999725,0.03163949999725446,None,258.49145560000034,258.49145560000034,258.49145560000034,258.49145560000034,258.49145560000034,258.49145560000034,258.49145560000034,258.49145560000034,258.49145560000034,258.49145560000034,,004,P018,2025_Mar_07_1811,ConditionRich,2021.2.3,59.92505772421061,
224.0,227.75,28,0.75,Stimuli/P018/things_collar_09s.jpg,0,0,0.0,0,97,97,97,,,,,,,,,,,,,224.0149644999983,0.01496449999831384,None,258.7249899000017,258.7249899000017,258.7249899000017,258.7249899000017,258.7249899000017,258.7249899000017,258.7249899000017,258.7249899000017,258.7249899000017,258.7249899000017,,004,P018,2025_Mar_07_1811,ConditionRich,2021.2.3,59.92505772421061,
227.75,228.0,41,0.0,Stimuli/Blank.png,0,0,0.0,0,98,98,98,,,,,,,,,,,,,227.76735209999606,0.017352099996060133,None,262.46163759999763,262.46163759999763,262.46163759999763,262.46163759999763,262.46163759999763,262.46163759999763,262.46163759999763,262.46163759999763,262.46163759999763,262.46163759999763,,004,P018,2025_Mar_07_1811,ConditionRich,2021.2.3,59.92505772421061,
228.0,231.75,40,0.75,Stimuli/P018/things_woman_09s.jpg,0,0,0.0,0,99,99,99,,,,,,,,,,,,,228.00054879999516,0.0005487999951583333,None,262.6951473000008,262.6951473000008,262.6951473000008,262.6951473000008,262.6951473000008,262.6951473000008,262.6951473000008,262.6951473000008,262.6951473000008,262.6951473000008,,004,P018,2025_Mar_07_1811,ConditionRich,2021.2.3,59.92505772421061,
231.75,232.0,41,0.0,Stimuli/Blank.png,0,0,0.0,0,100,100,100,,,,,,,,,,,,,231.75432799999544,0.004327999995439313,None,266.4484506000008,266.4484506000008,266.4484506000008,266.4484506000008,266.4484506000008,266.4484506000008,266.4484506000008,266.4484506000008,266.4484506000008,266.4484506000008,,004,P018,2025_Mar_07_1811,ConditionRich,2021.2.3,59.92505772421061,
232.0,235.75,11,0.75,Stimuli/P018/sun_bdzxsadvniuolmio.jpg,0,0,0.0,0,101,101,101,,,,,,,,,,,,,232.00442969999858,0.004429699998581782,None,266.69868719999795,266.69868719999795,266.69868719999795,266.69868719999795,266.69868719999795,266.69868719999795,266.69868719999795,266.69868719999795,266.69868719999795,266.69868719999795,,004,P018,2025_Mar_07_1811,ConditionRich,2021.2.3,59.92505772421061,
235.75,236.0,41,0.0,Stimuli/Blank.png,0,0,0.0,0,102,102,102,,,,,,,,,,,,,235.7577323000005,0.007732300000498071,None,270.4520196000012,270.4520196000012,270.4520196000012,270.4520196000012,270.4520196000012,270.4520196000012,270.4520196000012,270.4520196000012,270.4520196000012,270.4520196000012,,004,P018,2025_Mar_07_1811,ConditionRich,2021.2.3,59.92505772421061,
236.0,239.75,8,0.75,Stimuli/P018/sun_axsmqyyvebrcuhkn.jpg,0,0,0.0,0,103,103,103,,,,,,,,,,,,,236.00795120000112,0.007951200001116376,None,270.7022280000019,270.7022280000019,270.7022280000019,270.7022280000019,270.7022280000019,270.7022280000019,270.7022280000019,270.7022280000019,270.7022280000019,270.7022280000019,,004,P018,2025_Mar_07_1811,ConditionRich,2021.2.3,59.92505772421061,
239.75,240.0,41,0.0,Stimuli/Blank.png,0,0,0.0,0,104,104,104,,,,,,,,,,,,,239.76258409999718,0.01258409999718424,None,274.47223400000075,274.47223400000075,274.47223400000075,274.47223400000075,274.47223400000075,274.47223400000075,274.47223400000075,274.47223400000075,274.47223400000075,274.47223400000075,,004,P018,2025_Mar_07_1811,ConditionRich,2021.2.3,59.92505772421061,
240.0,243.75,17,0.75,Stimuli/P018/sun_brhndfjxyigqgiwl.jpg,0,0,0.0,0,105,105,105,,,,,,,,,,,,,240.0281102000008,0.028110200000810437,None,274.7224569000027,274.7224569000027,274.7224569000027,274.7224569000027,274.7224569000027,274.7224569000027,274.7224569000027,274.7224569000027,274.7224569000027,274.7224569000027,,004,P018,2025_Mar_07_1811,ConditionRich,2021.2.3,59.92505772421061,
243.75,244.0,41,0.0,Stimuli/Blank.png,0,0,0.0,0,106,106,106,,,,,,,,,,,,,243.76706759999797,0.017067599997972138,None,278.4759350000022,278.4759350000022,278.4759350000022,278.4759350000022,278.4759350000022,278.4759350000022,278.4759350000022,278.4759350000022,278.4759350000022,278.4759350000022,,004,P018,2025_Mar_07_1811,ConditionRich,2021.2.3,59.92505772421061,
244.0,247.75,19,0.75,Stimuli/P018/sun_brrwzaypucosdcgt.jpg,1,1,1.75,0,107,107,107,,,,,,,,,,,,,244.01693990000058,0.016939900000579655,2,278.7260126999972,278.7260126999972,278.7260126999972,278.7260126999972,278.7260126999972,278.7260126999972,279.71021969999856,280.46085909999965,278.7260126999972,278.7260126999972,1.3518335000044317,004,P018,2025_Mar_07_1811,ConditionRich,2021.2.3,59.92505772421061,
247.75,248.0,41,0.0,Stimuli/Blank.png,0,0,0.0,0,108,108,108,,,,,,,,,,,,,247.7678711999979,0.017871199997898657,None,282.4626317000002,282.4626317000002,282.4626317000002,282.4626317000002,282.4626317000002,282.4626317000002,282.4626317000002,282.4626317000002,282.4626317000002,282.4626317000002,,004,P018,2025_Mar_07_1811,ConditionRich,2021.2.3,59.92505772421061,
248.0,251.75,15,0.75,Stimuli/P018/sun_bobznlnnzwznersx.jpg,0,0,0.0,0,109,109,109,,,,,,,,,,,,,248.00201129999914,0.0020112999991397373,None,282.7128576999967,282.7128576999967,282.7128576999967,282.7128576999967,282.7128576999967,282.7128576999967,282.7128576999967,282.7128576999967,282.7128576999967,282.7128576999967,,004,P018,2025_Mar_07_1811,ConditionRich,2021.2.3,59.92505772421061,
251.75,252.0,41,0.0,Stimuli/Blank.png,0,0,0.0,0,110,110,110,,,,,,,,,,,,,251.7719264999978,0.021926499997789506,None,286.46616730000096,286.46616730000096,286.46616730000096,286.46616730000096,286.46616730000096,286.46616730000096,286.46616730000096,286.46616730000096,286.46616730000096,286.46616730000096,,004,P018,2025_Mar_07_1811,ConditionRich,2021.2.3,59.92505772421061,
252.0,255.75,26,0.75,Stimuli/P018/things_chandelier_09s.jpg,0,0,0.0,0,111,111,111,,,,,,,,,,,,,252.00704949999636,0.007049499996355735,None,286.71640269999625,286.71640269999625,286.71640269999625,286.71640269999625,286.71640269999625,286.71640269999625,286.71640269999625,286.71640269999625,286.71640269999625,286.71640269999625,,004,P018,2025_Mar_07_1811,ConditionRich,2021.2.3,59.92505772421061,
255.75,256.0,41,0.0,Stimuli/Blank.png,0,0,0.0,0,112,112,112,,,,,,,,,,,,,255.77747149999777,0.027471499997773208,None,290.4863989000005,290.4863989000005,290.4863989000005,290.4863989000005,290.4863989000005,290.4863989000005,290.4863989000005,290.4863989000005,290.4863989000005,290.4863989000005,,004,P018,2025_Mar_07_1811,ConditionRich,2021.2.3,59.92505772421061,
256.0,259.75,36,0.75,Stimuli/P018/things_nest_09s.jpg,0,0,0.0,0,113,113,113,,,,,,,,,,,,,256.0265656999982,0.02656569999817293,None,290.7366125999979,290.7366125999979,290.7366125999979,290.7366125999979,290.7366125999979,290.7366125999979,290.7366125999979,290.7366125999979,290.7366125999979,290.7366125999979,,004,P018,2025_Mar_07_1811,ConditionRich,2021.2.3,59.92505772421061,
259.75,260.0,41,0.0,Stimuli/Blank.png,0,0,0.0,0,114,114,114,,,,,,,,,,,,,259.7782503999988,0.028250399998796638,None,294.4732581999997,294.4732581999997,294.4732581999997,294.4732581999997,294.4732581999997,294.4732581999997,294.4732581999997,294.4732581999997,294.4732581999997,294.4732581999997,,004,P018,2025_Mar_07_1811,ConditionRich,2021.2.3,59.92505772421061,
260.0,263.75,34,0.75,Stimuli/P018/things_llama_09s.jpg,0,0,0.0,0,115,115,115,,,,,,,,,,,,,260.0133624000009,0.013362400000914931,None,294.7067870999963,294.7067870999963,294.7067870999963,294.7067870999963,294.7067870999963,294.7067870999963,294.7067870999963,294.7067870999963,294.7067870999963,294.7067870999963,,004,P018,2025_Mar_07_1811,ConditionRich,2021.2.3,59.92505772421061,
263.75,264.0,41,0.0,Stimuli/Blank.png,0,0,0.0,0,116,116,116,,,,,,,,,,,,,263.74865259999933,-0.0013474000006681308,None,298.44341610000265,298.44341610000265,298.44341610000265,298.44341610000265,298.44341610000265,298.44341610000265,298.44341610000265,298.44341610000265,298.44341610000265,298.44341610000265,,004,P018,2025_Mar_07_1811,ConditionRich,2021.2.3,59.92505772421061,
264.0,267.75,10,0.75,Stimuli/P018/sun_bayxprasninnrnle.jpg,0,0,0.0,0,117,117,117,,,,,,,,,,,,,264.0177098999993,0.017709899999317713,None,298.72700749999785,298.72700749999785,298.72700749999785,298.72700749999785,298.72700749999785,298.72700749999785,298.72700749999785,298.72700749999785,298.72700749999785,298.72700749999785,,004,P018,2025_Mar_07_1811,ConditionRich,2021.2.3,59.92505772421061,
267.75,268.0,41,0.0,Stimuli/Blank.png,0,0,0.0,0,118,118,118,,,,,,,,,,,,,267.7694081000009,0.019408100000873674,None,302.46363779999956,302.46363779999956,302.46363779999956,302.46363779999956,302.46363779999956,302.46363779999956,302.46363779999956,302.46363779999956,302.46363779999956,302.46363779999956,,004,P018,2025_Mar_07_1811,ConditionRich,2021.2.3,59.92505772421061,
268.0,271.75,32,0.75,Stimuli/P018/things_horse_09s.jpg,0,0,0.0,0,119,119,119,,,,,,,,,,,,,268.0037005999984,0.0037005999984103255,None,302.71386730000086,302.71386730000086,302.71386730000086,302.71386730000086,302.71386730000086,302.71386730000086,302.71386730000086,302.71386730000086,302.71386730000086,302.71386730000086,,004,P018,2025_Mar_07_1811,ConditionRich,2021.2.3,59.92505772421061,
271.75,272.0,41,0.0,Stimuli/Blank.png,0,0,0.0,0,120,120,120,,,,,,,,,,,,,271.77373539999826,0.0237353999982588,None,306.4671853999971,306.4671853999971,306.4671853999971,306.4671853999971,306.4671853999971,306.4671853999971,306.4671853999971,306.4671853999971,306.4671853999971,306.4671853999971,,004,P018,2025_Mar_07_1811,ConditionRich,2021.2.3,59.92505772421061,
272.0,275.75,31,0.75,Stimuli/P018/things_highchair_09s.jpg,1,3,3.75,0,121,121,121,,,,,,,,,,,,,272.0069235999981,0.0069235999981174245,2,306.71740590000263,306.71740590000263,306.71740590000263,306.71740590000263,306.71740590000263,306.71740590000263,309.6866923999987,310.4373467999976,306.71740590000263,306.71740590000263,3.3134968999947887,004,P018,2025_Mar_07_1811,ConditionRich,2021.2.3,59.92505772421061,
275.75,276.0,41,0.0,Stimuli/Blank.png,0,0,0.0,0,122,122,122,,,,,,,,,,,,,275.777416500001,0.027416500000981614,None,310.470739999997,310.470739999997,310.470739999997,310.470739999997,310.470739999997,310.470739999997,310.470739999997,310.470739999997,310.470739999997,310.470739999997,,004,P018,2025_Mar_07_1811,ConditionRich,2021.2.3,59.92505772421061,
276.0,292.0,0,0.0,Stimuli/Blank.png,1,5,5.75,0,123,123,123,,,,,,,,,,,,,276.0099260999996,0.009926099999574944,2,310.70433310000226,310.70433310000226,310.70433310000226,310.70433310000226,310.70433310000226,310.70433310000226,315.6919990999959,316.4426611000017,310.70433310000226,310.70433310000226,5.439638500000001,004,P018,2025_Mar_07_1811,ConditionRich,2021.2.3,59.92505772421061,
292.0,295.75,2,0.75,Stimuli/P018/sun_acliytrpktltxwsx.jpg,0,0,0.0,0,124,124,124,,,,,,,,,,,,,292.0075873999958,0.007587399995827582,None,326.7184355999998,326.7184355999998,326.7184355999998,326.7184355999998,326.7184355999998,326.7184355999998,326.7184355999998,326.7184355999998,326.7184355999998,326.7184355999998,,004,P018,2025_Mar_07_1811,ConditionRich,2021.2.3,59.92505772421061,
295.75,296.0,41,0.0,Stimuli/Blank.png,0,0,0.0,0,125,125,125,,,,,,,,,,,,,295.7774231000003,0.027423100000305567,None,330.4717290999979,330.4717290999979,330.4717290999979,330.4717290999979,330.4717290999979,330.4717290999979,330.4717290999979,330.4717290999979,330.4717290999979,330.4717290999979,,004,P018,2025_Mar_07_1811,ConditionRich,2021.2.3,59.92505772421061,
296.0,299.75,9,0.75,Stimuli/P018/sun_ayidxslzurdumeps.jpg,0,0,0.0,0,126,126,126,,,,,,,,,,,,,296.0133285999982,0.013328599998203572,None,330.72197420000157,330.72197420000157,330.72197420000157,330.72197420000157,330.72197420000157,330.72197420000157,330.72197420000157,330.72197420000157,330.72197420000157,330.72197420000157,,004,P018,2025_Mar_07_1811,ConditionRich,2021.2.3,59.92505772421061,
299.75,300.0,41,0.0,Stimuli/Blank.png,0,0,0.0,0,127,127,127,,,,,,,,,,,,,299.7643032999986,0.014303299998573493,None,334.4585926,334.4585926,334.4585926,334.4585926,334.4585926,334.4585926,334.4585926,334.4585926,334.4585926,334.4585926,,004,P018,2025_Mar_07_1811,ConditionRich,2021.2.3,59.92505772421061,
300.0,303.75,1,0.75,Stimuli/P018/sun_aawmwfqqbzauhqkb.jpg,0,0,0.0,0,128,128,128,,,,,,,,,,,,,300.01543200000015,0.015432000000146218,None,334.7254926000023,334.7254926000023,334.7254926000023,334.7254926000023,334.7254926000023,334.7254926000023,334.7254926000023,334.7254926000023,334.7254926000023,334.7254926000023,,004,P018,2025_Mar_07_1811,ConditionRich,2021.2.3,59.92505772421061,
303.75,304.0,41,0.0,Stimuli/Blank.png,0,0,0.0,0,129,129,129,,,,,,,,,,,,,303.767949699999,0.017949699999007862,None,338.46213120000175,338.46213120000175,338.46213120000175,338.46213120000175,338.46213120000175,338.46213120000175,338.46213120000175,338.46213120000175,338.46213120000175,338.46213120000175,,004,P018,2025_Mar_07_1811,ConditionRich,2021.2.3,59.92505772421061,
304.0,307.75,13,0.75,Stimuli/P018/sun_bizqwyomkqigheyx.jpg,1,3,3.75,0,130,130,130,,,,,,,,,,,,,304.002095799995,0.0020957999950041994,2,338.7123907999994,338.7123907999994,338.7123907999994,338.7123907999994,338.7123907999994,338.7123907999994,341.6816350000008,342.432306900002,338.7123907999994,338.7123907999994,3.394790999998804,004,P018,2025_Mar_07_1811,ConditionRich,2021.2.3,59.92505772421061,
307.75,308.0,41,0.0,Stimuli/Blank.png,0,0,0.0,0,131,131,131,,,,,,,,,,,,,307.7716531999977,0.021653199997672345,None,342.4656746999972,342.4656746999972,342.4656746999972,342.4656746999972,342.4656746999972,342.4656746999972,342.4656746999972,342.4656746999972,342.4656746999972,342.4656746999972,,004,P018,2025_Mar_07_1811,ConditionRich,2021.2.3,59.92505772421061,
308.0,311.75,12,0.75,Stimuli/P018/sun_bhvaiabdgxjuwoth.jpg,0,0,0.0,0,132,132,132,,,,,,,,,,,,,308.0044895999963,0.004489599996304605,None,342.69919949999894,342.69919949999894,342.69919949999894,342.69919949999894,342.69919949999894,342.69919949999894,342.69919949999894,342.69919949999894,342.69919949999894,342.69919949999894,,004,P018,2025_Mar_07_1811,ConditionRich,2021.2.3,59.92505772421061,
311.75,312.0,41,0.0,Stimuli/Blank.png,0,0,0.0,0,133,133,133,,,,,,,,,,,,,311.7582834999994,0.008283499999379274,None,346.4525259000002,346.4525259000002,346.4525259000002,346.4525259000002,346.4525259000002,346.4525259000002,346.4525259000002,346.4525259000002,346.4525259000002,346.4525259000002,,004,P018,2025_Mar_07_1811,ConditionRich,2021.2.3,59.92505772421061,
312.0,315.75,5,0.75,Stimuli/P018/sun_apojgqgvdvsksdvo.jpg,0,0,0.0,0,134,134,134,,,,,,,,,,,,,312.0078332999983,0.007833299998310395,None,346.70274380000046,346.70274380000046,346.70274380000046,346.70274380000046,346.70274380000046,346.70274380000046,346.70274380000046,346.70274380000046,346.70274380000046,346.70274380000046,,004,P018,2025_Mar_07_1811,ConditionRich,2021.2.3,59.92505772421061,
315.75,316.0,41,0.0,Stimuli/Blank.png,0,0,0.0,0,135,135,135,,,,,,,,,,,,,315.76166889999877,0.011668899998767301,None,350.4560197000028,350.4560197000028,350.4560197000028,350.4560197000028,350.4560197000028,350.4560197000028,350.4560197000028,350.4560197000028,350.4560197000028,350.4560197000028,,004,P018,2025_Mar_07_1811,ConditionRich,2021.2.3,59.92505772421061,
316.0,319.75,37,0.75,Stimuli/P018/things_plastic_film_09s.jpg,0,0,0.0,0,136,136,136,,,,,,,,,,,,,316.01336679999804,0.013366799998038914,None,350.7229606999972,350.7229606999972,350.7229606999972,350.7229606999972,350.7229606999972,350.7229606999972,350.7229606999972,350.7229606999972,350.7229606999972,350.7229606999972,,004,P018,2025_Mar_07_1811,ConditionRich,2021.2.3,59.92505772421061,
319.75,320.0,41,0.0,Stimuli/Blank.png,0,0,0.0,0,137,137,137,,,,,,,,,,,,,319.76570640000136,0.015706400001363363,None,354.45961639999587,354.45961639999587,354.45961639999587,354.45961639999587,354.45961639999587,354.45961639999587,354.45961639999587,354.45961639999587,354.45961639999587,354.45961639999587,,004,P018,2025_Mar_07_1811,ConditionRich,2021.2.3,59.92505772421061,
320.0,323.75,22,0.75,Stimuli/P018/things_boat_09s.jpg,0,0,0.0,0,138,138,138,,,,,,,,,,,,,319.998442600001,-0.0015573999990010634,None,354.7098545999979,354.7098545999979,354.7098545999979,354.7098545999979,354.7098545999979,354.7098545999979,354.7098545999979,354.7098545999979,354.7098545999979,354.7098545999979,,004,P018,2025_Mar_07_1811,ConditionRich,2021.2.3,59.92505772421061,
323.75,324.0,41,0.0,Stimuli/Blank.png,0,0,0.0,0,139,139,139,,,,,,,,,,,,,323.7683370999948,0.018337099994823802,None,358.46313889999874,358.46313889999874,358.46313889999874,358.46313889999874,358.46313889999874,358.46313889999874,358.46313889999874,358.46313889999874,358.46313889999874,358.46313889999874,,004,P018,2025_Mar_07_1811,ConditionRich,2021.2.3,59.92505772421061,
324.0,327.75,30,0.75,Stimuli/P018/things_girl_09s.jpg,0,0,0.0,0,140,140,140,,,,,,,,,,,,,324.00244139999995,0.0024413999999524094,None,358.7133748999986,358.7133748999986,358.7133748999986,358.7133748999986,358.7133748999986,358.7133748999986,358.7133748999986,358.7133748999986,358.7133748999986,358.7133748999986,,004,P018,2025_Mar_07_1811,ConditionRich,2021.2.3,59.92505772421061,
327.75,328.0,41,0.0,Stimuli/Blank.png,0,0,0.0,0,141,141,141,,,,,,,,,,,,,327.77302860000054,0.02302860000054352,None,362.4666814000011,362.4666814000011,362.4666814000011,362.4666814000011,362.4666814000011,362.4666814000011,362.4666814000011,362.4666814000011,362.4666814000011,362.4666814000011,,004,P018,2025_Mar_07_1811,ConditionRich,2021.2.3,59.92505772421061,
328.0,331.75,14,0.75,Stimuli/P018/sun_bljpqnfmmqkjsfvx.jpg,1,2,2.75,0,142,142,142,,,,,,,,,,,,,328.00754210000014,0.0075421000001369976,None,362.7169078000006,362.7169078000006,362.7169078000006,362.7169078000006,362.7169078000006,362.7169078000006,364.70198959999834,365.4526482000001,362.7169078000006,362.7169078000006,,004,P018,2025_Mar_07_1811,ConditionRich,2021.2.3,59.92505772421061,
331.75,332.0,41,0.0,Stimuli/Blank.png,0,0,0.0,0,143,143,143,,,,,,,,,,,,,331.77794499999436,0.027944999994360842,None,366.48689639999793,366.48689639999793,366.48689639999793,366.48689639999793,366.48689639999793,366.48689639999793,366.48689639999793,366.48689639999793,366.48689639999793,366.48689639999793,,004,P018,2025_Mar_07_1811,ConditionRich,2021.2.3,59.92505772421061,
332.0,335.75,38,0.75,Stimuli/P018/things_pony_09s.jpg,0,0,0.0,0,144,144,144,,,,,,,,,,,,,332.0281352999955,0.028135299995483365,None,366.7371292000025,366.7371292000025,366.7371292000025,366.7371292000025,366.7371292000025,366.7371292000025,366.7371292000025,366.7371292000025,366.7371292000025,366.7371292000025,,004,P018,2025_Mar_07_1811,ConditionRich,2021.2.3,59.92505772421061,
335.75,336.0,41,0.0,Stimuli/Blank.png,0,0,0.0,0,145,145,145,,,,,,,,,,,,,335.7799821000008,0.02998210000077961,None,370.47376090000034,370.47376090000034,370.47376090000034,370.47376090000034,370.47376090000034,370.47376090000034,370.47376090000034,370.47376090000034,370.47376090000034,370.47376090000034,,004,P018,2025_Mar_07_1811,ConditionRich,2021.2.3,59.92505772421061,
336.0,339.75,25,0.75,Stimuli/P018/things_cannonball_09s.jpg,1,1,1.75,0,146,146,146,,,,,,,,,,,,,336.01365480000095,0.013654800000949763,2,370.7240030999965,370.7240030999965,370.7240030999965,370.7240030999965,370.7240030999965,370.7240030999965,371.69149160000234,372.44217429999844,370.7240030999965,370.7240030999965,1.3838653999991948,004,P018,2025_Mar_07_1811,ConditionRich,2021.2.3,59.92505772421061,
339.75,340.0,41,0.0,Stimuli/Blank.png,0,0,0.0,0,147,147,147,,,,,,,,,,,,,339.76651519999723,0.0165151999972295,None,374.46061650000047,374.46061650000047,374.46061650000047,374.46061650000047,374.46061650000047,374.46061650000047,374.46061650000047,374.46061650000047,374.46061650000047,374.46061650000047,,004,P018,2025_Mar_07_1811,ConditionRich,2021.2.3,59.92505772421061,
340.0,343.75,21,0.75,Stimuli/P018/things_baby_09s.jpg,0,0,0.0,0,148,148,148,,,,,,,,,,,,,339.9992729000005,-0.000727099999494385,None,374.7108582000001,374.7108582000001,374.7108582000001,374.7108582000001,374.7108582000001,374.7108582000001,374.7108582000001,374.7108582000001,374.7108582000001,374.7108582000001,,004,P018,2025_Mar_07_1811,ConditionRich,2021.2.3,59.92505772421061,
343.75,344.0,41,0.0,Stimuli/Blank.png,0,0,0.0,0,149,149,149,,,,,,,,,,,,,343.7694119000007,0.019411900000704918,None,378.4641585999998,378.4641585999998,378.4641585999998,378.4641585999998,378.4641585999998,378.4641585999998,378.4641585999998,378.4641585999998,378.4641585999998,378.4641585999998,,004,P018,2025_Mar_07_1811,ConditionRich,2021.2.3,59.92505772421061,
344.0,347.75,3,0.75,Stimuli/P018/sun_acymmczhyuiimeub.jpg,0,0,0.0,0,150,150,150,,,,,,,,,,,,,344.00291179999476,0.002911799994762987,None,378.6976932999969,378.6976932999969,378.6976932999969,378.6976932999969,378.6976932999969,378.6976932999969,378.6976932999969,378.6976932999969,378.6976932999969,378.6976932999969,,004,P018,2025_Mar_07_1811,ConditionRich,2021.2.3,59.92505772421061,
347.75,348.0,41,0.0,Stimuli/Blank.png,0,0,0.0,0,151,151,151,,,,,,,,,,,,,347.75676259999454,0.006762599994544871,None,382.4510154000018,382.4510154000018,382.4510154000018,382.4510154000018,382.4510154000018,382.4510154000018,382.4510154000018,382.4510154000018,382.4510154000018,382.4510154000018,,004,P018,2025_Mar_07_1811,ConditionRich,2021.2.3,59.92505772421061,
348.0,351.75,20,0.75,Stimuli/P018/sun_buukivvfbfhosrng.jpg,0,0,0.0,0,152,152,152,,,,,,,,,,,,,348.007804199995,0.007804199995007366,None,382.71794229999796,382.71794229999796,382.71794229999796,382.71794229999796,382.71794229999796,382.71794229999796,382.71794229999796,382.71794229999796,382.71794229999796,382.71794229999796,,004,P018,2025_Mar_07_1811,ConditionRich,2021.2.3,59.92505772421061,
351.75,352.0,41,0.0,Stimuli/Blank.png,0,0,0.0,0,153,153,153,,,,,,,,,,,,,351.77636399999756,0.026363999997556675,None,386.47126130000106,386.47126130000106,386.47126130000106,386.47126130000106,386.47126130000106,386.47126130000106,386.47126130000106,386.47126130000106,386.47126130000106,386.47126130000106,,004,P018,2025_Mar_07_1811,ConditionRich,2021.2.3,59.92505772421061,
352.0,355.75,18,0.75,Stimuli/P018/sun_brrvvswweljrvnlq.jpg,1,2,2.75,0,154,154,154,,,,,,,,,,,,,352.01238680000097,0.012386800000967924,2,386.7214690999972,386.7214690999972,386.7214690999972,386.7214690999972,386.7214690999972,386.7214690999972,388.70654359999753,389.4572098999997,386.7214690999972,386.7214690999972,2.3754770000014105,004,P018,2025_Mar_07_1811,ConditionRich,2021.2.3,59.92505772421061,
355.75,356.0,41,0.0,Stimuli/Blank.png,0,0,0.0,0,155,155,155,,,,,,,,,,,,,355.78217259999656,0.03217259999655653,None,390.4914562999984,390.4914562999984,390.4914562999984,390.4914562999984,390.4914562999984,390.4914562999984,390.4914562999984,390.4914562999984,390.4914562999984,390.4914562999984,,004,P018,2025_Mar_07_1811,ConditionRich,2021.2.3,59.92505772421061,
356.0,359.75,39,0.75,Stimuli/P018/things_veil_09s.jpg,0,0,0.0,0,156,156,156,,,,,,,,,,,,,356.01403310000023,0.01403310000023339,None,390.7250048999995,390.7250048999995,390.7250048999995,390.7250048999995,390.7250048999995,390.7250048999995,390.7250048999995,390.7250048999995,390.7250048999995,390.7250048999995,,004,P018,2025_Mar_07_1811,ConditionRich,2021.2.3,59.92505772421061,
359.75,360.0,41,0.0,Stimuli/Blank.png,0,0,0.0,0,157,157,157,,,,,,,,,,,,,359.7688826999947,0.018882699994719587,None,394.46162750000076,394.46162750000076,394.46162750000076,394.46162750000076,394.46162750000076,394.46162750000076,394.46162750000076,394.46162750000076,394.46162750000076,394.46162750000076,,004,P018,2025_Mar_07_1811,ConditionRich,2021.2.3,59.92505772421061,
360.0,363.75,6,0.75,Stimuli/P018/sun_atuyvunnykjurjgx.jpg,0,0,0.0,0,158,158,158,,,,,,,,,,,,,360.0014616999979,0.0014616999978898093,None,394.71184560000256,394.71184560000256,394.71184560000256,394.71184560000256,394.71184560000256,394.71184560000256,394.71184560000256,394.71184560000256,394.71184560000256,394.71184560000256,,004,P018,2025_Mar_07_1811,ConditionRich,2021.2.3,59.92505772421061,
363.75,364.0,41,0.0,Stimuli/Blank.png,0,0,0.0,0,159,159,159,,,,,,,,,,,,,363.77237539999624,0.0223753999962355,None,398.4818658000004,398.4818658000004,398.4818658000004,398.4818658000004,398.4818658000004,398.4818658000004,398.4818658000004,398.4818658000004,398.4818658000004,398.4818658000004,,004,P018,2025_Mar_07_1811,ConditionRich,2021.2.3,59.92505772421061,
364.0,367.75,4,0.75,Stimuli/P018/sun_aibvvqlmlsjnrgdj.jpg,0,0,0.0,0,160,160,160,,,,,,,,,,,,,364.0226349000004,0.022634900000412017,None,398.73207980000007,398.73207980000007,398.73207980000007,398.73207980000007,398.73207980000007,398.73207980000007,398.73207980000007,398.73207980000007,398.73207980000007,398.73207980000007,,004,P018,2025_Mar_07_1811,ConditionRich,2021.2.3,59.92505772421061,
367.75,368.0,41,0.0,Stimuli/Blank.png,0,0,0.0,0,161,161,161,,,,,,,,,,,,,367.7739475999988,0.023947599998791702,None,402.46870820000186,402.46870820000186,402.46870820000186,402.46870820000186,402.46870820000186,402.46870820000186,402.46870820000186,402.46870820000186,402.46870820000186,402.46870820000186,,004,P018,2025_Mar_07_1811,ConditionRich,2021.2.3,59.92505772421061,
368.0,371.75,33,0.75,Stimuli/P018/things_lamb_09s.jpg,0,0,0.0,0,162,162,162,,,,,,,,,,,,,368.00801939999656,0.008019399996555876,None,402.7189514999991,402.7189514999991,402.7189514999991,402.7189514999991,402.7189514999991,402.7189514999991,402.7189514999991,402.7189514999991,402.7189514999991,402.7189514999991,,004,P018,2025_Mar_07_1811,ConditionRich,2021.2.3,59.92505772421061,
371.75,372.0,41,0.0,Stimuli/Blank.png,0,0,0.0,0,163,163,163,,,,,,,,,,,,,371.77864509999927,0.028645099999266677,None,406.4722601999965,406.4722601999965,406.4722601999965,406.4722601999965,406.4722601999965,406.4722601999965,406.4722601999965,406.4722601999965,406.4722601999965,406.4722601999965,,004,P018,2025_Mar_07_1811,ConditionRich,2021.2.3,59.92505772421061,
372.0,388.0,0,0.0,Stimuli/Blank.png,1,1,1.75,0,164,164,164,,,,,,,,,,,,,372.0108805999989,0.01088059999892721,2,406.72251400000096,406.72251400000096,406.72251400000096,406.72251400000096,406.72251400000096,406.72251400000096,407.689999000002,408.44067679999716,406.72251400000096,406.72251400000096,1.3453559999979916,004,P018,2025_Mar_07_1811,ConditionRich,2021.2.3,59.92505772421061,
