eventStartTime,eventEndTime,eventCond,imSize,imFile,responseEvent,fixRespStart,fixRespEnd,Events.thisRepN,Events.thisTrialN,Events.thisN,Events.thisIndex,Instructions.started,Instructions.stopped,participantReadyResponse.keys,participantReadyResponse.rt,participantReadyResponse.started,participantReadyResponse.stopped,startWaitforTrigger,triggerResponse.keys,triggerResponse.rt,triggerResponse.started,triggerResponse.stopped,globalTimer,actualStartTime,startTimingDiff,participantResponse.keys,participantResponse.started,participantResponse.stopped,image.started,image.stopped,fixationOutside.started,fixationOutside.stopped,fixationResponse.started,fixationResponse.stopped,fixationInside.started,fixationInside.stopped,participantResponse.rt,session,participant,date,expName,psychopyVersion,frameRate,
,,,,,,,,,,,,10.809206199999608,None,1,9.789707499999167,10.809206199999608,None,,,,,,,,,,,,,,,,,,,,,002,P019,2025_Mar_21_0948,ConditionRich,2021.2.3,59.920605198265065,
,,,,,,,,,,,,,,,,,,20.60877099999925,5,14.41856850000022,20.622757000000092,None,,,,,,,,,,,,,,,,002,P019,2025_Mar_21_0948,ConditionRich,2021.2.3,59.920605198265065,
0.0,4.0,0,0.0,Stimuli/Blank.png,0,0,0.0,0,0,0,0,,,,,,,,,,,,35.05593349999981,0.07531289999951696,0.07531289999951696,None,35.152257499999905,None,35.152257499999905,None,35.152257499999905,None,35.152257499999905,35.152257499999905,35.152257499999905,None,,002,P019,2025_Mar_21_0948,ConditionRich,2021.2.3,59.920605198265065,
4.0,4.75,40,0.75,Stimuli/P019/things_woman_10s.jpg,0,0,0.0,0,1,1,1,,,,,,,,,,,,,4.021597199999633,0.02159719999963272,None,39.10603420000007,39.10603420000007,39.10603420000007,39.10603420000007,39.10603420000007,39.10603420000007,39.10603420000007,39.10603420000007,39.10603420000007,39.10603420000007,,002,P019,2025_Mar_21_0948,ConditionRich,2021.2.3,59.920605198265065,
4.75,5.0,41,0.0,Stimuli/Blank.png,0,0,0.0,0,2,2,2,,,,,,,,,,,,,4.770048599999427,0.020048599999427097,None,39.84002119999968,39.84002119999968,39.84002119999968,39.84002119999968,39.84002119999968,39.84002119999968,39.84002119999968,39.84002119999968,39.84002119999968,39.84002119999968,,002,P019,2025_Mar_21_0948,ConditionRich,2021.2.3,59.920605198265065,
5.0,5.75,40,0.75,Stimuli/P019/things_woman_10s.jpg,0,0,0.0,0,3,3,3,,,,,,,,,,,,,5.004749599999741,0.004749599999740894,None,40.08996299999944,40.08996299999944,40.08996299999944,40.08996299999944,40.08996299999944,40.08996299999944,40.08996299999944,40.08996299999944,40.08996299999944,40.08996299999944,,002,P019,2025_Mar_21_0948,ConditionRich,2021.2.3,59.920605198265065,
5.75,6.0,41,0.0,Stimuli/Blank.png,0,0,0.0,0,4,4,4,,,,,,,,,,,,,5.7702315999995335,0.0202315999995335,None,40.840619499999775,40.840619499999775,40.840619499999775,40.840619499999775,40.840619499999775,40.840619499999775,40.840619499999775,40.840619499999775,40.840619499999775,40.840619499999775,,002,P019,2025_Mar_21_0948,ConditionRich,2021.2.3,59.920605198265065,
6.0,6.75,40,0.75,Stimuli/P019/things_woman_10s.jpg,0,0,0.0,0,5,5,5,,,,,,,,,,,,,6.005280200000016,0.005280200000015611,None,41.09083979999923,41.09083979999923,41.09083979999923,41.09083979999923,41.09083979999923,41.09083979999923,41.09083979999923,41.09083979999923,41.09083979999923,41.09083979999923,,002,P019,2025_Mar_21_0948,ConditionRich,2021.2.3,59.920605198265065,
6.75,7.0,41,0.0,Stimuli/Blank.png,0,0,0.0,0,6,6,6,,,,,,,,,,,,,6.772107599999799,0.022107599999799277,None,41.84150270000009,41.84150270000009,41.84150270000009,41.84150270000009,41.84150270000009,41.84150270000009,41.84150270000009,41.84150270000009,41.84150270000009,41.84150270000009,,002,P019,2025_Mar_21_0948,ConditionRich,2021.2.3,59.920605198265065,
7.0,7.75,40,0.75,Stimuli/P019/things_woman_10s.jpg,0,0,0.0,0,7,7,7,,,,,,,,,,,,,7.004541999999674,0.0045419999996738625,None,42.075037199999315,42.075037199999315,42.075037199999315,42.075037199999315,42.075037199999315,42.075037199999315,42.075037199999315,42.075037199999315,42.075037199999315,42.075037199999315,,002,P019,2025_Mar_21_0948,ConditionRich,2021.2.3,59.920605198265065,
7.75,8.0,41,0.0,Stimuli/Blank.png,0,0,0.0,0,8,8,8,,,,,,,,,,,,,7.75586309999926,0.005863099999260157,None,42.825703199999225,42.825703199999225,42.825703199999225,42.825703199999225,42.825703199999225,42.825703199999225,42.825703199999225,42.825703199999225,42.825703199999225,42.825703199999225,,002,P019,2025_Mar_21_0948,ConditionRich,2021.2.3,59.920605198265065,
8.0,8.75,2,0.75,Stimuli/P019/sun_ajhvfwzgpfovdgid.jpg,0,0,0.0,0,9,9,9,,,,,,,,,,,,,8.00634159999936,0.00634159999935946,None,43.0759350999997,43.0759350999997,43.0759350999997,43.0759350999997,43.0759350999997,43.0759350999997,43.0759350999997,43.0759350999997,43.0759350999997,43.0759350999997,,002,P019,2025_Mar_21_0948,ConditionRich,2021.2.3,59.920605198265065,
8.75,9.0,41,0.0,Stimuli/Blank.png,0,0,0.0,0,10,10,10,,,,,,,,,,,,,8.757174899999882,0.007174899999881745,None,43.826583399999436,43.826583399999436,43.826583399999436,43.826583399999436,43.826583399999436,43.826583399999436,43.826583399999436,43.826583399999436,43.826583399999436,43.826583399999436,,002,P019,2025_Mar_21_0948,ConditionRich,2021.2.3,59.920605198265065,
9.0,9.75,2,0.75,Stimuli/P019/sun_ajhvfwzgpfovdgid.jpg,0,0,0.0,0,11,11,11,,,,,,,,,,,,,9.006337199999507,0.006337199999506993,None,44.07680579999942,44.07680579999942,44.07680579999942,44.07680579999942,44.07680579999942,44.07680579999942,44.07680579999942,44.07680579999942,44.07680579999942,44.07680579999942,,002,P019,2025_Mar_21_0948,ConditionRich,2021.2.3,59.920605198265065,
9.75,10.0,41,0.0,Stimuli/Blank.png,0,0,0.0,0,12,12,12,,,,,,,,,,,,,9.757146399999328,0.007146399999328423,None,44.82746979999956,44.82746979999956,44.82746979999956,44.82746979999956,44.82746979999956,44.82746979999956,44.82746979999956,44.82746979999956,44.82746979999956,44.82746979999956,,002,P019,2025_Mar_21_0948,ConditionRich,2021.2.3,59.920605198265065,
10.0,10.75,2,0.75,Stimuli/P019/sun_ajhvfwzgpfovdgid.jpg,0,0,0.0,0,13,13,13,,,,,,,,,,,,,10.008031800000026,0.008031800000026124,None,45.077686199999334,45.077686199999334,45.077686199999334,45.077686199999334,45.077686199999334,45.077686199999334,45.077686199999334,45.077686199999334,45.077686199999334,45.077686199999334,,002,P019,2025_Mar_21_0948,ConditionRich,2021.2.3,59.920605198265065,
10.75,11.0,41,0.0,Stimuli/Blank.png,0,0,0.0,0,14,14,14,,,,,,,,,,,,,10.759836299999733,0.009836299999733455,None,45.84504609999931,45.84504609999931,45.84504609999931,45.84504609999931,45.84504609999931,45.84504609999931,45.84504609999931,45.84504609999931,45.84504609999931,45.84504609999931,,002,P019,2025_Mar_21_0948,ConditionRich,2021.2.3,59.920605198265065,
11.0,11.75,2,0.75,Stimuli/P019/sun_ajhvfwzgpfovdgid.jpg,0,0,0.0,0,15,15,15,,,,,,,,,,,,,11.025519099999656,0.025519099999655737,None,46.0952570999998,46.0952570999998,46.0952570999998,46.0952570999998,46.0952570999998,46.0952570999998,46.0952570999998,46.0952570999998,46.0952570999998,46.0952570999998,,002,P019,2025_Mar_21_0948,ConditionRich,2021.2.3,59.920605198265065,
11.75,12.0,41,0.0,Stimuli/Blank.png,0,0,0.0,0,16,16,16,,,,,,,,,,,,,11.758992899999612,0.008992899999611836,None,46.8292320999999,46.8292320999999,46.8292320999999,46.8292320999999,46.8292320999999,46.8292320999999,46.8292320999999,46.8292320999999,46.8292320999999,46.8292320999999,,002,P019,2025_Mar_21_0948,ConditionRich,2021.2.3,59.920605198265065,
12.0,12.75,14,0.75,Stimuli/P019/sun_birvagufpcschyrr.jpg,0,0,0.0,0,17,17,17,,,,,,,,,,,,,12.010020199999417,0.010020199999416946,None,47.09617040000012,47.09617040000012,47.09617040000012,47.09617040000012,47.09617040000012,47.09617040000012,47.09617040000012,47.09617040000012,47.09617040000012,47.09617040000012,,002,P019,2025_Mar_21_0948,ConditionRich,2021.2.3,59.920605198265065,
12.75,13.0,41,0.0,Stimuli/Blank.png,0,0,0.0,0,18,18,18,,,,,,,,,,,,,12.776873799999521,0.026873799999520998,None,47.84681079999973,47.84681079999973,47.84681079999973,47.84681079999973,47.84681079999973,47.84681079999973,47.84681079999973,47.84681079999973,47.84681079999973,47.84681079999973,,002,P019,2025_Mar_21_0948,ConditionRich,2021.2.3,59.920605198265065,
13.0,13.75,14,0.75,Stimuli/P019/sun_birvagufpcschyrr.jpg,0,0,0.0,0,19,19,19,,,,,,,,,,,,,13.010132099999282,0.010132099999282218,None,48.08034479999969,48.08034479999969,48.08034479999969,48.08034479999969,48.08034479999969,48.08034479999969,48.08034479999969,48.08034479999969,48.08034479999969,48.08034479999969,,002,P019,2025_Mar_21_0948,ConditionRich,2021.2.3,59.920605198265065,
13.75,14.0,41,0.0,Stimuli/Blank.png,0,0,0.0,0,20,20,20,,,,,,,,,,,,,13.761425199999394,0.011425199999393953,None,48.83100689999992,48.83100689999992,48.83100689999992,48.83100689999992,48.83100689999992,48.83100689999992,48.83100689999992,48.83100689999992,48.83100689999992,48.83100689999992,,002,P019,2025_Mar_21_0948,ConditionRich,2021.2.3,59.920605198265065,
14.0,14.75,14,0.75,Stimuli/P019/sun_birvagufpcschyrr.jpg,0,0,0.0,0,21,21,21,,,,,,,,,,,,,14.011362599999302,0.011362599999301892,None,49.08124399999997,49.08124399999997,49.08124399999997,49.08124399999997,49.08124399999997,49.08124399999997,49.08124399999997,49.08124399999997,49.08124399999997,49.08124399999997,,002,P019,2025_Mar_21_0948,ConditionRich,2021.2.3,59.920605198265065,
14.75,15.0,41,0.0,Stimuli/Blank.png,0,0,0.0,0,22,22,22,,,,,,,,,,,,,14.762408300000061,0.01240830000006099,None,49.83194809999986,49.83194809999986,49.83194809999986,49.83194809999986,49.83194809999986,49.83194809999986,49.83194809999986,49.83194809999986,49.83194809999986,49.83194809999986,,002,P019,2025_Mar_21_0948,ConditionRich,2021.2.3,59.920605198265065,
15.0,15.75,14,0.75,Stimuli/P019/sun_birvagufpcschyrr.jpg,0,0,0.0,0,23,23,23,,,,,,,,,,,,,15.011558299999706,0.011558299999705923,None,50.08211570000003,50.08211570000003,50.08211570000003,50.08211570000003,50.08211570000003,50.08211570000003,50.08211570000003,50.08211570000003,50.08211570000003,50.08211570000003,,002,P019,2025_Mar_21_0948,ConditionRich,2021.2.3,59.920605198265065,
15.75,16.0,41,0.0,Stimuli/Blank.png,0,0,0.0,0,24,24,24,,,,,,,,,,,,,15.763343499999792,0.013343499999791675,None,50.83280250000007,50.83280250000007,50.83280250000007,50.83280250000007,50.83280250000007,50.83280250000007,50.83280250000007,50.83280250000007,50.83280250000007,50.83280250000007,,002,P019,2025_Mar_21_0948,ConditionRich,2021.2.3,59.920605198265065,
16.0,16.75,12,0.75,Stimuli/P019/sun_bgjrtiivbwugxhxp.jpg,1,0,0.75,0,25,25,25,,,,,,,,,,,,,16.012440499999684,0.012440499999684107,None,51.09967649999999,51.09967649999999,51.09967649999999,51.09967649999999,51.09967649999999,51.09967649999999,51.09967649999999,51.81698079999933,51.09967649999999,51.09967649999999,,002,P019,2025_Mar_21_0948,ConditionRich,2021.2.3,59.920605198265065,
16.75,17.0,41,0.0,Stimuli/Blank.png,0,0,0.0,0,26,26,26,,,,,,,,,,,,,16.78043720000005,0.030437200000051234,None,51.850346199999876,51.850346199999876,51.850346199999876,51.850346199999876,51.850346199999876,51.850346199999876,51.850346199999876,51.850346199999876,51.850346199999876,51.850346199999876,,002,P019,2025_Mar_21_0948,ConditionRich,2021.2.3,59.920605198265065,
17.0,17.75,12,0.75,Stimuli/P019/sun_bgjrtiivbwugxhxp.jpg,0,0,0.0,0,27,27,27,,,,,,,,,,,,,17.01454139999987,0.014541399999870919,None,52.10058659999959,52.10058659999959,52.10058659999959,52.10058659999959,52.10058659999959,52.10058659999959,52.10058659999959,52.10058659999959,52.10058659999959,52.10058659999959,,002,P019,2025_Mar_21_0948,ConditionRich,2021.2.3,59.920605198265065,
17.75,18.0,41,0.0,Stimuli/Blank.png,0,0,0.0,0,28,28,28,,,,,,,,,,,,,17.78120889999991,0.0312088999999105,None,52.851229500000045,52.851229500000045,52.851229500000045,52.851229500000045,52.851229500000045,52.851229500000045,52.851229500000045,52.851229500000045,52.851229500000045,52.851229500000045,,002,P019,2025_Mar_21_0948,ConditionRich,2021.2.3,59.920605198265065,
18.0,18.75,12,0.75,Stimuli/P019/sun_bgjrtiivbwugxhxp.jpg,0,0,0.0,0,29,29,29,,,,,,,,,,,,,18.015503399999943,0.015503399999943213,None,53.08494960000007,53.08494960000007,53.08494960000007,53.08494960000007,53.08494960000007,53.08494960000007,53.08494960000007,53.08494960000007,53.08494960000007,53.08494960000007,,002,P019,2025_Mar_21_0948,ConditionRich,2021.2.3,59.920605198265065,
18.75,19.0,41,0.0,Stimuli/Blank.png,0,0,0.0,0,30,30,30,,,,,,,,,,,,,18.748475499999586,-0.001524500000414264,None,53.818787399999565,53.818787399999565,53.818787399999565,53.818787399999565,53.818787399999565,53.818787399999565,53.818787399999565,53.818787399999565,53.818787399999565,53.818787399999565,,002,P019,2025_Mar_21_0948,ConditionRich,2021.2.3,59.920605198265065,
19.0,19.75,12,0.75,Stimuli/P019/sun_bgjrtiivbwugxhxp.jpg,0,0,0.0,0,31,31,31,,,,,,,,,,,,,19.015226699999403,0.015226699999402626,None,54.08565279999948,54.08565279999948,54.08565279999948,54.08565279999948,54.08565279999948,54.08565279999948,54.08565279999948,54.08565279999948,54.08565279999948,54.08565279999948,,002,P019,2025_Mar_21_0948,ConditionRich,2021.2.3,59.920605198265065,
19.75,20.0,41,0.0,Stimuli/Blank.png,0,0,0.0,0,32,32,32,,,,,,,,,,,,,19.75016819999928,0.00016819999927975005,None,54.819635500000004,54.819635500000004,54.819635500000004,54.819635500000004,54.819635500000004,54.819635500000004,54.819635500000004,54.819635500000004,54.819635500000004,54.819635500000004,,002,P019,2025_Mar_21_0948,ConditionRich,2021.2.3,59.920605198265065,
20.0,20.75,20,0.75,Stimuli/P019/sun_dlnwonqxagdvtlta.jpg,0,0,0.0,0,33,33,33,,,,,,,,,,,,,19.999912599999334,-8.740000066609355e-05,None,55.069847599999775,55.069847599999775,55.069847599999775,55.069847599999775,55.069847599999775,55.069847599999775,55.069847599999775,55.069847599999775,55.069847599999775,55.069847599999775,,002,P019,2025_Mar_21_0948,ConditionRich,2021.2.3,59.920605198265065,
20.75,21.0,41,0.0,Stimuli/Blank.png,0,0,0.0,0,34,34,34,,,,,,,,,,,,,20.75012659999993,0.00012659999993047677,None,55.82050909999998,55.82050909999998,55.82050909999998,55.82050909999998,55.82050909999998,55.82050909999998,55.82050909999998,55.82050909999998,55.82050909999998,55.82050909999998,,002,P019,2025_Mar_21_0948,ConditionRich,2021.2.3,59.920605198265065,
21.0,21.75,20,0.75,Stimuli/P019/sun_dlnwonqxagdvtlta.jpg,0,0,0.0,0,35,35,35,,,,,,,,,,,,,21.00071349999962,0.0007134999996196711,None,56.07073129999935,56.07073129999935,56.07073129999935,56.07073129999935,56.07073129999935,56.07073129999935,56.07073129999935,56.07073129999935,56.07073129999935,56.07073129999935,,002,P019,2025_Mar_21_0948,ConditionRich,2021.2.3,59.920605198265065,
21.75,22.0,41,0.0,Stimuli/Blank.png,0,0,0.0,0,36,36,36,,,,,,,,,,,,,21.7516657999995,0.0016657999995004502,None,56.821391599999515,56.821391599999515,56.821391599999515,56.821391599999515,56.821391599999515,56.821391599999515,56.821391599999515,56.821391599999515,56.821391599999515,56.821391599999515,,002,P019,2025_Mar_21_0948,ConditionRich,2021.2.3,59.920605198265065,
22.0,22.75,20,0.75,Stimuli/P019/sun_dlnwonqxagdvtlta.jpg,0,0,0.0,0,37,37,37,,,,,,,,,,,,,22.00115349999942,0.0011534999994182726,None,57.08831060000011,57.08831060000011,57.08831060000011,57.08831060000011,57.08831060000011,57.08831060000011,57.08831060000011,57.08831060000011,57.08831060000011,57.08831060000011,,002,P019,2025_Mar_21_0948,ConditionRich,2021.2.3,59.920605198265065,
22.75,23.0,41,0.0,Stimuli/Blank.png,0,0,0.0,0,38,38,38,,,,,,,,,,,,,22.76967389999936,0.01967389999936131,None,57.83897799999977,57.83897799999977,57.83897799999977,57.83897799999977,57.83897799999977,57.83897799999977,57.83897799999977,57.83897799999977,57.83897799999977,57.83897799999977,,002,P019,2025_Mar_21_0948,ConditionRich,2021.2.3,59.920605198265065,
23.0,23.75,20,0.75,Stimuli/P019/sun_dlnwonqxagdvtlta.jpg,0,0,0.0,0,39,39,39,,,,,,,,,,,,,23.003375499999493,0.003375499999492604,None,58.08919329999935,58.08919329999935,58.08919329999935,58.08919329999935,58.08919329999935,58.08919329999935,58.08919329999935,58.08919329999935,58.08919329999935,58.08919329999935,,002,P019,2025_Mar_21_0948,ConditionRich,2021.2.3,59.920605198265065,
23.75,24.0,41,0.0,Stimuli/Blank.png,0,0,0.0,0,40,40,40,,,,,,,,,,,,,23.769315599999572,0.01931559999957244,None,58.83984799999962,58.83984799999962,58.83984799999962,58.83984799999962,58.83984799999962,58.83984799999962,58.83984799999962,58.83984799999962,58.83984799999962,58.83984799999962,,002,P019,2025_Mar_21_0948,ConditionRich,2021.2.3,59.920605198265065,
24.0,24.75,25,0.75,Stimuli/P019/things_chime_10s.jpg,0,0,0.0,0,41,41,41,,,,,,,,,,,,,24.005469199999425,0.005469199999424745,None,59.09007489999931,59.09007489999931,59.09007489999931,59.09007489999931,59.09007489999931,59.09007489999931,59.09007489999931,59.09007489999931,59.09007489999931,59.09007489999931,,002,P019,2025_Mar_21_0948,ConditionRich,2021.2.3,59.920605198265065,
24.75,25.0,41,0.0,Stimuli/Blank.png,0,0,0.0,0,42,42,42,,,,,,,,,,,,,24.770323699999608,0.020323699999607925,None,59.84072709999964,59.84072709999964,59.84072709999964,59.84072709999964,59.84072709999964,59.84072709999964,59.84072709999964,59.84072709999964,59.84072709999964,59.84072709999964,,002,P019,2025_Mar_21_0948,ConditionRich,2021.2.3,59.920605198265065,
25.0,25.75,25,0.75,Stimuli/P019/things_chime_10s.jpg,0,0,0.0,0,43,43,43,,,,,,,,,,,,,25.003978699999607,0.003978699999606761,None,60.07426269999996,60.07426269999996,60.07426269999996,60.07426269999996,60.07426269999996,60.07426269999996,60.07426269999996,60.07426269999996,60.07426269999996,60.07426269999996,,002,P019,2025_Mar_21_0948,ConditionRich,2021.2.3,59.920605198265065,
25.75,26.0,41,0.0,Stimuli/Blank.png,0,0,0.0,0,44,44,44,,,,,,,,,,,,,25.755396199999268,0.005396199999267992,None,60.82494029999998,60.82494029999998,60.82494029999998,60.82494029999998,60.82494029999998,60.82494029999998,60.82494029999998,60.82494029999998,60.82494029999998,60.82494029999998,,002,P019,2025_Mar_21_0948,ConditionRich,2021.2.3,59.920605198265065,
26.0,26.75,25,0.75,Stimuli/P019/things_chime_10s.jpg,0,0,0.0,0,45,45,45,,,,,,,,,,,,,26.005391400000008,0.005391400000007707,None,61.07512929999939,61.07512929999939,61.07512929999939,61.07512929999939,61.07512929999939,61.07512929999939,61.07512929999939,61.07512929999939,61.07512929999939,61.07512929999939,,002,P019,2025_Mar_21_0948,ConditionRich,2021.2.3,59.920605198265065,
26.75,27.0,41,0.0,Stimuli/Blank.png,0,0,0.0,0,46,46,46,,,,,,,,,,,,,26.75527340000008,0.005273400000078254,None,61.825811699999576,61.825811699999576,61.825811699999576,61.825811699999576,61.825811699999576,61.825811699999576,61.825811699999576,61.825811699999576,61.825811699999576,61.825811699999576,,002,P019,2025_Mar_21_0948,ConditionRich,2021.2.3,59.920605198265065,
27.0,27.75,25,0.75,Stimuli/P019/things_chime_10s.jpg,1,0,0.75,0,47,47,47,,,,,,,,,,,,,27.00563619999957,0.005636199999571545,1,62.07603339999969,62.07603339999969,62.07603339999969,62.07603339999969,62.07603339999969,62.07603339999969,62.07603339999969,62.81003079999937,62.07603339999969,62.07603339999969,0.5808512000003248,002,P019,2025_Mar_21_0948,ConditionRich,2021.2.3,59.920605198265065,
27.75,28.0,41,0.0,Stimuli/Blank.png,0,0,0.0,0,48,48,48,,,,,,,,,,,,,27.75694779999958,0.006947799999579729,None,62.82670150000013,62.82670150000013,62.82670150000013,62.82670150000013,62.82670150000013,62.82670150000013,62.82670150000013,62.82670150000013,62.82670150000013,62.82670150000013,,002,P019,2025_Mar_21_0948,ConditionRich,2021.2.3,59.920605198265065,
28.0,28.75,23,0.75,Stimuli/P019/things_boy_10s.jpg,0,0,0.0,0,49,49,49,,,,,,,,,,,,,28.006845999999314,0.00684599999931379,None,63.076915499999814,63.076915499999814,63.076915499999814,63.076915499999814,63.076915499999814,63.076915499999814,63.076915499999814,63.076915499999814,63.076915499999814,63.076915499999814,,002,P019,2025_Mar_21_0948,ConditionRich,2021.2.3,59.920605198265065,
28.75,29.0,41,0.0,Stimuli/Blank.png,0,0,0.0,0,50,50,50,,,,,,,,,,,,,28.75948629999948,0.009486299999480252,None,63.844284899999366,63.844284899999366,63.844284899999366,63.844284899999366,63.844284899999366,63.844284899999366,63.844284899999366,63.844284899999366,63.844284899999366,63.844284899999366,,002,P019,2025_Mar_21_0948,ConditionRich,2021.2.3,59.920605198265065,
29.0,29.75,23,0.75,Stimuli/P019/things_boy_10s.jpg,0,0,0.0,0,51,51,51,,,,,,,,,,,,,29.02386519999982,0.023865199999818287,None,64.09448809999958,64.09448809999958,64.09448809999958,64.09448809999958,64.09448809999958,64.09448809999958,64.09448809999958,64.09448809999958,64.09448809999958,64.09448809999958,,002,P019,2025_Mar_21_0948,ConditionRich,2021.2.3,59.920605198265065,
29.75,30.0,41,0.0,Stimuli/Blank.png,0,0,0.0,0,52,52,52,,,,,,,,,,,,,29.76051069999994,0.010510699999940698,None,64.84515889999966,64.84515889999966,64.84515889999966,64.84515889999966,64.84515889999966,64.84515889999966,64.84515889999966,64.84515889999966,64.84515889999966,64.84515889999966,,002,P019,2025_Mar_21_0948,ConditionRich,2021.2.3,59.920605198265065,
30.0,30.75,23,0.75,Stimuli/P019/things_boy_10s.jpg,0,0,0.0,0,53,53,53,,,,,,,,,,,,,30.024871599999642,0.024871599999642058,None,65.09541329999956,65.09541329999956,65.09541329999956,65.09541329999956,65.09541329999956,65.09541329999956,65.09541329999956,65.09541329999956,65.09541329999956,65.09541329999956,,002,P019,2025_Mar_21_0948,ConditionRich,2021.2.3,59.920605198265065,
30.75,31.0,41,0.0,Stimuli/Blank.png,0,0,0.0,0,54,54,54,,,,,,,,,,,,,30.758791599999313,0.008791599999312893,None,65.82934899999964,65.82934899999964,65.82934899999964,65.82934899999964,65.82934899999964,65.82934899999964,65.82934899999964,65.82934899999964,65.82934899999964,65.82934899999964,,002,P019,2025_Mar_21_0948,ConditionRich,2021.2.3,59.920605198265065,
31.0,31.75,23,0.75,Stimuli/P019/things_boy_10s.jpg,0,0,0.0,0,55,55,55,,,,,,,,,,,,,31.009675799999968,0.009675799999968149,None,66.09625619999952,66.09625619999952,66.09625619999952,66.09625619999952,66.09625619999952,66.09625619999952,66.09625619999952,66.09625619999952,66.09625619999952,66.09625619999952,,002,P019,2025_Mar_21_0948,ConditionRich,2021.2.3,59.920605198265065,
31.75,32.0,41,0.0,Stimuli/Blank.png,0,0,0.0,0,56,56,56,,,,,,,,,,,,,31.776370300000053,0.02637030000005325,None,66.84691229999953,66.84691229999953,66.84691229999953,66.84691229999953,66.84691229999953,66.84691229999953,66.84691229999953,66.84691229999953,66.84691229999953,66.84691229999953,,002,P019,2025_Mar_21_0948,ConditionRich,2021.2.3,59.920605198265065,
32.0,32.75,18,0.75,Stimuli/P019/sun_bodjbrgwzlshgypq.jpg,0,0,0.0,0,57,57,57,,,,,,,,,,,,,32.01005669999995,0.01005669999995007,None,67.08045589999983,67.08045589999983,67.08045589999983,67.08045589999983,67.08045589999983,67.08045589999983,67.08045589999983,67.08045589999983,67.08045589999983,67.08045589999983,,002,P019,2025_Mar_21_0948,ConditionRich,2021.2.3,59.920605198265065,
32.75,33.0,41,0.0,Stimuli/Blank.png,0,0,0.0,0,58,58,58,,,,,,,,,,,,,32.76060789999974,0.010607899999740766,None,67.83111649999955,67.83111649999955,67.83111649999955,67.83111649999955,67.83111649999955,67.83111649999955,67.83111649999955,67.83111649999955,67.83111649999955,67.83111649999955,,002,P019,2025_Mar_21_0948,ConditionRich,2021.2.3,59.920605198265065,
33.0,33.75,18,0.75,Stimuli/P019/sun_bodjbrgwzlshgypq.jpg,0,0,0.0,0,59,59,59,,,,,,,,,,,,,33.01092349999999,0.010923499999989872,None,68.08134029999928,68.08134029999928,68.08134029999928,68.08134029999928,68.08134029999928,68.08134029999928,68.08134029999928,68.08134029999928,68.08134029999928,68.08134029999928,,002,P019,2025_Mar_21_0948,ConditionRich,2021.2.3,59.920605198265065,
33.75,34.0,41,0.0,Stimuli/Blank.png,0,0,0.0,0,60,60,60,,,,,,,,,,,,,33.76296099999945,0.012960999999449996,None,68.83201869999994,68.83201869999994,68.83201869999994,68.83201869999994,68.83201869999994,68.83201869999994,68.83201869999994,68.83201869999994,68.83201869999994,68.83201869999994,,002,P019,2025_Mar_21_0948,ConditionRich,2021.2.3,59.920605198265065,
34.0,34.75,18,0.75,Stimuli/P019/sun_bodjbrgwzlshgypq.jpg,0,0,0.0,0,61,61,61,,,,,,,,,,,,,34.01481009999952,0.014810099999522208,None,69.0989026999996,69.0989026999996,69.0989026999996,69.0989026999996,69.0989026999996,69.0989026999996,69.0989026999996,69.0989026999996,69.0989026999996,69.0989026999996,,002,P019,2025_Mar_21_0948,ConditionRich,2021.2.3,59.920605198265065,
34.75,35.0,41,0.0,Stimuli/Blank.png,0,0,0.0,0,62,62,62,,,,,,,,,,,,,34.77975199999946,0.029751999999461987,None,69.84954229999948,69.84954229999948,69.84954229999948,69.84954229999948,69.84954229999948,69.84954229999948,69.84954229999948,69.84954229999948,69.84954229999948,69.84954229999948,,002,P019,2025_Mar_21_0948,ConditionRich,2021.2.3,59.920605198265065,
35.0,35.75,18,0.75,Stimuli/P019/sun_bodjbrgwzlshgypq.jpg,0,0,0.0,0,63,63,63,,,,,,,,,,,,,35.013391799999226,0.01339179999922635,None,70.09982659999969,70.09982659999969,70.09982659999969,70.09982659999969,70.09982659999969,70.09982659999969,70.09982659999969,70.09982659999969,70.09982659999969,70.09982659999969,,002,P019,2025_Mar_21_0948,ConditionRich,2021.2.3,59.920605198265065,
35.75,36.0,41,0.0,Stimuli/Blank.png,0,0,0.0,0,64,64,64,,,,,,,,,,,,,35.78076679999958,0.030766799999582872,None,70.85045039999932,70.85045039999932,70.85045039999932,70.85045039999932,70.85045039999932,70.85045039999932,70.85045039999932,70.85045039999932,70.85045039999932,70.85045039999932,,002,P019,2025_Mar_21_0948,ConditionRich,2021.2.3,59.920605198265065,
36.0,36.75,11,0.75,Stimuli/P019/sun_bcbfjkoziukwmdkd.jpg,0,0,0.0,0,65,65,65,,,,,,,,,,,,,36.015255100000104,0.015255100000103994,None,71.10078869999961,71.10078869999961,71.10078869999961,71.10078869999961,71.10078869999961,71.10078869999961,71.10078869999961,71.10078869999961,71.10078869999961,71.10078869999961,,002,P019,2025_Mar_21_0948,ConditionRich,2021.2.3,59.920605198265065,
36.75,37.0,41,0.0,Stimuli/Blank.png,0,0,0.0,0,66,66,66,,,,,,,,,,,,,36.76548610000009,0.015486100000089209,None,71.83469259999947,71.83469259999947,71.83469259999947,71.83469259999947,71.83469259999947,71.83469259999947,71.83469259999947,71.83469259999947,71.83469259999947,71.83469259999947,,002,P019,2025_Mar_21_0948,ConditionRich,2021.2.3,59.920605198265065,
37.0,37.75,11,0.75,Stimuli/P019/sun_bcbfjkoziukwmdkd.jpg,0,0,0.0,0,67,67,67,,,,,,,,,,,,,36.99983919999977,-0.00016080000023066532,None,72.08487530000002,72.08487530000002,72.08487530000002,72.08487530000002,72.08487530000002,72.08487530000002,72.08487530000002,72.08487530000002,72.08487530000002,72.08487530000002,,002,P019,2025_Mar_21_0948,ConditionRich,2021.2.3,59.920605198265065,
37.75,38.0,41,0.0,Stimuli/Blank.png,0,0,0.0,0,68,68,68,,,,,,,,,,,,,37.76497599999948,0.014975999999478518,None,72.83553630000006,72.83553630000006,72.83553630000006,72.83553630000006,72.83553630000006,72.83553630000006,72.83553630000006,72.83553630000006,72.83553630000006,72.83553630000006,,002,P019,2025_Mar_21_0948,ConditionRich,2021.2.3,59.920605198265065,
38.0,38.75,11,0.75,Stimuli/P019/sun_bcbfjkoziukwmdkd.jpg,0,0,0.0,0,69,69,69,,,,,,,,,,,,,38.01525799999945,0.015257999999448657,None,73.0857619999997,73.0857619999997,73.0857619999997,73.0857619999997,73.0857619999997,73.0857619999997,73.0857619999997,73.0857619999997,73.0857619999997,73.0857619999997,,002,P019,2025_Mar_21_0948,ConditionRich,2021.2.3,59.920605198265065,
38.75,39.0,41,0.0,Stimuli/Blank.png,0,0,0.0,0,70,70,70,,,,,,,,,,,,,38.74983160000011,-0.00016839999989315402,None,73.81974749999972,73.81974749999972,73.81974749999972,73.81974749999972,73.81974749999972,73.81974749999972,73.81974749999972,73.81974749999972,73.81974749999972,73.81974749999972,,002,P019,2025_Mar_21_0948,ConditionRich,2021.2.3,59.920605198265065,
39.0,39.75,11,0.75,Stimuli/P019/sun_bcbfjkoziukwmdkd.jpg,0,0,0.0,0,71,71,71,,,,,,,,,,,,,39.00011360000008,0.00011360000007698545,None,74.06996829999935,74.06996829999935,74.06996829999935,74.06996829999935,74.06996829999935,74.06996829999935,74.06996829999935,74.06996829999935,74.06996829999935,74.06996829999935,,002,P019,2025_Mar_21_0948,ConditionRich,2021.2.3,59.920605198265065,
39.75,40.0,41,0.0,Stimuli/Blank.png,0,0,0.0,0,72,72,72,,,,,,,,,,,,,39.75021620000007,0.0002162000000680564,None,74.82061849999991,74.82061849999991,74.82061849999991,74.82061849999991,74.82061849999991,74.82061849999991,74.82061849999991,74.82061849999991,74.82061849999991,74.82061849999991,,002,P019,2025_Mar_21_0948,ConditionRich,2021.2.3,59.920605198265065,
40.0,40.75,10,0.75,Stimuli/P019/sun_bblqhrudkospnbbv.jpg,0,0,0.0,0,73,73,73,,,,,,,,,,,,,40.00043989999995,0.00043989999994664686,None,75.07085339999958,75.07085339999958,75.07085339999958,75.07085339999958,75.07085339999958,75.07085339999958,75.07085339999958,75.07085339999958,75.07085339999958,75.07085339999958,,002,P019,2025_Mar_21_0948,ConditionRich,2021.2.3,59.920605198265065,
40.75,41.0,41,0.0,Stimuli/Blank.png,0,0,0.0,0,74,74,74,,,,,,,,,,,,,40.75145470000007,0.0014547000000675325,None,75.82157339999958,75.82157339999958,75.82157339999958,75.82157339999958,75.82157339999958,75.82157339999958,75.82157339999958,75.82157339999958,75.82157339999958,75.82157339999958,,002,P019,2025_Mar_21_0948,ConditionRich,2021.2.3,59.920605198265065,
41.0,41.75,10,0.75,Stimuli/P019/sun_bblqhrudkospnbbv.jpg,0,0,0.0,0,75,75,75,,,,,,,,,,,,,41.00115449999976,0.0011544999997568084,None,76.07172850000006,76.07172850000006,76.07172850000006,76.07172850000006,76.07172850000006,76.07172850000006,76.07172850000006,76.07172850000006,76.07172850000006,76.07172850000006,,002,P019,2025_Mar_21_0948,ConditionRich,2021.2.3,59.920605198265065,
41.75,42.0,41,0.0,Stimuli/Blank.png,0,0,0.0,0,76,76,76,,,,,,,,,,,,,41.75182979999954,0.0018297999995411374,None,76.82241869999962,76.82241869999962,76.82241869999962,76.82241869999962,76.82241869999962,76.82241869999962,76.82241869999962,76.82241869999962,76.82241869999962,76.82241869999962,,002,P019,2025_Mar_21_0948,ConditionRich,2021.2.3,59.920605198265065,
42.0,42.75,10,0.75,Stimuli/P019/sun_bblqhrudkospnbbv.jpg,0,0,0.0,0,77,77,77,,,,,,,,,,,,,42.00338620000002,0.0033862000000226544,None,77.08929119999993,77.08929119999993,77.08929119999993,77.08929119999993,77.08929119999993,77.08929119999993,77.08929119999993,77.08929119999993,77.08929119999993,77.08929119999993,,002,P019,2025_Mar_21_0948,ConditionRich,2021.2.3,59.920605198265065,
42.75,43.0,41,0.0,Stimuli/Blank.png,0,0,0.0,0,78,78,78,,,,,,,,,,,,,42.7709477999997,0.02094779999970342,None,77.83998079999947,77.83998079999947,77.83998079999947,77.83998079999947,77.83998079999947,77.83998079999947,77.83998079999947,77.83998079999947,77.83998079999947,77.83998079999947,,002,P019,2025_Mar_21_0948,ConditionRich,2021.2.3,59.920605198265065,
43.0,43.75,10,0.75,Stimuli/P019/sun_bblqhrudkospnbbv.jpg,0,0,0.0,0,79,79,79,,,,,,,,,,,,,43.00603169999977,0.006031699999766715,None,78.0901888999997,78.0901888999997,78.0901888999997,78.0901888999997,78.0901888999997,78.0901888999997,78.0901888999997,78.0901888999997,78.0901888999997,78.0901888999997,,002,P019,2025_Mar_21_0948,ConditionRich,2021.2.3,59.920605198265065,
43.75,44.0,41,0.0,Stimuli/Blank.png,0,0,0.0,0,80,80,80,,,,,,,,,,,,,43.770760899999914,0.020760899999913818,None,78.84084230000008,78.84084230000008,78.84084230000008,78.84084230000008,78.84084230000008,78.84084230000008,78.84084230000008,78.84084230000008,78.84084230000008,78.84084230000008,,002,P019,2025_Mar_21_0948,ConditionRich,2021.2.3,59.920605198265065,
44.0,44.75,38,0.75,Stimuli/P019/things_turtle_10n.jpg,0,0,0.0,0,81,81,81,,,,,,,,,,,,,44.00380539999969,0.003805399999691872,None,79.07437859999936,79.07437859999936,79.07437859999936,79.07437859999936,79.07437859999936,79.07437859999936,79.07437859999936,79.07437859999936,79.07437859999936,79.07437859999936,,002,P019,2025_Mar_21_0948,ConditionRich,2021.2.3,59.920605198265065,
44.75,45.0,41,0.0,Stimuli/Blank.png,0,0,0.0,0,82,82,82,,,,,,,,,,,,,44.75444629999947,0.004446299999472103,None,79.82504619999963,79.82504619999963,79.82504619999963,79.82504619999963,79.82504619999963,79.82504619999963,79.82504619999963,79.82504619999963,79.82504619999963,79.82504619999963,,002,P019,2025_Mar_21_0948,ConditionRich,2021.2.3,59.920605198265065,
45.0,45.75,38,0.75,Stimuli/P019/things_turtle_10n.jpg,0,0,0.0,0,83,83,83,,,,,,,,,,,,,45.00540209999963,0.005402099999628263,None,80.09194699999989,80.09194699999989,80.09194699999989,80.09194699999989,80.09194699999989,80.09194699999989,80.09194699999989,80.09194699999989,80.09194699999989,80.09194699999989,,002,P019,2025_Mar_21_0948,ConditionRich,2021.2.3,59.920605198265065,
45.75,46.0,41,0.0,Stimuli/Blank.png,0,0,0.0,0,84,84,84,,,,,,,,,,,,,45.7722449999992,0.022244999999202264,None,80.8427185999999,80.8427185999999,80.8427185999999,80.8427185999999,80.8427185999999,80.8427185999999,80.8427185999999,80.8427185999999,80.8427185999999,80.8427185999999,,002,P019,2025_Mar_21_0948,ConditionRich,2021.2.3,59.920605198265065,
46.0,46.75,38,0.75,Stimuli/P019/things_turtle_10n.jpg,1,0,0.75,0,85,85,85,,,,,,,,,,,,,46.00571349999973,0.0057134999997288105,1,81.07614209999974,81.07614209999974,81.07614209999974,81.07614209999974,81.07614209999974,81.07614209999974,81.07614209999974,81.81012779999946,81.07614209999974,81.07614209999974,0.5217552000003707,002,P019,2025_Mar_21_0948,ConditionRich,2021.2.3,59.920605198265065,
46.75,47.0,41,0.0,Stimuli/Blank.png,0,0,0.0,0,86,86,86,,,,,,,,,,,,,46.75677279999945,0.006772799999453127,None,81.8268078000001,81.8268078000001,81.8268078000001,81.8268078000001,81.8268078000001,81.8268078000001,81.8268078000001,81.8268078000001,81.8268078000001,81.8268078000001,,002,P019,2025_Mar_21_0948,ConditionRich,2021.2.3,59.920605198265065,
47.0,47.75,38,0.75,Stimuli/P019/things_turtle_10n.jpg,0,0,0.0,0,87,87,87,,,,,,,,,,,,,47.006502100000034,0.006502100000034261,None,82.07702829999926,82.07702829999926,82.07702829999926,82.07702829999926,82.07702829999926,82.07702829999926,82.07702829999926,82.07702829999926,82.07702829999926,82.07702829999926,,002,P019,2025_Mar_21_0948,ConditionRich,2021.2.3,59.920605198265065,
47.75,48.0,41,0.0,Stimuli/Blank.png,0,0,0.0,0,88,88,88,,,,,,,,,,,,,47.76052350000009,0.01052350000009028,None,82.84440069999982,82.84440069999982,82.84440069999982,82.84440069999982,82.84440069999982,82.84440069999982,82.84440069999982,82.84440069999982,82.84440069999982,82.84440069999982,,002,P019,2025_Mar_21_0948,ConditionRich,2021.2.3,59.920605198265065,
48.0,48.75,29,0.75,Stimuli/P019/things_flamingo_10s.jpg,0,0,0.0,0,89,89,89,,,,,,,,,,,,,48.02470259999973,0.02470259999972768,None,83.0945984,83.0945984,83.0945984,83.0945984,83.0945984,83.0945984,83.0945984,83.0945984,83.0945984,83.0945984,,002,P019,2025_Mar_21_0948,ConditionRich,2021.2.3,59.920605198265065,
48.75,49.0,41,0.0,Stimuli/Blank.png,0,0,0.0,0,90,90,90,,,,,,,,,,,,,48.758770399999776,0.008770399999775691,None,83.8285909999995,83.8285909999995,83.8285909999995,83.8285909999995,83.8285909999995,83.8285909999995,83.8285909999995,83.8285909999995,83.8285909999995,83.8285909999995,,002,P019,2025_Mar_21_0948,ConditionRich,2021.2.3,59.920605198265065,
49.0,49.75,29,0.75,Stimuli/P019/things_flamingo_10s.jpg,0,0,0.0,0,91,91,91,,,,,,,,,,,,,49.00903930000004,0.009039300000040384,None,84.09548319999976,84.09548319999976,84.09548319999976,84.09548319999976,84.09548319999976,84.09548319999976,84.09548319999976,84.09548319999976,84.09548319999976,84.09548319999976,,002,P019,2025_Mar_21_0948,ConditionRich,2021.2.3,59.920605198265065,
49.75,50.0,41,0.0,Stimuli/Blank.png,0,0,0.0,0,92,92,92,,,,,,,,,,,,,49.7755776999993,0.02557769999930315,None,84.84615169999961,84.84615169999961,84.84615169999961,84.84615169999961,84.84615169999961,84.84615169999961,84.84615169999961,84.84615169999961,84.84615169999961,84.84615169999961,,002,P019,2025_Mar_21_0948,ConditionRich,2021.2.3,59.920605198265065,
50.0,50.75,29,0.75,Stimuli/P019/things_flamingo_10s.jpg,0,0,0.0,0,93,93,93,,,,,,,,,,,,,50.01012360000004,0.010123600000042643,None,85.09637190000012,85.09637190000012,85.09637190000012,85.09637190000012,85.09637190000012,85.09637190000012,85.09637190000012,85.09637190000012,85.09637190000012,85.09637190000012,,002,P019,2025_Mar_21_0948,ConditionRich,2021.2.3,59.920605198265065,
50.75,51.0,41,0.0,Stimuli/Blank.png,0,0,0.0,0,94,94,94,,,,,,,,,,,,,50.77645140000004,0.026451400000041758,None,85.84701309999946,85.84701309999946,85.84701309999946,85.84701309999946,85.84701309999946,85.84701309999946,85.84701309999946,85.84701309999946,85.84701309999946,85.84701309999946,,002,P019,2025_Mar_21_0948,ConditionRich,2021.2.3,59.920605198265065,
51.0,51.75,29,0.75,Stimuli/P019/things_flamingo_10s.jpg,0,0,0.0,0,95,95,95,,,,,,,,,,,,,51.009990699999435,0.009990699999434582,None,86.08055229999991,86.08055229999991,86.08055229999991,86.08055229999991,86.08055229999991,86.08055229999991,86.08055229999991,86.08055229999991,86.08055229999991,86.08055229999991,,002,P019,2025_Mar_21_0948,ConditionRich,2021.2.3,59.920605198265065,
51.75,52.0,41,0.0,Stimuli/Blank.png,0,0,0.0,0,96,96,96,,,,,,,,,,,,,51.760736299999735,0.01073629999973491,None,86.83122309999999,86.83122309999999,86.83122309999999,86.83122309999999,86.83122309999999,86.83122309999999,86.83122309999999,86.83122309999999,86.83122309999999,86.83122309999999,,002,P019,2025_Mar_21_0948,ConditionRich,2021.2.3,59.920605198265065,
52.0,52.75,35,0.75,Stimuli/P019/things_pretzel_10s.jpg,0,0,0.0,0,97,97,97,,,,,,,,,,,,,52.01107729999967,0.011077299999669776,None,87.08142899999984,87.08142899999984,87.08142899999984,87.08142899999984,87.08142899999984,87.08142899999984,87.08142899999984,87.08142899999984,87.08142899999984,87.08142899999984,,002,P019,2025_Mar_21_0948,ConditionRich,2021.2.3,59.920605198265065,
52.75,53.0,41,0.0,Stimuli/Blank.png,0,0,0.0,0,98,98,98,,,,,,,,,,,,,52.76151320000008,0.01151320000008127,None,87.83209230000011,87.83209230000011,87.83209230000011,87.83209230000011,87.83209230000011,87.83209230000011,87.83209230000011,87.83209230000011,87.83209230000011,87.83209230000011,,002,P019,2025_Mar_21_0948,ConditionRich,2021.2.3,59.920605198265065,
53.0,53.75,35,0.75,Stimuli/P019/things_pretzel_10s.jpg,0,0,0.0,0,99,99,99,,,,,,,,,,,,,53.01199499999984,0.011994999999842548,None,88.09902669999974,88.09902669999974,88.09902669999974,88.09902669999974,88.09902669999974,88.09902669999974,88.09902669999974,88.09902669999974,88.09902669999974,88.09902669999974,,002,P019,2025_Mar_21_0948,ConditionRich,2021.2.3,59.920605198265065,
53.75,54.0,41,0.0,Stimuli/Blank.png,0,0,0.0,0,100,100,100,,,,,,,,,,,,,53.77994629999921,0.02994629999921017,None,88.84967529999994,88.84967529999994,88.84967529999994,88.84967529999994,88.84967529999994,88.84967529999994,88.84967529999994,88.84967529999994,88.84967529999994,88.84967529999994,,002,P019,2025_Mar_21_0948,ConditionRich,2021.2.3,59.920605198265065,
54.0,54.75,35,0.75,Stimuli/P019/things_pretzel_10s.jpg,0,0,0.0,0,101,101,101,,,,,,,,,,,,,54.01281459999973,0.01281459999972867,None,89.08321649999925,89.08321649999925,89.08321649999925,89.08321649999925,89.08321649999925,89.08321649999925,89.08321649999925,89.08321649999925,89.08321649999925,89.08321649999925,,002,P019,2025_Mar_21_0948,ConditionRich,2021.2.3,59.920605198265065,
54.75,55.0,41,0.0,Stimuli/Blank.png,0,0,0.0,0,102,102,102,,,,,,,,,,,,,54.764151699999275,0.01415169999927457,None,89.8338877999995,89.8338877999995,89.8338877999995,89.8338877999995,89.8338877999995,89.8338877999995,89.8338877999995,89.8338877999995,89.8338877999995,89.8338877999995,,002,P019,2025_Mar_21_0948,ConditionRich,2021.2.3,59.920605198265065,
55.0,55.75,35,0.75,Stimuli/P019/things_pretzel_10s.jpg,0,0,0.0,0,103,103,103,,,,,,,,,,,,,55.01361009999982,0.013610099999823433,None,90.08410589999949,90.08410589999949,90.08410589999949,90.08410589999949,90.08410589999949,90.08410589999949,90.08410589999949,90.08410589999949,90.08410589999949,90.08410589999949,,002,P019,2025_Mar_21_0948,ConditionRich,2021.2.3,59.920605198265065,
55.75,56.0,41,0.0,Stimuli/Blank.png,0,0,0.0,0,104,104,104,,,,,,,,,,,,,55.764255299999604,0.014255299999604176,None,90.83477149999999,90.83477149999999,90.83477149999999,90.83477149999999,90.83477149999999,90.83477149999999,90.83477149999999,90.83477149999999,90.83477149999999,90.83477149999999,,002,P019,2025_Mar_21_0948,ConditionRich,2021.2.3,59.920605198265065,
56.0,56.75,17,0.75,Stimuli/P019/sun_bltxkcclrpweopkl.jpg,0,0,0.0,0,105,105,105,,,,,,,,,,,,,56.01512469999943,0.015124699999432778,None,91.08498090000012,91.08498090000012,91.08498090000012,91.08498090000012,91.08498090000012,91.08498090000012,91.08498090000012,91.08498090000012,91.08498090000012,91.08498090000012,,002,P019,2025_Mar_21_0948,ConditionRich,2021.2.3,59.920605198265065,
56.75,57.0,41,0.0,Stimuli/Blank.png,0,0,0.0,0,106,106,106,,,,,,,,,,,,,56.749319799999284,-0.0006802000007155584,None,91.81900169999972,91.81900169999972,91.81900169999972,91.81900169999972,91.81900169999972,91.81900169999972,91.81900169999972,91.81900169999972,91.81900169999972,91.81900169999972,,002,P019,2025_Mar_21_0948,ConditionRich,2021.2.3,59.920605198265065,
57.0,57.75,17,0.75,Stimuli/P019/sun_bltxkcclrpweopkl.jpg,0,0,0.0,0,107,107,107,,,,,,,,,,,,,56.99963200000002,-0.000367999999980384,None,92.0858816,92.0858816,92.0858816,92.0858816,92.0858816,92.0858816,92.0858816,92.0858816,92.0858816,92.0858816,,002,P019,2025_Mar_21_0948,ConditionRich,2021.2.3,59.920605198265065,
57.75,58.0,41,0.0,Stimuli/Blank.png,0,0,0.0,0,108,108,108,,,,,,,,,,,,,57.76676700000007,0.016767000000072585,None,92.83661829999983,92.83661829999983,92.83661829999983,92.83661829999983,92.83661829999983,92.83661829999983,92.83661829999983,92.83661829999983,92.83661829999983,92.83661829999983,,002,P019,2025_Mar_21_0948,ConditionRich,2021.2.3,59.920605198265065,
58.0,58.75,17,0.75,Stimuli/P019/sun_bltxkcclrpweopkl.jpg,0,0,0.0,0,109,109,109,,,,,,,,,,,,,58.00015809999968,0.00015809999968041666,None,93.0700769999994,93.0700769999994,93.0700769999994,93.0700769999994,93.0700769999994,93.0700769999994,93.0700769999994,93.0700769999994,93.0700769999994,93.0700769999994,,002,P019,2025_Mar_21_0948,ConditionRich,2021.2.3,59.920605198265065,
58.75,59.0,41,0.0,Stimuli/Blank.png,0,0,0.0,0,110,110,110,,,,,,,,,,,,,58.75019389999943,0.00019389999943086877,None,93.82073039999977,93.82073039999977,93.82073039999977,93.82073039999977,93.82073039999977,93.82073039999977,93.82073039999977,93.82073039999977,93.82073039999977,93.82073039999977,,002,P019,2025_Mar_21_0948,ConditionRich,2021.2.3,59.920605198265065,
59.0,59.75,17,0.75,Stimuli/P019/sun_bltxkcclrpweopkl.jpg,0,0,0.0,0,111,111,111,,,,,,,,,,,,,59.000552999999854,0.0005529999998543644,None,94.07095509999999,94.07095509999999,94.07095509999999,94.07095509999999,94.07095509999999,94.07095509999999,94.07095509999999,94.07095509999999,94.07095509999999,94.07095509999999,,002,P019,2025_Mar_21_0948,ConditionRich,2021.2.3,59.920605198265065,
59.75,60.0,41,0.0,Stimuli/Blank.png,0,0,0.0,0,112,112,112,,,,,,,,,,,,,59.75186659999963,0.0018665999996301252,None,94.8216298999996,94.8216298999996,94.8216298999996,94.8216298999996,94.8216298999996,94.8216298999996,94.8216298999996,94.8216298999996,94.8216298999996,94.8216298999996,,002,P019,2025_Mar_21_0948,ConditionRich,2021.2.3,59.920605198265065,
60.0,60.75,3,0.75,Stimuli/P019/sun_aknrkswonrogcooi.jpg,0,0,0.0,0,113,113,113,,,,,,,,,,,,,60.001361099999485,0.0013610999994853046,None,95.08852569999999,95.08852569999999,95.08852569999999,95.08852569999999,95.08852569999999,95.08852569999999,95.08852569999999,95.08852569999999,95.08852569999999,95.08852569999999,,002,P019,2025_Mar_21_0948,ConditionRich,2021.2.3,59.920605198265065,
60.75,61.0,41,0.0,Stimuli/Blank.png,0,0,0.0,0,114,114,114,,,,,,,,,,,,,60.7693363999997,0.019336399999701825,None,95.83920239999952,95.83920239999952,95.83920239999952,95.83920239999952,95.83920239999952,95.83920239999952,95.83920239999952,95.83920239999952,95.83920239999952,95.83920239999952,,002,P019,2025_Mar_21_0948,ConditionRich,2021.2.3,59.920605198265065,
61.0,61.75,3,0.75,Stimuli/P019/sun_aknrkswonrogcooi.jpg,0,0,0.0,0,115,115,115,,,,,,,,,,,,,61.00444229999994,0.0044422999999369495,None,96.08941079999931,96.08941079999931,96.08941079999931,96.08941079999931,96.08941079999931,96.08941079999931,96.08941079999931,96.08941079999931,96.08941079999931,96.08941079999931,,002,P019,2025_Mar_21_0948,ConditionRich,2021.2.3,59.920605198265065,
61.75,62.0,41,0.0,Stimuli/Blank.png,0,0,0.0,0,116,116,116,,,,,,,,,,,,,61.77020670000002,0.02020670000001701,None,96.84007949999977,96.84007949999977,96.84007949999977,96.84007949999977,96.84007949999977,96.84007949999977,96.84007949999977,96.84007949999977,96.84007949999977,96.84007949999977,,002,P019,2025_Mar_21_0948,ConditionRich,2021.2.3,59.920605198265065,
62.0,62.75,3,0.75,Stimuli/P019/sun_aknrkswonrogcooi.jpg,0,0,0.0,0,117,117,117,,,,,,,,,,,,,62.0031842999997,0.003184299999702489,None,97.0736081999994,97.0736081999994,97.0736081999994,97.0736081999994,97.0736081999994,97.0736081999994,97.0736081999994,97.0736081999994,97.0736081999994,97.0736081999994,,002,P019,2025_Mar_21_0948,ConditionRich,2021.2.3,59.920605198265065,
62.75,63.0,41,0.0,Stimuli/Blank.png,0,0,0.0,0,118,118,118,,,,,,,,,,,,,62.75494929999968,0.004949299999680079,None,97.8242782999996,97.8242782999996,97.8242782999996,97.8242782999996,97.8242782999996,97.8242782999996,97.8242782999996,97.8242782999996,97.8242782999996,97.8242782999996,,002,P019,2025_Mar_21_0948,ConditionRich,2021.2.3,59.920605198265065,
63.0,63.75,3,0.75,Stimuli/P019/sun_aknrkswonrogcooi.jpg,0,0,0.0,0,119,119,119,,,,,,,,,,,,,63.00394719999986,0.003947199999856821,None,98.07449219999944,98.07449219999944,98.07449219999944,98.07449219999944,98.07449219999944,98.07449219999944,98.07449219999944,98.07449219999944,98.07449219999944,98.07449219999944,,002,P019,2025_Mar_21_0948,ConditionRich,2021.2.3,59.920605198265065,
63.75,64.0,41,0.0,Stimuli/Blank.png,0,0,0.0,0,120,120,120,,,,,,,,,,,,,63.755288199999995,0.005288199999995413,None,98.82516940000005,98.82516940000005,98.82516940000005,98.82516940000005,98.82516940000005,98.82516940000005,98.82516940000005,98.82516940000005,98.82516940000005,98.82516940000005,,002,P019,2025_Mar_21_0948,ConditionRich,2021.2.3,59.920605198265065,
64.0,64.75,33,0.75,Stimuli/P019/things_insole_10s.jpg,0,0,0.0,0,121,121,121,,,,,,,,,,,,,64.00498349999998,0.004983499999980268,None,99.07537599999978,99.07537599999978,99.07537599999978,99.07537599999978,99.07537599999978,99.07537599999978,99.07537599999978,99.07537599999978,99.07537599999978,99.07537599999978,,002,P019,2025_Mar_21_0948,ConditionRich,2021.2.3,59.920605198265065,
64.75,65.0,41,0.0,Stimuli/Blank.png,0,0,0.0,0,122,122,122,,,,,,,,,,,,,64.75552269999935,0.005522699999346514,None,99.82604609999999,99.82604609999999,99.82604609999999,99.82604609999999,99.82604609999999,99.82604609999999,99.82604609999999,99.82604609999999,99.82604609999999,99.82604609999999,,002,P019,2025_Mar_21_0948,ConditionRich,2021.2.3,59.920605198265065,
65.0,65.75,33,0.75,Stimuli/P019/things_insole_10s.jpg,0,0,0.0,0,123,123,123,,,,,,,,,,,,,65.0058513999993,0.005851399999301066,None,100.07627039999988,100.07627039999988,100.07627039999988,100.07627039999988,100.07627039999988,100.07627039999988,100.07627039999988,100.07627039999988,100.07627039999988,100.07627039999988,,002,P019,2025_Mar_21_0948,ConditionRich,2021.2.3,59.920605198265065,
65.75,66.0,41,0.0,Stimuli/Blank.png,0,0,0.0,0,124,124,124,,,,,,,,,,,,,65.75675779999983,0.006757799999832059,None,100.82700139999997,100.82700139999997,100.82700139999997,100.82700139999997,100.82700139999997,100.82700139999997,100.82700139999997,100.82700139999997,100.82700139999997,100.82700139999997,,002,P019,2025_Mar_21_0948,ConditionRich,2021.2.3,59.920605198265065,
66.0,66.75,33,0.75,Stimuli/P019/things_insole_10s.jpg,0,0,0.0,0,125,125,125,,,,,,,,,,,,,66.0070724999996,0.007072499999594584,None,101.09383849999995,101.09383849999995,101.09383849999995,101.09383849999995,101.09383849999995,101.09383849999995,101.09383849999995,101.09383849999995,101.09383849999995,101.09383849999995,,002,P019,2025_Mar_21_0948,ConditionRich,2021.2.3,59.920605198265065,
66.75,67.0,41,0.0,Stimuli/Blank.png,0,0,0.0,0,126,126,126,,,,,,,,,,,,,66.77644969999983,0.026449699999830045,None,101.84451889999946,101.84451889999946,101.84451889999946,101.84451889999946,101.84451889999946,101.84451889999946,101.84451889999946,101.84451889999946,101.84451889999946,101.84451889999946,,002,P019,2025_Mar_21_0948,ConditionRich,2021.2.3,59.920605198265065,
67.0,67.75,33,0.75,Stimuli/P019/things_insole_10s.jpg,0,0,0.0,0,127,127,127,,,,,,,,,,,,,67.00984249999965,0.00984249999964959,None,102.09473379999963,102.09473379999963,102.09473379999963,102.09473379999963,102.09473379999963,102.09473379999963,102.09473379999963,102.09473379999963,102.09473379999963,102.09473379999963,,002,P019,2025_Mar_21_0948,ConditionRich,2021.2.3,59.920605198265065,
67.75,68.0,41,0.0,Stimuli/Blank.png,0,0,0.0,0,128,128,128,,,,,,,,,,,,,67.77494719999959,0.02494719999958761,None,102.84537259999979,102.84537259999979,102.84537259999979,102.84537259999979,102.84537259999979,102.84537259999979,102.84537259999979,102.84537259999979,102.84537259999979,102.84537259999979,,002,P019,2025_Mar_21_0948,ConditionRich,2021.2.3,59.920605198265065,
68.0,68.75,16,0.75,Stimuli/P019/sun_blfpbbfyzmewzplm.jpg,0,0,0.0,0,129,129,129,,,,,,,,,,,,,68.00985700000001,0.009857000000010885,None,103.09562310000001,103.09562310000001,103.09562310000001,103.09562310000001,103.09562310000001,103.09562310000001,103.09562310000001,103.09562310000001,103.09562310000001,103.09562310000001,,002,P019,2025_Mar_21_0948,ConditionRich,2021.2.3,59.920605198265065,
68.75,69.0,41,0.0,Stimuli/Blank.png,0,0,0.0,0,130,130,130,,,,,,,,,,,,,68.77578360000007,0.025783600000067963,None,103.84626219999973,103.84626219999973,103.84626219999973,103.84626219999973,103.84626219999973,103.84626219999973,103.84626219999973,103.84626219999973,103.84626219999973,103.84626219999973,,002,P019,2025_Mar_21_0948,ConditionRich,2021.2.3,59.920605198265065,
69.0,69.75,16,0.75,Stimuli/P019/sun_blfpbbfyzmewzplm.jpg,0,0,0.0,0,131,131,131,,,,,,,,,,,,,69.01014979999945,0.010149799999453535,None,104.09651039999972,104.09651039999972,104.09651039999972,104.09651039999972,104.09651039999972,104.09651039999972,104.09651039999972,104.09651039999972,104.09651039999972,104.09651039999972,,002,P019,2025_Mar_21_0948,ConditionRich,2021.2.3,59.920605198265065,
69.75,70.0,41,0.0,Stimuli/Blank.png,0,0,0.0,0,132,132,132,,,,,,,,,,,,,69.77725789999931,0.02725789999931294,None,104.84713699999975,104.84713699999975,104.84713699999975,104.84713699999975,104.84713699999975,104.84713699999975,104.84713699999975,104.84713699999975,104.84713699999975,104.84713699999975,,002,P019,2025_Mar_21_0948,ConditionRich,2021.2.3,59.920605198265065,
70.0,70.75,16,0.75,Stimuli/P019/sun_blfpbbfyzmewzplm.jpg,1,0,0.75,0,133,133,133,,,,,,,,,,,,,70.01066529999935,0.010665299999345734,1,105.08068809999986,105.08068809999986,105.08068809999986,105.08068809999986,105.08068809999986,105.08068809999986,105.08068809999986,105.81466389999969,105.08068809999986,105.08068809999986,0.5072206999993796,002,P019,2025_Mar_21_0948,ConditionRich,2021.2.3,59.920605198265065,
70.75,71.0,41,0.0,Stimuli/Blank.png,0,0,0.0,0,134,134,134,,,,,,,,,,,,,70.7607238999999,0.010723899999902642,None,105.83135149999998,105.83135149999998,105.83135149999998,105.83135149999998,105.83135149999998,105.83135149999998,105.83135149999998,105.83135149999998,105.83135149999998,105.83135149999998,,002,P019,2025_Mar_21_0948,ConditionRich,2021.2.3,59.920605198265065,
71.0,71.75,16,0.75,Stimuli/P019/sun_blfpbbfyzmewzplm.jpg,0,0,0.0,0,135,135,135,,,,,,,,,,,,,71.0110138,0.011013800000000629,None,106.08156400000007,106.08156400000007,106.08156400000007,106.08156400000007,106.08156400000007,106.08156400000007,106.08156400000007,106.08156400000007,106.08156400000007,106.08156400000007,,002,P019,2025_Mar_21_0948,ConditionRich,2021.2.3,59.920605198265065,
71.75,72.0,41,0.0,Stimuli/Blank.png,0,0,0.0,0,136,136,136,,,,,,,,,,,,,71.76433309999993,0.01433309999993071,None,106.84894769999937,106.84894769999937,106.84894769999937,106.84894769999937,106.84894769999937,106.84894769999937,106.84894769999937,106.84894769999937,106.84894769999937,106.84894769999937,,002,P019,2025_Mar_21_0948,ConditionRich,2021.2.3,59.920605198265065,
72.0,72.75,32,0.75,Stimuli/P019/things_girl_10s.jpg,0,0,0.0,0,137,137,137,,,,,,,,,,,,,72.02859559999979,0.028595599999789556,None,107.09912739999982,107.09912739999982,107.09912739999982,107.09912739999982,107.09912739999982,107.09912739999982,107.09912739999982,107.09912739999982,107.09912739999982,107.09912739999982,,002,P019,2025_Mar_21_0948,ConditionRich,2021.2.3,59.920605198265065,
72.75,73.0,41,0.0,Stimuli/Blank.png,0,0,0.0,0,138,138,138,,,,,,,,,,,,,72.76507999999922,0.015079999999215943,None,107.84980839999935,107.84980839999935,107.84980839999935,107.84980839999935,107.84980839999935,107.84980839999935,107.84980839999935,107.84980839999935,107.84980839999935,107.84980839999935,,002,P019,2025_Mar_21_0948,ConditionRich,2021.2.3,59.920605198265065,
73.0,73.75,32,0.75,Stimuli/P019/things_girl_10s.jpg,0,0,0.0,0,139,139,139,,,,,,,,,,,,,73.03010610000001,0.030106100000011793,None,108.10001649999958,108.10001649999958,108.10001649999958,108.10001649999958,108.10001649999958,108.10001649999958,108.10001649999958,108.10001649999958,108.10001649999958,108.10001649999958,,002,P019,2025_Mar_21_0948,ConditionRich,2021.2.3,59.920605198265065,
73.75,74.0,41,0.0,Stimuli/Blank.png,0,0,0.0,0,140,140,140,,,,,,,,,,,,,73.7645193999997,0.01451939999969909,None,108.83401269999922,108.83401269999922,108.83401269999922,108.83401269999922,108.83401269999922,108.83401269999922,108.83401269999922,108.83401269999922,108.83401269999922,108.83401269999922,,002,P019,2025_Mar_21_0948,ConditionRich,2021.2.3,59.920605198265065,
74.0,74.75,32,0.75,Stimuli/P019/things_girl_10s.jpg,0,0,0.0,0,141,141,141,,,,,,,,,,,,,74.01394489999984,0.013944899999842164,None,109.08421089999956,109.08421089999956,109.08421089999956,109.08421089999956,109.08421089999956,109.08421089999956,109.08421089999956,109.08421089999956,109.08421089999956,109.08421089999956,,002,P019,2025_Mar_21_0948,ConditionRich,2021.2.3,59.920605198265065,
74.75,75.0,41,0.0,Stimuli/Blank.png,0,0,0.0,0,142,142,142,,,,,,,,,,,,,74.76559839999936,0.0155983999993623,None,109.85158859999956,109.85158859999956,109.85158859999956,109.85158859999956,109.85158859999956,109.85158859999956,109.85158859999956,109.85158859999956,109.85158859999956,109.85158859999956,,002,P019,2025_Mar_21_0948,ConditionRich,2021.2.3,59.920605198265065,
75.0,75.75,32,0.75,Stimuli/P019/things_girl_10s.jpg,0,0,0.0,0,143,143,143,,,,,,,,,,,,,75.01453299999957,0.014532999999573804,None,110.08510429999933,110.08510429999933,110.08510429999933,110.08510429999933,110.08510429999933,110.08510429999933,110.08510429999933,110.08510429999933,110.08510429999933,110.08510429999933,,002,P019,2025_Mar_21_0948,ConditionRich,2021.2.3,59.920605198265065,
75.75,76.0,41,0.0,Stimuli/Blank.png,0,0,0.0,0,144,144,144,,,,,,,,,,,,,75.76541109999926,0.015411099999255384,None,110.83576229999926,110.83576229999926,110.83576229999926,110.83576229999926,110.83576229999926,110.83576229999926,110.83576229999926,110.83576229999926,110.83576229999926,110.83576229999926,,002,P019,2025_Mar_21_0948,ConditionRich,2021.2.3,59.920605198265065,
76.0,76.75,9,0.75,Stimuli/P019/sun_bbfmuujfvpiaqdww.jpg,1,0,0.75,0,145,145,145,,,,,,,,,,,,,76.01548349999939,0.015483499999390915,1,111.08599529999992,111.08599529999992,111.08599529999992,111.08599529999992,111.08599529999992,111.08599529999992,111.08599529999992,None,111.08599529999992,111.08599529999992,0.5160094999991998,002,P019,2025_Mar_21_0948,ConditionRich,2021.2.3,59.920605198265065,
76.75,77.0,41,0.0,Stimuli/Blank.png,0,0,0.0,0,146,146,146,,,,,,,,,,,,,76.75171049999972,0.0017104999997172854,None,111.81999069999983,111.81999069999983,111.81999069999983,111.81999069999983,111.81999069999983,111.81999069999983,111.81999069999983,111.81999069999983,111.81999069999983,111.81999069999983,,002,P019,2025_Mar_21_0948,ConditionRich,2021.2.3,59.920605198265065,
77.0,77.75,9,0.75,Stimuli/P019/sun_bbfmuujfvpiaqdww.jpg,0,0,0.0,0,147,147,147,,,,,,,,,,,,,77.00027989999944,0.0002798999994411133,None,112.07020209999973,112.07020209999973,112.07020209999973,112.07020209999973,112.07020209999973,112.07020209999973,112.07020209999973,112.07020209999973,112.07020209999973,112.07020209999973,,002,P019,2025_Mar_21_0948,ConditionRich,2021.2.3,59.920605198265065,
77.75,78.0,41,0.0,Stimuli/Blank.png,0,0,0.0,0,148,148,148,,,,,,,,,,,,,77.75048249999963,0.0004824999996344559,None,112.82085069999994,112.82085069999994,112.82085069999994,112.82085069999994,112.82085069999994,112.82085069999994,112.82085069999994,112.82085069999994,112.82085069999994,112.82085069999994,,002,P019,2025_Mar_21_0948,ConditionRich,2021.2.3,59.920605198265065,
78.0,78.75,9,0.75,Stimuli/P019/sun_bbfmuujfvpiaqdww.jpg,0,0,0.0,0,149,149,149,,,,,,,,,,,,,78.00051429999985,0.0005142999998497544,None,113.07106609999937,113.07106609999937,113.07106609999937,113.07106609999937,113.07106609999937,113.07106609999937,113.07106609999937,113.07106609999937,113.07106609999937,113.07106609999937,,002,P019,2025_Mar_21_0948,ConditionRich,2021.2.3,59.920605198265065,
78.75,79.0,41,0.0,Stimuli/Blank.png,0,0,0.0,0,150,150,150,,,,,,,,,,,,,78.75133239999923,0.0013323999992280733,None,113.82172749999972,113.82172749999972,113.82172749999972,113.82172749999972,113.82172749999972,113.82172749999972,113.82172749999972,113.82172749999972,113.82172749999972,113.82172749999972,,002,P019,2025_Mar_21_0948,ConditionRich,2021.2.3,59.920605198265065,
79.0,79.75,9,0.75,Stimuli/P019/sun_bbfmuujfvpiaqdww.jpg,0,0,0.0,0,151,151,151,,,,,,,,,,,,,79.00161810000009,0.0016181000000869972,None,114.08865209999931,114.08865209999931,114.08865209999931,114.08865209999931,114.08865209999931,114.08865209999931,114.08865209999931,114.08865209999931,114.08865209999931,114.08865209999931,,002,P019,2025_Mar_21_0948,ConditionRich,2021.2.3,59.920605198265065,
79.75,80.0,41,0.0,Stimuli/Blank.png,0,0,0.0,0,152,152,152,,,,,,,,,,,,,79.77020339999945,0.020203399999445537,None,114.8393060999997,114.8393060999997,114.8393060999997,114.8393060999997,114.8393060999997,114.8393060999997,114.8393060999997,114.8393060999997,114.8393060999997,114.8393060999997,,002,P019,2025_Mar_21_0948,ConditionRich,2021.2.3,59.920605198265065,
80.0,80.75,7,0.75,Stimuli/P019/sun_aqkbfuonyunmyqxb.jpg,0,0,0.0,0,153,153,153,,,,,,,,,,,,,80.00241339999957,0.0024133999995683553,None,115.0728479999998,115.0728479999998,115.0728479999998,115.0728479999998,115.0728479999998,115.0728479999998,115.0728479999998,115.0728479999998,115.0728479999998,115.0728479999998,,002,P019,2025_Mar_21_0948,ConditionRich,2021.2.3,59.920605198265065,
80.75,81.0,41,0.0,Stimuli/Blank.png,0,0,0.0,0,154,154,154,,,,,,,,,,,,,80.75522769999952,0.0052276999995228834,None,115.84018959999958,115.84018959999958,115.84018959999958,115.84018959999958,115.84018959999958,115.84018959999958,115.84018959999958,115.84018959999958,115.84018959999958,115.84018959999958,,002,P019,2025_Mar_21_0948,ConditionRich,2021.2.3,59.920605198265065,
81.0,81.75,7,0.75,Stimuli/P019/sun_aqkbfuonyunmyqxb.jpg,0,0,0.0,0,155,155,155,,,,,,,,,,,,,81.01992209999935,0.019922099999348575,None,116.09040529999947,116.09040529999947,116.09040529999947,116.09040529999947,116.09040529999947,116.09040529999947,116.09040529999947,116.09040529999947,116.09040529999947,116.09040529999947,,002,P019,2025_Mar_21_0948,ConditionRich,2021.2.3,59.920605198265065,
81.75,82.0,41,0.0,Stimuli/Blank.png,0,0,0.0,0,156,156,156,,,,,,,,,,,,,81.75404919999983,0.004049199999826669,None,116.82438419999926,116.82438419999926,116.82438419999926,116.82438419999926,116.82438419999926,116.82438419999926,116.82438419999926,116.82438419999926,116.82438419999926,116.82438419999926,,002,P019,2025_Mar_21_0948,ConditionRich,2021.2.3,59.920605198265065,
82.0,82.75,7,0.75,Stimuli/P019/sun_aqkbfuonyunmyqxb.jpg,0,0,0.0,0,157,157,157,,,,,,,,,,,,,82.00539570000001,0.005395700000008219,None,117.09129119999943,117.09129119999943,117.09129119999943,117.09129119999943,117.09129119999943,117.09129119999943,117.09129119999943,117.09129119999943,117.09129119999943,117.09129119999943,,002,P019,2025_Mar_21_0948,ConditionRich,2021.2.3,59.920605198265065,
82.75,83.0,41,0.0,Stimuli/Blank.png,0,0,0.0,0,158,158,158,,,,,,,,,,,,,82.77315029999954,0.023150299999542767,None,117.84198049999941,117.84198049999941,117.84198049999941,117.84198049999941,117.84198049999941,117.84198049999941,117.84198049999941,117.84198049999941,117.84198049999941,117.84198049999941,,002,P019,2025_Mar_21_0948,ConditionRich,2021.2.3,59.920605198265065,
83.0,83.75,7,0.75,Stimuli/P019/sun_aqkbfuonyunmyqxb.jpg,0,0,0.0,0,159,159,159,,,,,,,,,,,,,83.0050612999994,0.005061299999397306,None,118.07549449999988,118.07549449999988,118.07549449999988,118.07549449999988,118.07549449999988,118.07549449999988,118.07549449999988,118.07549449999988,118.07549449999988,118.07549449999988,,002,P019,2025_Mar_21_0948,ConditionRich,2021.2.3,59.920605198265065,
83.75,84.0,41,0.0,Stimuli/Blank.png,0,0,0.0,0,160,160,160,,,,,,,,,,,,,83.75668829999995,0.0066882999999506865,None,118.82624820000001,118.82624820000001,118.82624820000001,118.82624820000001,118.82624820000001,118.82624820000001,118.82624820000001,118.82624820000001,118.82624820000001,118.82624820000001,,002,P019,2025_Mar_21_0948,ConditionRich,2021.2.3,59.920605198265065,
84.0,100.0,0,0.0,Stimuli/Blank.png,1,8,8.75,0,161,161,161,,,,,,,,,,,,,84.00581929999953,0.005819299999529903,1,119.07637329999943,119.07637329999943,119.07637329999943,119.07637329999943,119.07637329999943,119.07637329999943,127.06676079999943,127.8174368,119.07637329999943,119.07637329999943,8.519535200000064,002,P019,2025_Mar_21_0948,ConditionRich,2021.2.3,59.920605198265065,
100.0,100.75,31,0.75,Stimuli/P019/things_fudge_10s.jpg,0,0,0.0,0,162,162,162,,,,,,,,,,,,,100.00378269999965,0.0037826999996468658,None,135.07383219999974,135.07383219999974,135.07383219999974,135.07383219999974,135.07383219999974,135.07383219999974,135.07383219999974,135.07383219999974,135.07383219999974,135.07383219999974,,002,P019,2025_Mar_21_0948,ConditionRich,2021.2.3,59.920605198265065,
100.75,101.0,41,0.0,Stimuli/Blank.png,0,0,0.0,0,163,163,163,,,,,,,,,,,,,100.7544068999996,0.004406899999594316,None,135.8244998,135.8244998,135.8244998,135.8244998,135.8244998,135.8244998,135.8244998,135.8244998,135.8244998,135.8244998,,002,P019,2025_Mar_21_0948,ConditionRich,2021.2.3,59.920605198265065,
101.0,101.75,31,0.75,Stimuli/P019/things_fudge_10s.jpg,0,0,0.0,0,164,164,164,,,,,,,,,,,,,101.00485659999958,0.004856599999584432,None,136.09143069999936,136.09143069999936,136.09143069999936,136.09143069999936,136.09143069999936,136.09143069999936,136.09143069999936,136.09143069999936,136.09143069999936,136.09143069999936,,002,P019,2025_Mar_21_0948,ConditionRich,2021.2.3,59.920605198265065,
101.75,102.0,41,0.0,Stimuli/Blank.png,0,0,0.0,0,165,165,165,,,,,,,,,,,,,101.77213429999938,0.022134299999379436,None,136.84215679999943,136.84215679999943,136.84215679999943,136.84215679999943,136.84215679999943,136.84215679999943,136.84215679999943,136.84215679999943,136.84215679999943,136.84215679999943,,002,P019,2025_Mar_21_0948,ConditionRich,2021.2.3,59.920605198265065,
102.0,102.75,31,0.75,Stimuli/P019/things_fudge_10s.jpg,0,0,0.0,0,166,166,166,,,,,,,,,,,,,102.00510249999934,0.005102499999338761,None,137.07561129999976,137.07561129999976,137.07561129999976,137.07561129999976,137.07561129999976,137.07561129999976,137.07561129999976,137.07561129999976,137.07561129999976,137.07561129999976,,002,P019,2025_Mar_21_0948,ConditionRich,2021.2.3,59.920605198265065,
102.75,103.0,41,0.0,Stimuli/Blank.png,0,0,0.0,0,167,167,167,,,,,,,,,,,,,102.75587509999968,0.005875099999684608,None,137.8262752999999,137.8262752999999,137.8262752999999,137.8262752999999,137.8262752999999,137.8262752999999,137.8262752999999,137.8262752999999,137.8262752999999,137.8262752999999,,002,P019,2025_Mar_21_0948,ConditionRich,2021.2.3,59.920605198265065,
103.0,103.75,31,0.75,Stimuli/P019/things_fudge_10s.jpg,0,0,0.0,0,168,168,168,,,,,,,,,,,,,103.00682929999948,0.006829299999481009,None,138.09317239999928,138.09317239999928,138.09317239999928,138.09317239999928,138.09317239999928,138.09317239999928,138.09317239999928,138.09317239999928,138.09317239999928,138.09317239999928,,002,P019,2025_Mar_21_0948,ConditionRich,2021.2.3,59.920605198265065,
103.75,104.0,41,0.0,Stimuli/Blank.png,0,0,0.0,0,169,169,169,,,,,,,,,,,,,103.7732204999993,0.023220499999297317,None,138.84383199999957,138.84383199999957,138.84383199999957,138.84383199999957,138.84383199999957,138.84383199999957,138.84383199999957,138.84383199999957,138.84383199999957,138.84383199999957,,002,P019,2025_Mar_21_0948,ConditionRich,2021.2.3,59.920605198265065,
104.0,104.75,27,0.75,Stimuli/P019/things_eel_10s.jpg,0,0,0.0,0,170,170,170,,,,,,,,,,,,,104.00937389999945,0.009373899999445712,None,139.09406319999925,139.09406319999925,139.09406319999925,139.09406319999925,139.09406319999925,139.09406319999925,139.09406319999925,139.09406319999925,139.09406319999925,139.09406319999925,,002,P019,2025_Mar_21_0948,ConditionRich,2021.2.3,59.920605198265065,
104.75,105.0,41,0.0,Stimuli/Blank.png,0,0,0.0,0,171,171,171,,,,,,,,,,,,,104.77531529999942,0.02531529999941995,None,139.8447357999994,139.8447357999994,139.8447357999994,139.8447357999994,139.8447357999994,139.8447357999994,139.8447357999994,139.8447357999994,139.8447357999994,139.8447357999994,,002,P019,2025_Mar_21_0948,ConditionRich,2021.2.3,59.920605198265065,
105.0,105.75,27,0.75,Stimuli/P019/things_eel_10s.jpg,0,0,0.0,0,172,172,172,,,,,,,,,,,,,105.0106608999995,0.010660899999493267,None,140.09497509999983,140.09497509999983,140.09497509999983,140.09497509999983,140.09497509999983,140.09497509999983,140.09497509999983,140.09497509999983,140.09497509999983,140.09497509999983,,002,P019,2025_Mar_21_0948,ConditionRich,2021.2.3,59.920605198265065,
105.75,106.0,41,0.0,Stimuli/Blank.png,0,0,0.0,0,173,173,173,,,,,,,,,,,,,105.7752504,0.025250400000004447,None,140.8456083000001,140.8456083000001,140.8456083000001,140.8456083000001,140.8456083000001,140.8456083000001,140.8456083000001,140.8456083000001,140.8456083000001,140.8456083000001,,002,P019,2025_Mar_21_0948,ConditionRich,2021.2.3,59.920605198265065,
106.0,106.75,27,0.75,Stimuli/P019/things_eel_10s.jpg,0,0,0.0,0,174,174,174,,,,,,,,,,,,,106.00960299999952,0.009602999999515305,None,141.07914999999957,141.07914999999957,141.07914999999957,141.07914999999957,141.07914999999957,141.07914999999957,141.07914999999957,141.07914999999957,141.07914999999957,141.07914999999957,,002,P019,2025_Mar_21_0948,ConditionRich,2021.2.3,59.920605198265065,
106.75,107.0,41,0.0,Stimuli/Blank.png,0,0,0.0,0,175,175,175,,,,,,,,,,,,,106.76066540000011,0.010665400000107184,None,141.82980739999948,141.82980739999948,141.82980739999948,141.82980739999948,141.82980739999948,141.82980739999948,141.82980739999948,141.82980739999948,141.82980739999948,141.82980739999948,,002,P019,2025_Mar_21_0948,ConditionRich,2021.2.3,59.920605198265065,
107.0,107.75,27,0.75,Stimuli/P019/things_eel_10s.jpg,1,0,0.75,0,176,176,176,,,,,,,,,,,,,107.01005009999972,0.010050099999716622,1,142.09675569999945,142.09675569999945,142.09675569999945,142.09675569999945,142.09675569999945,142.09675569999945,142.09675569999945,142.8140186999999,142.09675569999945,142.09675569999945,0.45916570000008505,002,P019,2025_Mar_21_0948,ConditionRich,2021.2.3,59.920605198265065,
107.75,108.0,41,0.0,Stimuli/Blank.png,0,0,0.0,0,177,177,177,,,,,,,,,,,,,107.77730649999921,0.027306499999212974,None,142.84736759999942,142.84736759999942,142.84736759999942,142.84736759999942,142.84736759999942,142.84736759999942,142.84736759999942,142.84736759999942,142.84736759999942,142.84736759999942,,002,P019,2025_Mar_21_0948,ConditionRich,2021.2.3,59.920605198265065,
108.0,108.75,36,0.75,Stimuli/P019/things_sunroof_10s.jpg,0,0,0.0,0,178,178,178,,,,,,,,,,,,,108.01123089999965,0.011230899999645771,None,143.08091349999995,143.08091349999995,143.08091349999995,143.08091349999995,143.08091349999995,143.08091349999995,143.08091349999995,143.08091349999995,143.08091349999995,143.08091349999995,,002,P019,2025_Mar_21_0948,ConditionRich,2021.2.3,59.920605198265065,
108.75,109.0,41,0.0,Stimuli/Blank.png,0,0,0.0,0,179,179,179,,,,,,,,,,,,,108.76205559999926,0.012055599999257538,None,143.83171959999981,143.83171959999981,143.83171959999981,143.83171959999981,143.83171959999981,143.83171959999981,143.83171959999981,143.83171959999981,143.83171959999981,143.83171959999981,,002,P019,2025_Mar_21_0948,ConditionRich,2021.2.3,59.920605198265065,
109.0,109.75,36,0.75,Stimuli/P019/things_sunroof_10s.jpg,0,0,0.0,0,180,180,180,,,,,,,,,,,,,109.01183709999987,0.011837099999866041,None,144.09847979999995,144.09847979999995,144.09847979999995,144.09847979999995,144.09847979999995,144.09847979999995,144.09847979999995,144.09847979999995,144.09847979999995,144.09847979999995,,002,P019,2025_Mar_21_0948,ConditionRich,2021.2.3,59.920605198265065,
109.75,110.0,41,0.0,Stimuli/Blank.png,0,0,0.0,0,181,181,181,,,,,,,,,,,,,109.77925719999985,0.029257199999847217,None,144.84914320000007,144.84914320000007,144.84914320000007,144.84914320000007,144.84914320000007,144.84914320000007,144.84914320000007,144.84914320000007,144.84914320000007,144.84914320000007,,002,P019,2025_Mar_21_0948,ConditionRich,2021.2.3,59.920605198265065,
110.0,110.75,36,0.75,Stimuli/P019/things_sunroof_10s.jpg,1,0,0.75,0,182,182,182,,,,,,,,,,,,,110.01294479999979,0.012944799999786483,1,145.09936539999944,145.09936539999944,145.09936539999944,145.09936539999944,145.09936539999944,145.09936539999944,145.09936539999944,145.81669259999944,145.09936539999944,145.09936539999944,0.44847180000033404,002,P019,2025_Mar_21_0948,ConditionRich,2021.2.3,59.920605198265065,
110.75,111.0,41,0.0,Stimuli/Blank.png,0,0,0.0,0,183,183,183,,,,,,,,,,,,,110.78116339999997,0.031163399999968533,None,145.84999470000002,145.84999470000002,145.84999470000002,145.84999470000002,145.84999470000002,145.84999470000002,145.84999470000002,145.84999470000002,145.84999470000002,145.84999470000002,,002,P019,2025_Mar_21_0948,ConditionRich,2021.2.3,59.920605198265065,
111.0,111.75,36,0.75,Stimuli/P019/things_sunroof_10s.jpg,0,0,0.0,0,184,184,184,,,,,,,,,,,,,111.01568029999999,0.015680299999985436,None,146.10024299999986,146.10024299999986,146.10024299999986,146.10024299999986,146.10024299999986,146.10024299999986,146.10024299999986,146.10024299999986,146.10024299999986,146.10024299999986,,002,P019,2025_Mar_21_0948,ConditionRich,2021.2.3,59.920605198265065,
111.75,112.0,41,0.0,Stimuli/Blank.png,0,0,0.0,0,185,185,185,,,,,,,,,,,,,111.76433199999974,0.01433199999974022,None,146.83423049999965,146.83423049999965,146.83423049999965,146.83423049999965,146.83423049999965,146.83423049999965,146.83423049999965,146.83423049999965,146.83423049999965,146.83423049999965,,002,P019,2025_Mar_21_0948,ConditionRich,2021.2.3,59.920605198265065,
112.0,112.75,19,0.75,Stimuli/P019/sun_byssdezaaqnthppd.jpg,0,0,0.0,0,186,186,186,,,,,,,,,,,,,112.01452229999995,0.014522299999953248,None,147.08444269999927,147.08444269999927,147.08444269999927,147.08444269999927,147.08444269999927,147.08444269999927,147.08444269999927,147.08444269999927,147.08444269999927,147.08444269999927,,002,P019,2025_Mar_21_0948,ConditionRich,2021.2.3,59.920605198265065,
112.75,113.0,41,0.0,Stimuli/Blank.png,0,0,0.0,0,187,187,187,,,,,,,,,,,,,112.7660363999994,0.016036399999393325,None,147.83512859999973,147.83512859999973,147.83512859999973,147.83512859999973,147.83512859999973,147.83512859999973,147.83512859999973,147.83512859999973,147.83512859999973,147.83512859999973,,002,P019,2025_Mar_21_0948,ConditionRich,2021.2.3,59.920605198265065,
113.0,113.75,19,0.75,Stimuli/P019/sun_byssdezaaqnthppd.jpg,0,0,0.0,0,188,188,188,,,,,,,,,,,,,112.99837949999983,-0.0016205000001718872,None,148.06864939999923,148.06864939999923,148.06864939999923,148.06864939999923,148.06864939999923,148.06864939999923,148.06864939999923,148.06864939999923,148.06864939999923,148.06864939999923,,002,P019,2025_Mar_21_0948,ConditionRich,2021.2.3,59.920605198265065,
113.75,114.0,41,0.0,Stimuli/Blank.png,0,0,0.0,0,189,189,189,,,,,,,,,,,,,113.74937959999988,-0.0006204000001162058,None,148.81932609999967,148.81932609999967,148.81932609999967,148.81932609999967,148.81932609999967,148.81932609999967,148.81932609999967,148.81932609999967,148.81932609999967,148.81932609999967,,002,P019,2025_Mar_21_0948,ConditionRich,2021.2.3,59.920605198265065,
114.0,114.75,19,0.75,Stimuli/P019/sun_byssdezaaqnthppd.jpg,0,0,0.0,0,190,190,190,,,,,,,,,,,,,113.99900239999988,-0.0009976000001188368,None,149.06952730000012,149.06952730000012,149.06952730000012,149.06952730000012,149.06952730000012,149.06952730000012,149.06952730000012,149.06952730000012,149.06952730000012,149.06952730000012,,002,P019,2025_Mar_21_0948,ConditionRich,2021.2.3,59.920605198265065,
114.75,115.0,41,0.0,Stimuli/Blank.png,0,0,0.0,0,191,191,191,,,,,,,,,,,,,114.7514814999995,0.001481499999499647,None,149.82020759999978,149.82020759999978,149.82020759999978,149.82020759999978,149.82020759999978,149.82020759999978,149.82020759999978,149.82020759999978,149.82020759999978,149.82020759999978,,002,P019,2025_Mar_21_0948,ConditionRich,2021.2.3,59.920605198265065,
115.0,115.75,19,0.75,Stimuli/P019/sun_byssdezaaqnthppd.jpg,0,0,0.0,0,192,192,192,,,,,,,,,,,,,115.00000209999962,2.099999619531445e-06,None,150.07041690000005,150.07041690000005,150.07041690000005,150.07041690000005,150.07041690000005,150.07041690000005,150.07041690000005,150.07041690000005,150.07041690000005,150.07041690000005,,002,P019,2025_Mar_21_0948,ConditionRich,2021.2.3,59.920605198265065,
115.75,116.0,41,0.0,Stimuli/Blank.png,0,0,0.0,0,193,193,193,,,,,,,,,,,,,115.7506843000001,0.0006843000001026667,None,150.82108269999935,150.82108269999935,150.82108269999935,150.82108269999935,150.82108269999935,150.82108269999935,150.82108269999935,150.82108269999935,150.82108269999935,150.82108269999935,,002,P019,2025_Mar_21_0948,ConditionRich,2021.2.3,59.920605198265065,
116.0,116.75,13,0.75,Stimuli/P019/sun_bhzwrbdycbchqesq.jpg,0,0,0.0,0,194,194,194,,,,,,,,,,,,,116.00083969999923,0.0008396999992328347,None,151.07129729999997,151.07129729999997,151.07129729999997,151.07129729999997,151.07129729999997,151.07129729999997,151.07129729999997,151.07129729999997,151.07129729999997,151.07129729999997,,002,P019,2025_Mar_21_0948,ConditionRich,2021.2.3,59.920605198265065,
116.75,117.0,41,0.0,Stimuli/Blank.png,0,0,0.0,0,195,195,195,,,,,,,,,,,,,116.75169669999923,0.0016966999992291676,None,151.82196380000005,151.82196380000005,151.82196380000005,151.82196380000005,151.82196380000005,151.82196380000005,151.82196380000005,151.82196380000005,151.82196380000005,151.82196380000005,,002,P019,2025_Mar_21_0948,ConditionRich,2021.2.3,59.920605198265065,
117.0,117.75,13,0.75,Stimuli/P019/sun_bhzwrbdycbchqesq.jpg,0,0,0.0,0,196,196,196,,,,,,,,,,,,,117.00434270000005,0.004342700000051991,None,152.08886989999974,152.08886989999974,152.08886989999974,152.08886989999974,152.08886989999974,152.08886989999974,152.08886989999974,152.08886989999974,152.08886989999974,152.08886989999974,,002,P019,2025_Mar_21_0948,ConditionRich,2021.2.3,59.920605198265065,
117.75,118.0,41,0.0,Stimuli/Blank.png,0,0,0.0,0,197,197,197,,,,,,,,,,,,,117.77056099999936,0.02056099999936123,None,152.8395473999999,152.8395473999999,152.8395473999999,152.8395473999999,152.8395473999999,152.8395473999999,152.8395473999999,152.8395473999999,152.8395473999999,152.8395473999999,,002,P019,2025_Mar_21_0948,ConditionRich,2021.2.3,59.920605198265065,
118.0,118.75,13,0.75,Stimuli/P019/sun_bhzwrbdycbchqesq.jpg,0,0,0.0,0,198,198,198,,,,,,,,,,,,,118.00586169999951,0.005861699999513803,None,153.08975049999935,153.08975049999935,153.08975049999935,153.08975049999935,153.08975049999935,153.08975049999935,153.08975049999935,153.08975049999935,153.08975049999935,153.08975049999935,,002,P019,2025_Mar_21_0948,ConditionRich,2021.2.3,59.920605198265065,
118.75,119.0,41,0.0,Stimuli/Blank.png,0,0,0.0,0,199,199,199,,,,,,,,,,,,,118.76985399999921,0.019853999999213556,None,153.84041399999933,153.84041399999933,153.84041399999933,153.84041399999933,153.84041399999933,153.84041399999933,153.84041399999933,153.84041399999933,153.84041399999933,153.84041399999933,,002,P019,2025_Mar_21_0948,ConditionRich,2021.2.3,59.920605198265065,
119.0,119.75,13,0.75,Stimuli/P019/sun_bhzwrbdycbchqesq.jpg,0,0,0.0,0,200,200,200,,,,,,,,,,,,,119.00352309999926,0.003523099999256374,None,154.07392459999937,154.07392459999937,154.07392459999937,154.07392459999937,154.07392459999937,154.07392459999937,154.07392459999937,154.07392459999937,154.07392459999937,154.07392459999937,,002,P019,2025_Mar_21_0948,ConditionRich,2021.2.3,59.920605198265065,
119.75,120.0,41,0.0,Stimuli/Blank.png,0,0,0.0,0,201,201,201,,,,,,,,,,,,,119.75434669999959,0.004346699999587145,None,154.82461409999996,154.82461409999996,154.82461409999996,154.82461409999996,154.82461409999996,154.82461409999996,154.82461409999996,154.82461409999996,154.82461409999996,154.82461409999996,,002,P019,2025_Mar_21_0948,ConditionRich,2021.2.3,59.920605198265065,
120.0,120.75,26,0.75,Stimuli/P019/things_earwig_10n.jpg,0,0,0.0,0,202,202,202,,,,,,,,,,,,,120.00476899999921,0.004768999999214429,None,155.07483259999935,155.07483259999935,155.07483259999935,155.07483259999935,155.07483259999935,155.07483259999935,155.07483259999935,155.07483259999935,155.07483259999935,155.07483259999935,,002,P019,2025_Mar_21_0948,ConditionRich,2021.2.3,59.920605198265065,
120.75,121.0,41,0.0,Stimuli/Blank.png,0,0,0.0,0,203,203,203,,,,,,,,,,,,,120.75507379999999,0.005073799999991024,None,155.82551009999952,155.82551009999952,155.82551009999952,155.82551009999952,155.82551009999952,155.82551009999952,155.82551009999952,155.82551009999952,155.82551009999952,155.82551009999952,,002,P019,2025_Mar_21_0948,ConditionRich,2021.2.3,59.920605198265065,
121.0,121.75,26,0.75,Stimuli/P019/things_earwig_10n.jpg,0,0,0.0,0,204,204,204,,,,,,,,,,,,,121.00531709999996,0.005317099999956554,None,156.07572029999938,156.07572029999938,156.07572029999938,156.07572029999938,156.07572029999938,156.07572029999938,156.07572029999938,156.07572029999938,156.07572029999938,156.07572029999938,,002,P019,2025_Mar_21_0948,ConditionRich,2021.2.3,59.920605198265065,
121.75,122.0,41,0.0,Stimuli/Blank.png,0,0,0.0,0,205,205,205,,,,,,,,,,,,,121.75668079999923,0.006680799999230658,None,156.82638449999922,156.82638449999922,156.82638449999922,156.82638449999922,156.82638449999922,156.82638449999922,156.82638449999922,156.82638449999922,156.82638449999922,156.82638449999922,,002,P019,2025_Mar_21_0948,ConditionRich,2021.2.3,59.920605198265065,
122.0,122.75,26,0.75,Stimuli/P019/things_earwig_10n.jpg,0,0,0.0,0,206,206,206,,,,,,,,,,,,,122.00594319999982,0.005943199999819626,None,157.07660570000007,157.07660570000007,157.07660570000007,157.07660570000007,157.07660570000007,157.07660570000007,157.07660570000007,157.07660570000007,157.07660570000007,157.07660570000007,,002,P019,2025_Mar_21_0948,ConditionRich,2021.2.3,59.920605198265065,
122.75,123.0,41,0.0,Stimuli/Blank.png,0,0,0.0,0,207,207,207,,,,,,,,,,,,,122.75684799999999,0.006847999999990861,None,157.8272632999997,157.8272632999997,157.8272632999997,157.8272632999997,157.8272632999997,157.8272632999997,157.8272632999997,157.8272632999997,157.8272632999997,157.8272632999997,,002,P019,2025_Mar_21_0948,ConditionRich,2021.2.3,59.920605198265065,
123.0,123.75,26,0.75,Stimuli/P019/things_earwig_10n.jpg,0,0,0.0,0,208,208,208,,,,,,,,,,,,,123.00945189999948,0.009451899999476154,None,158.0941783999997,158.0941783999997,158.0941783999997,158.0941783999997,158.0941783999997,158.0941783999997,158.0941783999997,158.0941783999997,158.0941783999997,158.0941783999997,,002,P019,2025_Mar_21_0948,ConditionRich,2021.2.3,59.920605198265065,
123.75,124.0,41,0.0,Stimuli/Blank.png,0,0,0.0,0,209,209,209,,,,,,,,,,,,,123.77421989999948,0.02421989999947982,None,158.84484149999935,158.84484149999935,158.84484149999935,158.84484149999935,158.84484149999935,158.84484149999935,158.84484149999935,158.84484149999935,158.84484149999935,158.84484149999935,,002,P019,2025_Mar_21_0948,ConditionRich,2021.2.3,59.920605198265065,
124.0,124.75,8,0.75,Stimuli/P019/sun_avbzvunekksfggon.jpg,0,0,0.0,0,210,210,210,,,,,,,,,,,,,124.01134789999924,0.011347899999236688,None,159.09508789999927,159.09508789999927,159.09508789999927,159.09508789999927,159.09508789999927,159.09508789999927,159.09508789999927,159.09508789999927,159.09508789999927,159.09508789999927,,002,P019,2025_Mar_21_0948,ConditionRich,2021.2.3,59.920605198265065,
124.75,125.0,41,0.0,Stimuli/Blank.png,0,0,0.0,0,211,211,211,,,,,,,,,,,,,124.77507280000009,0.025072800000089046,None,159.8457217999994,159.8457217999994,159.8457217999994,159.8457217999994,159.8457217999994,159.8457217999994,159.8457217999994,159.8457217999994,159.8457217999994,159.8457217999994,,002,P019,2025_Mar_21_0948,ConditionRich,2021.2.3,59.920605198265065,
125.0,125.75,8,0.75,Stimuli/P019/sun_avbzvunekksfggon.jpg,0,0,0.0,0,212,212,212,,,,,,,,,,,,,125.00861059999988,0.008610599999883561,None,160.07925369999975,160.07925369999975,160.07925369999975,160.07925369999975,160.07925369999975,160.07925369999975,160.07925369999975,160.07925369999975,160.07925369999975,160.07925369999975,,002,P019,2025_Mar_21_0948,ConditionRich,2021.2.3,59.920605198265065,
125.75,126.0,41,0.0,Stimuli/Blank.png,0,0,0.0,0,213,213,213,,,,,,,,,,,,,125.76015259999986,0.010152599999855738,None,160.82992130000002,160.82992130000002,160.82992130000002,160.82992130000002,160.82992130000002,160.82992130000002,160.82992130000002,160.82992130000002,160.82992130000002,160.82992130000002,,002,P019,2025_Mar_21_0948,ConditionRich,2021.2.3,59.920605198265065,
126.0,126.75,8,0.75,Stimuli/P019/sun_avbzvunekksfggon.jpg,0,0,0.0,0,214,214,214,,,,,,,,,,,,,126.01016809999965,0.010168099999646074,None,161.08014399999956,161.08014399999956,161.08014399999956,161.08014399999956,161.08014399999956,161.08014399999956,161.08014399999956,161.08014399999956,161.08014399999956,161.08014399999956,,002,P019,2025_Mar_21_0948,ConditionRich,2021.2.3,59.920605198265065,
126.75,127.0,41,0.0,Stimuli/Blank.png,0,0,0.0,0,215,215,215,,,,,,,,,,,,,126.76046049999968,0.010460499999680906,None,161.8309363999997,161.8309363999997,161.8309363999997,161.8309363999997,161.8309363999997,161.8309363999997,161.8309363999997,161.8309363999997,161.8309363999997,161.8309363999997,,002,P019,2025_Mar_21_0948,ConditionRich,2021.2.3,59.920605198265065,
127.0,127.75,8,0.75,Stimuli/P019/sun_avbzvunekksfggon.jpg,0,0,0.0,0,216,216,216,,,,,,,,,,,,,127.01066759999958,0.01066759999957867,None,162.08102489999965,162.08102489999965,162.08102489999965,162.08102489999965,162.08102489999965,162.08102489999965,162.08102489999965,162.08102489999965,162.08102489999965,162.08102489999965,,002,P019,2025_Mar_21_0948,ConditionRich,2021.2.3,59.920605198265065,
127.75,128.0,41,0.0,Stimuli/Blank.png,0,0,0.0,0,217,217,217,,,,,,,,,,,,,127.76192509999964,0.011925099999643862,None,162.83175239999946,162.83175239999946,162.83175239999946,162.83175239999946,162.83175239999946,162.83175239999946,162.83175239999946,162.83175239999946,162.83175239999946,162.83175239999946,,002,P019,2025_Mar_21_0948,ConditionRich,2021.2.3,59.920605198265065,
128.0,128.75,24,0.75,Stimuli/P019/things_bulletin_board_10s.jpg,0,0,0.0,0,218,218,218,,,,,,,,,,,,,128.01136150000002,0.011361500000020897,None,163.09859979999965,163.09859979999965,163.09859979999965,163.09859979999965,163.09859979999965,163.09859979999965,163.09859979999965,163.09859979999965,163.09859979999965,163.09859979999965,,002,P019,2025_Mar_21_0948,ConditionRich,2021.2.3,59.920605198265065,
128.75,129.0,41,0.0,Stimuli/Blank.png,0,0,0.0,0,219,219,219,,,,,,,,,,,,,128.7794401000001,0.029440100000101666,None,163.84925139999996,163.84925139999996,163.84925139999996,163.84925139999996,163.84925139999996,163.84925139999996,163.84925139999996,163.84925139999996,163.84925139999996,163.84925139999996,,002,P019,2025_Mar_21_0948,ConditionRich,2021.2.3,59.920605198265065,
129.0,129.75,24,0.75,Stimuli/P019/things_bulletin_board_10s.jpg,0,0,0.0,0,220,220,220,,,,,,,,,,,,,129.0137810999995,0.013781099999505386,None,164.0994901999993,164.0994901999993,164.0994901999993,164.0994901999993,164.0994901999993,164.0994901999993,164.0994901999993,164.0994901999993,164.0994901999993,164.0994901999993,,002,P019,2025_Mar_21_0948,ConditionRich,2021.2.3,59.920605198265065,
129.75,130.0,41,0.0,Stimuli/Blank.png,0,0,0.0,0,221,221,221,,,,,,,,,,,,,129.78035649999947,0.030356499999470543,None,164.85014090000004,164.85014090000004,164.85014090000004,164.85014090000004,164.85014090000004,164.85014090000004,164.85014090000004,164.85014090000004,164.85014090000004,164.85014090000004,,002,P019,2025_Mar_21_0948,ConditionRich,2021.2.3,59.920605198265065,
130.0,130.75,24,0.75,Stimuli/P019/things_bulletin_board_10s.jpg,0,0,0.0,0,222,222,222,,,,,,,,,,,,,130.0130070999994,0.013007099999413185,None,165.08367539999927,165.08367539999927,165.08367539999927,165.08367539999927,165.08367539999927,165.08367539999927,165.08367539999927,165.08367539999927,165.08367539999927,165.08367539999927,,002,P019,2025_Mar_21_0948,ConditionRich,2021.2.3,59.920605198265065,
130.75,131.0,41,0.0,Stimuli/Blank.png,0,0,0.0,0,223,223,223,,,,,,,,,,,,,130.76452139999947,0.014521399999466666,None,165.83435559999998,165.83435559999998,165.83435559999998,165.83435559999998,165.83435559999998,165.83435559999998,165.83435559999998,165.83435559999998,165.83435559999998,165.83435559999998,,002,P019,2025_Mar_21_0948,ConditionRich,2021.2.3,59.920605198265065,
131.0,131.75,24,0.75,Stimuli/P019/things_bulletin_board_10s.jpg,0,0,0.0,0,224,224,224,,,,,,,,,,,,,131.0151636999999,0.015163699999902747,None,166.10124579999956,166.10124579999956,166.10124579999956,166.10124579999956,166.10124579999956,166.10124579999956,166.10124579999956,166.10124579999956,166.10124579999956,166.10124579999956,,002,P019,2025_Mar_21_0948,ConditionRich,2021.2.3,59.920605198265065,
131.75,132.0,41,0.0,Stimuli/Blank.png,0,0,0.0,0,225,225,225,,,,,,,,,,,,,131.76579760000004,0.01579760000004171,None,166.85191140000006,166.85191140000006,166.85191140000006,166.85191140000006,166.85191140000006,166.85191140000006,166.85191140000006,166.85191140000006,166.85191140000006,166.85191140000006,,002,P019,2025_Mar_21_0948,ConditionRich,2021.2.3,59.920605198265065,
132.0,132.75,34,0.75,Stimuli/P019/things_man_10s.jpg,0,0,0.0,0,226,226,226,,,,,,,,,,,,,132.0148521000001,0.01485210000009829,None,167.08541309999964,167.08541309999964,167.08541309999964,167.08541309999964,167.08541309999964,167.08541309999964,167.08541309999964,167.08541309999964,167.08541309999964,167.08541309999964,,002,P019,2025_Mar_21_0948,ConditionRich,2021.2.3,59.920605198265065,
132.75,133.0,41,0.0,Stimuli/Blank.png,0,0,0.0,0,227,227,227,,,,,,,,,,,,,132.76667439999983,0.016674399999828893,None,167.83611609999934,167.83611609999934,167.83611609999934,167.83611609999934,167.83611609999934,167.83611609999934,167.83611609999934,167.83611609999934,167.83611609999934,167.83611609999934,,002,P019,2025_Mar_21_0948,ConditionRich,2021.2.3,59.920605198265065,
133.0,133.75,34,0.75,Stimuli/P019/things_man_10s.jpg,0,0,0.0,0,228,228,228,,,,,,,,,,,,,133.00021039999956,0.00021039999955974054,None,168.0863257000001,168.0863257000001,168.0863257000001,168.0863257000001,168.0863257000001,168.0863257000001,168.0863257000001,168.0863257000001,168.0863257000001,168.0863257000001,,002,P019,2025_Mar_21_0948,ConditionRich,2021.2.3,59.920605198265065,
133.75,134.0,41,0.0,Stimuli/Blank.png,0,0,0.0,0,229,229,229,,,,,,,,,,,,,133.767202,0.017201999999997497,None,168.83699230000002,168.83699230000002,168.83699230000002,168.83699230000002,168.83699230000002,168.83699230000002,168.83699230000002,168.83699230000002,168.83699230000002,168.83699230000002,,002,P019,2025_Mar_21_0948,ConditionRich,2021.2.3,59.920605198265065,
134.0,134.75,34,0.75,Stimuli/P019/things_man_10s.jpg,0,0,0.0,0,230,230,230,,,,,,,,,,,,,134.00000739999996,7.3999999585794285e-06,None,169.0705312,169.0705312,169.0705312,169.0705312,169.0705312,169.0705312,169.0705312,169.0705312,169.0705312,169.0705312,,002,P019,2025_Mar_21_0948,ConditionRich,2021.2.3,59.920605198265065,
134.75,135.0,41,0.0,Stimuli/Blank.png,0,0,0.0,0,231,231,231,,,,,,,,,,,,,134.75078679999933,0.0007867999993322883,None,169.8211986999995,169.8211986999995,169.8211986999995,169.8211986999995,169.8211986999995,169.8211986999995,169.8211986999995,169.8211986999995,169.8211986999995,169.8211986999995,,002,P019,2025_Mar_21_0948,ConditionRich,2021.2.3,59.920605198265065,
135.0,135.75,34,0.75,Stimuli/P019/things_man_10s.jpg,0,0,0.0,0,232,232,232,,,,,,,,,,,,,135.00100539999949,0.0010053999994852347,None,170.0714085999998,170.0714085999998,170.0714085999998,170.0714085999998,170.0714085999998,170.0714085999998,170.0714085999998,170.0714085999998,170.0714085999998,170.0714085999998,,002,P019,2025_Mar_21_0948,ConditionRich,2021.2.3,59.920605198265065,
135.75,136.0,41,0.0,Stimuli/Blank.png,0,0,0.0,0,233,233,233,,,,,,,,,,,,,135.7515242999998,0.00152429999980086,None,170.82208309999987,170.82208309999987,170.82208309999987,170.82208309999987,170.82208309999987,170.82208309999987,170.82208309999987,170.82208309999987,170.82208309999987,170.82208309999987,,002,P019,2025_Mar_21_0948,ConditionRich,2021.2.3,59.920605198265065,
136.0,136.75,4,0.75,Stimuli/P019/sun_amixpbnrxiulfsri.jpg,0,0,0.0,0,234,234,234,,,,,,,,,,,,,136.0018154999998,0.0018154999997932464,None,171.07230309999977,171.07230309999977,171.07230309999977,171.07230309999977,171.07230309999977,171.07230309999977,171.07230309999977,171.07230309999977,171.07230309999977,171.07230309999977,,002,P019,2025_Mar_21_0948,ConditionRich,2021.2.3,59.920605198265065,
136.75,137.0,41,0.0,Stimuli/Blank.png,0,0,0.0,0,235,235,235,,,,,,,,,,,,,136.75455559999955,0.004555599999548576,None,171.83965050000006,171.83965050000006,171.83965050000006,171.83965050000006,171.83965050000006,171.83965050000006,171.83965050000006,171.83965050000006,171.83965050000006,171.83965050000006,,002,P019,2025_Mar_21_0948,ConditionRich,2021.2.3,59.920605198265065,
137.0,137.75,4,0.75,Stimuli/P019/sun_amixpbnrxiulfsri.jpg,0,0,0.0,0,236,236,236,,,,,,,,,,,,,137.0209780999994,0.020978099999410915,None,172.1065523999996,172.1065523999996,172.1065523999996,172.1065523999996,172.1065523999996,172.1065523999996,172.1065523999996,172.1065523999996,172.1065523999996,172.1065523999996,,002,P019,2025_Mar_21_0948,ConditionRich,2021.2.3,59.920605198265065,
137.75,138.0,41,0.0,Stimuli/Blank.png,0,0,0.0,0,237,237,237,,,,,,,,,,,,,137.76995669999997,0.019956699999966077,None,172.84052819999943,172.84052819999943,172.84052819999943,172.84052819999943,172.84052819999943,172.84052819999943,172.84052819999943,172.84052819999943,172.84052819999943,172.84052819999943,,002,P019,2025_Mar_21_0948,ConditionRich,2021.2.3,59.920605198265065,
138.0,138.75,4,0.75,Stimuli/P019/sun_amixpbnrxiulfsri.jpg,1,0,0.75,0,238,238,238,,,,,,,,,,,,,138.0040659999995,0.004065999999511405,1,173.07413889999953,173.07413889999953,173.07413889999953,173.07413889999953,173.07413889999953,173.07413889999953,173.07413889999953,173.80808219999926,173.07413889999953,173.07413889999953,0.5591269999995347,002,P019,2025_Mar_21_0948,ConditionRich,2021.2.3,59.920605198265065,
138.75,139.0,41,0.0,Stimuli/Blank.png,0,0,0.0,0,239,239,239,,,,,,,,,,,,,138.7550051999997,0.005005199999686738,None,173.82473440000012,173.82473440000012,173.82473440000012,173.82473440000012,173.82473440000012,173.82473440000012,173.82473440000012,173.82473440000012,173.82473440000012,173.82473440000012,,002,P019,2025_Mar_21_0948,ConditionRich,2021.2.3,59.920605198265065,
139.0,139.75,4,0.75,Stimuli/P019/sun_amixpbnrxiulfsri.jpg,0,0,0.0,0,240,240,240,,,,,,,,,,,,,139.0057637,0.005763699999988603,None,174.0916397000001,174.0916397000001,174.0916397000001,174.0916397000001,174.0916397000001,174.0916397000001,174.0916397000001,174.0916397000001,174.0916397000001,174.0916397000001,,002,P019,2025_Mar_21_0948,ConditionRich,2021.2.3,59.920605198265065,
139.75,140.0,41,0.0,Stimuli/Blank.png,0,0,0.0,0,241,241,241,,,,,,,,,,,,,139.77193709999938,0.021937099999377097,None,174.84229460000006,174.84229460000006,174.84229460000006,174.84229460000006,174.84229460000006,174.84229460000006,174.84229460000006,174.84229460000006,174.84229460000006,174.84229460000006,,002,P019,2025_Mar_21_0948,ConditionRich,2021.2.3,59.920605198265065,
140.0,140.75,15,0.75,Stimuli/P019/sun_bkubdnohuakmwcaj.jpg,0,0,0.0,0,242,242,242,,,,,,,,,,,,,140.00556489999963,0.005564899999626505,None,175.0758541999994,175.0758541999994,175.0758541999994,175.0758541999994,175.0758541999994,175.0758541999994,175.0758541999994,175.0758541999994,175.0758541999994,175.0758541999994,,002,P019,2025_Mar_21_0948,ConditionRich,2021.2.3,59.920605198265065,
140.75,141.0,41,0.0,Stimuli/Blank.png,0,0,0.0,0,243,243,243,,,,,,,,,,,,,140.7566895,0.0066894999999931315,None,175.82650709999962,175.82650709999962,175.82650709999962,175.82650709999962,175.82650709999962,175.82650709999962,175.82650709999962,175.82650709999962,175.82650709999962,175.82650709999962,,002,P019,2025_Mar_21_0948,ConditionRich,2021.2.3,59.920605198265065,
141.0,141.75,15,0.75,Stimuli/P019/sun_bkubdnohuakmwcaj.jpg,0,0,0.0,0,244,244,244,,,,,,,,,,,,,141.00687609999932,0.0068760999993173755,None,176.07671869999922,176.07671869999922,176.07671869999922,176.07671869999922,176.07671869999922,176.07671869999922,176.07671869999922,176.07671869999922,176.07671869999922,176.07671869999922,,002,P019,2025_Mar_21_0948,ConditionRich,2021.2.3,59.920605198265065,
141.75,142.0,41,0.0,Stimuli/Blank.png,0,0,0.0,0,245,245,245,,,,,,,,,,,,,141.75827499999923,0.008274999999230204,None,176.82743019999998,176.82743019999998,176.82743019999998,176.82743019999998,176.82743019999998,176.82743019999998,176.82743019999998,176.82743019999998,176.82743019999998,176.82743019999998,,002,P019,2025_Mar_21_0948,ConditionRich,2021.2.3,59.920605198265065,
142.0,142.75,15,0.75,Stimuli/P019/sun_bkubdnohuakmwcaj.jpg,0,0,0.0,0,246,246,246,,,,,,,,,,,,,142.00798399999985,0.007983999999851221,None,177.07760809999945,177.07760809999945,177.07760809999945,177.07760809999945,177.07760809999945,177.07760809999945,177.07760809999945,177.07760809999945,177.07760809999945,177.07760809999945,,002,P019,2025_Mar_21_0948,ConditionRich,2021.2.3,59.920605198265065,
142.75,143.0,41,0.0,Stimuli/Blank.png,0,0,0.0,0,247,247,247,,,,,,,,,,,,,142.76133709999976,0.011337099999764177,None,177.84500200000002,177.84500200000002,177.84500200000002,177.84500200000002,177.84500200000002,177.84500200000002,177.84500200000002,177.84500200000002,177.84500200000002,177.84500200000002,,002,P019,2025_Mar_21_0948,ConditionRich,2021.2.3,59.920605198265065,
143.0,143.75,15,0.75,Stimuli/P019/sun_bkubdnohuakmwcaj.jpg,0,0,0.0,0,248,248,248,,,,,,,,,,,,,143.02579369999967,0.025793699999667297,None,178.11185260000002,178.11185260000002,178.11185260000002,178.11185260000002,178.11185260000002,178.11185260000002,178.11185260000002,178.11185260000002,178.11185260000002,178.11185260000002,,002,P019,2025_Mar_21_0948,ConditionRich,2021.2.3,59.920605198265065,
143.75,144.0,41,0.0,Stimuli/Blank.png,0,0,0.0,0,249,249,249,,,,,,,,,,,,,143.77525989999958,0.025259899999582558,None,178.84580099999948,178.84580099999948,178.84580099999948,178.84580099999948,178.84580099999948,178.84580099999948,178.84580099999948,178.84580099999948,178.84580099999948,178.84580099999948,,002,P019,2025_Mar_21_0948,ConditionRich,2021.2.3,59.920605198265065,
144.0,144.75,1,0.75,Stimuli/P019/sun_aaaidwecchadbake.jpg,0,0,0.0,0,250,250,250,,,,,,,,,,,,,144.00962789999994,0.009627899999941292,None,179.07941389999996,179.07941389999996,179.07941389999996,179.07941389999996,179.07941389999996,179.07941389999996,179.07941389999996,179.07941389999996,179.07941389999996,179.07941389999996,,002,P019,2025_Mar_21_0948,ConditionRich,2021.2.3,59.920605198265065,
144.75,145.0,41,0.0,Stimuli/Blank.png,0,0,0.0,0,251,251,251,,,,,,,,,,,,,144.76035919999958,0.010359199999584234,None,179.83003699999972,179.83003699999972,179.83003699999972,179.83003699999972,179.83003699999972,179.83003699999972,179.83003699999972,179.83003699999972,179.83003699999972,179.83003699999972,,002,P019,2025_Mar_21_0948,ConditionRich,2021.2.3,59.920605198265065,
145.0,145.75,1,0.75,Stimuli/P019/sun_aaaidwecchadbake.jpg,0,0,0.0,0,252,252,252,,,,,,,,,,,,,145.0104363999999,0.010436399999889545,None,180.0803694999995,180.0803694999995,180.0803694999995,180.0803694999995,180.0803694999995,180.0803694999995,180.0803694999995,180.0803694999995,180.0803694999995,180.0803694999995,,002,P019,2025_Mar_21_0948,ConditionRich,2021.2.3,59.920605198265065,
145.75,146.0,41,0.0,Stimuli/Blank.png,0,0,0.0,0,253,253,253,,,,,,,,,,,,,145.7603822000001,0.010382200000094599,None,180.83091109999987,180.83091109999987,180.83091109999987,180.83091109999987,180.83091109999987,180.83091109999987,180.83091109999987,180.83091109999987,180.83091109999987,180.83091109999987,,002,P019,2025_Mar_21_0948,ConditionRich,2021.2.3,59.920605198265065,
146.0,146.75,1,0.75,Stimuli/P019/sun_aaaidwecchadbake.jpg,0,0,0.0,0,254,254,254,,,,,,,,,,,,,146.010757,0.01075700000001234,None,181.08113759999924,181.08113759999924,181.08113759999924,181.08113759999924,181.08113759999924,181.08113759999924,181.08113759999924,181.08113759999924,181.08113759999924,181.08113759999924,,002,P019,2025_Mar_21_0948,ConditionRich,2021.2.3,59.920605198265065,
146.75,147.0,41,0.0,Stimuli/Blank.png,0,0,0.0,0,255,255,255,,,,,,,,,,,,,146.76246589999937,0.012465899999369867,None,181.83182439999928,181.83182439999928,181.83182439999928,181.83182439999928,181.83182439999928,181.83182439999928,181.83182439999928,181.83182439999928,181.83182439999928,181.83182439999928,,002,P019,2025_Mar_21_0948,ConditionRich,2021.2.3,59.920605198265065,
147.0,147.75,1,0.75,Stimuli/P019/sun_aaaidwecchadbake.jpg,0,0,0.0,0,256,256,256,,,,,,,,,,,,,147.01156619999983,0.01156619999983377,None,182.08202589999928,182.08202589999928,182.08202589999928,182.08202589999928,182.08202589999928,182.08202589999928,182.08202589999928,182.08202589999928,182.08202589999928,182.08202589999928,,002,P019,2025_Mar_21_0948,ConditionRich,2021.2.3,59.920605198265065,
147.75,148.0,41,0.0,Stimuli/Blank.png,0,0,0.0,0,257,257,257,,,,,,,,,,,,,147.76469309999993,0.014693099999931292,None,182.84937509999963,182.84937509999963,182.84937509999963,182.84937509999963,182.84937509999963,182.84937509999963,182.84937509999963,182.84937509999963,182.84937509999963,182.84937509999963,,002,P019,2025_Mar_21_0948,ConditionRich,2021.2.3,59.920605198265065,
148.0,148.75,39,0.75,Stimuli/P019/things_wire_10s.jpg,0,0,0.0,0,258,258,258,,,,,,,,,,,,,148.03034559999924,0.030345599999236583,None,183.11628889999974,183.11628889999974,183.11628889999974,183.11628889999974,183.11628889999974,183.11628889999974,183.11628889999974,183.11628889999974,183.11628889999974,183.11628889999974,,002,P019,2025_Mar_21_0948,ConditionRich,2021.2.3,59.920605198265065,
148.75,149.0,41,0.0,Stimuli/Blank.png,0,0,0.0,0,259,259,259,,,,,,,,,,,,,148.78054339999926,0.030543399999260146,None,183.86698239999987,183.86698239999987,183.86698239999987,183.86698239999987,183.86698239999987,183.86698239999987,183.86698239999987,183.86698239999987,183.86698239999987,183.86698239999987,,002,P019,2025_Mar_21_0948,ConditionRich,2021.2.3,59.920605198265065,
149.0,149.75,39,0.75,Stimuli/P019/things_wire_10s.jpg,0,0,0.0,0,260,260,260,,,,,,,,,,,,,149.03052639999987,0.0305263999998715,None,184.10047699999996,184.10047699999996,184.10047699999996,184.10047699999996,184.10047699999996,184.10047699999996,184.10047699999996,184.10047699999996,184.10047699999996,184.10047699999996,,002,P019,2025_Mar_21_0948,ConditionRich,2021.2.3,59.920605198265065,
149.75,150.0,41,0.0,Stimuli/Blank.png,0,0,0.0,0,261,261,261,,,,,,,,,,,,,149.76483999999982,0.014839999999821885,None,184.83446289999938,184.83446289999938,184.83446289999938,184.83446289999938,184.83446289999938,184.83446289999938,184.83446289999938,184.83446289999938,184.83446289999938,184.83446289999938,,002,P019,2025_Mar_21_0948,ConditionRich,2021.2.3,59.920605198265065,
