eventStartTime,eventEndTime,eventCond,imSize,imFile,responseEvent,fixRespStart,fixRespEnd,Events.thisRepN,Events.thisTrialN,Events.thisN,Events.thisIndex,Instructions.started,Instructions.stopped,participantReadyResponse.keys,participantReadyResponse.rt,participantReadyResponse.started,participantReadyResponse.stopped,startWaitforTrigger,triggerResponse.keys,triggerResponse.rt,triggerResponse.started,triggerResponse.stopped,globalTimer,actualStartTime,startTimingDiff,participantResponse.keys,participantResponse.started,participantResponse.stopped,image.started,image.stopped,fixationOutside.started,fixationOutside.stopped,fixationResponse.started,fixationResponse.stopped,fixationInside.started,fixationInside.stopped,participantResponse.rt,session,participant,date,expName,psychopyVersion,frameRate,
,,,,,,,,,,,,11.437467800000377,None,1,13.785339600000952,11.437467800000377,None,,,,,,,,,,,,,,,,,,,,,009,P019,2025_Mar_21_1054,ConditionRich,2021.2.3,59.93123490116762,
,,,,,,,,,,,,,,,,,,25.22723330000008,5,14.724081800000931,25.240068400000382,None,,,,,,,,,,,,,,,,009,P019,2025_Mar_21_1054,ConditionRich,2021.2.3,59.93123490116762,
0.0,4.0,0,0.0,Stimuli/Blank.png,0,0,0.0,0,0,0,0,,,,,,,,,,,,39.97338350000064,0.03242359999967448,0.03242359999967448,None,40.019818900000246,None,40.019818900000246,None,40.019818900000246,None,40.019818900000246,40.019818900000246,40.019818900000246,None,,009,P019,2025_Mar_21_1054,ConditionRich,2021.2.3,59.93123490116762,
4.0,7.75,16,0.75,Stimuli/P019/sun_blfpbbfyzmewzplm.jpg,0,0,0.0,0,1,1,1,,,,,,,,,,,,,4.003337399999509,0.0033373999995092163,None,44.006945900000574,44.006945900000574,44.006945900000574,44.006945900000574,44.006945900000574,44.006945900000574,44.006945900000574,44.006945900000574,44.006945900000574,44.006945900000574,,009,P019,2025_Mar_21_1054,ConditionRich,2021.2.3,59.93123490116762,
7.75,8.0,41,0.0,Stimuli/Blank.png,0,0,0.0,0,2,2,2,,,,,,,,,,,,,7.7719536000004155,0.021953600000415463,None,47.760248700000375,47.760248700000375,47.760248700000375,47.760248700000375,47.760248700000375,47.760248700000375,47.760248700000375,47.760248700000375,47.760248700000375,47.760248700000375,,009,P019,2025_Mar_21_1054,ConditionRich,2021.2.3,59.93123490116762,
8.0,11.75,19,0.75,Stimuli/P019/sun_byssdezaaqnthppd.jpg,0,0,0.0,0,3,3,3,,,,,,,,,,,,,8.005519599999388,0.005519599999388447,None,47.993517099999735,47.993517099999735,47.993517099999735,47.993517099999735,47.993517099999735,47.993517099999735,47.993517099999735,47.993517099999735,47.993517099999735,47.993517099999735,,009,P019,2025_Mar_21_1054,ConditionRich,2021.2.3,59.93123490116762,
11.75,12.0,41,0.0,Stimuli/Blank.png,0,0,0.0,0,4,4,4,,,,,,,,,,,,,11.761149500000101,0.011149500000101398,None,51.76352620000034,51.76352620000034,51.76352620000034,51.76352620000034,51.76352620000034,51.76352620000034,51.76352620000034,51.76352620000034,51.76352620000034,51.76352620000034,,009,P019,2025_Mar_21_1054,ConditionRich,2021.2.3,59.93123490116762,
12.0,15.75,15,0.75,Stimuli/P019/sun_bkubdnohuakmwcaj.jpg,0,0,0.0,0,5,5,5,,,,,,,,,,,,,12.026433999999426,0.026433999999426305,None,52.013726700000916,52.013726700000916,52.013726700000916,52.013726700000916,52.013726700000916,52.013726700000916,52.013726700000916,52.013726700000916,52.013726700000916,52.013726700000916,,009,P019,2025_Mar_21_1054,ConditionRich,2021.2.3,59.93123490116762,
15.75,16.0,41,0.0,Stimuli/Blank.png,0,0,0.0,0,6,6,6,,,,,,,,,,,,,15.762795700000424,0.012795700000424404,None,55.75046790000124,55.75046790000124,55.75046790000124,55.75046790000124,55.75046790000124,55.75046790000124,55.75046790000124,55.75046790000124,55.75046790000124,55.75046790000124,,009,P019,2025_Mar_21_1054,ConditionRich,2021.2.3,59.93123490116762,
16.0,19.75,27,0.75,Stimuli/P019/things_eel_10s.jpg,0,0,0.0,0,7,7,7,,,,,,,,,,,,,16.012654300000577,0.012654300000576768,None,56.00060020000092,56.00060020000092,56.00060020000092,56.00060020000092,56.00060020000092,56.00060020000092,56.00060020000092,56.00060020000092,56.00060020000092,56.00060020000092,,009,P019,2025_Mar_21_1054,ConditionRich,2021.2.3,59.93123490116762,
19.75,20.0,41,0.0,Stimuli/Blank.png,0,0,0.0,0,8,8,8,,,,,,,,,,,,,19.75132719999965,0.0013271999996504746,None,59.75393600000098,59.75393600000098,59.75393600000098,59.75393600000098,59.75393600000098,59.75393600000098,59.75393600000098,59.75393600000098,59.75393600000098,59.75393600000098,,009,P019,2025_Mar_21_1054,ConditionRich,2021.2.3,59.93123490116762,
20.0,23.75,23,0.75,Stimuli/P019/things_boy_10s.jpg,1,1,1.75,0,9,9,9,,,,,,,,,,,,,20.016816699999254,0.016816699999253615,1,60.004124900000534,60.004124900000534,60.004124900000534,60.004124900000534,60.004124900000534,60.004124900000534,60.988325899999836,61.73903150000115,60.004124900000534,60.004124900000534,1.4550908000001073,009,P019,2025_Mar_21_1054,ConditionRich,2021.2.3,59.93123490116762,
23.75,24.0,41,0.0,Stimuli/Blank.png,0,0,0.0,0,10,10,10,,,,,,,,,,,,,23.752978099999382,0.0029780999993818114,None,63.740750000000844,63.740750000000844,63.740750000000844,63.740750000000844,63.740750000000844,63.740750000000844,63.740750000000844,63.740750000000844,63.740750000000844,63.740750000000844,,009,P019,2025_Mar_21_1054,ConditionRich,2021.2.3,59.93123490116762,
24.0,27.75,33,0.75,Stimuli/P019/things_insole_10s.jpg,0,0,0.0,0,11,11,11,,,,,,,,,,,,,24.004229500000292,0.004229500000292319,None,64.00766149999981,64.00766149999981,64.00766149999981,64.00766149999981,64.00766149999981,64.00766149999981,64.00766149999981,64.00766149999981,64.00766149999981,64.00766149999981,,009,P019,2025_Mar_21_1054,ConditionRich,2021.2.3,59.93123490116762,
27.75,28.0,41,0.0,Stimuli/Blank.png,0,0,0.0,0,12,12,12,,,,,,,,,,,,,27.774298199999976,0.024298199999975623,None,67.76099090000025,67.76099090000025,67.76099090000025,67.76099090000025,67.76099090000025,67.76099090000025,67.76099090000025,67.76099090000025,67.76099090000025,67.76099090000025,,009,P019,2025_Mar_21_1054,ConditionRich,2021.2.3,59.93123490116762,
28.0,31.75,4,0.75,Stimuli/P019/sun_amixpbnrxiulfsri.jpg,1,1,1.75,0,13,13,13,,,,,,,,,,,,,28.00670270000046,0.006702700000460027,1,67.99451709999994,67.99451709999994,67.99451709999994,67.99451709999994,67.99451709999994,67.99451709999994,68.97871540000051,69.72938179999983,67.99451709999994,67.99451709999994,1.443500999999742,009,P019,2025_Mar_21_1054,ConditionRich,2021.2.3,59.93123490116762,
31.75,32.0,41,0.0,Stimuli/Blank.png,0,0,0.0,0,14,14,14,,,,,,,,,,,,,31.760955399999148,0.01095539999914763,None,71.74783910000042,71.74783910000042,71.74783910000042,71.74783910000042,71.74783910000042,71.74783910000042,71.74783910000042,71.74783910000042,71.74783910000042,71.74783910000042,,009,P019,2025_Mar_21_1054,ConditionRich,2021.2.3,59.93123490116762,
32.0,35.75,1,0.75,Stimuli/P019/sun_aaaidwecchadbake.jpg,0,0,0.0,0,15,15,15,,,,,,,,,,,,,32.01016739999977,0.010167399999772897,None,71.99806180000087,71.99806180000087,71.99806180000087,71.99806180000087,71.99806180000087,71.99806180000087,71.99806180000087,71.99806180000087,71.99806180000087,71.99806180000087,,009,P019,2025_Mar_21_1054,ConditionRich,2021.2.3,59.93123490116762,
35.75,36.0,41,0.0,Stimuli/Blank.png,0,0,0.0,0,16,16,16,,,,,,,,,,,,,35.765994400000636,0.015994400000636233,None,75.76810250000017,75.76810250000017,75.76810250000017,75.76810250000017,75.76810250000017,75.76810250000017,75.76810250000017,75.76810250000017,75.76810250000017,75.76810250000017,,009,P019,2025_Mar_21_1054,ConditionRich,2021.2.3,59.93123490116762,
36.0,39.75,2,0.75,Stimuli/P019/sun_ajhvfwzgpfovdgid.jpg,0,0,0.0,0,17,17,17,,,,,,,,,,,,,36.01474409999901,0.014744099999006721,None,76.01828940000087,76.01828940000087,76.01828940000087,76.01828940000087,76.01828940000087,76.01828940000087,76.01828940000087,76.01828940000087,76.01828940000087,76.01828940000087,,009,P019,2025_Mar_21_1054,ConditionRich,2021.2.3,59.93123490116762,
39.75,40.0,41,0.0,Stimuli/Blank.png,0,0,0.0,0,18,18,18,,,,,,,,,,,,,39.76747249999971,0.017472499999712454,None,79.75491390000025,79.75491390000025,79.75491390000025,79.75491390000025,79.75491390000025,79.75491390000025,79.75491390000025,79.75491390000025,79.75491390000025,79.75491390000025,,009,P019,2025_Mar_21_1054,ConditionRich,2021.2.3,59.93123490116762,
40.0,43.75,9,0.75,Stimuli/P019/sun_bbfmuujfvpiaqdww.jpg,0,0,0.0,0,19,19,19,,,,,,,,,,,,,40.001631299999644,0.0016312999996443978,None,80.00513649999994,80.00513649999994,80.00513649999994,80.00513649999994,80.00513649999994,80.00513649999994,80.00513649999994,80.00513649999994,80.00513649999994,80.00513649999994,,009,P019,2025_Mar_21_1054,ConditionRich,2021.2.3,59.93123490116762,
43.75,44.0,41,0.0,Stimuli/Blank.png,0,0,0.0,0,20,20,20,,,,,,,,,,,,,43.77128739999898,0.021287399998982437,None,83.75855349999983,83.75855349999983,83.75855349999983,83.75855349999983,83.75855349999983,83.75855349999983,83.75855349999983,83.75855349999983,83.75855349999983,83.75855349999983,,009,P019,2025_Mar_21_1054,ConditionRich,2021.2.3,59.93123490116762,
44.0,47.75,35,0.75,Stimuli/P019/things_pretzel_10s.jpg,0,0,0.0,0,21,21,21,,,,,,,,,,,,,44.004115899999306,0.004115899999305839,None,84.00868720000108,84.00868720000108,84.00868720000108,84.00868720000108,84.00868720000108,84.00868720000108,84.00868720000108,84.00868720000108,84.00868720000108,84.00868720000108,,009,P019,2025_Mar_21_1054,ConditionRich,2021.2.3,59.93123490116762,
47.75,48.0,41,0.0,Stimuli/Blank.png,0,0,0.0,0,22,22,22,,,,,,,,,,,,,47.776161599998886,0.02616159999888623,None,87.77868230000058,87.77868230000058,87.77868230000058,87.77868230000058,87.77868230000058,87.77868230000058,87.77868230000058,87.77868230000058,87.77868230000058,87.77868230000058,,009,P019,2025_Mar_21_1054,ConditionRich,2021.2.3,59.93123490116762,
48.0,51.75,37,0.75,Stimuli/P019/things_toaster_10s.jpg,0,0,0.0,0,23,23,23,,,,,,,,,,,,,48.02635949999967,0.026359499999671243,None,88.02890760000082,88.02890760000082,88.02890760000082,88.02890760000082,88.02890760000082,88.02890760000082,88.02890760000082,88.02890760000082,88.02890760000082,88.02890760000082,,009,P019,2025_Mar_21_1054,ConditionRich,2021.2.3,59.93123490116762,
51.75,52.0,41,0.0,Stimuli/Blank.png,0,0,0.0,0,24,24,24,,,,,,,,,,,,,51.777852499999426,0.027852499999426072,None,91.76551749999999,91.76551749999999,91.76551749999999,91.76551749999999,91.76551749999999,91.76551749999999,91.76551749999999,91.76551749999999,91.76551749999999,91.76551749999999,,009,P019,2025_Mar_21_1054,ConditionRich,2021.2.3,59.93123490116762,
52.0,55.75,14,0.75,Stimuli/P019/sun_birvagufpcschyrr.jpg,0,0,0.0,0,25,25,25,,,,,,,,,,,,,52.01148590000048,0.011485900000479887,None,91.99905560000116,91.99905560000116,91.99905560000116,91.99905560000116,91.99905560000116,91.99905560000116,91.99905560000116,91.99905560000116,91.99905560000116,91.99905560000116,,009,P019,2025_Mar_21_1054,ConditionRich,2021.2.3,59.93123490116762,
55.75,56.0,41,0.0,Stimuli/Blank.png,0,0,0.0,0,26,26,26,,,,,,,,,,,,,55.766372399999455,0.0163723999994545,None,95.76905910000096,95.76905910000096,95.76905910000096,95.76905910000096,95.76905910000096,95.76905910000096,95.76905910000096,95.76905910000096,95.76905910000096,95.76905910000096,,009,P019,2025_Mar_21_1054,ConditionRich,2021.2.3,59.93123490116762,
56.0,59.75,5,0.75,Stimuli/P019/sun_amjqxnqvhovkotym.jpg,1,3,3.75,0,27,27,27,,,,,,,,,,,,,56.01467910000065,0.01467910000064876,1,96.00259189999997,96.00259189999997,96.00259189999997,96.00259189999997,96.00259189999997,96.00259189999997,98.98856510000041,None,96.00259189999997,96.00259189999997,3.44022269999914,009,P019,2025_Mar_21_1054,ConditionRich,2021.2.3,59.93123490116762,
59.75,60.0,41,0.0,Stimuli/Blank.png,0,0,0.0,0,28,28,28,,,,,,,,,,,,,59.75271950000024,0.00271950000023935,None,99.7559153000002,99.7559153000002,99.7559153000002,99.7559153000002,99.7559153000002,99.7559153000002,99.7559153000002,99.7559153000002,99.7559153000002,99.7559153000002,,009,P019,2025_Mar_21_1054,ConditionRich,2021.2.3,59.93123490116762,
60.0,63.75,38,0.75,Stimuli/P019/things_turtle_10n.jpg,0,0,0.0,0,29,29,29,,,,,,,,,,,,,60.018097000000125,0.018097000000125263,None,100.00613320000048,100.00613320000048,100.00613320000048,100.00613320000048,100.00613320000048,100.00613320000048,100.00613320000048,100.00613320000048,100.00613320000048,100.00613320000048,,009,P019,2025_Mar_21_1054,ConditionRich,2021.2.3,59.93123490116762,
63.75,64.0,41,0.0,Stimuli/Blank.png,0,0,0.0,0,30,30,30,,,,,,,,,,,,,63.75604039999962,0.006040399999619694,None,103.7427759000002,103.7427759000002,103.7427759000002,103.7427759000002,103.7427759000002,103.7427759000002,103.7427759000002,103.7427759000002,103.7427759000002,103.7427759000002,,009,P019,2025_Mar_21_1054,ConditionRich,2021.2.3,59.93123490116762,
64.0,67.75,29,0.75,Stimuli/P019/things_flamingo_10s.jpg,0,0,0.0,0,31,31,31,,,,,,,,,,,,,64.00507090000065,0.005070900000646361,None,103.99299120000069,103.99299120000069,103.99299120000069,103.99299120000069,103.99299120000069,103.99299120000069,103.99299120000069,103.99299120000069,103.99299120000069,103.99299120000069,,009,P019,2025_Mar_21_1054,ConditionRich,2021.2.3,59.93123490116762,
67.75,68.0,41,0.0,Stimuli/Blank.png,0,0,0.0,0,32,32,32,,,,,,,,,,,,,67.7582954999998,0.008295499999803724,None,107.7463915999997,107.7463915999997,107.7463915999997,107.7463915999997,107.7463915999997,107.7463915999997,107.7463915999997,107.7463915999997,107.7463915999997,107.7463915999997,,009,P019,2025_Mar_21_1054,ConditionRich,2021.2.3,59.93123490116762,
68.0,71.75,39,0.75,Stimuli/P019/things_wire_10s.jpg,0,0,0.0,0,33,33,33,,,,,,,,,,,,,68.0089097,0.008909700000003795,None,107.99653320000107,107.99653320000107,107.99653320000107,107.99653320000107,107.99653320000107,107.99653320000107,107.99653320000107,107.99653320000107,107.99653320000107,107.99653320000107,,009,P019,2025_Mar_21_1054,ConditionRich,2021.2.3,59.93123490116762,
71.75,72.0,41,0.0,Stimuli/Blank.png,0,0,0.0,0,34,34,34,,,,,,,,,,,,,71.76199269999961,0.011992699999609613,None,111.74984220000078,111.74984220000078,111.74984220000078,111.74984220000078,111.74984220000078,111.74984220000078,111.74984220000078,111.74984220000078,111.74984220000078,111.74984220000078,,009,P019,2025_Mar_21_1054,ConditionRich,2021.2.3,59.93123490116762,
72.0,75.75,26,0.75,Stimuli/P019/things_earwig_10n.jpg,0,0,0.0,0,35,35,35,,,,,,,,,,,,,72.01316939999924,0.01316939999924216,None,112.00054079999973,112.00054079999973,112.00054079999973,112.00054079999973,112.00054079999973,112.00054079999973,112.00054079999973,112.00054079999973,112.00054079999973,112.00054079999973,,009,P019,2025_Mar_21_1054,ConditionRich,2021.2.3,59.93123490116762,
75.75,76.0,41,0.0,Stimuli/Blank.png,0,0,0.0,0,36,36,36,,,,,,,,,,,,,75.75222009999925,0.0022200999992492143,None,115.75338580000061,115.75338580000061,115.75338580000061,115.75338580000061,115.75338580000061,115.75338580000061,115.75338580000061,115.75338580000061,115.75338580000061,115.75338580000061,,009,P019,2025_Mar_21_1054,ConditionRich,2021.2.3,59.93123490116762,
76.0,79.75,13,0.75,Stimuli/P019/sun_bhzwrbdycbchqesq.jpg,0,0,0.0,0,37,37,37,,,,,,,,,,,,,76.01635329999954,0.01635329999953683,None,116.00359890000072,116.00359890000072,116.00359890000072,116.00359890000072,116.00359890000072,116.00359890000072,116.00359890000072,116.00359890000072,116.00359890000072,116.00359890000072,,009,P019,2025_Mar_21_1054,ConditionRich,2021.2.3,59.93123490116762,
79.75,80.0,41,0.0,Stimuli/Blank.png,0,0,0.0,0,38,38,38,,,,,,,,,,,,,79.75231039999926,0.002310399999259971,None,119.74023289999968,119.74023289999968,119.74023289999968,119.74023289999968,119.74023289999968,119.74023289999968,119.74023289999968,119.74023289999968,119.74023289999968,119.74023289999968,,009,P019,2025_Mar_21_1054,ConditionRich,2021.2.3,59.93123490116762,
80.0,83.75,7,0.75,Stimuli/P019/sun_aqkbfuonyunmyqxb.jpg,1,0,0.75,0,39,39,39,,,,,,,,,,,,,80.00265079999917,0.002650799999173614,1,119.99046190000081,119.99046190000081,119.99046190000081,119.99046190000081,119.99046190000081,119.99046190000081,119.99046190000081,120.72451790000014,119.99046190000081,119.99046190000081,0.49630940000133705,009,P019,2025_Mar_21_1054,ConditionRich,2021.2.3,59.93123490116762,
83.75,84.0,41,0.0,Stimuli/Blank.png,0,0,0.0,0,40,40,40,,,,,,,,,,,,,83.75661989999935,0.006619899999350309,None,123.74377410000125,123.74377410000125,123.74377410000125,123.74377410000125,123.74377410000125,123.74377410000125,123.74377410000125,123.74377410000125,123.74377410000125,123.74377410000125,,009,P019,2025_Mar_21_1054,ConditionRich,2021.2.3,59.93123490116762,
84.0,100.0,0,0.0,Stimuli/Blank.png,1,5,5.75,0,41,41,41,,,,,,,,,,,,,84.00711299999966,0.007112999999662861,1,123.9939927000014,123.9939927000014,123.9939927000014,123.9939927000014,123.9939927000014,123.9939927000014,128.98175810000066,129.73236840000027,123.9939927000014,123.9939927000014,5.466782400000739,009,P019,2025_Mar_21_1054,ConditionRich,2021.2.3,59.93123490116762,
100.0,103.75,40,0.75,Stimuli/P019/things_woman_10s.jpg,1,3,3.75,0,42,42,42,,,,,,,,,,,,,100.00603599999886,0.006035999998857733,1,140.0081508000003,140.0081508000003,140.0081508000003,140.0081508000003,140.0081508000003,140.0081508000003,142.97746560000087,143.72809290000077,140.0081508000003,140.0081508000003,3.336805299999469,009,P019,2025_Mar_21_1054,ConditionRich,2021.2.3,59.93123490116762,
103.75,104.0,41,0.0,Stimuli/Blank.png,0,0,0.0,0,43,43,43,,,,,,,,,,,,,103.77354259999993,0.023542599999927916,None,143.76146320000043,143.76146320000043,143.76146320000043,143.76146320000043,143.76146320000043,143.76146320000043,143.76146320000043,143.76146320000043,143.76146320000043,143.76146320000043,,009,P019,2025_Mar_21_1054,ConditionRich,2021.2.3,59.93123490116762,
104.0,107.75,30,0.75,Stimuli/P019/things_flip_flop_10s.jpg,0,0,0.0,0,44,44,44,,,,,,,,,,,,,104.00725129999955,0.00725129999955243,None,143.99499110000033,143.99499110000033,143.99499110000033,143.99499110000033,143.99499110000033,143.99499110000033,143.99499110000033,143.99499110000033,143.99499110000033,143.99499110000033,,009,P019,2025_Mar_21_1054,ConditionRich,2021.2.3,59.93123490116762,
107.75,108.0,41,0.0,Stimuli/Blank.png,0,0,0.0,0,45,45,45,,,,,,,,,,,,,107.76164040000003,0.011640400000032969,None,147.74832600000082,147.74832600000082,147.74832600000082,147.74832600000082,147.74832600000082,147.74832600000082,147.74832600000082,147.74832600000082,147.74832600000082,147.74832600000082,,009,P019,2025_Mar_21_1054,ConditionRich,2021.2.3,59.93123490116762,
108.0,111.75,31,0.75,Stimuli/P019/things_fudge_10s.jpg,1,2,2.75,0,46,46,46,,,,,,,,,,,,,108.01052290000007,0.010522900000069058,1,147.9985443000005,147.9985443000005,147.9985443000005,147.9985443000005,147.9985443000005,147.9985443000005,149.98362240000097,150.73434610000004,147.9985443000005,147.9985443000005,2.3912064000014652,009,P019,2025_Mar_21_1054,ConditionRich,2021.2.3,59.93123490116762,
111.75,112.0,41,0.0,Stimuli/Blank.png,0,0,0.0,0,47,47,47,,,,,,,,,,,,,111.76670139999987,0.01670139999987441,None,151.76857240000027,151.76857240000027,151.76857240000027,151.76857240000027,151.76857240000027,151.76857240000027,151.76857240000027,151.76857240000027,151.76857240000027,151.76857240000027,,009,P019,2025_Mar_21_1054,ConditionRich,2021.2.3,59.93123490116762,
112.0,115.75,24,0.75,Stimuli/P019/things_bulletin_board_10s.jpg,0,0,0.0,0,48,48,48,,,,,,,,,,,,,112.01619740000024,0.016197400000237394,None,152.018760500001,152.018760500001,152.018760500001,152.018760500001,152.018760500001,152.018760500001,152.018760500001,152.018760500001,152.018760500001,152.018760500001,,009,P019,2025_Mar_21_1054,ConditionRich,2021.2.3,59.93123490116762,
115.75,116.0,41,0.0,Stimuli/Blank.png,0,0,0.0,0,49,49,49,,,,,,,,,,,,,115.76729109999906,0.017291099999056314,None,155.7553939999998,155.7553939999998,155.7553939999998,155.7553939999998,155.7553939999998,155.7553939999998,155.7553939999998,155.7553939999998,155.7553939999998,155.7553939999998,,009,P019,2025_Mar_21_1054,ConditionRich,2021.2.3,59.93123490116762,
116.0,119.75,20,0.75,Stimuli/P019/sun_dlnwonqxagdvtlta.jpg,0,0,0.0,0,50,50,50,,,,,,,,,,,,,116.00130050000007,0.0013005000000703149,None,155.98891970000113,155.98891970000113,155.98891970000113,155.98891970000113,155.98891970000113,155.98891970000113,155.98891970000113,155.98891970000113,155.98891970000113,155.98891970000113,,009,P019,2025_Mar_21_1054,ConditionRich,2021.2.3,59.93123490116762,
119.75,120.0,41,0.0,Stimuli/Blank.png,0,0,0.0,0,51,51,51,,,,,,,,,,,,,119.75418779999927,0.0041877999992721016,None,159.7422142000014,159.7422142000014,159.7422142000014,159.7422142000014,159.7422142000014,159.7422142000014,159.7422142000014,159.7422142000014,159.7422142000014,159.7422142000014,,009,P019,2025_Mar_21_1054,ConditionRich,2021.2.3,59.93123490116762,
120.0,123.75,11,0.75,Stimuli/P019/sun_bcbfjkoziukwmdkd.jpg,0,0,0.0,0,52,52,52,,,,,,,,,,,,,120.0049498999997,0.004949899999701302,None,159.99246010000024,159.99246010000024,159.99246010000024,159.99246010000024,159.99246010000024,159.99246010000024,159.99246010000024,159.99246010000024,159.99246010000024,159.99246010000024,,009,P019,2025_Mar_21_1054,ConditionRich,2021.2.3,59.93123490116762,
123.75,124.0,41,0.0,Stimuli/Blank.png,0,0,0.0,0,53,53,53,,,,,,,,,,,,,123.75809409999965,0.008094099999652826,None,163.7457900999998,163.7457900999998,163.7457900999998,163.7457900999998,163.7457900999998,163.7457900999998,163.7457900999998,163.7457900999998,163.7457900999998,163.7457900999998,,009,P019,2025_Mar_21_1054,ConditionRich,2021.2.3,59.93123490116762,
124.0,127.75,25,0.75,Stimuli/P019/things_chime_10s.jpg,1,1,1.75,0,54,54,54,,,,,,,,,,,,,124.00864639999963,0.008646399999634014,1,163.996000000001,163.996000000001,163.996000000001,163.996000000001,163.996000000001,163.996000000001,164.98024200000145,165.7309206000009,163.996000000001,163.996000000001,1.5517880999996123,009,P019,2025_Mar_21_1054,ConditionRich,2021.2.3,59.93123490116762,
127.75,128.0,41,0.0,Stimuli/Blank.png,0,0,0.0,0,55,55,55,,,,,,,,,,,,,127.76148909999938,0.011489099999380414,None,167.7493144,167.7493144,167.7493144,167.7493144,167.7493144,167.7493144,167.7493144,167.7493144,167.7493144,167.7493144,,009,P019,2025_Mar_21_1054,ConditionRich,2021.2.3,59.93123490116762,
128.0,131.75,18,0.75,Stimuli/P019/sun_bodjbrgwzlshgypq.jpg,1,1,1.75,0,56,56,56,,,,,,,,,,,,,128.01239739999983,0.01239739999982703,1,167.99953819999973,167.99953819999973,167.99953819999973,167.99953819999973,167.99953819999973,167.99953819999973,168.9837378000011,169.73439690000123,167.99953819999973,167.99953819999973,1.4094393000013952,009,P019,2025_Mar_21_1054,ConditionRich,2021.2.3,59.93123490116762,
131.75,132.0,41,0.0,Stimuli/Blank.png,0,0,0.0,0,57,57,57,,,,,,,,,,,,,131.74826679999933,-0.0017332000006717863,None,171.73616510000102,171.73616510000102,171.73616510000102,171.73616510000102,171.73616510000102,171.73616510000102,171.73616510000102,171.73616510000102,171.73616510000102,171.73616510000102,,009,P019,2025_Mar_21_1054,ConditionRich,2021.2.3,59.93123490116762,
132.0,135.75,6,0.75,Stimuli/P019/sun_amppcthpabgulbwl.jpg,0,0,0.0,0,58,58,58,,,,,,,,,,,,,132.01512790000015,0.015127900000152295,None,172.00306900000032,172.00306900000032,172.00306900000032,172.00306900000032,172.00306900000032,172.00306900000032,172.00306900000032,172.00306900000032,172.00306900000032,172.00306900000032,,009,P019,2025_Mar_21_1054,ConditionRich,2021.2.3,59.93123490116762,
135.75,136.0,41,0.0,Stimuli/Blank.png,0,0,0.0,0,59,59,59,,,,,,,,,,,,,135.75241479999931,0.0024147999993147096,None,175.7397129000001,175.7397129000001,175.7397129000001,175.7397129000001,175.7397129000001,175.7397129000001,175.7397129000001,175.7397129000001,175.7397129000001,175.7397129000001,,009,P019,2025_Mar_21_1054,ConditionRich,2021.2.3,59.93123490116762,
136.0,139.75,10,0.75,Stimuli/P019/sun_bblqhrudkospnbbv.jpg,0,0,0.0,0,60,60,60,,,,,,,,,,,,,136.0019928999991,0.0019928999990952434,None,175.98994529999982,175.98994529999982,175.98994529999982,175.98994529999982,175.98994529999982,175.98994529999982,175.98994529999982,175.98994529999982,175.98994529999982,175.98994529999982,,009,P019,2025_Mar_21_1054,ConditionRich,2021.2.3,59.93123490116762,
139.75,140.0,41,0.0,Stimuli/Blank.png,0,0,0.0,0,61,61,61,,,,,,,,,,,,,139.7568983000001,0.0068983000001026085,None,179.7432675,179.7432675,179.7432675,179.7432675,179.7432675,179.7432675,179.7432675,179.7432675,179.7432675,179.7432675,,009,P019,2025_Mar_21_1054,ConditionRich,2021.2.3,59.93123490116762,
140.0,143.75,28,0.75,Stimuli/P019/things_face_10s.jpg,0,0,0.0,0,62,62,62,,,,,,,,,,,,,140.00609859999895,0.006098599998949794,None,179.99346510000032,179.99346510000032,179.99346510000032,179.99346510000032,179.99346510000032,179.99346510000032,179.99346510000032,179.99346510000032,179.99346510000032,179.99346510000032,,009,P019,2025_Mar_21_1054,ConditionRich,2021.2.3,59.93123490116762,
143.75,144.0,41,0.0,Stimuli/Blank.png,0,0,0.0,0,63,63,63,,,,,,,,,,,,,143.7612382999996,0.011238299999604351,None,183.7634992000003,183.7634992000003,183.7634992000003,183.7634992000003,183.7634992000003,183.7634992000003,183.7634992000003,183.7634992000003,183.7634992000003,183.7634992000003,,009,P019,2025_Mar_21_1054,ConditionRich,2021.2.3,59.93123490116762,
144.0,147.75,32,0.75,Stimuli/P019/things_girl_10s.jpg,0,0,0.0,0,64,64,64,,,,,,,,,,,,,144.0260187999993,0.02601879999929224,None,184.01370889999998,184.01370889999998,184.01370889999998,184.01370889999998,184.01370889999998,184.01370889999998,184.01370889999998,184.01370889999998,184.01370889999998,184.01370889999998,,009,P019,2025_Mar_21_1054,ConditionRich,2021.2.3,59.93123490116762,
147.75,148.0,41,0.0,Stimuli/Blank.png,0,0,0.0,0,65,65,65,,,,,,,,,,,,,147.76246940000055,0.012469400000554742,None,187.7503101000002,187.7503101000002,187.7503101000002,187.7503101000002,187.7503101000002,187.7503101000002,187.7503101000002,187.7503101000002,187.7503101000002,187.7503101000002,,009,P019,2025_Mar_21_1054,ConditionRich,2021.2.3,59.93123490116762,
148.0,151.75,12,0.75,Stimuli/P019/sun_bgjrtiivbwugxhxp.jpg,0,0,0.0,0,66,66,66,,,,,,,,,,,,,148.01262970000062,0.01262970000061614,None,188.0005383000007,188.0005383000007,188.0005383000007,188.0005383000007,188.0005383000007,188.0005383000007,188.0005383000007,188.0005383000007,188.0005383000007,188.0005383000007,,009,P019,2025_Mar_21_1054,ConditionRich,2021.2.3,59.93123490116762,
151.75,152.0,41,0.0,Stimuli/Blank.png,0,0,0.0,0,67,67,67,,,,,,,,,,,,,151.75131990000045,0.0013199000004533445,None,191.75385500000084,191.75385500000084,191.75385500000084,191.75385500000084,191.75385500000084,191.75385500000084,191.75385500000084,191.75385500000084,191.75385500000084,191.75385500000084,,009,P019,2025_Mar_21_1054,ConditionRich,2021.2.3,59.93123490116762,
152.0,155.75,21,0.75,Stimuli/P019/things_anteater_10s.jpg,0,0,0.0,0,68,68,68,,,,,,,,,,,,,152.0168594000006,0.016859400000612368,None,192.0207631000012,192.0207631000012,192.0207631000012,192.0207631000012,192.0207631000012,192.0207631000012,192.0207631000012,192.0207631000012,192.0207631000012,192.0207631000012,,009,P019,2025_Mar_21_1054,ConditionRich,2021.2.3,59.93123490116762,
155.75,156.0,41,0.0,Stimuli/Blank.png,0,0,0.0,0,69,69,69,,,,,,,,,,,,,155.77208549999887,0.022085499998866,None,195.77407889999995,195.77407889999995,195.77407889999995,195.77407889999995,195.77407889999995,195.77407889999995,195.77407889999995,195.77407889999995,195.77407889999995,195.77407889999995,,009,P019,2025_Mar_21_1054,ConditionRich,2021.2.3,59.93123490116762,
156.0,159.75,17,0.75,Stimuli/P019/sun_bltxkcclrpweopkl.jpg,0,0,0.0,0,70,70,70,,,,,,,,,,,,,156.0202592000005,0.020259200000509736,None,196.00760360000095,196.00760360000095,196.00760360000095,196.00760360000095,196.00760360000095,196.00760360000095,196.00760360000095,196.00760360000095,196.00760360000095,196.00760360000095,,009,P019,2025_Mar_21_1054,ConditionRich,2021.2.3,59.93123490116762,
159.75,160.0,41,0.0,Stimuli/Blank.png,0,0,0.0,0,71,71,71,,,,,,,,,,,,,159.75693599999977,0.006935999999768683,None,199.74431879999975,199.74431879999975,199.74431879999975,199.74431879999975,199.74431879999975,199.74431879999975,199.74431879999975,199.74431879999975,199.74431879999975,199.74431879999975,,009,P019,2025_Mar_21_1054,ConditionRich,2021.2.3,59.93123490116762,
160.0,163.75,36,0.75,Stimuli/P019/things_sunroof_10s.jpg,0,0,0.0,0,72,72,72,,,,,,,,,,,,,160.00663030000032,0.006630300000324496,None,199.99447119999968,199.99447119999968,199.99447119999968,199.99447119999968,199.99447119999968,199.99447119999968,199.99447119999968,199.99447119999968,199.99447119999968,199.99447119999968,,009,P019,2025_Mar_21_1054,ConditionRich,2021.2.3,59.93123490116762,
163.75,164.0,41,0.0,Stimuli/Blank.png,0,0,0.0,0,73,73,73,,,,,,,,,,,,,163.76123519999965,0.011235199999646284,None,203.76446899999974,203.76446899999974,203.76446899999974,203.76446899999974,203.76446899999974,203.76446899999974,203.76446899999974,203.76446899999974,203.76446899999974,203.76446899999974,,009,P019,2025_Mar_21_1054,ConditionRich,2021.2.3,59.93123490116762,
164.0,167.75,22,0.75,Stimuli/P019/things_bead_10s.jpg,0,0,0.0,0,74,74,74,,,,,,,,,,,,,164.02721629999905,0.027216299999054172,None,204.0146820000009,204.0146820000009,204.0146820000009,204.0146820000009,204.0146820000009,204.0146820000009,204.0146820000009,204.0146820000009,204.0146820000009,204.0146820000009,,009,P019,2025_Mar_21_1054,ConditionRich,2021.2.3,59.93123490116762,
167.75,168.0,41,0.0,Stimuli/Blank.png,0,0,0.0,0,75,75,75,,,,,,,,,,,,,167.76414680000016,0.01414680000016233,None,207.75133190000088,207.75133190000088,207.75133190000088,207.75133190000088,207.75133190000088,207.75133190000088,207.75133190000088,207.75133190000088,207.75133190000088,207.75133190000088,,009,P019,2025_Mar_21_1054,ConditionRich,2021.2.3,59.93123490116762,
168.0,171.75,3,0.75,Stimuli/P019/sun_aknrkswonrogcooi.jpg,0,0,0.0,0,76,76,76,,,,,,,,,,,,,168.01427759999933,0.01427759999933187,None,208.01822130000073,208.01822130000073,208.01822130000073,208.01822130000073,208.01822130000073,208.01822130000073,208.01822130000073,208.01822130000073,208.01822130000073,208.01822130000073,,009,P019,2025_Mar_21_1054,ConditionRich,2021.2.3,59.93123490116762,
171.75,172.0,41,0.0,Stimuli/Blank.png,0,0,0.0,0,77,77,77,,,,,,,,,,,,,171.76769310000054,0.017693100000542472,None,211.7548569999999,211.7548569999999,211.7548569999999,211.7548569999999,211.7548569999999,211.7548569999999,211.7548569999999,211.7548569999999,211.7548569999999,211.7548569999999,,009,P019,2025_Mar_21_1054,ConditionRich,2021.2.3,59.93123490116762,
172.0,175.75,34,0.75,Stimuli/P019/things_man_10s.jpg,0,0,0.0,0,78,78,78,,,,,,,,,,,,,172.0012931000001,0.0012931000001117354,None,211.9883920000011,211.9883920000011,211.9883920000011,211.9883920000011,211.9883920000011,211.9883920000011,211.9883920000011,211.9883920000011,211.9883920000011,211.9883920000011,,009,P019,2025_Mar_21_1054,ConditionRich,2021.2.3,59.93123490116762,
175.75,176.0,41,0.0,Stimuli/Blank.png,0,0,0.0,0,79,79,79,,,,,,,,,,,,,175.75496480000038,0.00496480000037991,None,215.74172840000028,215.74172840000028,215.74172840000028,215.74172840000028,215.74172840000028,215.74172840000028,215.74172840000028,215.74172840000028,215.74172840000028,215.74172840000028,,009,P019,2025_Mar_21_1054,ConditionRich,2021.2.3,59.93123490116762,
176.0,179.75,8,0.75,Stimuli/P019/sun_avbzvunekksfggon.jpg,0,0,0.0,0,80,80,80,,,,,,,,,,,,,176.0062739999994,0.006273999999393709,None,216.0086228,216.0086228,216.0086228,216.0086228,216.0086228,216.0086228,216.0086228,216.0086228,216.0086228,216.0086228,,009,P019,2025_Mar_21_1054,ConditionRich,2021.2.3,59.93123490116762,
179.75,180.0,41,0.0,Stimuli/Blank.png,0,0,0.0,0,81,81,81,,,,,,,,,,,,,179.7751640000006,0.025164000000586384,None,219.761937700001,219.761937700001,219.761937700001,219.761937700001,219.761937700001,219.761937700001,219.761937700001,219.761937700001,219.761937700001,219.761937700001,,009,P019,2025_Mar_21_1054,ConditionRich,2021.2.3,59.93123490116762,
180.0,196.0,0,0.0,Stimuli/Blank.png,1,6,6.75,0,82,82,82,,,,,,,,,,,,,180.00839590000032,0.008395900000323309,1,219.99546890000056,219.99546890000056,219.99546890000056,219.99546890000056,219.99546890000056,219.99546890000056,225.98411970000052,226.73475930000131,219.99546890000056,219.99546890000056,6.474360799998976,009,P019,2025_Mar_21_1054,ConditionRich,2021.2.3,59.93123490116762,
196.0,199.75,36,0.75,Stimuli/P019/things_sunroof_10s.jpg,0,0,0.0,0,83,83,83,,,,,,,,,,,,,196.0058926999991,0.005892699999094475,None,235.99294379999992,235.99294379999992,235.99294379999992,235.99294379999992,235.99294379999992,235.99294379999992,235.99294379999992,235.99294379999992,235.99294379999992,235.99294379999992,,009,P019,2025_Mar_21_1054,ConditionRich,2021.2.3,59.93123490116762,
199.75,200.0,41,0.0,Stimuli/Blank.png,0,0,0.0,0,84,84,84,,,,,,,,,,,,,199.75827779999963,0.008277799999632407,None,239.74625190000006,239.74625190000006,239.74625190000006,239.74625190000006,239.74625190000006,239.74625190000006,239.74625190000006,239.74625190000006,239.74625190000006,239.74625190000006,,009,P019,2025_Mar_21_1054,ConditionRich,2021.2.3,59.93123490116762,
200.0,203.75,12,0.75,Stimuli/P019/sun_bgjrtiivbwugxhxp.jpg,0,0,0.0,0,85,85,85,,,,,,,,,,,,,200.01089990000037,0.01089990000036778,None,240.01316640000005,240.01316640000005,240.01316640000005,240.01316640000005,240.01316640000005,240.01316640000005,240.01316640000005,240.01316640000005,240.01316640000005,240.01316640000005,,009,P019,2025_Mar_21_1054,ConditionRich,2021.2.3,59.93123490116762,
203.75,204.0,41,0.0,Stimuli/Blank.png,0,0,0.0,0,86,86,86,,,,,,,,,,,,,203.7784828999993,0.028482899999289657,None,243.7665362000007,243.7665362000007,243.7665362000007,243.7665362000007,243.7665362000007,243.7665362000007,243.7665362000007,243.7665362000007,243.7665362000007,243.7665362000007,,009,P019,2025_Mar_21_1054,ConditionRich,2021.2.3,59.93123490116762,
204.0,207.75,15,0.75,Stimuli/P019/sun_bkubdnohuakmwcaj.jpg,1,3,3.75,0,87,87,87,,,,,,,,,,,,,204.01292769999964,0.012927699999636388,1,244.00000700000055,244.00000700000055,244.00000700000055,244.00000700000055,244.00000700000055,244.00000700000055,246.98603110000113,None,244.00000700000055,244.00000700000055,3.411969999999201,009,P019,2025_Mar_21_1054,ConditionRich,2021.2.3,59.93123490116762,
207.75,208.0,41,0.0,Stimuli/Blank.png,0,0,0.0,0,88,88,88,,,,,,,,,,,,,207.74869089999993,-0.0013091000000713393,None,247.73664890000146,247.73664890000146,247.73664890000146,247.73664890000146,247.73664890000146,247.73664890000146,247.73664890000146,247.73664890000146,247.73664890000146,247.73664890000146,,009,P019,2025_Mar_21_1054,ConditionRich,2021.2.3,59.93123490116762,
208.0,211.75,18,0.75,Stimuli/P019/sun_bodjbrgwzlshgypq.jpg,0,0,0.0,0,89,89,89,,,,,,,,,,,,,208.01624769999944,0.016247699999439646,None,248.02025680000042,248.02025680000042,248.02025680000042,248.02025680000042,248.02025680000042,248.02025680000042,248.02025680000042,248.02025680000042,248.02025680000042,248.02025680000042,,009,P019,2025_Mar_21_1054,ConditionRich,2021.2.3,59.93123490116762,
211.75,212.0,41,0.0,Stimuli/Blank.png,0,0,0.0,0,90,90,90,,,,,,,,,,,,,211.77176979999967,0.021769799999674433,None,251.7735493,251.7735493,251.7735493,251.7735493,251.7735493,251.7735493,251.7735493,251.7735493,251.7735493,251.7735493,,009,P019,2025_Mar_21_1054,ConditionRich,2021.2.3,59.93123490116762,
212.0,215.75,23,0.75,Stimuli/P019/things_boy_10s.jpg,0,0,0.0,0,91,91,91,,,,,,,,,,,,,212.02134800000022,0.021348000000216416,None,252.02377549999983,252.02377549999983,252.02377549999983,252.02377549999983,252.02377549999983,252.02377549999983,252.02377549999983,252.02377549999983,252.02377549999983,252.02377549999983,,009,P019,2025_Mar_21_1054,ConditionRich,2021.2.3,59.93123490116762,
215.75,216.0,41,0.0,Stimuli/Blank.png,0,0,0.0,0,92,92,92,,,,,,,,,,,,,215.7728215999996,0.022821599999588216,None,255.7604878000002,255.7604878000002,255.7604878000002,255.7604878000002,255.7604878000002,255.7604878000002,255.7604878000002,255.7604878000002,255.7604878000002,255.7604878000002,,009,P019,2025_Mar_21_1054,ConditionRich,2021.2.3,59.93123490116762,
216.0,219.75,39,0.75,Stimuli/P019/things_wire_10s.jpg,0,0,0.0,0,93,93,93,,,,,,,,,,,,,216.0065085999995,0.006508599999506259,None,255.99394960000063,255.99394960000063,255.99394960000063,255.99394960000063,255.99394960000063,255.99394960000063,255.99394960000063,255.99394960000063,255.99394960000063,255.99394960000063,,009,P019,2025_Mar_21_1054,ConditionRich,2021.2.3,59.93123490116762,
219.75,220.0,41,0.0,Stimuli/Blank.png,0,0,0.0,0,94,94,94,,,,,,,,,,,,,219.75964659999954,0.00964659999954165,None,259.7472574000003,259.7472574000003,259.7472574000003,259.7472574000003,259.7472574000003,259.7472574000003,259.7472574000003,259.7472574000003,259.7472574000003,259.7472574000003,,009,P019,2025_Mar_21_1054,ConditionRich,2021.2.3,59.93123490116762,
220.0,223.75,27,0.75,Stimuli/P019/things_eel_10s.jpg,0,0,0.0,0,95,95,95,,,,,,,,,,,,,220.01115369999934,0.01115369999934046,None,260.01417050000055,260.01417050000055,260.01417050000055,260.01417050000055,260.01417050000055,260.01417050000055,260.01417050000055,260.01417050000055,260.01417050000055,260.01417050000055,,009,P019,2025_Mar_21_1054,ConditionRich,2021.2.3,59.93123490116762,
223.75,224.0,41,0.0,Stimuli/Blank.png,0,0,0.0,0,96,96,96,,,,,,,,,,,,,223.78061049999997,0.030610499999966123,None,263.76747109999997,263.76747109999997,263.76747109999997,263.76747109999997,263.76747109999997,263.76747109999997,263.76747109999997,263.76747109999997,263.76747109999997,263.76747109999997,,009,P019,2025_Mar_21_1054,ConditionRich,2021.2.3,59.93123490116762,
224.0,227.75,37,0.75,Stimuli/P019/things_toaster_10s.jpg,0,0,0.0,0,97,97,97,,,,,,,,,,,,,224.0133980999999,0.013398099999903934,None,264.0177713000012,264.0177713000012,264.0177713000012,264.0177713000012,264.0177713000012,264.0177713000012,264.0177713000012,264.0177713000012,264.0177713000012,264.0177713000012,,009,P019,2025_Mar_21_1054,ConditionRich,2021.2.3,59.93123490116762,
227.75,228.0,41,0.0,Stimuli/Blank.png,0,0,0.0,0,98,98,98,,,,,,,,,,,,,227.7669523000004,0.016952300000411924,None,267.7543282000006,267.7543282000006,267.7543282000006,267.7543282000006,267.7543282000006,267.7543282000006,267.7543282000006,267.7543282000006,267.7543282000006,267.7543282000006,,009,P019,2025_Mar_21_1054,ConditionRich,2021.2.3,59.93123490116762,
228.0,231.75,30,0.75,Stimuli/P019/things_flip_flop_10s.jpg,0,0,0.0,0,99,99,99,,,,,,,,,,,,,228.0006312000005,0.000631200000498211,None,267.987870500001,267.987870500001,267.987870500001,267.987870500001,267.987870500001,267.987870500001,267.987870500001,267.987870500001,267.987870500001,267.987870500001,,009,P019,2025_Mar_21_1054,ConditionRich,2021.2.3,59.93123490116762,
231.75,232.0,41,0.0,Stimuli/Blank.png,0,0,0.0,0,100,100,100,,,,,,,,,,,,,231.754719999999,0.004719999998997082,None,271.74125450000065,271.74125450000065,271.74125450000065,271.74125450000065,271.74125450000065,271.74125450000065,271.74125450000065,271.74125450000065,271.74125450000065,271.74125450000065,,009,P019,2025_Mar_21_1054,ConditionRich,2021.2.3,59.93123490116762,
232.0,235.75,26,0.75,Stimuli/P019/things_earwig_10n.jpg,1,0,0.75,0,101,101,101,,,,,,,,,,,,,232.00640790000034,0.006407900000340305,1,272.0081000000009,272.0081000000009,272.0081000000009,272.0081000000009,272.0081000000009,272.0081000000009,272.0081000000009,272.74208270000054,272.0081000000009,272.0081000000009,0.5016467000004923,009,P019,2025_Mar_21_1054,ConditionRich,2021.2.3,59.93123490116762,
235.75,236.0,41,0.0,Stimuli/Blank.png,0,0,0.0,0,102,102,102,,,,,,,,,,,,,235.77432249999947,0.024322499999470892,None,275.76140769999984,275.76140769999984,275.76140769999984,275.76140769999984,275.76140769999984,275.76140769999984,275.76140769999984,275.76140769999984,275.76140769999984,275.76140769999984,,009,P019,2025_Mar_21_1054,ConditionRich,2021.2.3,59.93123490116762,
236.0,239.75,10,0.75,Stimuli/P019/sun_bblqhrudkospnbbv.jpg,0,0,0.0,0,103,103,103,,,,,,,,,,,,,236.00998079999954,0.009980799999539158,None,276.01166639999974,276.01166639999974,276.01166639999974,276.01166639999974,276.01166639999974,276.01166639999974,276.01166639999974,276.01166639999974,276.01166639999974,276.01166639999974,,009,P019,2025_Mar_21_1054,ConditionRich,2021.2.3,59.93123490116762,
239.75,240.0,41,0.0,Stimuli/Blank.png,0,0,0.0,0,104,104,104,,,,,,,,,,,,,239.77703519999886,0.02703519999886339,None,279.76492680000047,279.76492680000047,279.76492680000047,279.76492680000047,279.76492680000047,279.76492680000047,279.76492680000047,279.76492680000047,279.76492680000047,279.76492680000047,,009,P019,2025_Mar_21_1054,ConditionRich,2021.2.3,59.93123490116762,
240.0,243.75,25,0.75,Stimuli/P019/things_chime_10s.jpg,0,0,0.0,0,105,105,105,,,,,,,,,,,,,240.01135989999966,0.011359899999661138,None,279.99848680000105,279.99848680000105,279.99848680000105,279.99848680000105,279.99848680000105,279.99848680000105,279.99848680000105,279.99848680000105,279.99848680000105,279.99848680000105,,009,P019,2025_Mar_21_1054,ConditionRich,2021.2.3,59.93123490116762,
243.75,244.0,41,0.0,Stimuli/Blank.png,0,0,0.0,0,106,106,106,,,,,,,,,,,,,243.76607879999938,0.016078799999377225,None,283.76849250000123,283.76849250000123,283.76849250000123,283.76849250000123,283.76849250000123,283.76849250000123,283.76849250000123,283.76849250000123,283.76849250000123,283.76849250000123,,009,P019,2025_Mar_21_1054,ConditionRich,2021.2.3,59.93123490116762,
244.0,247.75,38,0.75,Stimuli/P019/things_turtle_10n.jpg,0,0,0.0,0,107,107,107,,,,,,,,,,,,,244.01415029999953,0.014150299999528215,None,284.0020139999997,284.0020139999997,284.0020139999997,284.0020139999997,284.0020139999997,284.0020139999997,284.0020139999997,284.0020139999997,284.0020139999997,284.0020139999997,,009,P019,2025_Mar_21_1054,ConditionRich,2021.2.3,59.93123490116762,
247.75,248.0,41,0.0,Stimuli/Blank.png,0,0,0.0,0,108,108,108,,,,,,,,,,,,,247.75076029999946,0.0007602999994560378,None,287.7386538999999,287.7386538999999,287.7386538999999,287.7386538999999,287.7386538999999,287.7386538999999,287.7386538999999,287.7386538999999,287.7386538999999,287.7386538999999,,009,P019,2025_Mar_21_1054,ConditionRich,2021.2.3,59.93123490116762,
248.0,251.75,7,0.75,Stimuli/P019/sun_aqkbfuonyunmyqxb.jpg,0,0,0.0,0,109,109,109,,,,,,,,,,,,,248.00159910000002,0.0015991000000212807,None,287.9888754000003,287.9888754000003,287.9888754000003,287.9888754000003,287.9888754000003,287.9888754000003,287.9888754000003,287.9888754000003,287.9888754000003,287.9888754000003,,009,P019,2025_Mar_21_1054,ConditionRich,2021.2.3,59.93123490116762,
251.75,252.0,41,0.0,Stimuli/Blank.png,0,0,0.0,0,110,110,110,,,,,,,,,,,,,251.75523070000054,0.005230700000538491,None,291.7421895000007,291.7421895000007,291.7421895000007,291.7421895000007,291.7421895000007,291.7421895000007,291.7421895000007,291.7421895000007,291.7421895000007,291.7421895000007,,009,P019,2025_Mar_21_1054,ConditionRich,2021.2.3,59.93123490116762,
252.0,255.75,5,0.75,Stimuli/P019/sun_amjqxnqvhovkotym.jpg,0,0,0.0,0,111,111,111,,,,,,,,,,,,,252.00518360000024,0.0051836000002367655,None,291.9924236000006,291.9924236000006,291.9924236000006,291.9924236000006,291.9924236000006,291.9924236000006,291.9924236000006,291.9924236000006,291.9924236000006,291.9924236000006,,009,P019,2025_Mar_21_1054,ConditionRich,2021.2.3,59.93123490116762,
255.75,256.0,41,0.0,Stimuli/Blank.png,0,0,0.0,0,112,112,112,,,,,,,,,,,,,255.75923599999987,0.009235999999873457,None,295.74574440000106,295.74574440000106,295.74574440000106,295.74574440000106,295.74574440000106,295.74574440000106,295.74574440000106,295.74574440000106,295.74574440000106,295.74574440000106,,009,P019,2025_Mar_21_1054,ConditionRich,2021.2.3,59.93123490116762,
256.0,259.75,35,0.75,Stimuli/P019/things_pretzel_10s.jpg,1,1,1.75,0,113,113,113,,,,,,,,,,,,,256.0079305999989,0.007930599998871912,1,295.99594100000104,295.99594100000104,295.99594100000104,295.99594100000104,295.99594100000104,295.99594100000104,296.9801430000007,297.7308584000002,295.99594100000104,295.99594100000104,1.4148437999992893,009,P019,2025_Mar_21_1054,ConditionRich,2021.2.3,59.93123490116762,
259.75,260.0,41,0.0,Stimuli/Blank.png,0,0,0.0,0,114,114,114,,,,,,,,,,,,,259.761333299999,0.011333299999023438,None,299.74926720000076,299.74926720000076,299.74926720000076,299.74926720000076,299.74926720000076,299.74926720000076,299.74926720000076,299.74926720000076,299.74926720000076,299.74926720000076,,009,P019,2025_Mar_21_1054,ConditionRich,2021.2.3,59.93123490116762,
260.0,263.75,32,0.75,Stimuli/P019/things_girl_10s.jpg,1,0,0.75,0,115,115,115,,,,,,,,,,,,,260.0118877999994,0.011887799999385606,1,299.9994783000002,299.9994783000002,299.9994783000002,299.9994783000002,299.9994783000002,299.9994783000002,299.9994783000002,300.73346780000065,299.9994783000002,299.9994783000002,0.40335590000177035,009,P019,2025_Mar_21_1054,ConditionRich,2021.2.3,59.93123490116762,
263.75,264.0,41,0.0,Stimuli/Blank.png,0,0,0.0,0,116,116,116,,,,,,,,,,,,,263.76652250000006,0.01652250000006461,None,303.7528159000012,303.7528159000012,303.7528159000012,303.7528159000012,303.7528159000012,303.7528159000012,303.7528159000012,303.7528159000012,303.7528159000012,303.7528159000012,,009,P019,2025_Mar_21_1054,ConditionRich,2021.2.3,59.93123490116762,
264.0,267.75,22,0.75,Stimuli/P019/things_bead_10s.jpg,0,0,0.0,0,117,117,117,,,,,,,,,,,,,264.001102799999,0.0011027999989892123,None,304.003023700001,304.003023700001,304.003023700001,304.003023700001,304.003023700001,304.003023700001,304.003023700001,304.003023700001,304.003023700001,304.003023700001,,009,P019,2025_Mar_21_1054,ConditionRich,2021.2.3,59.93123490116762,
267.75,268.0,41,0.0,Stimuli/Blank.png,0,0,0.0,0,118,118,118,,,,,,,,,,,,,267.7683068999995,0.018306899999515736,None,307.7563418000009,307.7563418000009,307.7563418000009,307.7563418000009,307.7563418000009,307.7563418000009,307.7563418000009,307.7563418000009,307.7563418000009,307.7563418000009,,009,P019,2025_Mar_21_1054,ConditionRich,2021.2.3,59.93123490116762,
268.0,271.75,11,0.75,Stimuli/P019/sun_bcbfjkoziukwmdkd.jpg,0,0,0.0,0,119,119,119,,,,,,,,,,,,,268.00191189999896,0.0019118999989586882,None,307.98986400000103,307.98986400000103,307.98986400000103,307.98986400000103,307.98986400000103,307.98986400000103,307.98986400000103,307.98986400000103,307.98986400000103,307.98986400000103,,009,P019,2025_Mar_21_1054,ConditionRich,2021.2.3,59.93123490116762,
271.75,272.0,41,0.0,Stimuli/Blank.png,0,0,0.0,0,120,120,120,,,,,,,,,,,,,271.7559005999992,0.005900599999222322,None,311.74322850000135,311.74322850000135,311.74322850000135,311.74322850000135,311.74322850000135,311.74322850000135,311.74322850000135,311.74322850000135,311.74322850000135,311.74322850000135,,009,P019,2025_Mar_21_1054,ConditionRich,2021.2.3,59.93123490116762,
272.0,275.75,21,0.75,Stimuli/P019/things_anteater_10s.jpg,0,0,0.0,0,121,121,121,,,,,,,,,,,,,272.00561449999987,0.005614499999865075,None,311.9934021000008,311.9934021000008,311.9934021000008,311.9934021000008,311.9934021000008,311.9934021000008,311.9934021000008,311.9934021000008,311.9934021000008,311.9934021000008,,009,P019,2025_Mar_21_1054,ConditionRich,2021.2.3,59.93123490116762,
275.75,276.0,41,0.0,Stimuli/Blank.png,0,0,0.0,0,122,122,122,,,,,,,,,,,,,275.76081729999896,0.010817299998961971,None,315.76342060000025,315.76342060000025,315.76342060000025,315.76342060000025,315.76342060000025,315.76342060000025,315.76342060000025,315.76342060000025,315.76342060000025,315.76342060000025,,009,P019,2025_Mar_21_1054,ConditionRich,2021.2.3,59.93123490116762,
276.0,292.0,0,0.0,Stimuli/Blank.png,1,5,5.75,0,123,123,123,,,,,,,,,,,,,276.0267922000003,0.026792200000272715,1,316.0136371000008,316.0136371000008,316.0136371000008,316.0136371000008,316.0136371000008,316.0136371000008,321.0013374000009,321.7520027999999,316.0136371000008,316.0136371000008,5.385150000000067,009,P019,2025_Mar_21_1054,ConditionRich,2021.2.3,59.93123490116762,
292.0,295.75,6,0.75,Stimuli/P019/sun_amppcthpabgulbwl.jpg,0,0,0.0,0,124,124,124,,,,,,,,,,,,,292.00909279999905,0.009092799999052659,None,332.0111152999998,332.0111152999998,332.0111152999998,332.0111152999998,332.0111152999998,332.0111152999998,332.0111152999998,332.0111152999998,332.0111152999998,332.0111152999998,,009,P019,2025_Mar_21_1054,ConditionRich,2021.2.3,59.93123490116762,
295.75,296.0,41,0.0,Stimuli/Blank.png,0,0,0.0,0,125,125,125,,,,,,,,,,,,,295.7794018000004,0.02940180000041437,None,335.78110580000066,335.78110580000066,335.78110580000066,335.78110580000066,335.78110580000066,335.78110580000066,335.78110580000066,335.78110580000066,335.78110580000066,335.78110580000066,,009,P019,2025_Mar_21_1054,ConditionRich,2021.2.3,59.93123490116762,
296.0,299.75,17,0.75,Stimuli/P019/sun_bltxkcclrpweopkl.jpg,0,0,0.0,0,126,126,126,,,,,,,,,,,,,296.0292905999995,0.02929059999951278,None,336.0313251000007,336.0313251000007,336.0313251000007,336.0313251000007,336.0313251000007,336.0313251000007,336.0313251000007,336.0313251000007,336.0313251000007,336.0313251000007,,009,P019,2025_Mar_21_1054,ConditionRich,2021.2.3,59.93123490116762,
299.75,300.0,41,0.0,Stimuli/Blank.png,0,0,0.0,0,127,127,127,,,,,,,,,,,,,299.7634584999996,0.013458499999615015,None,339.75128310000036,339.75128310000036,339.75128310000036,339.75128310000036,339.75128310000036,339.75128310000036,339.75128310000036,339.75128310000036,339.75128310000036,339.75128310000036,,009,P019,2025_Mar_21_1054,ConditionRich,2021.2.3,59.93123490116762,
300.0,303.75,14,0.75,Stimuli/P019/sun_birvagufpcschyrr.jpg,0,0,0.0,0,128,128,128,,,,,,,,,,,,,300.0142082000002,0.014208200000211946,None,340.0014890000002,340.0014890000002,340.0014890000002,340.0014890000002,340.0014890000002,340.0014890000002,340.0014890000002,340.0014890000002,340.0014890000002,340.0014890000002,,009,P019,2025_Mar_21_1054,ConditionRich,2021.2.3,59.93123490116762,
303.75,304.0,41,0.0,Stimuli/Blank.png,0,0,0.0,0,129,129,129,,,,,,,,,,,,,303.75009320000026,9.32000002649147e-05,None,343.7381215000005,343.7381215000005,343.7381215000005,343.7381215000005,343.7381215000005,343.7381215000005,343.7381215000005,343.7381215000005,343.7381215000005,343.7381215000005,,009,P019,2025_Mar_21_1054,ConditionRich,2021.2.3,59.93123490116762,
304.0,307.75,9,0.75,Stimuli/P019/sun_bbfmuujfvpiaqdww.jpg,0,0,0.0,0,130,130,130,,,,,,,,,,,,,304.00050980000015,0.0005098000001453329,None,343.9883475000006,343.9883475000006,343.9883475000006,343.9883475000006,343.9883475000006,343.9883475000006,343.9883475000006,343.9883475000006,343.9883475000006,343.9883475000006,,009,P019,2025_Mar_21_1054,ConditionRich,2021.2.3,59.93123490116762,
307.75,308.0,41,0.0,Stimuli/Blank.png,0,0,0.0,0,131,131,131,,,,,,,,,,,,,307.75402659999963,0.004026599999633618,None,347.74174590000075,347.74174590000075,347.74174590000075,347.74174590000075,347.74174590000075,347.74174590000075,347.74174590000075,347.74174590000075,347.74174590000075,347.74174590000075,,009,P019,2025_Mar_21_1054,ConditionRich,2021.2.3,59.93123490116762,
308.0,311.75,28,0.75,Stimuli/P019/things_face_10s.jpg,0,0,0.0,0,132,132,132,,,,,,,,,,,,,308.00392939999983,0.003929399999833549,None,347.9919301000009,347.9919301000009,347.9919301000009,347.9919301000009,347.9919301000009,347.9919301000009,347.9919301000009,347.9919301000009,347.9919301000009,347.9919301000009,,009,P019,2025_Mar_21_1054,ConditionRich,2021.2.3,59.93123490116762,
311.75,312.0,41,0.0,Stimuli/Blank.png,0,0,0.0,0,133,133,133,,,,,,,,,,,,,311.76015559999905,0.010155599999052356,None,351.76188139999977,351.76188139999977,351.76188139999977,351.76188139999977,351.76188139999977,351.76188139999977,351.76188139999977,351.76188139999977,351.76188139999977,351.76188139999977,,009,P019,2025_Mar_21_1054,ConditionRich,2021.2.3,59.93123490116762,
312.0,315.75,34,0.75,Stimuli/P019/things_man_10s.jpg,0,0,0.0,0,134,134,134,,,,,,,,,,,,,312.024727,0.0247269999999844,None,352.0121057000015,352.0121057000015,352.0121057000015,352.0121057000015,352.0121057000015,352.0121057000015,352.0121057000015,352.0121057000015,352.0121057000015,352.0121057000015,,009,P019,2025_Mar_21_1054,ConditionRich,2021.2.3,59.93123490116762,
315.75,316.0,41,0.0,Stimuli/Blank.png,0,0,0.0,0,135,135,135,,,,,,,,,,,,,315.76157239999884,0.01157239999884041,None,355.7487362000011,355.7487362000011,355.7487362000011,355.7487362000011,355.7487362000011,355.7487362000011,355.7487362000011,355.7487362000011,355.7487362000011,355.7487362000011,,009,P019,2025_Mar_21_1054,ConditionRich,2021.2.3,59.93123490116762,
316.0,319.75,3,0.75,Stimuli/P019/sun_aknrkswonrogcooi.jpg,1,1,1.75,0,136,136,136,,,,,,,,,,,,,316.01098060000004,0.010980600000038976,1,356.0156407000013,356.0156407000013,356.0156407000013,356.0156407000013,356.0156407000013,356.0156407000013,356.9832062000005,357.733867500001,356.0156407000013,356.0156407000013,1.4783004000000801,009,P019,2025_Mar_21_1054,ConditionRich,2021.2.3,59.93123490116762,
319.75,320.0,41,0.0,Stimuli/Blank.png,0,0,0.0,0,137,137,137,,,,,,,,,,,,,319.78121439999995,0.031214399999953457,None,359.7690985999998,359.7690985999998,359.7690985999998,359.7690985999998,359.7690985999998,359.7690985999998,359.7690985999998,359.7690985999998,359.7690985999998,359.7690985999998,,009,P019,2025_Mar_21_1054,ConditionRich,2021.2.3,59.93123490116762,
320.0,323.75,40,0.75,Stimuli/P019/things_woman_10s.jpg,1,1,1.75,0,138,138,138,,,,,,,,,,,,,320.01519670000016,0.01519670000016049,1,360.0024867000011,360.0024867000011,360.0024867000011,360.0024867000011,360.0024867000011,360.0024867000011,360.9866904999999,361.7373513000002,360.0024867000011,360.0024867000011,1.5683918000013364,009,P019,2025_Mar_21_1054,ConditionRich,2021.2.3,59.93123490116762,
323.75,324.0,41,0.0,Stimuli/Blank.png,0,0,0.0,0,139,139,139,,,,,,,,,,,,,323.751182,0.0011819999999715947,None,363.7392122000001,363.7392122000001,363.7392122000001,363.7392122000001,363.7392122000001,363.7392122000001,363.7392122000001,363.7392122000001,363.7392122000001,363.7392122000001,,009,P019,2025_Mar_21_1054,ConditionRich,2021.2.3,59.93123490116762,
324.0,327.75,29,0.75,Stimuli/P019/things_flamingo_10s.jpg,0,0,0.0,0,140,140,140,,,,,,,,,,,,,324.00408049999896,0.004080499998963205,None,364.0060426,364.0060426,364.0060426,364.0060426,364.0060426,364.0060426,364.0060426,364.0060426,364.0060426,364.0060426,,009,P019,2025_Mar_21_1054,ConditionRich,2021.2.3,59.93123490116762,
327.75,328.0,41,0.0,Stimuli/Blank.png,0,0,0.0,0,141,141,141,,,,,,,,,,,,,327.7728853999997,0.022885399999722722,None,367.75936999999976,367.75936999999976,367.75936999999976,367.75936999999976,367.75936999999976,367.75936999999976,367.75936999999976,367.75936999999976,367.75936999999976,367.75936999999976,,009,P019,2025_Mar_21_1054,ConditionRich,2021.2.3,59.93123490116762,
328.0,331.75,19,0.75,Stimuli/P019/sun_byssdezaaqnthppd.jpg,0,0,0.0,0,142,142,142,,,,,,,,,,,,,328.00488659999974,0.004886599999736063,None,367.9928851000004,367.9928851000004,367.9928851000004,367.9928851000004,367.9928851000004,367.9928851000004,367.9928851000004,367.9928851000004,367.9928851000004,367.9928851000004,,009,P019,2025_Mar_21_1054,ConditionRich,2021.2.3,59.93123490116762,
331.75,332.0,41,0.0,Stimuli/Blank.png,0,0,0.0,0,143,143,143,,,,,,,,,,,,,331.75827819999904,0.008278199999040226,None,371.7461957000014,371.7461957000014,371.7461957000014,371.7461957000014,371.7461957000014,371.7461957000014,371.7461957000014,371.7461957000014,371.7461957000014,371.7461957000014,,009,P019,2025_Mar_21_1054,ConditionRich,2021.2.3,59.93123490116762,
332.0,335.75,1,0.75,Stimuli/P019/sun_aaaidwecchadbake.jpg,0,0,0.0,0,144,144,144,,,,,,,,,,,,,332.0100411000003,0.010041100000307779,None,372.01310510000076,372.01310510000076,372.01310510000076,372.01310510000076,372.01310510000076,372.01310510000076,372.01310510000076,372.01310510000076,372.01310510000076,372.01310510000076,,009,P019,2025_Mar_21_1054,ConditionRich,2021.2.3,59.93123490116762,
335.75,336.0,41,0.0,Stimuli/Blank.png,0,0,0.0,0,145,145,145,,,,,,,,,,,,,335.77857889999905,0.02857889999904728,None,375.7664162000001,375.7664162000001,375.7664162000001,375.7664162000001,375.7664162000001,375.7664162000001,375.7664162000001,375.7664162000001,375.7664162000001,375.7664162000001,,009,P019,2025_Mar_21_1054,ConditionRich,2021.2.3,59.93123490116762,
336.0,339.75,33,0.75,Stimuli/P019/things_insole_10s.jpg,0,0,0.0,0,146,146,146,,,,,,,,,,,,,336.0141229000001,0.014122900000074878,None,376.01664189999974,376.01664189999974,376.01664189999974,376.01664189999974,376.01664189999974,376.01664189999974,376.01664189999974,376.01664189999974,376.01664189999974,376.01664189999974,,009,P019,2025_Mar_21_1054,ConditionRich,2021.2.3,59.93123490116762,
339.75,340.0,41,0.0,Stimuli/Blank.png,0,0,0.0,0,147,147,147,,,,,,,,,,,,,339.76562269999886,0.01562269999885757,None,379.7532757000008,379.7532757000008,379.7532757000008,379.7532757000008,379.7532757000008,379.7532757000008,379.7532757000008,379.7532757000008,379.7532757000008,379.7532757000008,,009,P019,2025_Mar_21_1054,ConditionRich,2021.2.3,59.93123490116762,
340.0,343.75,4,0.75,Stimuli/P019/sun_amixpbnrxiulfsri.jpg,0,0,0.0,0,148,148,148,,,,,,,,,,,,,340.0010062000001,0.0010062000001198612,None,380.0034931000009,380.0034931000009,380.0034931000009,380.0034931000009,380.0034931000009,380.0034931000009,380.0034931000009,380.0034931000009,380.0034931000009,380.0034931000009,,009,P019,2025_Mar_21_1054,ConditionRich,2021.2.3,59.93123490116762,
343.75,344.0,41,0.0,Stimuli/Blank.png,0,0,0.0,0,149,149,149,,,,,,,,,,,,,343.76948579999953,0.019485799999529263,None,383.7568248000007,383.7568248000007,383.7568248000007,383.7568248000007,383.7568248000007,383.7568248000007,383.7568248000007,383.7568248000007,383.7568248000007,383.7568248000007,,009,P019,2025_Mar_21_1054,ConditionRich,2021.2.3,59.93123490116762,
344.0,347.75,8,0.75,Stimuli/P019/sun_avbzvunekksfggon.jpg,1,3,3.75,0,150,150,150,,,,,,,,,,,,,344.0031648000004,0.0031648000003769994,1,383.9908520000008,383.9908520000008,383.9908520000008,383.9908520000008,383.9908520000008,383.9908520000008,386.9763199000008,387.7270131000005,383.9908520000008,383.9908520000008,3.355228700000225,009,P019,2025_Mar_21_1054,ConditionRich,2021.2.3,59.93123490116762,
347.75,348.0,41,0.0,Stimuli/Blank.png,0,0,0.0,0,151,151,151,,,,,,,,,,,,,347.7589981000001,0.00899810000009893,None,387.7603177000001,387.7603177000001,387.7603177000001,387.7603177000001,387.7603177000001,387.7603177000001,387.7603177000001,387.7603177000001,387.7603177000001,387.7603177000001,,009,P019,2025_Mar_21_1054,ConditionRich,2021.2.3,59.93123490116762,
348.0,351.75,16,0.75,Stimuli/P019/sun_blfpbbfyzmewzplm.jpg,0,0,0.0,0,152,152,152,,,,,,,,,,,,,348.0234786000001,0.0234786000000895,None,388.0272761000015,388.0272761000015,388.0272761000015,388.0272761000015,388.0272761000015,388.0272761000015,388.0272761000015,388.0272761000015,388.0272761000015,388.0272761000015,,009,P019,2025_Mar_21_1054,ConditionRich,2021.2.3,59.93123490116762,
351.75,352.0,41,0.0,Stimuli/Blank.png,0,0,0.0,0,153,153,153,,,,,,,,,,,,,351.7758709999998,0.025870999999824562,None,391.76387969999996,391.76387969999996,391.76387969999996,391.76387969999996,391.76387969999996,391.76387969999996,391.76387969999996,391.76387969999996,391.76387969999996,391.76387969999996,,009,P019,2025_Mar_21_1054,ConditionRich,2021.2.3,59.93123490116762,
352.0,355.75,13,0.75,Stimuli/P019/sun_bhzwrbdycbchqesq.jpg,0,0,0.0,0,154,154,154,,,,,,,,,,,,,352.0094706,0.009470599999986007,None,391.9974239000003,391.9974239000003,391.9974239000003,391.9974239000003,391.9974239000003,391.9974239000003,391.9974239000003,391.9974239000003,391.9974239000003,391.9974239000003,,009,P019,2025_Mar_21_1054,ConditionRich,2021.2.3,59.93123490116762,
355.75,356.0,41,0.0,Stimuli/Blank.png,0,0,0.0,0,155,155,155,,,,,,,,,,,,,355.7644342000003,0.014434200000323472,None,395.7507507999999,395.7507507999999,395.7507507999999,395.7507507999999,395.7507507999999,395.7507507999999,395.7507507999999,395.7507507999999,395.7507507999999,395.7507507999999,,009,P019,2025_Mar_21_1054,ConditionRich,2021.2.3,59.93123490116762,
356.0,359.75,20,0.75,Stimuli/P019/sun_dlnwonqxagdvtlta.jpg,1,1,1.75,0,156,156,156,,,,,,,,,,,,,356.01359500000035,0.01359500000035041,1,396.00096080000003,396.00096080000003,396.00096080000003,396.00096080000003,396.00096080000003,396.00096080000003,396.98521249999976,397.7358318000006,396.00096080000003,396.00096080000003,1.3802766999997402,009,P019,2025_Mar_21_1054,ConditionRich,2021.2.3,59.93123490116762,
359.75,360.0,41,0.0,Stimuli/Blank.png,0,0,0.0,0,157,157,157,,,,,,,,,,,,,359.7495820999993,-0.00041790000068431254,None,399.7375907000005,399.7375907000005,399.7375907000005,399.7375907000005,399.7375907000005,399.7375907000005,399.7375907000005,399.7375907000005,399.7375907000005,399.7375907000005,,009,P019,2025_Mar_21_1054,ConditionRich,2021.2.3,59.93123490116762,
360.0,363.75,2,0.75,Stimuli/P019/sun_ajhvfwzgpfovdgid.jpg,0,0,0.0,0,158,158,158,,,,,,,,,,,,,359.99983489999977,-0.00016510000023117755,None,399.9878255000003,399.9878255000003,399.9878255000003,399.9878255000003,399.9878255000003,399.9878255000003,399.9878255000003,399.9878255000003,399.9878255000003,399.9878255000003,,009,P019,2025_Mar_21_1054,ConditionRich,2021.2.3,59.93123490116762,
363.75,364.0,41,0.0,Stimuli/Blank.png,0,0,0.0,0,159,159,159,,,,,,,,,,,,,363.7541349999992,0.00413499999922351,None,403.7411387000011,403.7411387000011,403.7411387000011,403.7411387000011,403.7411387000011,403.7411387000011,403.7411387000011,403.7411387000011,403.7411387000011,403.7411387000011,,009,P019,2025_Mar_21_1054,ConditionRich,2021.2.3,59.93123490116762,
364.0,367.75,31,0.75,Stimuli/P019/things_fudge_10s.jpg,0,0,0.0,0,160,160,160,,,,,,,,,,,,,364.00412379999943,0.004123799999433686,None,403.9913185000005,403.9913185000005,403.9913185000005,403.9913185000005,403.9913185000005,403.9913185000005,403.9913185000005,403.9913185000005,403.9913185000005,403.9913185000005,,009,P019,2025_Mar_21_1054,ConditionRich,2021.2.3,59.93123490116762,
367.75,368.0,41,0.0,Stimuli/Blank.png,0,0,0.0,0,161,161,161,,,,,,,,,,,,,367.7588517000004,0.008851700000377605,None,407.7613548999998,407.7613548999998,407.7613548999998,407.7613548999998,407.7613548999998,407.7613548999998,407.7613548999998,407.7613548999998,407.7613548999998,407.7613548999998,,009,P019,2025_Mar_21_1054,ConditionRich,2021.2.3,59.93123490116762,
368.0,371.75,24,0.75,Stimuli/P019/things_bulletin_board_10s.jpg,0,0,0.0,0,162,162,162,,,,,,,,,,,,,368.02367500000037,0.023675000000366708,None,408.01157299999977,408.01157299999977,408.01157299999977,408.01157299999977,408.01157299999977,408.01157299999977,408.01157299999977,408.01157299999977,408.01157299999977,408.01157299999977,,009,P019,2025_Mar_21_1054,ConditionRich,2021.2.3,59.93123490116762,
371.75,372.0,41,0.0,Stimuli/Blank.png,0,0,0.0,0,163,163,163,,,,,,,,,,,,,371.76033839999945,0.01033839999945485,None,411.7482043,411.7482043,411.7482043,411.7482043,411.7482043,411.7482043,411.7482043,411.7482043,411.7482043,411.7482043,,009,P019,2025_Mar_21_1054,ConditionRich,2021.2.3,59.93123490116762,
372.0,388.0,0,0.0,Stimuli/Blank.png,1,1,1.75,0,164,164,164,,,,,,,,,,,,,372.0105910000002,0.010591000000204076,1,411.99844250000024,411.99844250000024,411.99844250000024,411.99844250000024,411.99844250000024,411.99844250000024,412.98273280000103,413.7333355999999,411.99844250000024,411.99844250000024,1.3775612999997975,009,P019,2025_Mar_21_1054,ConditionRich,2021.2.3,59.93123490116762,
