eventStartTime,eventEndTime,eventCond,imSize,imFile,responseEvent,fixRespStart,fixRespEnd,Events.thisRepN,Events.thisTrialN,Events.thisN,Events.thisIndex,Instructions.started,Instructions.stopped,participantReadyResponse.keys,participantReadyResponse.rt,participantReadyResponse.started,participantReadyResponse.stopped,startWaitforTrigger,triggerResponse.keys,triggerResponse.rt,triggerResponse.started,triggerResponse.stopped,globalTimer,actualStartTime,startTimingDiff,participantResponse.keys,participantResponse.started,participantResponse.stopped,image.started,image.stopped,fixationOutside.started,fixationOutside.stopped,fixationResponse.started,fixationResponse.stopped,fixationInside.started,fixationInside.stopped,participantResponse.rt,session,participant,date,expName,psychopyVersion,frameRate,
,,,,,,,,,,,,11.557011099999727,None,1,4.157291299999997,11.557011099999727,None,,,,,,,,,,,,,,,,,,,,,006,P019,2025_Mar_21_1026,ConditionRich,2021.2.3,59.94639593262387,
,,,,,,,,,,,,,,,,,,15.720830299998852,5,14.175229799999215,15.733947400000034,None,,,,,,,,,,,,,,,,006,P019,2025_Mar_21_1026,ConditionRich,2021.2.3,59.94639593262387,
0.0,4.0,0,0.0,Stimuli/Blank.png,0,0,0.0,0,0,0,0,,,,,,,,,,,,29.91669389999879,0.05282040000020061,0.05282040000020061,None,29.979871999999887,None,29.979871999999887,None,29.979871999999887,None,29.979871999999887,29.979871999999887,29.979871999999887,None,,006,P019,2025_Mar_21_1026,ConditionRich,2021.2.3,59.94639593262387,
4.0,7.75,22,0.75,Stimuli/P019/things_bead_10s.jpg,1,0,0.75,0,1,1,1,,,,,,,,,,,,,4.003200700000889,0.003200700000888901,1,33.933650599999964,33.933650599999964,33.933650599999964,33.933650599999964,33.933650599999964,33.933650599999964,33.933650599999964,34.66738819999955,33.933650599999964,33.933650599999964,0.6267315000004601,006,P019,2025_Mar_21_1026,ConditionRich,2021.2.3,59.94639593262387,
7.75,8.0,41,0.0,Stimuli/Blank.png,0,0,0.0,0,2,2,2,,,,,,,,,,,,,7.755879399999685,0.00587939999968512,None,37.68693009999879,37.68693009999879,37.68693009999879,37.68693009999879,37.68693009999879,37.68693009999879,37.68693009999879,37.68693009999879,37.68693009999879,37.68693009999879,,006,P019,2025_Mar_21_1026,ConditionRich,2021.2.3,59.94639593262387,
8.0,11.75,17,0.75,Stimuli/P019/sun_bltxkcclrpweopkl.jpg,0,0,0.0,0,3,3,3,,,,,,,,,,,,,8.005947600000582,0.005947600000581588,None,37.93689429999904,37.93689429999904,37.93689429999904,37.93689429999904,37.93689429999904,37.93689429999904,37.93689429999904,37.93689429999904,37.93689429999904,37.93689429999904,,006,P019,2025_Mar_21_1026,ConditionRich,2021.2.3,59.94639593262387,
11.75,12.0,41,0.0,Stimuli/Blank.png,0,0,0.0,0,4,4,4,,,,,,,,,,,,,11.761507000001075,0.01150700000107463,None,41.690363499999876,41.690363499999876,41.690363499999876,41.690363499999876,41.690363499999876,41.690363499999876,41.690363499999876,41.690363499999876,41.690363499999876,41.690363499999876,,006,P019,2025_Mar_21_1026,ConditionRich,2021.2.3,59.94639593262387,
12.0,15.75,35,0.75,Stimuli/P019/things_pretzel_10s.jpg,0,0,0.0,0,5,5,5,,,,,,,,,,,,,12.009370200001285,0.009370200001285411,None,41.94056549999914,41.94056549999914,41.94056549999914,41.94056549999914,41.94056549999914,41.94056549999914,41.94056549999914,41.94056549999914,41.94056549999914,41.94056549999914,,006,P019,2025_Mar_21_1026,ConditionRich,2021.2.3,59.94639593262387,
15.75,16.0,41,0.0,Stimuli/Blank.png,0,0,0.0,0,6,6,6,,,,,,,,,,,,,15.76503170000069,0.015031700000690762,None,45.710608699999284,45.710608699999284,45.710608699999284,45.710608699999284,45.710608699999284,45.710608699999284,45.710608699999284,45.710608699999284,45.710608699999284,45.710608699999284,,006,P019,2025_Mar_21_1026,ConditionRich,2021.2.3,59.94639593262387,
16.0,19.75,29,0.75,Stimuli/P019/things_flamingo_10s.jpg,1,0,0.75,0,7,7,7,,,,,,,,,,,,,16.030457200000455,0.030457200000455487,1,45.96080559999973,45.96080559999973,45.96080559999973,45.96080559999973,45.96080559999973,45.96080559999973,45.96080559999973,46.694887699999526,45.96080559999973,45.96080559999973,0.53644069999973,006,P019,2025_Mar_21_1026,ConditionRich,2021.2.3,59.94639593262387,
19.75,20.0,41,0.0,Stimuli/Blank.png,0,0,0.0,0,8,8,8,,,,,,,,,,,,,19.749615599999743,-0.00038440000025730114,None,49.68086190000031,49.68086190000031,49.68086190000031,49.68086190000031,49.68086190000031,49.68086190000031,49.68086190000031,49.68086190000031,49.68086190000031,49.68086190000031,,006,P019,2025_Mar_21_1026,ConditionRich,2021.2.3,59.94639593262387,
20.0,23.75,6,0.75,Stimuli/P019/sun_amppcthpabgulbwl.jpg,0,0,0.0,0,9,9,9,,,,,,,,,,,,,20.000937599999816,0.0009375999998155748,None,49.931049200000416,49.931049200000416,49.931049200000416,49.931049200000416,49.931049200000416,49.931049200000416,49.931049200000416,49.931049200000416,49.931049200000416,49.931049200000416,,006,P019,2025_Mar_21_1026,ConditionRich,2021.2.3,59.94639593262387,
23.75,24.0,41,0.0,Stimuli/Blank.png,0,0,0.0,0,10,10,10,,,,,,,,,,,,,23.755267399999866,0.005267399999866029,None,53.70108950000031,53.70108950000031,53.70108950000031,53.70108950000031,53.70108950000031,53.70108950000031,53.70108950000031,53.70108950000031,53.70108950000031,53.70108950000031,,006,P019,2025_Mar_21_1026,ConditionRich,2021.2.3,59.94639593262387,
24.0,27.75,10,0.75,Stimuli/P019/sun_bblqhrudkospnbbv.jpg,0,0,0.0,0,11,11,11,,,,,,,,,,,,,24.021189700000832,0.02118970000083209,None,53.96797789999982,53.96797789999982,53.96797789999982,53.96797789999982,53.96797789999982,53.96797789999982,53.96797789999982,53.96797789999982,53.96797789999982,53.96797789999982,,006,P019,2025_Mar_21_1026,ConditionRich,2021.2.3,59.94639593262387,
27.75,28.0,41,0.0,Stimuli/Blank.png,0,0,0.0,0,12,12,12,,,,,,,,,,,,,27.775315000000774,0.02531500000077358,None,57.72131929999887,57.72131929999887,57.72131929999887,57.72131929999887,57.72131929999887,57.72131929999887,57.72131929999887,57.72131929999887,57.72131929999887,57.72131929999887,,006,P019,2025_Mar_21_1026,ConditionRich,2021.2.3,59.94639593262387,
28.0,31.75,34,0.75,Stimuli/P019/things_man_10s.jpg,0,0,0.0,0,13,13,13,,,,,,,,,,,,,28.02440530000058,0.02440530000058061,None,57.97153669999898,57.97153669999898,57.97153669999898,57.97153669999898,57.97153669999898,57.97153669999898,57.97153669999898,57.97153669999898,57.97153669999898,57.97153669999898,,006,P019,2025_Mar_21_1026,ConditionRich,2021.2.3,59.94639593262387,
31.75,32.0,41,0.0,Stimuli/Blank.png,0,0,0.0,0,14,14,14,,,,,,,,,,,,,31.778418100000636,0.028418100000635604,None,61.70817259999967,61.70817259999967,61.70817259999967,61.70817259999967,61.70817259999967,61.70817259999967,61.70817259999967,61.70817259999967,61.70817259999967,61.70817259999967,,006,P019,2025_Mar_21_1026,ConditionRich,2021.2.3,59.94639593262387,
32.0,35.75,38,0.75,Stimuli/P019/things_turtle_10n.jpg,0,0,0.0,0,15,15,15,,,,,,,,,,,,,32.010341600000174,0.010341600000174367,None,61.941720599999826,61.941720599999826,61.941720599999826,61.941720599999826,61.941720599999826,61.941720599999826,61.941720599999826,61.941720599999826,61.941720599999826,61.941720599999826,,006,P019,2025_Mar_21_1026,ConditionRich,2021.2.3,59.94639593262387,
35.75,36.0,41,0.0,Stimuli/Blank.png,0,0,0.0,0,16,16,16,,,,,,,,,,,,,35.764481300000625,0.014481300000625197,None,65.69502370000009,65.69502370000009,65.69502370000009,65.69502370000009,65.69502370000009,65.69502370000009,65.69502370000009,65.69502370000009,65.69502370000009,65.69502370000009,,006,P019,2025_Mar_21_1026,ConditionRich,2021.2.3,59.94639593262387,
36.0,39.75,12,0.75,Stimuli/P019/sun_bgjrtiivbwugxhxp.jpg,0,0,0.0,0,17,17,17,,,,,,,,,,,,,36.01480860000083,0.014808600000833394,None,65.94522909999978,65.94522909999978,65.94522909999978,65.94522909999978,65.94522909999978,65.94522909999978,65.94522909999978,65.94522909999978,65.94522909999978,65.94522909999978,,006,P019,2025_Mar_21_1026,ConditionRich,2021.2.3,59.94639593262387,
39.75,40.0,41,0.0,Stimuli/Blank.png,0,0,0.0,0,18,18,18,,,,,,,,,,,,,39.750698900001225,0.000698900001225411,None,69.68186869999954,69.68186869999954,69.68186869999954,69.68186869999954,69.68186869999954,69.68186869999954,69.68186869999954,69.68186869999954,69.68186869999954,69.68186869999954,,006,P019,2025_Mar_21_1026,ConditionRich,2021.2.3,59.94639593262387,
40.0,43.75,30,0.75,Stimuli/P019/things_flip_flop_10s.jpg,0,0,0.0,0,19,19,19,,,,,,,,,,,,,40.000947700000324,0.0009477000003244029,None,69.93208500000037,69.93208500000037,69.93208500000037,69.93208500000037,69.93208500000037,69.93208500000037,69.93208500000037,69.93208500000037,69.93208500000037,69.93208500000037,,006,P019,2025_Mar_21_1026,ConditionRich,2021.2.3,59.94639593262387,
43.75,44.0,41,0.0,Stimuli/Blank.png,0,0,0.0,0,20,20,20,,,,,,,,,,,,,43.75480050000078,0.004800500000783359,None,73.68542179999895,73.68542179999895,73.68542179999895,73.68542179999895,73.68542179999895,73.68542179999895,73.68542179999895,73.68542179999895,73.68542179999895,73.68542179999895,,006,P019,2025_Mar_21_1026,ConditionRich,2021.2.3,59.94639593262387,
44.0,47.75,5,0.75,Stimuli/P019/sun_amjqxnqvhovkotym.jpg,0,0,0.0,0,21,21,21,,,,,,,,,,,,,44.00513620000129,0.005136200001288671,None,73.93562199999906,73.93562199999906,73.93562199999906,73.93562199999906,73.93562199999906,73.93562199999906,73.93562199999906,73.93562199999906,73.93562199999906,73.93562199999906,,006,P019,2025_Mar_21_1026,ConditionRich,2021.2.3,59.94639593262387,
47.75,48.0,41,0.0,Stimuli/Blank.png,0,0,0.0,0,22,22,22,,,,,,,,,,,,,47.76014430000032,0.010144300000320072,None,77.70563699999911,77.70563699999911,77.70563699999911,77.70563699999911,77.70563699999911,77.70563699999911,77.70563699999911,77.70563699999911,77.70563699999911,77.70563699999911,,006,P019,2025_Mar_21_1026,ConditionRich,2021.2.3,59.94639593262387,
48.0,51.75,3,0.75,Stimuli/P019/sun_aknrkswonrogcooi.jpg,0,0,0.0,0,23,23,23,,,,,,,,,,,,,48.025596600000426,0.025596600000426406,None,77.9558591999994,77.9558591999994,77.9558591999994,77.9558591999994,77.9558591999994,77.9558591999994,77.9558591999994,77.9558591999994,77.9558591999994,77.9558591999994,,006,P019,2025_Mar_21_1026,ConditionRich,2021.2.3,59.94639593262387,
51.75,52.0,41,0.0,Stimuli/Blank.png,0,0,0.0,0,24,24,24,,,,,,,,,,,,,51.76204870000038,0.012048700000377721,None,81.69251330000043,81.69251330000043,81.69251330000043,81.69251330000043,81.69251330000043,81.69251330000043,81.69251330000043,81.69251330000043,81.69251330000043,81.69251330000043,,006,P019,2025_Mar_21_1026,ConditionRich,2021.2.3,59.94639593262387,
52.0,55.75,20,0.75,Stimuli/P019/sun_dlnwonqxagdvtlta.jpg,0,0,0.0,0,25,25,25,,,,,,,,,,,,,52.01222830000006,0.012228300000060699,None,81.94271239999944,81.94271239999944,81.94271239999944,81.94271239999944,81.94271239999944,81.94271239999944,81.94271239999944,81.94271239999944,81.94271239999944,81.94271239999944,,006,P019,2025_Mar_21_1026,ConditionRich,2021.2.3,59.94639593262387,
55.75,56.0,41,0.0,Stimuli/Blank.png,0,0,0.0,0,26,26,26,,,,,,,,,,,,,55.76546600000074,0.015466000000742497,None,85.69602019999911,85.69602019999911,85.69602019999911,85.69602019999911,85.69602019999911,85.69602019999911,85.69602019999911,85.69602019999911,85.69602019999911,85.69602019999911,,006,P019,2025_Mar_21_1026,ConditionRich,2021.2.3,59.94639593262387,
56.0,59.75,8,0.75,Stimuli/P019/sun_avbzvunekksfggon.jpg,0,0,0.0,0,27,27,27,,,,,,,,,,,,,55.99961160000021,-0.00038839999979245476,None,85.94624239999939,85.94624239999939,85.94624239999939,85.94624239999939,85.94624239999939,85.94624239999939,85.94624239999939,85.94624239999939,85.94624239999939,85.94624239999939,,006,P019,2025_Mar_21_1026,ConditionRich,2021.2.3,59.94639593262387,
59.75,60.0,41,0.0,Stimuli/Blank.png,0,0,0.0,0,28,28,28,,,,,,,,,,,,,59.77107840000099,0.02107840000098804,None,89.71626509999987,89.71626509999987,89.71626509999987,89.71626509999987,89.71626509999987,89.71626509999987,89.71626509999987,89.71626509999987,89.71626509999987,89.71626509999987,,006,P019,2025_Mar_21_1026,ConditionRich,2021.2.3,59.94639593262387,
60.0,63.75,23,0.75,Stimuli/P019/things_boy_10s.jpg,1,2,2.75,0,29,29,29,,,,,,,,,,,,,60.02160400000139,0.021604000001389068,1,89.96647379999922,89.96647379999922,89.96647379999922,89.96647379999922,89.96647379999922,89.96647379999922,91.95155189999969,92.70226469999943,89.96647379999922,89.96647379999922,2.417686599999797,006,P019,2025_Mar_21_1026,ConditionRich,2021.2.3,59.94639593262387,
63.75,64.0,41,0.0,Stimuli/Blank.png,0,0,0.0,0,30,30,30,,,,,,,,,,,,,63.7751528000008,0.02515280000079656,None,93.71978630000012,93.71978630000012,93.71978630000012,93.71978630000012,93.71978630000012,93.71978630000012,93.71978630000012,93.71978630000012,93.71978630000012,93.71978630000012,,006,P019,2025_Mar_21_1026,ConditionRich,2021.2.3,59.94639593262387,
64.0,67.75,1,0.75,Stimuli/P019/sun_aaaidwecchadbake.jpg,0,0,0.0,0,31,31,31,,,,,,,,,,,,,64.02201790000072,0.022017900000719237,None,93.95331729999998,93.95331729999998,93.95331729999998,93.95331729999998,93.95331729999998,93.95331729999998,93.95331729999998,93.95331729999998,93.95331729999998,93.95331729999998,,006,P019,2025_Mar_21_1026,ConditionRich,2021.2.3,59.94639593262387,
67.75,68.0,41,0.0,Stimuli/Blank.png,0,0,0.0,0,32,32,32,,,,,,,,,,,,,67.75967070000115,0.009670700001152,None,97.68996089999928,97.68996089999928,97.68996089999928,97.68996089999928,97.68996089999928,97.68996089999928,97.68996089999928,97.68996089999928,97.68996089999928,97.68996089999928,,006,P019,2025_Mar_21_1026,ConditionRich,2021.2.3,59.94639593262387,
68.0,71.75,33,0.75,Stimuli/P019/things_insole_10s.jpg,0,0,0.0,0,33,33,33,,,,,,,,,,,,,68.01048360000095,0.01048360000095272,None,97.95688559999871,97.95688559999871,97.95688559999871,97.95688559999871,97.95688559999871,97.95688559999871,97.95688559999871,97.95688559999871,97.95688559999871,97.95688559999871,,006,P019,2025_Mar_21_1026,ConditionRich,2021.2.3,59.94639593262387,
71.75,72.0,41,0.0,Stimuli/Blank.png,0,0,0.0,0,34,34,34,,,,,,,,,,,,,71.77963670000099,0.029636700000992278,None,101.71017930000016,101.71017930000016,101.71017930000016,101.71017930000016,101.71017930000016,101.71017930000016,101.71017930000016,101.71017930000016,101.71017930000016,101.71017930000016,,006,P019,2025_Mar_21_1026,ConditionRich,2021.2.3,59.94639593262387,
72.0,75.75,39,0.75,Stimuli/P019/things_wire_10s.jpg,0,0,0.0,0,35,35,35,,,,,,,,,,,,,72.01528979999966,0.015289799999663956,None,101.96040499999981,101.96040499999981,101.96040499999981,101.96040499999981,101.96040499999981,101.96040499999981,101.96040499999981,101.96040499999981,101.96040499999981,101.96040499999981,,006,P019,2025_Mar_21_1026,ConditionRich,2021.2.3,59.94639593262387,
75.75,76.0,41,0.0,Stimuli/Blank.png,0,0,0.0,0,36,36,36,,,,,,,,,,,,,75.76661840000088,0.016618400000879774,None,105.69702929999949,105.69702929999949,105.69702929999949,105.69702929999949,105.69702929999949,105.69702929999949,105.69702929999949,105.69702929999949,105.69702929999949,105.69702929999949,,006,P019,2025_Mar_21_1026,ConditionRich,2021.2.3,59.94639593262387,
76.0,79.75,32,0.75,Stimuli/P019/things_girl_10s.jpg,0,0,0.0,0,37,37,37,,,,,,,,,,,,,76.00053000000116,0.0005300000011629891,None,105.94728389999909,105.94728389999909,105.94728389999909,105.94728389999909,105.94728389999909,105.94728389999909,105.94728389999909,105.94728389999909,105.94728389999909,105.94728389999909,,006,P019,2025_Mar_21_1026,ConditionRich,2021.2.3,59.94639593262387,
79.75,80.0,41,0.0,Stimuli/Blank.png,0,0,0.0,0,38,38,38,,,,,,,,,,,,,79.77026780000051,0.02026780000051076,None,109.7005840999991,109.7005840999991,109.7005840999991,109.7005840999991,109.7005840999991,109.7005840999991,109.7005840999991,109.7005840999991,109.7005840999991,109.7005840999991,,006,P019,2025_Mar_21_1026,ConditionRich,2021.2.3,59.94639593262387,
80.0,83.75,37,0.75,Stimuli/P019/things_toaster_10s.jpg,1,1,1.75,0,39,39,39,,,,,,,,,,,,,80.00276040000062,0.0027604000006249407,1,109.95079339999938,109.95079339999938,109.95079339999938,109.95079339999938,109.95079339999938,109.95079339999938,110.91836630000034,111.66898349999974,109.95079339999938,109.95079339999938,1.3833981000007043,006,P019,2025_Mar_21_1026,ConditionRich,2021.2.3,59.94639593262387,
83.75,84.0,41,0.0,Stimuli/Blank.png,0,0,0.0,0,40,40,40,,,,,,,,,,,,,83.77554810000038,0.025548100000378327,None,113.7207985999994,113.7207985999994,113.7207985999994,113.7207985999994,113.7207985999994,113.7207985999994,113.7207985999994,113.7207985999994,113.7207985999994,113.7207985999994,,006,P019,2025_Mar_21_1026,ConditionRich,2021.2.3,59.94639593262387,
84.0,100.0,0,0.0,Stimuli/Blank.png,1,4,4.75,0,41,41,41,,,,,,,,,,,,,84.0252371000006,0.025237100000595092,1,113.97102330000052,113.97102330000052,113.97102330000052,113.97102330000052,113.97102330000052,113.97102330000052,117.95787579999887,118.7085659000004,113.97102330000052,113.97102330000052,4.381270799998674,006,P019,2025_Mar_21_1026,ConditionRich,2021.2.3,59.94639593262387,
100.0,103.75,19,0.75,Stimuli/P019/sun_byssdezaaqnthppd.jpg,0,0,0.0,0,42,42,42,,,,,,,,,,,,,100.02055120000114,0.02055120000113675,None,129.95179949999874,129.95179949999874,129.95179949999874,129.95179949999874,129.95179949999874,129.95179949999874,129.95179949999874,129.95179949999874,129.95179949999874,129.95179949999874,,006,P019,2025_Mar_21_1026,ConditionRich,2021.2.3,59.94639593262387,
103.75,104.0,41,0.0,Stimuli/Blank.png,0,0,0.0,0,43,43,43,,,,,,,,,,,,,103.75791110000137,0.007911100001365412,None,133.6884442999999,133.6884442999999,133.6884442999999,133.6884442999999,133.6884442999999,133.6884442999999,133.6884442999999,133.6884442999999,133.6884442999999,133.6884442999999,,006,P019,2025_Mar_21_1026,ConditionRich,2021.2.3,59.94639593262387,
104.0,107.75,11,0.75,Stimuli/P019/sun_bcbfjkoziukwmdkd.jpg,0,0,0.0,0,44,44,44,,,,,,,,,,,,,104.0088424000005,0.008842400000503403,None,133.95534029999908,133.95534029999908,133.95534029999908,133.95534029999908,133.95534029999908,133.95534029999908,133.95534029999908,133.95534029999908,133.95534029999908,133.95534029999908,,006,P019,2025_Mar_21_1026,ConditionRich,2021.2.3,59.94639593262387,
107.75,108.0,41,0.0,Stimuli/Blank.png,0,0,0.0,0,45,45,45,,,,,,,,,,,,,107.78001030000087,0.030010300000867574,None,137.72542429999885,137.72542429999885,137.72542429999885,137.72542429999885,137.72542429999885,137.72542429999885,137.72542429999885,137.72542429999885,137.72542429999885,137.72542429999885,,006,P019,2025_Mar_21_1026,ConditionRich,2021.2.3,59.94639593262387,
108.0,111.75,7,0.75,Stimuli/P019/sun_aqkbfuonyunmyqxb.jpg,0,0,0.0,0,46,46,46,,,,,,,,,,,,,108.03006790000109,0.030067900001085945,None,137.97557319999942,137.97557319999942,137.97557319999942,137.97557319999942,137.97557319999942,137.97557319999942,137.97557319999942,137.97557319999942,137.97557319999942,137.97557319999942,,006,P019,2025_Mar_21_1026,ConditionRich,2021.2.3,59.94639593262387,
111.75,112.0,41,0.0,Stimuli/Blank.png,0,0,0.0,0,47,47,47,,,,,,,,,,,,,111.7643676000007,0.014367600000696257,None,141.6955170000001,141.6955170000001,141.6955170000001,141.6955170000001,141.6955170000001,141.6955170000001,141.6955170000001,141.6955170000001,141.6955170000001,141.6955170000001,,006,P019,2025_Mar_21_1026,ConditionRich,2021.2.3,59.94639593262387,
112.0,115.75,24,0.75,Stimuli/P019/things_bulletin_board_10s.jpg,0,0,0.0,0,48,48,48,,,,,,,,,,,,,112.01550070000121,0.015500700001211953,None,141.94573049999963,141.94573049999963,141.94573049999963,141.94573049999963,141.94573049999963,141.94573049999963,141.94573049999963,141.94573049999963,141.94573049999963,141.94573049999963,,006,P019,2025_Mar_21_1026,ConditionRich,2021.2.3,59.94639593262387,
115.75,116.0,41,0.0,Stimuli/Blank.png,0,0,0.0,0,49,49,49,,,,,,,,,,,,,115.75104290000127,0.0010429000012663892,None,145.6823688000004,145.6823688000004,145.6823688000004,145.6823688000004,145.6823688000004,145.6823688000004,145.6823688000004,145.6823688000004,145.6823688000004,145.6823688000004,,006,P019,2025_Mar_21_1026,ConditionRich,2021.2.3,59.94639593262387,
116.0,119.75,26,0.75,Stimuli/P019/things_earwig_10n.jpg,0,0,0.0,0,50,50,50,,,,,,,,,,,,,116.0014443,0.0014443000000028405,None,145.9492711999992,145.9492711999992,145.9492711999992,145.9492711999992,145.9492711999992,145.9492711999992,145.9492711999992,145.9492711999992,145.9492711999992,145.9492711999992,,006,P019,2025_Mar_21_1026,ConditionRich,2021.2.3,59.94639593262387,
119.75,120.0,41,0.0,Stimuli/Blank.png,0,0,0.0,0,51,51,51,,,,,,,,,,,,,119.77221389999977,0.022213899999769637,None,149.70258789999934,149.70258789999934,149.70258789999934,149.70258789999934,149.70258789999934,149.70258789999934,149.70258789999934,149.70258789999934,149.70258789999934,149.70258789999934,,006,P019,2025_Mar_21_1026,ConditionRich,2021.2.3,59.94639593262387,
120.0,123.75,31,0.75,Stimuli/P019/things_fudge_10s.jpg,0,0,0.0,0,52,52,52,,,,,,,,,,,,,120.00582960000065,0.005829600000652135,None,149.95281020000039,149.95281020000039,149.95281020000039,149.95281020000039,149.95281020000039,149.95281020000039,149.95281020000039,149.95281020000039,149.95281020000039,149.95281020000039,,006,P019,2025_Mar_21_1026,ConditionRich,2021.2.3,59.94639593262387,
123.75,124.0,41,0.0,Stimuli/Blank.png,0,0,0.0,0,53,53,53,,,,,,,,,,,,,123.77470670000002,0.024706700000024284,None,153.70612809999875,153.70612809999875,153.70612809999875,153.70612809999875,153.70612809999875,153.70612809999875,153.70612809999875,153.70612809999875,153.70612809999875,153.70612809999875,,006,P019,2025_Mar_21_1026,ConditionRich,2021.2.3,59.94639593262387,
124.0,127.75,13,0.75,Stimuli/P019/sun_bhzwrbdycbchqesq.jpg,0,0,0.0,0,54,54,54,,,,,,,,,,,,,124.00937710000107,0.009377100001074723,None,153.95635330000005,153.95635330000005,153.95635330000005,153.95635330000005,153.95635330000005,153.95635330000005,153.95635330000005,153.95635330000005,153.95635330000005,153.95635330000005,,006,P019,2025_Mar_21_1026,ConditionRich,2021.2.3,59.94639593262387,
127.75,128.0,41,0.0,Stimuli/Blank.png,0,0,0.0,0,55,55,55,,,,,,,,,,,,,127.78124920000118,0.031249200001184363,None,157.7263710999996,157.7263710999996,157.7263710999996,157.7263710999996,157.7263710999996,157.7263710999996,157.7263710999996,157.7263710999996,157.7263710999996,157.7263710999996,,006,P019,2025_Mar_21_1026,ConditionRich,2021.2.3,59.94639593262387,
128.0,131.75,40,0.75,Stimuli/P019/things_woman_10s.jpg,1,1,1.75,0,56,56,56,,,,,,,,,,,,,128.0293139000005,0.029313900000488502,1,157.97656559999996,157.97656559999996,157.97656559999996,157.97656559999996,157.97656559999996,157.97656559999996,158.94411430000036,159.7114251999992,157.97656559999996,157.97656559999996,1.5558975000003556,006,P019,2025_Mar_21_1026,ConditionRich,2021.2.3,59.94639593262387,
131.75,132.0,41,0.0,Stimuli/Blank.png,0,0,0.0,0,57,57,57,,,,,,,,,,,,,131.76596270000118,0.015962700001182384,None,161.69652849999875,161.69652849999875,161.69652849999875,161.69652849999875,161.69652849999875,161.69652849999875,161.69652849999875,161.69652849999875,161.69652849999875,161.69652849999875,,006,P019,2025_Mar_21_1026,ConditionRich,2021.2.3,59.94639593262387,
132.0,135.75,9,0.75,Stimuli/P019/sun_bbfmuujfvpiaqdww.jpg,0,0,0.0,0,58,58,58,,,,,,,,,,,,,131.99971360000018,-0.00028639999982260633,None,161.94674440000017,161.94674440000017,161.94674440000017,161.94674440000017,161.94674440000017,161.94674440000017,161.94674440000017,161.94674440000017,161.94674440000017,161.94674440000017,,006,P019,2025_Mar_21_1026,ConditionRich,2021.2.3,59.94639593262387,
135.75,136.0,41,0.0,Stimuli/Blank.png,0,0,0.0,0,59,59,59,,,,,,,,,,,,,135.77002379999976,0.02002379999976256,None,165.7000680000001,165.7000680000001,165.7000680000001,165.7000680000001,165.7000680000001,165.7000680000001,165.7000680000001,165.7000680000001,165.7000680000001,165.7000680000001,,006,P019,2025_Mar_21_1026,ConditionRich,2021.2.3,59.94639593262387,
136.0,139.75,14,0.75,Stimuli/P019/sun_birvagufpcschyrr.jpg,1,1,1.75,0,60,60,60,,,,,,,,,,,,,136.0028473000002,0.0028473000002122717,1,165.93359229999987,165.93359229999987,165.93359229999987,165.93359229999987,165.93359229999987,165.93359229999987,166.9177908999991,167.66851549999956,165.93359229999987,165.93359229999987,1.5165721999983361,006,P019,2025_Mar_21_1026,ConditionRich,2021.2.3,59.94639593262387,
139.75,140.0,41,0.0,Stimuli/Blank.png,0,0,0.0,0,61,61,61,,,,,,,,,,,,,139.7562052000012,0.006205200001204503,None,169.68691240000044,169.68691240000044,169.68691240000044,169.68691240000044,169.68691240000044,169.68691240000044,169.68691240000044,169.68691240000044,169.68691240000044,169.68691240000044,,006,P019,2025_Mar_21_1026,ConditionRich,2021.2.3,59.94639593262387,
140.0,143.75,36,0.75,Stimuli/P019/things_sunroof_10s.jpg,0,0,0.0,0,62,62,62,,,,,,,,,,,,,140.00924590000068,0.009245900000678375,None,169.95382210000025,169.95382210000025,169.95382210000025,169.95382210000025,169.95382210000025,169.95382210000025,169.95382210000025,169.95382210000025,169.95382210000025,169.95382210000025,,006,P019,2025_Mar_21_1026,ConditionRich,2021.2.3,59.94639593262387,
143.75,144.0,41,0.0,Stimuli/Blank.png,0,0,0.0,0,63,63,63,,,,,,,,,,,,,143.77648800000134,0.02648800000133633,None,173.70723349999935,173.70723349999935,173.70723349999935,173.70723349999935,173.70723349999935,173.70723349999935,173.70723349999935,173.70723349999935,173.70723349999935,173.70723349999935,,006,P019,2025_Mar_21_1026,ConditionRich,2021.2.3,59.94639593262387,
144.0,147.75,28,0.75,Stimuli/P019/things_face_10s.jpg,0,0,0.0,0,64,64,64,,,,,,,,,,,,,144.01003409999976,0.010034099999757018,None,173.94080589999976,173.94080589999976,173.94080589999976,173.94080589999976,173.94080589999976,173.94080589999976,173.94080589999976,173.94080589999976,173.94080589999976,173.94080589999976,,006,P019,2025_Mar_21_1026,ConditionRich,2021.2.3,59.94639593262387,
147.75,148.0,41,0.0,Stimuli/Blank.png,0,0,0.0,0,65,65,65,,,,,,,,,,,,,147.76281879999988,0.012818799999877228,None,177.6940684000001,177.6940684000001,177.6940684000001,177.6940684000001,177.6940684000001,177.6940684000001,177.6940684000001,177.6940684000001,177.6940684000001,177.6940684000001,,006,P019,2025_Mar_21_1026,ConditionRich,2021.2.3,59.94639593262387,
148.0,151.75,21,0.75,Stimuli/P019/things_anteater_10s.jpg,0,0,0.0,0,66,66,66,,,,,,,,,,,,,148.0141480000002,0.014148000000204775,None,177.96091220000017,177.96091220000017,177.96091220000017,177.96091220000017,177.96091220000017,177.96091220000017,177.96091220000017,177.96091220000017,177.96091220000017,177.96091220000017,,006,P019,2025_Mar_21_1026,ConditionRich,2021.2.3,59.94639593262387,
151.75,152.0,41,0.0,Stimuli/Blank.png,0,0,0.0,0,67,67,67,,,,,,,,,,,,,151.76617160000023,0.01617160000023432,None,181.69752799999878,181.69752799999878,181.69752799999878,181.69752799999878,181.69752799999878,181.69752799999878,181.69752799999878,181.69752799999878,181.69752799999878,181.69752799999878,,006,P019,2025_Mar_21_1026,ConditionRich,2021.2.3,59.94639593262387,
152.0,155.75,18,0.75,Stimuli/P019/sun_bodjbrgwzlshgypq.jpg,0,0,0.0,0,68,68,68,,,,,,,,,,,,,152.00040939999963,0.000409399999625748,None,181.94774849999885,181.94774849999885,181.94774849999885,181.94774849999885,181.94774849999885,181.94774849999885,181.94774849999885,181.94774849999885,181.94774849999885,181.94774849999885,,006,P019,2025_Mar_21_1026,ConditionRich,2021.2.3,59.94639593262387,
155.75,156.0,41,0.0,Stimuli/Blank.png,0,0,0.0,0,69,69,69,,,,,,,,,,,,,155.7697859,0.019785899999988033,None,185.70106859999942,185.70106859999942,185.70106859999942,185.70106859999942,185.70106859999942,185.70106859999942,185.70106859999942,185.70106859999942,185.70106859999942,185.70106859999942,,006,P019,2025_Mar_21_1026,ConditionRich,2021.2.3,59.94639593262387,
156.0,159.75,16,0.75,Stimuli/P019/sun_blfpbbfyzmewzplm.jpg,0,0,0.0,0,70,70,70,,,,,,,,,,,,,156.00576180000098,0.0057618000009824755,None,185.95129859999906,185.95129859999906,185.95129859999906,185.95129859999906,185.95129859999906,185.95129859999906,185.95129859999906,185.95129859999906,185.95129859999906,185.95129859999906,,006,P019,2025_Mar_21_1026,ConditionRich,2021.2.3,59.94639593262387,
159.75,160.0,41,0.0,Stimuli/Blank.png,0,0,0.0,0,71,71,71,,,,,,,,,,,,,159.7744612000006,0.02446120000058727,None,189.70461760000035,189.70461760000035,189.70461760000035,189.70461760000035,189.70461760000035,189.70461760000035,189.70461760000035,189.70461760000035,189.70461760000035,189.70461760000035,,006,P019,2025_Mar_21_1026,ConditionRich,2021.2.3,59.94639593262387,
160.0,163.75,27,0.75,Stimuli/P019/things_eel_10s.jpg,1,3,3.75,0,72,72,72,,,,,,,,,,,,,160.00729040000078,0.007290400000783848,1,189.95484149999902,189.95484149999902,189.95484149999902,189.95484149999902,189.95484149999902,189.95484149999902,192.92415189999883,193.6748160999996,189.95484149999902,189.95484149999902,3.4923293000010744,006,P019,2025_Mar_21_1026,ConditionRich,2021.2.3,59.94639593262387,
163.75,164.0,41,0.0,Stimuli/Blank.png,0,0,0.0,0,73,73,73,,,,,,,,,,,,,163.77700530000038,0.027005300000382704,None,193.70813830000043,193.70813830000043,193.70813830000043,193.70813830000043,193.70813830000043,193.70813830000043,193.70813830000043,193.70813830000043,193.70813830000043,193.70813830000043,,006,P019,2025_Mar_21_1026,ConditionRich,2021.2.3,59.94639593262387,
164.0,167.75,2,0.75,Stimuli/P019/sun_ajhvfwzgpfovdgid.jpg,0,0,0.0,0,74,74,74,,,,,,,,,,,,,164.01035840000077,0.010358400000768597,None,193.94167219999872,193.94167219999872,193.94167219999872,193.94167219999872,193.94167219999872,193.94167219999872,193.94167219999872,193.94167219999872,193.94167219999872,193.94167219999872,,006,P019,2025_Mar_21_1026,ConditionRich,2021.2.3,59.94639593262387,
167.75,168.0,41,0.0,Stimuli/Blank.png,0,0,0.0,0,75,75,75,,,,,,,,,,,,,167.76494060000005,0.014940600000045379,None,197.69500289999996,197.69500289999996,197.69500289999996,197.69500289999996,197.69500289999996,197.69500289999996,197.69500289999996,197.69500289999996,197.69500289999996,197.69500289999996,,006,P019,2025_Mar_21_1026,ConditionRich,2021.2.3,59.94639593262387,
168.0,171.75,25,0.75,Stimuli/P019/things_chime_10s.jpg,0,0,0.0,0,76,76,76,,,,,,,,,,,,,168.0142749000006,0.01427490000060061,None,197.94521580000037,197.94521580000037,197.94521580000037,197.94521580000037,197.94521580000037,197.94521580000037,197.94521580000037,197.94521580000037,197.94521580000037,197.94521580000037,,006,P019,2025_Mar_21_1026,ConditionRich,2021.2.3,59.94639593262387,
171.75,172.0,41,0.0,Stimuli/Blank.png,0,0,0.0,0,77,77,77,,,,,,,,,,,,,171.75067339999987,0.0006733999998687068,None,201.68184870000005,201.68184870000005,201.68184870000005,201.68184870000005,201.68184870000005,201.68184870000005,201.68184870000005,201.68184870000005,201.68184870000005,201.68184870000005,,006,P019,2025_Mar_21_1026,ConditionRich,2021.2.3,59.94639593262387,
172.0,175.75,4,0.75,Stimuli/P019/sun_amixpbnrxiulfsri.jpg,0,0,0.0,0,78,78,78,,,,,,,,,,,,,172.00077360000068,0.0007736000006843824,None,201.9320671000005,201.9320671000005,201.9320671000005,201.9320671000005,201.9320671000005,201.9320671000005,201.9320671000005,201.9320671000005,201.9320671000005,201.9320671000005,,006,P019,2025_Mar_21_1026,ConditionRich,2021.2.3,59.94639593262387,
175.75,176.0,41,0.0,Stimuli/Blank.png,0,0,0.0,0,79,79,79,,,,,,,,,,,,,175.7541216999998,0.004121699999814155,None,205.68539579999924,205.68539579999924,205.68539579999924,205.68539579999924,205.68539579999924,205.68539579999924,205.68539579999924,205.68539579999924,205.68539579999924,205.68539579999924,,006,P019,2025_Mar_21_1026,ConditionRich,2021.2.3,59.94639593262387,
176.0,179.75,15,0.75,Stimuli/P019/sun_bkubdnohuakmwcaj.jpg,1,2,2.75,0,80,80,80,,,,,,,,,,,,,176.0047676000013,0.0047676000012870645,1,205.9356069000005,205.9356069000005,205.9356069000005,205.9356069000005,205.9356069000005,205.9356069000005,207.92070020000028,208.67141999999876,205.9356069000005,205.9356069000005,2.4845654999990074,006,P019,2025_Mar_21_1026,ConditionRich,2021.2.3,59.94639593262387,
179.75,180.0,41,0.0,Stimuli/Blank.png,0,0,0.0,0,81,81,81,,,,,,,,,,,,,179.76033110000026,0.01033110000025772,None,209.70562719999907,209.70562719999907,209.70562719999907,209.70562719999907,209.70562719999907,209.70562719999907,209.70562719999907,209.70562719999907,209.70562719999907,209.70562719999907,,006,P019,2025_Mar_21_1026,ConditionRich,2021.2.3,59.94639593262387,
180.0,196.0,0,0.0,Stimuli/Blank.png,1,2,2.75,0,82,82,82,,,,,,,,,,,,,180.02576050000062,0.02576050000061514,1,209.95583420000003,209.95583420000003,209.95583420000003,209.95583420000003,209.95583420000003,209.95583420000003,211.94093129999965,212.6915465000002,209.95583420000003,209.95583420000003,2.5406378000006953,006,P019,2025_Mar_21_1026,ConditionRich,2021.2.3,59.94639593262387,
196.0,199.75,12,0.75,Stimuli/P019/sun_bgjrtiivbwugxhxp.jpg,0,0,0.0,0,83,83,83,,,,,,,,,,,,,196.0067541999997,0.006754199999704724,None,225.95330529999956,225.95330529999956,225.95330529999956,225.95330529999956,225.95330529999956,225.95330529999956,225.95330529999956,225.95330529999956,225.95330529999956,225.95330529999956,,006,P019,2025_Mar_21_1026,ConditionRich,2021.2.3,59.94639593262387,
199.75,200.0,41,0.0,Stimuli/Blank.png,0,0,0.0,0,84,84,84,,,,,,,,,,,,,199.77585460000046,0.02585460000045714,None,229.70661549999932,229.70661549999932,229.70661549999932,229.70661549999932,229.70661549999932,229.70661549999932,229.70661549999932,229.70661549999932,229.70661549999932,229.70661549999932,,006,P019,2025_Mar_21_1026,ConditionRich,2021.2.3,59.94639593262387,
200.0,203.75,14,0.75,Stimuli/P019/sun_birvagufpcschyrr.jpg,1,3,3.75,0,85,85,85,,,,,,,,,,,,,200.01111370000035,0.011113700000350946,1,229.9568589999999,229.9568589999999,229.9568589999999,229.9568589999999,229.9568589999999,229.9568589999999,232.9428527,233.6935510000003,229.9568589999999,229.9568589999999,3.4553314999993745,006,P019,2025_Mar_21_1026,ConditionRich,2021.2.3,59.94639593262387,
203.75,204.0,41,0.0,Stimuli/Blank.png,0,0,0.0,0,86,86,86,,,,,,,,,,,,,203.78015320000122,0.030153200001223013,None,233.7101659,233.7101659,233.7101659,233.7101659,233.7101659,233.7101659,233.7101659,233.7101659,233.7101659,233.7101659,,006,P019,2025_Mar_21_1026,ConditionRich,2021.2.3,59.94639593262387,
204.0,207.75,3,0.75,Stimuli/P019/sun_aknrkswonrogcooi.jpg,0,0,0.0,0,87,87,87,,,,,,,,,,,,,204.01541950000137,0.015419500001371489,None,233.96038500000031,233.96038500000031,233.96038500000031,233.96038500000031,233.96038500000031,233.96038500000031,233.96038500000031,233.96038500000031,233.96038500000031,233.96038500000031,,006,P019,2025_Mar_21_1026,ConditionRich,2021.2.3,59.94639593262387,
207.75,208.0,41,0.0,Stimuli/Blank.png,0,0,0.0,0,88,88,88,,,,,,,,,,,,,207.76596580000114,0.01596580000114045,None,237.69701290000012,237.69701290000012,237.69701290000012,237.69701290000012,237.69701290000012,237.69701290000012,237.69701290000012,237.69701290000012,237.69701290000012,237.69701290000012,,006,P019,2025_Mar_21_1026,ConditionRich,2021.2.3,59.94639593262387,
208.0,211.75,38,0.75,Stimuli/P019/things_turtle_10n.jpg,0,0,0.0,0,89,89,89,,,,,,,,,,,,,208.0008581000002,0.0008581000001868233,None,237.94723290000002,237.94723290000002,237.94723290000002,237.94723290000002,237.94723290000002,237.94723290000002,237.94723290000002,237.94723290000002,237.94723290000002,237.94723290000002,,006,P019,2025_Mar_21_1026,ConditionRich,2021.2.3,59.94639593262387,
211.75,212.0,41,0.0,Stimuli/Blank.png,0,0,0.0,0,90,90,90,,,,,,,,,,,,,211.7694061000002,0.019406100000196602,None,241.70055049999974,241.70055049999974,241.70055049999974,241.70055049999974,241.70055049999974,241.70055049999974,241.70055049999974,241.70055049999974,241.70055049999974,241.70055049999974,,006,P019,2025_Mar_21_1026,ConditionRich,2021.2.3,59.94639593262387,
212.0,215.75,31,0.75,Stimuli/P019/things_fudge_10s.jpg,0,0,0.0,0,91,91,91,,,,,,,,,,,,,212.00344380000024,0.0034438000002410263,None,241.93408759999875,241.93408759999875,241.93408759999875,241.93408759999875,241.93408759999875,241.93408759999875,241.93408759999875,241.93408759999875,241.93408759999875,241.93408759999875,,006,P019,2025_Mar_21_1026,ConditionRich,2021.2.3,59.94639593262387,
215.75,216.0,41,0.0,Stimuli/Blank.png,0,0,0.0,0,92,92,92,,,,,,,,,,,,,215.75689890000103,0.006898900001033326,None,245.68739879999885,245.68739879999885,245.68739879999885,245.68739879999885,245.68739879999885,245.68739879999885,245.68739879999885,245.68739879999885,245.68739879999885,245.68739879999885,,006,P019,2025_Mar_21_1026,ConditionRich,2021.2.3,59.94639593262387,
216.0,219.75,28,0.75,Stimuli/P019/things_face_10s.jpg,0,0,0.0,0,93,93,93,,,,,,,,,,,,,216.00694380000095,0.00694380000095407,None,245.93762620000052,245.93762620000052,245.93762620000052,245.93762620000052,245.93762620000052,245.93762620000052,245.93762620000052,245.93762620000052,245.93762620000052,245.93762620000052,,006,P019,2025_Mar_21_1026,ConditionRich,2021.2.3,59.94639593262387,
219.75,220.0,41,0.0,Stimuli/Blank.png,0,0,0.0,0,94,94,94,,,,,,,,,,,,,219.7610233000014,0.011023300001397729,None,249.7076522999996,249.7076522999996,249.7076522999996,249.7076522999996,249.7076522999996,249.7076522999996,249.7076522999996,249.7076522999996,249.7076522999996,249.7076522999996,,006,P019,2025_Mar_21_1026,ConditionRich,2021.2.3,59.94639593262387,
220.0,223.75,35,0.75,Stimuli/P019/things_pretzel_10s.jpg,0,0,0.0,0,95,95,95,,,,,,,,,,,,,220.02709310000137,0.02709310000136611,None,249.97455059999993,249.97455059999993,249.97455059999993,249.97455059999993,249.97455059999993,249.97455059999993,249.97455059999993,249.97455059999993,249.97455059999993,249.97455059999993,,006,P019,2025_Mar_21_1026,ConditionRich,2021.2.3,59.94639593262387,
223.75,224.0,41,0.0,Stimuli/Blank.png,0,0,0.0,0,96,96,96,,,,,,,,,,,,,223.78084310000122,0.03084310000122059,None,253.71116509999956,253.71116509999956,253.71116509999956,253.71116509999956,253.71116509999956,253.71116509999956,253.71116509999956,253.71116509999956,253.71116509999956,253.71116509999956,,006,P019,2025_Mar_21_1026,ConditionRich,2021.2.3,59.94639593262387,
224.0,227.75,17,0.75,Stimuli/P019/sun_bltxkcclrpweopkl.jpg,0,0,0.0,0,97,97,97,,,,,,,,,,,,,224.0154022000006,0.01540220000060799,None,253.9613862999995,253.9613862999995,253.9613862999995,253.9613862999995,253.9613862999995,253.9613862999995,253.9613862999995,253.9613862999995,253.9613862999995,253.9613862999995,,006,P019,2025_Mar_21_1026,ConditionRich,2021.2.3,59.94639593262387,
227.75,228.0,41,0.0,Stimuli/Blank.png,0,0,0.0,0,98,98,98,,,,,,,,,,,,,227.7672715000008,0.017271500000788365,None,257.69801989999905,257.69801989999905,257.69801989999905,257.69801989999905,257.69801989999905,257.69801989999905,257.69801989999905,257.69801989999905,257.69801989999905,257.69801989999905,,006,P019,2025_Mar_21_1026,ConditionRich,2021.2.3,59.94639593262387,
228.0,231.75,21,0.75,Stimuli/P019/things_anteater_10s.jpg,0,0,0.0,0,99,99,99,,,,,,,,,,,,,228.001588000001,0.0015880000009929063,None,257.94826060000014,257.94826060000014,257.94826060000014,257.94826060000014,257.94826060000014,257.94826060000014,257.94826060000014,257.94826060000014,257.94826060000014,257.94826060000014,,006,P019,2025_Mar_21_1026,ConditionRich,2021.2.3,59.94639593262387,
231.75,232.0,41,0.0,Stimuli/Blank.png,0,0,0.0,0,100,100,100,,,,,,,,,,,,,231.7716231000013,0.02162310000130674,None,261.7182737000003,261.7182737000003,261.7182737000003,261.7182737000003,261.7182737000003,261.7182737000003,261.7182737000003,261.7182737000003,261.7182737000003,261.7182737000003,,006,P019,2025_Mar_21_1026,ConditionRich,2021.2.3,59.94639593262387,
232.0,235.75,1,0.75,Stimuli/P019/sun_aaaidwecchadbake.jpg,1,2,2.75,0,101,101,101,,,,,,,,,,,,,232.02052780000122,0.020527800001218566,1,261.95177329999933,261.95177329999933,261.95177329999933,261.95177329999933,261.95177329999933,261.95177329999933,263.93687019999925,264.68761599999925,261.95177329999933,261.95177329999933,2.467367999999624,006,P019,2025_Mar_21_1026,ConditionRich,2021.2.3,59.94639593262387,
235.75,236.0,41,0.0,Stimuli/Blank.png,0,0,0.0,0,102,102,102,,,,,,,,,,,,,235.75870450000002,0.008704500000021653,None,265.68840610000007,265.68840610000007,265.68840610000007,265.68840610000007,265.68840610000007,265.68840610000007,265.68840610000007,265.68840610000007,265.68840610000007,265.68840610000007,,006,P019,2025_Mar_21_1026,ConditionRich,2021.2.3,59.94639593262387,
236.0,239.75,32,0.75,Stimuli/P019/things_girl_10s.jpg,0,0,0.0,0,103,103,103,,,,,,,,,,,,,236.0078353000008,0.007835300000806456,None,265.9553187999991,265.9553187999991,265.9553187999991,265.9553187999991,265.9553187999991,265.9553187999991,265.9553187999991,265.9553187999991,265.9553187999991,265.9553187999991,,006,P019,2025_Mar_21_1026,ConditionRich,2021.2.3,59.94639593262387,
239.75,240.0,41,0.0,Stimuli/Blank.png,0,0,0.0,0,104,104,104,,,,,,,,,,,,,239.77732149999974,0.027321499999743537,None,269.70862619999934,269.70862619999934,269.70862619999934,269.70862619999934,269.70862619999934,269.70862619999934,269.70862619999934,269.70862619999934,269.70862619999934,269.70862619999934,,006,P019,2025_Mar_21_1026,ConditionRich,2021.2.3,59.94639593262387,
240.0,243.75,8,0.75,Stimuli/P019/sun_avbzvunekksfggon.jpg,1,3,3.75,0,105,105,105,,,,,,,,,,,,,240.01102710000123,0.011027100001228973,1,269.94216439999946,269.94216439999946,269.94216439999946,269.94216439999946,269.94216439999946,269.94216439999946,272.9281496000003,273.6788113999992,269.94216439999946,269.94216439999946,3.5090118999996776,006,P019,2025_Mar_21_1026,ConditionRich,2021.2.3,59.94639593262387,
243.75,244.0,41,0.0,Stimuli/Blank.png,0,0,0.0,0,106,106,106,,,,,,,,,,,,,243.7643629000013,0.014362900001287926,None,273.6954891000005,273.6954891000005,273.6954891000005,273.6954891000005,273.6954891000005,273.6954891000005,273.6954891000005,273.6954891000005,273.6954891000005,273.6954891000005,,006,P019,2025_Mar_21_1026,ConditionRich,2021.2.3,59.94639593262387,
244.0,247.75,24,0.75,Stimuli/P019/things_bulletin_board_10s.jpg,0,0,0.0,0,107,107,107,,,,,,,,,,,,,244.01440770000045,0.014407700000447221,None,273.9457229999989,273.9457229999989,273.9457229999989,273.9457229999989,273.9457229999989,273.9457229999989,273.9457229999989,273.9457229999989,273.9457229999989,273.9457229999989,,006,P019,2025_Mar_21_1026,ConditionRich,2021.2.3,59.94639593262387,
247.75,248.0,41,0.0,Stimuli/Blank.png,0,0,0.0,0,108,108,108,,,,,,,,,,,,,247.7510622000009,0.0010622000008879695,None,277.6823411999994,277.6823411999994,277.6823411999994,277.6823411999994,277.6823411999994,277.6823411999994,277.6823411999994,277.6823411999994,277.6823411999994,277.6823411999994,,006,P019,2025_Mar_21_1026,ConditionRich,2021.2.3,59.94639593262387,
248.0,251.75,40,0.75,Stimuli/P019/things_woman_10s.jpg,0,0,0.0,0,109,109,109,,,,,,,,,,,,,248.0012738000005,0.001273800000490155,None,277.9325594000002,277.9325594000002,277.9325594000002,277.9325594000002,277.9325594000002,277.9325594000002,277.9325594000002,277.9325594000002,277.9325594000002,277.9325594000002,,006,P019,2025_Mar_21_1026,ConditionRich,2021.2.3,59.94639593262387,
251.75,252.0,41,0.0,Stimuli/Blank.png,0,0,0.0,0,110,110,110,,,,,,,,,,,,,251.7557921000007,0.00579210000068997,None,281.6858880999989,281.6858880999989,281.6858880999989,281.6858880999989,281.6858880999989,281.6858880999989,281.6858880999989,281.6858880999989,281.6858880999989,281.6858880999989,,006,P019,2025_Mar_21_1026,ConditionRich,2021.2.3,59.94639593262387,
252.0,255.75,29,0.75,Stimuli/P019/things_flamingo_10s.jpg,1,2,2.75,0,111,111,111,,,,,,,,,,,,,252.00505970000086,0.005059700000856537,1,281.9361021000004,281.9361021000004,281.9361021000004,281.9361021000004,281.9361021000004,281.9361021000004,283.9211892000003,284.6718970999991,281.9361021000004,281.9361021000004,2.4942906999986008,006,P019,2025_Mar_21_1026,ConditionRich,2021.2.3,59.94639593262387,
255.75,256.0,41,0.0,Stimuli/Blank.png,0,0,0.0,0,112,112,112,,,,,,,,,,,,,255.76053710000087,0.010537100000874489,None,285.70610750000014,285.70610750000014,285.70610750000014,285.70610750000014,285.70610750000014,285.70610750000014,285.70610750000014,285.70610750000014,285.70610750000014,285.70610750000014,,006,P019,2025_Mar_21_1026,ConditionRich,2021.2.3,59.94639593262387,
256.0,259.75,34,0.75,Stimuli/P019/things_man_10s.jpg,0,0,0.0,0,113,113,113,,,,,,,,,,,,,256.0265012,0.026501199999984237,None,285.9730017999991,285.9730017999991,285.9730017999991,285.9730017999991,285.9730017999991,285.9730017999991,285.9730017999991,285.9730017999991,285.9730017999991,285.9730017999991,,006,P019,2025_Mar_21_1026,ConditionRich,2021.2.3,59.94639593262387,
259.75,260.0,41,0.0,Stimuli/Blank.png,0,0,0.0,0,114,114,114,,,,,,,,,,,,,259.78131310000026,0.03131310000026133,None,289.72632729999896,289.72632729999896,289.72632729999896,289.72632729999896,289.72632729999896,289.72632729999896,289.72632729999896,289.72632729999896,289.72632729999896,289.72632729999896,,006,P019,2025_Mar_21_1026,ConditionRich,2021.2.3,59.94639593262387,
260.0,263.75,7,0.75,Stimuli/P019/sun_aqkbfuonyunmyqxb.jpg,0,0,0.0,0,115,115,115,,,,,,,,,,,,,260.0287291000004,0.02872910000041884,None,289.9598652000004,289.9598652000004,289.9598652000004,289.9598652000004,289.9598652000004,289.9598652000004,289.9598652000004,289.9598652000004,289.9598652000004,289.9598652000004,,006,P019,2025_Mar_21_1026,ConditionRich,2021.2.3,59.94639593262387,
263.75,264.0,41,0.0,Stimuli/Blank.png,0,0,0.0,0,116,116,116,,,,,,,,,,,,,263.76590730000134,0.015907300001344993,None,293.6964874999994,293.6964874999994,293.6964874999994,293.6964874999994,293.6964874999994,293.6964874999994,293.6964874999994,293.6964874999994,293.6964874999994,293.6964874999994,,006,P019,2025_Mar_21_1026,ConditionRich,2021.2.3,59.94639593262387,
264.0,267.75,33,0.75,Stimuli/P019/things_insole_10s.jpg,1,1,1.75,0,117,117,117,,,,,,,,,,,,,263.9998102999998,-0.00018970000019180588,1,293.94672770000034,293.94672770000034,293.94672770000034,293.94672770000034,293.94672770000034,293.94672770000034,294.9142637999994,295.66489639999963,293.94672770000034,293.94672770000034,1.4824212000003172,006,P019,2025_Mar_21_1026,ConditionRich,2021.2.3,59.94639593262387,
267.75,268.0,41,0.0,Stimuli/Blank.png,0,0,0.0,0,118,118,118,,,,,,,,,,,,,267.7696444000012,0.019644400001197937,None,297.7000587000002,297.7000587000002,297.7000587000002,297.7000587000002,297.7000587000002,297.7000587000002,297.7000587000002,297.7000587000002,297.7000587000002,297.7000587000002,,006,P019,2025_Mar_21_1026,ConditionRich,2021.2.3,59.94639593262387,
268.0,271.75,4,0.75,Stimuli/P019/sun_amixpbnrxiulfsri.jpg,0,0,0.0,0,119,119,119,,,,,,,,,,,,,268.00524680000126,0.005246800001259544,None,297.95024600000033,297.95024600000033,297.95024600000033,297.95024600000033,297.95024600000033,297.95024600000033,297.95024600000033,297.95024600000033,297.95024600000033,297.95024600000033,,006,P019,2025_Mar_21_1026,ConditionRich,2021.2.3,59.94639593262387,
271.75,272.0,41,0.0,Stimuli/Blank.png,0,0,0.0,0,120,120,120,,,,,,,,,,,,,271.7725556000005,0.022555600000487175,None,301.72029680000014,301.72029680000014,301.72029680000014,301.72029680000014,301.72029680000014,301.72029680000014,301.72029680000014,301.72029680000014,301.72029680000014,301.72029680000014,,006,P019,2025_Mar_21_1026,ConditionRich,2021.2.3,59.94639593262387,
272.0,275.75,13,0.75,Stimuli/P019/sun_bhzwrbdycbchqesq.jpg,0,0,0.0,0,121,121,121,,,,,,,,,,,,,272.02494990000014,0.02494990000013786,None,301.9704698000005,301.9704698000005,301.9704698000005,301.9704698000005,301.9704698000005,301.9704698000005,301.9704698000005,301.9704698000005,301.9704698000005,301.9704698000005,,006,P019,2025_Mar_21_1026,ConditionRich,2021.2.3,59.94639593262387,
275.75,276.0,41,0.0,Stimuli/Blank.png,0,0,0.0,0,122,122,122,,,,,,,,,,,,,275.77682579999964,0.026825799999642186,None,305.7070974999988,305.7070974999988,305.7070974999988,305.7070974999988,305.7070974999988,305.7070974999988,305.7070974999988,305.7070974999988,305.7070974999988,305.7070974999988,,006,P019,2025_Mar_21_1026,ConditionRich,2021.2.3,59.94639593262387,
276.0,292.0,0,0.0,Stimuli/Blank.png,1,11,11.75,0,123,123,123,,,,,,,,,,,,,276.009403,0.009403000000020256,1,305.94064739999885,305.94064739999885,305.94064739999885,305.94064739999885,305.94064739999885,305.94064739999885,316.9169934999991,317.66776260000006,305.94064739999885,305.94064739999885,11.469470799998817,006,P019,2025_Mar_21_1026,ConditionRich,2021.2.3,59.94639593262387,
292.0,295.75,30,0.75,Stimuli/P019/things_flip_flop_10s.jpg,0,0,0.0,0,124,124,124,,,,,,,,,,,,,292.0071403000002,0.007140300000173738,None,321.9381065999987,321.9381065999987,321.9381065999987,321.9381065999987,321.9381065999987,321.9381065999987,321.9381065999987,321.9381065999987,321.9381065999987,321.9381065999987,,006,P019,2025_Mar_21_1026,ConditionRich,2021.2.3,59.94639593262387,
295.75,296.0,41,0.0,Stimuli/Blank.png,0,0,0.0,0,125,125,125,,,,,,,,,,,,,295.7617714000007,0.011771400000725407,None,325.6914392999988,325.6914392999988,325.6914392999988,325.6914392999988,325.6914392999988,325.6914392999988,325.6914392999988,325.6914392999988,325.6914392999988,325.6914392999988,,006,P019,2025_Mar_21_1026,ConditionRich,2021.2.3,59.94639593262387,
296.0,299.75,18,0.75,Stimuli/P019/sun_bodjbrgwzlshgypq.jpg,0,0,0.0,0,126,126,126,,,,,,,,,,,,,296.0110259000012,0.011025900001186528,None,325.9416517999998,325.9416517999998,325.9416517999998,325.9416517999998,325.9416517999998,325.9416517999998,325.9416517999998,325.9416517999998,325.9416517999998,325.9416517999998,,006,P019,2025_Mar_21_1026,ConditionRich,2021.2.3,59.94639593262387,
299.75,300.0,41,0.0,Stimuli/Blank.png,0,0,0.0,0,127,127,127,,,,,,,,,,,,,299.7636330000005,0.013633000000481843,None,329.6949647000001,329.6949647000001,329.6949647000001,329.6949647000001,329.6949647000001,329.6949647000001,329.6949647000001,329.6949647000001,329.6949647000001,329.6949647000001,,006,P019,2025_Mar_21_1026,ConditionRich,2021.2.3,59.94639593262387,
300.0,303.75,26,0.75,Stimuli/P019/things_earwig_10n.jpg,0,0,0.0,0,128,128,128,,,,,,,,,,,,,300.0138499000004,0.013849900000423077,None,329.94517579999956,329.94517579999956,329.94517579999956,329.94517579999956,329.94517579999956,329.94517579999956,329.94517579999956,329.94517579999956,329.94517579999956,329.94517579999956,,006,P019,2025_Mar_21_1026,ConditionRich,2021.2.3,59.94639593262387,
303.75,304.0,41,0.0,Stimuli/Blank.png,0,0,0.0,0,129,129,129,,,,,,,,,,,,,303.75148140000056,0.001481400000557187,None,333.68181659999937,333.68181659999937,333.68181659999937,333.68181659999937,333.68181659999937,333.68181659999937,333.68181659999937,333.68181659999937,333.68181659999937,333.68181659999937,,006,P019,2025_Mar_21_1026,ConditionRich,2021.2.3,59.94639593262387,
304.0,307.75,20,0.75,Stimuli/P019/sun_dlnwonqxagdvtlta.jpg,0,0,0.0,0,130,130,130,,,,,,,,,,,,,304.00087710000116,0.0008771000011620345,None,333.93203449999965,333.93203449999965,333.93203449999965,333.93203449999965,333.93203449999965,333.93203449999965,333.93203449999965,333.93203449999965,333.93203449999965,333.93203449999965,,006,P019,2025_Mar_21_1026,ConditionRich,2021.2.3,59.94639593262387,
307.75,308.0,41,0.0,Stimuli/Blank.png,0,0,0.0,0,131,131,131,,,,,,,,,,,,,307.7551930000009,0.005193000000872416,None,337.68536309999945,337.68536309999945,337.68536309999945,337.68536309999945,337.68536309999945,337.68536309999945,337.68536309999945,337.68536309999945,337.68536309999945,337.68536309999945,,006,P019,2025_Mar_21_1026,ConditionRich,2021.2.3,59.94639593262387,
308.0,311.75,2,0.75,Stimuli/P019/sun_ajhvfwzgpfovdgid.jpg,0,0,0.0,0,132,132,132,,,,,,,,,,,,,308.00560570000016,0.005605700000160141,None,337.95224959999905,337.95224959999905,337.95224959999905,337.95224959999905,337.95224959999905,337.95224959999905,337.95224959999905,337.95224959999905,337.95224959999905,337.95224959999905,,006,P019,2025_Mar_21_1026,ConditionRich,2021.2.3,59.94639593262387,
311.75,312.0,41,0.0,Stimuli/Blank.png,0,0,0.0,0,133,133,133,,,,,,,,,,,,,311.7742790000011,0.02427900000111549,None,341.70556959999885,341.70556959999885,341.70556959999885,341.70556959999885,341.70556959999885,341.70556959999885,341.70556959999885,341.70556959999885,341.70556959999885,341.70556959999885,,006,P019,2025_Mar_21_1026,ConditionRich,2021.2.3,59.94639593262387,
312.0,315.75,19,0.75,Stimuli/P019/sun_byssdezaaqnthppd.jpg,0,0,0.0,0,134,134,134,,,,,,,,,,,,,312.0105921000013,0.010592100001304061,None,341.9558084,341.9558084,341.9558084,341.9558084,341.9558084,341.9558084,341.9558084,341.9558084,341.9558084,341.9558084,,006,P019,2025_Mar_21_1026,ConditionRich,2021.2.3,59.94639593262387,
315.75,316.0,41,0.0,Stimuli/Blank.png,0,0,0.0,0,135,135,135,,,,,,,,,,,,,315.7788271999998,0.028827199999795994,None,345.7091521000002,345.7091521000002,345.7091521000002,345.7091521000002,345.7091521000002,345.7091521000002,345.7091521000002,345.7091521000002,345.7091521000002,345.7091521000002,,006,P019,2025_Mar_21_1026,ConditionRich,2021.2.3,59.94639593262387,
316.0,319.75,6,0.75,Stimuli/P019/sun_amppcthpabgulbwl.jpg,0,0,0.0,0,136,136,136,,,,,,,,,,,,,316.0114343000005,0.01143430000047374,None,345.9426507999997,345.9426507999997,345.9426507999997,345.9426507999997,345.9426507999997,345.9426507999997,345.9426507999997,345.9426507999997,345.9426507999997,345.9426507999997,,006,P019,2025_Mar_21_1026,ConditionRich,2021.2.3,59.94639593262387,
319.75,320.0,41,0.0,Stimuli/Blank.png,0,0,0.0,0,137,137,137,,,,,,,,,,,,,319.76531050000085,0.01531050000085088,None,349.6959702000004,349.6959702000004,349.6959702000004,349.6959702000004,349.6959702000004,349.6959702000004,349.6959702000004,349.6959702000004,349.6959702000004,349.6959702000004,,006,P019,2025_Mar_21_1026,ConditionRich,2021.2.3,59.94639593262387,
320.0,323.75,15,0.75,Stimuli/P019/sun_bkubdnohuakmwcaj.jpg,0,0,0.0,0,138,138,138,,,,,,,,,,,,,320.0161497000008,0.01614970000082394,None,349.9629098000005,349.9629098000005,349.9629098000005,349.9629098000005,349.9629098000005,349.9629098000005,349.9629098000005,349.9629098000005,349.9629098000005,349.9629098000005,,006,P019,2025_Mar_21_1026,ConditionRich,2021.2.3,59.94639593262387,
323.75,324.0,41,0.0,Stimuli/Blank.png,0,0,0.0,0,139,139,139,,,,,,,,,,,,,323.7694341000006,0.019434100000580656,None,353.6995078,353.6995078,353.6995078,353.6995078,353.6995078,353.6995078,353.6995078,353.6995078,353.6995078,353.6995078,,006,P019,2025_Mar_21_1026,ConditionRich,2021.2.3,59.94639593262387,
324.0,327.75,39,0.75,Stimuli/P019/things_wire_10s.jpg,0,0,0.0,0,140,140,140,,,,,,,,,,,,,324.0024107999998,0.002410799999779556,None,353.9330396999994,353.9330396999994,353.9330396999994,353.9330396999994,353.9330396999994,353.9330396999994,353.9330396999994,353.9330396999994,353.9330396999994,353.9330396999994,,006,P019,2025_Mar_21_1026,ConditionRich,2021.2.3,59.94639593262387,
327.75,328.0,41,0.0,Stimuli/Blank.png,0,0,0.0,0,141,141,141,,,,,,,,,,,,,327.75570060000064,0.0057006000006367685,None,357.68636419999893,357.68636419999893,357.68636419999893,357.68636419999893,357.68636419999893,357.68636419999893,357.68636419999893,357.68636419999893,357.68636419999893,357.68636419999893,,006,P019,2025_Mar_21_1026,ConditionRich,2021.2.3,59.94639593262387,
328.0,331.75,11,0.75,Stimuli/P019/sun_bcbfjkoziukwmdkd.jpg,0,0,0.0,0,142,142,142,,,,,,,,,,,,,328.0055680000005,0.005568000000494067,None,357.93657489999896,357.93657489999896,357.93657489999896,357.93657489999896,357.93657489999896,357.93657489999896,357.93657489999896,357.93657489999896,357.93657489999896,357.93657489999896,,006,P019,2025_Mar_21_1026,ConditionRich,2021.2.3,59.94639593262387,
331.75,332.0,41,0.0,Stimuli/Blank.png,0,0,0.0,0,143,143,143,,,,,,,,,,,,,331.7599160999998,0.009916099999827566,None,361.68992459999936,361.68992459999936,361.68992459999936,361.68992459999936,361.68992459999936,361.68992459999936,361.68992459999936,361.68992459999936,361.68992459999936,361.68992459999936,,006,P019,2025_Mar_21_1026,ConditionRich,2021.2.3,59.94639593262387,
332.0,335.75,23,0.75,Stimuli/P019/things_boy_10s.jpg,0,0,0.0,0,144,144,144,,,,,,,,,,,,,332.01046040000074,0.010460400000738446,None,361.95679740000014,361.95679740000014,361.95679740000014,361.95679740000014,361.95679740000014,361.95679740000014,361.95679740000014,361.95679740000014,361.95679740000014,361.95679740000014,,006,P019,2025_Mar_21_1026,ConditionRich,2021.2.3,59.94639593262387,
335.75,336.0,41,0.0,Stimuli/Blank.png,0,0,0.0,0,145,145,145,,,,,,,,,,,,,335.78008650000083,0.03008650000083435,None,365.7101191999991,365.7101191999991,365.7101191999991,365.7101191999991,365.7101191999991,365.7101191999991,365.7101191999991,365.7101191999991,365.7101191999991,365.7101191999991,,006,P019,2025_Mar_21_1026,ConditionRich,2021.2.3,59.94639593262387,
336.0,339.75,22,0.75,Stimuli/P019/things_bead_10s.jpg,0,0,0.0,0,146,146,146,,,,,,,,,,,,,336.0123461000003,0.012346100000286242,None,365.9436549999991,365.9436549999991,365.9436549999991,365.9436549999991,365.9436549999991,365.9436549999991,365.9436549999991,365.9436549999991,365.9436549999991,365.9436549999991,,006,P019,2025_Mar_21_1026,ConditionRich,2021.2.3,59.94639593262387,
339.75,340.0,41,0.0,Stimuli/Blank.png,0,0,0.0,0,147,147,147,,,,,,,,,,,,,339.7498716000009,-0.0001283999990846496,None,369.680293899999,369.680293899999,369.680293899999,369.680293899999,369.680293899999,369.680293899999,369.680293899999,369.680293899999,369.680293899999,369.680293899999,,006,P019,2025_Mar_21_1026,ConditionRich,2021.2.3,59.94639593262387,
340.0,343.75,16,0.75,Stimuli/P019/sun_blfpbbfyzmewzplm.jpg,1,3,3.75,0,148,148,148,,,,,,,,,,,,,340.00065540000105,0.0006554000010510208,1,369.94732750000003,369.94732750000003,369.94732750000003,369.94732750000003,369.94732750000003,369.94732750000003,372.91648499999974,373.66717900000003,369.94732750000003,369.94732750000003,3.4210277999991376,006,P019,2025_Mar_21_1026,ConditionRich,2021.2.3,59.94639593262387,
343.75,344.0,41,0.0,Stimuli/Blank.png,0,0,0.0,0,149,149,149,,,,,,,,,,,,,343.77069719999963,0.020697199999631266,None,373.700521499999,373.700521499999,373.700521499999,373.700521499999,373.700521499999,373.700521499999,373.700521499999,373.700521499999,373.700521499999,373.700521499999,,006,P019,2025_Mar_21_1026,ConditionRich,2021.2.3,59.94639593262387,
344.0,347.75,27,0.75,Stimuli/P019/things_eel_10s.jpg,1,3,3.75,0,150,150,150,,,,,,,,,,,,,344.00369740000133,0.0036974000013287878,1,373.9340444999998,373.9340444999998,373.9340444999998,373.9340444999998,373.9340444999998,373.9340444999998,376.9200163000005,377.6706780000004,373.9340444999998,373.9340444999998,3.46006110000053,006,P019,2025_Mar_21_1026,ConditionRich,2021.2.3,59.94639593262387,
347.75,348.0,41,0.0,Stimuli/Blank.png,0,0,0.0,0,151,151,151,,,,,,,,,,,,,347.7567463000014,0.006746300001395866,None,377.6873624,377.6873624,377.6873624,377.6873624,377.6873624,377.6873624,377.6873624,377.6873624,377.6873624,377.6873624,,006,P019,2025_Mar_21_1026,ConditionRich,2021.2.3,59.94639593262387,
348.0,351.75,10,0.75,Stimuli/P019/sun_bblqhrudkospnbbv.jpg,0,0,0.0,0,152,152,152,,,,,,,,,,,,,348.0068123000001,0.006812300000092364,None,377.93757689999984,377.93757689999984,377.93757689999984,377.93757689999984,377.93757689999984,377.93757689999984,377.93757689999984,377.93757689999984,377.93757689999984,377.93757689999984,,006,P019,2025_Mar_21_1026,ConditionRich,2021.2.3,59.94639593262387,
351.75,352.0,41,0.0,Stimuli/Blank.png,0,0,0.0,0,153,153,153,,,,,,,,,,,,,351.76084919999994,0.010849199999938719,None,381.69090589999905,381.69090589999905,381.69090589999905,381.69090589999905,381.69090589999905,381.69090589999905,381.69090589999905,381.69090589999905,381.69090589999905,381.69090589999905,,006,P019,2025_Mar_21_1026,ConditionRich,2021.2.3,59.94639593262387,
352.0,355.75,25,0.75,Stimuli/P019/things_chime_10s.jpg,0,0,0.0,0,154,154,154,,,,,,,,,,,,,352.0104895000004,0.010489500000403496,None,381.95782119999967,381.95782119999967,381.95782119999967,381.95782119999967,381.95782119999967,381.95782119999967,381.95782119999967,381.95782119999967,381.95782119999967,381.95782119999967,,006,P019,2025_Mar_21_1026,ConditionRich,2021.2.3,59.94639593262387,
355.75,356.0,41,0.0,Stimuli/Blank.png,0,0,0.0,0,155,155,155,,,,,,,,,,,,,355.7807786000012,0.030778600001212908,None,385.7278342999998,385.7278342999998,385.7278342999998,385.7278342999998,385.7278342999998,385.7278342999998,385.7278342999998,385.7278342999998,385.7278342999998,385.7278342999998,,006,P019,2025_Mar_21_1026,ConditionRich,2021.2.3,59.94639593262387,
356.0,359.75,5,0.75,Stimuli/P019/sun_amjqxnqvhovkotym.jpg,1,0,0.75,0,156,156,156,,,,,,,,,,,,,356.0317074000013,0.03170740000132355,1,385.9780257000002,385.9780257000002,385.9780257000002,385.9780257000002,385.9780257000002,385.9780257000002,385.9780257000002,386.69531970000025,385.9780257000002,385.9780257000002,0.548218399999314,006,P019,2025_Mar_21_1026,ConditionRich,2021.2.3,59.94639593262387,
359.75,360.0,41,0.0,Stimuli/Blank.png,0,0,0.0,0,157,157,157,,,,,,,,,,,,,359.76724230000036,0.017242300000361865,None,389.69796999999926,389.69796999999926,389.69796999999926,389.69796999999926,389.69796999999926,389.69796999999926,389.69796999999926,389.69796999999926,389.69796999999926,389.69796999999926,,006,P019,2025_Mar_21_1026,ConditionRich,2021.2.3,59.94639593262387,
360.0,363.75,9,0.75,Stimuli/P019/sun_bbfmuujfvpiaqdww.jpg,0,0,0.0,0,158,158,158,,,,,,,,,,,,,360.00117390000014,0.001173900000139838,None,389.9315139999999,389.9315139999999,389.9315139999999,389.9315139999999,389.9315139999999,389.9315139999999,389.9315139999999,389.9315139999999,389.9315139999999,389.9315139999999,,006,P019,2025_Mar_21_1026,ConditionRich,2021.2.3,59.94639593262387,
363.75,364.0,41,0.0,Stimuli/Blank.png,0,0,0.0,0,159,159,159,,,,,,,,,,,,,363.7554465000012,0.005446500001198729,None,393.7015479999991,393.7015479999991,393.7015479999991,393.7015479999991,393.7015479999991,393.7015479999991,393.7015479999991,393.7015479999991,393.7015479999991,393.7015479999991,,006,P019,2025_Mar_21_1026,ConditionRich,2021.2.3,59.94639593262387,
364.0,367.75,37,0.75,Stimuli/P019/things_toaster_10s.jpg,1,0,0.75,0,160,160,160,,,,,,,,,,,,,364.0211857000013,0.021185700001296937,None,393.95172900000034,393.95172900000034,393.95172900000034,393.95172900000034,393.95172900000034,393.95172900000034,393.95172900000034,394.6857060000002,393.95172900000034,393.95172900000034,,006,P019,2025_Mar_21_1026,ConditionRich,2021.2.3,59.94639593262387,
367.75,368.0,41,0.0,Stimuli/Blank.png,0,0,0.0,0,161,161,161,,,,,,,,,,,,,367.75988700000016,0.009887000000162516,None,397.70505559999947,397.70505559999947,397.70505559999947,397.70505559999947,397.70505559999947,397.70505559999947,397.70505559999947,397.70505559999947,397.70505559999947,397.70505559999947,,006,P019,2025_Mar_21_1026,ConditionRich,2021.2.3,59.94639593262387,
368.0,371.75,36,0.75,Stimuli/P019/things_sunroof_10s.jpg,0,0,0.0,0,162,162,162,,,,,,,,,,,,,368.0249158000006,0.02491580000059912,None,397.9552642999988,397.9552642999988,397.9552642999988,397.9552642999988,397.9552642999988,397.9552642999988,397.9552642999988,397.9552642999988,397.9552642999988,397.9552642999988,,006,P019,2025_Mar_21_1026,ConditionRich,2021.2.3,59.94639593262387,
371.75,372.0,41,0.0,Stimuli/Blank.png,0,0,0.0,0,163,163,163,,,,,,,,,,,,,371.76055310000083,0.010553100000834092,None,401.69189969999934,401.69189969999934,401.69189969999934,401.69189969999934,401.69189969999934,401.69189969999934,401.69189969999934,401.69189969999934,401.69189969999934,401.69189969999934,,006,P019,2025_Mar_21_1026,ConditionRich,2021.2.3,59.94639593262387,
372.0,388.0,0,0.0,Stimuli/Blank.png,1,1,1.75,0,164,164,164,,,,,,,,,,,,,372.01137610000114,0.01137610000114364,1,401.94212530000004,401.94212530000004,401.94212530000004,401.94212530000004,401.94212530000004,401.94212530000004,402.9263281000003,403.6770285999992,401.94212530000004,401.94212530000004,1.5259779000007256,006,P019,2025_Mar_21_1026,ConditionRich,2021.2.3,59.94639593262387,
