eventStartTime,eventEndTime,eventCond,imSize,imFile,responseEvent,fixRespStart,fixRespEnd,Events.thisRepN,Events.thisTrialN,Events.thisN,Events.thisIndex,Instructions.started,Instructions.stopped,participantReadyResponse.keys,participantReadyResponse.rt,participantReadyResponse.started,participantReadyResponse.stopped,startWaitforTrigger,triggerResponse.keys,triggerResponse.rt,triggerResponse.started,triggerResponse.stopped,globalTimer,actualStartTime,startTimingDiff,participantResponse.keys,participantResponse.started,participantResponse.stopped,image.started,image.stopped,fixationOutside.started,fixationOutside.stopped,fixationResponse.started,fixationResponse.stopped,fixationInside.started,fixationInside.stopped,participantResponse.rt,session,participant,date,expName,psychopyVersion,frameRate,
,,,,,,,,,,,,9.95999109999957,None,1,13.253436699999838,9.95999109999957,None,,,,,,,,,,,,,,,,,,,,,001,P019,2025_Mar_21_0940,ConditionRich,2021.2.3,59.94294630377987,
,,,,,,,,,,,,,,,,,,23.219295699999748,5,13.448215500000515,23.23230169999988,None,,,,,,,,,,,,,,,,001,P019,2025_Mar_21_0940,ConditionRich,2021.2.3,59.94294630377987,
0.0,4.0,0,0.0,Stimuli/Blank.png,0,0.0,0.0,0,0,0,0,,,,,,,,,,,,36.696891999999934,0.10078499999963242,0.10078499999963242,None,36.81099479999921,None,36.81099479999921,None,36.81099479999921,None,36.81099479999921,36.81099479999921,36.81099479999921,None,,001,P019,2025_Mar_21_0940,ConditionRich,2021.2.3,59.94294630377987,
4.0,4.75,18,0.75,Stimuli/P019/sun_bodjbrgwzlshgypq.jpg,0,0.0,0.0,0,1,1,1,,,,,,,,,,,,,4.0047811000004,0.004781100000400329,None,40.748045999999704,40.748045999999704,40.748045999999704,40.748045999999704,40.748045999999704,40.748045999999704,40.748045999999704,40.748045999999704,40.748045999999704,40.748045999999704,,001,P019,2025_Mar_21_0940,ConditionRich,2021.2.3,59.94294630377987,
4.75,8.0,41,0.0,Stimuli/Blank.png,0,0.0,0.0,0,2,2,2,,,,,,,,,,,,,4.787421900000481,0.0374219000004814,None,41.498689599999125,41.498689599999125,41.498689599999125,41.498689599999125,41.498689599999125,41.498689599999125,41.498689599999125,41.498689599999125,41.498689599999125,41.498689599999125,,001,P019,2025_Mar_21_0940,ConditionRich,2021.2.3,59.94294630377987,
8.0,8.75,28,0.75,Stimuli/P019/things_face_10s.jpg,1,0.0,0.75,0,3,3,3,,,,,,,,,,,,,8.010436000000482,0.010436000000481727,None,44.75138069999957,44.75138069999957,44.75138069999957,44.75138069999957,44.75138069999957,44.75138069999957,44.75138069999957,45.48536399999921,44.75138069999957,44.75138069999957,,001,P019,2025_Mar_21_0940,ConditionRich,2021.2.3,59.94294630377987,
8.75,12.0,41,0.0,Stimuli/Blank.png,0,0.0,0.0,0,4,4,4,,,,,,,,,,,,,8.791339600000356,0.04133960000035586,1,45.50201519999973,45.50201519999973,45.50201519999973,45.50201519999973,45.50201519999973,45.50201519999973,45.50201519999973,45.50201519999973,45.50201519999973,45.50201519999973,0.12264810000033322,001,P019,2025_Mar_21_0940,ConditionRich,2021.2.3,59.94294630377987,
12.0,12.75,8,0.75,Stimuli/P019/sun_avbzvunekksfggon.jpg,0,0.0,0.0,0,5,5,5,,,,,,,,,,,,,12.010212700000011,0.010212700000010955,None,48.72150479999982,48.72150479999982,48.72150479999982,48.72150479999982,48.72150479999982,48.72150479999982,48.72150479999982,48.72150479999982,48.72150479999982,48.72150479999982,,001,P019,2025_Mar_21_0940,ConditionRich,2021.2.3,59.94294630377987,
12.75,16.0,41,0.0,Stimuli/Blank.png,0,0.0,0.0,0,6,6,6,,,,,,,,,,,,,12.762356700000055,0.012356700000054843,None,49.47220709999965,49.47220709999965,49.47220709999965,49.47220709999965,49.47220709999965,49.47220709999965,49.47220709999965,49.47220709999965,49.47220709999965,49.47220709999965,,001,P019,2025_Mar_21_0940,ConditionRich,2021.2.3,59.94294630377987,
16.0,16.75,34,0.75,Stimuli/P019/things_man_10s.jpg,0,0.0,0.0,0,7,7,7,,,,,,,,,,,,,16.013797200000226,0.01379720000022644,None,52.725049699999545,52.725049699999545,52.725049699999545,52.725049699999545,52.725049699999545,52.725049699999545,52.725049699999545,52.725049699999545,52.725049699999545,52.725049699999545,,001,P019,2025_Mar_21_0940,ConditionRich,2021.2.3,59.94294630377987,
16.75,20.0,41,0.0,Stimuli/Blank.png,0,0.0,0.0,0,8,8,8,,,,,,,,,,,,,16.764784199999667,0.01478419999966718,None,53.475703899999644,53.475703899999644,53.475703899999644,53.475703899999644,53.475703899999644,53.475703899999644,53.475703899999644,53.475703899999644,53.475703899999644,53.475703899999644,,001,P019,2025_Mar_21_0940,ConditionRich,2021.2.3,59.94294630377987,
20.0,20.75,20,0.75,Stimuli/P019/sun_dlnwonqxagdvtlta.jpg,0,0.0,0.0,0,9,9,9,,,,,,,,,,,,,20.001937199999702,0.0019371999997019884,None,56.72860439999931,56.72860439999931,56.72860439999931,56.72860439999931,56.72860439999931,56.72860439999931,56.72860439999931,56.72860439999931,56.72860439999931,56.72860439999931,,001,P019,2025_Mar_21_0940,ConditionRich,2021.2.3,59.94294630377987,
20.75,24.0,41,0.0,Stimuli/Blank.png,0,0.0,0.0,0,10,10,10,,,,,,,,,,,,,20.76873069999965,0.018730699999650824,None,57.47925269999996,57.47925269999996,57.47925269999996,57.47925269999996,57.47925269999996,57.47925269999996,57.47925269999996,57.47925269999996,57.47925269999996,57.47925269999996,,001,P019,2025_Mar_21_0940,ConditionRich,2021.2.3,59.94294630377987,
24.0,24.75,35,0.75,Stimuli/P019/things_pretzel_10s.jpg,1,0.0,0.75,0,11,11,11,,,,,,,,,,,,,24.004942200000187,0.004942200000186858,1,60.748800099999244,60.748800099999244,60.748800099999244,60.748800099999244,60.748800099999244,60.748800099999244,60.748800099999244,61.46610789999977,60.748800099999244,60.748800099999244,0.6376324000002569,001,P019,2025_Mar_21_0940,ConditionRich,2021.2.3,59.94294630377987,
24.75,28.0,41,0.0,Stimuli/Blank.png,0,0.0,0.0,0,12,12,12,,,,,,,,,,,,,24.788818300000457,0.038818300000457384,None,61.499465699999746,61.499465699999746,61.499465699999746,61.499465699999746,61.499465699999746,61.499465699999746,61.499465699999746,61.499465699999746,61.499465699999746,61.499465699999746,,001,P019,2025_Mar_21_0940,ConditionRich,2021.2.3,59.94294630377987,
28.0,28.75,32,0.75,Stimuli/P019/things_girl_10s.jpg,0,0.0,0.0,0,13,13,13,,,,,,,,,,,,,28.008779400000094,0.008779400000094029,None,64.73568199999954,64.73568199999954,64.73568199999954,64.73568199999954,64.73568199999954,64.73568199999954,64.73568199999954,64.73568199999954,64.73568199999954,64.73568199999954,,001,P019,2025_Mar_21_0940,ConditionRich,2021.2.3,59.94294630377987,
28.75,32.0,41,0.0,Stimuli/Blank.png,0,0.0,0.0,0,14,14,14,,,,,,,,,,,,,28.775351299999784,0.025351299999783805,None,65.4863166999994,65.4863166999994,65.4863166999994,65.4863166999994,65.4863166999994,65.4863166999994,65.4863166999994,65.4863166999994,65.4863166999994,65.4863166999994,,001,P019,2025_Mar_21_0940,ConditionRich,2021.2.3,59.94294630377987,
32.0,32.75,24,0.75,Stimuli/P019/things_bulletin_board_10s.jpg,0,0.0,0.0,0,15,15,15,,,,,,,,,,,,,32.01167069999974,0.011670699999740464,None,68.73920569999973,68.73920569999973,68.73920569999973,68.73920569999973,68.73920569999973,68.73920569999973,68.73920569999973,68.73920569999973,68.73920569999973,68.73920569999973,,001,P019,2025_Mar_21_0940,ConditionRich,2021.2.3,59.94294630377987,
32.75,36.0,41,0.0,Stimuli/Blank.png,0,0.0,0.0,0,16,16,16,,,,,,,,,,,,,32.77831369999967,0.02831369999967137,None,69.4898519999997,69.4898519999997,69.4898519999997,69.4898519999997,69.4898519999997,69.4898519999997,69.4898519999997,69.4898519999997,69.4898519999997,69.4898519999997,,001,P019,2025_Mar_21_0940,ConditionRich,2021.2.3,59.94294630377987,
36.0,36.75,4,0.75,Stimuli/P019/sun_amixpbnrxiulfsri.jpg,1,0.0,0.75,0,17,17,17,,,,,,,,,,,,,36.014627600000495,0.014627600000494567,1,72.72604479999973,72.72604479999973,72.72604479999973,72.72604479999973,72.72604479999973,72.72604479999973,72.72604479999973,73.46002409999983,72.72604479999973,72.72604479999973,0.4924797999992734,001,P019,2025_Mar_21_0940,ConditionRich,2021.2.3,59.94294630377987,
36.75,40.0,41,0.0,Stimuli/Blank.png,0,0.0,0.0,0,18,18,18,,,,,,,,,,,,,36.76580540000032,0.015805400000317604,None,73.49341299999924,73.49341299999924,73.49341299999924,73.49341299999924,73.49341299999924,73.49341299999924,73.49341299999924,73.49341299999924,73.49341299999924,73.49341299999924,,001,P019,2025_Mar_21_0940,ConditionRich,2021.2.3,59.94294630377987,
40.0,40.75,27,0.75,Stimuli/P019/things_eel_10s.jpg,0,0.0,0.0,0,19,19,19,,,,,,,,,,,,,40.018493800000215,0.018493800000214833,None,76.72957639999913,76.72957639999913,76.72957639999913,76.72957639999913,76.72957639999913,76.72957639999913,76.72957639999913,76.72957639999913,76.72957639999913,76.72957639999913,,001,P019,2025_Mar_21_0940,ConditionRich,2021.2.3,59.94294630377987,
40.75,44.0,41,0.0,Stimuli/Blank.png,0,0.0,0.0,0,20,20,20,,,,,,,,,,,,,40.75213330000042,0.0021333000004233327,None,77.46358639999926,77.46358639999926,77.46358639999926,77.46358639999926,77.46358639999926,77.46358639999926,77.46358639999926,77.46358639999926,77.46358639999926,77.46358639999926,,001,P019,2025_Mar_21_0940,ConditionRich,2021.2.3,59.94294630377987,
44.0,44.75,1,0.75,Stimuli/P019/sun_aaaidwecchadbake.jpg,0,0.0,0.0,0,21,21,21,,,,,,,,,,,,,44.00520770000003,0.005207700000028126,None,80.73313029999917,80.73313029999917,80.73313029999917,80.73313029999917,80.73313029999917,80.73313029999917,80.73313029999917,80.73313029999917,80.73313029999917,80.73313029999917,,001,P019,2025_Mar_21_0940,ConditionRich,2021.2.3,59.94294630377987,
44.75,48.0,41,0.0,Stimuli/Blank.png,0,0.0,0.0,0,22,22,22,,,,,,,,,,,,,44.77227920000041,0.022279200000411947,None,81.48378259999936,81.48378259999936,81.48378259999936,81.48378259999936,81.48378259999936,81.48378259999936,81.48378259999936,81.48378259999936,81.48378259999936,81.48378259999936,,001,P019,2025_Mar_21_0940,ConditionRich,2021.2.3,59.94294630377987,
48.0,48.75,40,0.75,Stimuli/P019/things_woman_10s.jpg,0,0.0,0.0,0,23,23,23,,,,,,,,,,,,,48.008470300000226,0.008470300000226416,None,84.73667529999966,84.73667529999966,84.73667529999966,84.73667529999966,84.73667529999966,84.73667529999966,84.73667529999966,84.73667529999966,84.73667529999966,84.73667529999966,,001,P019,2025_Mar_21_0940,ConditionRich,2021.2.3,59.94294630377987,
48.75,52.0,41,0.0,Stimuli/Blank.png,1,2.25,3.0,0,24,24,24,,,,,,,,,,,,,48.777830600000016,0.027830600000015693,1,85.50398789999963,85.50398789999963,85.50398789999963,85.50398789999963,85.50398789999963,85.50398789999963,87.73929509999925,88.48995379999997,85.50398789999963,85.50398789999963,2.6555443999995987,001,P019,2025_Mar_21_0940,ConditionRich,2021.2.3,59.94294630377987,
52.0,52.75,23,0.75,Stimuli/P019/things_boy_10s.jpg,0,0.0,0.0,0,25,25,25,,,,,,,,,,,,,52.02870020000046,0.0287002000004577,None,88.74018239999987,88.74018239999987,88.74018239999987,88.74018239999987,88.74018239999987,88.74018239999987,88.74018239999987,88.74018239999987,88.74018239999987,88.74018239999987,,001,P019,2025_Mar_21_0940,ConditionRich,2021.2.3,59.94294630377987,
52.75,56.0,41,0.0,Stimuli/Blank.png,0,0.0,0.0,0,26,26,26,,,,,,,,,,,,,52.76266260000011,0.012662600000112434,None,89.47416449999946,89.47416449999946,89.47416449999946,89.47416449999946,89.47416449999946,89.47416449999946,89.47416449999946,89.47416449999946,89.47416449999946,89.47416449999946,,001,P019,2025_Mar_21_0940,ConditionRich,2021.2.3,59.94294630377987,
56.0,56.75,6,0.75,Stimuli/P019/sun_amppcthpabgulbwl.jpg,0,0.0,0.0,0,27,27,27,,,,,,,,,,,,,56.016692299999704,0.01669229999970412,None,92.74372079999921,92.74372079999921,92.74372079999921,92.74372079999921,92.74372079999921,92.74372079999921,92.74372079999921,92.74372079999921,92.74372079999921,92.74372079999921,,001,P019,2025_Mar_21_0940,ConditionRich,2021.2.3,59.94294630377987,
56.75,60.0,41,0.0,Stimuli/Blank.png,0,0.0,0.0,0,28,28,28,,,,,,,,,,,,,56.76741940000011,0.017419400000108,None,93.47770479999963,93.47770479999963,93.47770479999963,93.47770479999963,93.47770479999963,93.47770479999963,93.47770479999963,93.47770479999963,93.47770479999963,93.47770479999963,,001,P019,2025_Mar_21_0940,ConditionRich,2021.2.3,59.94294630377987,
60.0,60.75,16,0.75,Stimuli/P019/sun_blfpbbfyzmewzplm.jpg,0,0.0,0.0,0,29,29,29,,,,,,,,,,,,,60.00235969999994,0.002359699999942677,None,96.74725789999957,96.74725789999957,96.74725789999957,96.74725789999957,96.74725789999957,96.74725789999957,96.74725789999957,96.74725789999957,96.74725789999957,96.74725789999957,,001,P019,2025_Mar_21_0940,ConditionRich,2021.2.3,59.94294630377987,
60.75,64.0,41,0.0,Stimuli/Blank.png,0,0.0,0.0,0,30,30,30,,,,,,,,,,,,,60.78842470000018,0.038424700000177836,None,97.51460199999929,97.51460199999929,97.51460199999929,97.51460199999929,97.51460199999929,97.51460199999929,97.51460199999929,97.51460199999929,97.51460199999929,97.51460199999929,,001,P019,2025_Mar_21_0940,ConditionRich,2021.2.3,59.94294630377987,
64.0,64.75,26,0.75,Stimuli/P019/things_earwig_10n.jpg,0,0.0,0.0,0,31,31,31,,,,,,,,,,,,,64.02332569999999,0.023325699999986682,None,100.75081539999974,100.75081539999974,100.75081539999974,100.75081539999974,100.75081539999974,100.75081539999974,100.75081539999974,100.75081539999974,100.75081539999974,100.75081539999974,,001,P019,2025_Mar_21_0940,ConditionRich,2021.2.3,59.94294630377987,
64.75,68.0,41,0.0,Stimuli/Blank.png,1,0.25,1.0,0,32,32,32,,,,,,,,,,,,,64.77413929999966,0.02413929999966058,1,101.50145659999998,101.50145659999998,101.50145659999998,101.50145659999998,101.50145659999998,101.50145659999998,101.71830619999946,102.46896409999954,101.50145659999998,101.50145659999998,0.8450861000001169,001,P019,2025_Mar_21_0940,ConditionRich,2021.2.3,59.94294630377987,
68.0,68.75,9,0.75,Stimuli/P019/sun_bbfmuujfvpiaqdww.jpg,0,0.0,0.0,0,33,33,33,,,,,,,,,,,,,68.02920900000026,0.029209000000264496,None,104.75433169999997,104.75433169999997,104.75433169999997,104.75433169999997,104.75433169999997,104.75433169999997,104.75433169999997,104.75433169999997,104.75433169999997,104.75433169999997,,001,P019,2025_Mar_21_0940,ConditionRich,2021.2.3,59.94294630377987,
68.75,72.0,41,0.0,Stimuli/Blank.png,0,0.0,0.0,0,34,34,34,,,,,,,,,,,,,68.77761900000041,0.027619000000413507,None,105.48830959999941,105.48830959999941,105.48830959999941,105.48830959999941,105.48830959999941,105.48830959999941,105.48830959999941,105.48830959999941,105.48830959999941,105.48830959999941,,001,P019,2025_Mar_21_0940,ConditionRich,2021.2.3,59.94294630377987,
72.0,72.75,10,0.75,Stimuli/P019/sun_bblqhrudkospnbbv.jpg,0,0.0,0.0,0,35,35,35,,,,,,,,,,,,,72.01414159999968,0.014141599999675236,None,108.74119089999931,108.74119089999931,108.74119089999931,108.74119089999931,108.74119089999931,108.74119089999931,108.74119089999931,108.74119089999931,108.74119089999931,108.74119089999931,,001,P019,2025_Mar_21_0940,ConditionRich,2021.2.3,59.94294630377987,
72.75,76.0,41,0.0,Stimuli/Blank.png,0,0.0,0.0,0,36,36,36,,,,,,,,,,,,,72.78304070000013,0.03304070000012871,None,109.5085326999997,109.5085326999997,109.5085326999997,109.5085326999997,109.5085326999997,109.5085326999997,109.5085326999997,109.5085326999997,109.5085326999997,109.5085326999997,,001,P019,2025_Mar_21_0940,ConditionRich,2021.2.3,59.94294630377987,
76.0,76.75,37,0.75,Stimuli/P019/things_toaster_10s.jpg,0,0.0,0.0,0,37,37,37,,,,,,,,,,,,,76.0172048000004,0.0172048000003997,None,112.74472129999958,112.74472129999958,112.74472129999958,112.74472129999958,112.74472129999958,112.74472129999958,112.74472129999958,112.74472129999958,112.74472129999958,112.74472129999958,,001,P019,2025_Mar_21_0940,ConditionRich,2021.2.3,59.94294630377987,
76.75,80.0,41,0.0,Stimuli/Blank.png,0,0.0,0.0,0,38,38,38,,,,,,,,,,,,,76.76780719999988,0.01780719999987923,None,113.47870339999918,113.47870339999918,113.47870339999918,113.47870339999918,113.47870339999918,113.47870339999918,113.47870339999918,113.47870339999918,113.47870339999918,113.47870339999918,,001,P019,2025_Mar_21_0940,ConditionRich,2021.2.3,59.94294630377987,
80.0,80.75,3,0.75,Stimuli/P019/sun_aknrkswonrogcooi.jpg,0,0.0,0.0,0,39,39,39,,,,,,,,,,,,,80.00351880000017,0.0035188000001653563,None,116.73160339999959,116.73160339999959,116.73160339999959,116.73160339999959,116.73160339999959,116.73160339999959,116.73160339999959,116.73160339999959,116.73160339999959,116.73160339999959,,001,P019,2025_Mar_21_0940,ConditionRich,2021.2.3,59.94294630377987,
80.75,84.0,41,0.0,Stimuli/Blank.png,0,0.0,0.0,0,40,40,40,,,,,,,,,,,,,80.77296790000037,0.02296790000036708,None,117.49892489999911,117.49892489999911,117.49892489999911,117.49892489999911,117.49892489999911,117.49892489999911,117.49892489999911,117.49892489999911,117.49892489999911,117.49892489999911,,001,P019,2025_Mar_21_0940,ConditionRich,2021.2.3,59.94294630377987,
84.0,100.0,0,0.0,Stimuli/Blank.png,1,5.0,5.75,0,41,41,41,,,,,,,,,,,,,84.02370530000007,0.023705300000074203,1,120.73509269999977,120.73509269999977,120.73509269999977,120.73509269999977,120.73509269999977,120.73509269999977,125.72286039999926,126.4734987999991,120.73509269999977,120.73509269999977,5.4713307000001805,001,P019,2025_Mar_21_0940,ConditionRich,2021.2.3,59.94294630377987,
100.0,100.75,31,0.75,Stimuli/P019/things_fudge_10s.jpg,0,0.0,0.0,0,42,42,42,,,,,,,,,,,,,100.00558770000043,0.00558770000043296,None,136.73257999999987,136.73257999999987,136.73257999999987,136.73257999999987,136.73257999999987,136.73257999999987,136.73257999999987,136.73257999999987,136.73257999999987,136.73257999999987,,001,P019,2025_Mar_21_0940,ConditionRich,2021.2.3,59.94294630377987,
100.75,104.0,41,0.0,Stimuli/Blank.png,0,0.0,0.0,0,43,43,43,,,,,,,,,,,,,100.77194589999999,0.021945899999991525,None,137.48322149999967,137.48322149999967,137.48322149999967,137.48322149999967,137.48322149999967,137.48322149999967,137.48322149999967,137.48322149999967,137.48322149999967,137.48322149999967,,001,P019,2025_Mar_21_0940,ConditionRich,2021.2.3,59.94294630377987,
104.0,104.75,21,0.75,Stimuli/P019/things_anteater_10s.jpg,0,0.0,0.0,0,44,44,44,,,,,,,,,,,,,104.00804450000032,0.008044500000323751,None,140.73611399999936,140.73611399999936,140.73611399999936,140.73611399999936,140.73611399999936,140.73611399999936,140.73611399999936,140.73611399999936,140.73611399999936,140.73611399999936,,001,P019,2025_Mar_21_0940,ConditionRich,2021.2.3,59.94294630377987,
104.75,108.0,41,0.0,Stimuli/Blank.png,0,0.0,0.0,0,45,45,45,,,,,,,,,,,,,104.77579340000011,0.025793400000111433,None,141.48687569999947,141.48687569999947,141.48687569999947,141.48687569999947,141.48687569999947,141.48687569999947,141.48687569999947,141.48687569999947,141.48687569999947,141.48687569999947,,001,P019,2025_Mar_21_0940,ConditionRich,2021.2.3,59.94294630377987,
108.0,108.75,15,0.75,Stimuli/P019/sun_bkubdnohuakmwcaj.jpg,0,0.0,0.0,0,46,46,46,,,,,,,,,,,,,108.0120551,0.012055099999997765,None,144.75632169999972,144.75632169999972,144.75632169999972,144.75632169999972,144.75632169999972,144.75632169999972,144.75632169999972,144.75632169999972,144.75632169999972,144.75632169999972,,001,P019,2025_Mar_21_0940,ConditionRich,2021.2.3,59.94294630377987,
108.75,112.0,41,0.0,Stimuli/Blank.png,0,0.0,0.0,0,47,47,47,,,,,,,,,,,,,108.79655569999977,0.046555699999771605,None,145.50699179999992,145.50699179999992,145.50699179999992,145.50699179999992,145.50699179999992,145.50699179999992,145.50699179999992,145.50699179999992,145.50699179999992,145.50699179999992,,001,P019,2025_Mar_21_0940,ConditionRich,2021.2.3,59.94294630377987,
112.0,112.75,2,0.75,Stimuli/P019/sun_ajhvfwzgpfovdgid.jpg,0,0.0,0.0,0,48,48,48,,,,,,,,,,,,,111.99826399999984,-0.0017360000001644948,None,148.74318889999995,148.74318889999995,148.74318889999995,148.74318889999995,148.74318889999995,148.74318889999995,148.74318889999995,148.74318889999995,148.74318889999995,148.74318889999995,,001,P019,2025_Mar_21_0940,ConditionRich,2021.2.3,59.94294630377987,
112.75,116.0,41,0.0,Stimuli/Blank.png,1,2.25,3.0,0,49,49,49,,,,,,,,,,,,,112.79909099999986,0.049090999999862106,1,149.51048619999983,149.51048619999983,149.51048619999983,149.51048619999983,149.51048619999983,149.51048619999983,151.74584869999944,152.49651419999918,149.51048619999983,149.51048619999983,2.774806499999613,001,P019,2025_Mar_21_0940,ConditionRich,2021.2.3,59.94294630377987,
116.0,116.75,25,0.75,Stimuli/P019/things_chime_10s.jpg,0,0.0,0.0,0,50,50,50,,,,,,,,,,,,,116.00258420000046,0.002584200000455894,None,152.73003789999984,152.73003789999984,152.73003789999984,152.73003789999984,152.73003789999984,152.73003789999984,152.73003789999984,152.73003789999984,152.73003789999984,152.73003789999984,,001,P019,2025_Mar_21_0940,ConditionRich,2021.2.3,59.94294630377987,
116.75,120.0,41,0.0,Stimuli/Blank.png,1,2.25,3.0,0,51,51,51,,,,,,,,,,,,,116.77001569999993,0.020015699999930803,1,153.4806826999993,153.4806826999993,153.4806826999993,153.4806826999993,153.4806826999993,153.4806826999993,155.71600409999974,156.46669379999912,153.4806826999993,153.4806826999993,2.7099576000000525,001,P019,2025_Mar_21_0940,ConditionRich,2021.2.3,59.94294630377987,
120.0,120.75,29,0.75,Stimuli/P019/things_flamingo_10s.jpg,0,0.0,0.0,0,52,52,52,,,,,,,,,,,,,120.00833799999964,0.008337999999639578,None,156.75020179999956,156.75020179999956,156.75020179999956,156.75020179999956,156.75020179999956,156.75020179999956,156.75020179999956,156.75020179999956,156.75020179999956,156.75020179999956,,001,P019,2025_Mar_21_0940,ConditionRich,2021.2.3,59.94294630377987,
120.75,124.0,41,0.0,Stimuli/Blank.png,0,0.0,0.0,0,53,53,53,,,,,,,,,,,,,120.79018220000034,0.04018220000034489,None,157.50089669999943,157.50089669999943,157.50089669999943,157.50089669999943,157.50089669999943,157.50089669999943,157.50089669999943,157.50089669999943,157.50089669999943,157.50089669999943,,001,P019,2025_Mar_21_0940,ConditionRich,2021.2.3,59.94294630377987,
124.0,124.75,7,0.75,Stimuli/P019/sun_aqkbfuonyunmyqxb.jpg,0,0.0,0.0,0,54,54,54,,,,,,,,,,,,,124.0089668999999,0.008966899999904854,None,160.73709569999937,160.73709569999937,160.73709569999937,160.73709569999937,160.73709569999937,160.73709569999937,160.73709569999937,160.73709569999937,160.73709569999937,160.73709569999937,,001,P019,2025_Mar_21_0940,ConditionRich,2021.2.3,59.94294630377987,
124.75,128.0,41,0.0,Stimuli/Blank.png,0,0.0,0.0,0,55,55,55,,,,,,,,,,,,,124.77935960000013,0.029359600000134378,None,161.50443769999947,161.50443769999947,161.50443769999947,161.50443769999947,161.50443769999947,161.50443769999947,161.50443769999947,161.50443769999947,161.50443769999947,161.50443769999947,,001,P019,2025_Mar_21_0940,ConditionRich,2021.2.3,59.94294630377987,
128.0,128.75,39,0.75,Stimuli/P019/things_wire_10s.jpg,0,0.0,0.0,0,56,56,56,,,,,,,,,,,,,128.02964249999968,0.029642499999681604,None,164.77407589999984,164.77407589999984,164.77407589999984,164.77407589999984,164.77407589999984,164.77407589999984,164.77407589999984,164.77407589999984,164.77407589999984,164.77407589999984,,001,P019,2025_Mar_21_0940,ConditionRich,2021.2.3,59.94294630377987,
128.75,132.0,41,0.0,Stimuli/Blank.png,0,0.0,0.0,0,57,57,57,,,,,,,,,,,,,128.79844430000048,0.048444300000483054,None,165.52466809999987,165.52466809999987,165.52466809999987,165.52466809999987,165.52466809999987,165.52466809999987,165.52466809999987,165.52466809999987,165.52466809999987,165.52466809999987,,001,P019,2025_Mar_21_0940,ConditionRich,2021.2.3,59.94294630377987,
132.0,132.75,19,0.75,Stimuli/P019/sun_byssdezaaqnthppd.jpg,0,0.0,0.0,0,58,58,58,,,,,,,,,,,,,132.01888140000028,0.018881400000282156,None,168.7446719999998,168.7446719999998,168.7446719999998,168.7446719999998,168.7446719999998,168.7446719999998,168.7446719999998,168.7446719999998,168.7446719999998,168.7446719999998,,001,P019,2025_Mar_21_0940,ConditionRich,2021.2.3,59.94294630377987,
132.75,136.0,41,0.0,Stimuli/Blank.png,0,0.0,0.0,0,59,59,59,,,,,,,,,,,,,132.76679859999967,0.01679859999967448,None,169.47813939999924,169.47813939999924,169.47813939999924,169.47813939999924,169.47813939999924,169.47813939999924,169.47813939999924,169.47813939999924,169.47813939999924,169.47813939999924,,001,P019,2025_Mar_21_0940,ConditionRich,2021.2.3,59.94294630377987,
136.0,136.75,38,0.75,Stimuli/P019/things_turtle_10n.jpg,0,0.0,0.0,0,60,60,60,,,,,,,,,,,,,136.00283240000044,0.002832400000443158,None,172.71432649999952,172.71432649999952,172.71432649999952,172.71432649999952,172.71432649999952,172.71432649999952,172.71432649999952,172.71432649999952,172.71432649999952,172.71432649999952,,001,P019,2025_Mar_21_0940,ConditionRich,2021.2.3,59.94294630377987,
136.75,140.0,41,0.0,Stimuli/Blank.png,1,1.25,2.0,0,61,61,61,,,,,,,,,,,,,136.75345920000018,0.0034592000001794077,1,173.46499739999945,173.46499739999945,173.46499739999945,173.46499739999945,173.46499739999945,173.46499739999945,174.69941969999945,175.45008039999993,173.46499739999945,173.46499739999945,1.740636500000619,001,P019,2025_Mar_21_0940,ConditionRich,2021.2.3,59.94294630377987,
140.0,140.75,14,0.75,Stimuli/P019/sun_birvagufpcschyrr.jpg,0,0.0,0.0,0,62,62,62,,,,,,,,,,,,,140.0063736000002,0.006373600000188162,None,176.7346022999991,176.7346022999991,176.7346022999991,176.7346022999991,176.7346022999991,176.7346022999991,176.7346022999991,176.7346022999991,176.7346022999991,176.7346022999991,,001,P019,2025_Mar_21_0940,ConditionRich,2021.2.3,59.94294630377987,
140.75,144.0,41,0.0,Stimuli/Blank.png,1,1.25,2.0,0,63,63,63,,,,,,,,,,,,,140.77406419999988,0.024064199999884295,1,177.4852149999997,177.4852149999997,177.4852149999997,177.4852149999997,177.4852149999997,177.4852149999997,178.71969339999941,179.47035549999964,177.4852149999997,177.4852149999997,1.915109499999744,001,P019,2025_Mar_21_0940,ConditionRich,2021.2.3,59.94294630377987,
144.0,144.75,22,0.75,Stimuli/P019/things_bead_10s.jpg,0,0.0,0.0,0,64,64,64,,,,,,,,,,,,,144.0104634999998,0.010463499999787018,None,180.73810329999924,180.73810329999924,180.73810329999924,180.73810329999924,180.73810329999924,180.73810329999924,180.73810329999924,180.73810329999924,180.73810329999924,180.73810329999924,,001,P019,2025_Mar_21_0940,ConditionRich,2021.2.3,59.94294630377987,
144.75,148.0,41,0.0,Stimuli/Blank.png,0,0.0,0.0,0,65,65,65,,,,,,,,,,,,,144.77788770000006,0.027887700000064797,None,181.4887233999998,181.4887233999998,181.4887233999998,181.4887233999998,181.4887233999998,181.4887233999998,181.4887233999998,181.4887233999998,181.4887233999998,181.4887233999998,,001,P019,2025_Mar_21_0940,ConditionRich,2021.2.3,59.94294630377987,
148.0,148.75,30,0.75,Stimuli/P019/things_flip_flop_10s.jpg,0,0.0,0.0,0,66,66,66,,,,,,,,,,,,,148.01347199999964,0.013471999999637774,None,184.74163829999998,184.74163829999998,184.74163829999998,184.74163829999998,184.74163829999998,184.74163829999998,184.74163829999998,184.74163829999998,184.74163829999998,184.74163829999998,,001,P019,2025_Mar_21_0940,ConditionRich,2021.2.3,59.94294630377987,
148.75,152.0,41,0.0,Stimuli/Blank.png,0,0.0,0.0,0,67,67,67,,,,,,,,,,,,,148.78346359999978,0.033463599999777216,None,185.50898069999948,185.50898069999948,185.50898069999948,185.50898069999948,185.50898069999948,185.50898069999948,185.50898069999948,185.50898069999948,185.50898069999948,185.50898069999948,,001,P019,2025_Mar_21_0940,ConditionRich,2021.2.3,59.94294630377987,
152.0,152.75,13,0.75,Stimuli/P019/sun_bhzwrbdycbchqesq.jpg,0,0.0,0.0,0,68,68,68,,,,,,,,,,,,,152.01773010000034,0.01773010000033537,None,188.74520049999956,188.74520049999956,188.74520049999956,188.74520049999956,188.74520049999956,188.74520049999956,188.74520049999956,188.74520049999956,188.74520049999956,188.74520049999956,,001,P019,2025_Mar_21_0940,ConditionRich,2021.2.3,59.94294630377987,
152.75,156.0,41,0.0,Stimuli/Blank.png,1,2.25,3.0,0,69,69,69,,,,,,,,,,,,,152.76882440000009,0.018824400000085006,1,189.47913169999993,189.47913169999993,189.47913169999993,189.47913169999993,189.47913169999993,189.47913169999993,191.71447829999943,192.46511219999957,189.47913169999993,189.47913169999993,2.627179199999773,001,P019,2025_Mar_21_0940,ConditionRich,2021.2.3,59.94294630377987,
156.0,156.75,11,0.75,Stimuli/P019/sun_bcbfjkoziukwmdkd.jpg,0,0.0,0.0,0,70,70,70,,,,,,,,,,,,,156.0038316,0.0038316000000122585,None,192.73203319999993,192.73203319999993,192.73203319999993,192.73203319999993,192.73203319999993,192.73203319999993,192.73203319999993,192.73203319999993,192.73203319999993,192.73203319999993,,001,P019,2025_Mar_21_0940,ConditionRich,2021.2.3,59.94294630377987,
156.75,160.0,41,0.0,Stimuli/Blank.png,0,0.0,0.0,0,71,71,71,,,,,,,,,,,,,156.77335229999971,0.023352299999714887,None,193.4993676999993,193.4993676999993,193.4993676999993,193.4993676999993,193.4993676999993,193.4993676999993,193.4993676999993,193.4993676999993,193.4993676999993,193.4993676999993,,001,P019,2025_Mar_21_0940,ConditionRich,2021.2.3,59.94294630377987,
160.0,160.75,36,0.75,Stimuli/P019/things_sunroof_10s.jpg,0,0.0,0.0,0,72,72,72,,,,,,,,,,,,,160.0240085000005,0.02400850000049104,None,196.7522356999998,196.7522356999998,196.7522356999998,196.7522356999998,196.7522356999998,196.7522356999998,196.7522356999998,196.7522356999998,196.7522356999998,196.7522356999998,,001,P019,2025_Mar_21_0940,ConditionRich,2021.2.3,59.94294630377987,
160.75,164.0,41,0.0,Stimuli/Blank.png,0,0.0,0.0,0,73,73,73,,,,,,,,,,,,,160.77558450000015,0.02558450000015,None,197.48632729999918,197.48632729999918,197.48632729999918,197.48632729999918,197.48632729999918,197.48632729999918,197.48632729999918,197.48632729999918,197.48632729999918,197.48632729999918,,001,P019,2025_Mar_21_0940,ConditionRich,2021.2.3,59.94294630377987,
164.0,164.75,33,0.75,Stimuli/P019/things_insole_10s.jpg,0,0.0,0.0,0,74,74,74,,,,,,,,,,,,,164.01108879999992,0.011088799999924959,None,200.75576979999914,200.75576979999914,200.75576979999914,200.75576979999914,200.75576979999914,200.75576979999914,200.75576979999914,200.75576979999914,200.75576979999914,200.75576979999914,,001,P019,2025_Mar_21_0940,ConditionRich,2021.2.3,59.94294630377987,
164.75,168.0,41,0.0,Stimuli/Blank.png,0,0.0,0.0,0,75,75,75,,,,,,,,,,,,,164.79569249999986,0.04569249999985914,None,201.5064223999998,201.5064223999998,201.5064223999998,201.5064223999998,201.5064223999998,201.5064223999998,201.5064223999998,201.5064223999998,201.5064223999998,201.5064223999998,,001,P019,2025_Mar_21_0940,ConditionRich,2021.2.3,59.94294630377987,
168.0,168.75,5,0.75,Stimuli/P019/sun_amjqxnqvhovkotym.jpg,0,0.0,0.0,0,76,76,76,,,,,,,,,,,,,168.01542840000002,0.015428400000018883,None,204.7593494999992,204.7593494999992,204.7593494999992,204.7593494999992,204.7593494999992,204.7593494999992,204.7593494999992,204.7593494999992,204.7593494999992,204.7593494999992,,001,P019,2025_Mar_21_0940,ConditionRich,2021.2.3,59.94294630377987,
168.75,172.0,41,0.0,Stimuli/Blank.png,0,0.0,0.0,0,77,77,77,,,,,,,,,,,,,168.78305170000021,0.03305170000021462,None,205.4932792999998,205.4932792999998,205.4932792999998,205.4932792999998,205.4932792999998,205.4932792999998,205.4932792999998,205.4932792999998,205.4932792999998,205.4932792999998,,001,P019,2025_Mar_21_0940,ConditionRich,2021.2.3,59.94294630377987,
172.0,172.75,12,0.75,Stimuli/P019/sun_bgjrtiivbwugxhxp.jpg,0,0.0,0.0,0,78,78,78,,,,,,,,,,,,,172.00346079999963,0.0034607999996296712,None,208.74615579999954,208.74615579999954,208.74615579999954,208.74615579999954,208.74615579999954,208.74615579999954,208.74615579999954,208.74615579999954,208.74615579999954,208.74615579999954,,001,P019,2025_Mar_21_0940,ConditionRich,2021.2.3,59.94294630377987,
172.75,176.0,41,0.0,Stimuli/Blank.png,0,0.0,0.0,0,79,79,79,,,,,,,,,,,,,172.78622670000004,0.03622670000004291,None,209.49681789999977,209.49681789999977,209.49681789999977,209.49681789999977,209.49681789999977,209.49681789999977,209.49681789999977,209.49681789999977,209.49681789999977,209.49681789999977,,001,P019,2025_Mar_21_0940,ConditionRich,2021.2.3,59.94294630377987,
176.0,176.75,17,0.75,Stimuli/P019/sun_bltxkcclrpweopkl.jpg,0,0.0,0.0,0,80,80,80,,,,,,,,,,,,,176.00494830000025,0.004948300000251038,None,212.71633659999952,212.71633659999952,212.71633659999952,212.71633659999952,212.71633659999952,212.71633659999952,212.71633659999952,212.71633659999952,212.71633659999952,212.71633659999952,,001,P019,2025_Mar_21_0940,ConditionRich,2021.2.3,59.94294630377987,
176.75,180.0,41,0.0,Stimuli/Blank.png,0,0.0,0.0,0,81,81,81,,,,,,,,,,,,,176.7555035000005,0.005503500000486383,None,213.4669903999993,213.4669903999993,213.4669903999993,213.4669903999993,213.4669903999993,213.4669903999993,213.4669903999993,213.4669903999993,213.4669903999993,213.4669903999993,,001,P019,2025_Mar_21_0940,ConditionRich,2021.2.3,59.94294630377987,
180.0,196.0,0,0.0,Stimuli/Blank.png,1,7.0,7.75,0,82,82,82,,,,,,,,,,,,,180.00906529999975,0.009065299999747367,1,216.71986339999967,216.71986339999967,216.71986339999967,216.71986339999967,216.71986339999967,216.71986339999967,223.70938289999958,224.46007869999994,216.71986339999967,216.71986339999967,7.387403800000357,001,P019,2025_Mar_21_0940,ConditionRich,2021.2.3,59.94294630377987,
196.0,196.75,7,0.75,Stimuli/P019/sun_aqkbfuonyunmyqxb.jpg,0,0.0,0.0,0,83,83,83,,,,,,,,,,,,,196.00824530000045,0.008245300000453426,None,232.73402799999985,232.73402799999985,232.73402799999985,232.73402799999985,232.73402799999985,232.73402799999985,232.73402799999985,232.73402799999985,232.73402799999985,232.73402799999985,,001,P019,2025_Mar_21_0940,ConditionRich,2021.2.3,59.94294630377987,
196.75,200.0,41,0.0,Stimuli/Blank.png,0,0.0,0.0,0,84,84,84,,,,,,,,,,,,,196.77380600000015,0.023806000000149652,None,233.4846637999999,233.4846637999999,233.4846637999999,233.4846637999999,233.4846637999999,233.4846637999999,233.4846637999999,233.4846637999999,233.4846637999999,233.4846637999999,,001,P019,2025_Mar_21_0940,ConditionRich,2021.2.3,59.94294630377987,
200.0,200.75,15,0.75,Stimuli/P019/sun_bkubdnohuakmwcaj.jpg,0,0.0,0.0,0,85,85,85,,,,,,,,,,,,,200.00954420000016,0.009544200000163983,None,236.7208490999992,236.7208490999992,236.7208490999992,236.7208490999992,236.7208490999992,236.7208490999992,236.7208490999992,236.7208490999992,236.7208490999992,236.7208490999992,,001,P019,2025_Mar_21_0940,ConditionRich,2021.2.3,59.94294630377987,
200.75,204.0,41,0.0,Stimuli/Blank.png,0,0.0,0.0,0,86,86,86,,,,,,,,,,,,,200.7602069000004,0.010206900000412134,None,237.47150709999914,237.47150709999914,237.47150709999914,237.47150709999914,237.47150709999914,237.47150709999914,237.47150709999914,237.47150709999914,237.47150709999914,237.47150709999914,,001,P019,2025_Mar_21_0940,ConditionRich,2021.2.3,59.94294630377987,
204.0,204.75,3,0.75,Stimuli/P019/sun_aknrkswonrogcooi.jpg,0,0.0,0.0,0,87,87,87,,,,,,,,,,,,,204.01406060000045,0.014060600000448176,None,240.7410863999994,240.7410863999994,240.7410863999994,240.7410863999994,240.7410863999994,240.7410863999994,240.7410863999994,240.7410863999994,240.7410863999994,240.7410863999994,,001,P019,2025_Mar_21_0940,ConditionRich,2021.2.3,59.94294630377987,
204.75,208.0,41,0.0,Stimuli/Blank.png,0,0.0,0.0,0,88,88,88,,,,,,,,,,,,,204.78053900000032,0.030539000000317174,None,241.49177999999938,241.49177999999938,241.49177999999938,241.49177999999938,241.49177999999938,241.49177999999938,241.49177999999938,241.49177999999938,241.49177999999938,241.49177999999938,,001,P019,2025_Mar_21_0940,ConditionRich,2021.2.3,59.94294630377987,
208.0,208.75,14,0.75,Stimuli/P019/sun_birvagufpcschyrr.jpg,0,0.0,0.0,0,89,89,89,,,,,,,,,,,,,208.00066249999963,0.0006624999996347469,None,244.7112428999999,244.7112428999999,244.7112428999999,244.7112428999999,244.7112428999999,244.7112428999999,244.7112428999999,244.7112428999999,244.7112428999999,244.7112428999999,,001,P019,2025_Mar_21_0940,ConditionRich,2021.2.3,59.94294630377987,
208.75,212.0,41,0.0,Stimuli/Blank.png,0,0.0,0.0,0,90,90,90,,,,,,,,,,,,,208.7530625999998,0.003062599999793747,None,245.4785992999996,245.4785992999996,245.4785992999996,245.4785992999996,245.4785992999996,245.4785992999996,245.4785992999996,245.4785992999996,245.4785992999996,245.4785992999996,,001,P019,2025_Mar_21_0940,ConditionRich,2021.2.3,59.94294630377987,
212.0,212.75,25,0.75,Stimuli/P019/things_chime_10s.jpg,0,0.0,0.0,0,91,91,91,,,,,,,,,,,,,212.0207190000001,0.020719000000099186,None,248.73147639999934,248.73147639999934,248.73147639999934,248.73147639999934,248.73147639999934,248.73147639999934,248.73147639999934,248.73147639999934,248.73147639999934,248.73147639999934,,001,P019,2025_Mar_21_0940,ConditionRich,2021.2.3,59.94294630377987,
212.75,216.0,41,0.0,Stimuli/Blank.png,0,0.0,0.0,0,92,92,92,,,,,,,,,,,,,212.7539187000002,0.0039187000002129935,None,249.46543869999914,249.46543869999914,249.46543869999914,249.46543869999914,249.46543869999914,249.46543869999914,249.46543869999914,249.46543869999914,249.46543869999914,249.46543869999914,,001,P019,2025_Mar_21_0940,ConditionRich,2021.2.3,59.94294630377987,
216.0,216.75,6,0.75,Stimuli/P019/sun_amppcthpabgulbwl.jpg,0,0.0,0.0,0,93,93,93,,,,,,,,,,,,,216.00693950000004,0.006939500000044063,None,252.71831459999976,252.71831459999976,252.71831459999976,252.71831459999976,252.71831459999976,252.71831459999976,252.71831459999976,252.71831459999976,252.71831459999976,252.71831459999976,,001,P019,2025_Mar_21_0940,ConditionRich,2021.2.3,59.94294630377987,
216.75,220.0,41,0.0,Stimuli/Blank.png,0,0.0,0.0,0,94,94,94,,,,,,,,,,,,,216.75851890000013,0.00851890000012645,None,253.46898509999937,253.46898509999937,253.46898509999937,253.46898509999937,253.46898509999937,253.46898509999937,253.46898509999937,253.46898509999937,253.46898509999937,253.46898509999937,,001,P019,2025_Mar_21_0940,ConditionRich,2021.2.3,59.94294630377987,
220.0,220.75,34,0.75,Stimuli/P019/things_man_10s.jpg,0,0.0,0.0,0,95,95,95,,,,,,,,,,,,,220.0107564,0.010756399999991118,None,256.7385334999999,256.7385334999999,256.7385334999999,256.7385334999999,256.7385334999999,256.7385334999999,256.7385334999999,256.7385334999999,256.7385334999999,256.7385334999999,,001,P019,2025_Mar_21_0940,ConditionRich,2021.2.3,59.94294630377987,
220.75,224.0,41,0.0,Stimuli/Blank.png,0,0.0,0.0,0,96,96,96,,,,,,,,,,,,,220.77868659999967,0.02868659999967349,None,257.48919509999996,257.48919509999996,257.48919509999996,257.48919509999996,257.48919509999996,257.48919509999996,257.48919509999996,257.48919509999996,257.48919509999996,257.48919509999996,,001,P019,2025_Mar_21_0940,ConditionRich,2021.2.3,59.94294630377987,
224.0,224.75,38,0.75,Stimuli/P019/things_turtle_10n.jpg,0,0.0,0.0,0,97,97,97,,,,,,,,,,,,,224.0138751000004,0.013875100000404927,None,260.72538429999986,260.72538429999986,260.72538429999986,260.72538429999986,260.72538429999986,260.72538429999986,260.72538429999986,260.72538429999986,260.72538429999986,260.72538429999986,,001,P019,2025_Mar_21_0940,ConditionRich,2021.2.3,59.94294630377987,
224.75,228.0,41,0.0,Stimuli/Blank.png,1,0.25,1.0,0,98,98,98,,,,,,,,,,,,,224.7656063000004,0.015606300000399642,1,261.47610929999973,261.47610929999973,261.47610929999973,261.47610929999973,261.47610929999973,261.47610929999973,261.7095783999994,262.46031259999927,261.47610929999973,261.47610929999973,0.7313036000005013,001,P019,2025_Mar_21_0940,ConditionRich,2021.2.3,59.94294630377987,
228.0,228.75,4,0.75,Stimuli/P019/sun_amixpbnrxiulfsri.jpg,1,0.0,0.75,0,99,99,99,,,,,,,,,,,,,228.00335129999985,0.0033512999998492887,1,264.7289364999997,264.7289364999997,264.7289364999997,264.7289364999997,264.7289364999997,264.7289364999997,264.7289364999997,265.4629505999992,264.7289364999997,264.7289364999997,0.5085334999994302,001,P019,2025_Mar_21_0940,ConditionRich,2021.2.3,59.94294630377987,
228.75,232.0,41,0.0,Stimuli/Blank.png,0,0.0,0.0,0,100,100,100,,,,,,,,,,,,,228.76971400000002,0.01971400000002177,None,265.47959549999996,265.47959549999996,265.47959549999996,265.47959549999996,265.47959549999996,265.47959549999996,265.47959549999996,265.47959549999996,265.47959549999996,265.47959549999996,,001,P019,2025_Mar_21_0940,ConditionRich,2021.2.3,59.94294630377987,
232.0,232.75,17,0.75,Stimuli/P019/sun_bltxkcclrpweopkl.jpg,0,0.0,0.0,0,101,101,101,,,,,,,,,,,,,232.00504499999988,0.0050449999998818384,None,268.71576429999914,268.71576429999914,268.71576429999914,268.71576429999914,268.71576429999914,268.71576429999914,268.71576429999914,268.71576429999914,268.71576429999914,268.71576429999914,,001,P019,2025_Mar_21_0940,ConditionRich,2021.2.3,59.94294630377987,
232.75,236.0,41,0.0,Stimuli/Blank.png,0,0.0,0.0,0,102,102,102,,,,,,,,,,,,,232.7557643,0.0057643000000098255,None,269.4664471999995,269.4664471999995,269.4664471999995,269.4664471999995,269.4664471999995,269.4664471999995,269.4664471999995,269.4664471999995,269.4664471999995,269.4664471999995,,001,P019,2025_Mar_21_0940,ConditionRich,2021.2.3,59.94294630377987,
236.0,236.75,31,0.75,Stimuli/P019/things_fudge_10s.jpg,1,0.0,0.75,0,103,103,103,,,,,,,,,,,,,236.0077908000003,0.00779080000029353,None,272.71930859999975,272.71930859999975,272.71930859999975,272.71930859999975,272.71930859999975,272.71930859999975,272.71930859999975,273.45328359999985,272.71930859999975,272.71930859999975,,001,P019,2025_Mar_21_0940,ConditionRich,2021.2.3,59.94294630377987,
236.75,240.0,41,0.0,Stimuli/Blank.png,0,0.0,0.0,0,104,104,104,,,,,,,,,,,,,236.75847909999993,0.00847909999993135,None,273.4699621999998,273.4699621999998,273.4699621999998,273.4699621999998,273.4699621999998,273.4699621999998,273.4699621999998,273.4699621999998,273.4699621999998,273.4699621999998,,001,P019,2025_Mar_21_0940,ConditionRich,2021.2.3,59.94294630377987,
240.0,240.75,21,0.75,Stimuli/P019/things_anteater_10s.jpg,0,0.0,0.0,0,105,105,105,,,,,,,,,,,,,240.01239450000048,0.012394500000482367,None,276.72284149999996,276.72284149999996,276.72284149999996,276.72284149999996,276.72284149999996,276.72284149999996,276.72284149999996,276.72284149999996,276.72284149999996,276.72284149999996,,001,P019,2025_Mar_21_0940,ConditionRich,2021.2.3,59.94294630377987,
240.75,244.0,41,0.0,Stimuli/Blank.png,0,0.0,0.0,0,106,106,106,,,,,,,,,,,,,240.76369830000021,0.013698300000214658,None,277.4742867999994,277.4742867999994,277.4742867999994,277.4742867999994,277.4742867999994,277.4742867999994,277.4742867999994,277.4742867999994,277.4742867999994,277.4742867999994,,001,P019,2025_Mar_21_0940,ConditionRich,2021.2.3,59.94294630377987,
244.0,244.75,11,0.75,Stimuli/P019/sun_bcbfjkoziukwmdkd.jpg,0,0.0,0.0,0,107,107,107,,,,,,,,,,,,,243.99937190000037,-0.0006280999996306491,None,280.7264034,280.7264034,280.7264034,280.7264034,280.7264034,280.7264034,280.7264034,280.7264034,280.7264034,280.7264034,,001,P019,2025_Mar_21_0940,ConditionRich,2021.2.3,59.94294630377987,
244.75,248.0,41,0.0,Stimuli/Blank.png,1,0.25,1.0,0,108,108,108,,,,,,,,,,,,,244.76787700000023,0.017877000000225962,1,281.4937493999996,281.4937493999996,281.4937493999996,281.4937493999996,281.4937493999996,281.4937493999996,281.7273101999999,282.47794469999917,281.4937493999996,281.4937493999996,1.0136633000001893,001,P019,2025_Mar_21_0940,ConditionRich,2021.2.3,59.94294630377987,
248.0,248.75,40,0.75,Stimuli/P019/things_woman_10s.jpg,0,0.0,0.0,0,109,109,109,,,,,,,,,,,,,248.01868860000013,0.018688600000132283,None,284.72991059999913,284.72991059999913,284.72991059999913,284.72991059999913,284.72991059999913,284.72991059999913,284.72991059999913,284.72991059999913,284.72991059999913,284.72991059999913,,001,P019,2025_Mar_21_0940,ConditionRich,2021.2.3,59.94294630377987,
248.75,252.0,41,0.0,Stimuli/Blank.png,0,0.0,0.0,0,110,110,110,,,,,,,,,,,,,248.7538016999997,0.003801699999712582,None,285.4806093999996,285.4806093999996,285.4806093999996,285.4806093999996,285.4806093999996,285.4806093999996,285.4806093999996,285.4806093999996,285.4806093999996,285.4806093999996,,001,P019,2025_Mar_21_0940,ConditionRich,2021.2.3,59.94294630377987,
252.0,252.75,9,0.75,Stimuli/P019/sun_bbfmuujfvpiaqdww.jpg,0,0.0,0.0,0,111,111,111,,,,,,,,,,,,,252.02265009999974,0.022650099999736995,None,288.75013079999917,288.75013079999917,288.75013079999917,288.75013079999917,288.75013079999917,288.75013079999917,288.75013079999917,288.75013079999917,288.75013079999917,288.75013079999917,,001,P019,2025_Mar_21_0940,ConditionRich,2021.2.3,59.94294630377987,
252.75,256.0,41,0.0,Stimuli/Blank.png,0,0.0,0.0,0,112,112,112,,,,,,,,,,,,,252.77512579999984,0.025125799999841547,None,289.50080119999984,289.50080119999984,289.50080119999984,289.50080119999984,289.50080119999984,289.50080119999984,289.50080119999984,289.50080119999984,289.50080119999984,289.50080119999984,,001,P019,2025_Mar_21_0940,ConditionRich,2021.2.3,59.94294630377987,
256.0,256.75,23,0.75,Stimuli/P019/things_boy_10s.jpg,0,0.0,0.0,0,113,113,113,,,,,,,,,,,,,256.02594880000015,0.025948800000151095,None,292.73699079999915,292.73699079999915,292.73699079999915,292.73699079999915,292.73699079999915,292.73699079999915,292.73699079999915,292.73699079999915,292.73699079999915,292.73699079999915,,001,P019,2025_Mar_21_0940,ConditionRich,2021.2.3,59.94294630377987,
256.75,260.0,41,0.0,Stimuli/Blank.png,0,0.0,0.0,0,114,114,114,,,,,,,,,,,,,256.7595817000001,0.009581700000126148,None,293.4709705999994,293.4709705999994,293.4709705999994,293.4709705999994,293.4709705999994,293.4709705999994,293.4709705999994,293.4709705999994,293.4709705999994,293.4709705999994,,001,P019,2025_Mar_21_0940,ConditionRich,2021.2.3,59.94294630377987,
260.0,260.75,24,0.75,Stimuli/P019/things_bulletin_board_10s.jpg,0,0.0,0.0,0,115,115,115,,,,,,,,,,,,,260.0125014000005,0.01250140000047395,None,296.72384239999974,296.72384239999974,296.72384239999974,296.72384239999974,296.72384239999974,296.72384239999974,296.72384239999974,296.72384239999974,296.72384239999974,296.72384239999974,,001,P019,2025_Mar_21_0940,ConditionRich,2021.2.3,59.94294630377987,
260.75,264.0,41,0.0,Stimuli/Blank.png,0,0.0,0.0,0,116,116,116,,,,,,,,,,,,,260.76401350000015,0.01401350000014645,None,297.49118,297.49118,297.49118,297.49118,297.49118,297.49118,297.49118,297.49118,297.49118,297.49118,,001,P019,2025_Mar_21_0940,ConditionRich,2021.2.3,59.94294630377987,
264.0,264.75,13,0.75,Stimuli/P019/sun_bhzwrbdycbchqesq.jpg,0,0.0,0.0,0,117,117,117,,,,,,,,,,,,,264.0184890999999,0.018489099999897007,None,300.7440620999996,300.7440620999996,300.7440620999996,300.7440620999996,300.7440620999996,300.7440620999996,300.7440620999996,300.7440620999996,300.7440620999996,300.7440620999996,,001,P019,2025_Mar_21_0940,ConditionRich,2021.2.3,59.94294630377987,
264.75,268.0,41,0.0,Stimuli/Blank.png,0,0.0,0.0,0,118,118,118,,,,,,,,,,,,,264.76649439999983,0.0164943999998286,None,301.47808129999976,301.47808129999976,301.47808129999976,301.47808129999976,301.47808129999976,301.47808129999976,301.47808129999976,301.47808129999976,301.47808129999976,301.47808129999976,,001,P019,2025_Mar_21_0940,ConditionRich,2021.2.3,59.94294630377987,
268.0,268.75,10,0.75,Stimuli/P019/sun_bblqhrudkospnbbv.jpg,0,0.0,0.0,0,119,119,119,,,,,,,,,,,,,268.00285220000023,0.0028522000002340064,None,304.7142224999998,304.7142224999998,304.7142224999998,304.7142224999998,304.7142224999998,304.7142224999998,304.7142224999998,304.7142224999998,304.7142224999998,304.7142224999998,,001,P019,2025_Mar_21_0940,ConditionRich,2021.2.3,59.94294630377987,
268.75,272.0,41,0.0,Stimuli/Blank.png,0,0.0,0.0,0,120,120,120,,,,,,,,,,,,,268.7537519999996,0.0037519999996220577,None,305.46488579999914,305.46488579999914,305.46488579999914,305.46488579999914,305.46488579999914,305.46488579999914,305.46488579999914,305.46488579999914,305.46488579999914,305.46488579999914,,001,P019,2025_Mar_21_0940,ConditionRich,2021.2.3,59.94294630377987,
272.0,272.75,18,0.75,Stimuli/P019/sun_bodjbrgwzlshgypq.jpg,0,0.0,0.0,0,121,121,121,,,,,,,,,,,,,272.0083678000001,0.0083678000000873,None,308.7344553999992,308.7344553999992,308.7344553999992,308.7344553999992,308.7344553999992,308.7344553999992,308.7344553999992,308.7344553999992,308.7344553999992,308.7344553999992,,001,P019,2025_Mar_21_0940,ConditionRich,2021.2.3,59.94294630377987,
272.75,276.0,41,0.0,Stimuli/Blank.png,0,0.0,0.0,0,122,122,122,,,,,,,,,,,,,272.77373119999993,0.02373119999992923,None,309.4851005999999,309.4851005999999,309.4851005999999,309.4851005999999,309.4851005999999,309.4851005999999,309.4851005999999,309.4851005999999,309.4851005999999,309.4851005999999,,001,P019,2025_Mar_21_0940,ConditionRich,2021.2.3,59.94294630377987,
276.0,292.0,0,0.0,Stimuli/Blank.png,1,9.0,9.75,0,123,123,123,,,,,,,,,,,,,276.0112286000003,0.01122860000032233,1,312.7213120999995,312.7213120999995,312.7213120999995,312.7213120999995,312.7213120999995,312.7213120999995,321.7126331999998,322.4632281999993,312.7213120999995,312.7213120999995,9.394103900000118,001,P019,2025_Mar_21_0940,ConditionRich,2021.2.3,59.94294630377987,
292.0,292.75,27,0.75,Stimuli/P019/things_eel_10s.jpg,0,0.0,0.0,0,124,124,124,,,,,,,,,,,,,292.0082861000001,0.008286100000077568,None,328.7187583999994,328.7187583999994,328.7187583999994,328.7187583999994,328.7187583999994,328.7187583999994,328.7187583999994,328.7187583999994,328.7187583999994,328.7187583999994,,001,P019,2025_Mar_21_0940,ConditionRich,2021.2.3,59.94294630377987,
292.75,296.0,41,0.0,Stimuli/Blank.png,0,0.0,0.0,0,125,125,125,,,,,,,,,,,,,292.7585506000005,0.008550600000489794,None,329.4694187999994,329.4694187999994,329.4694187999994,329.4694187999994,329.4694187999994,329.4694187999994,329.4694187999994,329.4694187999994,329.4694187999994,329.4694187999994,,001,P019,2025_Mar_21_0940,ConditionRich,2021.2.3,59.94294630377987,
296.0,296.75,36,0.75,Stimuli/P019/things_sunroof_10s.jpg,0,0.0,0.0,0,126,126,126,,,,,,,,,,,,,296.0123016999996,0.01230169999962527,None,332.7389878999993,332.7389878999993,332.7389878999993,332.7389878999993,332.7389878999993,332.7389878999993,332.7389878999993,332.7389878999993,332.7389878999993,332.7389878999993,,001,P019,2025_Mar_21_0940,ConditionRich,2021.2.3,59.94294630377987,
296.75,300.0,41,0.0,Stimuli/Blank.png,0,0.0,0.0,0,127,127,127,,,,,,,,,,,,,296.77879180000036,0.028791800000362855,None,333.48963599999934,333.48963599999934,333.48963599999934,333.48963599999934,333.48963599999934,333.48963599999934,333.48963599999934,333.48963599999934,333.48963599999934,333.48963599999934,,001,P019,2025_Mar_21_0940,ConditionRich,2021.2.3,59.94294630377987,
300.0,300.75,22,0.75,Stimuli/P019/things_bead_10s.jpg,0,0.0,0.0,0,128,128,128,,,,,,,,,,,,,300.0144473999999,0.014447399999880872,None,336.7258218999996,336.7258218999996,336.7258218999996,336.7258218999996,336.7258218999996,336.7258218999996,336.7258218999996,336.7258218999996,336.7258218999996,336.7258218999996,,001,P019,2025_Mar_21_0940,ConditionRich,2021.2.3,59.94294630377987,
300.75,304.0,41,0.0,Stimuli/Blank.png,0,0.0,0.0,0,129,129,129,,,,,,,,,,,,,300.7649142,0.014914200000021083,None,337.4764858999997,337.4764858999997,337.4764858999997,337.4764858999997,337.4764858999997,337.4764858999997,337.4764858999997,337.4764858999997,337.4764858999997,337.4764858999997,,001,P019,2025_Mar_21_0940,ConditionRich,2021.2.3,59.94294630377987,
304.0,304.75,1,0.75,Stimuli/P019/sun_aaaidwecchadbake.jpg,0,0.0,0.0,0,130,130,130,,,,,,,,,,,,,304.0031699000001,0.0031699000001026434,None,340.7293727999995,340.7293727999995,340.7293727999995,340.7293727999995,340.7293727999995,340.7293727999995,340.7293727999995,340.7293727999995,340.7293727999995,340.7293727999995,,001,P019,2025_Mar_21_0940,ConditionRich,2021.2.3,59.94294630377987,
304.75,308.0,41,0.0,Stimuli/Blank.png,0,0.0,0.0,0,131,131,131,,,,,,,,,,,,,304.7695596000003,0.019559600000320643,None,341.4800292,341.4800292,341.4800292,341.4800292,341.4800292,341.4800292,341.4800292,341.4800292,341.4800292,341.4800292,,001,P019,2025_Mar_21_0940,ConditionRich,2021.2.3,59.94294630377987,
308.0,308.75,2,0.75,Stimuli/P019/sun_ajhvfwzgpfovdgid.jpg,0,0.0,0.0,0,132,132,132,,,,,,,,,,,,,308.00635760000023,0.006357600000228558,None,344.7329009999994,344.7329009999994,344.7329009999994,344.7329009999994,344.7329009999994,344.7329009999994,344.7329009999994,344.7329009999994,344.7329009999994,344.7329009999994,,001,P019,2025_Mar_21_0940,ConditionRich,2021.2.3,59.94294630377987,
308.75,312.0,41,0.0,Stimuli/Blank.png,0,0.0,0.0,0,133,133,133,,,,,,,,,,,,,308.7728490999998,0.022849099999803002,None,345.48356219999914,345.48356219999914,345.48356219999914,345.48356219999914,345.48356219999914,345.48356219999914,345.48356219999914,345.48356219999914,345.48356219999914,345.48356219999914,,001,P019,2025_Mar_21_0940,ConditionRich,2021.2.3,59.94294630377987,
312.0,312.75,29,0.75,Stimuli/P019/things_flamingo_10s.jpg,0,0.0,0.0,0,134,134,134,,,,,,,,,,,,,312.0089893000004,0.008989300000393996,None,348.71975399999974,348.71975399999974,348.71975399999974,348.71975399999974,348.71975399999974,348.71975399999974,348.71975399999974,348.71975399999974,348.71975399999974,348.71975399999974,,001,P019,2025_Mar_21_0940,ConditionRich,2021.2.3,59.94294630377987,
312.75,316.0,41,0.0,Stimuli/Blank.png,0,0.0,0.0,0,135,135,135,,,,,,,,,,,,,312.7588899000002,0.008889900000212947,None,349.4704271999999,349.4704271999999,349.4704271999999,349.4704271999999,349.4704271999999,349.4704271999999,349.4704271999999,349.4704271999999,349.4704271999999,349.4704271999999,,001,P019,2025_Mar_21_0940,ConditionRich,2021.2.3,59.94294630377987,
316.0,316.75,30,0.75,Stimuli/P019/things_flip_flop_10s.jpg,0,0.0,0.0,0,136,136,136,,,,,,,,,,,,,316.0127517000001,0.012751700000080746,None,352.7399659999992,352.7399659999992,352.7399659999992,352.7399659999992,352.7399659999992,352.7399659999992,352.7399659999992,352.7399659999992,352.7399659999992,352.7399659999992,,001,P019,2025_Mar_21_0940,ConditionRich,2021.2.3,59.94294630377987,
316.75,320.0,41,0.0,Stimuli/Blank.png,0,0.0,0.0,0,137,137,137,,,,,,,,,,,,,316.7792797000002,0.029279700000188313,None,353.4906302999998,353.4906302999998,353.4906302999998,353.4906302999998,353.4906302999998,353.4906302999998,353.4906302999998,353.4906302999998,353.4906302999998,353.4906302999998,,001,P019,2025_Mar_21_0940,ConditionRich,2021.2.3,59.94294630377987,
320.0,320.75,5,0.75,Stimuli/P019/sun_amjqxnqvhovkotym.jpg,0,0.0,0.0,0,138,138,138,,,,,,,,,,,,,320.01555199999984,0.015551999999843247,None,356.7435108999998,356.7435108999998,356.7435108999998,356.7435108999998,356.7435108999998,356.7435108999998,356.7435108999998,356.7435108999998,356.7435108999998,356.7435108999998,,001,P019,2025_Mar_21_0940,ConditionRich,2021.2.3,59.94294630377987,
320.75,324.0,41,0.0,Stimuli/Blank.png,0,0.0,0.0,0,139,139,139,,,,,,,,,,,,,320.7683656999998,0.018365699999776552,None,357.4941782999995,357.4941782999995,357.4941782999995,357.4941782999995,357.4941782999995,357.4941782999995,357.4941782999995,357.4941782999995,357.4941782999995,357.4941782999995,,001,P019,2025_Mar_21_0940,ConditionRich,2021.2.3,59.94294630377987,
324.0,324.75,16,0.75,Stimuli/P019/sun_blfpbbfyzmewzplm.jpg,0,0.0,0.0,0,140,140,140,,,,,,,,,,,,,324.0190130000001,0.019013000000086322,None,360.7303587999995,360.7303587999995,360.7303587999995,360.7303587999995,360.7303587999995,360.7303587999995,360.7303587999995,360.7303587999995,360.7303587999995,360.7303587999995,,001,P019,2025_Mar_21_0940,ConditionRich,2021.2.3,59.94294630377987,
324.75,328.0,41,0.0,Stimuli/Blank.png,0,0.0,0.0,0,141,141,141,,,,,,,,,,,,,324.7533990000002,0.0033990000001722365,None,361.46435999999994,361.46435999999994,361.46435999999994,361.46435999999994,361.46435999999994,361.46435999999994,361.46435999999994,361.46435999999994,361.46435999999994,361.46435999999994,,001,P019,2025_Mar_21_0940,ConditionRich,2021.2.3,59.94294630377987,
328.0,328.75,28,0.75,Stimuli/P019/things_face_10s.jpg,1,0.0,0.75,0,142,142,142,,,,,,,,,,,,,328.0084029999998,0.00840299999981653,None,364.7339216999999,364.7339216999999,364.7339216999999,364.7339216999999,364.7339216999999,364.7339216999999,364.7339216999999,365.46790299999975,364.7339216999999,364.7339216999999,,001,P019,2025_Mar_21_0940,ConditionRich,2021.2.3,59.94294630377987,
328.75,332.0,41,0.0,Stimuli/Blank.png,0,0.0,0.0,0,143,143,143,,,,,,,,,,,,,328.7739994000003,0.023999400000320747,1,365.4845594999997,365.4845594999997,365.4845594999997,365.4845594999997,365.4845594999997,365.4845594999997,365.4845594999997,365.4845594999997,365.4845594999997,365.4845594999997,0.25270240000008926,001,P019,2025_Mar_21_0940,ConditionRich,2021.2.3,59.94294630377987,
332.0,332.75,8,0.75,Stimuli/P019/sun_avbzvunekksfggon.jpg,0,0.0,0.0,0,144,144,144,,,,,,,,,,,,,332.0100089999996,0.010008999999627122,None,368.7374317999993,368.7374317999993,368.7374317999993,368.7374317999993,368.7374317999993,368.7374317999993,368.7374317999993,368.7374317999993,368.7374317999993,368.7374317999993,,001,P019,2025_Mar_21_0940,ConditionRich,2021.2.3,59.94294630377987,
332.75,336.0,41,0.0,Stimuli/Blank.png,1,1.25,2.0,0,145,145,145,,,,,,,,,,,,,332.7775548999998,0.027554899999813642,1,369.48809729999994,369.48809729999994,369.48809729999994,369.48809729999994,369.48809729999994,369.48809729999994,370.7225426999994,371.4731785999993,369.48809729999994,369.48809729999994,1.6402308000006087,001,P019,2025_Mar_21_0940,ConditionRich,2021.2.3,59.94294630377987,
336.0,336.75,32,0.75,Stimuli/P019/things_girl_10s.jpg,0,0.0,0.0,0,146,146,146,,,,,,,,,,,,,336.0136131999998,0.0136131999997815,None,372.74096819999977,372.74096819999977,372.74096819999977,372.74096819999977,372.74096819999977,372.74096819999977,372.74096819999977,372.74096819999977,372.74096819999977,372.74096819999977,,001,P019,2025_Mar_21_0940,ConditionRich,2021.2.3,59.94294630377987,
336.75,340.0,41,0.0,Stimuli/Blank.png,1,0.25,1.0,0,147,147,147,,,,,,,,,,,,,336.7801457000005,0.030145700000502984,1,373.491626,373.491626,373.491626,373.491626,373.491626,373.491626,373.7252065999992,374.4758248999997,373.491626,373.491626,0.7268310999997993,001,P019,2025_Mar_21_0940,ConditionRich,2021.2.3,59.94294630377987,
340.0,340.75,19,0.75,Stimuli/P019/sun_byssdezaaqnthppd.jpg,0,0.0,0.0,0,148,148,148,,,,,,,,,,,,,340.00051840000015,0.0005184000001463573,None,376.71113669999977,376.71113669999977,376.71113669999977,376.71113669999977,376.71113669999977,376.71113669999977,376.71113669999977,376.71113669999977,376.71113669999977,376.71113669999977,,001,P019,2025_Mar_21_0940,ConditionRich,2021.2.3,59.94294630377987,
340.75,344.0,41,0.0,Stimuli/Blank.png,1,1.25,2.0,0,149,149,149,,,,,,,,,,,,,340.75084530000004,0.0008453000000372413,1,377.4618117,377.4618117,377.4618117,377.4618117,377.4618117,377.4618117,378.6962257999994,379.44690789999913,377.4618117,377.4618117,1.616502699999728,001,P019,2025_Mar_21_0940,ConditionRich,2021.2.3,59.94294630377987,
344.0,344.75,33,0.75,Stimuli/P019/things_insole_10s.jpg,0,0.0,0.0,0,150,150,150,,,,,,,,,,,,,344.0038053999997,0.003805399999691872,None,380.71466879999934,380.71466879999934,380.71466879999934,380.71466879999934,380.71466879999934,380.71466879999934,380.71466879999934,380.71466879999934,380.71466879999934,380.71466879999934,,001,P019,2025_Mar_21_0940,ConditionRich,2021.2.3,59.94294630377987,
344.75,348.0,41,0.0,Stimuli/Blank.png,0,0.0,0.0,0,151,151,151,,,,,,,,,,,,,344.7541983000001,0.004198300000098243,None,381.4653404999999,381.4653404999999,381.4653404999999,381.4653404999999,381.4653404999999,381.4653404999999,381.4653404999999,381.4653404999999,381.4653404999999,381.4653404999999,,001,P019,2025_Mar_21_0940,ConditionRich,2021.2.3,59.94294630377987,
348.0,348.75,35,0.75,Stimuli/P019/things_pretzel_10s.jpg,0,0.0,0.0,0,152,152,152,,,,,,,,,,,,,348.00755110000046,0.007551100000455335,None,384.7182114999996,384.7182114999996,384.7182114999996,384.7182114999996,384.7182114999996,384.7182114999996,384.7182114999996,384.7182114999996,384.7182114999996,384.7182114999996,,001,P019,2025_Mar_21_0940,ConditionRich,2021.2.3,59.94294630377987,
348.75,352.0,41,0.0,Stimuli/Blank.png,0,0.0,0.0,0,153,153,153,,,,,,,,,,,,,348.7585503,0.008550300000024436,None,385.4689112999995,385.4689112999995,385.4689112999995,385.4689112999995,385.4689112999995,385.4689112999995,385.4689112999995,385.4689112999995,385.4689112999995,385.4689112999995,,001,P019,2025_Mar_21_0940,ConditionRich,2021.2.3,59.94294630377987,
352.0,352.75,37,0.75,Stimuli/P019/things_toaster_10s.jpg,0,0.0,0.0,0,154,154,154,,,,,,,,,,,,,352.0130116999999,0.013011699999879056,None,388.7384788999998,388.7384788999998,388.7384788999998,388.7384788999998,388.7384788999998,388.7384788999998,388.7384788999998,388.7384788999998,388.7384788999998,388.7384788999998,,001,P019,2025_Mar_21_0940,ConditionRich,2021.2.3,59.94294630377987,
352.75,356.0,41,0.0,Stimuli/Blank.png,0,0.0,0.0,0,155,155,155,,,,,,,,,,,,,352.7785472000005,0.028547200000502926,None,389.48908499999925,389.48908499999925,389.48908499999925,389.48908499999925,389.48908499999925,389.48908499999925,389.48908499999925,389.48908499999925,389.48908499999925,389.48908499999925,,001,P019,2025_Mar_21_0940,ConditionRich,2021.2.3,59.94294630377987,
356.0,356.75,20,0.75,Stimuli/P019/sun_dlnwonqxagdvtlta.jpg,0,0.0,0.0,0,156,156,156,,,,,,,,,,,,,356.01376359999995,0.013763599999947473,None,392.7252794999995,392.7252794999995,392.7252794999995,392.7252794999995,392.7252794999995,392.7252794999995,392.7252794999995,392.7252794999995,392.7252794999995,392.7252794999995,,001,P019,2025_Mar_21_0940,ConditionRich,2021.2.3,59.94294630377987,
356.75,360.0,41,0.0,Stimuli/Blank.png,0,0.0,0.0,0,157,157,157,,,,,,,,,,,,,356.7645567999998,0.0145567999998093,None,393.47596579999936,393.47596579999936,393.47596579999936,393.47596579999936,393.47596579999936,393.47596579999936,393.47596579999936,393.47596579999936,393.47596579999936,393.47596579999936,,001,P019,2025_Mar_21_0940,ConditionRich,2021.2.3,59.94294630377987,
360.0,360.75,39,0.75,Stimuli/P019/things_wire_10s.jpg,0,0.0,0.0,0,158,158,158,,,,,,,,,,,,,360.0040974000003,0.004097400000318885,None,396.72883849999926,396.72883849999926,396.72883849999926,396.72883849999926,396.72883849999926,396.72883849999926,396.72883849999926,396.72883849999926,396.72883849999926,396.72883849999926,,001,P019,2025_Mar_21_0940,ConditionRich,2021.2.3,59.94294630377987,
360.75,364.0,41,0.0,Stimuli/Blank.png,0,0.0,0.0,0,159,159,159,,,,,,,,,,,,,360.76811220000036,0.018112200000359735,None,397.47946799999954,397.47946799999954,397.47946799999954,397.47946799999954,397.47946799999954,397.47946799999954,397.47946799999954,397.47946799999954,397.47946799999954,397.47946799999954,,001,P019,2025_Mar_21_0940,ConditionRich,2021.2.3,59.94294630377987,
364.0,364.75,12,0.75,Stimuli/P019/sun_bgjrtiivbwugxhxp.jpg,0,0.0,0.0,0,160,160,160,,,,,,,,,,,,,364.0041547000001,0.004154700000071898,None,400.71566749999965,400.71566749999965,400.71566749999965,400.71566749999965,400.71566749999965,400.71566749999965,400.71566749999965,400.71566749999965,400.71566749999965,400.71566749999965,,001,P019,2025_Mar_21_0940,ConditionRich,2021.2.3,59.94294630377987,
364.75,368.0,41,0.0,Stimuli/Blank.png,0,0.0,0.0,0,161,161,161,,,,,,,,,,,,,364.7548208999997,0.004820899999685935,None,401.4663314999998,401.4663314999998,401.4663314999998,401.4663314999998,401.4663314999998,401.4663314999998,401.4663314999998,401.4663314999998,401.4663314999998,401.4663314999998,,001,P019,2025_Mar_21_0940,ConditionRich,2021.2.3,59.94294630377987,
368.0,368.75,26,0.75,Stimuli/P019/things_earwig_10n.jpg,0,0.0,0.0,0,162,162,162,,,,,,,,,,,,,368.00939110000036,0.009391100000357255,None,404.73591599999963,404.73591599999963,404.73591599999963,404.73591599999963,404.73591599999963,404.73591599999963,404.73591599999963,404.73591599999963,404.73591599999963,404.73591599999963,,001,P019,2025_Mar_21_0940,ConditionRich,2021.2.3,59.94294630377987,
368.75,372.0,41,0.0,Stimuli/Blank.png,0,0.0,0.0,0,163,163,163,,,,,,,,,,,,,368.7749851999997,0.024985199999719043,None,405.4865497999999,405.4865497999999,405.4865497999999,405.4865497999999,405.4865497999999,405.4865497999999,405.4865497999999,405.4865497999999,405.4865497999999,405.4865497999999,,001,P019,2025_Mar_21_0940,ConditionRich,2021.2.3,59.94294630377987,
372.0,388.0,0,0.0,Stimuli/Blank.png,1,9.0,9.75,0,164,164,164,,,,,,,,,,,,,372.0132888999997,0.013288899999679415,1,408.7394311999997,408.7394311999997,408.7394311999997,408.7394311999997,408.7394311999997,408.7394311999997,417.71405329999925,418.46466919999966,408.7394311999997,408.7394311999997,9.38113440000052,001,P019,2025_Mar_21_0940,ConditionRich,2021.2.3,59.94294630377987,
