eventStartTime,eventEndTime,eventCond,imSize,imFile,responseEvent,fixRespStart,fixRespEnd,Events.thisRepN,Events.thisTrialN,Events.thisN,Events.thisIndex,Instructions.started,Instructions.stopped,participantReadyResponse.keys,participantReadyResponse.rt,participantReadyResponse.started,participantReadyResponse.stopped,startWaitforTrigger,triggerResponse.keys,triggerResponse.rt,triggerResponse.started,triggerResponse.stopped,globalTimer,actualStartTime,startTimingDiff,participantResponse.keys,participantResponse.started,participantResponse.stopped,image.started,image.stopped,fixationOutside.started,fixationOutside.stopped,fixationResponse.started,fixationResponse.stopped,fixationInside.started,fixationInside.stopped,participantResponse.rt,session,participant,date,expName,psychopyVersion,frameRate,
,,,,,,,,,,,,12.542010300001493,None,1,2.2414584000016475,12.542010300001493,None,,,,,,,,,,,,,,,,,,,,,005,P019,2025_Mar_21_1019,ConditionRich,2021.2.3,59.89774257360265,
,,,,,,,,,,,,,,,,,,14.800378900001306,5,15.159111000000848,14.812429200001134,None,,,,,,,,,,,,,,,,005,P019,2025_Mar_21_1019,ConditionRich,2021.2.3,59.89774257360265,
0.0,4.0,0,0.0,Stimuli/Blank.png,0,0,0.0,0,0,0,0,,,,,,,,,,,,29.979436600000554,0.0679335999993782,0.0679335999993782,None,30.059240800001135,None,30.059240800001135,None,30.059240800001135,None,30.059240800001135,30.059240800001135,30.059240800001135,None,,005,P019,2025_Mar_21_1019,ConditionRich,2021.2.3,59.89774257360265,
4.0,4.75,27,0.75,Stimuli/P019/things_eel_10s.jpg,0,0,0.0,0,1,1,1,,,,,,,,,,,,,4.008417299999564,0.00841729999956442,None,34.01303619999999,34.01303619999999,34.01303619999999,34.01303619999999,34.01303619999999,34.01303619999999,34.01303619999999,34.01303619999999,34.01303619999999,34.01303619999999,,005,P019,2025_Mar_21_1019,ConditionRich,2021.2.3,59.89774257360265,
4.75,5.0,41,0.0,Stimuli/Blank.png,0,0,0.0,0,2,2,2,,,,,,,,,,,,,4.770739499999763,0.02073949999976321,None,34.76372220000121,34.76372220000121,34.76372220000121,34.76372220000121,34.76372220000121,34.76372220000121,34.76372220000121,34.76372220000121,34.76372220000121,34.76372220000121,,005,P019,2025_Mar_21_1019,ConditionRich,2021.2.3,59.89774257360265,
5.0,5.75,27,0.75,Stimuli/P019/things_eel_10s.jpg,0,0,0.0,0,3,3,3,,,,,,,,,,,,,5.005636699999741,0.005636699999740813,None,35.013600100000986,35.013600100000986,35.013600100000986,35.013600100000986,35.013600100000986,35.013600100000986,35.013600100000986,35.013600100000986,35.013600100000986,35.013600100000986,,005,P019,2025_Mar_21_1019,ConditionRich,2021.2.3,59.89774257360265,
5.75,6.0,41,0.0,Stimuli/Blank.png,0,0,0.0,0,4,4,4,,,,,,,,,,,,,5.770351799999844,0.020351799999843934,None,35.76428010000018,35.76428010000018,35.76428010000018,35.76428010000018,35.76428010000018,35.76428010000018,35.76428010000018,35.76428010000018,35.76428010000018,35.76428010000018,,005,P019,2025_Mar_21_1019,ConditionRich,2021.2.3,59.89774257360265,
6.0,6.75,27,0.75,Stimuli/P019/things_eel_10s.jpg,0,0,0.0,0,5,5,5,,,,,,,,,,,,,6.0052240999993955,0.005224099999395548,None,36.01450699999987,36.01450699999987,36.01450699999987,36.01450699999987,36.01450699999987,36.01450699999987,36.01450699999987,36.01450699999987,36.01450699999987,36.01450699999987,,005,P019,2025_Mar_21_1019,ConditionRich,2021.2.3,59.89774257360265,
6.75,7.0,41,0.0,Stimuli/Blank.png,0,0,0.0,0,6,6,6,,,,,,,,,,,,,6.771751199999926,0.02175119999992603,None,36.76516730000003,36.76516730000003,36.76516730000003,36.76516730000003,36.76516730000003,36.76516730000003,36.76516730000003,36.76516730000003,36.76516730000003,36.76516730000003,,005,P019,2025_Mar_21_1019,ConditionRich,2021.2.3,59.89774257360265,
7.0,7.75,27,0.75,Stimuli/P019/things_eel_10s.jpg,0,0,0.0,0,7,7,7,,,,,,,,,,,,,7.006276099999013,0.0062760999990132404,None,37.01538590000018,37.01538590000018,37.01538590000018,37.01538590000018,37.01538590000018,37.01538590000018,37.01538590000018,37.01538590000018,37.01538590000018,37.01538590000018,,005,P019,2025_Mar_21_1019,ConditionRich,2021.2.3,59.89774257360265,
7.75,8.0,41,0.0,Stimuli/Blank.png,0,0,0.0,0,8,8,8,,,,,,,,,,,,,7.772059099999751,0.022059099999751197,None,37.766111800001454,37.766111800001454,37.766111800001454,37.766111800001454,37.766111800001454,37.766111800001454,37.766111800001454,37.766111800001454,37.766111800001454,37.766111800001454,,005,P019,2025_Mar_21_1019,ConditionRich,2021.2.3,59.89774257360265,
8.0,8.75,21,0.75,Stimuli/P019/things_anteater_10s.jpg,0,0,0.0,0,9,9,9,,,,,,,,,,,,,8.005668599998899,0.005668599998898571,None,37.99966350000068,37.99966350000068,37.99966350000068,37.99966350000068,37.99966350000068,37.99966350000068,37.99966350000068,37.99966350000068,37.99966350000068,37.99966350000068,,005,P019,2025_Mar_21_1019,ConditionRich,2021.2.3,59.89774257360265,
8.75,9.0,41,0.0,Stimuli/Blank.png,0,0,0.0,0,10,10,10,,,,,,,,,,,,,8.756346699999995,0.006346699999994598,None,38.7502467000013,38.7502467000013,38.7502467000013,38.7502467000013,38.7502467000013,38.7502467000013,38.7502467000013,38.7502467000013,38.7502467000013,38.7502467000013,,005,P019,2025_Mar_21_1019,ConditionRich,2021.2.3,59.89774257360265,
9.0,9.75,21,0.75,Stimuli/P019/things_anteater_10s.jpg,0,0,0.0,0,11,11,11,,,,,,,,,,,,,9.006512699999803,0.006512699999802862,None,39.00047580000137,39.00047580000137,39.00047580000137,39.00047580000137,39.00047580000137,39.00047580000137,39.00047580000137,39.00047580000137,39.00047580000137,39.00047580000137,,005,P019,2025_Mar_21_1019,ConditionRich,2021.2.3,59.89774257360265,
9.75,10.0,41,0.0,Stimuli/Blank.png,0,0,0.0,0,12,12,12,,,,,,,,,,,,,9.759924299998602,0.009924299998601782,None,39.76782749999984,39.76782749999984,39.76782749999984,39.76782749999984,39.76782749999984,39.76782749999984,39.76782749999984,39.76782749999984,39.76782749999984,39.76782749999984,,005,P019,2025_Mar_21_1019,ConditionRich,2021.2.3,59.89774257360265,
10.0,10.75,21,0.75,Stimuli/P019/things_anteater_10s.jpg,0,0,0.0,0,13,13,13,,,,,,,,,,,,,10.025122799999735,0.025122799999735435,None,40.01804020000054,40.01804020000054,40.01804020000054,40.01804020000054,40.01804020000054,40.01804020000054,40.01804020000054,40.01804020000054,40.01804020000054,40.01804020000054,,005,P019,2025_Mar_21_1019,ConditionRich,2021.2.3,59.89774257360265,
10.75,11.0,41,0.0,Stimuli/Blank.png,0,0,0.0,0,14,14,14,,,,,,,,,,,,,10.759905799999615,0.009905799999614828,None,40.76871140000003,40.76871140000003,40.76871140000003,40.76871140000003,40.76871140000003,40.76871140000003,40.76871140000003,40.76871140000003,40.76871140000003,40.76871140000003,,005,P019,2025_Mar_21_1019,ConditionRich,2021.2.3,59.89774257360265,
11.0,11.75,21,0.75,Stimuli/P019/things_anteater_10s.jpg,0,0,0.0,0,15,15,15,,,,,,,,,,,,,11.025585099998352,0.025585099998352234,None,41.018928999999844,41.018928999999844,41.018928999999844,41.018928999999844,41.018928999999844,41.018928999999844,41.018928999999844,41.018928999999844,41.018928999999844,41.018928999999844,,005,P019,2025_Mar_21_1019,ConditionRich,2021.2.3,59.89774257360265,
11.75,12.0,41,0.0,Stimuli/Blank.png,0,0,0.0,0,16,16,16,,,,,,,,,,,,,11.761134599999423,0.01113459999942279,None,41.75292750000153,41.75292750000153,41.75292750000153,41.75292750000153,41.75292750000153,41.75292750000153,41.75292750000153,41.75292750000153,41.75292750000153,41.75292750000153,,005,P019,2025_Mar_21_1019,ConditionRich,2021.2.3,59.89774257360265,
12.0,12.75,2,0.75,Stimuli/P019/sun_ajhvfwzgpfovdgid.jpg,0,0,0.0,0,17,17,17,,,,,,,,,,,,,12.009672299998783,0.009672299998783274,None,42.00312170000143,42.00312170000143,42.00312170000143,42.00312170000143,42.00312170000143,42.00312170000143,42.00312170000143,42.00312170000143,42.00312170000143,42.00312170000143,,005,P019,2025_Mar_21_1019,ConditionRich,2021.2.3,59.89774257360265,
12.75,13.0,41,0.0,Stimuli/Blank.png,0,0,0.0,0,18,18,18,,,,,,,,,,,,,12.760484099999303,0.010484099999302998,None,42.75380270000096,42.75380270000096,42.75380270000096,42.75380270000096,42.75380270000096,42.75380270000096,42.75380270000096,42.75380270000096,42.75380270000096,42.75380270000096,,005,P019,2025_Mar_21_1019,ConditionRich,2021.2.3,59.89774257360265,
13.0,13.75,2,0.75,Stimuli/P019/sun_ajhvfwzgpfovdgid.jpg,0,0,0.0,0,19,19,19,,,,,,,,,,,,,13.010074399999212,0.010074399999211892,None,43.0040110000009,43.0040110000009,43.0040110000009,43.0040110000009,43.0040110000009,43.0040110000009,43.0040110000009,43.0040110000009,43.0040110000009,43.0040110000009,,005,P019,2025_Mar_21_1019,ConditionRich,2021.2.3,59.89774257360265,
13.75,14.0,41,0.0,Stimuli/Blank.png,0,0,0.0,0,20,20,20,,,,,,,,,,,,,13.76074879999942,0.010748799999419134,None,43.75467630000094,43.75467630000094,43.75467630000094,43.75467630000094,43.75467630000094,43.75467630000094,43.75467630000094,43.75467630000094,43.75467630000094,43.75467630000094,,005,P019,2025_Mar_21_1019,ConditionRich,2021.2.3,59.89774257360265,
14.0,14.75,2,0.75,Stimuli/P019/sun_ajhvfwzgpfovdgid.jpg,0,0,0.0,0,21,21,21,,,,,,,,,,,,,14.011032799999157,0.01103279999915685,None,44.021585600001345,44.021585600001345,44.021585600001345,44.021585600001345,44.021585600001345,44.021585600001345,44.021585600001345,44.021585600001345,44.021585600001345,44.021585600001345,,005,P019,2025_Mar_21_1019,ConditionRich,2021.2.3,59.89774257360265,
14.75,15.0,41,0.0,Stimuli/Blank.png,0,0,0.0,0,22,22,22,,,,,,,,,,,,,14.780210999999326,0.030210999999326305,None,44.788942700000916,44.788942700000916,44.788942700000916,44.788942700000916,44.788942700000916,44.788942700000916,44.788942700000916,44.788942700000916,44.788942700000916,44.788942700000916,,005,P019,2025_Mar_21_1019,ConditionRich,2021.2.3,59.89774257360265,
15.0,15.75,2,0.75,Stimuli/P019/sun_ajhvfwzgpfovdgid.jpg,0,0,0.0,0,23,23,23,,,,,,,,,,,,,15.02942449999864,0.029424499998640385,None,45.03917470000124,45.03917470000124,45.03917470000124,45.03917470000124,45.03917470000124,45.03917470000124,45.03917470000124,45.03917470000124,45.03917470000124,45.03917470000124,,005,P019,2025_Mar_21_1019,ConditionRich,2021.2.3,59.89774257360265,
15.75,16.0,41,0.0,Stimuli/Blank.png,0,0,0.0,0,24,24,24,,,,,,,,,,,,,15.779045799999949,0.02904579999994894,None,45.77312549999988,45.77312549999988,45.77312549999988,45.77312549999988,45.77312549999988,45.77312549999988,45.77312549999988,45.77312549999988,45.77312549999988,45.77312549999988,,005,P019,2025_Mar_21_1019,ConditionRich,2021.2.3,59.89774257360265,
16.0,16.75,34,0.75,Stimuli/P019/things_man_10s.jpg,0,0,0.0,0,25,25,25,,,,,,,,,,,,,16.012861299999713,0.012861299999713083,None,46.006668300000456,46.006668300000456,46.006668300000456,46.006668300000456,46.006668300000456,46.006668300000456,46.006668300000456,46.006668300000456,46.006668300000456,46.006668300000456,,005,P019,2025_Mar_21_1019,ConditionRich,2021.2.3,59.89774257360265,
16.75,17.0,41,0.0,Stimuli/Blank.png,0,0,0.0,0,26,26,26,,,,,,,,,,,,,16.763987199999974,0.01398719999997411,None,46.75733279999986,46.75733279999986,46.75733279999986,46.75733279999986,46.75733279999986,46.75733279999986,46.75733279999986,46.75733279999986,46.75733279999986,46.75733279999986,,005,P019,2025_Mar_21_1019,ConditionRich,2021.2.3,59.89774257360265,
17.0,17.75,34,0.75,Stimuli/P019/things_man_10s.jpg,0,0,0.0,0,27,27,27,,,,,,,,,,,,,17.01391439999861,0.01391439999861177,None,47.00754920000145,47.00754920000145,47.00754920000145,47.00754920000145,47.00754920000145,47.00754920000145,47.00754920000145,47.00754920000145,47.00754920000145,47.00754920000145,,005,P019,2025_Mar_21_1019,ConditionRich,2021.2.3,59.89774257360265,
17.75,18.0,41,0.0,Stimuli/Blank.png,0,0,0.0,0,28,28,28,,,,,,,,,,,,,17.76451839999936,0.014518399999360554,None,47.75820980000026,47.75820980000026,47.75820980000026,47.75820980000026,47.75820980000026,47.75820980000026,47.75820980000026,47.75820980000026,47.75820980000026,47.75820980000026,,005,P019,2025_Mar_21_1019,ConditionRich,2021.2.3,59.89774257360265,
18.0,18.75,34,0.75,Stimuli/P019/things_man_10s.jpg,0,0,0.0,0,29,29,29,,,,,,,,,,,,,18.014749999998457,0.014749999998457497,None,48.00840710000011,48.00840710000011,48.00840710000011,48.00840710000011,48.00840710000011,48.00840710000011,48.00840710000011,48.00840710000011,48.00840710000011,48.00840710000011,,005,P019,2025_Mar_21_1019,ConditionRich,2021.2.3,59.89774257360265,
18.75,19.0,41,0.0,Stimuli/Blank.png,0,0,0.0,0,30,30,30,,,,,,,,,,,,,18.76585989999876,0.01585989999875892,None,48.759092400001464,48.759092400001464,48.759092400001464,48.759092400001464,48.759092400001464,48.759092400001464,48.759092400001464,48.759092400001464,48.759092400001464,48.759092400001464,,005,P019,2025_Mar_21_1019,ConditionRich,2021.2.3,59.89774257360265,
19.0,19.75,34,0.75,Stimuli/P019/things_man_10s.jpg,0,0,0.0,0,31,31,31,,,,,,,,,,,,,18.999220299998342,-0.0007797000016580569,None,48.99263810000048,48.99263810000048,48.99263810000048,48.99263810000048,48.99263810000048,48.99263810000048,48.99263810000048,48.99263810000048,48.99263810000048,48.99263810000048,,005,P019,2025_Mar_21_1019,ConditionRich,2021.2.3,59.89774257360265,
19.75,20.0,41,0.0,Stimuli/Blank.png,0,0,0.0,0,32,32,32,,,,,,,,,,,,,19.7498887999991,-0.0001112000009015901,None,49.74330020000161,49.74330020000161,49.74330020000161,49.74330020000161,49.74330020000161,49.74330020000161,49.74330020000161,49.74330020000161,49.74330020000161,49.74330020000161,,005,P019,2025_Mar_21_1019,ConditionRich,2021.2.3,59.89774257360265,
20.0,20.75,39,0.75,Stimuli/P019/things_wire_10s.jpg,0,0,0.0,0,33,33,33,,,,,,,,,,,,,19.99966559999848,-0.0003344000015204074,None,49.9935131000002,49.9935131000002,49.9935131000002,49.9935131000002,49.9935131000002,49.9935131000002,49.9935131000002,49.9935131000002,49.9935131000002,49.9935131000002,,005,P019,2025_Mar_21_1019,ConditionRich,2021.2.3,59.89774257360265,
20.75,21.0,41,0.0,Stimuli/Blank.png,0,0,0.0,0,34,34,34,,,,,,,,,,,,,20.750712699998985,0.0007126999989850447,None,50.74418230000083,50.74418230000083,50.74418230000083,50.74418230000083,50.74418230000083,50.74418230000083,50.74418230000083,50.74418230000083,50.74418230000083,50.74418230000083,,005,P019,2025_Mar_21_1019,ConditionRich,2021.2.3,59.89774257360265,
21.0,21.75,39,0.75,Stimuli/P019/things_wire_10s.jpg,0,0,0.0,0,35,35,35,,,,,,,,,,,,,21.00060349999876,0.0006034999987605261,None,50.994402100001025,50.994402100001025,50.994402100001025,50.994402100001025,50.994402100001025,50.994402100001025,50.994402100001025,50.994402100001025,50.994402100001025,50.994402100001025,,005,P019,2025_Mar_21_1019,ConditionRich,2021.2.3,59.89774257360265,
21.75,22.0,41,0.0,Stimuli/Blank.png,0,0,0.0,0,36,36,36,,,,,,,,,,,,,21.751150799998868,0.001150799998868024,None,51.7450714000006,51.7450714000006,51.7450714000006,51.7450714000006,51.7450714000006,51.7450714000006,51.7450714000006,51.7450714000006,51.7450714000006,51.7450714000006,,005,P019,2025_Mar_21_1019,ConditionRich,2021.2.3,59.89774257360265,
22.0,22.75,39,0.75,Stimuli/P019/things_wire_10s.jpg,0,0,0.0,0,37,37,37,,,,,,,,,,,,,22.001425099999324,0.0014250999993237201,None,52.01197140000113,52.01197140000113,52.01197140000113,52.01197140000113,52.01197140000113,52.01197140000113,52.01197140000113,52.01197140000113,52.01197140000113,52.01197140000113,,005,P019,2025_Mar_21_1019,ConditionRich,2021.2.3,59.89774257360265,
22.75,23.0,41,0.0,Stimuli/Blank.png,0,0,0.0,0,38,38,38,,,,,,,,,,,,,22.77021909999894,0.020219099998939782,None,52.76264470000024,52.76264470000024,52.76264470000024,52.76264470000024,52.76264470000024,52.76264470000024,52.76264470000024,52.76264470000024,52.76264470000024,52.76264470000024,,005,P019,2025_Mar_21_1019,ConditionRich,2021.2.3,59.89774257360265,
23.0,23.75,39,0.75,Stimuli/P019/things_wire_10s.jpg,0,0,0.0,0,39,39,39,,,,,,,,,,,,,23.002102899999954,0.0021028999999543885,None,53.012861400000475,53.012861400000475,53.012861400000475,53.012861400000475,53.012861400000475,53.012861400000475,53.012861400000475,53.012861400000475,53.012861400000475,53.012861400000475,,005,P019,2025_Mar_21_1019,ConditionRich,2021.2.3,59.89774257360265,
23.75,24.0,41,0.0,Stimuli/Blank.png,0,0,0.0,0,40,40,40,,,,,,,,,,,,,23.769672999998875,0.01967299999887473,None,53.76351280000017,53.76351280000017,53.76351280000017,53.76351280000017,53.76351280000017,53.76351280000017,53.76351280000017,53.76351280000017,53.76351280000017,53.76351280000017,,005,P019,2025_Mar_21_1019,ConditionRich,2021.2.3,59.89774257360265,
24.0,24.75,37,0.75,Stimuli/P019/things_toaster_10s.jpg,0,0,0.0,0,41,41,41,,,,,,,,,,,,,24.003916699999536,0.003916699999535922,None,53.99705340000037,53.99705340000037,53.99705340000037,53.99705340000037,53.99705340000037,53.99705340000037,53.99705340000037,53.99705340000037,53.99705340000037,53.99705340000037,,005,P019,2025_Mar_21_1019,ConditionRich,2021.2.3,59.89774257360265,
24.75,25.0,41,0.0,Stimuli/Blank.png,0,0,0.0,0,42,42,42,,,,,,,,,,,,,24.75563509999847,0.00563509999847156,None,54.764431600000535,54.764431600000535,54.764431600000535,54.764431600000535,54.764431600000535,54.764431600000535,54.764431600000535,54.764431600000535,54.764431600000535,54.764431600000535,,005,P019,2025_Mar_21_1019,ConditionRich,2021.2.3,59.89774257360265,
25.0,25.75,37,0.75,Stimuli/P019/things_toaster_10s.jpg,0,0,0.0,0,43,43,43,,,,,,,,,,,,,25.020581099999617,0.020581099999617436,None,55.01459150000119,55.01459150000119,55.01459150000119,55.01459150000119,55.01459150000119,55.01459150000119,55.01459150000119,55.01459150000119,55.01459150000119,55.01459150000119,,005,P019,2025_Mar_21_1019,ConditionRich,2021.2.3,59.89774257360265,
25.75,26.0,41,0.0,Stimuli/Blank.png,0,0,0.0,0,44,44,44,,,,,,,,,,,,,25.75524419999965,0.005244199999651755,None,55.7486157000003,55.7486157000003,55.7486157000003,55.7486157000003,55.7486157000003,55.7486157000003,55.7486157000003,55.7486157000003,55.7486157000003,55.7486157000003,,005,P019,2025_Mar_21_1019,ConditionRich,2021.2.3,59.89774257360265,
26.0,26.75,37,0.75,Stimuli/P019/things_toaster_10s.jpg,0,0,0.0,0,45,45,45,,,,,,,,,,,,,26.005820099999255,0.005820099999255035,None,55.99881690000075,55.99881690000075,55.99881690000075,55.99881690000075,55.99881690000075,55.99881690000075,55.99881690000075,55.99881690000075,55.99881690000075,55.99881690000075,,005,P019,2025_Mar_21_1019,ConditionRich,2021.2.3,59.89774257360265,
26.75,27.0,41,0.0,Stimuli/Blank.png,0,0,0.0,0,46,46,46,,,,,,,,,,,,,26.7555425999999,0.005542599999898812,None,56.749493500001336,56.749493500001336,56.749493500001336,56.749493500001336,56.749493500001336,56.749493500001336,56.749493500001336,56.749493500001336,56.749493500001336,56.749493500001336,,005,P019,2025_Mar_21_1019,ConditionRich,2021.2.3,59.89774257360265,
27.0,27.75,37,0.75,Stimuli/P019/things_toaster_10s.jpg,0,0,0.0,0,47,47,47,,,,,,,,,,,,,27.005773699998826,0.005773699998826487,None,56.99970200000098,56.99970200000098,56.99970200000098,56.99970200000098,56.99970200000098,56.99970200000098,56.99970200000098,56.99970200000098,56.99970200000098,56.99970200000098,,005,P019,2025_Mar_21_1019,ConditionRich,2021.2.3,59.89774257360265,
27.75,28.0,41,0.0,Stimuli/Blank.png,0,0,0.0,0,48,48,48,,,,,,,,,,,,,27.756890799999383,0.00689079999938258,None,57.75036580000051,57.75036580000051,57.75036580000051,57.75036580000051,57.75036580000051,57.75036580000051,57.75036580000051,57.75036580000051,57.75036580000051,57.75036580000051,,005,P019,2025_Mar_21_1019,ConditionRich,2021.2.3,59.89774257360265,
28.0,28.75,8,0.75,Stimuli/P019/sun_avbzvunekksfggon.jpg,0,0,0.0,0,49,49,49,,,,,,,,,,,,,28.006554799998412,0.006554799998411909,None,58.00059140000121,58.00059140000121,58.00059140000121,58.00059140000121,58.00059140000121,58.00059140000121,58.00059140000121,58.00059140000121,58.00059140000121,58.00059140000121,,005,P019,2025_Mar_21_1019,ConditionRich,2021.2.3,59.89774257360265,
28.75,29.0,41,0.0,Stimuli/Blank.png,0,0,0.0,0,50,50,50,,,,,,,,,,,,,28.757208299999547,0.007208299999547307,None,58.751256400000784,58.751256400000784,58.751256400000784,58.751256400000784,58.751256400000784,58.751256400000784,58.751256400000784,58.751256400000784,58.751256400000784,58.751256400000784,,005,P019,2025_Mar_21_1019,ConditionRich,2021.2.3,59.89774257360265,
29.0,29.75,8,0.75,Stimuli/P019/sun_avbzvunekksfggon.jpg,0,0,0.0,0,51,51,51,,,,,,,,,,,,,29.00752889999967,0.007528899999670102,None,59.001473199999964,59.001473199999964,59.001473199999964,59.001473199999964,59.001473199999964,59.001473199999964,59.001473199999964,59.001473199999964,59.001473199999964,59.001473199999964,,005,P019,2025_Mar_21_1019,ConditionRich,2021.2.3,59.89774257360265,
29.75,30.0,41,0.0,Stimuli/Blank.png,0,0,0.0,0,52,52,52,,,,,,,,,,,,,29.759577499999068,0.009577499999068095,None,59.75215610000123,59.75215610000123,59.75215610000123,59.75215610000123,59.75215610000123,59.75215610000123,59.75215610000123,59.75215610000123,59.75215610000123,59.75215610000123,,005,P019,2025_Mar_21_1019,ConditionRich,2021.2.3,59.89774257360265,
30.0,30.75,8,0.75,Stimuli/P019/sun_avbzvunekksfggon.jpg,0,0,0.0,0,53,53,53,,,,,,,,,,,,,30.008463399999528,0.00846339999952761,None,60.002359800000704,60.002359800000704,60.002359800000704,60.002359800000704,60.002359800000704,60.002359800000704,60.002359800000704,60.002359800000704,60.002359800000704,60.002359800000704,,005,P019,2025_Mar_21_1019,ConditionRich,2021.2.3,59.89774257360265,
30.75,31.0,41,0.0,Stimuli/Blank.png,0,0,0.0,0,54,54,54,,,,,,,,,,,,,30.759634399999413,0.00963439999941329,None,60.75303210000129,60.75303210000129,60.75303210000129,60.75303210000129,60.75303210000129,60.75303210000129,60.75303210000129,60.75303210000129,60.75303210000129,60.75303210000129,,005,P019,2025_Mar_21_1019,ConditionRich,2021.2.3,59.89774257360265,
31.0,31.75,8,0.75,Stimuli/P019/sun_avbzvunekksfggon.jpg,0,0,0.0,0,55,55,55,,,,,,,,,,,,,31.0103696999995,0.010369699999500881,None,61.00324490000094,61.00324490000094,61.00324490000094,61.00324490000094,61.00324490000094,61.00324490000094,61.00324490000094,61.00324490000094,61.00324490000094,61.00324490000094,,005,P019,2025_Mar_21_1019,ConditionRich,2021.2.3,59.89774257360265,
31.75,32.0,41,0.0,Stimuli/Blank.png,0,0,0.0,0,56,56,56,,,,,,,,,,,,,31.759871499998553,0.00987149999855319,None,61.75391220000165,61.75391220000165,61.75391220000165,61.75391220000165,61.75391220000165,61.75391220000165,61.75391220000165,61.75391220000165,61.75391220000165,61.75391220000165,,005,P019,2025_Mar_21_1019,ConditionRich,2021.2.3,59.89774257360265,
32.0,32.75,19,0.75,Stimuli/P019/sun_byssdezaaqnthppd.jpg,1,0,0.75,0,57,57,57,,,,,,,,,,,,,32.01111689999925,0.011116899999251473,1,62.00413060000028,62.00413060000028,62.00413060000028,62.00413060000028,62.00413060000028,62.00413060000028,62.00413060000028,62.738110100000995,62.00413060000028,62.00413060000028,0.4813856000000669,005,P019,2025_Mar_21_1019,ConditionRich,2021.2.3,59.89774257360265,
32.75,33.0,41,0.0,Stimuli/Blank.png,0,0,0.0,0,58,58,58,,,,,,,,,,,,,32.76136159999987,0.011361599999872851,None,62.75478680000015,62.75478680000015,62.75478680000015,62.75478680000015,62.75478680000015,62.75478680000015,62.75478680000015,62.75478680000015,62.75478680000015,62.75478680000015,,005,P019,2025_Mar_21_1019,ConditionRich,2021.2.3,59.89774257360265,
33.0,33.75,19,0.75,Stimuli/P019/sun_byssdezaaqnthppd.jpg,0,0,0.0,0,59,59,59,,,,,,,,,,,,,33.011214899999686,0.011214899999686168,None,63.021696200001315,63.021696200001315,63.021696200001315,63.021696200001315,63.021696200001315,63.021696200001315,63.021696200001315,63.021696200001315,63.021696200001315,63.021696200001315,,005,P019,2025_Mar_21_1019,ConditionRich,2021.2.3,59.89774257360265,
33.75,34.0,41,0.0,Stimuli/Blank.png,0,0,0.0,0,60,60,60,,,,,,,,,,,,,33.778456999998525,0.028456999998525134,None,63.77235500000097,63.77235500000097,63.77235500000097,63.77235500000097,63.77235500000097,63.77235500000097,63.77235500000097,63.77235500000097,63.77235500000097,63.77235500000097,,005,P019,2025_Mar_21_1019,ConditionRich,2021.2.3,59.89774257360265,
34.0,34.75,19,0.75,Stimuli/P019/sun_byssdezaaqnthppd.jpg,0,0,0.0,0,61,61,61,,,,,,,,,,,,,34.0134083999983,0.013408399998297682,None,64.02258000000074,64.02258000000074,64.02258000000074,64.02258000000074,64.02258000000074,64.02258000000074,64.02258000000074,64.02258000000074,64.02258000000074,64.02258000000074,,005,P019,2025_Mar_21_1019,ConditionRich,2021.2.3,59.89774257360265,
34.75,35.0,41,0.0,Stimuli/Blank.png,0,0,0.0,0,62,62,62,,,,,,,,,,,,,34.77999979999913,0.029999799999131938,None,64.77324560000125,64.77324560000125,64.77324560000125,64.77324560000125,64.77324560000125,64.77324560000125,64.77324560000125,64.77324560000125,64.77324560000125,64.77324560000125,,005,P019,2025_Mar_21_1019,ConditionRich,2021.2.3,59.89774257360265,
35.0,35.75,19,0.75,Stimuli/P019/sun_byssdezaaqnthppd.jpg,0,0,0.0,0,63,63,63,,,,,,,,,,,,,35.012915299999804,0.01291529999980412,None,65.0067798,65.0067798,65.0067798,65.0067798,65.0067798,65.0067798,65.0067798,65.0067798,65.0067798,65.0067798,,005,P019,2025_Mar_21_1019,ConditionRich,2021.2.3,59.89774257360265,
35.75,36.0,41,0.0,Stimuli/Blank.png,0,0,0.0,0,64,64,64,,,,,,,,,,,,,35.763893299999836,0.013893299999836017,None,65.75744280000072,65.75744280000072,65.75744280000072,65.75744280000072,65.75744280000072,65.75744280000072,65.75744280000072,65.75744280000072,65.75744280000072,65.75744280000072,,005,P019,2025_Mar_21_1019,ConditionRich,2021.2.3,59.89774257360265,
36.0,36.75,26,0.75,Stimuli/P019/things_earwig_10n.jpg,0,0,0.0,0,65,65,65,,,,,,,,,,,,,36.014349299999594,0.014349299999594223,None,66.00767040000028,66.00767040000028,66.00767040000028,66.00767040000028,66.00767040000028,66.00767040000028,66.00767040000028,66.00767040000028,66.00767040000028,66.00767040000028,,005,P019,2025_Mar_21_1019,ConditionRich,2021.2.3,59.89774257360265,
36.75,37.0,41,0.0,Stimuli/Blank.png,0,0,0.0,0,66,66,66,,,,,,,,,,,,,36.765018099999,0.015018099998997059,None,66.75831400000061,66.75831400000061,66.75831400000061,66.75831400000061,66.75831400000061,66.75831400000061,66.75831400000061,66.75831400000061,66.75831400000061,66.75831400000061,,005,P019,2025_Mar_21_1019,ConditionRich,2021.2.3,59.89774257360265,
37.0,37.75,26,0.75,Stimuli/P019/things_earwig_10n.jpg,0,0,0.0,0,67,67,67,,,,,,,,,,,,,37.015251399998306,0.015251399998305715,None,67.00855450000017,67.00855450000017,67.00855450000017,67.00855450000017,67.00855450000017,67.00855450000017,67.00855450000017,67.00855450000017,67.00855450000017,67.00855450000017,,005,P019,2025_Mar_21_1019,ConditionRich,2021.2.3,59.89774257360265,
37.75,38.0,41,0.0,Stimuli/Blank.png,0,0,0.0,0,68,68,68,,,,,,,,,,,,,37.749469299998964,-0.0005307000010361662,None,67.74252810000144,67.74252810000144,67.74252810000144,67.74252810000144,67.74252810000144,67.74252810000144,67.74252810000144,67.74252810000144,67.74252810000144,67.74252810000144,,005,P019,2025_Mar_21_1019,ConditionRich,2021.2.3,59.89774257360265,
38.0,38.75,26,0.75,Stimuli/P019/things_earwig_10n.jpg,1,0,0.75,0,69,69,69,,,,,,,,,,,,,37.99989949999872,-0.0001005000012810342,None,68.00943700000062,68.00943700000062,68.00943700000062,68.00943700000062,68.00943700000062,68.00943700000062,68.00943700000062,68.7267695999999,68.00943700000062,68.00943700000062,,005,P019,2025_Mar_21_1019,ConditionRich,2021.2.3,59.89774257360265,
38.75,39.0,41,0.0,Stimuli/Blank.png,0,0,0.0,0,70,70,70,,,,,,,,,,,,,38.766182799998205,0.016182799998205155,None,68.76010120000137,68.76010120000137,68.76010120000137,68.76010120000137,68.76010120000137,68.76010120000137,68.76010120000137,68.76010120000137,68.76010120000137,68.76010120000137,,005,P019,2025_Mar_21_1019,ConditionRich,2021.2.3,59.89774257360265,
39.0,39.75,26,0.75,Stimuli/P019/things_earwig_10n.jpg,0,0,0.0,0,71,71,71,,,,,,,,,,,,,38.99969229999988,-0.0003077000001212582,1,68.99368040000081,68.99368040000081,68.99368040000081,68.99368040000081,68.99368040000081,68.99368040000081,68.99368040000081,68.99368040000081,68.99368040000081,68.99368040000081,0.1200741000011476,005,P019,2025_Mar_21_1019,ConditionRich,2021.2.3,59.89774257360265,
39.75,40.0,41,0.0,Stimuli/Blank.png,0,0,0.0,0,72,72,72,,,,,,,,,,,,,39.75042879999819,0.0004287999981897883,None,69.74429870000131,69.74429870000131,69.74429870000131,69.74429870000131,69.74429870000131,69.74429870000131,69.74429870000131,69.74429870000131,69.74429870000131,69.74429870000131,,005,P019,2025_Mar_21_1019,ConditionRich,2021.2.3,59.89774257360265,
40.0,40.75,5,0.75,Stimuli/P019/sun_amjqxnqvhovkotym.jpg,0,0,0.0,0,73,73,73,,,,,,,,,,,,,40.000483599998915,0.0004835999989154516,None,69.99451390000104,69.99451390000104,69.99451390000104,69.99451390000104,69.99451390000104,69.99451390000104,69.99451390000104,69.99451390000104,69.99451390000104,69.99451390000104,,005,P019,2025_Mar_21_1019,ConditionRich,2021.2.3,59.89774257360265,
40.75,41.0,41,0.0,Stimuli/Blank.png,0,0,0.0,0,74,74,74,,,,,,,,,,,,,40.751088699998945,0.0010886999989452306,None,70.74517960000048,70.74517960000048,70.74517960000048,70.74517960000048,70.74517960000048,70.74517960000048,70.74517960000048,70.74517960000048,70.74517960000048,70.74517960000048,,005,P019,2025_Mar_21_1019,ConditionRich,2021.2.3,59.89774257360265,
41.0,41.75,5,0.75,Stimuli/P019/sun_amjqxnqvhovkotym.jpg,0,0,0.0,0,75,75,75,,,,,,,,,,,,,41.00268689999939,0.002686899999389425,None,71.01208720000068,71.01208720000068,71.01208720000068,71.01208720000068,71.01208720000068,71.01208720000068,71.01208720000068,71.01208720000068,71.01208720000068,71.01208720000068,,005,P019,2025_Mar_21_1019,ConditionRich,2021.2.3,59.89774257360265,
41.75,42.0,41,0.0,Stimuli/Blank.png,0,0,0.0,0,76,76,76,,,,,,,,,,,,,41.76934899999833,0.01934899999832851,None,71.76276340000004,71.76276340000004,71.76276340000004,71.76276340000004,71.76276340000004,71.76276340000004,71.76276340000004,71.76276340000004,71.76276340000004,71.76276340000004,,005,P019,2025_Mar_21_1019,ConditionRich,2021.2.3,59.89774257360265,
42.0,42.75,5,0.75,Stimuli/P019/sun_amjqxnqvhovkotym.jpg,0,0,0.0,0,77,77,77,,,,,,,,,,,,,42.00489659999948,0.004896599999483442,None,72.01297909999994,72.01297909999994,72.01297909999994,72.01297909999994,72.01297909999994,72.01297909999994,72.01297909999994,72.01297909999994,72.01297909999994,72.01297909999994,,005,P019,2025_Mar_21_1019,ConditionRich,2021.2.3,59.89774257360265,
42.75,43.0,41,0.0,Stimuli/Blank.png,0,0,0.0,0,78,78,78,,,,,,,,,,,,,42.771172799999476,0.02117279999947641,None,72.76361240000006,72.76361240000006,72.76361240000006,72.76361240000006,72.76361240000006,72.76361240000006,72.76361240000006,72.76361240000006,72.76361240000006,72.76361240000006,,005,P019,2025_Mar_21_1019,ConditionRich,2021.2.3,59.89774257360265,
43.0,43.75,5,0.75,Stimuli/P019/sun_amjqxnqvhovkotym.jpg,0,0,0.0,0,79,79,79,,,,,,,,,,,,,43.004415899999,0.004415899999003159,None,72.9971757000003,72.9971757000003,72.9971757000003,72.9971757000003,72.9971757000003,72.9971757000003,72.9971757000003,72.9971757000003,72.9971757000003,72.9971757000003,,005,P019,2025_Mar_21_1019,ConditionRich,2021.2.3,59.89774257360265,
43.75,44.0,41,0.0,Stimuli/Blank.png,0,0,0.0,0,80,80,80,,,,,,,,,,,,,43.754527599998255,0.0045275999982550275,None,73.74784460000046,73.74784460000046,73.74784460000046,73.74784460000046,73.74784460000046,73.74784460000046,73.74784460000046,73.74784460000046,73.74784460000046,73.74784460000046,,005,P019,2025_Mar_21_1019,ConditionRich,2021.2.3,59.89774257360265,
44.0,44.75,14,0.75,Stimuli/P019/sun_birvagufpcschyrr.jpg,1,0,0.75,0,81,81,81,,,,,,,,,,,,,44.005496499999936,0.005496499999935622,1,74.01474080000116,74.01474080000116,74.01474080000116,74.01474080000116,74.01474080000116,74.01474080000116,74.01474080000116,74.73207440000078,74.01474080000116,74.01474080000116,0.4198051999992458,005,P019,2025_Mar_21_1019,ConditionRich,2021.2.3,59.89774257360265,
44.75,45.0,41,0.0,Stimuli/Blank.png,0,0,0.0,0,82,82,82,,,,,,,,,,,,,44.771718599999076,0.021718599999076105,None,74.7653964000001,74.7653964000001,74.7653964000001,74.7653964000001,74.7653964000001,74.7653964000001,74.7653964000001,74.7653964000001,74.7653964000001,74.7653964000001,,005,P019,2025_Mar_21_1019,ConditionRich,2021.2.3,59.89774257360265,
45.0,45.75,14,0.75,Stimuli/P019/sun_birvagufpcschyrr.jpg,0,0,0.0,0,83,83,83,,,,,,,,,,,,,45.00546419999955,0.005464199999551056,None,74.99893370000063,74.99893370000063,74.99893370000063,74.99893370000063,74.99893370000063,74.99893370000063,74.99893370000063,74.99893370000063,74.99893370000063,74.99893370000063,,005,P019,2025_Mar_21_1019,ConditionRich,2021.2.3,59.89774257360265,
45.75,46.0,41,0.0,Stimuli/Blank.png,0,0,0.0,0,84,84,84,,,,,,,,,,,,,45.75630599999931,0.006305999999312917,None,75.74960340000143,75.74960340000143,75.74960340000143,75.74960340000143,75.74960340000143,75.74960340000143,75.74960340000143,75.74960340000143,75.74960340000143,75.74960340000143,,005,P019,2025_Mar_21_1019,ConditionRich,2021.2.3,59.89774257360265,
46.0,46.75,14,0.75,Stimuli/P019/sun_birvagufpcschyrr.jpg,0,0,0.0,0,85,85,85,,,,,,,,,,,,,46.006717799999024,0.006717799999023555,None,75.99983060000159,75.99983060000159,75.99983060000159,75.99983060000159,75.99983060000159,75.99983060000159,75.99983060000159,75.99983060000159,75.99983060000159,75.99983060000159,,005,P019,2025_Mar_21_1019,ConditionRich,2021.2.3,59.89774257360265,
46.75,47.0,41,0.0,Stimuli/Blank.png,0,0,0.0,0,86,86,86,,,,,,,,,,,,,46.75700819999838,0.007008199998381315,None,76.75048770000103,76.75048770000103,76.75048770000103,76.75048770000103,76.75048770000103,76.75048770000103,76.75048770000103,76.75048770000103,76.75048770000103,76.75048770000103,,005,P019,2025_Mar_21_1019,ConditionRich,2021.2.3,59.89774257360265,
47.0,47.75,14,0.75,Stimuli/P019/sun_birvagufpcschyrr.jpg,0,0,0.0,0,87,87,87,,,,,,,,,,,,,47.01046509999833,0.010465099998327787,None,77.01739540000017,77.01739540000017,77.01739540000017,77.01739540000017,77.01739540000017,77.01739540000017,77.01739540000017,77.01739540000017,77.01739540000017,77.01739540000017,,005,P019,2025_Mar_21_1019,ConditionRich,2021.2.3,59.89774257360265,
47.75,48.0,41,0.0,Stimuli/Blank.png,0,0,0.0,0,88,88,88,,,,,,,,,,,,,47.77415059999839,0.024150599998392863,None,77.76805080000122,77.76805080000122,77.76805080000122,77.76805080000122,77.76805080000122,77.76805080000122,77.76805080000122,77.76805080000122,77.76805080000122,77.76805080000122,,005,P019,2025_Mar_21_1019,ConditionRich,2021.2.3,59.89774257360265,
48.0,48.75,28,0.75,Stimuli/P019/things_face_10s.jpg,0,0,0.0,0,89,89,89,,,,,,,,,,,,,48.00813949999974,0.008139499999742839,None,78.00159520000125,78.00159520000125,78.00159520000125,78.00159520000125,78.00159520000125,78.00159520000125,78.00159520000125,78.00159520000125,78.00159520000125,78.00159520000125,,005,P019,2025_Mar_21_1019,ConditionRich,2021.2.3,59.89774257360265,
48.75,49.0,41,0.0,Stimuli/Blank.png,0,0,0.0,0,90,90,90,,,,,,,,,,,,,48.76089149999825,0.010891499998251675,None,78.76894270000048,78.76894270000048,78.76894270000048,78.76894270000048,78.76894270000048,78.76894270000048,78.76894270000048,78.76894270000048,78.76894270000048,78.76894270000048,,005,P019,2025_Mar_21_1019,ConditionRich,2021.2.3,59.89774257360265,
49.0,49.75,28,0.75,Stimuli/P019/things_face_10s.jpg,0,0,0.0,0,91,91,91,,,,,,,,,,,,,49.02584999999999,0.02584999999999127,None,79.01915510000072,79.01915510000072,79.01915510000072,79.01915510000072,79.01915510000072,79.01915510000072,79.01915510000072,79.01915510000072,79.01915510000072,79.01915510000072,,005,P019,2025_Mar_21_1019,ConditionRich,2021.2.3,59.89774257360265,
49.75,50.0,41,0.0,Stimuli/Blank.png,0,0,0.0,0,92,92,92,,,,,,,,,,,,,49.7590941999988,0.009094199998799013,None,79.75314230000004,79.75314230000004,79.75314230000004,79.75314230000004,79.75314230000004,79.75314230000004,79.75314230000004,79.75314230000004,79.75314230000004,79.75314230000004,,005,P019,2025_Mar_21_1019,ConditionRich,2021.2.3,59.89774257360265,
50.0,50.75,28,0.75,Stimuli/P019/things_face_10s.jpg,0,0,0.0,0,93,93,93,,,,,,,,,,,,,50.009257899999284,0.009257899999283836,None,80.00336600000082,80.00336600000082,80.00336600000082,80.00336600000082,80.00336600000082,80.00336600000082,80.00336600000082,80.00336600000082,80.00336600000082,80.00336600000082,,005,P019,2025_Mar_21_1019,ConditionRich,2021.2.3,59.89774257360265,
50.75,51.0,41,0.0,Stimuli/Blank.png,0,0,0.0,0,94,94,94,,,,,,,,,,,,,50.760482099998626,0.010482099998625927,None,80.75402740000027,80.75402740000027,80.75402740000027,80.75402740000027,80.75402740000027,80.75402740000027,80.75402740000027,80.75402740000027,80.75402740000027,80.75402740000027,,005,P019,2025_Mar_21_1019,ConditionRich,2021.2.3,59.89774257360265,
51.0,51.75,28,0.75,Stimuli/P019/things_face_10s.jpg,0,0,0.0,0,95,95,95,,,,,,,,,,,,,51.010990499999025,0.010990499999024905,None,81.00424200000089,81.00424200000089,81.00424200000089,81.00424200000089,81.00424200000089,81.00424200000089,81.00424200000089,81.00424200000089,81.00424200000089,81.00424200000089,,005,P019,2025_Mar_21_1019,ConditionRich,2021.2.3,59.89774257360265,
51.75,52.0,41,0.0,Stimuli/Blank.png,0,0,0.0,0,96,96,96,,,,,,,,,,,,,51.761551799998415,0.011551799998414936,None,81.75492060000033,81.75492060000033,81.75492060000033,81.75492060000033,81.75492060000033,81.75492060000033,81.75492060000033,81.75492060000033,81.75492060000033,81.75492060000033,,005,P019,2025_Mar_21_1019,ConditionRich,2021.2.3,59.89774257360265,
52.0,52.75,7,0.75,Stimuli/P019/sun_aqkbfuonyunmyqxb.jpg,0,0,0.0,0,97,97,97,,,,,,,,,,,,,52.0110896999995,0.011089699999502045,None,82.02182880000146,82.02182880000146,82.02182880000146,82.02182880000146,82.02182880000146,82.02182880000146,82.02182880000146,82.02182880000146,82.02182880000146,82.02182880000146,,005,P019,2025_Mar_21_1019,ConditionRich,2021.2.3,59.89774257360265,
52.75,53.0,41,0.0,Stimuli/Blank.png,0,0,0.0,0,98,98,98,,,,,,,,,,,,,52.77853529999993,0.02853529999993043,None,82.77246960000048,82.77246960000048,82.77246960000048,82.77246960000048,82.77246960000048,82.77246960000048,82.77246960000048,82.77246960000048,82.77246960000048,82.77246960000048,,005,P019,2025_Mar_21_1019,ConditionRich,2021.2.3,59.89774257360265,
53.0,53.75,7,0.75,Stimuli/P019/sun_aqkbfuonyunmyqxb.jpg,0,0,0.0,0,99,99,99,,,,,,,,,,,,,53.0118937999996,0.011893799999597832,None,83.02270240000144,83.02270240000144,83.02270240000144,83.02270240000144,83.02270240000144,83.02270240000144,83.02270240000144,83.02270240000144,83.02270240000144,83.02270240000144,,005,P019,2025_Mar_21_1019,ConditionRich,2021.2.3,59.89774257360265,
53.75,54.0,41,0.0,Stimuli/Blank.png,0,0,0.0,0,100,100,100,,,,,,,,,,,,,53.77920179999819,0.029201799998190836,None,83.77336220000143,83.77336220000143,83.77336220000143,83.77336220000143,83.77336220000143,83.77336220000143,83.77336220000143,83.77336220000143,83.77336220000143,83.77336220000143,,005,P019,2025_Mar_21_1019,ConditionRich,2021.2.3,59.89774257360265,
54.0,54.75,7,0.75,Stimuli/P019/sun_aqkbfuonyunmyqxb.jpg,0,0,0.0,0,101,101,101,,,,,,,,,,,,,54.013621899999634,0.01362189999963448,None,84.00690140000006,84.00690140000006,84.00690140000006,84.00690140000006,84.00690140000006,84.00690140000006,84.00690140000006,84.00690140000006,84.00690140000006,84.00690140000006,,005,P019,2025_Mar_21_1019,ConditionRich,2021.2.3,59.89774257360265,
54.75,55.0,41,0.0,Stimuli/Blank.png,0,0,0.0,0,102,102,102,,,,,,,,,,,,,54.76357689999895,0.013576899998952285,None,84.75755990000107,84.75755990000107,84.75755990000107,84.75755990000107,84.75755990000107,84.75755990000107,84.75755990000107,84.75755990000107,84.75755990000107,84.75755990000107,,005,P019,2025_Mar_21_1019,ConditionRich,2021.2.3,59.89774257360265,
55.0,55.75,7,0.75,Stimuli/P019/sun_aqkbfuonyunmyqxb.jpg,0,0,0.0,0,103,103,103,,,,,,,,,,,,,55.01444299999821,0.014442999998209416,None,85.00780020000093,85.00780020000093,85.00780020000093,85.00780020000093,85.00780020000093,85.00780020000093,85.00780020000093,85.00780020000093,85.00780020000093,85.00780020000093,,005,P019,2025_Mar_21_1019,ConditionRich,2021.2.3,59.89774257360265,
55.75,56.0,41,0.0,Stimuli/Blank.png,0,0,0.0,0,104,104,104,,,,,,,,,,,,,55.76524479999898,0.015244799998981762,None,85.75844280000092,85.75844280000092,85.75844280000092,85.75844280000092,85.75844280000092,85.75844280000092,85.75844280000092,85.75844280000092,85.75844280000092,85.75844280000092,,005,P019,2025_Mar_21_1019,ConditionRich,2021.2.3,59.89774257360265,
56.0,56.75,24,0.75,Stimuli/P019/things_bulletin_board_10s.jpg,0,0,0.0,0,105,105,105,,,,,,,,,,,,,56.014591799999835,0.01459179999983462,None,86.00866760000099,86.00866760000099,86.00866760000099,86.00866760000099,86.00866760000099,86.00866760000099,86.00866760000099,86.00866760000099,86.00866760000099,86.00866760000099,,005,P019,2025_Mar_21_1019,ConditionRich,2021.2.3,59.89774257360265,
56.75,57.0,41,0.0,Stimuli/Blank.png,0,0,0.0,0,106,106,106,,,,,,,,,,,,,56.76529279999886,0.015292799998860573,None,86.75933590000022,86.75933590000022,86.75933590000022,86.75933590000022,86.75933590000022,86.75933590000022,86.75933590000022,86.75933590000022,86.75933590000022,86.75933590000022,,005,P019,2025_Mar_21_1019,ConditionRich,2021.2.3,59.89774257360265,
57.0,57.75,24,0.75,Stimuli/P019/things_bulletin_board_10s.jpg,0,0,0.0,0,107,107,107,,,,,,,,,,,,,57.01580479999939,0.015804799999386887,None,87.00952010000037,87.00952010000037,87.00952010000037,87.00952010000037,87.00952010000037,87.00952010000037,87.00952010000037,87.00952010000037,87.00952010000037,87.00952010000037,,005,P019,2025_Mar_21_1019,ConditionRich,2021.2.3,59.89774257360265,
57.75,58.0,41,0.0,Stimuli/Blank.png,0,0,0.0,0,108,108,108,,,,,,,,,,,,,57.75039589999869,0.0003958999986934941,None,87.74353560000054,87.74353560000054,87.74353560000054,87.74353560000054,87.74353560000054,87.74353560000054,87.74353560000054,87.74353560000054,87.74353560000054,87.74353560000054,,005,P019,2025_Mar_21_1019,ConditionRich,2021.2.3,59.89774257360265,
58.0,58.75,24,0.75,Stimuli/P019/things_bulletin_board_10s.jpg,0,0,0.0,0,109,109,109,,,,,,,,,,,,,58.00100019999991,0.001000199999907636,None,88.01045860000158,88.01045860000158,88.01045860000158,88.01045860000158,88.01045860000158,88.01045860000158,88.01045860000158,88.01045860000158,88.01045860000158,88.01045860000158,,005,P019,2025_Mar_21_1019,ConditionRich,2021.2.3,59.89774257360265,
58.75,59.0,41,0.0,Stimuli/Blank.png,0,0,0.0,0,110,110,110,,,,,,,,,,,,,58.76780879999933,0.017808799999329494,None,88.7610979000001,88.7610979000001,88.7610979000001,88.7610979000001,88.7610979000001,88.7610979000001,88.7610979000001,88.7610979000001,88.7610979000001,88.7610979000001,,005,P019,2025_Mar_21_1019,ConditionRich,2021.2.3,59.89774257360265,
59.0,59.75,24,0.75,Stimuli/P019/things_bulletin_board_10s.jpg,0,0,0.0,0,111,111,111,,,,,,,,,,,,,59.00074869999844,0.000748699998439406,None,89.01133840000148,89.01133840000148,89.01133840000148,89.01133840000148,89.01133840000148,89.01133840000148,89.01133840000148,89.01133840000148,89.01133840000148,89.01133840000148,,005,P019,2025_Mar_21_1019,ConditionRich,2021.2.3,59.89774257360265,
59.75,60.0,41,0.0,Stimuli/Blank.png,0,0,0.0,0,112,112,112,,,,,,,,,,,,,59.77104739999959,0.02104739999958838,None,89.77867470000092,89.77867470000092,89.77867470000092,89.77867470000092,89.77867470000092,89.77867470000092,89.77867470000092,89.77867470000092,89.77867470000092,89.77867470000092,,005,P019,2025_Mar_21_1019,ConditionRich,2021.2.3,59.89774257360265,
60.0,60.75,1,0.75,Stimuli/P019/sun_aaaidwecchadbake.jpg,0,0,0.0,0,113,113,113,,,,,,,,,,,,,60.01871519999986,0.018715199999860488,None,90.01220550000107,90.01220550000107,90.01220550000107,90.01220550000107,90.01220550000107,90.01220550000107,90.01220550000107,90.01220550000107,90.01220550000107,90.01220550000107,,005,P019,2025_Mar_21_1019,ConditionRich,2021.2.3,59.89774257360265,
60.75,61.0,41,0.0,Stimuli/Blank.png,0,0,0.0,0,114,114,114,,,,,,,,,,,,,60.75473029999921,0.004730299999209819,None,90.76287450000018,90.76287450000018,90.76287450000018,90.76287450000018,90.76287450000018,90.76287450000018,90.76287450000018,90.76287450000018,90.76287450000018,90.76287450000018,,005,P019,2025_Mar_21_1019,ConditionRich,2021.2.3,59.89774257360265,
61.0,61.75,1,0.75,Stimuli/P019/sun_aaaidwecchadbake.jpg,0,0,0.0,0,115,115,115,,,,,,,,,,,,,61.019200399998226,0.019200399998226203,None,91.0130861000016,91.0130861000016,91.0130861000016,91.0130861000016,91.0130861000016,91.0130861000016,91.0130861000016,91.0130861000016,91.0130861000016,91.0130861000016,,005,P019,2025_Mar_21_1019,ConditionRich,2021.2.3,59.89774257360265,
61.75,62.0,41,0.0,Stimuli/Blank.png,0,0,0.0,0,116,116,116,,,,,,,,,,,,,61.75655429999824,0.006554299998242641,None,91.7637794000002,91.7637794000002,91.7637794000002,91.7637794000002,91.7637794000002,91.7637794000002,91.7637794000002,91.7637794000002,91.7637794000002,91.7637794000002,,005,P019,2025_Mar_21_1019,ConditionRich,2021.2.3,59.89774257360265,
62.0,62.75,1,0.75,Stimuli/P019/sun_aaaidwecchadbake.jpg,0,0,0.0,0,117,117,117,,,,,,,,,,,,,62.020615199999156,0.020615199999156175,None,92.0139951000001,92.0139951000001,92.0139951000001,92.0139951000001,92.0139951000001,92.0139951000001,92.0139951000001,92.0139951000001,92.0139951000001,92.0139951000001,,005,P019,2025_Mar_21_1019,ConditionRich,2021.2.3,59.89774257360265,
62.75,63.0,41,0.0,Stimuli/Blank.png,0,0,0.0,0,118,118,118,,,,,,,,,,,,,62.75513129999854,0.005131299998538452,None,92.74796849999984,92.74796849999984,92.74796849999984,92.74796849999984,92.74796849999984,92.74796849999984,92.74796849999984,92.74796849999984,92.74796849999984,92.74796849999984,,005,P019,2025_Mar_21_1019,ConditionRich,2021.2.3,59.89774257360265,
63.0,63.75,1,0.75,Stimuli/P019/sun_aaaidwecchadbake.jpg,0,0,0.0,0,119,119,119,,,,,,,,,,,,,63.0063983,0.006398300000000745,None,93.01485529999991,93.01485529999991,93.01485529999991,93.01485529999991,93.01485529999991,93.01485529999991,93.01485529999991,93.01485529999991,93.01485529999991,93.01485529999991,,005,P019,2025_Mar_21_1019,ConditionRich,2021.2.3,59.89774257360265,
63.75,64.0,41,0.0,Stimuli/Blank.png,0,0,0.0,0,120,120,120,,,,,,,,,,,,,63.77231389999906,0.022313899999062414,None,93.76552410000113,93.76552410000113,93.76552410000113,93.76552410000113,93.76552410000113,93.76552410000113,93.76552410000113,93.76552410000113,93.76552410000113,93.76552410000113,,005,P019,2025_Mar_21_1019,ConditionRich,2021.2.3,59.89774257360265,
64.0,64.75,32,0.75,Stimuli/P019/things_girl_10s.jpg,0,0,0.0,0,121,121,121,,,,,,,,,,,,,64.00556909999978,0.005569099999775062,None,93.99905410000065,93.99905410000065,93.99905410000065,93.99905410000065,93.99905410000065,93.99905410000065,93.99905410000065,93.99905410000065,93.99905410000065,93.99905410000065,,005,P019,2025_Mar_21_1019,ConditionRich,2021.2.3,59.89774257360265,
64.75,65.0,41,0.0,Stimuli/Blank.png,0,0,0.0,0,122,122,122,,,,,,,,,,,,,64.75639439999941,0.006394399999408051,None,94.74974440000005,94.74974440000005,94.74974440000005,94.74974440000005,94.74974440000005,94.74974440000005,94.74974440000005,94.74974440000005,94.74974440000005,94.74974440000005,,005,P019,2025_Mar_21_1019,ConditionRich,2021.2.3,59.89774257360265,
65.0,65.75,32,0.75,Stimuli/P019/things_girl_10s.jpg,0,0,0.0,0,123,123,123,,,,,,,,,,,,,65.00656749999871,0.006567499998709536,None,94.99993350000113,94.99993350000113,94.99993350000113,94.99993350000113,94.99993350000113,94.99993350000113,94.99993350000113,94.99993350000113,94.99993350000113,94.99993350000113,,005,P019,2025_Mar_21_1019,ConditionRich,2021.2.3,59.89774257360265,
65.75,66.0,41,0.0,Stimuli/Blank.png,0,0,0.0,0,124,124,124,,,,,,,,,,,,,65.75652889999947,0.0065288999994663754,None,95.75060140000096,95.75060140000096,95.75060140000096,95.75060140000096,95.75060140000096,95.75060140000096,95.75060140000096,95.75060140000096,95.75060140000096,95.75060140000096,,005,P019,2025_Mar_21_1019,ConditionRich,2021.2.3,59.89774257360265,
66.0,66.75,32,0.75,Stimuli/P019/things_girl_10s.jpg,0,0,0.0,0,125,125,125,,,,,,,,,,,,,66.00672099999974,0.006720999999743071,None,96.00081880000107,96.00081880000107,96.00081880000107,96.00081880000107,96.00081880000107,96.00081880000107,96.00081880000107,96.00081880000107,96.00081880000107,96.00081880000107,,005,P019,2025_Mar_21_1019,ConditionRich,2021.2.3,59.89774257360265,
66.75,67.0,41,0.0,Stimuli/Blank.png,0,0,0.0,0,126,126,126,,,,,,,,,,,,,66.75877649999893,0.008776499998930376,None,96.7514955000006,96.7514955000006,96.7514955000006,96.7514955000006,96.7514955000006,96.7514955000006,96.7514955000006,96.7514955000006,96.7514955000006,96.7514955000006,,005,P019,2025_Mar_21_1019,ConditionRich,2021.2.3,59.89774257360265,
67.0,67.75,32,0.75,Stimuli/P019/things_girl_10s.jpg,0,0,0.0,0,127,127,127,,,,,,,,,,,,,67.00976319999972,0.009763199999724748,None,97.01840530000118,97.01840530000118,97.01840530000118,97.01840530000118,97.01840530000118,97.01840530000118,97.01840530000118,97.01840530000118,97.01840530000118,97.01840530000118,,005,P019,2025_Mar_21_1019,ConditionRich,2021.2.3,59.89774257360265,
67.75,68.0,41,0.0,Stimuli/Blank.png,0,0,0.0,0,128,128,128,,,,,,,,,,,,,67.77575739999884,0.025757399998838082,None,97.76904650000142,97.76904650000142,97.76904650000142,97.76904650000142,97.76904650000142,97.76904650000142,97.76904650000142,97.76904650000142,97.76904650000142,97.76904650000142,,005,P019,2025_Mar_21_1019,ConditionRich,2021.2.3,59.89774257360265,
68.0,68.75,6,0.75,Stimuli/P019/sun_amppcthpabgulbwl.jpg,0,0,0.0,0,129,129,129,,,,,,,,,,,,,68.00871069999994,0.008710699999937788,None,98.00259740000001,98.00259740000001,98.00259740000001,98.00259740000001,98.00259740000001,98.00259740000001,98.00259740000001,98.00259740000001,98.00259740000001,98.00259740000001,,005,P019,2025_Mar_21_1019,ConditionRich,2021.2.3,59.89774257360265,
68.75,69.0,41,0.0,Stimuli/Blank.png,0,0,0.0,0,130,130,130,,,,,,,,,,,,,68.75986419999936,0.00986419999935606,None,98.7532725000001,98.7532725000001,98.7532725000001,98.7532725000001,98.7532725000001,98.7532725000001,98.7532725000001,98.7532725000001,98.7532725000001,98.7532725000001,,005,P019,2025_Mar_21_1019,ConditionRich,2021.2.3,59.89774257360265,
69.0,69.75,6,0.75,Stimuli/P019/sun_amppcthpabgulbwl.jpg,0,0,0.0,0,131,131,131,,,,,,,,,,,,,69.0094036999999,0.009403699999893433,None,99.00347340000008,99.00347340000008,99.00347340000008,99.00347340000008,99.00347340000008,99.00347340000008,99.00347340000008,99.00347340000008,99.00347340000008,99.00347340000008,,005,P019,2025_Mar_21_1019,ConditionRich,2021.2.3,59.89774257360265,
69.75,70.0,41,0.0,Stimuli/Blank.png,0,0,0.0,0,132,132,132,,,,,,,,,,,,,69.7600513999987,0.010051399998701527,None,99.75414350000028,99.75414350000028,99.75414350000028,99.75414350000028,99.75414350000028,99.75414350000028,99.75414350000028,99.75414350000028,99.75414350000028,99.75414350000028,,005,P019,2025_Mar_21_1019,ConditionRich,2021.2.3,59.89774257360265,
70.0,70.75,6,0.75,Stimuli/P019/sun_amppcthpabgulbwl.jpg,0,0,0.0,0,133,133,133,,,,,,,,,,,,,70.01104219999979,0.011042199999792501,None,100.00436510000145,100.00436510000145,100.00436510000145,100.00436510000145,100.00436510000145,100.00436510000145,100.00436510000145,100.00436510000145,100.00436510000145,100.00436510000145,,005,P019,2025_Mar_21_1019,ConditionRich,2021.2.3,59.89774257360265,
70.75,71.0,41,0.0,Stimuli/Blank.png,0,0,0.0,0,134,134,134,,,,,,,,,,,,,70.76109629999883,0.011096299998825998,None,100.7550310000006,100.7550310000006,100.7550310000006,100.7550310000006,100.7550310000006,100.7550310000006,100.7550310000006,100.7550310000006,100.7550310000006,100.7550310000006,,005,P019,2025_Mar_21_1019,ConditionRich,2021.2.3,59.89774257360265,
71.0,71.75,6,0.75,Stimuli/P019/sun_amppcthpabgulbwl.jpg,1,0,0.75,0,135,135,135,,,,,,,,,,,,,71.01174679999895,0.01174679999894579,1,101.00524330000007,101.00524330000007,101.00524330000007,101.00524330000007,101.00524330000007,101.00524330000007,101.00524330000007,101.739276100001,101.00524330000007,101.00524330000007,0.4937040999993769,005,P019,2025_Mar_21_1019,ConditionRich,2021.2.3,59.89774257360265,
71.75,72.0,41,0.0,Stimuli/Blank.png,0,0,0.0,0,136,136,136,,,,,,,,,,,,,71.76271309999902,0.012713099999018596,None,101.75592130000041,101.75592130000041,101.75592130000041,101.75592130000041,101.75592130000041,101.75592130000041,101.75592130000041,101.75592130000041,101.75592130000041,101.75592130000041,,005,P019,2025_Mar_21_1019,ConditionRich,2021.2.3,59.89774257360265,
72.0,72.75,35,0.75,Stimuli/P019/things_pretzel_10s.jpg,0,0,0.0,0,137,137,137,,,,,,,,,,,,,72.01514689999931,0.015146899999308516,None,102.02282879999984,102.02282879999984,102.02282879999984,102.02282879999984,102.02282879999984,102.02282879999984,102.02282879999984,102.02282879999984,102.02282879999984,102.02282879999984,,005,P019,2025_Mar_21_1019,ConditionRich,2021.2.3,59.89774257360265,
72.75,73.0,41,0.0,Stimuli/Blank.png,0,0,0.0,0,138,138,138,,,,,,,,,,,,,72.76340039999923,0.013400399999227375,None,102.75680319999992,102.75680319999992,102.75680319999992,102.75680319999992,102.75680319999992,102.75680319999992,102.75680319999992,102.75680319999992,102.75680319999992,102.75680319999992,,005,P019,2025_Mar_21_1019,ConditionRich,2021.2.3,59.89774257360265,
73.0,73.75,35,0.75,Stimuli/P019/things_pretzel_10s.jpg,0,0,0.0,0,139,139,139,,,,,,,,,,,,,73.01449509999838,0.01449509999838483,None,103.02368500000011,103.02368500000011,103.02368500000011,103.02368500000011,103.02368500000011,103.02368500000011,103.02368500000011,103.02368500000011,103.02368500000011,103.02368500000011,,005,P019,2025_Mar_21_1019,ConditionRich,2021.2.3,59.89774257360265,
73.75,74.0,41,0.0,Stimuli/Blank.png,0,0,0.0,0,140,140,140,,,,,,,,,,,,,73.78048399999898,0.030483999998978106,None,103.77439360000062,103.77439360000062,103.77439360000062,103.77439360000062,103.77439360000062,103.77439360000062,103.77439360000062,103.77439360000062,103.77439360000062,103.77439360000062,,005,P019,2025_Mar_21_1019,ConditionRich,2021.2.3,59.89774257360265,
74.0,74.75,35,0.75,Stimuli/P019/things_pretzel_10s.jpg,0,0,0.0,0,141,141,141,,,,,,,,,,,,,74.01388559999941,0.01388559999941208,None,104.00789320000149,104.00789320000149,104.00789320000149,104.00789320000149,104.00789320000149,104.00789320000149,104.00789320000149,104.00789320000149,104.00789320000149,104.00789320000149,,005,P019,2025_Mar_21_1019,ConditionRich,2021.2.3,59.89774257360265,
74.75,75.0,41,0.0,Stimuli/Blank.png,0,0,0.0,0,142,142,142,,,,,,,,,,,,,74.76530029999958,0.015300299999580602,None,104.77527480000026,104.77527480000026,104.77527480000026,104.77527480000026,104.77527480000026,104.77527480000026,104.77527480000026,104.77527480000026,104.77527480000026,104.77527480000026,,005,P019,2025_Mar_21_1019,ConditionRich,2021.2.3,59.89774257360265,
75.0,75.75,35,0.75,Stimuli/P019/things_pretzel_10s.jpg,0,0,0.0,0,143,143,143,,,,,,,,,,,,,75.03235439999844,0.032354399998439476,None,105.0421409999999,105.0421409999999,105.0421409999999,105.0421409999999,105.0421409999999,105.0421409999999,105.0421409999999,105.0421409999999,105.0421409999999,105.0421409999999,,005,P019,2025_Mar_21_1019,ConditionRich,2021.2.3,59.89774257360265,
75.75,76.0,41,0.0,Stimuli/Blank.png,0,0,0.0,0,144,144,144,,,,,,,,,,,,,75.76533629999903,0.015336299999034964,None,105.75943990000087,105.75943990000087,105.75943990000087,105.75943990000087,105.75943990000087,105.75943990000087,105.75943990000087,105.75943990000087,105.75943990000087,105.75943990000087,,005,P019,2025_Mar_21_1019,ConditionRich,2021.2.3,59.89774257360265,
76.0,76.75,30,0.75,Stimuli/P019/things_flip_flop_10s.jpg,0,0,0.0,0,145,145,145,,,,,,,,,,,,,76.01573879999887,0.0157387999988714,None,106.00966599999992,106.00966599999992,106.00966599999992,106.00966599999992,106.00966599999992,106.00966599999992,106.00966599999992,106.00966599999992,106.00966599999992,106.00966599999992,,005,P019,2025_Mar_21_1019,ConditionRich,2021.2.3,59.89774257360265,
76.75,77.0,41,0.0,Stimuli/Blank.png,0,0,0.0,0,146,146,146,,,,,,,,,,,,,76.75124719999985,0.0012471999998524552,None,106.76036120000026,106.76036120000026,106.76036120000026,106.76036120000026,106.76036120000026,106.76036120000026,106.76036120000026,106.76036120000026,106.76036120000026,106.76036120000026,,005,P019,2025_Mar_21_1019,ConditionRich,2021.2.3,59.89774257360265,
77.0,77.75,30,0.75,Stimuli/P019/things_flip_flop_10s.jpg,0,0,0.0,0,147,147,147,,,,,,,,,,,,,77.01652329999888,0.016523299998880248,None,107.0105437000002,107.0105437000002,107.0105437000002,107.0105437000002,107.0105437000002,107.0105437000002,107.0105437000002,107.0105437000002,107.0105437000002,107.0105437000002,,005,P019,2025_Mar_21_1019,ConditionRich,2021.2.3,59.89774257360265,
77.75,78.0,41,0.0,Stimuli/Blank.png,0,0,0.0,0,148,148,148,,,,,,,,,,,,,77.75047839999934,0.00047839999933785293,None,107.74452660000134,107.74452660000134,107.74452660000134,107.74452660000134,107.74452660000134,107.74452660000134,107.74452660000134,107.74452660000134,107.74452660000134,107.74452660000134,,005,P019,2025_Mar_21_1019,ConditionRich,2021.2.3,59.89774257360265,
78.0,78.75,30,0.75,Stimuli/P019/things_flip_flop_10s.jpg,1,0,0.75,0,149,149,149,,,,,,,,,,,,,78.00073499999962,0.0007349999996222323,None,107.99474530000043,107.99474530000043,107.99474530000043,107.99474530000043,107.99474530000043,107.99474530000043,107.99474530000043,108.72874440000123,107.99474530000043,107.99474530000043,,005,P019,2025_Mar_21_1019,ConditionRich,2021.2.3,59.89774257360265,
78.75,79.0,41,0.0,Stimuli/Blank.png,0,0,0.0,0,150,150,150,,,,,,,,,,,,,78.75210219999826,0.002102199998262222,None,108.74541860000136,108.74541860000136,108.74541860000136,108.74541860000136,108.74541860000136,108.74541860000136,108.74541860000136,108.74541860000136,108.74541860000136,108.74541860000136,,005,P019,2025_Mar_21_1019,ConditionRich,2021.2.3,59.89774257360265,
79.0,79.75,30,0.75,Stimuli/P019/things_flip_flop_10s.jpg,0,0,0.0,0,151,151,151,,,,,,,,,,,,,79.0016504999985,0.0016504999985045288,None,108.99563930000113,108.99563930000113,108.99563930000113,108.99563930000113,108.99563930000113,108.99563930000113,108.99563930000113,108.99563930000113,108.99563930000113,108.99563930000113,,005,P019,2025_Mar_21_1019,ConditionRich,2021.2.3,59.89774257360265,
79.75,80.0,41,0.0,Stimuli/Blank.png,0,0,0.0,0,152,152,152,,,,,,,,,,,,,79.75299689999883,0.002996899998834124,None,109.7463456000005,109.7463456000005,109.7463456000005,109.7463456000005,109.7463456000005,109.7463456000005,109.7463456000005,109.7463456000005,109.7463456000005,109.7463456000005,,005,P019,2025_Mar_21_1019,ConditionRich,2021.2.3,59.89774257360265,
80.0,80.75,38,0.75,Stimuli/P019/things_turtle_10n.jpg,0,0,0.0,0,153,153,153,,,,,,,,,,,,,80.00596269999915,0.005962699999145116,None,110.0132033000009,110.0132033000009,110.0132033000009,110.0132033000009,110.0132033000009,110.0132033000009,110.0132033000009,110.0132033000009,110.0132033000009,110.0132033000009,,005,P019,2025_Mar_21_1019,ConditionRich,2021.2.3,59.89774257360265,
80.75,81.0,41,0.0,Stimuli/Blank.png,0,0,0.0,0,154,154,154,,,,,,,,,,,,,80.77061479999975,0.020614799999748357,None,110.76385980000123,110.76385980000123,110.76385980000123,110.76385980000123,110.76385980000123,110.76385980000123,110.76385980000123,110.76385980000123,110.76385980000123,110.76385980000123,,005,P019,2025_Mar_21_1019,ConditionRich,2021.2.3,59.89774257360265,
81.0,81.75,38,0.75,Stimuli/P019/things_turtle_10n.jpg,0,0,0.0,0,155,155,155,,,,,,,,,,,,,81.00334099999964,0.0033409999996365514,None,110.99740730000121,110.99740730000121,110.99740730000121,110.99740730000121,110.99740730000121,110.99740730000121,110.99740730000121,110.99740730000121,110.99740730000121,110.99740730000121,,005,P019,2025_Mar_21_1019,ConditionRich,2021.2.3,59.89774257360265,
81.75,82.0,41,0.0,Stimuli/Blank.png,0,0,0.0,0,156,156,156,,,,,,,,,,,,,81.7555416999985,0.005541699998502736,None,111.74807800000053,111.74807800000053,111.74807800000053,111.74807800000053,111.74807800000053,111.74807800000053,111.74807800000053,111.74807800000053,111.74807800000053,111.74807800000053,,005,P019,2025_Mar_21_1019,ConditionRich,2021.2.3,59.89774257360265,
82.0,82.75,38,0.75,Stimuli/P019/things_turtle_10n.jpg,0,0,0.0,0,157,157,157,,,,,,,,,,,,,82.0042758999989,0.0042758999989018776,None,111.99828190000153,111.99828190000153,111.99828190000153,111.99828190000153,111.99828190000153,111.99828190000153,111.99828190000153,111.99828190000153,111.99828190000153,111.99828190000153,,005,P019,2025_Mar_21_1019,ConditionRich,2021.2.3,59.89774257360265,
82.75,83.0,41,0.0,Stimuli/Blank.png,0,0,0.0,0,158,158,158,,,,,,,,,,,,,82.75562889999856,0.0056288999985554256,None,112.74895020000076,112.74895020000076,112.74895020000076,112.74895020000076,112.74895020000076,112.74895020000076,112.74895020000076,112.74895020000076,112.74895020000076,112.74895020000076,,005,P019,2025_Mar_21_1019,ConditionRich,2021.2.3,59.89774257360265,
83.0,83.75,38,0.75,Stimuli/P019/things_turtle_10n.jpg,0,0,0.0,0,159,159,159,,,,,,,,,,,,,83.00511969999934,0.00511969999934081,None,112.99917180000011,112.99917180000011,112.99917180000011,112.99917180000011,112.99917180000011,112.99917180000011,112.99917180000011,112.99917180000011,112.99917180000011,112.99917180000011,,005,P019,2025_Mar_21_1019,ConditionRich,2021.2.3,59.89774257360265,
83.75,84.0,41,0.0,Stimuli/Blank.png,0,0,0.0,0,160,160,160,,,,,,,,,,,,,83.75576799999908,0.0057679999990796205,None,113.74984330000007,113.74984330000007,113.74984330000007,113.74984330000007,113.74984330000007,113.74984330000007,113.74984330000007,113.74984330000007,113.74984330000007,113.74984330000007,,005,P019,2025_Mar_21_1019,ConditionRich,2021.2.3,59.89774257360265,
84.0,100.0,0,0.0,Stimuli/Blank.png,1,1,1.75,0,161,161,161,,,,,,,,,,,,,84.00685229999908,0.006852299999081879,1,114.00006010000106,114.00006010000106,114.00006010000106,114.00006010000106,114.00006010000106,114.00006010000106,114.98426130000007,115.7349643000016,114.00006010000106,114.00006010000106,1.415368199999648,005,P019,2025_Mar_21_1019,ConditionRich,2021.2.3,59.89774257360265,
100.0,100.75,31,0.75,Stimuli/P019/things_fudge_10s.jpg,0,0,0.0,0,162,162,162,,,,,,,,,,,,,100.00427889999992,0.004278899999917485,None,129.99751690000085,129.99751690000085,129.99751690000085,129.99751690000085,129.99751690000085,129.99751690000085,129.99751690000085,129.99751690000085,129.99751690000085,129.99751690000085,,005,P019,2025_Mar_21_1019,ConditionRich,2021.2.3,59.89774257360265,
100.75,101.0,41,0.0,Stimuli/Blank.png,0,0,0.0,0,163,163,163,,,,,,,,,,,,,100.75543019999895,0.005430199998954777,None,130.74818960000084,130.74818960000084,130.74818960000084,130.74818960000084,130.74818960000084,130.74818960000084,130.74818960000084,130.74818960000084,130.74818960000084,130.74818960000084,,005,P019,2025_Mar_21_1019,ConditionRich,2021.2.3,59.89774257360265,
101.0,101.75,31,0.75,Stimuli/P019/things_fudge_10s.jpg,0,0,0.0,0,164,164,164,,,,,,,,,,,,,101.00516929999867,0.005169299998669885,None,130.99839729999985,130.99839729999985,130.99839729999985,130.99839729999985,130.99839729999985,130.99839729999985,130.99839729999985,130.99839729999985,130.99839729999985,130.99839729999985,,005,P019,2025_Mar_21_1019,ConditionRich,2021.2.3,59.89774257360265,
101.75,102.0,41,0.0,Stimuli/Blank.png,0,0,0.0,0,165,165,165,,,,,,,,,,,,,101.75521359999948,0.005213599999478902,None,131.74906720000035,131.74906720000035,131.74906720000035,131.74906720000035,131.74906720000035,131.74906720000035,131.74906720000035,131.74906720000035,131.74906720000035,131.74906720000035,,005,P019,2025_Mar_21_1019,ConditionRich,2021.2.3,59.89774257360265,
102.0,102.75,31,0.75,Stimuli/P019/things_fudge_10s.jpg,0,0,0.0,0,166,166,166,,,,,,,,,,,,,102.00611629999912,0.006116299999121111,None,131.99929040000097,131.99929040000097,131.99929040000097,131.99929040000097,131.99929040000097,131.99929040000097,131.99929040000097,131.99929040000097,131.99929040000097,131.99929040000097,,005,P019,2025_Mar_21_1019,ConditionRich,2021.2.3,59.89774257360265,
102.75,103.0,41,0.0,Stimuli/Blank.png,0,0,0.0,0,167,167,167,,,,,,,,,,,,,102.7563326999989,0.0063326999988930766,None,132.74994650000008,132.74994650000008,132.74994650000008,132.74994650000008,132.74994650000008,132.74994650000008,132.74994650000008,132.74994650000008,132.74994650000008,132.74994650000008,,005,P019,2025_Mar_21_1019,ConditionRich,2021.2.3,59.89774257360265,
103.0,103.75,31,0.75,Stimuli/P019/things_fudge_10s.jpg,0,0,0.0,0,168,168,168,,,,,,,,,,,,,103.00699519999944,0.006995199999437318,None,133.00017350000053,133.00017350000053,133.00017350000053,133.00017350000053,133.00017350000053,133.00017350000053,133.00017350000053,133.00017350000053,133.00017350000053,133.00017350000053,,005,P019,2025_Mar_21_1019,ConditionRich,2021.2.3,59.89774257360265,
103.75,104.0,41,0.0,Stimuli/Blank.png,0,0,0.0,0,169,169,169,,,,,,,,,,,,,103.75757239999984,0.007572399999844492,None,133.75085070000023,133.75085070000023,133.75085070000023,133.75085070000023,133.75085070000023,133.75085070000023,133.75085070000023,133.75085070000023,133.75085070000023,133.75085070000023,,005,P019,2025_Mar_21_1019,ConditionRich,2021.2.3,59.89774257360265,
104.0,104.75,23,0.75,Stimuli/P019/things_boy_10s.jpg,0,0,0.0,0,170,170,170,,,,,,,,,,,,,104.007895499999,0.007895499998994637,None,134.00105900000017,134.00105900000017,134.00105900000017,134.00105900000017,134.00105900000017,134.00105900000017,134.00105900000017,134.00105900000017,134.00105900000017,134.00105900000017,,005,P019,2025_Mar_21_1019,ConditionRich,2021.2.3,59.89774257360265,
104.75,105.0,41,0.0,Stimuli/Blank.png,0,0,0.0,0,171,171,171,,,,,,,,,,,,,104.76006379999853,0.010063799998533796,None,134.7684229000006,134.7684229000006,134.7684229000006,134.7684229000006,134.7684229000006,134.7684229000006,134.7684229000006,134.7684229000006,134.7684229000006,134.7684229000006,,005,P019,2025_Mar_21_1019,ConditionRich,2021.2.3,59.89774257360265,
105.0,105.75,23,0.75,Stimuli/P019/things_boy_10s.jpg,0,0,0.0,0,172,172,172,,,,,,,,,,,,,105.02536879999934,0.025368799999341718,None,135.0186274000007,135.0186274000007,135.0186274000007,135.0186274000007,135.0186274000007,135.0186274000007,135.0186274000007,135.0186274000007,135.0186274000007,135.0186274000007,,005,P019,2025_Mar_21_1019,ConditionRich,2021.2.3,59.89774257360265,
105.75,106.0,41,0.0,Stimuli/Blank.png,0,0,0.0,0,173,173,173,,,,,,,,,,,,,105.75925339999958,0.009253399999579415,None,135.75261740000133,135.75261740000133,135.75261740000133,135.75261740000133,135.75261740000133,135.75261740000133,135.75261740000133,135.75261740000133,135.75261740000133,135.75261740000133,,005,P019,2025_Mar_21_1019,ConditionRich,2021.2.3,59.89774257360265,
106.0,106.75,23,0.75,Stimuli/P019/things_boy_10s.jpg,0,0,0.0,0,174,174,174,,,,,,,,,,,,,106.01080489999913,0.010804899999129702,None,136.01950140000008,136.01950140000008,136.01950140000008,136.01950140000008,136.01950140000008,136.01950140000008,136.01950140000008,136.01950140000008,136.01950140000008,136.01950140000008,,005,P019,2025_Mar_21_1019,ConditionRich,2021.2.3,59.89774257360265,
106.75,107.0,41,0.0,Stimuli/Blank.png,0,0,0.0,0,175,175,175,,,,,,,,,,,,,106.77672339999845,0.02672339999844553,None,136.77017250000063,136.77017250000063,136.77017250000063,136.77017250000063,136.77017250000063,136.77017250000063,136.77017250000063,136.77017250000063,136.77017250000063,136.77017250000063,,005,P019,2025_Mar_21_1019,ConditionRich,2021.2.3,59.89774257360265,
107.0,107.75,23,0.75,Stimuli/P019/things_boy_10s.jpg,0,0,0.0,0,176,176,176,,,,,,,,,,,,,107.01030729999911,0.010307299999112729,None,137.0203876000014,137.0203876000014,137.0203876000014,137.0203876000014,137.0203876000014,137.0203876000014,137.0203876000014,137.0203876000014,137.0203876000014,137.0203876000014,,005,P019,2025_Mar_21_1019,ConditionRich,2021.2.3,59.89774257360265,
107.75,108.0,41,0.0,Stimuli/Blank.png,0,0,0.0,0,177,177,177,,,,,,,,,,,,,107.77696189999915,0.026961899999150774,None,137.77105090000077,137.77105090000077,137.77105090000077,137.77105090000077,137.77105090000077,137.77105090000077,137.77105090000077,137.77105090000077,137.77105090000077,137.77105090000077,,005,P019,2025_Mar_21_1019,ConditionRich,2021.2.3,59.89774257360265,
108.0,108.75,25,0.75,Stimuli/P019/things_chime_10s.jpg,0,0,0.0,0,178,178,178,,,,,,,,,,,,,108.01086039999973,0.010860399999728543,None,138.0046001999999,138.0046001999999,138.0046001999999,138.0046001999999,138.0046001999999,138.0046001999999,138.0046001999999,138.0046001999999,138.0046001999999,138.0046001999999,,005,P019,2025_Mar_21_1019,ConditionRich,2021.2.3,59.89774257360265,
108.75,109.0,41,0.0,Stimuli/Blank.png,0,0,0.0,0,179,179,179,,,,,,,,,,,,,108.76127439999982,0.011274399999820162,None,138.75522810000075,138.75522810000075,138.75522810000075,138.75522810000075,138.75522810000075,138.75522810000075,138.75522810000075,138.75522810000075,138.75522810000075,138.75522810000075,,005,P019,2025_Mar_21_1019,ConditionRich,2021.2.3,59.89774257360265,
109.0,109.75,25,0.75,Stimuli/P019/things_chime_10s.jpg,0,0,0.0,0,180,180,180,,,,,,,,,,,,,109.01152589999947,0.011525899999469402,None,139.02219100000002,139.02219100000002,139.02219100000002,139.02219100000002,139.02219100000002,139.02219100000002,139.02219100000002,139.02219100000002,139.02219100000002,139.02219100000002,,005,P019,2025_Mar_21_1019,ConditionRich,2021.2.3,59.89774257360265,
109.75,110.0,41,0.0,Stimuli/Blank.png,0,0,0.0,0,181,181,181,,,,,,,,,,,,,109.78030899999976,0.030308999999761,None,139.78963300000032,139.78963300000032,139.78963300000032,139.78963300000032,139.78963300000032,139.78963300000032,139.78963300000032,139.78963300000032,139.78963300000032,139.78963300000032,,005,P019,2025_Mar_21_1019,ConditionRich,2021.2.3,59.89774257360265,
110.0,110.75,25,0.75,Stimuli/P019/things_chime_10s.jpg,0,0,0.0,0,182,182,182,,,,,,,,,,,,,110.02973309999834,0.02973309999833873,None,140.03976580000017,140.03976580000017,140.03976580000017,140.03976580000017,140.03976580000017,140.03976580000017,140.03976580000017,140.03976580000017,140.03976580000017,140.03976580000017,,005,P019,2025_Mar_21_1019,ConditionRich,2021.2.3,59.89774257360265,
110.75,111.0,41,0.0,Stimuli/Blank.png,0,0,0.0,0,183,183,183,,,,,,,,,,,,,110.78047079999851,0.03047079999851121,None,140.7736988000015,140.7736988000015,140.7736988000015,140.7736988000015,140.7736988000015,140.7736988000015,140.7736988000015,140.7736988000015,140.7736988000015,140.7736988000015,,005,P019,2025_Mar_21_1019,ConditionRich,2021.2.3,59.89774257360265,
111.0,111.75,25,0.75,Stimuli/P019/things_chime_10s.jpg,1,0,0.75,0,184,184,184,,,,,,,,,,,,,111.01394549999895,0.013945499998953892,1,141.02393140000095,141.02393140000095,141.02393140000095,141.02393140000095,141.02393140000095,141.02393140000095,141.02393140000095,141.7412398000015,141.02393140000095,141.02393140000095,0.4716783999992913,005,P019,2025_Mar_21_1019,ConditionRich,2021.2.3,59.89774257360265,
111.75,112.0,41,0.0,Stimuli/Blank.png,0,0,0.0,0,185,185,185,,,,,,,,,,,,,111.78060319999895,0.030603199998950004,None,141.77459420000014,141.77459420000014,141.77459420000014,141.77459420000014,141.77459420000014,141.77459420000014,141.77459420000014,141.77459420000014,141.77459420000014,141.77459420000014,,005,P019,2025_Mar_21_1019,ConditionRich,2021.2.3,59.89774257360265,
112.0,112.75,12,0.75,Stimuli/P019/sun_bgjrtiivbwugxhxp.jpg,0,0,0.0,0,186,186,186,,,,,,,,,,,,,112.0147952999996,0.01479529999960505,None,142.00813220000055,142.00813220000055,142.00813220000055,142.00813220000055,142.00813220000055,142.00813220000055,142.00813220000055,142.00813220000055,142.00813220000055,142.00813220000055,,005,P019,2025_Mar_21_1019,ConditionRich,2021.2.3,59.89774257360265,
112.75,113.0,41,0.0,Stimuli/Blank.png,0,0,0.0,0,187,187,187,,,,,,,,,,,,,112.76518619999842,0.015186199998424854,None,142.75878999999986,142.75878999999986,142.75878999999986,142.75878999999986,142.75878999999986,142.75878999999986,142.75878999999986,142.75878999999986,142.75878999999986,142.75878999999986,,005,P019,2025_Mar_21_1019,ConditionRich,2021.2.3,59.89774257360265,
113.0,113.75,12,0.75,Stimuli/P019/sun_bgjrtiivbwugxhxp.jpg,0,0,0.0,0,188,188,188,,,,,,,,,,,,,113.01565959999971,0.015659599999708007,None,143.0090135999999,143.0090135999999,143.0090135999999,143.0090135999999,143.0090135999999,143.0090135999999,143.0090135999999,143.0090135999999,143.0090135999999,143.0090135999999,,005,P019,2025_Mar_21_1019,ConditionRich,2021.2.3,59.89774257360265,
113.75,114.0,41,0.0,Stimuli/Blank.png,0,0,0.0,0,189,189,189,,,,,,,,,,,,,113.75016069999947,0.00016069999946921598,None,143.74300030000086,143.74300030000086,143.74300030000086,143.74300030000086,143.74300030000086,143.74300030000086,143.74300030000086,143.74300030000086,143.74300030000086,143.74300030000086,,005,P019,2025_Mar_21_1019,ConditionRich,2021.2.3,59.89774257360265,
114.0,114.75,12,0.75,Stimuli/P019/sun_bgjrtiivbwugxhxp.jpg,0,0,0.0,0,190,190,190,,,,,,,,,,,,,114.00009149999823,9.14999982342124e-05,None,144.00993280000148,144.00993280000148,144.00993280000148,144.00993280000148,144.00993280000148,144.00993280000148,144.00993280000148,144.00993280000148,144.00993280000148,144.00993280000148,,005,P019,2025_Mar_21_1019,ConditionRich,2021.2.3,59.89774257360265,
114.75,115.0,41,0.0,Stimuli/Blank.png,0,0,0.0,0,191,191,191,,,,,,,,,,,,,114.76648939999905,0.016489399999045418,None,144.760557900001,144.760557900001,144.760557900001,144.760557900001,144.760557900001,144.760557900001,144.760557900001,144.760557900001,144.760557900001,144.760557900001,,005,P019,2025_Mar_21_1019,ConditionRich,2021.2.3,59.89774257360265,
115.0,115.75,12,0.75,Stimuli/P019/sun_bgjrtiivbwugxhxp.jpg,0,0,0.0,0,192,192,192,,,,,,,,,,,,,115.00005769999916,5.7699999160831794e-05,None,144.99410100000023,144.99410100000023,144.99410100000023,144.99410100000023,144.99410100000023,144.99410100000023,144.99410100000023,144.99410100000023,144.99410100000023,144.99410100000023,,005,P019,2025_Mar_21_1019,ConditionRich,2021.2.3,59.89774257360265,
115.75,116.0,41,0.0,Stimuli/Blank.png,0,0,0.0,0,193,193,193,,,,,,,,,,,,,115.75069709999843,0.0006970999984332593,None,145.74476610000056,145.74476610000056,145.74476610000056,145.74476610000056,145.74476610000056,145.74476610000056,145.74476610000056,145.74476610000056,145.74476610000056,145.74476610000056,,005,P019,2025_Mar_21_1019,ConditionRich,2021.2.3,59.89774257360265,
116.0,116.75,29,0.75,Stimuli/P019/things_flamingo_10s.jpg,0,0,0.0,0,194,194,194,,,,,,,,,,,,,116.00112109999827,0.001121099998272257,None,145.99495690000003,145.99495690000003,145.99495690000003,145.99495690000003,145.99495690000003,145.99495690000003,145.99495690000003,145.99495690000003,145.99495690000003,145.99495690000003,,005,P019,2025_Mar_21_1019,ConditionRich,2021.2.3,59.89774257360265,
116.75,117.0,41,0.0,Stimuli/Blank.png,0,0,0.0,0,195,195,195,,,,,,,,,,,,,116.75159539999913,0.0015953999991324963,None,146.74565170000096,146.74565170000096,146.74565170000096,146.74565170000096,146.74565170000096,146.74565170000096,146.74565170000096,146.74565170000096,146.74565170000096,146.74565170000096,,005,P019,2025_Mar_21_1019,ConditionRich,2021.2.3,59.89774257360265,
117.0,117.75,29,0.75,Stimuli/P019/things_flamingo_10s.jpg,0,0,0.0,0,196,196,196,,,,,,,,,,,,,117.00196049999977,0.001960499999768217,None,146.99586340000133,146.99586340000133,146.99586340000133,146.99586340000133,146.99586340000133,146.99586340000133,146.99586340000133,146.99586340000133,146.99586340000133,146.99586340000133,,005,P019,2025_Mar_21_1019,ConditionRich,2021.2.3,59.89774257360265,
117.75,118.0,41,0.0,Stimuli/Blank.png,0,0,0.0,0,197,197,197,,,,,,,,,,,,,117.75280479999856,0.002804799998557428,None,147.74653650000073,147.74653650000073,147.74653650000073,147.74653650000073,147.74653650000073,147.74653650000073,147.74653650000073,147.74653650000073,147.74653650000073,147.74653650000073,,005,P019,2025_Mar_21_1019,ConditionRich,2021.2.3,59.89774257360265,
118.0,118.75,29,0.75,Stimuli/P019/things_flamingo_10s.jpg,0,0,0.0,0,198,198,198,,,,,,,,,,,,,118.00327919999836,0.003279199998360127,None,147.99675750000097,147.99675750000097,147.99675750000097,147.99675750000097,147.99675750000097,147.99675750000097,147.99675750000097,147.99675750000097,147.99675750000097,147.99675750000097,,005,P019,2025_Mar_21_1019,ConditionRich,2021.2.3,59.89774257360265,
118.75,119.0,41,0.0,Stimuli/Blank.png,0,0,0.0,0,199,199,199,,,,,,,,,,,,,118.7552283999994,0.005228399999396061,None,148.76415830000042,148.76415830000042,148.76415830000042,148.76415830000042,148.76415830000042,148.76415830000042,148.76415830000042,148.76415830000042,148.76415830000042,148.76415830000042,,005,P019,2025_Mar_21_1019,ConditionRich,2021.2.3,59.89774257360265,
119.0,119.75,29,0.75,Stimuli/P019/things_flamingo_10s.jpg,0,0,0.0,0,200,200,200,,,,,,,,,,,,,119.02094979999856,0.020949799998561502,None,149.01430580000124,149.01430580000124,149.01430580000124,149.01430580000124,149.01430580000124,149.01430580000124,149.01430580000124,149.01430580000124,149.01430580000124,149.01430580000124,,005,P019,2025_Mar_21_1019,ConditionRich,2021.2.3,59.89774257360265,
119.75,120.0,41,0.0,Stimuli/Blank.png,0,0,0.0,0,201,201,201,,,,,,,,,,,,,119.75428599999941,0.004285999999410706,None,149.7483026000009,149.7483026000009,149.7483026000009,149.7483026000009,149.7483026000009,149.7483026000009,149.7483026000009,149.7483026000009,149.7483026000009,149.7483026000009,,005,P019,2025_Mar_21_1019,ConditionRich,2021.2.3,59.89774257360265,
120.0,120.75,20,0.75,Stimuli/P019/sun_dlnwonqxagdvtlta.jpg,0,0,0.0,0,202,202,202,,,,,,,,,,,,,120.00530249999974,0.005302499999743304,None,150.01520020000135,150.01520020000135,150.01520020000135,150.01520020000135,150.01520020000135,150.01520020000135,150.01520020000135,150.01520020000135,150.01520020000135,150.01520020000135,,005,P019,2025_Mar_21_1019,ConditionRich,2021.2.3,59.89774257360265,
120.75,121.0,41,0.0,Stimuli/Blank.png,0,0,0.0,0,203,203,203,,,,,,,,,,,,,120.77465549999943,0.024655499999425956,None,150.7825580000008,150.7825580000008,150.7825580000008,150.7825580000008,150.7825580000008,150.7825580000008,150.7825580000008,150.7825580000008,150.7825580000008,150.7825580000008,,005,P019,2025_Mar_21_1019,ConditionRich,2021.2.3,59.89774257360265,
121.0,121.75,20,0.75,Stimuli/P019/sun_dlnwonqxagdvtlta.jpg,0,0,0.0,0,204,204,204,,,,,,,,,,,,,121.02485199999865,0.024851999998645624,None,151.03278200000022,151.03278200000022,151.03278200000022,151.03278200000022,151.03278200000022,151.03278200000022,151.03278200000022,151.03278200000022,151.03278200000022,151.03278200000022,,005,P019,2025_Mar_21_1019,ConditionRich,2021.2.3,59.89774257360265,
121.75,122.0,41,0.0,Stimuli/Blank.png,0,0,0.0,0,205,205,205,,,,,,,,,,,,,121.77490289999878,0.024902899998778594,None,151.7834311000006,151.7834311000006,151.7834311000006,151.7834311000006,151.7834311000006,151.7834311000006,151.7834311000006,151.7834311000006,151.7834311000006,151.7834311000006,,005,P019,2025_Mar_21_1019,ConditionRich,2021.2.3,59.89774257360265,
122.0,122.75,20,0.75,Stimuli/P019/sun_dlnwonqxagdvtlta.jpg,0,0,0.0,0,206,206,206,,,,,,,,,,,,,122.02587009999843,0.025870099998428486,None,152.0336711,152.0336711,152.0336711,152.0336711,152.0336711,152.0336711,152.0336711,152.0336711,152.0336711,152.0336711,,005,P019,2025_Mar_21_1019,ConditionRich,2021.2.3,59.89774257360265,
122.75,123.0,41,0.0,Stimuli/Blank.png,0,0,0.0,0,207,207,207,,,,,,,,,,,,,122.77455829999963,0.024558299999625888,None,152.7676578999999,152.7676578999999,152.7676578999999,152.7676578999999,152.7676578999999,152.7676578999999,152.7676578999999,152.7676578999999,152.7676578999999,152.7676578999999,,005,P019,2025_Mar_21_1019,ConditionRich,2021.2.3,59.89774257360265,
123.0,123.75,20,0.75,Stimuli/P019/sun_dlnwonqxagdvtlta.jpg,0,0,0.0,0,208,208,208,,,,,,,,,,,,,123.00797359999888,0.007973599998877035,None,153.01785850000124,153.01785850000124,153.01785850000124,153.01785850000124,153.01785850000124,153.01785850000124,153.01785850000124,153.01785850000124,153.01785850000124,153.01785850000124,,005,P019,2025_Mar_21_1019,ConditionRich,2021.2.3,59.89774257360265,
123.75,124.0,41,0.0,Stimuli/Blank.png,0,0,0.0,0,209,209,209,,,,,,,,,,,,,123.77519289999873,0.025192899998728535,None,153.76853350000056,153.76853350000056,153.76853350000056,153.76853350000056,153.76853350000056,153.76853350000056,153.76853350000056,153.76853350000056,153.76853350000056,153.76853350000056,,005,P019,2025_Mar_21_1019,ConditionRich,2021.2.3,59.89774257360265,
124.0,124.75,36,0.75,Stimuli/P019/things_sunroof_10s.jpg,0,0,0.0,0,210,210,210,,,,,,,,,,,,,124.01085459999922,0.010854599999220227,None,154.01876790000097,154.01876790000097,154.01876790000097,154.01876790000097,154.01876790000097,154.01876790000097,154.01876790000097,154.01876790000097,154.01876790000097,154.01876790000097,,005,P019,2025_Mar_21_1019,ConditionRich,2021.2.3,59.89774257360265,
124.75,125.0,41,0.0,Stimuli/Blank.png,0,0,0.0,0,211,211,211,,,,,,,,,,,,,124.77605249999942,0.026052499999423162,None,154.76940939999986,154.76940939999986,154.76940939999986,154.76940939999986,154.76940939999986,154.76940939999986,154.76940939999986,154.76940939999986,154.76940939999986,154.76940939999986,,005,P019,2025_Mar_21_1019,ConditionRich,2021.2.3,59.89774257360265,
125.0,125.75,36,0.75,Stimuli/P019/things_sunroof_10s.jpg,0,0,0.0,0,212,212,212,,,,,,,,,,,,,125.00985359999868,0.009853599998677964,None,155.00294910000048,155.00294910000048,155.00294910000048,155.00294910000048,155.00294910000048,155.00294910000048,155.00294910000048,155.00294910000048,155.00294910000048,155.00294910000048,,005,P019,2025_Mar_21_1019,ConditionRich,2021.2.3,59.89774257360265,
125.75,126.0,41,0.0,Stimuli/Blank.png,0,0,0.0,0,213,213,213,,,,,,,,,,,,,125.76042699999925,0.010426999999253894,None,155.75360309999996,155.75360309999996,155.75360309999996,155.75360309999996,155.75360309999996,155.75360309999996,155.75360309999996,155.75360309999996,155.75360309999996,155.75360309999996,,005,P019,2025_Mar_21_1019,ConditionRich,2021.2.3,59.89774257360265,
126.0,126.75,36,0.75,Stimuli/P019/things_sunroof_10s.jpg,0,0,0.0,0,214,214,214,,,,,,,,,,,,,126.0101526999988,0.010152699998798198,None,156.0038284000002,156.0038284000002,156.0038284000002,156.0038284000002,156.0038284000002,156.0038284000002,156.0038284000002,156.0038284000002,156.0038284000002,156.0038284000002,,005,P019,2025_Mar_21_1019,ConditionRich,2021.2.3,59.89774257360265,
126.75,127.0,41,0.0,Stimuli/Blank.png,0,0,0.0,0,215,215,215,,,,,,,,,,,,,126.7616066999999,0.011606699999902048,None,156.7712113000016,156.7712113000016,156.7712113000016,156.7712113000016,156.7712113000016,156.7712113000016,156.7712113000016,156.7712113000016,156.7712113000016,156.7712113000016,,005,P019,2025_Mar_21_1019,ConditionRich,2021.2.3,59.89774257360265,
127.0,127.75,36,0.75,Stimuli/P019/things_sunroof_10s.jpg,0,0,0.0,0,216,216,216,,,,,,,,,,,,,127.03090419999899,0.03090419999898586,None,157.03808850000132,157.03808850000132,157.03808850000132,157.03808850000132,157.03808850000132,157.03808850000132,157.03808850000132,157.03808850000132,157.03808850000132,157.03808850000132,,005,P019,2025_Mar_21_1019,ConditionRich,2021.2.3,59.89774257360265,
127.75,128.0,41,0.0,Stimuli/Blank.png,0,0,0.0,0,217,217,217,,,,,,,,,,,,,127.78086449999864,0.030864499998642714,None,157.7887580000006,157.7887580000006,157.7887580000006,157.7887580000006,157.7887580000006,157.7887580000006,157.7887580000006,157.7887580000006,157.7887580000006,157.7887580000006,,005,P019,2025_Mar_21_1019,ConditionRich,2021.2.3,59.89774257360265,
128.0,128.75,40,0.75,Stimuli/P019/things_woman_10s.jpg,0,0,0.0,0,218,218,218,,,,,,,,,,,,,128.0287497999998,0.028749799999786774,None,158.02242490000026,158.02242490000026,158.02242490000026,158.02242490000026,158.02242490000026,158.02242490000026,158.02242490000026,158.02242490000026,158.02242490000026,158.02242490000026,,005,P019,2025_Mar_21_1019,ConditionRich,2021.2.3,59.89774257360265,
128.75,129.0,41,0.0,Stimuli/Blank.png,0,0,0.0,0,219,219,219,,,,,,,,,,,,,128.76518919999944,0.015189199999440461,None,158.7729530000015,158.7729530000015,158.7729530000015,158.7729530000015,158.7729530000015,158.7729530000015,158.7729530000015,158.7729530000015,158.7729530000015,158.7729530000015,,005,P019,2025_Mar_21_1019,ConditionRich,2021.2.3,59.89774257360265,
129.0,129.75,40,0.75,Stimuli/P019/things_woman_10s.jpg,0,0,0.0,0,220,220,220,,,,,,,,,,,,,129.03004839999994,0.030048399999941466,None,159.02316320000136,159.02316320000136,159.02316320000136,159.02316320000136,159.02316320000136,159.02316320000136,159.02316320000136,159.02316320000136,159.02316320000136,159.02316320000136,,005,P019,2025_Mar_21_1019,ConditionRich,2021.2.3,59.89774257360265,
129.75,130.0,41,0.0,Stimuli/Blank.png,0,0,0.0,0,221,221,221,,,,,,,,,,,,,129.76429869999993,0.014298699999926612,None,159.75714400000106,159.75714400000106,159.75714400000106,159.75714400000106,159.75714400000106,159.75714400000106,159.75714400000106,159.75714400000106,159.75714400000106,159.75714400000106,,005,P019,2025_Mar_21_1019,ConditionRich,2021.2.3,59.89774257360265,
130.0,130.75,40,0.75,Stimuli/P019/things_woman_10s.jpg,0,0,0.0,0,222,222,222,,,,,,,,,,,,,130.01387889999933,0.013878899999326677,None,160.0073622,160.0073622,160.0073622,160.0073622,160.0073622,160.0073622,160.0073622,160.0073622,160.0073622,160.0073622,,005,P019,2025_Mar_21_1019,ConditionRich,2021.2.3,59.89774257360265,
130.75,131.0,41,0.0,Stimuli/Blank.png,0,0,0.0,0,223,223,223,,,,,,,,,,,,,130.76482149999902,0.014821499999015941,None,160.7580299000001,160.7580299000001,160.7580299000001,160.7580299000001,160.7580299000001,160.7580299000001,160.7580299000001,160.7580299000001,160.7580299000001,160.7580299000001,,005,P019,2025_Mar_21_1019,ConditionRich,2021.2.3,59.89774257360265,
131.0,131.75,40,0.75,Stimuli/P019/things_woman_10s.jpg,1,0,0.75,0,224,224,224,,,,,,,,,,,,,131.01515889999973,0.015158899999732967,None,161.00824079999984,161.00824079999984,161.00824079999984,161.00824079999984,161.00824079999984,161.00824079999984,161.00824079999984,None,161.00824079999984,161.00824079999984,,005,P019,2025_Mar_21_1019,ConditionRich,2021.2.3,59.89774257360265,
131.75,132.0,41,0.0,Stimuli/Blank.png,0,0,0.0,0,225,225,225,,,,,,,,,,,,,131.74948539999968,-0.000514600000315113,None,161.74223300000085,161.74223300000085,161.74223300000085,161.74223300000085,161.74223300000085,161.74223300000085,161.74223300000085,161.74223300000085,161.74223300000085,161.74223300000085,,005,P019,2025_Mar_21_1019,ConditionRich,2021.2.3,59.89774257360265,
132.0,132.75,13,0.75,Stimuli/P019/sun_bhzwrbdycbchqesq.jpg,0,0,0.0,0,226,226,226,,,,,,,,,,,,,131.99917259999893,-0.0008274000010715099,None,162.00912320000134,162.00912320000134,162.00912320000134,162.00912320000134,162.00912320000134,162.00912320000134,162.00912320000134,162.00912320000134,162.00912320000134,162.00912320000134,,005,P019,2025_Mar_21_1019,ConditionRich,2021.2.3,59.89774257360265,
132.75,133.0,41,0.0,Stimuli/Blank.png,0,0,0.0,0,227,227,227,,,,,,,,,,,,,132.76659499999914,0.0165949999991426,None,162.759872300001,162.759872300001,162.759872300001,162.759872300001,162.759872300001,162.759872300001,162.759872300001,162.759872300001,162.759872300001,162.759872300001,,005,P019,2025_Mar_21_1019,ConditionRich,2021.2.3,59.89774257360265,
133.0,133.75,13,0.75,Stimuli/P019/sun_bhzwrbdycbchqesq.jpg,0,0,0.0,0,228,228,228,,,,,,,,,,,,,132.99955059999957,-0.00044940000043425243,None,162.9933361000003,162.9933361000003,162.9933361000003,162.9933361000003,162.9933361000003,162.9933361000003,162.9933361000003,162.9933361000003,162.9933361000003,162.9933361000003,,005,P019,2025_Mar_21_1019,ConditionRich,2021.2.3,59.89774257360265,
133.75,134.0,41,0.0,Stimuli/Blank.png,0,0,0.0,0,229,229,229,,,,,,,,,,,,,133.75060609999855,0.0006060999985493254,None,163.7439910000012,163.7439910000012,163.7439910000012,163.7439910000012,163.7439910000012,163.7439910000012,163.7439910000012,163.7439910000012,163.7439910000012,163.7439910000012,,005,P019,2025_Mar_21_1019,ConditionRich,2021.2.3,59.89774257360265,
134.0,134.75,13,0.75,Stimuli/P019/sun_bhzwrbdycbchqesq.jpg,0,0,0.0,0,230,230,230,,,,,,,,,,,,,134.00154629999997,0.001546299999972689,None,164.01090269999986,164.01090269999986,164.01090269999986,164.01090269999986,164.01090269999986,164.01090269999986,164.01090269999986,164.01090269999986,164.01090269999986,164.01090269999986,,005,P019,2025_Mar_21_1019,ConditionRich,2021.2.3,59.89774257360265,
134.75,135.0,41,0.0,Stimuli/Blank.png,0,0,0.0,0,231,231,231,,,,,,,,,,,,,134.76980979999826,0.019809799998256494,None,164.7782511000005,164.7782511000005,164.7782511000005,164.7782511000005,164.7782511000005,164.7782511000005,164.7782511000005,164.7782511000005,164.7782511000005,164.7782511000005,,005,P019,2025_Mar_21_1019,ConditionRich,2021.2.3,59.89774257360265,
135.0,135.75,13,0.75,Stimuli/P019/sun_bhzwrbdycbchqesq.jpg,0,0,0.0,0,232,232,232,,,,,,,,,,,,,135.01972749999914,0.019727499999135034,None,165.02847400000064,165.02847400000064,165.02847400000064,165.02847400000064,165.02847400000064,165.02847400000064,165.02847400000064,165.02847400000064,165.02847400000064,165.02847400000064,,005,P019,2025_Mar_21_1019,ConditionRich,2021.2.3,59.89774257360265,
135.75,136.0,41,0.0,Stimuli/Blank.png,0,0,0.0,0,233,233,233,,,,,,,,,,,,,135.76997069999925,0.01997069999924861,None,165.76245890000064,165.76245890000064,165.76245890000064,165.76245890000064,165.76245890000064,165.76245890000064,165.76245890000064,165.76245890000064,165.76245890000064,165.76245890000064,,005,P019,2025_Mar_21_1019,ConditionRich,2021.2.3,59.89774257360265,
136.0,136.75,16,0.75,Stimuli/P019/sun_blfpbbfyzmewzplm.jpg,0,0,0.0,0,234,234,234,,,,,,,,,,,,,136.0053659999994,0.005365999999412452,None,166.01268140000138,166.01268140000138,166.01268140000138,166.01268140000138,166.01268140000138,166.01268140000138,166.01268140000138,166.01268140000138,166.01268140000138,166.01268140000138,,005,P019,2025_Mar_21_1019,ConditionRich,2021.2.3,59.89774257360265,
136.75,137.0,41,0.0,Stimuli/Blank.png,0,0,0.0,0,235,235,235,,,,,,,,,,,,,136.7700823999985,0.020082399998500478,None,166.76332940000066,166.76332940000066,166.76332940000066,166.76332940000066,166.76332940000066,166.76332940000066,166.76332940000066,166.76332940000066,166.76332940000066,166.76332940000066,,005,P019,2025_Mar_21_1019,ConditionRich,2021.2.3,59.89774257360265,
137.0,137.75,16,0.75,Stimuli/P019/sun_blfpbbfyzmewzplm.jpg,0,0,0.0,0,236,236,236,,,,,,,,,,,,,137.0059812999989,0.005981299998893519,None,167.01356570000098,167.01356570000098,167.01356570000098,167.01356570000098,167.01356570000098,167.01356570000098,167.01356570000098,167.01356570000098,167.01356570000098,167.01356570000098,,005,P019,2025_Mar_21_1019,ConditionRich,2021.2.3,59.89774257360265,
137.75,138.0,41,0.0,Stimuli/Blank.png,0,0,0.0,0,237,237,237,,,,,,,,,,,,,137.7710021999992,0.021002199999202276,None,167.76421890000165,167.76421890000165,167.76421890000165,167.76421890000165,167.76421890000165,167.76421890000165,167.76421890000165,167.76421890000165,167.76421890000165,167.76421890000165,,005,P019,2025_Mar_21_1019,ConditionRich,2021.2.3,59.89774257360265,
138.0,138.75,16,0.75,Stimuli/P019/sun_blfpbbfyzmewzplm.jpg,1,0,0.75,0,238,238,238,,,,,,,,,,,,,138.0043328999982,0.004332899998189532,1,167.99772380000104,167.99772380000104,167.99772380000104,167.99772380000104,167.99772380000104,167.99772380000104,167.99772380000104,168.73170280000159,167.99772380000104,167.99772380000104,0.46384299999954237,005,P019,2025_Mar_21_1019,ConditionRich,2021.2.3,59.89774257360265,
138.75,139.0,41,0.0,Stimuli/Blank.png,0,0,0.0,0,239,239,239,,,,,,,,,,,,,138.7546184999992,0.0046184999991965014,None,168.7484156999999,168.7484156999999,168.7484156999999,168.7484156999999,168.7484156999999,168.7484156999999,168.7484156999999,168.7484156999999,168.7484156999999,168.7484156999999,,005,P019,2025_Mar_21_1019,ConditionRich,2021.2.3,59.89774257360265,
139.0,139.75,16,0.75,Stimuli/P019/sun_blfpbbfyzmewzplm.jpg,0,0,0.0,0,240,240,240,,,,,,,,,,,,,139.00543919999836,0.00543919999836362,None,169.01532360000056,169.01532360000056,169.01532360000056,169.01532360000056,169.01532360000056,169.01532360000056,169.01532360000056,169.01532360000056,169.01532360000056,169.01532360000056,,005,P019,2025_Mar_21_1019,ConditionRich,2021.2.3,59.89774257360265,
139.75,140.0,41,0.0,Stimuli/Blank.png,0,0,0.0,0,241,241,241,,,,,,,,,,,,,139.77496489999976,0.024964899999758927,None,169.78267290000076,169.78267290000076,169.78267290000076,169.78267290000076,169.78267290000076,169.78267290000076,169.78267290000076,169.78267290000076,169.78267290000076,169.78267290000076,,005,P019,2025_Mar_21_1019,ConditionRich,2021.2.3,59.89774257360265,
140.0,140.75,15,0.75,Stimuli/P019/sun_bkubdnohuakmwcaj.jpg,0,0,0.0,0,242,242,242,,,,,,,,,,,,,140.02317169999878,0.02317169999878388,None,170.03288210000028,170.03288210000028,170.03288210000028,170.03288210000028,170.03288210000028,170.03288210000028,170.03288210000028,170.03288210000028,170.03288210000028,170.03288210000028,,005,P019,2025_Mar_21_1019,ConditionRich,2021.2.3,59.89774257360265,
140.75,141.0,41,0.0,Stimuli/Blank.png,0,0,0.0,0,243,243,243,,,,,,,,,,,,,140.77569389999917,0.025693899999168934,None,170.78356020000138,170.78356020000138,170.78356020000138,170.78356020000138,170.78356020000138,170.78356020000138,170.78356020000138,170.78356020000138,170.78356020000138,170.78356020000138,,005,P019,2025_Mar_21_1019,ConditionRich,2021.2.3,59.89774257360265,
141.0,141.75,15,0.75,Stimuli/P019/sun_bkubdnohuakmwcaj.jpg,0,0,0.0,0,244,244,244,,,,,,,,,,,,,141.02397699999892,0.02397699999892211,None,171.01706250000097,171.01706250000097,171.01706250000097,171.01706250000097,171.01706250000097,171.01706250000097,171.01706250000097,171.01706250000097,171.01706250000097,171.01706250000097,,005,P019,2025_Mar_21_1019,ConditionRich,2021.2.3,59.89774257360265,
141.75,142.0,41,0.0,Stimuli/Blank.png,0,0,0.0,0,245,245,245,,,,,,,,,,,,,141.75718869999946,0.007188699999460368,None,171.75106310000047,171.75106310000047,171.75106310000047,171.75106310000047,171.75106310000047,171.75106310000047,171.75106310000047,171.75106310000047,171.75106310000047,171.75106310000047,,005,P019,2025_Mar_21_1019,ConditionRich,2021.2.3,59.89774257360265,
142.0,142.75,15,0.75,Stimuli/P019/sun_bkubdnohuakmwcaj.jpg,0,0,0.0,0,246,246,246,,,,,,,,,,,,,142.0072747999984,0.007274799998413073,None,172.0179934000007,172.0179934000007,172.0179934000007,172.0179934000007,172.0179934000007,172.0179934000007,172.0179934000007,172.0179934000007,172.0179934000007,172.0179934000007,,005,P019,2025_Mar_21_1019,ConditionRich,2021.2.3,59.89774257360265,
142.75,143.0,41,0.0,Stimuli/Blank.png,0,0,0.0,0,247,247,247,,,,,,,,,,,,,142.77500009999858,0.025000099998578662,None,172.7686346999999,172.7686346999999,172.7686346999999,172.7686346999999,172.7686346999999,172.7686346999999,172.7686346999999,172.7686346999999,172.7686346999999,172.7686346999999,,005,P019,2025_Mar_21_1019,ConditionRich,2021.2.3,59.89774257360265,
143.0,143.75,15,0.75,Stimuli/P019/sun_bkubdnohuakmwcaj.jpg,0,0,0.0,0,248,248,248,,,,,,,,,,,,,143.01079599999866,0.01079599999866332,None,173.0188556000012,173.0188556000012,173.0188556000012,173.0188556000012,173.0188556000012,173.0188556000012,173.0188556000012,173.0188556000012,173.0188556000012,173.0188556000012,,005,P019,2025_Mar_21_1019,ConditionRich,2021.2.3,59.89774257360265,
143.75,144.0,41,0.0,Stimuli/Blank.png,0,0,0.0,0,249,249,249,,,,,,,,,,,,,143.77551589999894,0.02551589999893622,None,173.76952290000008,173.76952290000008,173.76952290000008,173.76952290000008,173.76952290000008,173.76952290000008,173.76952290000008,173.76952290000008,173.76952290000008,173.76952290000008,,005,P019,2025_Mar_21_1019,ConditionRich,2021.2.3,59.89774257360265,
144.0,144.75,3,0.75,Stimuli/P019/sun_aknrkswonrogcooi.jpg,0,0,0.0,0,250,250,250,,,,,,,,,,,,,144.01008489999913,0.010084899999128538,None,174.00305780000053,174.00305780000053,174.00305780000053,174.00305780000053,174.00305780000053,174.00305780000053,174.00305780000053,174.00305780000053,174.00305780000053,174.00305780000053,,005,P019,2025_Mar_21_1019,ConditionRich,2021.2.3,59.89774257360265,
144.75,145.0,41,0.0,Stimuli/Blank.png,0,0,0.0,0,251,251,251,,,,,,,,,,,,,144.7605126999988,0.01051269999879878,None,174.75375020000138,174.75375020000138,174.75375020000138,174.75375020000138,174.75375020000138,174.75375020000138,174.75375020000138,174.75375020000138,174.75375020000138,174.75375020000138,,005,P019,2025_Mar_21_1019,ConditionRich,2021.2.3,59.89774257360265,
145.0,145.75,3,0.75,Stimuli/P019/sun_aknrkswonrogcooi.jpg,0,0,0.0,0,252,252,252,,,,,,,,,,,,,145.0112266999986,0.01122669999858772,None,175.0206715000004,175.0206715000004,175.0206715000004,175.0206715000004,175.0206715000004,175.0206715000004,175.0206715000004,175.0206715000004,175.0206715000004,175.0206715000004,,005,P019,2025_Mar_21_1019,ConditionRich,2021.2.3,59.89774257360265,
145.75,146.0,41,0.0,Stimuli/Blank.png,0,0,0.0,0,253,253,253,,,,,,,,,,,,,145.77736699999878,0.02736699999877601,None,175.77128240000093,175.77128240000093,175.77128240000093,175.77128240000093,175.77128240000093,175.77128240000093,175.77128240000093,175.77128240000093,175.77128240000093,175.77128240000093,,005,P019,2025_Mar_21_1019,ConditionRich,2021.2.3,59.89774257360265,
146.0,146.75,3,0.75,Stimuli/P019/sun_aknrkswonrogcooi.jpg,0,0,0.0,0,254,254,254,,,,,,,,,,,,,146.0108569999993,0.010856999999305117,None,176.00535090000085,176.00535090000085,176.00535090000085,176.00535090000085,176.00535090000085,176.00535090000085,176.00535090000085,176.00535090000085,176.00535090000085,176.00535090000085,,005,P019,2025_Mar_21_1019,ConditionRich,2021.2.3,59.89774257360265,
146.75,147.0,41,0.0,Stimuli/Blank.png,0,0,0.0,0,255,255,255,,,,,,,,,,,,,146.76153279999926,0.011532799999258714,None,176.75548850000087,176.75548850000087,176.75548850000087,176.75548850000087,176.75548850000087,176.75548850000087,176.75548850000087,176.75548850000087,176.75548850000087,176.75548850000087,,005,P019,2025_Mar_21_1019,ConditionRich,2021.2.3,59.89774257360265,
147.0,147.75,3,0.75,Stimuli/P019/sun_aknrkswonrogcooi.jpg,0,0,0.0,0,256,256,256,,,,,,,,,,,,,147.01188299999922,0.011882999999215826,None,177.00567970000156,177.00567970000156,177.00567970000156,177.00567970000156,177.00567970000156,177.00567970000156,177.00567970000156,177.00567970000156,177.00567970000156,177.00567970000156,,005,P019,2025_Mar_21_1019,ConditionRich,2021.2.3,59.89774257360265,
147.75,148.0,41,0.0,Stimuli/Blank.png,0,0,0.0,0,257,257,257,,,,,,,,,,,,,147.76501949999874,0.015019499998743413,None,177.7730717000013,177.7730717000013,177.7730717000013,177.7730717000013,177.7730717000013,177.7730717000013,177.7730717000013,177.7730717000013,177.7730717000013,177.7730717000013,,005,P019,2025_Mar_21_1019,ConditionRich,2021.2.3,59.89774257360265,
148.0,148.75,17,0.75,Stimuli/P019/sun_bltxkcclrpweopkl.jpg,0,0,0.0,0,258,258,258,,,,,,,,,,,,,148.0292163999984,0.029216399998404086,None,178.02327110000078,178.02327110000078,178.02327110000078,178.02327110000078,178.02327110000078,178.02327110000078,178.02327110000078,178.02327110000078,178.02327110000078,178.02327110000078,,005,P019,2025_Mar_21_1019,ConditionRich,2021.2.3,59.89774257360265,
148.75,149.0,41,0.0,Stimuli/Blank.png,0,0,0.0,0,259,259,259,,,,,,,,,,,,,148.76449539999885,0.01449539999885019,None,178.75727170000027,178.75727170000027,178.75727170000027,178.75727170000027,178.75727170000027,178.75727170000027,178.75727170000027,178.75727170000027,178.75727170000027,178.75727170000027,,005,P019,2025_Mar_21_1019,ConditionRich,2021.2.3,59.89774257360265,
149.0,149.75,17,0.75,Stimuli/P019/sun_bltxkcclrpweopkl.jpg,0,0,0.0,0,260,260,260,,,,,,,,,,,,,149.01426139999967,0.014261399999668356,None,179.0241612000009,179.0241612000009,179.0241612000009,179.0241612000009,179.0241612000009,179.0241612000009,179.0241612000009,179.0241612000009,179.0241612000009,179.0241612000009,,005,P019,2025_Mar_21_1019,ConditionRich,2021.2.3,59.89774257360265,
149.75,150.0,41,0.0,Stimuli/Blank.png,0,0,0.0,0,261,261,261,,,,,,,,,,,,,149.78090209999937,0.030902099999366328,None,179.7748173,179.7748173,179.7748173,179.7748173,179.7748173,179.7748173,179.7748173,179.7748173,179.7748173,179.7748173,,005,P019,2025_Mar_21_1019,ConditionRich,2021.2.3,59.89774257360265,
150.0,150.75,17,0.75,Stimuli/P019/sun_bltxkcclrpweopkl.jpg,0,0,0.0,0,262,262,262,,,,,,,,,,,,,150.01550959999986,0.015509599999859347,None,180.00835840000036,180.00835840000036,180.00835840000036,180.00835840000036,180.00835840000036,180.00835840000036,180.00835840000036,180.00835840000036,180.00835840000036,180.00835840000036,,005,P019,2025_Mar_21_1019,ConditionRich,2021.2.3,59.89774257360265,
