eventStartTime,eventEndTime,eventCond,imSize,imFile,responseEvent,fixRespStart,fixRespEnd,Events.thisRepN,Events.thisTrialN,Events.thisN,Events.thisIndex,Instructions.started,Instructions.stopped,participantReadyResponse.keys,participantReadyResponse.rt,participantReadyResponse.started,participantReadyResponse.stopped,startWaitforTrigger,triggerResponse.keys,triggerResponse.rt,triggerResponse.started,triggerResponse.stopped,globalTimer,actualStartTime,startTimingDiff,participantResponse.keys,participantResponse.started,participantResponse.stopped,image.started,image.stopped,fixationOutside.started,fixationOutside.stopped,fixationResponse.started,fixationResponse.stopped,fixationInside.started,fixationInside.stopped,participantResponse.rt,session,participant,date,expName,psychopyVersion,frameRate,
,,,,,,,,,,,,10.313991300001362,None,1,8.876184800001283,10.313991300001362,None,,,,,,,,,,,,,,,,,,,,,003,P019,2025_Mar_21_0955,ConditionRich,2021.2.3,59.968072998079144,
,,,,,,,,,,,,,,,,,,19.197777999999744,5,13.86809119999998,19.211026500001026,None,,,,,,,,,,,,,,,,003,P019,2025_Mar_21_0955,ConditionRich,2021.2.3,59.968072998079144,
0.0,4.0,0,0.0,Stimuli/Blank.png,0,0,0.0,0,0,0,0,,,,,,,,,,,,33.093375899999955,0.05362069999864616,0.05362069999864616,None,33.17332510000051,None,33.17332510000051,None,33.17332510000051,None,33.17332510000051,33.17332510000051,33.17332510000051,None,,003,P019,2025_Mar_21_0955,ConditionRich,2021.2.3,59.968072998079144,
4.0,7.75,31,0.75,Stimuli/P019/things_fudge_10s.jpg,0,0,0.0,0,1,1,1,,,,,,,,,,,,,4.023841699998229,0.02384169999822916,None,37.14387610000085,37.14387610000085,37.14387610000085,37.14387610000085,37.14387610000085,37.14387610000085,37.14387610000085,37.14387610000085,37.14387610000085,37.14387610000085,,003,P019,2025_Mar_21_0955,ConditionRich,2021.2.3,59.968072998079144,
7.75,8.0,41,0.0,Stimuli/Blank.png,0,0,0.0,0,2,2,2,,,,,,,,,,,,,7.772892499999216,0.022892499999215943,None,40.88059109999995,40.88059109999995,40.88059109999995,40.88059109999995,40.88059109999995,40.88059109999995,40.88059109999995,40.88059109999995,40.88059109999995,40.88059109999995,,003,P019,2025_Mar_21_0955,ConditionRich,2021.2.3,59.968072998079144,
8.0,11.75,5,0.75,Stimuli/P019/sun_amjqxnqvhovkotym.jpg,1,3,3.75,0,3,3,3,,,,,,,,,,,,,8.006005299999742,0.0060052999997424195,1,41.11383630000091,41.11383630000091,41.11383630000091,41.11383630000091,41.11383630000091,41.11383630000091,44.0998952000009,44.85055939999984,41.11383630000091,41.11383630000091,3.481813399999737,003,P019,2025_Mar_21_0955,ConditionRich,2021.2.3,59.968072998079144,
11.75,12.0,41,0.0,Stimuli/Blank.png,0,0,0.0,0,4,4,4,,,,,,,,,,,,,11.761549099999684,0.011549099999683676,None,44.88392990000102,44.88392990000102,44.88392990000102,44.88392990000102,44.88392990000102,44.88392990000102,44.88392990000102,44.88392990000102,44.88392990000102,44.88392990000102,,003,P019,2025_Mar_21_0955,ConditionRich,2021.2.3,59.968072998079144,
12.0,15.75,34,0.75,Stimuli/P019/things_man_10s.jpg,0,0,0.0,0,5,5,5,,,,,,,,,,,,,12.026635599999281,0.026635599999281112,None,45.134181100000205,45.134181100000205,45.134181100000205,45.134181100000205,45.134181100000205,45.134181100000205,45.134181100000205,45.134181100000205,45.134181100000205,45.134181100000205,,003,P019,2025_Mar_21_0955,ConditionRich,2021.2.3,59.968072998079144,
15.75,16.0,41,0.0,Stimuli/Blank.png,0,0,0.0,0,6,6,6,,,,,,,,,,,,,15.762935399998241,0.012935399998241337,None,48.87079620000077,48.87079620000077,48.87079620000077,48.87079620000077,48.87079620000077,48.87079620000077,48.87079620000077,48.87079620000077,48.87079620000077,48.87079620000077,,003,P019,2025_Mar_21_0955,ConditionRich,2021.2.3,59.968072998079144,
16.0,19.75,11,0.75,Stimuli/P019/sun_bcbfjkoziukwmdkd.jpg,0,0,0.0,0,7,7,7,,,,,,,,,,,,,16.013664499998413,0.013664499998412794,None,49.120998500000496,49.120998500000496,49.120998500000496,49.120998500000496,49.120998500000496,49.120998500000496,49.120998500000496,49.120998500000496,49.120998500000496,49.120998500000496,,003,P019,2025_Mar_21_0955,ConditionRich,2021.2.3,59.968072998079144,
19.75,20.0,41,0.0,Stimuli/Blank.png,0,0,0.0,0,8,8,8,,,,,,,,,,,,,19.751778099998774,0.0017780999987735413,None,52.87432620000072,52.87432620000072,52.87432620000072,52.87432620000072,52.87432620000072,52.87432620000072,52.87432620000072,52.87432620000072,52.87432620000072,52.87432620000072,,003,P019,2025_Mar_21_0955,ConditionRich,2021.2.3,59.968072998079144,
20.0,23.75,40,0.75,Stimuli/P019/things_woman_10s.jpg,0,0,0.0,0,9,9,9,,,,,,,,,,,,,20.01722299999892,0.017222999998921296,None,53.12453490000007,53.12453490000007,53.12453490000007,53.12453490000007,53.12453490000007,53.12453490000007,53.12453490000007,53.12453490000007,53.12453490000007,53.12453490000007,,003,P019,2025_Mar_21_0955,ConditionRich,2021.2.3,59.968072998079144,
23.75,24.0,41,0.0,Stimuli/Blank.png,0,0,0.0,0,10,10,10,,,,,,,,,,,,,23.75317659999928,0.003176599999278551,None,56.861175100000764,56.861175100000764,56.861175100000764,56.861175100000764,56.861175100000764,56.861175100000764,56.861175100000764,56.861175100000764,56.861175100000764,56.861175100000764,,003,P019,2025_Mar_21_0955,ConditionRich,2021.2.3,59.968072998079144,
24.0,27.75,19,0.75,Stimuli/P019/sun_byssdezaaqnthppd.jpg,0,0,0.0,0,11,11,11,,,,,,,,,,,,,24.00348379999923,0.0034837999992305413,None,57.111397800001214,57.111397800001214,57.111397800001214,57.111397800001214,57.111397800001214,57.111397800001214,57.111397800001214,57.111397800001214,57.111397800001214,57.111397800001214,,003,P019,2025_Mar_21_0955,ConditionRich,2021.2.3,59.968072998079144,
27.75,28.0,41,0.0,Stimuli/Blank.png,0,0,0.0,0,12,12,12,,,,,,,,,,,,,27.75756789999832,0.0075678999983210815,None,60.864720400000806,60.864720400000806,60.864720400000806,60.864720400000806,60.864720400000806,60.864720400000806,60.864720400000806,60.864720400000806,60.864720400000806,60.864720400000806,,003,P019,2025_Mar_21_0955,ConditionRich,2021.2.3,59.968072998079144,
28.0,31.75,4,0.75,Stimuli/P019/sun_amixpbnrxiulfsri.jpg,0,0,0.0,0,13,13,13,,,,,,,,,,,,,28.007026199999018,0.00702619999901799,None,61.11493070000142,61.11493070000142,61.11493070000142,61.11493070000142,61.11493070000142,61.11493070000142,61.11493070000142,61.11493070000142,61.11493070000142,61.11493070000142,,003,P019,2025_Mar_21_0955,ConditionRich,2021.2.3,59.968072998079144,
31.75,32.0,41,0.0,Stimuli/Blank.png,0,0,0.0,0,14,14,14,,,,,,,,,,,,,31.760990399998263,0.010990399998263456,None,64.86826170000131,64.86826170000131,64.86826170000131,64.86826170000131,64.86826170000131,64.86826170000131,64.86826170000131,64.86826170000131,64.86826170000131,64.86826170000131,,003,P019,2025_Mar_21_0955,ConditionRich,2021.2.3,59.968072998079144,
32.0,35.75,24,0.75,Stimuli/P019/things_bulletin_board_10s.jpg,0,0,0.0,0,15,15,15,,,,,,,,,,,,,32.01110459999836,0.011104599998361664,None,65.11848520000058,65.11848520000058,65.11848520000058,65.11848520000058,65.11848520000058,65.11848520000058,65.11848520000058,65.11848520000058,65.11848520000058,65.11848520000058,,003,P019,2025_Mar_21_0955,ConditionRich,2021.2.3,59.968072998079144,
35.75,36.0,41,0.0,Stimuli/Blank.png,0,0,0.0,0,16,16,16,,,,,,,,,,,,,35.766855799998666,0.016855799998666043,None,68.88847220000025,68.88847220000025,68.88847220000025,68.88847220000025,68.88847220000025,68.88847220000025,68.88847220000025,68.88847220000025,68.88847220000025,68.88847220000025,,003,P019,2025_Mar_21_0955,ConditionRich,2021.2.3,59.968072998079144,
36.0,39.75,30,0.75,Stimuli/P019/things_flip_flop_10s.jpg,1,3,3.75,0,17,17,17,,,,,,,,,,,,,36.01477369999884,0.014773699998841039,1,69.13870560000032,69.13870560000032,69.13870560000032,69.13870560000032,69.13870560000032,69.13870560000032,72.1079995,72.85864980000042,69.13870560000032,69.13870560000032,3.5114267000008113,003,P019,2025_Mar_21_0955,ConditionRich,2021.2.3,59.968072998079144,
39.75,40.0,41,0.0,Stimuli/Blank.png,0,0,0.0,0,18,18,18,,,,,,,,,,,,,39.76755159999993,0.017551599999933387,None,72.87533559999974,72.87533559999974,72.87533559999974,72.87533559999974,72.87533559999974,72.87533559999974,72.87533559999974,72.87533559999974,72.87533559999974,72.87533559999974,,003,P019,2025_Mar_21_0955,ConditionRich,2021.2.3,59.968072998079144,
40.0,43.75,2,0.75,Stimuli/P019/sun_ajhvfwzgpfovdgid.jpg,0,0,0.0,0,19,19,19,,,,,,,,,,,,,40.0017644999989,0.0017644999988988275,None,73.1088620999999,73.1088620999999,73.1088620999999,73.1088620999999,73.1088620999999,73.1088620999999,73.1088620999999,73.1088620999999,73.1088620999999,73.1088620999999,,003,P019,2025_Mar_21_0955,ConditionRich,2021.2.3,59.968072998079144,
43.75,44.0,41,0.0,Stimuli/Blank.png,0,0,0.0,0,20,20,20,,,,,,,,,,,,,43.75419609999881,0.004196099998807767,None,76.86217690000012,76.86217690000012,76.86217690000012,76.86217690000012,76.86217690000012,76.86217690000012,76.86217690000012,76.86217690000012,76.86217690000012,76.86217690000012,,003,P019,2025_Mar_21_0955,ConditionRich,2021.2.3,59.968072998079144,
44.0,47.75,17,0.75,Stimuli/P019/sun_bltxkcclrpweopkl.jpg,0,0,0.0,0,21,21,21,,,,,,,,,,,,,44.004395199999635,0.004395199999635224,None,77.12910270000066,77.12910270000066,77.12910270000066,77.12910270000066,77.12910270000066,77.12910270000066,77.12910270000066,77.12910270000066,77.12910270000066,77.12910270000066,,003,P019,2025_Mar_21_0955,ConditionRich,2021.2.3,59.968072998079144,
47.75,48.0,41,0.0,Stimuli/Blank.png,0,0,0.0,0,22,22,22,,,,,,,,,,,,,47.7766705999984,0.026670599998396938,None,80.89908819999982,80.89908819999982,80.89908819999982,80.89908819999982,80.89908819999982,80.89908819999982,80.89908819999982,80.89908819999982,80.89908819999982,80.89908819999982,,003,P019,2025_Mar_21_0955,ConditionRich,2021.2.3,59.968072998079144,
48.0,51.75,18,0.75,Stimuli/P019/sun_bodjbrgwzlshgypq.jpg,1,3,3.75,0,23,23,23,,,,,,,,,,,,,48.0248376999989,0.024837699998897733,1,81.13263310000002,81.13263310000002,81.13263310000002,81.13263310000002,81.13263310000002,81.13263310000002,84.11860830000114,None,81.13263310000002,81.13263310000002,3.604592200001207,003,P019,2025_Mar_21_0955,ConditionRich,2021.2.3,59.968072998079144,
51.75,52.0,41,0.0,Stimuli/Blank.png,0,0,0.0,0,24,24,24,,,,,,,,,,,,,51.76144219999878,0.011442199998782598,None,84.86925810000139,84.86925810000139,84.86925810000139,84.86925810000139,84.86925810000139,84.86925810000139,84.86925810000139,84.86925810000139,84.86925810000139,84.86925810000139,,003,P019,2025_Mar_21_0955,ConditionRich,2021.2.3,59.968072998079144,
52.0,55.75,10,0.75,Stimuli/P019/sun_bblqhrudkospnbbv.jpg,0,0,0.0,0,25,25,25,,,,,,,,,,,,,52.01238789999843,0.01238789999842993,None,85.11948269999993,85.11948269999993,85.11948269999993,85.11948269999993,85.11948269999993,85.11948269999993,85.11948269999993,85.11948269999993,85.11948269999993,85.11948269999993,,003,P019,2025_Mar_21_0955,ConditionRich,2021.2.3,59.968072998079144,
55.75,56.0,41,0.0,Stimuli/Blank.png,0,0,0.0,0,26,26,26,,,,,,,,,,,,,55.74838809999892,-0.0016119000010803575,None,88.85611560000143,88.85611560000143,88.85611560000143,88.85611560000143,88.85611560000143,88.85611560000143,88.85611560000143,88.85611560000143,88.85611560000143,88.85611560000143,,003,P019,2025_Mar_21_0955,ConditionRich,2021.2.3,59.968072998079144,
56.0,59.75,38,0.75,Stimuli/P019/things_turtle_10n.jpg,0,0,0.0,0,27,27,27,,,,,,,,,,,,,56.0160982999987,0.016098299998702714,None,89.1397106000004,89.1397106000004,89.1397106000004,89.1397106000004,89.1397106000004,89.1397106000004,89.1397106000004,89.1397106000004,89.1397106000004,89.1397106000004,,003,P019,2025_Mar_21_0955,ConditionRich,2021.2.3,59.968072998079144,
59.75,60.0,41,0.0,Stimuli/Blank.png,0,0,0.0,0,28,28,28,,,,,,,,,,,,,59.76836419999927,0.01836419999926875,None,92.87633020000067,92.87633020000067,92.87633020000067,92.87633020000067,92.87633020000067,92.87633020000067,92.87633020000067,92.87633020000067,92.87633020000067,92.87633020000067,,003,P019,2025_Mar_21_0955,ConditionRich,2021.2.3,59.968072998079144,
60.0,63.75,3,0.75,Stimuli/P019/sun_aknrkswonrogcooi.jpg,0,0,0.0,0,29,29,29,,,,,,,,,,,,,60.00205499999902,0.0020549999990180368,None,93.1098462000009,93.1098462000009,93.1098462000009,93.1098462000009,93.1098462000009,93.1098462000009,93.1098462000009,93.1098462000009,93.1098462000009,93.1098462000009,,003,P019,2025_Mar_21_0955,ConditionRich,2021.2.3,59.968072998079144,
63.75,64.0,41,0.0,Stimuli/Blank.png,0,0,0.0,0,30,30,30,,,,,,,,,,,,,63.75670649999847,0.006706499998472282,None,96.86320060000071,96.86320060000071,96.86320060000071,96.86320060000071,96.86320060000071,96.86320060000071,96.86320060000071,96.86320060000071,96.86320060000071,96.86320060000071,,003,P019,2025_Mar_21_0955,ConditionRich,2021.2.3,59.968072998079144,
64.0,67.75,23,0.75,Stimuli/P019/things_boy_10s.jpg,0,0,0.0,0,31,31,31,,,,,,,,,,,,,64.00550129999829,0.005501299998286413,None,97.11340970000128,97.11340970000128,97.11340970000128,97.11340970000128,97.11340970000128,97.11340970000128,97.11340970000128,97.11340970000128,97.11340970000128,97.11340970000128,,003,P019,2025_Mar_21_0955,ConditionRich,2021.2.3,59.968072998079144,
67.75,68.0,41,0.0,Stimuli/Blank.png,0,0,0.0,0,32,32,32,,,,,,,,,,,,,67.76170539999839,0.01170539999839093,None,100.8834308000005,100.8834308000005,100.8834308000005,100.8834308000005,100.8834308000005,100.8834308000005,100.8834308000005,100.8834308000005,100.8834308000005,100.8834308000005,,003,P019,2025_Mar_21_0955,ConditionRich,2021.2.3,59.968072998079144,
68.0,71.75,8,0.75,Stimuli/P019/sun_avbzvunekksfggon.jpg,0,0,0.0,0,33,33,33,,,,,,,,,,,,,68.02566919999845,0.025669199998446857,None,101.13363220000065,101.13363220000065,101.13363220000065,101.13363220000065,101.13363220000065,101.13363220000065,101.13363220000065,101.13363220000065,101.13363220000065,101.13363220000065,,003,P019,2025_Mar_21_0955,ConditionRich,2021.2.3,59.968072998079144,
71.75,72.0,41,0.0,Stimuli/Blank.png,0,0,0.0,0,34,34,34,,,,,,,,,,,,,71.7627324999994,0.012732499999401625,None,104.87027080000007,104.87027080000007,104.87027080000007,104.87027080000007,104.87027080000007,104.87027080000007,104.87027080000007,104.87027080000007,104.87027080000007,104.87027080000007,,003,P019,2025_Mar_21_0955,ConditionRich,2021.2.3,59.968072998079144,
72.0,75.75,39,0.75,Stimuli/P019/things_wire_10s.jpg,0,0,0.0,0,35,35,35,,,,,,,,,,,,,72.01352309999857,0.013523099998565158,None,105.1204826000012,105.1204826000012,105.1204826000012,105.1204826000012,105.1204826000012,105.1204826000012,105.1204826000012,105.1204826000012,105.1204826000012,105.1204826000012,,003,P019,2025_Mar_21_0955,ConditionRich,2021.2.3,59.968072998079144,
75.75,76.0,41,0.0,Stimuli/Blank.png,0,0,0.0,0,36,36,36,,,,,,,,,,,,,75.7513199999994,0.0013199999993958045,None,108.87381270000151,108.87381270000151,108.87381270000151,108.87381270000151,108.87381270000151,108.87381270000151,108.87381270000151,108.87381270000151,108.87381270000151,108.87381270000151,,003,P019,2025_Mar_21_0955,ConditionRich,2021.2.3,59.968072998079144,
76.0,79.75,33,0.75,Stimuli/P019/things_insole_10s.jpg,0,0,0.0,0,37,37,37,,,,,,,,,,,,,76.0166393999989,0.016639399998894078,None,109.12402900000052,109.12402900000052,109.12402900000052,109.12402900000052,109.12402900000052,109.12402900000052,109.12402900000052,109.12402900000052,109.12402900000052,109.12402900000052,,003,P019,2025_Mar_21_0955,ConditionRich,2021.2.3,59.968072998079144,
79.75,80.0,41,0.0,Stimuli/Blank.png,0,0,0.0,0,38,38,38,,,,,,,,,,,,,79.75281309999991,0.002813099999912083,None,112.86065969999981,112.86065969999981,112.86065969999981,112.86065969999981,112.86065969999981,112.86065969999981,112.86065969999981,112.86065969999981,112.86065969999981,112.86065969999981,,003,P019,2025_Mar_21_0955,ConditionRich,2021.2.3,59.968072998079144,
80.0,83.75,25,0.75,Stimuli/P019/things_chime_10s.jpg,1,1,1.75,0,39,39,39,,,,,,,,,,,,,80.00303839999833,0.0030383999983314425,1,113.11088810000001,113.11088810000001,113.11088810000001,113.11088810000001,113.11088810000001,113.11088810000001,114.09507360000134,114.84585070000139,113.11088810000001,113.11088810000001,1.4226679999992484,003,P019,2025_Mar_21_0955,ConditionRich,2021.2.3,59.968072998079144,
83.75,84.0,41,0.0,Stimuli/Blank.png,0,0,0.0,0,40,40,40,,,,,,,,,,,,,83.75734489999923,0.007344899999225163,None,116.86421740000151,116.86421740000151,116.86421740000151,116.86421740000151,116.86421740000151,116.86421740000151,116.86421740000151,116.86421740000151,116.86421740000151,116.86421740000151,,003,P019,2025_Mar_21_0955,ConditionRich,2021.2.3,59.968072998079144,
84.0,100.0,0,0.0,Stimuli/Blank.png,1,8,8.75,0,41,41,41,,,,,,,,,,,,,84.0065416999987,0.006541699998706463,1,117.11442480000005,117.11442480000005,117.11442480000005,117.11442480000005,117.11442480000005,117.11442480000005,125.10485610000069,125.85547600000064,117.11442480000005,117.11442480000005,8.508772099999987,003,P019,2025_Mar_21_0955,ConditionRich,2021.2.3,59.968072998079144,
100.0,103.75,37,0.75,Stimuli/P019/things_toaster_10s.jpg,0,0,0.0,0,42,42,42,,,,,,,,,,,,,100.00484009999855,0.004840099998546066,None,133.11189449999983,133.11189449999983,133.11189449999983,133.11189449999983,133.11189449999983,133.11189449999983,133.11189449999983,133.11189449999983,133.11189449999983,133.11189449999983,,003,P019,2025_Mar_21_0955,ConditionRich,2021.2.3,59.968072998079144,
103.75,104.0,41,0.0,Stimuli/Blank.png,0,0,0.0,0,43,43,43,,,,,,,,,,,,,103.75721099999828,0.007210999998278567,None,136.86520070000006,136.86520070000006,136.86520070000006,136.86520070000006,136.86520070000006,136.86520070000006,136.86520070000006,136.86520070000006,136.86520070000006,136.86520070000006,,003,P019,2025_Mar_21_0955,ConditionRich,2021.2.3,59.968072998079144,
104.0,107.75,16,0.75,Stimuli/P019/sun_blfpbbfyzmewzplm.jpg,1,2,2.75,0,44,44,44,,,,,,,,,,,,,104.00825649999933,0.008256499999333755,1,137.11545530000149,137.11545530000149,137.11545530000149,137.11545530000149,137.11545530000149,137.11545530000149,139.10052670000005,139.85118140000122,137.11545530000149,137.11545530000149,2.4207217000002856,003,P019,2025_Mar_21_0955,ConditionRich,2021.2.3,59.968072998079144,
107.75,108.0,41,0.0,Stimuli/Blank.png,0,0,0.0,0,45,45,45,,,,,,,,,,,,,107.76182369999879,0.011823699998785742,None,140.86874379999972,140.86874379999972,140.86874379999972,140.86874379999972,140.86874379999972,140.86874379999972,140.86874379999972,140.86874379999972,140.86874379999972,140.86874379999972,,003,P019,2025_Mar_21_0955,ConditionRich,2021.2.3,59.968072998079144,
108.0,111.75,27,0.75,Stimuli/P019/things_eel_10s.jpg,0,0,0.0,0,46,46,46,,,,,,,,,,,,,108.01234449999902,0.012344499999016989,None,141.13567570000123,141.13567570000123,141.13567570000123,141.13567570000123,141.13567570000123,141.13567570000123,141.13567570000123,141.13567570000123,141.13567570000123,141.13567570000123,,003,P019,2025_Mar_21_0955,ConditionRich,2021.2.3,59.968072998079144,
111.75,112.0,41,0.0,Stimuli/Blank.png,0,0,0.0,0,47,47,47,,,,,,,,,,,,,111.76758489999884,0.0175848999988375,None,144.888964400001,144.888964400001,144.888964400001,144.888964400001,144.888964400001,144.888964400001,144.888964400001,144.888964400001,144.888964400001,144.888964400001,,003,P019,2025_Mar_21_0955,ConditionRich,2021.2.3,59.968072998079144,
112.0,115.75,12,0.75,Stimuli/P019/sun_bgjrtiivbwugxhxp.jpg,0,0,0.0,0,48,48,48,,,,,,,,,,,,,112.01454329999979,0.01454329999978654,None,145.12250350000068,145.12250350000068,145.12250350000068,145.12250350000068,145.12250350000068,145.12250350000068,145.12250350000068,145.12250350000068,145.12250350000068,145.12250350000068,,003,P019,2025_Mar_21_0955,ConditionRich,2021.2.3,59.968072998079144,
115.75,116.0,41,0.0,Stimuli/Blank.png,0,0,0.0,0,49,49,49,,,,,,,,,,,,,115.75240669999948,0.002406699999482953,None,148.85914430000048,148.85914430000048,148.85914430000048,148.85914430000048,148.85914430000048,148.85914430000048,148.85914430000048,148.85914430000048,148.85914430000048,148.85914430000048,,003,P019,2025_Mar_21_0955,ConditionRich,2021.2.3,59.968072998079144,
116.0,119.75,9,0.75,Stimuli/P019/sun_bbfmuujfvpiaqdww.jpg,0,0,0.0,0,50,50,50,,,,,,,,,,,,,116.00136559999919,0.001365599999189726,None,149.109352200001,149.109352200001,149.109352200001,149.109352200001,149.109352200001,149.109352200001,149.109352200001,149.109352200001,149.109352200001,149.109352200001,,003,P019,2025_Mar_21_0955,ConditionRich,2021.2.3,59.968072998079144,
119.75,120.0,41,0.0,Stimuli/Blank.png,0,0,0.0,0,51,51,51,,,,,,,,,,,,,119.7567102999983,0.006710299998303526,None,152.8793654000001,152.8793654000001,152.8793654000001,152.8793654000001,152.8793654000001,152.8793654000001,152.8793654000001,152.8793654000001,152.8793654000001,152.8793654000001,,003,P019,2025_Mar_21_0955,ConditionRich,2021.2.3,59.968072998079144,
120.0,123.75,32,0.75,Stimuli/P019/things_girl_10s.jpg,0,0,0.0,0,52,52,52,,,,,,,,,,,,,120.02226639999935,0.02226639999935287,None,153.12957540000025,153.12957540000025,153.12957540000025,153.12957540000025,153.12957540000025,153.12957540000025,153.12957540000025,153.12957540000025,153.12957540000025,153.12957540000025,,003,P019,2025_Mar_21_0955,ConditionRich,2021.2.3,59.968072998079144,
123.75,124.0,41,0.0,Stimuli/Blank.png,0,0,0.0,0,53,53,53,,,,,,,,,,,,,123.75969509999959,0.009695099999589729,None,156.8662193,156.8662193,156.8662193,156.8662193,156.8662193,156.8662193,156.8662193,156.8662193,156.8662193,156.8662193,,003,P019,2025_Mar_21_0955,ConditionRich,2021.2.3,59.968072998079144,
124.0,127.75,29,0.75,Stimuli/P019/things_flamingo_10s.jpg,1,0,0.75,0,54,54,54,,,,,,,,,,,,,124.01137069999822,0.011370699998224154,1,157.1331353000005,157.1331353000005,157.1331353000005,157.1331353000005,157.1331353000005,157.1331353000005,157.1331353000005,157.86714370000118,157.1331353000005,157.1331353000005,0.6370296999994025,003,P019,2025_Mar_21_0955,ConditionRich,2021.2.3,59.968072998079144,
127.75,128.0,41,0.0,Stimuli/Blank.png,0,0,0.0,0,55,55,55,,,,,,,,,,,,,127.77978239999902,0.029782399999021436,None,160.88644209999984,160.88644209999984,160.88644209999984,160.88644209999984,160.88644209999984,160.88644209999984,160.88644209999984,160.88644209999984,160.88644209999984,160.88644209999984,,003,P019,2025_Mar_21_0955,ConditionRich,2021.2.3,59.968072998079144,
128.0,131.75,7,0.75,Stimuli/P019/sun_aqkbfuonyunmyqxb.jpg,0,0,0.0,0,56,56,56,,,,,,,,,,,,,128.0123881999989,0.012388199998895288,None,161.13669050000135,161.13669050000135,161.13669050000135,161.13669050000135,161.13669050000135,161.13669050000135,161.13669050000135,161.13669050000135,161.13669050000135,161.13669050000135,,003,P019,2025_Mar_21_0955,ConditionRich,2021.2.3,59.968072998079144,
131.75,132.0,41,0.0,Stimuli/Blank.png,0,0,0.0,0,57,57,57,,,,,,,,,,,,,131.76601159999882,0.016011599998819293,None,164.87329190000128,164.87329190000128,164.87329190000128,164.87329190000128,164.87329190000128,164.87329190000128,164.87329190000128,164.87329190000128,164.87329190000128,164.87329190000128,,003,P019,2025_Mar_21_0955,ConditionRich,2021.2.3,59.968072998079144,
132.0,135.75,22,0.75,Stimuli/P019/things_bead_10s.jpg,0,0,0.0,0,58,58,58,,,,,,,,,,,,,131.9987618999985,-0.0012381000015011523,None,165.10682090000046,165.10682090000046,165.10682090000046,165.10682090000046,165.10682090000046,165.10682090000046,165.10682090000046,165.10682090000046,165.10682090000046,165.10682090000046,,003,P019,2025_Mar_21_0955,ConditionRich,2021.2.3,59.968072998079144,
135.75,136.0,41,0.0,Stimuli/Blank.png,0,0,0.0,0,59,59,59,,,,,,,,,,,,,135.75229529999888,0.0022952999988774536,None,168.86013980000098,168.86013980000098,168.86013980000098,168.86013980000098,168.86013980000098,168.86013980000098,168.86013980000098,168.86013980000098,168.86013980000098,168.86013980000098,,003,P019,2025_Mar_21_0955,ConditionRich,2021.2.3,59.968072998079144,
136.0,139.75,6,0.75,Stimuli/P019/sun_amppcthpabgulbwl.jpg,0,0,0.0,0,60,60,60,,,,,,,,,,,,,136.00272469999982,0.0027246999998169485,None,169.11036270000113,169.11036270000113,169.11036270000113,169.11036270000113,169.11036270000113,169.11036270000113,169.11036270000113,169.11036270000113,169.11036270000113,169.11036270000113,,003,P019,2025_Mar_21_0955,ConditionRich,2021.2.3,59.968072998079144,
139.75,140.0,41,0.0,Stimuli/Blank.png,0,0,0.0,0,61,61,61,,,,,,,,,,,,,139.7556713999984,0.00567139999839128,None,172.86367670000072,172.86367670000072,172.86367670000072,172.86367670000072,172.86367670000072,172.86367670000072,172.86367670000072,172.86367670000072,172.86367670000072,172.86367670000072,,003,P019,2025_Mar_21_0955,ConditionRich,2021.2.3,59.968072998079144,
140.0,143.75,21,0.75,Stimuli/P019/things_anteater_10s.jpg,0,0,0.0,0,62,62,62,,,,,,,,,,,,,140.00652229999832,0.006522299998323433,None,173.11391000000003,173.11391000000003,173.11391000000003,173.11391000000003,173.11391000000003,173.11391000000003,173.11391000000003,173.11391000000003,173.11391000000003,173.11391000000003,,003,P019,2025_Mar_21_0955,ConditionRich,2021.2.3,59.968072998079144,
143.75,144.0,41,0.0,Stimuli/Blank.png,0,0,0.0,0,63,63,63,,,,,,,,,,,,,143.7613988999983,0.011398899998312118,None,176.88395800000035,176.88395800000035,176.88395800000035,176.88395800000035,176.88395800000035,176.88395800000035,176.88395800000035,176.88395800000035,176.88395800000035,176.88395800000035,,003,P019,2025_Mar_21_0955,ConditionRich,2021.2.3,59.968072998079144,
144.0,147.75,13,0.75,Stimuli/P019/sun_bhzwrbdycbchqesq.jpg,0,0,0.0,0,64,64,64,,,,,,,,,,,,,144.02712039999824,0.02712039999823901,None,177.13412130000142,177.13412130000142,177.13412130000142,177.13412130000142,177.13412130000142,177.13412130000142,177.13412130000142,177.13412130000142,177.13412130000142,177.13412130000142,,003,P019,2025_Mar_21_0955,ConditionRich,2021.2.3,59.968072998079144,
147.75,148.0,41,0.0,Stimuli/Blank.png,0,0,0.0,0,65,65,65,,,,,,,,,,,,,147.76343669999915,0.013436699999147095,None,180.87080229999992,180.87080229999992,180.87080229999992,180.87080229999992,180.87080229999992,180.87080229999992,180.87080229999992,180.87080229999992,180.87080229999992,180.87080229999992,,003,P019,2025_Mar_21_0955,ConditionRich,2021.2.3,59.968072998079144,
148.0,151.75,35,0.75,Stimuli/P019/things_pretzel_10s.jpg,0,0,0.0,0,66,66,66,,,,,,,,,,,,,148.01359459999912,0.013594599999123602,None,181.1209658000007,181.1209658000007,181.1209658000007,181.1209658000007,181.1209658000007,181.1209658000007,181.1209658000007,181.1209658000007,181.1209658000007,181.1209658000007,,003,P019,2025_Mar_21_0955,ConditionRich,2021.2.3,59.968072998079144,
151.75,152.0,41,0.0,Stimuli/Blank.png,0,0,0.0,0,67,67,67,,,,,,,,,,,,,151.74977019999824,-0.00022980000176175963,None,184.85760760000085,184.85760760000085,184.85760760000085,184.85760760000085,184.85760760000085,184.85760760000085,184.85760760000085,184.85760760000085,184.85760760000085,184.85760760000085,,003,P019,2025_Mar_21_0955,ConditionRich,2021.2.3,59.968072998079144,
152.0,155.75,20,0.75,Stimuli/P019/sun_dlnwonqxagdvtlta.jpg,0,0,0.0,0,68,68,68,,,,,,,,,,,,,152.0002620999985,0.0002620999985083472,None,185.10783300000003,185.10783300000003,185.10783300000003,185.10783300000003,185.10783300000003,185.10783300000003,185.10783300000003,185.10783300000003,185.10783300000003,185.10783300000003,,003,P019,2025_Mar_21_0955,ConditionRich,2021.2.3,59.968072998079144,
155.75,156.0,41,0.0,Stimuli/Blank.png,0,0,0.0,0,69,69,69,,,,,,,,,,,,,155.7532732999989,0.0032732999989093514,None,188.86114009999983,188.86114009999983,188.86114009999983,188.86114009999983,188.86114009999983,188.86114009999983,188.86114009999983,188.86114009999983,188.86114009999983,188.86114009999983,,003,P019,2025_Mar_21_0955,ConditionRich,2021.2.3,59.968072998079144,
156.0,159.75,26,0.75,Stimuli/P019/things_earwig_10n.jpg,0,0,0.0,0,70,70,70,,,,,,,,,,,,,156.00355389999822,0.003553899998223642,1,189.11136710000028,189.11136710000028,189.11136710000028,189.11136710000028,189.11136710000028,189.11136710000028,189.11136710000028,189.11136710000028,189.11136710000028,189.11136710000028,2.4560252999999648,003,P019,2025_Mar_21_0955,ConditionRich,2021.2.3,59.968072998079144,
159.75,160.0,41,0.0,Stimuli/Blank.png,0,0,0.0,0,71,71,71,,,,,,,,,,,,,159.75674329999856,0.00674329999856127,None,192.8646865999999,192.8646865999999,192.8646865999999,192.8646865999999,192.8646865999999,192.8646865999999,192.8646865999999,192.8646865999999,192.8646865999999,192.8646865999999,,003,P019,2025_Mar_21_0955,ConditionRich,2021.2.3,59.968072998079144,
160.0,163.75,1,0.75,Stimuli/P019/sun_aaaidwecchadbake.jpg,1,3,3.75,0,72,72,72,,,,,,,,,,,,,160.0069341999988,0.0069341999987955205,1,193.11490969999977,193.11490969999977,193.11490969999977,193.11490969999977,193.11490969999977,193.11490969999977,196.1008763000009,196.85160689999975,193.11490969999977,193.11490969999977,3.5081943000004685,003,P019,2025_Mar_21_0955,ConditionRich,2021.2.3,59.968072998079144,
163.75,164.0,41,0.0,Stimuli/Blank.png,0,0,0.0,0,73,73,73,,,,,,,,,,,,,163.76141409999946,0.011414099999456084,None,196.86822380000012,196.86822380000012,196.86822380000012,196.86822380000012,196.86822380000012,196.86822380000012,196.86822380000012,196.86822380000012,196.86822380000012,196.86822380000012,,003,P019,2025_Mar_21_0955,ConditionRich,2021.2.3,59.968072998079144,
164.0,167.75,14,0.75,Stimuli/P019/sun_birvagufpcschyrr.jpg,1,0,0.75,0,74,74,74,,,,,,,,,,,,,164.0110952999985,0.011095299998487462,1,197.11844310000015,197.11844310000015,197.11844310000015,197.11844310000015,197.11844310000015,197.11844310000015,197.11844310000015,197.852421900001,197.11844310000015,197.11844310000015,0.5397671999999147,003,P019,2025_Mar_21_0955,ConditionRich,2021.2.3,59.968072998079144,
167.75,168.0,41,0.0,Stimuli/Blank.png,0,0,0.0,0,75,75,75,,,,,,,,,,,,,167.7638191999995,0.013819199999488774,None,200.87175900000148,200.87175900000148,200.87175900000148,200.87175900000148,200.87175900000148,200.87175900000148,200.87175900000148,200.87175900000148,200.87175900000148,200.87175900000148,,003,P019,2025_Mar_21_0955,ConditionRich,2021.2.3,59.968072998079144,
168.0,171.75,36,0.75,Stimuli/P019/things_sunroof_10s.jpg,0,0,0.0,0,76,76,76,,,,,,,,,,,,,168.0152492999987,0.015249299998686183,None,201.12201210000057,201.12201210000057,201.12201210000057,201.12201210000057,201.12201210000057,201.12201210000057,201.12201210000057,201.12201210000057,201.12201210000057,201.12201210000057,,003,P019,2025_Mar_21_0955,ConditionRich,2021.2.3,59.968072998079144,
171.75,172.0,41,0.0,Stimuli/Blank.png,0,0,0.0,0,77,77,77,,,,,,,,,,,,,171.75187219999862,0.0018721999986155424,None,204.85861570000088,204.85861570000088,204.85861570000088,204.85861570000088,204.85861570000088,204.85861570000088,204.85861570000088,204.85861570000088,204.85861570000088,204.85861570000088,,003,P019,2025_Mar_21_0955,ConditionRich,2021.2.3,59.968072998079144,
172.0,175.75,15,0.75,Stimuli/P019/sun_bkubdnohuakmwcaj.jpg,0,0,0.0,0,78,78,78,,,,,,,,,,,,,172.0015689999982,0.0015689999981987057,None,205.10884780000015,205.10884780000015,205.10884780000015,205.10884780000015,205.10884780000015,205.10884780000015,205.10884780000015,205.10884780000015,205.10884780000015,205.10884780000015,,003,P019,2025_Mar_21_0955,ConditionRich,2021.2.3,59.968072998079144,
175.75,176.0,41,0.0,Stimuli/Blank.png,0,0,0.0,0,79,79,79,,,,,,,,,,,,,175.7563670999989,0.006367099998897174,None,208.87886450000042,208.87886450000042,208.87886450000042,208.87886450000042,208.87886450000042,208.87886450000042,208.87886450000042,208.87886450000042,208.87886450000042,208.87886450000042,,003,P019,2025_Mar_21_0955,ConditionRich,2021.2.3,59.968072998079144,
176.0,179.75,28,0.75,Stimuli/P019/things_face_10s.jpg,0,0,0.0,0,80,80,80,,,,,,,,,,,,,176.0224744999996,0.02247449999958917,None,209.1457377000006,209.1457377000006,209.1457377000006,209.1457377000006,209.1457377000006,209.1457377000006,209.1457377000006,209.1457377000006,209.1457377000006,209.1457377000006,,003,P019,2025_Mar_21_0955,ConditionRich,2021.2.3,59.968072998079144,
179.75,180.0,41,0.0,Stimuli/Blank.png,0,0,0.0,0,81,81,81,,,,,,,,,,,,,179.7751032999986,0.025103299998590956,None,212.88318440000148,212.88318440000148,212.88318440000148,212.88318440000148,212.88318440000148,212.88318440000148,212.88318440000148,212.88318440000148,212.88318440000148,212.88318440000148,,003,P019,2025_Mar_21_0955,ConditionRich,2021.2.3,59.968072998079144,
180.0,196.0,0,0.0,Stimuli/Blank.png,1,7,7.75,0,82,82,82,,,,,,,,,,,,,180.00802849999855,0.008028499998545158,1,213.11598480000066,213.11598480000066,213.11598480000066,213.11598480000066,213.11598480000066,213.11598480000066,220.1054862000001,220.85614069999974,213.11598480000066,213.11598480000066,7.547305199999755,003,P019,2025_Mar_21_0955,ConditionRich,2021.2.3,59.968072998079144,
196.0,199.75,35,0.75,Stimuli/P019/things_pretzel_10s.jpg,0,0,0.0,0,83,83,83,,,,,,,,,,,,,196.00648719999845,0.006487199998446158,None,229.11338200000137,229.11338200000137,229.11338200000137,229.11338200000137,229.11338200000137,229.11338200000137,229.11338200000137,229.11338200000137,229.11338200000137,229.11338200000137,,003,P019,2025_Mar_21_0955,ConditionRich,2021.2.3,59.968072998079144,
199.75,200.0,41,0.0,Stimuli/Blank.png,0,0,0.0,0,84,84,84,,,,,,,,,,,,,199.75899509999908,0.008995099999083322,None,232.86669210000036,232.86669210000036,232.86669210000036,232.86669210000036,232.86669210000036,232.86669210000036,232.86669210000036,232.86669210000036,232.86669210000036,232.86669210000036,,003,P019,2025_Mar_21_0955,ConditionRich,2021.2.3,59.968072998079144,
200.0,203.75,9,0.75,Stimuli/P019/sun_bbfmuujfvpiaqdww.jpg,0,0,0.0,0,85,85,85,,,,,,,,,,,,,200.008936799999,0.008936799998991773,None,233.11692180000136,233.11692180000136,233.11692180000136,233.11692180000136,233.11692180000136,233.11692180000136,233.11692180000136,233.11692180000136,233.11692180000136,233.11692180000136,,003,P019,2025_Mar_21_0955,ConditionRich,2021.2.3,59.968072998079144,
203.75,204.0,41,0.0,Stimuli/Blank.png,0,0,0.0,0,86,86,86,,,,,,,,,,,,,203.76230059999943,0.01230059999943478,None,236.8702376000001,236.8702376000001,236.8702376000001,236.8702376000001,236.8702376000001,236.8702376000001,236.8702376000001,236.8702376000001,236.8702376000001,236.8702376000001,,003,P019,2025_Mar_21_0955,ConditionRich,2021.2.3,59.968072998079144,
204.0,207.75,4,0.75,Stimuli/P019/sun_amixpbnrxiulfsri.jpg,0,0,0.0,0,87,87,87,,,,,,,,,,,,,204.01312899999903,0.013128999999025837,None,237.12045949999992,237.12045949999992,237.12045949999992,237.12045949999992,237.12045949999992,237.12045949999992,237.12045949999992,237.12045949999992,237.12045949999992,237.12045949999992,,003,P019,2025_Mar_21_0955,ConditionRich,2021.2.3,59.968072998079144,
207.75,208.0,41,0.0,Stimuli/Blank.png,0,0,0.0,0,88,88,88,,,,,,,,,,,,,207.74904069999866,-0.0009593000013410347,None,240.85708370000066,240.85708370000066,240.85708370000066,240.85708370000066,240.85708370000066,240.85708370000066,240.85708370000066,240.85708370000066,240.85708370000066,240.85708370000066,,003,P019,2025_Mar_21_0955,ConditionRich,2021.2.3,59.968072998079144,
208.0,211.75,25,0.75,Stimuli/P019/things_chime_10s.jpg,1,1,1.75,0,89,89,89,,,,,,,,,,,,,208.0000825999996,8.259999958681874e-05,1,241.10730049999984,241.10730049999984,241.10730049999984,241.10730049999984,241.10730049999984,241.10730049999984,242.09150890000092,242.84220520000054,241.10730049999984,241.10730049999984,1.5378475999987131,003,P019,2025_Mar_21_0955,ConditionRich,2021.2.3,59.968072998079144,
211.75,212.0,41,0.0,Stimuli/Blank.png,0,0,0.0,0,90,90,90,,,,,,,,,,,,,211.75368649999837,0.003686499998366344,None,244.86062810000112,244.86062810000112,244.86062810000112,244.86062810000112,244.86062810000112,244.86062810000112,244.86062810000112,244.86062810000112,244.86062810000112,244.86062810000112,,003,P019,2025_Mar_21_0955,ConditionRich,2021.2.3,59.968072998079144,
212.0,215.75,11,0.75,Stimuli/P019/sun_bcbfjkoziukwmdkd.jpg,0,0,0.0,0,91,91,91,,,,,,,,,,,,,212.00361499999963,0.003614999999626889,None,245.12757610000153,245.12757610000153,245.12757610000153,245.12757610000153,245.12757610000153,245.12757610000153,245.12757610000153,245.12757610000153,245.12757610000153,245.12757610000153,,003,P019,2025_Mar_21_0955,ConditionRich,2021.2.3,59.968072998079144,
215.75,216.0,41,0.0,Stimuli/Blank.png,0,0,0.0,0,92,92,92,,,,,,,,,,,,,215.7728647999993,0.022864799999297247,None,248.88083460000053,248.88083460000053,248.88083460000053,248.88083460000053,248.88083460000053,248.88083460000053,248.88083460000053,248.88083460000053,248.88083460000053,248.88083460000053,,003,P019,2025_Mar_21_0955,ConditionRich,2021.2.3,59.968072998079144,
216.0,219.75,2,0.75,Stimuli/P019/sun_ajhvfwzgpfovdgid.jpg,0,0,0.0,0,93,93,93,,,,,,,,,,,,,216.00779059999877,0.007790599998770631,None,249.1149643000008,249.1149643000008,249.1149643000008,249.1149643000008,249.1149643000008,249.1149643000008,249.1149643000008,249.1149643000008,249.1149643000008,249.1149643000008,,003,P019,2025_Mar_21_0955,ConditionRich,2021.2.3,59.968072998079144,
219.75,220.0,41,0.0,Stimuli/Blank.png,0,0,0.0,0,94,94,94,,,,,,,,,,,,,219.7601782999991,0.010178299999097362,None,252.867742800001,252.867742800001,252.867742800001,252.867742800001,252.867742800001,252.867742800001,252.867742800001,252.867742800001,252.867742800001,252.867742800001,,003,P019,2025_Mar_21_0955,ConditionRich,2021.2.3,59.968072998079144,
220.0,223.75,13,0.75,Stimuli/P019/sun_bhzwrbdycbchqesq.jpg,0,0,0.0,0,95,95,95,,,,,,,,,,,,,220.01149850000002,0.011498500000016065,None,253.13462790000085,253.13462790000085,253.13462790000085,253.13462790000085,253.13462790000085,253.13462790000085,253.13462790000085,253.13462790000085,253.13462790000085,253.13462790000085,,003,P019,2025_Mar_21_0955,ConditionRich,2021.2.3,59.968072998079144,
223.75,224.0,41,0.0,Stimuli/Blank.png,0,0,0.0,0,96,96,96,,,,,,,,,,,,,223.78119229999902,0.03119229999902018,None,256.8879229000013,256.8879229000013,256.8879229000013,256.8879229000013,256.8879229000013,256.8879229000013,256.8879229000013,256.8879229000013,256.8879229000013,256.8879229000013,,003,P019,2025_Mar_21_0955,ConditionRich,2021.2.3,59.968072998079144,
224.0,227.75,37,0.75,Stimuli/P019/things_toaster_10s.jpg,0,0,0.0,0,97,97,97,,,,,,,,,,,,,224.0166969999991,0.01669699999911245,None,257.1381452000005,257.1381452000005,257.1381452000005,257.1381452000005,257.1381452000005,257.1381452000005,257.1381452000005,257.1381452000005,257.1381452000005,257.1381452000005,,003,P019,2025_Mar_21_0955,ConditionRich,2021.2.3,59.968072998079144,
227.75,228.0,41,0.0,Stimuli/Blank.png,0,0,0.0,0,98,98,98,,,,,,,,,,,,,227.76687859999947,0.0168785999994725,None,260.8747684000009,260.8747684000009,260.8747684000009,260.8747684000009,260.8747684000009,260.8747684000009,260.8747684000009,260.8747684000009,260.8747684000009,260.8747684000009,,003,P019,2025_Mar_21_0955,ConditionRich,2021.2.3,59.968072998079144,
228.0,231.75,39,0.75,Stimuli/P019/things_wire_10s.jpg,1,0,0.75,0,99,99,99,,,,,,,,,,,,,228.00104229999852,0.0010422999985166825,1,261.1083103000001,261.1083103000001,261.1083103000001,261.1083103000001,261.1083103000001,261.1083103000001,261.1083103000001,261.84235310000076,261.1083103000001,261.1083103000001,0.4408427999987907,003,P019,2025_Mar_21_0955,ConditionRich,2021.2.3,59.968072998079144,
231.75,232.0,41,0.0,Stimuli/Blank.png,0,0,0.0,0,100,100,100,,,,,,,,,,,,,231.75369069999942,0.003690699999424396,None,264.86162610000065,264.86162610000065,264.86162610000065,264.86162610000065,264.86162610000065,264.86162610000065,264.86162610000065,264.86162610000065,264.86162610000065,264.86162610000065,,003,P019,2025_Mar_21_0955,ConditionRich,2021.2.3,59.968072998079144,
232.0,235.75,27,0.75,Stimuli/P019/things_eel_10s.jpg,0,0,0.0,0,101,101,101,,,,,,,,,,,,,232.00438699999904,0.004386999999042018,None,265.128557,265.128557,265.128557,265.128557,265.128557,265.128557,265.128557,265.128557,265.128557,265.128557,,003,P019,2025_Mar_21_0955,ConditionRich,2021.2.3,59.968072998079144,
235.75,236.0,41,0.0,Stimuli/Blank.png,0,0,0.0,0,102,102,102,,,,,,,,,,,,,235.77646569999888,0.026465699998880154,None,268.8985861000001,268.8985861000001,268.8985861000001,268.8985861000001,268.8985861000001,268.8985861000001,268.8985861000001,268.8985861000001,268.8985861000001,268.8985861000001,,003,P019,2025_Mar_21_0955,ConditionRich,2021.2.3,59.968072998079144,
236.0,239.75,7,0.75,Stimuli/P019/sun_aqkbfuonyunmyqxb.jpg,1,0,0.75,0,103,103,103,,,,,,,,,,,,,236.02633889999925,0.02633889999924577,1,269.14875910000046,269.14875910000046,269.14875910000046,269.14875910000046,269.14875910000046,269.14875910000046,269.14875910000046,269.88273579999986,269.14875910000046,269.14875910000046,0.7596603000001778,003,P019,2025_Mar_21_0955,ConditionRich,2021.2.3,59.968072998079144,
239.75,240.0,41,0.0,Stimuli/Blank.png,0,0,0.0,0,104,104,104,,,,,,,,,,,,,239.77741079999942,0.027410799999415758,None,272.88538250000056,272.88538250000056,272.88538250000056,272.88538250000056,272.88538250000056,272.88538250000056,272.88538250000056,272.88538250000056,272.88538250000056,272.88538250000056,,003,P019,2025_Mar_21_0955,ConditionRich,2021.2.3,59.968072998079144,
240.0,243.75,20,0.75,Stimuli/P019/sun_dlnwonqxagdvtlta.jpg,0,0,0.0,0,105,105,105,,,,,,,,,,,,,240.0122741999985,0.01227419999850099,None,273.1189180000001,273.1189180000001,273.1189180000001,273.1189180000001,273.1189180000001,273.1189180000001,273.1189180000001,273.1189180000001,273.1189180000001,273.1189180000001,,003,P019,2025_Mar_21_0955,ConditionRich,2021.2.3,59.968072998079144,
243.75,244.0,41,0.0,Stimuli/Blank.png,0,0,0.0,0,106,106,106,,,,,,,,,,,,,243.76489589999983,0.014895899999828544,None,276.8722381000007,276.8722381000007,276.8722381000007,276.8722381000007,276.8722381000007,276.8722381000007,276.8722381000007,276.8722381000007,276.8722381000007,276.8722381000007,,003,P019,2025_Mar_21_0955,ConditionRich,2021.2.3,59.968072998079144,
244.0,247.75,16,0.75,Stimuli/P019/sun_blfpbbfyzmewzplm.jpg,1,0,0.75,0,107,107,107,,,,,,,,,,,,,244.01676149999912,0.016761499999120133,1,277.1391395999999,277.1391395999999,277.1391395999999,277.1391395999999,277.1391395999999,277.1391395999999,277.1391395999999,277.87314440000046,277.1391395999999,277.1391395999999,0.49396060000071884,003,P019,2025_Mar_21_0955,ConditionRich,2021.2.3,59.968072998079144,
247.75,248.0,41,0.0,Stimuli/Blank.png,0,0,0.0,0,108,108,108,,,,,,,,,,,,,247.7686238999995,0.018623899999511195,None,280.8757698999998,280.8757698999998,280.8757698999998,280.8757698999998,280.8757698999998,280.8757698999998,280.8757698999998,280.8757698999998,280.8757698999998,280.8757698999998,,003,P019,2025_Mar_21_0955,ConditionRich,2021.2.3,59.968072998079144,
248.0,251.75,3,0.75,Stimuli/P019/sun_aknrkswonrogcooi.jpg,0,0,0.0,0,109,109,109,,,,,,,,,,,,,248.00152089999938,0.0015208999993774341,None,281.1093182000004,281.1093182000004,281.1093182000004,281.1093182000004,281.1093182000004,281.1093182000004,281.1093182000004,281.1093182000004,281.1093182000004,281.1093182000004,,003,P019,2025_Mar_21_0955,ConditionRich,2021.2.3,59.968072998079144,
251.75,252.0,41,0.0,Stimuli/Blank.png,0,0,0.0,0,110,110,110,,,,,,,,,,,,,251.75744049999957,0.007440499999574968,None,284.87931879999996,284.87931879999996,284.87931879999996,284.87931879999996,284.87931879999996,284.87931879999996,284.87931879999996,284.87931879999996,284.87931879999996,284.87931879999996,,003,P019,2025_Mar_21_0955,ConditionRich,2021.2.3,59.968072998079144,
252.0,255.75,28,0.75,Stimuli/P019/things_face_10s.jpg,0,0,0.0,0,111,111,111,,,,,,,,,,,,,252.02268339999864,0.022683399998641107,None,285.12952550000045,285.12952550000045,285.12952550000045,285.12952550000045,285.12952550000045,285.12952550000045,285.12952550000045,285.12952550000045,285.12952550000045,285.12952550000045,,003,P019,2025_Mar_21_0955,ConditionRich,2021.2.3,59.968072998079144,
255.75,256.0,41,0.0,Stimuli/Blank.png,0,0,0.0,0,112,112,112,,,,,,,,,,,,,255.7594932999982,0.009493299998212024,None,288.8661745999998,288.8661745999998,288.8661745999998,288.8661745999998,288.8661745999998,288.8661745999998,288.8661745999998,288.8661745999998,288.8661745999998,288.8661745999998,,003,P019,2025_Mar_21_0955,ConditionRich,2021.2.3,59.968072998079144,
256.0,259.75,14,0.75,Stimuli/P019/sun_birvagufpcschyrr.jpg,0,0,0.0,0,113,113,113,,,,,,,,,,,,,256.0092528999994,0.009252899999410147,None,289.11640850000003,289.11640850000003,289.11640850000003,289.11640850000003,289.11640850000003,289.11640850000003,289.11640850000003,289.11640850000003,289.11640850000003,289.11640850000003,,003,P019,2025_Mar_21_0955,ConditionRich,2021.2.3,59.968072998079144,
259.75,260.0,41,0.0,Stimuli/Blank.png,0,0,0.0,0,114,114,114,,,,,,,,,,,,,259.76177989999996,0.011779899999964982,None,292.86966910000046,292.86966910000046,292.86966910000046,292.86966910000046,292.86966910000046,292.86966910000046,292.86966910000046,292.86966910000046,292.86966910000046,292.86966910000046,,003,P019,2025_Mar_21_0955,ConditionRich,2021.2.3,59.968072998079144,
260.0,263.75,32,0.75,Stimuli/P019/things_girl_10s.jpg,0,0,0.0,0,115,115,115,,,,,,,,,,,,,260.0121067,0.012106700000003912,None,293.1199187000002,293.1199187000002,293.1199187000002,293.1199187000002,293.1199187000002,293.1199187000002,293.1199187000002,293.1199187000002,293.1199187000002,293.1199187000002,,003,P019,2025_Mar_21_0955,ConditionRich,2021.2.3,59.968072998079144,
263.75,264.0,41,0.0,Stimuli/Blank.png,0,0,0.0,0,116,116,116,,,,,,,,,,,,,263.76607069999955,0.016070699999545468,None,296.8732441000011,296.8732441000011,296.8732441000011,296.8732441000011,296.8732441000011,296.8732441000011,296.8732441000011,296.8732441000011,296.8732441000011,296.8732441000011,,003,P019,2025_Mar_21_0955,ConditionRich,2021.2.3,59.968072998079144,
264.0,267.75,8,0.75,Stimuli/P019/sun_avbzvunekksfggon.jpg,0,0,0.0,0,117,117,117,,,,,,,,,,,,,264.0017021999993,0.0017021999992721248,None,297.1234729000007,297.1234729000007,297.1234729000007,297.1234729000007,297.1234729000007,297.1234729000007,297.1234729000007,297.1234729000007,297.1234729000007,297.1234729000007,,003,P019,2025_Mar_21_0955,ConditionRich,2021.2.3,59.968072998079144,
267.75,268.0,41,0.0,Stimuli/Blank.png,0,0,0.0,0,118,118,118,,,,,,,,,,,,,267.7697412999987,0.019741299998713657,None,300.8767936000004,300.8767936000004,300.8767936000004,300.8767936000004,300.8767936000004,300.8767936000004,300.8767936000004,300.8767936000004,300.8767936000004,300.8767936000004,,003,P019,2025_Mar_21_0955,ConditionRich,2021.2.3,59.968072998079144,
268.0,271.75,1,0.75,Stimuli/P019/sun_aaaidwecchadbake.jpg,0,0,0.0,0,119,119,119,,,,,,,,,,,,,268.0028762999991,0.002876299999115872,None,301.11031879999973,301.11031879999973,301.11031879999973,301.11031879999973,301.11031879999973,301.11031879999973,301.11031879999973,301.11031879999973,301.11031879999973,301.11031879999973,,003,P019,2025_Mar_21_0955,ConditionRich,2021.2.3,59.968072998079144,
271.75,272.0,41,0.0,Stimuli/Blank.png,0,0,0.0,0,120,120,120,,,,,,,,,,,,,271.75625819999914,0.006258199999138014,None,304.86363359999996,304.86363359999996,304.86363359999996,304.86363359999996,304.86363359999996,304.86363359999996,304.86363359999996,304.86363359999996,304.86363359999996,304.86363359999996,,003,P019,2025_Mar_21_0955,ConditionRich,2021.2.3,59.968072998079144,
272.0,275.75,33,0.75,Stimuli/P019/things_insole_10s.jpg,0,0,0.0,0,121,121,121,,,,,,,,,,,,,272.0065491999994,0.0065491999994264916,None,305.11385770000015,305.11385770000015,305.11385770000015,305.11385770000015,305.11385770000015,305.11385770000015,305.11385770000015,305.11385770000015,305.11385770000015,305.11385770000015,,003,P019,2025_Mar_21_0955,ConditionRich,2021.2.3,59.968072998079144,
275.75,276.0,41,0.0,Stimuli/Blank.png,0,0,0.0,0,122,122,122,,,,,,,,,,,,,275.7620322999992,0.01203229999919131,None,308.8838491000006,308.8838491000006,308.8838491000006,308.8838491000006,308.8838491000006,308.8838491000006,308.8838491000006,308.8838491000006,308.8838491000006,308.8838491000006,,003,P019,2025_Mar_21_0955,ConditionRich,2021.2.3,59.968072998079144,
276.0,292.0,0,0.0,Stimuli/Blank.png,1,2,2.75,0,123,123,123,,,,,,,,,,,,,276.02706189999844,0.02706189999844355,1,309.13406490000125,309.13406490000125,309.13406490000125,309.13406490000125,309.13406490000125,309.13406490000125,311.119157000001,311.8698232000006,309.13406490000125,309.13406490000125,2.70498139999836,003,P019,2025_Mar_21_0955,ConditionRich,2021.2.3,59.968072998079144,
292.0,295.75,18,0.75,Stimuli/P019/sun_bodjbrgwzlshgypq.jpg,0,0,0.0,0,124,124,124,,,,,,,,,,,,,292.00718459999916,0.0071845999991637655,None,325.11485580000044,325.11485580000044,325.11485580000044,325.11485580000044,325.11485580000044,325.11485580000044,325.11485580000044,325.11485580000044,325.11485580000044,325.11485580000044,,003,P019,2025_Mar_21_0955,ConditionRich,2021.2.3,59.968072998079144,
295.75,296.0,41,0.0,Stimuli/Blank.png,0,0,0.0,0,125,125,125,,,,,,,,,,,,,295.7609208999984,0.010920899998382083,None,328.86817620000147,328.86817620000147,328.86817620000147,328.86817620000147,328.86817620000147,328.86817620000147,328.86817620000147,328.86817620000147,328.86817620000147,328.86817620000147,,003,P019,2025_Mar_21_0955,ConditionRich,2021.2.3,59.968072998079144,
296.0,299.75,6,0.75,Stimuli/P019/sun_amppcthpabgulbwl.jpg,0,0,0.0,0,126,126,126,,,,,,,,,,,,,296.0121094999995,0.01210949999949662,None,329.1350799000011,329.1350799000011,329.1350799000011,329.1350799000011,329.1350799000011,329.1350799000011,329.1350799000011,329.1350799000011,329.1350799000011,329.1350799000011,,003,P019,2025_Mar_21_0955,ConditionRich,2021.2.3,59.968072998079144,
299.75,300.0,41,0.0,Stimuli/Blank.png,0,0,0.0,0,127,127,127,,,,,,,,,,,,,299.78197739999996,0.031977399999959744,None,332.88842490000025,332.88842490000025,332.88842490000025,332.88842490000025,332.88842490000025,332.88842490000025,332.88842490000025,332.88842490000025,332.88842490000025,332.88842490000025,,003,P019,2025_Mar_21_0955,ConditionRich,2021.2.3,59.968072998079144,
300.0,303.75,19,0.75,Stimuli/P019/sun_byssdezaaqnthppd.jpg,0,0,0.0,0,128,128,128,,,,,,,,,,,,,300.01466309999887,0.014663099998870166,None,333.1219535,333.1219535,333.1219535,333.1219535,333.1219535,333.1219535,333.1219535,333.1219535,333.1219535,333.1219535,,003,P019,2025_Mar_21_0955,ConditionRich,2021.2.3,59.968072998079144,
303.75,304.0,41,0.0,Stimuli/Blank.png,0,0,0.0,0,129,129,129,,,,,,,,,,,,,303.75154739999925,0.0015473999992536847,None,336.8585692000015,336.8585692000015,336.8585692000015,336.8585692000015,336.8585692000015,336.8585692000015,336.8585692000015,336.8585692000015,336.8585692000015,336.8585692000015,,003,P019,2025_Mar_21_0955,ConditionRich,2021.2.3,59.968072998079144,
304.0,307.75,30,0.75,Stimuli/P019/things_flip_flop_10s.jpg,0,0,0.0,0,130,130,130,,,,,,,,,,,,,304.00202329999956,0.0020232999995641876,None,337.12547710000035,337.12547710000035,337.12547710000035,337.12547710000035,337.12547710000035,337.12547710000035,337.12547710000035,337.12547710000035,337.12547710000035,337.12547710000035,,003,P019,2025_Mar_21_0955,ConditionRich,2021.2.3,59.968072998079144,
307.75,308.0,41,0.0,Stimuli/Blank.png,0,0,0.0,0,131,131,131,,,,,,,,,,,,,307.77194379999855,0.021943799998553004,None,340.8788089999998,340.8788089999998,340.8788089999998,340.8788089999998,340.8788089999998,340.8788089999998,340.8788089999998,340.8788089999998,340.8788089999998,340.8788089999998,,003,P019,2025_Mar_21_0955,ConditionRich,2021.2.3,59.968072998079144,
308.0,311.75,29,0.75,Stimuli/P019/things_flamingo_10s.jpg,0,0,0.0,0,132,132,132,,,,,,,,,,,,,308.00580759999866,0.005807599998661317,None,341.1290133000002,341.1290133000002,341.1290133000002,341.1290133000002,341.1290133000002,341.1290133000002,341.1290133000002,341.1290133000002,341.1290133000002,341.1290133000002,,003,P019,2025_Mar_21_0955,ConditionRich,2021.2.3,59.968072998079144,
311.75,312.0,41,0.0,Stimuli/Blank.png,0,0,0.0,0,133,133,133,,,,,,,,,,,,,311.77564639999946,0.02564639999945939,None,344.88232120000066,344.88232120000066,344.88232120000066,344.88232120000066,344.88232120000066,344.88232120000066,344.88232120000066,344.88232120000066,344.88232120000066,344.88232120000066,,003,P019,2025_Mar_21_0955,ConditionRich,2021.2.3,59.968072998079144,
312.0,315.75,12,0.75,Stimuli/P019/sun_bgjrtiivbwugxhxp.jpg,0,0,0.0,0,134,134,134,,,,,,,,,,,,,312.007787999999,0.007787999998981832,None,345.115861100001,345.115861100001,345.115861100001,345.115861100001,345.115861100001,345.115861100001,345.115861100001,345.115861100001,345.115861100001,345.115861100001,,003,P019,2025_Mar_21_0955,ConditionRich,2021.2.3,59.968072998079144,
315.75,316.0,41,0.0,Stimuli/Blank.png,0,0,0.0,0,135,135,135,,,,,,,,,,,,,315.7618825999998,0.011882599999808008,None,348.8691796000003,348.8691796000003,348.8691796000003,348.8691796000003,348.8691796000003,348.8691796000003,348.8691796000003,348.8691796000003,348.8691796000003,348.8691796000003,,003,P019,2025_Mar_21_0955,ConditionRich,2021.2.3,59.968072998079144,
316.0,319.75,40,0.75,Stimuli/P019/things_woman_10s.jpg,0,0,0.0,0,136,136,136,,,,,,,,,,,,,316.0123442999993,0.01234429999931308,None,349.1194114000009,349.1194114000009,349.1194114000009,349.1194114000009,349.1194114000009,349.1194114000009,349.1194114000009,349.1194114000009,349.1194114000009,349.1194114000009,,003,P019,2025_Mar_21_0955,ConditionRich,2021.2.3,59.968072998079144,
319.75,320.0,41,0.0,Stimuli/Blank.png,0,0,0.0,0,137,137,137,,,,,,,,,,,,,319.76738249999835,0.017382499998348067,None,352.8894092999999,352.8894092999999,352.8894092999999,352.8894092999999,352.8894092999999,352.8894092999999,352.8894092999999,352.8894092999999,352.8894092999999,352.8894092999999,,003,P019,2025_Mar_21_0955,ConditionRich,2021.2.3,59.968072998079144,
320.0,323.75,36,0.75,Stimuli/P019/things_sunroof_10s.jpg,1,0,0.75,0,138,138,138,,,,,,,,,,,,,320.015961699999,0.01596169999902486,1,353.13961440000094,353.13961440000094,353.13961440000094,353.13961440000094,353.13961440000094,353.13961440000094,353.13961440000094,353.85691899999983,353.13961440000094,353.13961440000094,0.5314410999999382,003,P019,2025_Mar_21_0955,ConditionRich,2021.2.3,59.968072998079144,
323.75,324.0,41,0.0,Stimuli/Blank.png,0,0,0.0,0,139,139,139,,,,,,,,,,,,,323.7696314999994,0.01963149999937741,None,356.87627299999986,356.87627299999986,356.87627299999986,356.87627299999986,356.87627299999986,356.87627299999986,356.87627299999986,356.87627299999986,356.87627299999986,356.87627299999986,,003,P019,2025_Mar_21_0955,ConditionRich,2021.2.3,59.968072998079144,
324.0,327.75,5,0.75,Stimuli/P019/sun_amjqxnqvhovkotym.jpg,0,0,0.0,0,140,140,140,,,,,,,,,,,,,324.0027304999985,0.002730499998506275,None,357.1264841000011,357.1264841000011,357.1264841000011,357.1264841000011,357.1264841000011,357.1264841000011,357.1264841000011,357.1264841000011,357.1264841000011,357.1264841000011,,003,P019,2025_Mar_21_0955,ConditionRich,2021.2.3,59.968072998079144,
327.75,328.0,41,0.0,Stimuli/Blank.png,0,0,0.0,0,141,141,141,,,,,,,,,,,,,327.7726303999989,0.022630399998888606,None,360.87978210000074,360.87978210000074,360.87978210000074,360.87978210000074,360.87978210000074,360.87978210000074,360.87978210000074,360.87978210000074,360.87978210000074,360.87978210000074,,003,P019,2025_Mar_21_0955,ConditionRich,2021.2.3,59.968072998079144,
328.0,331.75,26,0.75,Stimuli/P019/things_earwig_10n.jpg,0,0,0.0,0,142,142,142,,,,,,,,,,,,,328.0060813,0.006081300000005285,None,361.11333110000123,361.11333110000123,361.11333110000123,361.11333110000123,361.11333110000123,361.11333110000123,361.11333110000123,361.11333110000123,361.11333110000123,361.11333110000123,,003,P019,2025_Mar_21_0955,ConditionRich,2021.2.3,59.968072998079144,
331.75,332.0,41,0.0,Stimuli/Blank.png,0,0,0.0,0,143,143,143,,,,,,,,,,,,,331.7586930999987,0.00869309999870893,None,364.866641300001,364.866641300001,364.866641300001,364.866641300001,364.866641300001,364.866641300001,364.866641300001,364.866641300001,364.866641300001,364.866641300001,,003,P019,2025_Mar_21_0955,ConditionRich,2021.2.3,59.968072998079144,
332.0,335.75,34,0.75,Stimuli/P019/things_man_10s.jpg,1,1,1.75,0,144,144,144,,,,,,,,,,,,,332.0116724999989,0.011672499998894637,1,365.1335637000011,365.1335637000011,365.1335637000011,365.1335637000011,365.1335637000011,365.1335637000011,366.1177712000008,366.86842290000095,365.1335637000011,365.1335637000011,1.48460089999935,003,P019,2025_Mar_21_0955,ConditionRich,2021.2.3,59.968072998079144,
335.75,336.0,41,0.0,Stimuli/Blank.png,0,0,0.0,0,145,145,145,,,,,,,,,,,,,335.77970429999914,0.02970429999913904,None,368.88688569999977,368.88688569999977,368.88688569999977,368.88688569999977,368.88688569999977,368.88688569999977,368.88688569999977,368.88688569999977,368.88688569999977,368.88688569999977,,003,P019,2025_Mar_21_0955,ConditionRich,2021.2.3,59.968072998079144,
336.0,339.75,24,0.75,Stimuli/P019/things_bulletin_board_10s.jpg,1,2,2.75,0,146,146,146,,,,,,,,,,,,,336.0135143999996,0.013514399999621673,1,369.1203970000006,369.1203970000006,369.1203970000006,369.1203970000006,369.1203970000006,369.1203970000006,371.1055286999999,371.85619750000114,369.1203970000006,369.1203970000006,2.461707000000388,003,P019,2025_Mar_21_0955,ConditionRich,2021.2.3,59.968072998079144,
339.75,340.0,41,0.0,Stimuli/Blank.png,0,0,0.0,0,147,147,147,,,,,,,,,,,,,339.751317799999,0.0013177999990148237,None,372.8737364999997,372.8737364999997,372.8737364999997,372.8737364999997,372.8737364999997,372.8737364999997,372.8737364999997,372.8737364999997,372.8737364999997,372.8737364999997,,003,P019,2025_Mar_21_0955,ConditionRich,2021.2.3,59.968072998079144,
340.0,343.75,23,0.75,Stimuli/P019/things_boy_10s.jpg,0,0,0.0,0,148,148,148,,,,,,,,,,,,,340.01688159999867,0.016881599998669117,None,373.1239535000004,373.1239535000004,373.1239535000004,373.1239535000004,373.1239535000004,373.1239535000004,373.1239535000004,373.1239535000004,373.1239535000004,373.1239535000004,,003,P019,2025_Mar_21_0955,ConditionRich,2021.2.3,59.968072998079144,
343.75,344.0,41,0.0,Stimuli/Blank.png,0,0,0.0,0,149,149,149,,,,,,,,,,,,,343.75315789999877,0.0031578999987686984,None,376.8605782000013,376.8605782000013,376.8605782000013,376.8605782000013,376.8605782000013,376.8605782000013,376.8605782000013,376.8605782000013,376.8605782000013,376.8605782000013,,003,P019,2025_Mar_21_0955,ConditionRich,2021.2.3,59.968072998079144,
344.0,347.75,15,0.75,Stimuli/P019/sun_bkubdnohuakmwcaj.jpg,0,0,0.0,0,150,150,150,,,,,,,,,,,,,344.0036530999987,0.0036530999987007817,None,377.12747579999996,377.12747579999996,377.12747579999996,377.12747579999996,377.12747579999996,377.12747579999996,377.12747579999996,377.12747579999996,377.12747579999996,377.12747579999996,,003,P019,2025_Mar_21_0955,ConditionRich,2021.2.3,59.968072998079144,
347.75,348.0,41,0.0,Stimuli/Blank.png,0,0,0.0,0,151,151,151,,,,,,,,,,,,,347.7727605,0.022760500000003958,None,380.88078700000005,380.88078700000005,380.88078700000005,380.88078700000005,380.88078700000005,380.88078700000005,380.88078700000005,380.88078700000005,380.88078700000005,380.88078700000005,,003,P019,2025_Mar_21_0955,ConditionRich,2021.2.3,59.968072998079144,
348.0,351.75,17,0.75,Stimuli/P019/sun_bltxkcclrpweopkl.jpg,1,0,0.75,0,152,152,152,,,,,,,,,,,,,348.0064204999999,0.006420499999876483,1,381.1143301000011,381.1143301000011,381.1143301000011,381.1143301000011,381.1143301000011,381.1143301000011,381.1143301000011,381.8483120000001,381.1143301000011,381.1143301000011,0.5817700999996305,003,P019,2025_Mar_21_0955,ConditionRich,2021.2.3,59.968072998079144,
351.75,352.0,41,0.0,Stimuli/Blank.png,0,0,0.0,0,153,153,153,,,,,,,,,,,,,351.7615477999989,0.011547799998879782,None,384.8676587000009,384.8676587000009,384.8676587000009,384.8676587000009,384.8676587000009,384.8676587000009,384.8676587000009,384.8676587000009,384.8676587000009,384.8676587000009,,003,P019,2025_Mar_21_0955,ConditionRich,2021.2.3,59.968072998079144,
352.0,355.75,38,0.75,Stimuli/P019/things_turtle_10n.jpg,0,0,0.0,0,154,154,154,,,,,,,,,,,,,352.01095019999957,0.010950199999570032,None,385.1345498999999,385.1345498999999,385.1345498999999,385.1345498999999,385.1345498999999,385.1345498999999,385.1345498999999,385.1345498999999,385.1345498999999,385.1345498999999,,003,P019,2025_Mar_21_0955,ConditionRich,2021.2.3,59.968072998079144,
355.75,356.0,41,0.0,Stimuli/Blank.png,0,0,0.0,0,155,155,155,,,,,,,,,,,,,355.78107459999956,0.031074599999556085,None,388.8878730000015,388.8878730000015,388.8878730000015,388.8878730000015,388.8878730000015,388.8878730000015,388.8878730000015,388.8878730000015,388.8878730000015,388.8878730000015,,003,P019,2025_Mar_21_0955,ConditionRich,2021.2.3,59.968072998079144,
356.0,359.75,21,0.75,Stimuli/P019/things_anteater_10s.jpg,0,0,0.0,0,156,156,156,,,,,,,,,,,,,356.0144984999988,0.014498499998808256,None,389.1214271000008,389.1214271000008,389.1214271000008,389.1214271000008,389.1214271000008,389.1214271000008,389.1214271000008,389.1214271000008,389.1214271000008,389.1214271000008,,003,P019,2025_Mar_21_0955,ConditionRich,2021.2.3,59.968072998079144,
359.75,360.0,41,0.0,Stimuli/Blank.png,0,0,0.0,0,157,157,157,,,,,,,,,,,,,359.75105619999886,0.001056199998856755,None,392.85804950000056,392.85804950000056,392.85804950000056,392.85804950000056,392.85804950000056,392.85804950000056,392.85804950000056,392.85804950000056,392.85804950000056,392.85804950000056,,003,P019,2025_Mar_21_0955,ConditionRich,2021.2.3,59.968072998079144,
360.0,363.75,22,0.75,Stimuli/P019/things_bead_10s.jpg,0,0,0.0,0,158,158,158,,,,,,,,,,,,,360.0004898999996,0.0004898999995930353,None,393.1082639000015,393.1082639000015,393.1082639000015,393.1082639000015,393.1082639000015,393.1082639000015,393.1082639000015,393.1082639000015,393.1082639000015,393.1082639000015,,003,P019,2025_Mar_21_0955,ConditionRich,2021.2.3,59.968072998079144,
363.75,364.0,41,0.0,Stimuli/Blank.png,0,0,0.0,0,159,159,159,,,,,,,,,,,,,363.7535745999994,0.003574599999410566,None,396.861576700001,396.861576700001,396.861576700001,396.861576700001,396.861576700001,396.861576700001,396.861576700001,396.861576700001,396.861576700001,396.861576700001,,003,P019,2025_Mar_21_0955,ConditionRich,2021.2.3,59.968072998079144,
364.0,367.75,10,0.75,Stimuli/P019/sun_bblqhrudkospnbbv.jpg,0,0,0.0,0,160,160,160,,,,,,,,,,,,,364.00458499999877,0.00458499999876949,None,397.11180109999987,397.11180109999987,397.11180109999987,397.11180109999987,397.11180109999987,397.11180109999987,397.11180109999987,397.11180109999987,397.11180109999987,397.11180109999987,,003,P019,2025_Mar_21_0955,ConditionRich,2021.2.3,59.968072998079144,
367.75,368.0,41,0.0,Stimuli/Blank.png,0,0,0.0,0,161,161,161,,,,,,,,,,,,,367.75710459999937,0.007104599999365746,None,400.86511320000136,400.86511320000136,400.86511320000136,400.86511320000136,400.86511320000136,400.86511320000136,400.86511320000136,400.86511320000136,400.86511320000136,400.86511320000136,,003,P019,2025_Mar_21_0955,ConditionRich,2021.2.3,59.968072998079144,
368.0,371.75,31,0.75,Stimuli/P019/things_fudge_10s.jpg,0,0,0.0,0,162,162,162,,,,,,,,,,,,,368.00844639999923,0.00844639999922947,None,401.1153438000001,401.1153438000001,401.1153438000001,401.1153438000001,401.1153438000001,401.1153438000001,401.1153438000001,401.1153438000001,401.1153438000001,401.1153438000001,,003,P019,2025_Mar_21_0955,ConditionRich,2021.2.3,59.968072998079144,
371.75,372.0,41,0.0,Stimuli/Blank.png,0,0,0.0,0,163,163,163,,,,,,,,,,,,,371.76195859999825,0.011958599998251884,None,404.86865800000123,404.86865800000123,404.86865800000123,404.86865800000123,404.86865800000123,404.86865800000123,404.86865800000123,404.86865800000123,404.86865800000123,404.86865800000123,,003,P019,2025_Mar_21_0955,ConditionRich,2021.2.3,59.968072998079144,
372.0,388.0,0,0.0,Stimuli/Blank.png,1,12,12.75,0,164,164,164,,,,,,,,,,,,,372.01180439999916,0.011804399999164161,1,405.11887430000024,405.11887430000024,405.11887430000024,405.11887430000024,405.11887430000024,405.11887430000024,417.11281820000113,417.8638750000009,405.11887430000024,405.11887430000024,12.479165799999464,003,P019,2025_Mar_21_0955,ConditionRich,2021.2.3,59.968072998079144,
