eventStartTime,eventEndTime,eventCond,imSize,imFile,responseEvent,fixRespStart,fixRespEnd,Events.thisRepN,Events.thisTrialN,Events.thisN,Events.thisIndex,Instructions.started,Instructions.stopped,participantReadyResponse.keys,participantReadyResponse.rt,participantReadyResponse.started,participantReadyResponse.stopped,startWaitforTrigger,triggerResponse.keys,triggerResponse.rt,triggerResponse.started,triggerResponse.stopped,globalTimer,actualStartTime,startTimingDiff,participantResponse.keys,participantResponse.started,participantResponse.stopped,image.started,image.stopped,fixationOutside.started,fixationOutside.stopped,fixationResponse.started,fixationResponse.stopped,fixationInside.started,fixationInside.stopped,participantResponse.rt,session,participant,date,expName,psychopyVersion,frameRate,
,,,,,,,,,,,,11.477752699998746,None,1,87.70374600000105,11.477752699998746,None,,,,,,,,,,,,,,,,,,,,,004,P019,2025_Mar_21_1011,ConditionRich,2021.2.3,59.94028748536668,
,,,,,,,,,,,,,,,,,,99.18584889999875,5,14.591414599999553,99.19790319999993,None,,,,,,,,,,,,,,,,004,P019,2025_Mar_21_1011,ConditionRich,2021.2.3,59.94028748536668,
0.0,4.0,0,0.0,Stimuli/Blank.png,0,0.0,0.0,0,0,0,0,,,,,,,,,,,,113.79842719999942,0.024391300001298077,0.024391300001298077,None,113.84413139999924,None,113.84413139999924,None,113.84413139999924,None,113.84413139999924,113.84413139999924,113.84413139999924,None,,004,P019,2025_Mar_21_1011,ConditionRich,2021.2.3,59.94028748536668,
4.0,4.75,29,0.75,Stimuli/P019/things_flamingo_10s.jpg,0,0.0,0.0,0,1,1,1,,,,,,,,,,,,,4.019396900001084,0.01939690000108385,None,117.84804279999844,117.84804279999844,117.84804279999844,117.84804279999844,117.84804279999844,117.84804279999844,117.84804279999844,117.84804279999844,117.84804279999844,117.84804279999844,,004,P019,2025_Mar_21_1011,ConditionRich,2021.2.3,59.94028748536668,
4.75,8.0,41,0.0,Stimuli/Blank.png,0,0.0,0.0,0,2,2,2,,,,,,,,,,,,,4.768757200001346,0.018757200001346064,None,118.58193810000012,118.58193810000012,118.58193810000012,118.58193810000012,118.58193810000012,118.58193810000012,118.58193810000012,118.58193810000012,118.58193810000012,118.58193810000012,,004,P019,2025_Mar_21_1011,ConditionRich,2021.2.3,59.94028748536668,
8.0,8.75,10,0.75,Stimuli/P019/sun_bblqhrudkospnbbv.jpg,0,0.0,0.0,0,3,3,3,,,,,,,,,,,,,8.004819200001293,0.004819200001293211,None,121.83452419999958,121.83452419999958,121.83452419999958,121.83452419999958,121.83452419999958,121.83452419999958,121.83452419999958,121.83452419999958,121.83452419999958,121.83452419999958,,004,P019,2025_Mar_21_1011,ConditionRich,2021.2.3,59.94028748536668,
8.75,12.0,41,0.0,Stimuli/Blank.png,0,0.0,0.0,0,4,4,4,,,,,,,,,,,,,8.772731700000804,0.022731700000804267,None,122.58516429999872,122.58516429999872,122.58516429999872,122.58516429999872,122.58516429999872,122.58516429999872,122.58516429999872,122.58516429999872,122.58516429999872,122.58516429999872,,004,P019,2025_Mar_21_1011,ConditionRich,2021.2.3,59.94028748536668,
12.0,12.75,30,0.75,Stimuli/P019/things_flip_flop_10s.jpg,0,0.0,0.0,0,5,5,5,,,,,,,,,,,,,12.008729400000448,0.00872940000044764,None,125.82138289999966,125.82138289999966,125.82138289999966,125.82138289999966,125.82138289999966,125.82138289999966,125.82138289999966,125.82138289999966,125.82138289999966,125.82138289999966,,004,P019,2025_Mar_21_1011,ConditionRich,2021.2.3,59.94028748536668,
12.75,16.0,41,0.0,Stimuli/Blank.png,0,0.0,0.0,0,6,6,6,,,,,,,,,,,,,12.759646800001065,0.009646800001064548,None,126.57204339999953,126.57204339999953,126.57204339999953,126.57204339999953,126.57204339999953,126.57204339999953,126.57204339999953,126.57204339999953,126.57204339999953,126.57204339999953,,004,P019,2025_Mar_21_1011,ConditionRich,2021.2.3,59.94028748536668,
16.0,16.75,38,0.75,Stimuli/P019/things_turtle_10n.jpg,0,0.0,0.0,0,7,7,7,,,,,,,,,,,,,16.012711900000795,0.01271190000079514,None,129.82491069999924,129.82491069999924,129.82491069999924,129.82491069999924,129.82491069999924,129.82491069999924,129.82491069999924,129.82491069999924,129.82491069999924,129.82491069999924,,004,P019,2025_Mar_21_1011,ConditionRich,2021.2.3,59.94028748536668,
16.75,20.0,41,0.0,Stimuli/Blank.png,0,0.0,0.0,0,8,8,8,,,,,,,,,,,,,16.763264000001072,0.013264000001072418,None,130.57558069999868,130.57558069999868,130.57558069999868,130.57558069999868,130.57558069999868,130.57558069999868,130.57558069999868,130.57558069999868,130.57558069999868,130.57558069999868,,004,P019,2025_Mar_21_1011,ConditionRich,2021.2.3,59.94028748536668,
20.0,20.75,24,0.75,Stimuli/P019/things_bulletin_board_10s.jpg,0,0.0,0.0,0,9,9,9,,,,,,,,,,,,,19.999330000000555,-0.000669999999445281,None,133.8117635999988,133.8117635999988,133.8117635999988,133.8117635999988,133.8117635999988,133.8117635999988,133.8117635999988,133.8117635999988,133.8117635999988,133.8117635999988,,004,P019,2025_Mar_21_1011,ConditionRich,2021.2.3,59.94028748536668,
20.75,24.0,41,0.0,Stimuli/Blank.png,0,0.0,0.0,0,10,10,10,,,,,,,,,,,,,20.751037900001393,0.0010379000013926998,None,134.56244259999949,134.56244259999949,134.56244259999949,134.56244259999949,134.56244259999949,134.56244259999949,134.56244259999949,134.56244259999949,134.56244259999949,134.56244259999949,,004,P019,2025_Mar_21_1011,ConditionRich,2021.2.3,59.94028748536668,
24.0,24.75,9,0.75,Stimuli/P019/sun_bbfmuujfvpiaqdww.jpg,0,0.0,0.0,0,11,11,11,,,,,,,,,,,,,24.003022800001418,0.003022800001417636,None,137.83199049999894,137.83199049999894,137.83199049999894,137.83199049999894,137.83199049999894,137.83199049999894,137.83199049999894,137.83199049999894,137.83199049999894,137.83199049999894,,004,P019,2025_Mar_21_1011,ConditionRich,2021.2.3,59.94028748536668,
24.75,28.0,41,0.0,Stimuli/Blank.png,0,0.0,0.0,0,12,12,12,,,,,,,,,,,,,24.77238320000106,0.022383200001058867,None,138.59933549999914,138.59933549999914,138.59933549999914,138.59933549999914,138.59933549999914,138.59933549999914,138.59933549999914,138.59933549999914,138.59933549999914,138.59933549999914,,004,P019,2025_Mar_21_1011,ConditionRich,2021.2.3,59.94028748536668,
28.0,28.75,19,0.75,Stimuli/P019/sun_byssdezaaqnthppd.jpg,1,0.0,0.75,0,13,13,13,,,,,,,,,,,,,28.02261510000062,0.02261510000062117,1,141.8355249999986,141.8355249999986,141.8355249999986,141.8355249999986,141.8355249999986,141.8355249999986,141.8355249999986,None,141.8355249999986,141.8355249999986,0.4858433999997942,004,P019,2025_Mar_21_1011,ConditionRich,2021.2.3,59.94028748536668,
28.75,32.0,41,0.0,Stimuli/Blank.png,0,0.0,0.0,0,14,14,14,,,,,,,,,,,,,28.757139800000004,0.00713980000000447,None,142.56997950000004,142.56997950000004,142.56997950000004,142.56997950000004,142.56997950000004,142.56997950000004,142.56997950000004,142.56997950000004,142.56997950000004,142.56997950000004,,004,P019,2025_Mar_21_1011,ConditionRich,2021.2.3,59.94028748536668,
32.0,32.75,12,0.75,Stimuli/P019/sun_bgjrtiivbwugxhxp.jpg,0,0.0,0.0,0,15,15,15,,,,,,,,,,,,,32.009518100001515,0.00951810000151454,None,145.82238019999932,145.82238019999932,145.82238019999932,145.82238019999932,145.82238019999932,145.82238019999932,145.82238019999932,145.82238019999932,145.82238019999932,145.82238019999932,,004,P019,2025_Mar_21_1011,ConditionRich,2021.2.3,59.94028748536668,
32.75,36.0,41,0.0,Stimuli/Blank.png,1,0.25,1.0,0,16,16,16,,,,,,,,,,,,,32.76060900000084,0.010609000000840751,1,146.5731455999994,146.5731455999994,146.5731455999994,146.5731455999994,146.5731455999994,146.5731455999994,146.80669429999944,147.55725129999882,146.5731455999994,146.5731455999994,0.857228099999702,004,P019,2025_Mar_21_1011,ConditionRich,2021.2.3,59.94028748536668,
36.0,36.75,32,0.75,Stimuli/P019/things_girl_10s.jpg,0,0.0,0.0,0,17,17,17,,,,,,,,,,,,,36.01329740000074,0.01329740000073798,None,149.82591599999978,149.82591599999978,149.82591599999978,149.82591599999978,149.82591599999978,149.82591599999978,149.82591599999978,149.82591599999978,149.82591599999978,149.82591599999978,,004,P019,2025_Mar_21_1011,ConditionRich,2021.2.3,59.94028748536668,
36.75,40.0,41,0.0,Stimuli/Blank.png,0,0.0,0.0,0,18,18,18,,,,,,,,,,,,,36.763606000000436,0.013606000000436325,None,150.57657739999922,150.57657739999922,150.57657739999922,150.57657739999922,150.57657739999922,150.57657739999922,150.57657739999922,150.57657739999922,150.57657739999922,150.57657739999922,,004,P019,2025_Mar_21_1011,ConditionRich,2021.2.3,59.94028748536668,
40.0,40.75,13,0.75,Stimuli/P019/sun_bhzwrbdycbchqesq.jpg,0,0.0,0.0,0,19,19,19,,,,,,,,,,,,,39.99996100000135,-3.899999865097925e-05,None,153.81276359999902,153.81276359999902,153.81276359999902,153.81276359999902,153.81276359999902,153.81276359999902,153.81276359999902,153.81276359999902,153.81276359999902,153.81276359999902,,004,P019,2025_Mar_21_1011,ConditionRich,2021.2.3,59.94028748536668,
40.75,44.0,41,0.0,Stimuli/Blank.png,1,0.25,1.0,0,20,20,20,,,,,,,,,,,,,40.75318190000144,0.0031819000014365884,1,154.58013559999927,154.58013559999927,154.58013559999927,154.58013559999927,154.58013559999927,154.58013559999927,154.81368349999866,155.5643261999994,154.58013559999927,154.58013559999927,0.729211399999258,004,P019,2025_Mar_21_1011,ConditionRich,2021.2.3,59.94028748536668,
44.0,44.75,16,0.75,Stimuli/P019/sun_blfpbbfyzmewzplm.jpg,1,0.0,0.75,0,21,21,21,,,,,,,,,,,,,44.021198899999945,0.021198899999944842,1,157.849698,157.849698,157.849698,157.849698,157.849698,157.849698,157.849698,None,157.849698,157.849698,0.5417283999995561,004,P019,2025_Mar_21_1011,ConditionRich,2021.2.3,59.94028748536668,
44.75,48.0,41,0.0,Stimuli/Blank.png,0,0.0,0.0,0,22,22,22,,,,,,,,,,,,,44.77290230000108,0.0229023000010784,None,158.60034409999935,158.60034409999935,158.60034409999935,158.60034409999935,158.60034409999935,158.60034409999935,158.60034409999935,158.60034409999935,158.60034409999935,158.60034409999935,,004,P019,2025_Mar_21_1011,ConditionRich,2021.2.3,59.94028748536668,
48.0,48.75,3,0.75,Stimuli/P019/sun_aknrkswonrogcooi.jpg,0,0.0,0.0,0,23,23,23,,,,,,,,,,,,,48.02351890000136,0.023518900001363363,None,161.83653859999868,161.83653859999868,161.83653859999868,161.83653859999868,161.83653859999868,161.83653859999868,161.83653859999868,161.83653859999868,161.83653859999868,161.83653859999868,,004,P019,2025_Mar_21_1011,ConditionRich,2021.2.3,59.94028748536668,
48.75,52.0,41,0.0,Stimuli/Blank.png,0,0.0,0.0,0,24,24,24,,,,,,,,,,,,,48.75818100000106,0.008181000001059147,None,162.57050769999842,162.57050769999842,162.57050769999842,162.57050769999842,162.57050769999842,162.57050769999842,162.57050769999842,162.57050769999842,162.57050769999842,162.57050769999842,,004,P019,2025_Mar_21_1011,ConditionRich,2021.2.3,59.94028748536668,
52.0,52.75,37,0.75,Stimuli/P019/things_toaster_10s.jpg,0,0.0,0.0,0,25,25,25,,,,,,,,,,,,,52.01026390000152,0.010263900001518778,None,165.84007829999973,165.84007829999973,165.84007829999973,165.84007829999973,165.84007829999973,165.84007829999973,165.84007829999973,165.84007829999973,165.84007829999973,165.84007829999973,,004,P019,2025_Mar_21_1011,ConditionRich,2021.2.3,59.94028748536668,
52.75,56.0,41,0.0,Stimuli/Blank.png,0,0.0,0.0,0,26,26,26,,,,,,,,,,,,,52.7782911000013,0.02829110000129731,None,166.59073519999947,166.59073519999947,166.59073519999947,166.59073519999947,166.59073519999947,166.59073519999947,166.59073519999947,166.59073519999947,166.59073519999947,166.59073519999947,,004,P019,2025_Mar_21_1011,ConditionRich,2021.2.3,59.94028748536668,
56.0,56.75,25,0.75,Stimuli/P019/things_chime_10s.jpg,0,0.0,0.0,0,27,27,27,,,,,,,,,,,,,56.01456230000076,0.014562300000761752,None,169.8269178999999,169.8269178999999,169.8269178999999,169.8269178999999,169.8269178999999,169.8269178999999,169.8269178999999,169.8269178999999,169.8269178999999,169.8269178999999,,004,P019,2025_Mar_21_1011,ConditionRich,2021.2.3,59.94028748536668,
56.75,60.0,41,0.0,Stimuli/Blank.png,0,0.0,0.0,0,28,28,28,,,,,,,,,,,,,56.7645033000008,0.014503300000797026,None,170.57758009999998,170.57758009999998,170.57758009999998,170.57758009999998,170.57758009999998,170.57758009999998,170.57758009999998,170.57758009999998,170.57758009999998,170.57758009999998,,004,P019,2025_Mar_21_1011,ConditionRich,2021.2.3,59.94028748536668,
60.0,60.75,11,0.75,Stimuli/P019/sun_bcbfjkoziukwmdkd.jpg,0,0.0,0.0,0,29,29,29,,,,,,,,,,,,,60.003846100000374,0.0038461000003735535,None,173.83045499999935,173.83045499999935,173.83045499999935,173.83045499999935,173.83045499999935,173.83045499999935,173.83045499999935,173.83045499999935,173.83045499999935,173.83045499999935,,004,P019,2025_Mar_21_1011,ConditionRich,2021.2.3,59.94028748536668,
60.75,64.0,41,0.0,Stimuli/Blank.png,0,0.0,0.0,0,30,30,30,,,,,,,,,,,,,60.768319700000575,0.018319700000574812,None,174.58111899999858,174.58111899999858,174.58111899999858,174.58111899999858,174.58111899999858,174.58111899999858,174.58111899999858,174.58111899999858,174.58111899999858,174.58111899999858,,004,P019,2025_Mar_21_1011,ConditionRich,2021.2.3,59.94028748536668,
64.0,64.75,4,0.75,Stimuli/P019/sun_amixpbnrxiulfsri.jpg,0,0.0,0.0,0,31,31,31,,,,,,,,,,,,,64.00452220000079,0.004522200000792509,None,177.8173053999999,177.8173053999999,177.8173053999999,177.8173053999999,177.8173053999999,177.8173053999999,177.8173053999999,177.8173053999999,177.8173053999999,177.8173053999999,,004,P019,2025_Mar_21_1011,ConditionRich,2021.2.3,59.94028748536668,
64.75,68.0,41,0.0,Stimuli/Blank.png,0,0.0,0.0,0,32,32,32,,,,,,,,,,,,,64.75788340000145,0.007883400001446716,None,178.58466520000002,178.58466520000002,178.58466520000002,178.58466520000002,178.58466520000002,178.58466520000002,178.58466520000002,178.58466520000002,178.58466520000002,178.58466520000002,,004,P019,2025_Mar_21_1011,ConditionRich,2021.2.3,59.94028748536668,
68.0,68.75,15,0.75,Stimuli/P019/sun_bkubdnohuakmwcaj.jpg,0,0.0,0.0,0,33,33,33,,,,,,,,,,,,,68.02457370000047,0.024573700000473764,None,181.8375264999995,181.8375264999995,181.8375264999995,181.8375264999995,181.8375264999995,181.8375264999995,181.8375264999995,181.8375264999995,181.8375264999995,181.8375264999995,,004,P019,2025_Mar_21_1011,ConditionRich,2021.2.3,59.94028748536668,
68.75,72.0,41,0.0,Stimuli/Blank.png,0,0.0,0.0,0,34,34,34,,,,,,,,,,,,,68.75945970000066,0.009459700000661542,None,182.57158919999893,182.57158919999893,182.57158919999893,182.57158919999893,182.57158919999893,182.57158919999893,182.57158919999893,182.57158919999893,182.57158919999893,182.57158919999893,,004,P019,2025_Mar_21_1011,ConditionRich,2021.2.3,59.94028748536668,
72.0,72.75,40,0.75,Stimuli/P019/things_woman_10s.jpg,0,0.0,0.0,0,35,35,35,,,,,,,,,,,,,72.01186370000141,0.011863700001413235,None,185.8243782999998,185.8243782999998,185.8243782999998,185.8243782999998,185.8243782999998,185.8243782999998,185.8243782999998,185.8243782999998,185.8243782999998,185.8243782999998,,004,P019,2025_Mar_21_1011,ConditionRich,2021.2.3,59.94028748536668,
72.75,76.0,41,0.0,Stimuli/Blank.png,0,0.0,0.0,0,36,36,36,,,,,,,,,,,,,72.76265000000058,0.012650000000576256,None,186.57505349999883,186.57505349999883,186.57505349999883,186.57505349999883,186.57505349999883,186.57505349999883,186.57505349999883,186.57505349999883,186.57505349999883,186.57505349999883,,004,P019,2025_Mar_21_1011,ConditionRich,2021.2.3,59.94028748536668,
76.0,76.75,39,0.75,Stimuli/P019/things_wire_10s.jpg,0,0.0,0.0,0,37,37,37,,,,,,,,,,,,,76.01576540000133,0.01576540000132809,None,189.82791649999854,189.82791649999854,189.82791649999854,189.82791649999854,189.82791649999854,189.82791649999854,189.82791649999854,189.82791649999854,189.82791649999854,189.82791649999854,,004,P019,2025_Mar_21_1011,ConditionRich,2021.2.3,59.94028748536668,
76.75,80.0,41,0.0,Stimuli/Blank.png,0,0.0,0.0,0,38,38,38,,,,,,,,,,,,,76.74921189999986,-0.0007881000001361826,None,190.5618985000001,190.5618985000001,190.5618985000001,190.5618985000001,190.5618985000001,190.5618985000001,190.5618985000001,190.5618985000001,190.5618985000001,190.5618985000001,,004,P019,2025_Mar_21_1011,ConditionRich,2021.2.3,59.94028748536668,
80.0,80.75,17,0.75,Stimuli/P019/sun_bltxkcclrpweopkl.jpg,0,0.0,0.0,0,39,39,39,,,,,,,,,,,,,80.00265770000078,0.002657700000781915,None,193.81477639999866,193.81477639999866,193.81477639999866,193.81477639999866,193.81477639999866,193.81477639999866,193.81477639999866,193.81477639999866,193.81477639999866,193.81477639999866,,004,P019,2025_Mar_21_1011,ConditionRich,2021.2.3,59.94028748536668,
80.75,84.0,41,0.0,Stimuli/Blank.png,0,0.0,0.0,0,40,40,40,,,,,,,,,,,,,80.7530626000007,0.0030626000007032417,None,194.5654526999988,194.5654526999988,194.5654526999988,194.5654526999988,194.5654526999988,194.5654526999988,194.5654526999988,194.5654526999988,194.5654526999988,194.5654526999988,,004,P019,2025_Mar_21_1011,ConditionRich,2021.2.3,59.94028748536668,
84.0,100.0,0,0.0,Stimuli/Blank.png,1,10.0,10.75,0,41,41,41,,,,,,,,,,,,,84.00789110000005,0.007891100000051665,1,197.83499709999887,197.83499709999887,197.83499709999887,197.83499709999887,197.83499709999887,197.83499709999887,207.81045829999857,208.56121829999938,197.83499709999887,197.83499709999887,10.528430899999876,004,P019,2025_Mar_21_1011,ConditionRich,2021.2.3,59.94028748536668,
100.0,100.75,31,0.75,Stimuli/P019/things_fudge_10s.jpg,0,0.0,0.0,0,42,42,42,,,,,,,,,,,,,100.01975120000134,0.019751200001337565,None,213.83245649999844,213.83245649999844,213.83245649999844,213.83245649999844,213.83245649999844,213.83245649999844,213.83245649999844,213.83245649999844,213.83245649999844,213.83245649999844,,004,P019,2025_Mar_21_1011,ConditionRich,2021.2.3,59.94028748536668,
100.75,104.0,41,0.0,Stimuli/Blank.png,1,0.25,1.0,0,43,43,43,,,,,,,,,,,,,100.75342380000075,0.0034238000007462688,1,214.56645089999984,214.56645089999984,214.56645089999984,214.56645089999984,214.56645089999984,214.56645089999984,214.79997619999995,215.55064089999905,214.56645089999984,214.56645089999984,0.7260284999993019,004,P019,2025_Mar_21_1011,ConditionRich,2021.2.3,59.94028748536668,
104.0,104.75,8,0.75,Stimuli/P019/sun_avbzvunekksfggon.jpg,0,0.0,0.0,0,44,44,44,,,,,,,,,,,,,104.00803640000049,0.008036400000491994,None,217.83601999999883,217.83601999999883,217.83601999999883,217.83601999999883,217.83601999999883,217.83601999999883,217.83601999999883,217.83601999999883,217.83601999999883,217.83601999999883,,004,P019,2025_Mar_21_1011,ConditionRich,2021.2.3,59.94028748536668,
104.75,108.0,41,0.0,Stimuli/Blank.png,0,0.0,0.0,0,45,45,45,,,,,,,,,,,,,104.773667200001,0.02366720000100031,None,218.58665199999996,218.58665199999996,218.58665199999996,218.58665199999996,218.58665199999996,218.58665199999996,218.58665199999996,218.58665199999996,218.58665199999996,218.58665199999996,,004,P019,2025_Mar_21_1011,ConditionRich,2021.2.3,59.94028748536668,
108.0,108.75,28,0.75,Stimuli/P019/things_face_10s.jpg,1,0.0,0.75,0,46,46,46,,,,,,,,,,,,,108.00985110000147,0.009851100001469604,1,221.82284069999878,221.82284069999878,221.82284069999878,221.82284069999878,221.82284069999878,221.82284069999878,221.82284069999878,222.5568592999989,221.82284069999878,221.82284069999878,0.5868365000005724,004,P019,2025_Mar_21_1011,ConditionRich,2021.2.3,59.94028748536668,
108.75,112.0,41,0.0,Stimuli/Blank.png,0,0.0,0.0,0,47,47,47,,,,,,,,,,,,,108.76289600000018,0.01289600000018254,None,222.59019389999958,222.59019389999958,222.59019389999958,222.59019389999958,222.59019389999958,222.59019389999958,222.59019389999958,222.59019389999958,222.59019389999958,222.59019389999958,,004,P019,2025_Mar_21_1011,ConditionRich,2021.2.3,59.94028748536668,
112.0,112.75,6,0.75,Stimuli/P019/sun_amppcthpabgulbwl.jpg,0,0.0,0.0,0,48,48,48,,,,,,,,,,,,,112.0134618000011,0.01346180000109598,None,225.82638179999958,225.82638179999958,225.82638179999958,225.82638179999958,225.82638179999958,225.82638179999958,225.82638179999958,225.82638179999958,225.82638179999958,225.82638179999958,,004,P019,2025_Mar_21_1011,ConditionRich,2021.2.3,59.94028748536668,
112.75,116.0,41,0.0,Stimuli/Blank.png,1,0.25,1.0,0,49,49,49,,,,,,,,,,,,,112.7641222000002,0.014122200000201701,1,226.57705059999898,226.57705059999898,226.57705059999898,226.57705059999898,226.57705059999898,226.57705059999898,226.81058440000015,227.56131119999918,226.57705059999898,226.57705059999898,0.7983929999991233,004,P019,2025_Mar_21_1011,ConditionRich,2021.2.3,59.94028748536668,
116.0,116.75,2,0.75,Stimuli/P019/sun_ajhvfwzgpfovdgid.jpg,0,0.0,0.0,0,50,50,50,,,,,,,,,,,,,116.00028580000071,0.0002858000007108785,None,229.81325069999912,229.81325069999912,229.81325069999912,229.81325069999912,229.81325069999912,229.81325069999912,229.81325069999912,229.81325069999912,229.81325069999912,229.81325069999912,,004,P019,2025_Mar_21_1011,ConditionRich,2021.2.3,59.94028748536668,
116.75,120.0,41,0.0,Stimuli/Blank.png,0,0.0,0.0,0,51,51,51,,,,,,,,,,,,,116.75431170000047,0.004311700000471319,None,230.5806094999989,230.5806094999989,230.5806094999989,230.5806094999989,230.5806094999989,230.5806094999989,230.5806094999989,230.5806094999989,230.5806094999989,230.5806094999989,,004,P019,2025_Mar_21_1011,ConditionRich,2021.2.3,59.94028748536668,
120.0,120.75,33,0.75,Stimuli/P019/things_insole_10s.jpg,0,0.0,0.0,0,52,52,52,,,,,,,,,,,,,120.02036790000056,0.020367900000564987,None,233.85016659999928,233.85016659999928,233.85016659999928,233.85016659999928,233.85016659999928,233.85016659999928,233.85016659999928,233.85016659999928,233.85016659999928,233.85016659999928,,004,P019,2025_Mar_21_1011,ConditionRich,2021.2.3,59.94028748536668,
120.75,124.0,41,0.0,Stimuli/Blank.png,0,0.0,0.0,0,53,53,53,,,,,,,,,,,,,120.77269530000012,0.022695300000123098,None,234.5841307999999,234.5841307999999,234.5841307999999,234.5841307999999,234.5841307999999,234.5841307999999,234.5841307999999,234.5841307999999,234.5841307999999,234.5841307999999,,004,P019,2025_Mar_21_1011,ConditionRich,2021.2.3,59.94028748536668,
124.0,124.75,22,0.75,Stimuli/P019/things_bead_10s.jpg,0,0.0,0.0,0,54,54,54,,,,,,,,,,,,,124.00831850000031,0.008318500000314089,None,237.82030739999936,237.82030739999936,237.82030739999936,237.82030739999936,237.82030739999936,237.82030739999936,237.82030739999936,237.82030739999936,237.82030739999936,237.82030739999936,,004,P019,2025_Mar_21_1011,ConditionRich,2021.2.3,59.94028748536668,
124.75,128.0,41,0.0,Stimuli/Blank.png,1,0.25,1.0,0,55,55,55,,,,,,,,,,,,,124.75827200000094,0.00827200000094308,1,238.57097089999843,238.57097089999843,238.57097089999843,238.57097089999843,238.57097089999843,238.57097089999843,238.80450109999947,239.55517899999904,238.57097089999843,238.57097089999843,0.6614140000001498,004,P019,2025_Mar_21_1011,ConditionRich,2021.2.3,59.94028748536668,
128.0,128.75,36,0.75,Stimuli/P019/things_sunroof_10s.jpg,0,0.0,0.0,0,56,56,56,,,,,,,,,,,,,128.01195840000037,0.011958400000366964,None,241.8238483999994,241.8238483999994,241.8238483999994,241.8238483999994,241.8238483999994,241.8238483999994,241.8238483999994,241.8238483999994,241.8238483999994,241.8238483999994,,004,P019,2025_Mar_21_1011,ConditionRich,2021.2.3,59.94028748536668,
128.75,132.0,41,0.0,Stimuli/Blank.png,0,0.0,0.0,0,57,57,57,,,,,,,,,,,,,128.76223879999998,0.012238799999977346,None,242.57451159999982,242.57451159999982,242.57451159999982,242.57451159999982,242.57451159999982,242.57451159999982,242.57451159999982,242.57451159999982,242.57451159999982,242.57451159999982,,004,P019,2025_Mar_21_1011,ConditionRich,2021.2.3,59.94028748536668,
132.0,132.75,26,0.75,Stimuli/P019/things_earwig_10n.jpg,0,0.0,0.0,0,58,58,58,,,,,,,,,,,,,132.01506380000137,0.015063800001371419,None,245.8440842,245.8440842,245.8440842,245.8440842,245.8440842,245.8440842,245.8440842,245.8440842,245.8440842,245.8440842,,004,P019,2025_Mar_21_1011,ConditionRich,2021.2.3,59.94028748536668,
132.75,136.0,41,0.0,Stimuli/Blank.png,0,0.0,0.0,0,59,59,59,,,,,,,,,,,,,132.78173910000078,0.0317391000007774,None,246.59472989999995,246.59472989999995,246.59472989999995,246.59472989999995,246.59472989999995,246.59472989999995,246.59472989999995,246.59472989999995,246.59472989999995,246.59472989999995,,004,P019,2025_Mar_21_1011,ConditionRich,2021.2.3,59.94028748536668,
136.0,136.75,1,0.75,Stimuli/P019/sun_aaaidwecchadbake.jpg,0,0.0,0.0,0,60,60,60,,,,,,,,,,,,,136.00239450000117,0.002394500001173583,None,249.83089019999898,249.83089019999898,249.83089019999898,249.83089019999898,249.83089019999898,249.83089019999898,249.83089019999898,249.83089019999898,249.83089019999898,249.83089019999898,,004,P019,2025_Mar_21_1011,ConditionRich,2021.2.3,59.94028748536668,
136.75,140.0,41,0.0,Stimuli/Blank.png,1,0.25,1.0,0,61,61,61,,,,,,,,,,,,,136.76971910000066,0.01971910000065691,1,250.59829379999974,250.59829379999974,250.59829379999974,250.59829379999974,250.59829379999974,250.59829379999974,250.81510539999908,251.56585639999867,250.59829379999974,250.59829379999974,0.7370960999996896,004,P019,2025_Mar_21_1011,ConditionRich,2021.2.3,59.94028748536668,
140.0,140.75,27,0.75,Stimuli/P019/things_eel_10s.jpg,0,0.0,0.0,0,62,62,62,,,,,,,,,,,,,140.0216457000006,0.021645700000590296,None,253.83446279999953,253.83446279999953,253.83446279999953,253.83446279999953,253.83446279999953,253.83446279999953,253.83446279999953,253.83446279999953,253.83446279999953,253.83446279999953,,004,P019,2025_Mar_21_1011,ConditionRich,2021.2.3,59.94028748536668,
140.75,144.0,41,0.0,Stimuli/Blank.png,0,0.0,0.0,0,63,63,63,,,,,,,,,,,,,140.75741560000097,0.00741560000096797,None,254.58512109999901,254.58512109999901,254.58512109999901,254.58512109999901,254.58512109999901,254.58512109999901,254.58512109999901,254.58512109999901,254.58512109999901,254.58512109999901,,004,P019,2025_Mar_21_1011,ConditionRich,2021.2.3,59.94028748536668,
144.0,144.75,14,0.75,Stimuli/P019/sun_birvagufpcschyrr.jpg,0,0.0,0.0,0,64,64,64,,,,,,,,,,,,,144.02893700000095,0.02893700000095123,None,257.8546901999998,257.8546901999998,257.8546901999998,257.8546901999998,257.8546901999998,257.8546901999998,257.8546901999998,257.8546901999998,257.8546901999998,257.8546901999998,,004,P019,2025_Mar_21_1011,ConditionRich,2021.2.3,59.94028748536668,
144.75,148.0,41,0.0,Stimuli/Blank.png,0,0.0,0.0,0,65,65,65,,,,,,,,,,,,,144.77691360000063,0.026913600000625593,None,258.58867269999973,258.58867269999973,258.58867269999973,258.58867269999973,258.58867269999973,258.58867269999973,258.58867269999973,258.58867269999973,258.58867269999973,258.58867269999973,,004,P019,2025_Mar_21_1011,ConditionRich,2021.2.3,59.94028748536668,
148.0,148.75,20,0.75,Stimuli/P019/sun_dlnwonqxagdvtlta.jpg,0,0.0,0.0,0,66,66,66,,,,,,,,,,,,,148.01187030000074,0.011870300000737188,None,261.8248459999995,261.8248459999995,261.8248459999995,261.8248459999995,261.8248459999995,261.8248459999995,261.8248459999995,261.8248459999995,261.8248459999995,261.8248459999995,,004,P019,2025_Mar_21_1011,ConditionRich,2021.2.3,59.94028748536668,
148.75,152.0,41,0.0,Stimuli/Blank.png,0,0.0,0.0,0,67,67,67,,,,,,,,,,,,,148.76318809999975,0.013188099999752012,None,262.5755133999992,262.5755133999992,262.5755133999992,262.5755133999992,262.5755133999992,262.5755133999992,262.5755133999992,262.5755133999992,262.5755133999992,262.5755133999992,,004,P019,2025_Mar_21_1011,ConditionRich,2021.2.3,59.94028748536668,
152.0,152.75,34,0.75,Stimuli/P019/things_man_10s.jpg,0,0.0,0.0,0,68,68,68,,,,,,,,,,,,,151.99919650000083,-0.0008034999991650693,None,265.81169619999855,265.81169619999855,265.81169619999855,265.81169619999855,265.81169619999855,265.81169619999855,265.81169619999855,265.81169619999855,265.81169619999855,265.81169619999855,,004,P019,2025_Mar_21_1011,ConditionRich,2021.2.3,59.94028748536668,
152.75,156.0,41,0.0,Stimuli/Blank.png,0,0.0,0.0,0,69,69,69,,,,,,,,,,,,,152.7501239000012,0.0001239000011992175,None,266.5623732999993,266.5623732999993,266.5623732999993,266.5623732999993,266.5623732999993,266.5623732999993,266.5623732999993,266.5623732999993,266.5623732999993,266.5623732999993,,004,P019,2025_Mar_21_1011,ConditionRich,2021.2.3,59.94028748536668,
156.0,156.75,5,0.75,Stimuli/P019/sun_amjqxnqvhovkotym.jpg,0,0.0,0.0,0,70,70,70,,,,,,,,,,,,,156.00284050000118,0.0028405000011844095,None,269.8319448000002,269.8319448000002,269.8319448000002,269.8319448000002,269.8319448000002,269.8319448000002,269.8319448000002,269.8319448000002,269.8319448000002,269.8319448000002,,004,P019,2025_Mar_21_1011,ConditionRich,2021.2.3,59.94028748536668,
156.75,160.0,41,0.0,Stimuli/Blank.png,0,0.0,0.0,0,71,71,71,,,,,,,,,,,,,156.76971330000015,0.019713300000148593,None,270.58257259999846,270.58257259999846,270.58257259999846,270.58257259999846,270.58257259999846,270.58257259999846,270.58257259999846,270.58257259999846,270.58257259999846,270.58257259999846,,004,P019,2025_Mar_21_1011,ConditionRich,2021.2.3,59.94028748536668,
160.0,160.75,23,0.75,Stimuli/P019/things_boy_10s.jpg,0,0.0,0.0,0,72,72,72,,,,,,,,,,,,,160.00871730000108,0.00871730000108073,None,273.83544749999965,273.83544749999965,273.83544749999965,273.83544749999965,273.83544749999965,273.83544749999965,273.83544749999965,273.83544749999965,273.83544749999965,273.83544749999965,,004,P019,2025_Mar_21_1011,ConditionRich,2021.2.3,59.94028748536668,
160.75,164.0,41,0.0,Stimuli/Blank.png,0,0.0,0.0,0,73,73,73,,,,,,,,,,,,,160.7737373,0.02373729999999341,None,274.6028013999985,274.6028013999985,274.6028013999985,274.6028013999985,274.6028013999985,274.6028013999985,274.6028013999985,274.6028013999985,274.6028013999985,274.6028013999985,,004,P019,2025_Mar_21_1011,ConditionRich,2021.2.3,59.94028748536668,
164.0,164.75,18,0.75,Stimuli/P019/sun_bodjbrgwzlshgypq.jpg,0,0.0,0.0,0,74,74,74,,,,,,,,,,,,,164.02875440000025,0.028754400000252645,None,277.85568859999876,277.85568859999876,277.85568859999876,277.85568859999876,277.85568859999876,277.85568859999876,277.85568859999876,277.85568859999876,277.85568859999876,277.85568859999876,,004,P019,2025_Mar_21_1011,ConditionRich,2021.2.3,59.94028748536668,
164.75,168.0,41,0.0,Stimuli/Blank.png,0,0.0,0.0,0,75,75,75,,,,,,,,,,,,,164.7779516999999,0.027951699999903212,None,278.58965999999964,278.58965999999964,278.58965999999964,278.58965999999964,278.58965999999964,278.58965999999964,278.58965999999964,278.58965999999964,278.58965999999964,278.58965999999964,,004,P019,2025_Mar_21_1011,ConditionRich,2021.2.3,59.94028748536668,
168.0,168.75,21,0.75,Stimuli/P019/things_anteater_10s.jpg,0,0.0,0.0,0,76,76,76,,,,,,,,,,,,,168.01386690000072,0.013866900000721216,None,281.8258430999995,281.8258430999995,281.8258430999995,281.8258430999995,281.8258430999995,281.8258430999995,281.8258430999995,281.8258430999995,281.8258430999995,281.8258430999995,,004,P019,2025_Mar_21_1011,ConditionRich,2021.2.3,59.94028748536668,
168.75,172.0,41,0.0,Stimuli/Blank.png,0,0.0,0.0,0,77,77,77,,,,,,,,,,,,,168.76343989999987,0.013439899999866611,None,282.57651929999884,282.57651929999884,282.57651929999884,282.57651929999884,282.57651929999884,282.57651929999884,282.57651929999884,282.57651929999884,282.57651929999884,282.57651929999884,,004,P019,2025_Mar_21_1011,ConditionRich,2021.2.3,59.94028748536668,
172.0,172.75,35,0.75,Stimuli/P019/things_pretzel_10s.jpg,0,0.0,0.0,0,78,78,78,,,,,,,,,,,,,172.0026596000007,0.0026596000006975373,None,285.8293862999999,285.8293862999999,285.8293862999999,285.8293862999999,285.8293862999999,285.8293862999999,285.8293862999999,285.8293862999999,285.8293862999999,285.8293862999999,,004,P019,2025_Mar_21_1011,ConditionRich,2021.2.3,59.94028748536668,
172.75,176.0,41,0.0,Stimuli/Blank.png,0,0.0,0.0,0,79,79,79,,,,,,,,,,,,,172.76851440000064,0.018514400000640308,None,286.5800535999988,286.5800535999988,286.5800535999988,286.5800535999988,286.5800535999988,286.5800535999988,286.5800535999988,286.5800535999988,286.5800535999988,286.5800535999988,,004,P019,2025_Mar_21_1011,ConditionRich,2021.2.3,59.94028748536668,
176.0,176.75,7,0.75,Stimuli/P019/sun_aqkbfuonyunmyqxb.jpg,0,0.0,0.0,0,80,80,80,,,,,,,,,,,,,176.00386790000084,0.0038679000008414732,None,289.8329378999988,289.8329378999988,289.8329378999988,289.8329378999988,289.8329378999988,289.8329378999988,289.8329378999988,289.8329378999988,289.8329378999988,289.8329378999988,,004,P019,2025_Mar_21_1011,ConditionRich,2021.2.3,59.94028748536668,
176.75,180.0,41,0.0,Stimuli/Blank.png,0,0.0,0.0,0,81,81,81,,,,,,,,,,,,,176.77287770000112,0.022877700001117773,None,290.60028259999854,290.60028259999854,290.60028259999854,290.60028259999854,290.60028259999854,290.60028259999854,290.60028259999854,290.60028259999854,290.60028259999854,290.60028259999854,,004,P019,2025_Mar_21_1011,ConditionRich,2021.2.3,59.94028748536668,
180.0,196.0,0,0.0,Stimuli/Blank.png,1,8.0,8.75,0,82,82,82,,,,,,,,,,,,,180.0235603000001,0.023560300000099232,1,293.83645069999875,293.83645069999875,293.83645069999875,293.83645069999875,293.83645069999875,293.83645069999875,301.8268683999995,302.5775185000002,293.83645069999875,293.83645069999875,8.490876699999717,004,P019,2025_Mar_21_1011,ConditionRich,2021.2.3,59.94028748536668,
196.0,196.75,17,0.75,Stimuli/P019/sun_bltxkcclrpweopkl.jpg,0,0.0,0.0,0,83,83,83,,,,,,,,,,,,,196.00506760000098,0.005067600000984385,None,309.8172281999996,309.8172281999996,309.8172281999996,309.8172281999996,309.8172281999996,309.8172281999996,309.8172281999996,309.8172281999996,309.8172281999996,309.8172281999996,,004,P019,2025_Mar_21_1011,ConditionRich,2021.2.3,59.94028748536668,
196.75,200.0,41,0.0,Stimuli/Blank.png,1,2.25,3.0,0,84,84,84,,,,,,,,,,,,,196.75483760000134,0.004837600001337705,1,310.5679619000002,310.5679619000002,310.5679619000002,310.5679619000002,310.5679619000002,310.5679619000002,312.80327549999856,313.55387019999944,310.5679619000002,310.5679619000002,2.6433460999996896,004,P019,2025_Mar_21_1011,ConditionRich,2021.2.3,59.94028748536668,
200.0,200.75,28,0.75,Stimuli/P019/things_face_10s.jpg,0,0.0,0.0,0,85,85,85,,,,,,,,,,,,,200.00838160000058,0.008381600000575418,None,313.8207700999992,313.8207700999992,313.8207700999992,313.8207700999992,313.8207700999992,313.8207700999992,313.8207700999992,313.8207700999992,313.8207700999992,313.8207700999992,,004,P019,2025_Mar_21_1011,ConditionRich,2021.2.3,59.94028748536668,
200.75,204.0,41,0.0,Stimuli/Blank.png,0,0.0,0.0,0,86,86,86,,,,,,,,,,,,,200.75894810000136,0.008948100001362036,None,314.57144340000013,314.57144340000013,314.57144340000013,314.57144340000013,314.57144340000013,314.57144340000013,314.57144340000013,314.57144340000013,314.57144340000013,314.57144340000013,,004,P019,2025_Mar_21_1011,ConditionRich,2021.2.3,59.94028748536668,
204.0,204.75,35,0.75,Stimuli/P019/things_pretzel_10s.jpg,0,0.0,0.0,0,87,87,87,,,,,,,,,,,,,204.01205350000055,0.012053500000547501,None,317.84099029999925,317.84099029999925,317.84099029999925,317.84099029999925,317.84099029999925,317.84099029999925,317.84099029999925,317.84099029999925,317.84099029999925,317.84099029999925,,004,P019,2025_Mar_21_1011,ConditionRich,2021.2.3,59.94028748536668,
204.75,208.0,41,0.0,Stimuli/Blank.png,1,2.25,3.0,0,88,88,88,,,,,,,,,,,,,204.77943720000076,0.029437200000757002,1,318.59165889999895,318.59165889999895,318.59165889999895,318.59165889999895,318.59165889999895,318.59165889999895,320.82698139999957,321.57762229999935,318.59165889999895,318.59165889999895,2.682586499999161,004,P019,2025_Mar_21_1011,ConditionRich,2021.2.3,59.94028748536668,
208.0,208.75,1,0.75,Stimuli/P019/sun_aaaidwecchadbake.jpg,0,0.0,0.0,0,89,89,89,,,,,,,,,,,,,208.01642470000115,0.016424700001152814,None,321.8445268999985,321.8445268999985,321.8445268999985,321.8445268999985,321.8445268999985,321.8445268999985,321.8445268999985,321.8445268999985,321.8445268999985,321.8445268999985,,004,P019,2025_Mar_21_1011,ConditionRich,2021.2.3,59.94028748536668,
208.75,212.0,41,0.0,Stimuli/Blank.png,0,0.0,0.0,0,90,90,90,,,,,,,,,,,,,208.7693014000015,0.019301400001495495,None,322.59523269999954,322.59523269999954,322.59523269999954,322.59523269999954,322.59523269999954,322.59523269999954,322.59523269999954,322.59523269999954,322.59523269999954,322.59523269999954,,004,P019,2025_Mar_21_1011,ConditionRich,2021.2.3,59.94028748536668,
212.0,212.75,15,0.75,Stimuli/P019/sun_bkubdnohuakmwcaj.jpg,0,0.0,0.0,0,91,91,91,,,,,,,,,,,,,212.0183143000013,0.018314300001293304,None,325.8313761999998,325.8313761999998,325.8313761999998,325.8313761999998,325.8313761999998,325.8313761999998,325.8313761999998,325.8313761999998,325.8313761999998,325.8313761999998,,004,P019,2025_Mar_21_1011,ConditionRich,2021.2.3,59.94028748536668,
212.75,216.0,41,0.0,Stimuli/Blank.png,0,0.0,0.0,0,92,92,92,,,,,,,,,,,,,212.75226420000035,0.0022642000003543217,None,326.5653679999996,326.5653679999996,326.5653679999996,326.5653679999996,326.5653679999996,326.5653679999996,326.5653679999996,326.5653679999996,326.5653679999996,326.5653679999996,,004,P019,2025_Mar_21_1011,ConditionRich,2021.2.3,59.94028748536668,
216.0,216.75,21,0.75,Stimuli/P019/things_anteater_10s.jpg,0,0.0,0.0,0,93,93,93,,,,,,,,,,,,,216.0080381000007,0.008038100000703707,None,329.8349307999997,329.8349307999997,329.8349307999997,329.8349307999997,329.8349307999997,329.8349307999997,329.8349307999997,329.8349307999997,329.8349307999997,329.8349307999997,,004,P019,2025_Mar_21_1011,ConditionRich,2021.2.3,59.94028748536668,
216.75,220.0,41,0.0,Stimuli/Blank.png,0,0.0,0.0,0,94,94,94,,,,,,,,,,,,,216.77338240000063,0.023382400000627968,None,330.5855924999996,330.5855924999996,330.5855924999996,330.5855924999996,330.5855924999996,330.5855924999996,330.5855924999996,330.5855924999996,330.5855924999996,330.5855924999996,,004,P019,2025_Mar_21_1011,ConditionRich,2021.2.3,59.94028748536668,
220.0,220.75,4,0.75,Stimuli/P019/sun_amixpbnrxiulfsri.jpg,0,0.0,0.0,0,95,95,95,,,,,,,,,,,,,220.00959420000072,0.009594200000719866,None,333.82176869999967,333.82176869999967,333.82176869999967,333.82176869999967,333.82176869999967,333.82176869999967,333.82176869999967,333.82176869999967,333.82176869999967,333.82176869999967,,004,P019,2025_Mar_21_1011,ConditionRich,2021.2.3,59.94028748536668,
220.75,224.0,41,0.0,Stimuli/Blank.png,0,0.0,0.0,0,96,96,96,,,,,,,,,,,,,220.76081479999993,0.010814799999934621,None,334.5724476999985,334.5724476999985,334.5724476999985,334.5724476999985,334.5724476999985,334.5724476999985,334.5724476999985,334.5724476999985,334.5724476999985,334.5724476999985,,004,P019,2025_Mar_21_1011,ConditionRich,2021.2.3,59.94028748536668,
224.0,224.75,14,0.75,Stimuli/P019/sun_birvagufpcschyrr.jpg,0,0.0,0.0,0,97,97,97,,,,,,,,,,,,,224.0129444000013,0.012944400001288159,None,337.8253148999993,337.8253148999993,337.8253148999993,337.8253148999993,337.8253148999993,337.8253148999993,337.8253148999993,337.8253148999993,337.8253148999993,337.8253148999993,,004,P019,2025_Mar_21_1011,ConditionRich,2021.2.3,59.94028748536668,
224.75,228.0,41,0.0,Stimuli/Blank.png,1,2.25,3.0,0,98,98,98,,,,,,,,,,,,,224.76306710000063,0.013067100000625942,1,338.575971799999,338.575971799999,338.575971799999,338.575971799999,338.575971799999,338.575971799999,340.8113727,341.5619236000002,338.575971799999,338.575971799999,2.6613558000008197,004,P019,2025_Mar_21_1011,ConditionRich,2021.2.3,59.94028748536668,
228.0,228.75,5,0.75,Stimuli/P019/sun_amjqxnqvhovkotym.jpg,0,0.0,0.0,0,99,99,99,,,,,,,,,,,,,227.99945930000104,-0.0005406999989645556,None,341.82884789999844,341.82884789999844,341.82884789999844,341.82884789999844,341.82884789999844,341.82884789999844,341.82884789999844,341.82884789999844,341.82884789999844,341.82884789999844,,004,P019,2025_Mar_21_1011,ConditionRich,2021.2.3,59.94028748536668,
228.75,232.0,41,0.0,Stimuli/Blank.png,0,0.0,0.0,0,100,100,100,,,,,,,,,,,,,228.76670770000055,0.016707700000551995,None,342.57950399999936,342.57950399999936,342.57950399999936,342.57950399999936,342.57950399999936,342.57950399999936,342.57950399999936,342.57950399999936,342.57950399999936,342.57950399999936,,004,P019,2025_Mar_21_1011,ConditionRich,2021.2.3,59.94028748536668,
232.0,232.75,16,0.75,Stimuli/P019/sun_blfpbbfyzmewzplm.jpg,0,0.0,0.0,0,101,101,101,,,,,,,,,,,,,232.00284210000063,0.002842100000634673,None,345.8157001999989,345.8157001999989,345.8157001999989,345.8157001999989,345.8157001999989,345.8157001999989,345.8157001999989,345.8157001999989,345.8157001999989,345.8157001999989,,004,P019,2025_Mar_21_1011,ConditionRich,2021.2.3,59.94028748536668,
232.75,236.0,41,0.0,Stimuli/Blank.png,0,0.0,0.0,0,102,102,102,,,,,,,,,,,,,232.7533824000002,0.00338240000019141,None,346.5663535999993,346.5663535999993,346.5663535999993,346.5663535999993,346.5663535999993,346.5663535999993,346.5663535999993,346.5663535999993,346.5663535999993,346.5663535999993,,004,P019,2025_Mar_21_1011,ConditionRich,2021.2.3,59.94028748536668,
236.0,236.75,23,0.75,Stimuli/P019/things_boy_10s.jpg,0,0.0,0.0,0,103,103,103,,,,,,,,,,,,,236.00620640000125,0.006206400001246948,None,349.81923859999915,349.81923859999915,349.81923859999915,349.81923859999915,349.81923859999915,349.81923859999915,349.81923859999915,349.81923859999915,349.81923859999915,349.81923859999915,,004,P019,2025_Mar_21_1011,ConditionRich,2021.2.3,59.94028748536668,
236.75,240.0,41,0.0,Stimuli/Blank.png,0,0.0,0.0,0,104,104,104,,,,,,,,,,,,,236.7574736000006,0.0074736000005941605,None,350.5698994999984,350.5698994999984,350.5698994999984,350.5698994999984,350.5698994999984,350.5698994999984,350.5698994999984,350.5698994999984,350.5698994999984,350.5698994999984,,004,P019,2025_Mar_21_1011,ConditionRich,2021.2.3,59.94028748536668,
240.0,240.75,8,0.75,Stimuli/P019/sun_avbzvunekksfggon.jpg,0,0.0,0.0,0,105,105,105,,,,,,,,,,,,,240.00978060000125,0.009780600001249695,None,353.8227838999992,353.8227838999992,353.8227838999992,353.8227838999992,353.8227838999992,353.8227838999992,353.8227838999992,353.8227838999992,353.8227838999992,353.8227838999992,,004,P019,2025_Mar_21_1011,ConditionRich,2021.2.3,59.94028748536668,
240.75,244.0,41,0.0,Stimuli/Blank.png,0,0.0,0.0,0,106,106,106,,,,,,,,,,,,,240.7625259000015,0.012525900001492118,None,354.5901262999996,354.5901262999996,354.5901262999996,354.5901262999996,354.5901262999996,354.5901262999996,354.5901262999996,354.5901262999996,354.5901262999996,354.5901262999996,,004,P019,2025_Mar_21_1011,ConditionRich,2021.2.3,59.94028748536668,
244.0,244.75,29,0.75,Stimuli/P019/things_flamingo_10s.jpg,0,0.0,0.0,0,107,107,107,,,,,,,,,,,,,244.03072670000074,0.030726700000741403,None,357.85967100000016,357.85967100000016,357.85967100000016,357.85967100000016,357.85967100000016,357.85967100000016,357.85967100000016,357.85967100000016,357.85967100000016,357.85967100000016,,004,P019,2025_Mar_21_1011,ConditionRich,2021.2.3,59.94028748536668,
244.75,248.0,41,0.0,Stimuli/Blank.png,0,0.0,0.0,0,108,108,108,,,,,,,,,,,,,244.78253949999998,0.0325394999999844,None,358.5936623999987,358.5936623999987,358.5936623999987,358.5936623999987,358.5936623999987,358.5936623999987,358.5936623999987,358.5936623999987,358.5936623999987,358.5936623999987,,004,P019,2025_Mar_21_1011,ConditionRich,2021.2.3,59.94028748536668,
248.0,248.75,11,0.75,Stimuli/P019/sun_bcbfjkoziukwmdkd.jpg,0,0.0,0.0,0,109,109,109,,,,,,,,,,,,,248.00286580000102,0.002865800001018215,None,361.82985179999923,361.82985179999923,361.82985179999923,361.82985179999923,361.82985179999923,361.82985179999923,361.82985179999923,361.82985179999923,361.82985179999923,361.82985179999923,,004,P019,2025_Mar_21_1011,ConditionRich,2021.2.3,59.94028748536668,
248.75,252.0,41,0.0,Stimuli/Blank.png,0,0.0,0.0,0,110,110,110,,,,,,,,,,,,,248.76808040000105,0.01808040000105393,None,362.5805290999997,362.5805290999997,362.5805290999997,362.5805290999997,362.5805290999997,362.5805290999997,362.5805290999997,362.5805290999997,362.5805290999997,362.5805290999997,,004,P019,2025_Mar_21_1011,ConditionRich,2021.2.3,59.94028748536668,
252.0,252.75,6,0.75,Stimuli/P019/sun_amppcthpabgulbwl.jpg,0,0.0,0.0,0,111,111,111,,,,,,,,,,,,,252.00380420000147,0.0038042000014684163,None,365.8334012999985,365.8334012999985,365.8334012999985,365.8334012999985,365.8334012999985,365.8334012999985,365.8334012999985,365.8334012999985,365.8334012999985,365.8334012999985,,004,P019,2025_Mar_21_1011,ConditionRich,2021.2.3,59.94028748536668,
252.75,256.0,41,0.0,Stimuli/Blank.png,1,2.25,3.0,0,112,112,112,,,,,,,,,,,,,252.7717474000001,0.021747400000094785,1,366.5840513999992,366.5840513999992,366.5840513999992,366.5840513999992,366.5840513999992,366.5840513999992,368.81935499999963,369.5700273000002,366.5840513999992,366.5840513999992,2.7172862000006717,004,P019,2025_Mar_21_1011,ConditionRich,2021.2.3,59.94028748536668,
256.0,256.75,40,0.75,Stimuli/P019/things_woman_10s.jpg,0,0.0,0.0,0,113,113,113,,,,,,,,,,,,,256.0072772000003,0.007277200000316952,None,369.820232099999,369.820232099999,369.820232099999,369.820232099999,369.820232099999,369.820232099999,369.820232099999,369.820232099999,369.820232099999,369.820232099999,,004,P019,2025_Mar_21_1011,ConditionRich,2021.2.3,59.94028748536668,
256.75,260.0,41,0.0,Stimuli/Blank.png,0,0.0,0.0,0,114,114,114,,,,,,,,,,,,,256.75854980000076,0.008549800000764662,None,370.5709012999996,370.5709012999996,370.5709012999996,370.5709012999996,370.5709012999996,370.5709012999996,370.5709012999996,370.5709012999996,370.5709012999996,370.5709012999996,,004,P019,2025_Mar_21_1011,ConditionRich,2021.2.3,59.94028748536668,
260.0,260.75,18,0.75,Stimuli/P019/sun_bodjbrgwzlshgypq.jpg,0,0.0,0.0,0,115,115,115,,,,,,,,,,,,,260.01275910000004,0.012759100000039325,None,373.8404677999988,373.8404677999988,373.8404677999988,373.8404677999988,373.8404677999988,373.8404677999988,373.8404677999988,373.8404677999988,373.8404677999988,373.8404677999988,,004,P019,2025_Mar_21_1011,ConditionRich,2021.2.3,59.94028748536668,
260.75,264.0,41,0.0,Stimuli/Blank.png,0,0.0,0.0,0,116,116,116,,,,,,,,,,,,,260.77859910000006,0.028599100000064936,None,374.5911250999998,374.5911250999998,374.5911250999998,374.5911250999998,374.5911250999998,374.5911250999998,374.5911250999998,374.5911250999998,374.5911250999998,374.5911250999998,,004,P019,2025_Mar_21_1011,ConditionRich,2021.2.3,59.94028748536668,
264.0,264.75,25,0.75,Stimuli/P019/things_chime_10s.jpg,0,0.0,0.0,0,117,117,117,,,,,,,,,,,,,264.01484260000143,0.014842600001429673,None,377.84397439999884,377.84397439999884,377.84397439999884,377.84397439999884,377.84397439999884,377.84397439999884,377.84397439999884,377.84397439999884,377.84397439999884,377.84397439999884,,004,P019,2025_Mar_21_1011,ConditionRich,2021.2.3,59.94028748536668,
264.75,268.0,41,0.0,Stimuli/Blank.png,1,2.25,3.0,0,118,118,118,,,,,,,,,,,,,264.78328970000075,0.0332897000007506,1,378.59468579999884,378.59468579999884,378.59468579999884,378.59468579999884,378.59468579999884,378.59468579999884,380.8299552999997,381.58062229999996,378.59468579999884,378.59468579999884,2.703989999999976,004,P019,2025_Mar_21_1011,ConditionRich,2021.2.3,59.94028748536668,
268.0,268.75,38,0.75,Stimuli/P019/things_turtle_10n.jpg,0,0.0,0.0,0,119,119,119,,,,,,,,,,,,,268.00138890000017,0.0013889000001654495,None,381.8141650999987,381.8141650999987,381.8141650999987,381.8141650999987,381.8141650999987,381.8141650999987,381.8141650999987,381.8141650999987,381.8141650999987,381.8141650999987,,004,P019,2025_Mar_21_1011,ConditionRich,2021.2.3,59.94028748536668,
268.75,272.0,41,0.0,Stimuli/Blank.png,0,0.0,0.0,0,120,120,120,,,,,,,,,,,,,268.75245390000055,0.0024539000005461276,None,382.56484499999897,382.56484499999897,382.56484499999897,382.56484499999897,382.56484499999897,382.56484499999897,382.56484499999897,382.56484499999897,382.56484499999897,382.56484499999897,,004,P019,2025_Mar_21_1011,ConditionRich,2021.2.3,59.94028748536668,
272.0,272.75,32,0.75,Stimuli/P019/things_girl_10s.jpg,0,0.0,0.0,0,121,121,121,,,,,,,,,,,,,272.00470940000014,0.0047094000001379754,None,385.83438679999927,385.83438679999927,385.83438679999927,385.83438679999927,385.83438679999927,385.83438679999927,385.83438679999927,385.83438679999927,385.83438679999927,385.83438679999927,,004,P019,2025_Mar_21_1011,ConditionRich,2021.2.3,59.94028748536668,
272.75,276.0,41,0.0,Stimuli/Blank.png,0,0.0,0.0,0,122,122,122,,,,,,,,,,,,,272.7740732000002,0.024073200000202633,None,386.60174819999884,386.60174819999884,386.60174819999884,386.60174819999884,386.60174819999884,386.60174819999884,386.60174819999884,386.60174819999884,386.60174819999884,386.60174819999884,,004,P019,2025_Mar_21_1011,ConditionRich,2021.2.3,59.94028748536668,
276.0,292.0,0,0.0,Stimuli/Blank.png,1,9.0,9.75,0,123,123,123,,,,,,,,,,,,,276.0276554000011,0.027655400001094677,1,389.85461659999964,389.85461659999964,389.85461659999964,389.85461659999964,389.85461659999964,389.85461659999964,398.82919799999945,399.57985389999885,389.85461659999964,389.85461659999964,9.38201189999927,004,P019,2025_Mar_21_1011,ConditionRich,2021.2.3,59.94028748536668,
292.0,292.75,39,0.75,Stimuli/P019/things_wire_10s.jpg,0,0.0,0.0,0,124,124,124,,,,,,,,,,,,,292.02351940000153,0.02351940000153263,None,405.83537350000006,405.83537350000006,405.83537350000006,405.83537350000006,405.83537350000006,405.83537350000006,405.83537350000006,405.83537350000006,405.83537350000006,405.83537350000006,,004,P019,2025_Mar_21_1011,ConditionRich,2021.2.3,59.94028748536668,
292.75,296.0,41,0.0,Stimuli/Blank.png,0,0.0,0.0,0,125,125,125,,,,,,,,,,,,,292.75646419999975,0.006464199999754783,None,406.5693534999991,406.5693534999991,406.5693534999991,406.5693534999991,406.5693534999991,406.5693534999991,406.5693534999991,406.5693534999991,406.5693534999991,406.5693534999991,,004,P019,2025_Mar_21_1011,ConditionRich,2021.2.3,59.94028748536668,
296.0,296.75,2,0.75,Stimuli/P019/sun_ajhvfwzgpfovdgid.jpg,0,0.0,0.0,0,126,126,126,,,,,,,,,,,,,296.0099553,0.009955300000001444,None,409.83893219999845,409.83893219999845,409.83893219999845,409.83893219999845,409.83893219999845,409.83893219999845,409.83893219999845,409.83893219999845,409.83893219999845,409.83893219999845,,004,P019,2025_Mar_21_1011,ConditionRich,2021.2.3,59.94028748536668,
296.75,300.0,41,0.0,Stimuli/Blank.png,1,0.25,1.0,0,127,127,127,,,,,,,,,,,,,296.7772077999998,0.027207799999814597,1,410.58958170000005,410.58958170000005,410.58958170000005,410.58958170000005,410.58958170000005,410.58958170000005,410.82311109999864,411.57378099999914,410.58958170000005,410.58958170000005,0.7437520000003133,004,P019,2025_Mar_21_1011,ConditionRich,2021.2.3,59.94028748536668,
300.0,300.75,36,0.75,Stimuli/P019/things_sunroof_10s.jpg,0,0.0,0.0,0,128,128,128,,,,,,,,,,,,,300.01297200000045,0.012972000000445405,None,413.82578319999993,413.82578319999993,413.82578319999993,413.82578319999993,413.82578319999993,413.82578319999993,413.82578319999993,413.82578319999993,413.82578319999993,413.82578319999993,,004,P019,2025_Mar_21_1011,ConditionRich,2021.2.3,59.94028748536668,
300.75,304.0,41,0.0,Stimuli/Blank.png,0,0.0,0.0,0,129,129,129,,,,,,,,,,,,,300.76447220000045,0.014472200000454905,None,414.57714169999963,414.57714169999963,414.57714169999963,414.57714169999963,414.57714169999963,414.57714169999963,414.57714169999963,414.57714169999963,414.57714169999963,414.57714169999963,,004,P019,2025_Mar_21_1011,ConditionRich,2021.2.3,59.94028748536668,
304.0,304.75,26,0.75,Stimuli/P019/things_earwig_10n.jpg,0,0.0,0.0,0,130,130,130,,,,,,,,,,,,,303.99997170000097,-2.829999903042335e-05,None,417.8126280999986,417.8126280999986,417.8126280999986,417.8126280999986,417.8126280999986,417.8126280999986,417.8126280999986,417.8126280999986,417.8126280999986,417.8126280999986,,004,P019,2025_Mar_21_1011,ConditionRich,2021.2.3,59.94028748536668,
304.75,308.0,41,0.0,Stimuli/Blank.png,0,0.0,0.0,0,131,131,131,,,,,,,,,,,,,304.75046120000115,0.0004612000011547934,None,418.5633067999988,418.5633067999988,418.5633067999988,418.5633067999988,418.5633067999988,418.5633067999988,418.5633067999988,418.5633067999988,418.5633067999988,418.5633067999988,,004,P019,2025_Mar_21_1011,ConditionRich,2021.2.3,59.94028748536668,
308.0,308.75,31,0.75,Stimuli/P019/things_fudge_10s.jpg,0,0.0,0.0,0,132,132,132,,,,,,,,,,,,,308.0031839000003,0.0031839000002946705,None,421.8161672999995,421.8161672999995,421.8161672999995,421.8161672999995,421.8161672999995,421.8161672999995,421.8161672999995,421.8161672999995,421.8161672999995,421.8161672999995,,004,P019,2025_Mar_21_1011,ConditionRich,2021.2.3,59.94028748536668,
308.75,312.0,41,0.0,Stimuli/Blank.png,0,0.0,0.0,0,133,133,133,,,,,,,,,,,,,308.75410120000015,0.004101200000150129,None,422.5668233999986,422.5668233999986,422.5668233999986,422.5668233999986,422.5668233999986,422.5668233999986,422.5668233999986,422.5668233999986,422.5668233999986,422.5668233999986,,004,P019,2025_Mar_21_1011,ConditionRich,2021.2.3,59.94028748536668,
312.0,312.75,13,0.75,Stimuli/P019/sun_bhzwrbdycbchqesq.jpg,0,0.0,0.0,0,134,134,134,,,,,,,,,,,,,312.00719449999997,0.007194499999968684,None,425.8197010999993,425.8197010999993,425.8197010999993,425.8197010999993,425.8197010999993,425.8197010999993,425.8197010999993,425.8197010999993,425.8197010999993,425.8197010999993,,004,P019,2025_Mar_21_1011,ConditionRich,2021.2.3,59.94028748536668,
312.75,316.0,41,0.0,Stimuli/Blank.png,1,0.25,1.0,0,135,135,135,,,,,,,,,,,,,312.7583218,0.008321799999976065,1,426.58705909999844,426.58705909999844,426.58705909999844,426.58705909999844,426.58705909999844,426.58705909999844,426.8039383999985,427.5545583999992,426.58705909999844,426.58705909999844,0.7512951999997313,004,P019,2025_Mar_21_1011,ConditionRich,2021.2.3,59.94028748536668,
316.0,316.75,37,0.75,Stimuli/P019/things_toaster_10s.jpg,0,0.0,0.0,0,136,136,136,,,,,,,,,,,,,316.0273857000011,0.02738570000110485,None,429.83992279999984,429.83992279999984,429.83992279999984,429.83992279999984,429.83992279999984,429.83992279999984,429.83992279999984,429.83992279999984,429.83992279999984,429.83992279999984,,004,P019,2025_Mar_21_1011,ConditionRich,2021.2.3,59.94028748536668,
316.75,320.0,41,0.0,Stimuli/Blank.png,0,0.0,0.0,0,137,137,137,,,,,,,,,,,,,316.7615335999999,0.01153359999989334,None,430.5739131999999,430.5739131999999,430.5739131999999,430.5739131999999,430.5739131999999,430.5739131999999,430.5739131999999,430.5739131999999,430.5739131999999,430.5739131999999,,004,P019,2025_Mar_21_1011,ConditionRich,2021.2.3,59.94028748536668,
320.0,320.75,10,0.75,Stimuli/P019/sun_bblqhrudkospnbbv.jpg,0,0.0,0.0,0,138,138,138,,,,,,,,,,,,,320.0138334000003,0.013833400000294205,None,433.8267698999989,433.8267698999989,433.8267698999989,433.8267698999989,433.8267698999989,433.8267698999989,433.8267698999989,433.8267698999989,433.8267698999989,433.8267698999989,,004,P019,2025_Mar_21_1011,ConditionRich,2021.2.3,59.94028748536668,
320.75,324.0,41,0.0,Stimuli/Blank.png,0,0.0,0.0,0,139,139,139,,,,,,,,,,,,,320.7643857000003,0.014385700000275392,None,434.5774287999993,434.5774287999993,434.5774287999993,434.5774287999993,434.5774287999993,434.5774287999993,434.5774287999993,434.5774287999993,434.5774287999993,434.5774287999993,,004,P019,2025_Mar_21_1011,ConditionRich,2021.2.3,59.94028748536668,
324.0,324.75,22,0.75,Stimuli/P019/things_bead_10s.jpg,0,0.0,0.0,0,140,140,140,,,,,,,,,,,,,324.0012058000011,0.001205800001116586,None,437.81361729999844,437.81361729999844,437.81361729999844,437.81361729999844,437.81361729999844,437.81361729999844,437.81361729999844,437.81361729999844,437.81361729999844,437.81361729999844,,004,P019,2025_Mar_21_1011,ConditionRich,2021.2.3,59.94028748536668,
324.75,328.0,41,0.0,Stimuli/Blank.png,1,2.25,3.0,0,141,141,141,,,,,,,,,,,,,324.75209300000097,0.002093000000968459,1,438.56430699999873,438.56430699999873,438.56430699999873,438.56430699999873,438.56430699999873,438.56430699999873,440.7996002,441.55025810000006,438.56430699999873,438.56430699999873,2.7612132000012934,004,P019,2025_Mar_21_1011,ConditionRich,2021.2.3,59.94028748536668,
328.0,328.75,30,0.75,Stimuli/P019/things_flip_flop_10s.jpg,0,0.0,0.0,0,142,142,142,,,,,,,,,,,,,328.00429780000013,0.004297800000131247,None,441.81715339999937,441.81715339999937,441.81715339999937,441.81715339999937,441.81715339999937,441.81715339999937,441.81715339999937,441.81715339999937,441.81715339999937,441.81715339999937,,004,P019,2025_Mar_21_1011,ConditionRich,2021.2.3,59.94028748536668,
328.75,332.0,41,0.0,Stimuli/Blank.png,0,0.0,0.0,0,143,143,143,,,,,,,,,,,,,328.7574846000007,0.007484600000680075,None,442.58451049999894,442.58451049999894,442.58451049999894,442.58451049999894,442.58451049999894,442.58451049999894,442.58451049999894,442.58451049999894,442.58451049999894,442.58451049999894,,004,P019,2025_Mar_21_1011,ConditionRich,2021.2.3,59.94028748536668,
332.0,332.75,20,0.75,Stimuli/P019/sun_dlnwonqxagdvtlta.jpg,0,0.0,0.0,0,144,144,144,,,,,,,,,,,,,332.0244865000004,0.024486500000421074,None,445.8373815999985,445.8373815999985,445.8373815999985,445.8373815999985,445.8373815999985,445.8373815999985,445.8373815999985,445.8373815999985,445.8373815999985,445.8373815999985,,004,P019,2025_Mar_21_1011,ConditionRich,2021.2.3,59.94028748536668,
332.75,336.0,41,0.0,Stimuli/Blank.png,0,0.0,0.0,0,145,145,145,,,,,,,,,,,,,332.75859409999975,0.00859409999975469,None,446.57135709999966,446.57135709999966,446.57135709999966,446.57135709999966,446.57135709999966,446.57135709999966,446.57135709999966,446.57135709999966,446.57135709999966,446.57135709999966,,004,P019,2025_Mar_21_1011,ConditionRich,2021.2.3,59.94028748536668,
336.0,336.75,12,0.75,Stimuli/P019/sun_bgjrtiivbwugxhxp.jpg,0,0.0,0.0,0,146,146,146,,,,,,,,,,,,,336.01161740000134,0.011617400001341593,None,449.8242296999997,449.8242296999997,449.8242296999997,449.8242296999997,449.8242296999997,449.8242296999997,449.8242296999997,449.8242296999997,449.8242296999997,449.8242296999997,,004,P019,2025_Mar_21_1011,ConditionRich,2021.2.3,59.94028748536668,
336.75,340.0,41,0.0,Stimuli/Blank.png,0,0.0,0.0,0,147,147,147,,,,,,,,,,,,,336.76235700000143,0.012357000001429697,None,450.57489499999974,450.57489499999974,450.57489499999974,450.57489499999974,450.57489499999974,450.57489499999974,450.57489499999974,450.57489499999974,450.57489499999974,450.57489499999974,,004,P019,2025_Mar_21_1011,ConditionRich,2021.2.3,59.94028748536668,
340.0,340.75,33,0.75,Stimuli/P019/things_insole_10s.jpg,0,0.0,0.0,0,148,148,148,,,,,,,,,,,,,340.0148102000003,0.014810200000283658,None,453.8444533999991,453.8444533999991,453.8444533999991,453.8444533999991,453.8444533999991,453.8444533999991,453.8444533999991,453.8444533999991,453.8444533999991,453.8444533999991,,004,P019,2025_Mar_21_1011,ConditionRich,2021.2.3,59.94028748536668,
340.75,344.0,41,0.0,Stimuli/Blank.png,0,0.0,0.0,0,149,149,149,,,,,,,,,,,,,340.78219270000045,0.032192700000450714,None,454.5951359999999,454.5951359999999,454.5951359999999,454.5951359999999,454.5951359999999,454.5951359999999,454.5951359999999,454.5951359999999,454.5951359999999,454.5951359999999,,004,P019,2025_Mar_21_1011,ConditionRich,2021.2.3,59.94028748536668,
344.0,344.75,27,0.75,Stimuli/P019/things_eel_10s.jpg,0,0.0,0.0,0,150,150,150,,,,,,,,,,,,,344.00319780000063,0.003197800000634743,None,457.8313099999996,457.8313099999996,457.8313099999996,457.8313099999996,457.8313099999996,457.8313099999996,457.8313099999996,457.8313099999996,457.8313099999996,457.8313099999996,,004,P019,2025_Mar_21_1011,ConditionRich,2021.2.3,59.94028748536668,
344.75,348.0,41,0.0,Stimuli/Blank.png,1,2.25,3.0,0,151,151,151,,,,,,,,,,,,,344.76903649999986,0.01903649999985646,1,458.58196869999847,458.58196869999847,458.58196869999847,458.58196869999847,458.58196869999847,458.58196869999847,460.8173461999995,461.56793539999853,458.58196869999847,458.58196869999847,2.7236358000009204,004,P019,2025_Mar_21_1011,ConditionRich,2021.2.3,59.94028748536668,
348.0,348.75,19,0.75,Stimuli/P019/sun_byssdezaaqnthppd.jpg,0,0.0,0.0,0,152,152,152,,,,,,,,,,,,,348.00518920000104,0.005189200001041172,None,461.81816489999983,461.81816489999983,461.81816489999983,461.81816489999983,461.81816489999983,461.81816489999983,461.81816489999983,461.81816489999983,461.81816489999983,461.81816489999983,,004,P019,2025_Mar_21_1011,ConditionRich,2021.2.3,59.94028748536668,
348.75,352.0,41,0.0,Stimuli/Blank.png,0,0.0,0.0,0,153,153,153,,,,,,,,,,,,,348.75801520000095,0.008015200000954792,None,462.58552359999885,462.58552359999885,462.58552359999885,462.58552359999885,462.58552359999885,462.58552359999885,462.58552359999885,462.58552359999885,462.58552359999885,462.58552359999885,,004,P019,2025_Mar_21_1011,ConditionRich,2021.2.3,59.94028748536668,
352.0,352.75,7,0.75,Stimuli/P019/sun_aqkbfuonyunmyqxb.jpg,0,0.0,0.0,0,154,154,154,,,,,,,,,,,,,352.0274539000002,0.02745390000018233,None,465.85505999999987,465.85505999999987,465.85505999999987,465.85505999999987,465.85505999999987,465.85505999999987,465.85505999999987,465.85505999999987,465.85505999999987,465.85505999999987,,004,P019,2025_Mar_21_1011,ConditionRich,2021.2.3,59.94028748536668,
352.75,356.0,41,0.0,Stimuli/Blank.png,0,0.0,0.0,0,155,155,155,,,,,,,,,,,,,352.77722560000075,0.027225600000747363,None,466.5890588000002,466.5890588000002,466.5890588000002,466.5890588000002,466.5890588000002,466.5890588000002,466.5890588000002,466.5890588000002,466.5890588000002,466.5890588000002,,004,P019,2025_Mar_21_1011,ConditionRich,2021.2.3,59.94028748536668,
356.0,356.75,3,0.75,Stimuli/P019/sun_aknrkswonrogcooi.jpg,0,0.0,0.0,0,156,156,156,,,,,,,,,,,,,356.01310340000055,0.013103400000545662,None,469.82523929999843,469.82523929999843,469.82523929999843,469.82523929999843,469.82523929999843,469.82523929999843,469.82523929999843,469.82523929999843,469.82523929999843,469.82523929999843,,004,P019,2025_Mar_21_1011,ConditionRich,2021.2.3,59.94028748536668,
356.75,360.0,41,0.0,Stimuli/Blank.png,0,0.0,0.0,0,157,157,157,,,,,,,,,,,,,356.7638284000004,0.013828400000420515,None,470.5758988999987,470.5758988999987,470.5758988999987,470.5758988999987,470.5758988999987,470.5758988999987,470.5758988999987,470.5758988999987,470.5758988999987,470.5758988999987,,004,P019,2025_Mar_21_1011,ConditionRich,2021.2.3,59.94028748536668,
360.0,360.75,24,0.75,Stimuli/P019/things_bulletin_board_10s.jpg,0,0.0,0.0,0,158,158,158,,,,,,,,,,,,,359.9996901000013,-0.0003098999986832496,None,473.828765799999,473.828765799999,473.828765799999,473.828765799999,473.828765799999,473.828765799999,473.828765799999,473.828765799999,473.828765799999,473.828765799999,,004,P019,2025_Mar_21_1011,ConditionRich,2021.2.3,59.94028748536668,
360.75,364.0,41,0.0,Stimuli/Blank.png,1,1.25,2.0,0,159,159,159,,,,,,,,,,,,,360.76777850000144,0.01777850000144099,1,474.5794301999995,474.5794301999995,474.5794301999995,474.5794301999995,474.5794301999995,474.5794301999995,475.81392119999873,476.56452379999973,474.5794301999995,474.5794301999995,1.68917109999893,004,P019,2025_Mar_21_1011,ConditionRich,2021.2.3,59.94028748536668,
364.0,364.75,34,0.75,Stimuli/P019/things_man_10s.jpg,0,0.0,0.0,0,160,160,160,,,,,,,,,,,,,364.00315020000016,0.00315020000016375,None,477.81564829999843,477.81564829999843,477.81564829999843,477.81564829999843,477.81564829999843,477.81564829999843,477.81564829999843,477.81564829999843,477.81564829999843,477.81564829999843,,004,P019,2025_Mar_21_1011,ConditionRich,2021.2.3,59.94028748536668,
364.75,368.0,41,0.0,Stimuli/Blank.png,0,0.0,0.0,0,161,161,161,,,,,,,,,,,,,364.7533476000008,0.0033476000007794937,None,478.56628079999973,478.56628079999973,478.56628079999973,478.56628079999973,478.56628079999973,478.56628079999973,478.56628079999973,478.56628079999973,478.56628079999973,478.56628079999973,,004,P019,2025_Mar_21_1011,ConditionRich,2021.2.3,59.94028748536668,
368.0,368.75,9,0.75,Stimuli/P019/sun_bbfmuujfvpiaqdww.jpg,0,0.0,0.0,0,162,162,162,,,,,,,,,,,,,368.00741610000114,0.007416100001137238,None,481.8358602999997,481.8358602999997,481.8358602999997,481.8358602999997,481.8358602999997,481.8358602999997,481.8358602999997,481.8358602999997,481.8358602999997,481.8358602999997,,004,P019,2025_Mar_21_1011,ConditionRich,2021.2.3,59.94028748536668,
368.75,372.0,41,0.0,Stimuli/Blank.png,0,0.0,0.0,0,163,163,163,,,,,,,,,,,,,368.77463420000095,0.024634200000946294,None,482.58651349999855,482.58651349999855,482.58651349999855,482.58651349999855,482.58651349999855,482.58651349999855,482.58651349999855,482.58651349999855,482.58651349999855,482.58651349999855,,004,P019,2025_Mar_21_1011,ConditionRich,2021.2.3,59.94028748536668,
372.0,388.0,0,0.0,Stimuli/Blank.png,1,13.0,13.75,0,164,164,164,,,,,,,,,,,,,372.0124166000005,0.01241660000050615,1,485.8393477999998,485.8393477999998,485.8393477999998,485.8393477999998,485.8393477999998,485.8393477999998,498.8175044999989,499.5681875999999,485.8393477999998,485.8393477999998,13.371107400000255,004,P019,2025_Mar_21_1011,ConditionRich,2021.2.3,59.94028748536668,
