eventStartTime,eventEndTime,eventCond,imSize,imFile,responseEvent,fixRespStart,fixRespEnd,Events.thisRepN,Events.thisTrialN,Events.thisN,Events.thisIndex,Instructions.started,Instructions.stopped,participantReadyResponse.keys,participantReadyResponse.rt,participantReadyResponse.started,participantReadyResponse.stopped,startWaitforTrigger,triggerResponse.keys,triggerResponse.rt,triggerResponse.started,triggerResponse.stopped,globalTimer,actualStartTime,startTimingDiff,participantResponse.keys,participantResponse.started,participantResponse.stopped,image.started,image.stopped,fixationOutside.started,fixationOutside.stopped,fixationResponse.started,fixationResponse.stopped,fixationInside.started,fixationInside.stopped,participantResponse.rt,session,participant,date,expName,psychopyVersion,frameRate,
,,,,,,,,,,,,11.445308099999238,None,1,2.7613278000007995,11.445308099999238,None,,,,,,,,,,,,,,,,,,,,,007,P019,2025_Mar_21_1040,ConditionRich,2021.2.3,59.9423354729436,
,,,,,,,,,,,,,,,,,,14.224185700000817,5,18.980075299999953,14.23658129999967,None,,,,,,,,,,,,,,,,007,P019,2025_Mar_21_1040,ConditionRich,2021.2.3,59.9423354729436,
0.0,4.0,0,0.0,Stimuli/Blank.png,0,0.0,0.0,0,0,0,0,,,,,,,,,,,,33.223540400000275,0.047135200000411714,0.047135200000411714,None,33.2867468000004,None,33.2867468000004,None,33.2867468000004,None,33.2867468000004,33.2867468000004,33.2867468000004,None,,007,P019,2025_Mar_21_1040,ConditionRich,2021.2.3,59.9423354729436,
4.0,4.75,7,0.75,Stimuli/P019/sun_aqkbfuonyunmyqxb.jpg,0,0.0,0.0,0,1,1,1,,,,,,,,,,,,,4.003601599999456,0.0036015999994560843,None,37.257256200000484,37.257256200000484,37.257256200000484,37.257256200000484,37.257256200000484,37.257256200000484,37.257256200000484,37.257256200000484,37.257256200000484,37.257256200000484,,007,P019,2025_Mar_21_1040,ConditionRich,2021.2.3,59.9423354729436,
4.75,8.0,41,0.0,Stimuli/Blank.png,0,0.0,0.0,0,2,2,2,,,,,,,,,,,,,4.771633599999404,0.021633599999404396,None,38.024552900000344,38.024552900000344,38.024552900000344,38.024552900000344,38.024552900000344,38.024552900000344,38.024552900000344,38.024552900000344,38.024552900000344,38.024552900000344,,007,P019,2025_Mar_21_1040,ConditionRich,2021.2.3,59.9423354729436,
8.0,8.75,37,0.75,Stimuli/P019/things_toaster_10s.jpg,0,0.0,0.0,0,3,3,3,,,,,,,,,,,,,8.023044800000207,0.023044800000207033,None,41.26045990000057,41.26045990000057,41.26045990000057,41.26045990000057,41.26045990000057,41.26045990000057,41.26045990000057,41.26045990000057,41.26045990000057,41.26045990000057,,007,P019,2025_Mar_21_1040,ConditionRich,2021.2.3,59.9423354729436,
8.75,12.0,41,0.0,Stimuli/Blank.png,0,0.0,0.0,0,4,4,4,,,,,,,,,,,,,8.756957800000237,0.0069578000002366025,None,41.99446639999951,41.99446639999951,41.99446639999951,41.99446639999951,41.99446639999951,41.99446639999951,41.99446639999951,41.99446639999951,41.99446639999951,41.99446639999951,,007,P019,2025_Mar_21_1040,ConditionRich,2021.2.3,59.9423354729436,
12.0,12.75,12,0.75,Stimuli/P019/sun_bgjrtiivbwugxhxp.jpg,0,0.0,0.0,0,5,5,5,,,,,,,,,,,,,12.012195100000099,0.012195100000099046,None,45.26400180000019,45.26400180000019,45.26400180000019,45.26400180000019,45.26400180000019,45.26400180000019,45.26400180000019,45.26400180000019,45.26400180000019,45.26400180000019,,007,P019,2025_Mar_21_1040,ConditionRich,2021.2.3,59.9423354729436,
12.75,16.0,41,0.0,Stimuli/Blank.png,0,0.0,0.0,0,6,6,6,,,,,,,,,,,,,12.777783699999418,0.027783699999417877,None,46.014659700000266,46.014659700000266,46.014659700000266,46.014659700000266,46.014659700000266,46.014659700000266,46.014659700000266,46.014659700000266,46.014659700000266,46.014659700000266,,007,P019,2025_Mar_21_1040,ConditionRich,2021.2.3,59.9423354729436,
16.0,16.75,25,0.75,Stimuli/P019/things_chime_10s.jpg,0,0.0,0.0,0,7,7,7,,,,,,,,,,,,,16.013985699999466,0.013985699999466306,None,49.2508598000004,49.2508598000004,49.2508598000004,49.2508598000004,49.2508598000004,49.2508598000004,49.2508598000004,49.2508598000004,49.2508598000004,49.2508598000004,,007,P019,2025_Mar_21_1040,ConditionRich,2021.2.3,59.9423354729436,
16.75,20.0,41,0.0,Stimuli/Blank.png,0,0.0,0.0,0,8,8,8,,,,,,,,,,,,,16.763646400000653,0.013646400000652648,None,50.00151770000048,50.00151770000048,50.00151770000048,50.00151770000048,50.00151770000048,50.00151770000048,50.00151770000048,50.00151770000048,50.00151770000048,50.00151770000048,,007,P019,2025_Mar_21_1040,ConditionRich,2021.2.3,59.9423354729436,
20.0,20.75,10,0.75,Stimuli/P019/sun_bblqhrudkospnbbv.jpg,0,0.0,0.0,0,9,9,9,,,,,,,,,,,,,20.001782900000762,0.0017829000007623108,None,53.25439600000027,53.25439600000027,53.25439600000027,53.25439600000027,53.25439600000027,53.25439600000027,53.25439600000027,53.25439600000027,53.25439600000027,53.25439600000027,,007,P019,2025_Mar_21_1040,ConditionRich,2021.2.3,59.9423354729436,
20.75,24.0,41,0.0,Stimuli/Blank.png,0,0.0,0.0,0,10,10,10,,,,,,,,,,,,,20.76711660000001,0.017116600000008475,None,54.005054699999164,54.005054699999164,54.005054699999164,54.005054699999164,54.005054699999164,54.005054699999164,54.005054699999164,54.005054699999164,54.005054699999164,54.005054699999164,,007,P019,2025_Mar_21_1040,ConditionRich,2021.2.3,59.9423354729436,
24.0,24.75,26,0.75,Stimuli/P019/things_earwig_10n.jpg,0,0.0,0.0,0,11,11,11,,,,,,,,,,,,,24.003257599999415,0.003257599999415106,None,57.24124269999993,57.24124269999993,57.24124269999993,57.24124269999993,57.24124269999993,57.24124269999993,57.24124269999993,57.24124269999993,57.24124269999993,57.24124269999993,,007,P019,2025_Mar_21_1040,ConditionRich,2021.2.3,59.9423354729436,
24.75,28.0,41,0.0,Stimuli/Blank.png,0,0.0,0.0,0,12,12,12,,,,,,,,,,,,,24.753723699999682,0.0037236999996821396,None,57.99190009999984,57.99190009999984,57.99190009999984,57.99190009999984,57.99190009999984,57.99190009999984,57.99190009999984,57.99190009999984,57.99190009999984,57.99190009999984,,007,P019,2025_Mar_21_1040,ConditionRich,2021.2.3,59.9423354729436,
28.0,28.75,2,0.75,Stimuli/P019/sun_ajhvfwzgpfovdgid.jpg,0,0.0,0.0,0,13,13,13,,,,,,,,,,,,,28.007119400001102,0.007119400001101894,None,61.24477149999984,61.24477149999984,61.24477149999984,61.24477149999984,61.24477149999984,61.24477149999984,61.24477149999984,61.24477149999984,61.24477149999984,61.24477149999984,,007,P019,2025_Mar_21_1040,ConditionRich,2021.2.3,59.9423354729436,
28.75,32.0,41,0.0,Stimuli/Blank.png,0,0.0,0.0,0,14,14,14,,,,,,,,,,,,,28.757247300000017,0.007247300000017276,None,61.995445099999415,61.995445099999415,61.995445099999415,61.995445099999415,61.995445099999415,61.995445099999415,61.995445099999415,61.995445099999415,61.995445099999415,61.995445099999415,,007,P019,2025_Mar_21_1040,ConditionRich,2021.2.3,59.9423354729436,
32.0,32.75,17,0.75,Stimuli/P019/sun_bltxkcclrpweopkl.jpg,0,0.0,0.0,0,15,15,15,,,,,,,,,,,,,32.010808999999426,0.010808999999426305,None,65.24831330000052,65.24831330000052,65.24831330000052,65.24831330000052,65.24831330000052,65.24831330000052,65.24831330000052,65.24831330000052,65.24831330000052,65.24831330000052,,007,P019,2025_Mar_21_1040,ConditionRich,2021.2.3,59.9423354729436,
32.75,36.0,41,0.0,Stimuli/Blank.png,0,0.0,0.0,0,16,16,16,,,,,,,,,,,,,32.76098690000072,0.01098690000071656,None,65.9989800000003,65.9989800000003,65.9989800000003,65.9989800000003,65.9989800000003,65.9989800000003,65.9989800000003,65.9989800000003,65.9989800000003,65.9989800000003,,007,P019,2025_Mar_21_1040,ConditionRich,2021.2.3,59.9423354729436,
36.0,36.75,18,0.75,Stimuli/P019/sun_bodjbrgwzlshgypq.jpg,0,0.0,0.0,0,17,17,17,,,,,,,,,,,,,36.01375700000062,0.01375700000062352,None,69.26854819999971,69.26854819999971,69.26854819999971,69.26854819999971,69.26854819999971,69.26854819999971,69.26854819999971,69.26854819999971,69.26854819999971,69.26854819999971,,007,P019,2025_Mar_21_1040,ConditionRich,2021.2.3,59.9423354729436,
36.75,40.0,41,0.0,Stimuli/Blank.png,0,0.0,0.0,0,18,18,18,,,,,,,,,,,,,36.78219360000003,0.0321936000000278,None,70.0191988000006,70.0191988000006,70.0191988000006,70.0191988000006,70.0191988000006,70.0191988000006,70.0191988000006,70.0191988000006,70.0191988000006,70.0191988000006,,007,P019,2025_Mar_21_1040,ConditionRich,2021.2.3,59.9423354729436,
40.0,40.75,32,0.75,Stimuli/P019/things_girl_10s.jpg,0,0.0,0.0,0,19,19,19,,,,,,,,,,,,,40.0013127000002,0.0013127000001986744,None,73.25538050000068,73.25538050000068,73.25538050000068,73.25538050000068,73.25538050000068,73.25538050000068,73.25538050000068,73.25538050000068,73.25538050000068,73.25538050000068,,007,P019,2025_Mar_21_1040,ConditionRich,2021.2.3,59.9423354729436,
40.75,44.0,41,0.0,Stimuli/Blank.png,1,2.25,3.0,0,20,20,20,,,,,,,,,,,,,40.76807379999991,0.01807379999991099,1,74.0060594000006,74.0060594000006,74.0060594000006,74.0060594000006,74.0060594000006,74.0060594000006,76.24143209999966,76.99206149999918,74.0060594000006,74.0060594000006,2.6975991999988764,007,P019,2025_Mar_21_1040,ConditionRich,2021.2.3,59.9423354729436,
44.0,44.75,33,0.75,Stimuli/P019/things_insole_10s.jpg,0,0.0,0.0,0,21,21,21,,,,,,,,,,,,,44.00549150000006,0.005491500000061933,None,77.2589222000006,77.2589222000006,77.2589222000006,77.2589222000006,77.2589222000006,77.2589222000006,77.2589222000006,77.2589222000006,77.2589222000006,77.2589222000006,,007,P019,2025_Mar_21_1040,ConditionRich,2021.2.3,59.9423354729436,
44.75,48.0,41,0.0,Stimuli/Blank.png,0,0.0,0.0,0,22,22,22,,,,,,,,,,,,,44.77213740000116,0.022137400001156493,None,78.00959289999992,78.00959289999992,78.00959289999992,78.00959289999992,78.00959289999992,78.00959289999992,78.00959289999992,78.00959289999992,78.00959289999992,78.00959289999992,,007,P019,2025_Mar_21_1040,ConditionRich,2021.2.3,59.9423354729436,
48.0,48.75,34,0.75,Stimuli/P019/things_man_10s.jpg,0,0.0,0.0,0,23,23,23,,,,,,,,,,,,,48.00832570000057,0.008325700000568759,None,81.24577510000017,81.24577510000017,81.24577510000017,81.24577510000017,81.24577510000017,81.24577510000017,81.24577510000017,81.24577510000017,81.24577510000017,81.24577510000017,,007,P019,2025_Mar_21_1040,ConditionRich,2021.2.3,59.9423354729436,
48.75,52.0,41,0.0,Stimuli/Blank.png,0,0.0,0.0,0,24,24,24,,,,,,,,,,,,,48.75841910000054,0.008419100000537583,None,81.99644160000025,81.99644160000025,81.99644160000025,81.99644160000025,81.99644160000025,81.99644160000025,81.99644160000025,81.99644160000025,81.99644160000025,81.99644160000025,,007,P019,2025_Mar_21_1040,ConditionRich,2021.2.3,59.9423354729436,
52.0,52.75,3,0.75,Stimuli/P019/sun_aknrkswonrogcooi.jpg,0,0.0,0.0,0,25,25,25,,,,,,,,,,,,,52.012261699999726,0.012261699999726261,None,85.26602020000064,85.26602020000064,85.26602020000064,85.26602020000064,85.26602020000064,85.26602020000064,85.26602020000064,85.26602020000064,85.26602020000064,85.26602020000064,,007,P019,2025_Mar_21_1040,ConditionRich,2021.2.3,59.9423354729436,
52.75,56.0,41,0.0,Stimuli/Blank.png,0,0.0,0.0,0,26,26,26,,,,,,,,,,,,,52.778546300000016,0.028546300000016345,None,86.01665399999911,86.01665399999911,86.01665399999911,86.01665399999911,86.01665399999911,86.01665399999911,86.01665399999911,86.01665399999911,86.01665399999911,86.01665399999911,,007,P019,2025_Mar_21_1040,ConditionRich,2021.2.3,59.9423354729436,
56.0,56.75,36,0.75,Stimuli/P019/things_sunroof_10s.jpg,0,0.0,0.0,0,27,27,27,,,,,,,,,,,,,56.01491519999945,0.014915199999450124,None,89.2528586999997,89.2528586999997,89.2528586999997,89.2528586999997,89.2528586999997,89.2528586999997,89.2528586999997,89.2528586999997,89.2528586999997,89.2528586999997,,007,P019,2025_Mar_21_1040,ConditionRich,2021.2.3,59.9423354729436,
56.75,60.0,41,0.0,Stimuli/Blank.png,0,0.0,0.0,0,28,28,28,,,,,,,,,,,,,56.7666420000005,0.016642000000501866,None,90.0035284000005,90.0035284000005,90.0035284000005,90.0035284000005,90.0035284000005,90.0035284000005,90.0035284000005,90.0035284000005,90.0035284000005,90.0035284000005,,007,P019,2025_Mar_21_1040,ConditionRich,2021.2.3,59.9423354729436,
60.0,60.75,22,0.75,Stimuli/P019/things_bead_10s.jpg,0,0.0,0.0,0,29,29,29,,,,,,,,,,,,,60.00224510000044,0.0022451000004366506,None,93.2563898999997,93.2563898999997,93.2563898999997,93.2563898999997,93.2563898999997,93.2563898999997,93.2563898999997,93.2563898999997,93.2563898999997,93.2563898999997,,007,P019,2025_Mar_21_1040,ConditionRich,2021.2.3,59.9423354729436,
60.75,64.0,41,0.0,Stimuli/Blank.png,0,0.0,0.0,0,30,30,30,,,,,,,,,,,,,60.769936900000175,0.01993690000017523,None,94.00706519999949,94.00706519999949,94.00706519999949,94.00706519999949,94.00706519999949,94.00706519999949,94.00706519999949,94.00706519999949,94.00706519999949,94.00706519999949,,007,P019,2025_Mar_21_1040,ConditionRich,2021.2.3,59.9423354729436,
64.0,64.75,1,0.75,Stimuli/P019/sun_aaaidwecchadbake.jpg,0,0.0,0.0,0,31,31,31,,,,,,,,,,,,,64.00613320000048,0.006133200000476791,None,97.24331809999967,97.24331809999967,97.24331809999967,97.24331809999967,97.24331809999967,97.24331809999967,97.24331809999967,97.24331809999967,97.24331809999967,97.24331809999967,,007,P019,2025_Mar_21_1040,ConditionRich,2021.2.3,59.9423354729436,
64.75,68.0,41,0.0,Stimuli/Blank.png,1,1.25,2.0,0,32,32,32,,,,,,,,,,,,,64.7559798000002,0.005979800000204705,1,97.99390309999944,97.99390309999944,97.99390309999944,97.99390309999944,97.99390309999944,97.99390309999944,99.22833130000072,99.97898730000088,97.99390309999944,97.99390309999944,1.6857645000000048,007,P019,2025_Mar_21_1040,ConditionRich,2021.2.3,59.9423354729436,
68.0,68.75,15,0.75,Stimuli/P019/sun_bkubdnohuakmwcaj.jpg,0,0.0,0.0,0,33,33,33,,,,,,,,,,,,,68.00882180000008,0.008821800000077928,None,101.26349029999983,101.26349029999983,101.26349029999983,101.26349029999983,101.26349029999983,101.26349029999983,101.26349029999983,101.26349029999983,101.26349029999983,101.26349029999983,,007,P019,2025_Mar_21_1040,ConditionRich,2021.2.3,59.9423354729436,
68.75,72.0,41,0.0,Stimuli/Blank.png,0,0.0,0.0,0,34,34,34,,,,,,,,,,,,,68.77665780000098,0.02665780000097584,None,102.01412349999919,102.01412349999919,102.01412349999919,102.01412349999919,102.01412349999919,102.01412349999919,102.01412349999919,102.01412349999919,102.01412349999919,102.01412349999919,,007,P019,2025_Mar_21_1040,ConditionRich,2021.2.3,59.9423354729436,
72.0,72.75,23,0.75,Stimuli/P019/things_boy_10s.jpg,1,0.0,0.75,0,35,35,35,,,,,,,,,,,,,72.01309580000088,0.013095800000883173,1,105.25027799999953,105.25027799999953,105.25027799999953,105.25027799999953,105.25027799999953,105.25027799999953,105.25027799999953,105.98432239999966,105.25027799999953,105.25027799999953,0.46434379999845987,007,P019,2025_Mar_21_1040,ConditionRich,2021.2.3,59.9423354729436,
72.75,76.0,41,0.0,Stimuli/Blank.png,0,0.0,0.0,0,36,36,36,,,,,,,,,,,,,72.76314319999983,0.013143199999831268,None,106.00100500000008,106.00100500000008,106.00100500000008,106.00100500000008,106.00100500000008,106.00100500000008,106.00100500000008,106.00100500000008,106.00100500000008,106.00100500000008,,007,P019,2025_Mar_21_1040,ConditionRich,2021.2.3,59.9423354729436,
76.0,76.75,5,0.75,Stimuli/P019/sun_amjqxnqvhovkotym.jpg,0,0.0,0.0,0,37,37,37,,,,,,,,,,,,,75.9992087999999,-0.0007912000000942498,None,109.23715980000088,109.23715980000088,109.23715980000088,109.23715980000088,109.23715980000088,109.23715980000088,109.23715980000088,109.23715980000088,109.23715980000088,109.23715980000088,,007,P019,2025_Mar_21_1040,ConditionRich,2021.2.3,59.9423354729436,
76.75,80.0,41,0.0,Stimuli/Blank.png,0,0.0,0.0,0,38,38,38,,,,,,,,,,,,,76.75181859999975,0.0018185999997513136,None,110.00452589999986,110.00452589999986,110.00452589999986,110.00452589999986,110.00452589999986,110.00452589999986,110.00452589999986,110.00452589999986,110.00452589999986,110.00452589999986,,007,P019,2025_Mar_21_1040,ConditionRich,2021.2.3,59.9423354729436,
80.0,80.75,28,0.75,Stimuli/P019/things_face_10s.jpg,0,0.0,0.0,0,39,39,39,,,,,,,,,,,,,80.01951890000055,0.019518900000548456,None,113.27408900000046,113.27408900000046,113.27408900000046,113.27408900000046,113.27408900000046,113.27408900000046,113.27408900000046,113.27408900000046,113.27408900000046,113.27408900000046,,007,P019,2025_Mar_21_1040,ConditionRich,2021.2.3,59.9423354729436,
80.75,84.0,41,0.0,Stimuli/Blank.png,1,2.25,3.0,0,40,40,40,,,,,,,,,,,,,80.76990769999975,0.01990769999974873,1,114.00812229999974,114.00812229999974,114.00812229999974,114.00812229999974,114.00812229999974,114.00812229999974,116.24335649999921,116.99402270000064,114.00812229999974,114.00812229999974,2.618581099999574,007,P019,2025_Mar_21_1040,ConditionRich,2021.2.3,59.9423354729436,
84.0,100.0,0,0.0,Stimuli/Blank.png,1,7.0,7.75,0,41,41,41,,,,,,,,,,,,,84.0067199999994,0.006719999999404536,1,117.24423829999978,117.24423829999978,117.24423829999978,117.24423829999978,117.24423829999978,117.24423829999978,124.23376149999967,124.98440710000068,117.24423829999978,117.24423829999978,7.375421200000346,007,P019,2025_Mar_21_1040,ConditionRich,2021.2.3,59.9423354729436,
100.0,100.75,21,0.75,Stimuli/P019/things_anteater_10s.jpg,0,0.0,0.0,0,42,42,42,,,,,,,,,,,,,100.00600769999983,0.0060076999998273095,None,133.25844479999978,133.25844479999978,133.25844479999978,133.25844479999978,133.25844479999978,133.25844479999978,133.25844479999978,133.25844479999978,133.25844479999978,133.25844479999978,,007,P019,2025_Mar_21_1040,ConditionRich,2021.2.3,59.9423354729436,
100.75,104.0,41,0.0,Stimuli/Blank.png,0,0.0,0.0,0,43,43,43,,,,,,,,,,,,,100.77135509999971,0.021355099999709637,None,134.00906079999913,134.00906079999913,134.00906079999913,134.00906079999913,134.00906079999913,134.00906079999913,134.00906079999913,134.00906079999913,134.00906079999913,134.00906079999913,,007,P019,2025_Mar_21_1040,ConditionRich,2021.2.3,59.9423354729436,
104.0,104.75,24,0.75,Stimuli/P019/things_bulletin_board_10s.jpg,0,0.0,0.0,0,44,44,44,,,,,,,,,,,,,104.00779909999983,0.0077990999998291954,None,137.2452405999993,137.2452405999993,137.2452405999993,137.2452405999993,137.2452405999993,137.2452405999993,137.2452405999993,137.2452405999993,137.2452405999993,137.2452405999993,,007,P019,2025_Mar_21_1040,ConditionRich,2021.2.3,59.9423354729436,
104.75,108.0,41,0.0,Stimuli/Blank.png,0,0.0,0.0,0,45,45,45,,,,,,,,,,,,,104.75773630000003,0.007736300000033225,None,137.9959089999993,137.9959089999993,137.9959089999993,137.9959089999993,137.9959089999993,137.9959089999993,137.9959089999993,137.9959089999993,137.9959089999993,137.9959089999993,,007,P019,2025_Mar_21_1040,ConditionRich,2021.2.3,59.9423354729436,
108.0,108.75,6,0.75,Stimuli/P019/sun_amppcthpabgulbwl.jpg,0,0.0,0.0,0,46,46,46,,,,,,,,,,,,,108.01151570000002,0.011515700000018114,None,141.2654633000002,141.2654633000002,141.2654633000002,141.2654633000002,141.2654633000002,141.2654633000002,141.2654633000002,141.2654633000002,141.2654633000002,141.2654633000002,,007,P019,2025_Mar_21_1040,ConditionRich,2021.2.3,59.9423354729436,
108.75,112.0,41,0.0,Stimuli/Blank.png,0,0.0,0.0,0,47,47,47,,,,,,,,,,,,,108.77864840000075,0.028648400000747642,None,142.0161212999992,142.0161212999992,142.0161212999992,142.0161212999992,142.0161212999992,142.0161212999992,142.0161212999992,142.0161212999992,142.0161212999992,142.0161212999992,,007,P019,2025_Mar_21_1040,ConditionRich,2021.2.3,59.9423354729436,
112.0,112.75,19,0.75,Stimuli/P019/sun_byssdezaaqnthppd.jpg,0,0.0,0.0,0,48,48,48,,,,,,,,,,,,,112.01560880000034,0.015608800000336487,None,145.26900249999926,145.26900249999926,145.26900249999926,145.26900249999926,145.26900249999926,145.26900249999926,145.26900249999926,145.26900249999926,145.26900249999926,145.26900249999926,,007,P019,2025_Mar_21_1040,ConditionRich,2021.2.3,59.9423354729436,
112.75,116.0,41,0.0,Stimuli/Blank.png,0,0.0,0.0,0,49,49,49,,,,,,,,,,,,,112.7684964,0.018496400000003632,None,146.01963570000044,146.01963570000044,146.01963570000044,146.01963570000044,146.01963570000044,146.01963570000044,146.01963570000044,146.01963570000044,146.01963570000044,146.01963570000044,,007,P019,2025_Mar_21_1040,ConditionRich,2021.2.3,59.9423354729436,
116.0,116.75,38,0.75,Stimuli/P019/things_turtle_10n.jpg,0,0.0,0.0,0,50,50,50,,,,,,,,,,,,,116.01782180000009,0.01782180000009248,None,149.2558594000002,149.2558594000002,149.2558594000002,149.2558594000002,149.2558594000002,149.2558594000002,149.2558594000002,149.2558594000002,149.2558594000002,149.2558594000002,,007,P019,2025_Mar_21_1040,ConditionRich,2021.2.3,59.9423354729436,
116.75,120.0,41,0.0,Stimuli/Blank.png,0,0.0,0.0,0,51,51,51,,,,,,,,,,,,,116.7522841000009,0.0022841000009066192,None,149.9898143999999,149.9898143999999,149.9898143999999,149.9898143999999,149.9898143999999,149.9898143999999,149.9898143999999,149.9898143999999,149.9898143999999,149.9898143999999,,007,P019,2025_Mar_21_1040,ConditionRich,2021.2.3,59.9423354729436,
120.0,120.75,27,0.75,Stimuli/P019/things_eel_10s.jpg,0,0.0,0.0,0,52,52,52,,,,,,,,,,,,,120.00484180000058,0.004841800000576768,None,153.24276029999965,153.24276029999965,153.24276029999965,153.24276029999965,153.24276029999965,153.24276029999965,153.24276029999965,153.24276029999965,153.24276029999965,153.24276029999965,,007,P019,2025_Mar_21_1040,ConditionRich,2021.2.3,59.9423354729436,
120.75,124.0,41,0.0,Stimuli/Blank.png,0,0.0,0.0,0,53,53,53,,,,,,,,,,,,,120.75674400000025,0.006744000000253436,None,154.01009990000057,154.01009990000057,154.01009990000057,154.01009990000057,154.01009990000057,154.01009990000057,154.01009990000057,154.01009990000057,154.01009990000057,154.01009990000057,,007,P019,2025_Mar_21_1040,ConditionRich,2021.2.3,59.9423354729436,
124.0,124.75,14,0.75,Stimuli/P019/sun_birvagufpcschyrr.jpg,0,0.0,0.0,0,54,54,54,,,,,,,,,,,,,124.02555539999958,0.025555399999575457,None,157.2629242999992,157.2629242999992,157.2629242999992,157.2629242999992,157.2629242999992,157.2629242999992,157.2629242999992,157.2629242999992,157.2629242999992,157.2629242999992,,007,P019,2025_Mar_21_1040,ConditionRich,2021.2.3,59.9423354729436,
124.75,128.0,41,0.0,Stimuli/Blank.png,0,0.0,0.0,0,55,55,55,,,,,,,,,,,,,124.75889169999937,0.00889169999936712,None,157.99699669999973,157.99699669999973,157.99699669999973,157.99699669999973,157.99699669999973,157.99699669999973,157.99699669999973,157.99699669999973,157.99699669999973,157.99699669999973,,007,P019,2025_Mar_21_1040,ConditionRich,2021.2.3,59.9423354729436,
128.0,128.75,40,0.75,Stimuli/P019/things_woman_10s.jpg,0,0.0,0.0,0,56,56,56,,,,,,,,,,,,,128.01335440000003,0.013354400000025635,None,161.24978589999955,161.24978589999955,161.24978589999955,161.24978589999955,161.24978589999955,161.24978589999955,161.24978589999955,161.24978589999955,161.24978589999955,161.24978589999955,,007,P019,2025_Mar_21_1040,ConditionRich,2021.2.3,59.9423354729436,
128.75,132.0,41,0.0,Stimuli/Blank.png,0,0.0,0.0,0,57,57,57,,,,,,,,,,,,,128.7630750999997,0.01307509999969625,None,162.00044639999942,162.00044639999942,162.00044639999942,162.00044639999942,162.00044639999942,162.00044639999942,162.00044639999942,162.00044639999942,162.00044639999942,162.00044639999942,,007,P019,2025_Mar_21_1040,ConditionRich,2021.2.3,59.9423354729436,
132.0,132.75,9,0.75,Stimuli/P019/sun_bbfmuujfvpiaqdww.jpg,0,0.0,0.0,0,58,58,58,,,,,,,,,,,,,131.99848680000105,-0.001513199998953496,None,165.23664669999926,165.23664669999926,165.23664669999926,165.23664669999926,165.23664669999926,165.23664669999926,165.23664669999926,165.23664669999926,165.23664669999926,165.23664669999926,,007,P019,2025_Mar_21_1040,ConditionRich,2021.2.3,59.9423354729436,
132.75,136.0,41,0.0,Stimuli/Blank.png,0,0.0,0.0,0,59,59,59,,,,,,,,,,,,,132.75174630000038,0.0017463000003772322,None,166.00399749999997,166.00399749999997,166.00399749999997,166.00399749999997,166.00399749999997,166.00399749999997,166.00399749999997,166.00399749999997,166.00399749999997,166.00399749999997,,007,P019,2025_Mar_21_1040,ConditionRich,2021.2.3,59.9423354729436,
136.0,136.75,35,0.75,Stimuli/P019/things_pretzel_10s.jpg,0,0.0,0.0,0,60,60,60,,,,,,,,,,,,,136.0187060999997,0.018706099999690196,None,169.2568506000007,169.2568506000007,169.2568506000007,169.2568506000007,169.2568506000007,169.2568506000007,169.2568506000007,169.2568506000007,169.2568506000007,169.2568506000007,,007,P019,2025_Mar_21_1040,ConditionRich,2021.2.3,59.9423354729436,
136.75,140.0,41,0.0,Stimuli/Blank.png,0,0.0,0.0,0,61,61,61,,,,,,,,,,,,,136.75337840000066,0.0033784000006562565,None,169.9908357000004,169.9908357000004,169.9908357000004,169.9908357000004,169.9908357000004,169.9908357000004,169.9908357000004,169.9908357000004,169.9908357000004,169.9908357000004,,007,P019,2025_Mar_21_1040,ConditionRich,2021.2.3,59.9423354729436,
140.0,140.75,31,0.75,Stimuli/P019/things_fudge_10s.jpg,0,0.0,0.0,0,62,62,62,,,,,,,,,,,,,140.00621110000066,0.0062111000006552786,None,173.24372260000018,173.24372260000018,173.24372260000018,173.24372260000018,173.24372260000018,173.24372260000018,173.24372260000018,173.24372260000018,173.24372260000018,173.24372260000018,,007,P019,2025_Mar_21_1040,ConditionRich,2021.2.3,59.9423354729436,
140.75,144.0,41,0.0,Stimuli/Blank.png,1,0.25,1.0,0,63,63,63,,,,,,,,,,,,,140.75642100000005,0.006421000000045751,1,173.99437260000013,173.99437260000013,173.99437260000013,173.99437260000013,173.99437260000013,173.99437260000013,174.22795120000046,174.97857680000016,173.99437260000013,173.99437260000013,0.7133125999989716,007,P019,2025_Mar_21_1040,ConditionRich,2021.2.3,59.9423354729436,
144.0,144.75,20,0.75,Stimuli/P019/sun_dlnwonqxagdvtlta.jpg,0,0.0,0.0,0,64,64,64,,,,,,,,,,,,,144.01204540000072,0.012045400000715745,None,177.26393850000022,177.26393850000022,177.26393850000022,177.26393850000022,177.26393850000022,177.26393850000022,177.26393850000022,177.26393850000022,177.26393850000022,177.26393850000022,,007,P019,2025_Mar_21_1040,ConditionRich,2021.2.3,59.9423354729436,
144.75,148.0,41,0.0,Stimuli/Blank.png,0,0.0,0.0,0,65,65,65,,,,,,,,,,,,,144.77743850000115,0.027438500001153443,None,178.01459409999916,178.01459409999916,178.01459409999916,178.01459409999916,178.01459409999916,178.01459409999916,178.01459409999916,178.01459409999916,178.01459409999916,178.01459409999916,,007,P019,2025_Mar_21_1040,ConditionRich,2021.2.3,59.9423354729436,
148.0,148.75,4,0.75,Stimuli/P019/sun_amixpbnrxiulfsri.jpg,0,0.0,0.0,0,66,66,66,,,,,,,,,,,,,148.01292190000095,0.012921900000947062,None,181.25077760000022,181.25077760000022,181.25077760000022,181.25077760000022,181.25077760000022,181.25077760000022,181.25077760000022,181.25077760000022,181.25077760000022,181.25077760000022,,007,P019,2025_Mar_21_1040,ConditionRich,2021.2.3,59.9423354729436,
148.75,152.0,41,0.0,Stimuli/Blank.png,0,0.0,0.0,0,67,67,67,,,,,,,,,,,,,148.7638361999998,0.013836199999786913,None,182.01818679999997,182.01818679999997,182.01818679999997,182.01818679999997,182.01818679999997,182.01818679999997,182.01818679999997,182.01818679999997,182.01818679999997,182.01818679999997,,007,P019,2025_Mar_21_1040,ConditionRich,2021.2.3,59.9423354729436,
152.0,152.75,8,0.75,Stimuli/P019/sun_avbzvunekksfggon.jpg,0,0.0,0.0,0,68,68,68,,,,,,,,,,,,,152.01641999999993,0.016419999999925494,None,185.25432530000035,185.25432530000035,185.25432530000035,185.25432530000035,185.25432530000035,185.25432530000035,185.25432530000035,185.25432530000035,185.25432530000035,185.25432530000035,,007,P019,2025_Mar_21_1040,ConditionRich,2021.2.3,59.9423354729436,
152.75,156.0,41,0.0,Stimuli/Blank.png,0,0.0,0.0,0,69,69,69,,,,,,,,,,,,,152.75100440000097,0.0010044000009656884,None,185.98830760000055,185.98830760000055,185.98830760000055,185.98830760000055,185.98830760000055,185.98830760000055,185.98830760000055,185.98830760000055,185.98830760000055,185.98830760000055,,007,P019,2025_Mar_21_1040,ConditionRich,2021.2.3,59.9423354729436,
156.0,156.75,16,0.75,Stimuli/P019/sun_blfpbbfyzmewzplm.jpg,0,0.0,0.0,0,70,70,70,,,,,,,,,,,,,156.00299959999938,0.0029995999993843725,None,189.24117370000022,189.24117370000022,189.24117370000022,189.24117370000022,189.24117370000022,189.24117370000022,189.24117370000022,189.24117370000022,189.24117370000022,189.24117370000022,,007,P019,2025_Mar_21_1040,ConditionRich,2021.2.3,59.9423354729436,
156.75,160.0,41,0.0,Stimuli/Blank.png,1,2.25,3.0,0,71,71,71,,,,,,,,,,,,,156.75370320000002,0.0037032000000181142,1,189.99183839999932,189.99183839999932,189.99183839999932,189.99183839999932,189.99183839999932,189.99183839999932,192.22716179999952,192.9778423000007,189.99183839999932,189.99183839999932,2.7090848999996524,007,P019,2025_Mar_21_1040,ConditionRich,2021.2.3,59.9423354729436,
160.0,160.75,29,0.75,Stimuli/P019/things_flamingo_10s.jpg,1,0.0,0.75,0,72,72,72,,,,,,,,,,,,,160.0068093000009,0.006809300000895746,None,193.24470950000068,193.24470950000068,193.24470950000068,193.24470950000068,193.24470950000068,193.24470950000068,193.24470950000068,193.97869179999907,193.24470950000068,193.24470950000068,,007,P019,2025_Mar_21_1040,ConditionRich,2021.2.3,59.9423354729436,
160.75,164.0,41,0.0,Stimuli/Blank.png,0,0.0,0.0,0,73,73,73,,,,,,,,,,,,,160.75778549999995,0.007785499999954482,None,193.99537000000055,193.99537000000055,193.99537000000055,193.99537000000055,193.99537000000055,193.99537000000055,193.99537000000055,193.99537000000055,193.99537000000055,193.99537000000055,,007,P019,2025_Mar_21_1040,ConditionRich,2021.2.3,59.9423354729436,
164.0,164.75,11,0.75,Stimuli/P019/sun_bcbfjkoziukwmdkd.jpg,0,0.0,0.0,0,74,74,74,,,,,,,,,,,,,164.01098719999936,0.010987199999362929,None,197.24824930000068,197.24824930000068,197.24824930000068,197.24824930000068,197.24824930000068,197.24824930000068,197.24824930000068,197.24824930000068,197.24824930000068,197.24824930000068,,007,P019,2025_Mar_21_1040,ConditionRich,2021.2.3,59.9423354729436,
164.75,168.0,41,0.0,Stimuli/Blank.png,0,0.0,0.0,0,75,75,75,,,,,,,,,,,,,164.76077339999938,0.010773399999379762,None,197.99890609999966,197.99890609999966,197.99890609999966,197.99890609999966,197.99890609999966,197.99890609999966,197.99890609999966,197.99890609999966,197.99890609999966,197.99890609999966,,007,P019,2025_Mar_21_1040,ConditionRich,2021.2.3,59.9423354729436,
168.0,168.75,13,0.75,Stimuli/P019/sun_bhzwrbdycbchqesq.jpg,0,0.0,0.0,0,76,76,76,,,,,,,,,,,,,168.01360410000052,0.013604100000520702,None,201.2517810999998,201.2517810999998,201.2517810999998,201.2517810999998,201.2517810999998,201.2517810999998,201.2517810999998,201.2517810999998,201.2517810999998,201.2517810999998,,007,P019,2025_Mar_21_1040,ConditionRich,2021.2.3,59.9423354729436,
168.75,172.0,41,0.0,Stimuli/Blank.png,0,0.0,0.0,0,77,77,77,,,,,,,,,,,,,168.76688769999964,0.01688769999964279,None,202.01913559999957,202.01913559999957,202.01913559999957,202.01913559999957,202.01913559999957,202.01913559999957,202.01913559999957,202.01913559999957,202.01913559999957,202.01913559999957,,007,P019,2025_Mar_21_1040,ConditionRich,2021.2.3,59.9423354729436,
172.0,172.75,39,0.75,Stimuli/P019/things_wire_10s.jpg,0,0.0,0.0,0,78,78,78,,,,,,,,,,,,,172.01785120000022,0.01785120000022289,None,205.2553312,205.2553312,205.2553312,205.2553312,205.2553312,205.2553312,205.2553312,205.2553312,205.2553312,205.2553312,,007,P019,2025_Mar_21_1040,ConditionRich,2021.2.3,59.9423354729436,
172.75,176.0,41,0.0,Stimuli/Blank.png,1,2.25,3.0,0,79,79,79,,,,,,,,,,,,,172.75300050000078,0.0030005000007804483,1,206.00610430000052,206.00610430000052,206.00610430000052,206.00610430000052,206.00610430000052,206.00610430000052,208.22461020000082,208.97526669999934,206.00610430000052,206.00610430000052,2.604539300000397,007,P019,2025_Mar_21_1040,ConditionRich,2021.2.3,59.9423354729436,
176.0,176.75,30,0.75,Stimuli/P019/things_flip_flop_10s.jpg,0,0.0,0.0,0,80,80,80,,,,,,,,,,,,,176.02149719999943,0.02149719999943045,None,209.25886619999983,209.25886619999983,209.25886619999983,209.25886619999983,209.25886619999983,209.25886619999983,209.25886619999983,209.25886619999983,209.25886619999983,209.25886619999983,,007,P019,2025_Mar_21_1040,ConditionRich,2021.2.3,59.9423354729436,
176.75,180.0,41,0.0,Stimuli/Blank.png,1,0.25,1.0,0,81,81,81,,,,,,,,,,,,,176.7568463000007,0.006846300000688643,1,210.00954049999928,210.00954049999928,210.00954049999928,210.00954049999928,210.00954049999928,210.00954049999928,210.24308869999913,210.9937221,210.00954049999928,210.00954049999928,0.7051303000007465,007,P019,2025_Mar_21_1040,ConditionRich,2021.2.3,59.9423354729436,
180.0,196.0,0,0.0,Stimuli/Blank.png,1,10.0,10.75,0,82,82,82,,,,,,,,,,,,,180.02439969999978,0.024399699999776203,1,213.26240309999957,213.26240309999957,213.26240309999957,213.26240309999957,213.26240309999957,213.26240309999957,223.25455060000058,223.9893104999992,213.26240309999957,213.26240309999957,10.432196300000214,007,P019,2025_Mar_21_1040,ConditionRich,2021.2.3,59.9423354729436,
196.0,196.75,36,0.75,Stimuli/P019/things_sunroof_10s.jpg,0,0.0,0.0,0,83,83,83,,,,,,,,,,,,,196.00791729999946,0.007917299999462557,None,229.25986010000088,229.25986010000088,229.25986010000088,229.25986010000088,229.25986010000088,229.25986010000088,229.25986010000088,229.25986010000088,229.25986010000088,229.25986010000088,,007,P019,2025_Mar_21_1040,ConditionRich,2021.2.3,59.9423354729436,
196.75,200.0,41,0.0,Stimuli/Blank.png,0,0.0,0.0,0,84,84,84,,,,,,,,,,,,,196.77278830000068,0.022788300000684103,None,230.0105165999994,230.0105165999994,230.0105165999994,230.0105165999994,230.0105165999994,230.0105165999994,230.0105165999994,230.0105165999994,230.0105165999994,230.0105165999994,,007,P019,2025_Mar_21_1040,ConditionRich,2021.2.3,59.9423354729436,
200.0,200.75,10,0.75,Stimuli/P019/sun_bblqhrudkospnbbv.jpg,0,0.0,0.0,0,85,85,85,,,,,,,,,,,,,200.00901619999968,0.009016199999678065,None,233.24670949999927,233.24670949999927,233.24670949999927,233.24670949999927,233.24670949999927,233.24670949999927,233.24670949999927,233.24670949999927,233.24670949999927,233.24670949999927,,007,P019,2025_Mar_21_1040,ConditionRich,2021.2.3,59.9423354729436,
200.75,204.0,41,0.0,Stimuli/Blank.png,0,0.0,0.0,0,86,86,86,,,,,,,,,,,,,200.75938570000108,0.009385700001075747,None,233.9973743999999,233.9973743999999,233.9973743999999,233.9973743999999,233.9973743999999,233.9973743999999,233.9973743999999,233.9973743999999,233.9973743999999,233.9973743999999,,007,P019,2025_Mar_21_1040,ConditionRich,2021.2.3,59.9423354729436,
204.0,204.75,4,0.75,Stimuli/P019/sun_amixpbnrxiulfsri.jpg,0,0.0,0.0,0,87,87,87,,,,,,,,,,,,,204.01281410000047,0.012814100000468898,None,237.2502452000008,237.2502452000008,237.2502452000008,237.2502452000008,237.2502452000008,237.2502452000008,237.2502452000008,237.2502452000008,237.2502452000008,237.2502452000008,,007,P019,2025_Mar_21_1040,ConditionRich,2021.2.3,59.9423354729436,
204.75,208.0,41,0.0,Stimuli/Blank.png,0,0.0,0.0,0,88,88,88,,,,,,,,,,,,,204.76335140000083,0.013351400000829017,None,238.00091509999947,238.00091509999947,238.00091509999947,238.00091509999947,238.00091509999947,238.00091509999947,238.00091509999947,238.00091509999947,238.00091509999947,238.00091509999947,,007,P019,2025_Mar_21_1040,ConditionRich,2021.2.3,59.9423354729436,
208.0,208.75,6,0.75,Stimuli/P019/sun_amppcthpabgulbwl.jpg,0,0.0,0.0,0,89,89,89,,,,,,,,,,,,,207.99910230000023,-0.0008976999997685198,None,241.25383900000088,241.25383900000088,241.25383900000088,241.25383900000088,241.25383900000088,241.25383900000088,241.25383900000088,241.25383900000088,241.25383900000088,241.25383900000088,,007,P019,2025_Mar_21_1040,ConditionRich,2021.2.3,59.9423354729436,
208.75,212.0,41,0.0,Stimuli/Blank.png,0,0.0,0.0,0,90,90,90,,,,,,,,,,,,,208.7669418000005,0.016941800000495277,None,242.0045071000004,242.0045071000004,242.0045071000004,242.0045071000004,242.0045071000004,242.0045071000004,242.0045071000004,242.0045071000004,242.0045071000004,242.0045071000004,,007,P019,2025_Mar_21_1040,ConditionRich,2021.2.3,59.9423354729436,
212.0,212.75,5,0.75,Stimuli/P019/sun_amjqxnqvhovkotym.jpg,0,0.0,0.0,0,91,91,91,,,,,,,,,,,,,212.00338329999977,0.0033832999997684965,None,245.24063419999948,245.24063419999948,245.24063419999948,245.24063419999948,245.24063419999948,245.24063419999948,245.24063419999948,245.24063419999948,245.24063419999948,245.24063419999948,,007,P019,2025_Mar_21_1040,ConditionRich,2021.2.3,59.9423354729436,
212.75,216.0,41,0.0,Stimuli/Blank.png,0,0.0,0.0,0,92,92,92,,,,,,,,,,,,,212.75313079999978,0.00313079999978072,None,245.99130279999918,245.99130279999918,245.99130279999918,245.99130279999918,245.99130279999918,245.99130279999918,245.99130279999918,245.99130279999918,245.99130279999918,245.99130279999918,,007,P019,2025_Mar_21_1040,ConditionRich,2021.2.3,59.9423354729436,
216.0,216.75,16,0.75,Stimuli/P019/sun_blfpbbfyzmewzplm.jpg,0,0.0,0.0,0,93,93,93,,,,,,,,,,,,,216.00727689999985,0.007276899999851594,None,249.26086319999922,249.26086319999922,249.26086319999922,249.26086319999922,249.26086319999922,249.26086319999922,249.26086319999922,249.26086319999922,249.26086319999922,249.26086319999922,,007,P019,2025_Mar_21_1040,ConditionRich,2021.2.3,59.9423354729436,
216.75,220.0,41,0.0,Stimuli/Blank.png,0,0.0,0.0,0,94,94,94,,,,,,,,,,,,,216.77350620000107,0.023506200001065736,None,250.01151670000036,250.01151670000036,250.01151670000036,250.01151670000036,250.01151670000036,250.01151670000036,250.01151670000036,250.01151670000036,250.01151670000036,250.01151670000036,,007,P019,2025_Mar_21_1040,ConditionRich,2021.2.3,59.9423354729436,
220.0,220.75,3,0.75,Stimuli/P019/sun_aknrkswonrogcooi.jpg,0,0.0,0.0,0,95,95,95,,,,,,,,,,,,,220.01321800000005,0.013218000000051688,None,253.26443669999935,253.26443669999935,253.26443669999935,253.26443669999935,253.26443669999935,253.26443669999935,253.26443669999935,253.26443669999935,253.26443669999935,253.26443669999935,,007,P019,2025_Mar_21_1040,ConditionRich,2021.2.3,59.9423354729436,
220.75,224.0,41,0.0,Stimuli/Blank.png,0,0.0,0.0,0,96,96,96,,,,,,,,,,,,,220.77733629999966,0.027336299999660696,None,254.01505670000006,254.01505670000006,254.01505670000006,254.01505670000006,254.01505670000006,254.01505670000006,254.01505670000006,254.01505670000006,254.01505670000006,254.01505670000006,,007,P019,2025_Mar_21_1040,ConditionRich,2021.2.3,59.9423354729436,
224.0,224.75,39,0.75,Stimuli/P019/things_wire_10s.jpg,0,0.0,0.0,0,97,97,97,,,,,,,,,,,,,224.01325709999946,0.013257099999464117,None,257.2512478999997,257.2512478999997,257.2512478999997,257.2512478999997,257.2512478999997,257.2512478999997,257.2512478999997,257.2512478999997,257.2512478999997,257.2512478999997,,007,P019,2025_Mar_21_1040,ConditionRich,2021.2.3,59.9423354729436,
224.75,228.0,41,0.0,Stimuli/Blank.png,1,2.25,3.0,0,98,98,98,,,,,,,,,,,,,224.76380600000084,0.013806000000840868,1,258.00191669999913,258.00191669999913,258.00191669999913,258.00191669999913,258.00191669999913,258.00191669999913,260.2373924000003,260.98793529999966,258.00191669999913,258.00191669999913,2.818776000000071,007,P019,2025_Mar_21_1040,ConditionRich,2021.2.3,59.9423354729436,
228.0,228.75,18,0.75,Stimuli/P019/sun_bodjbrgwzlshgypq.jpg,0,0.0,0.0,0,99,99,99,,,,,,,,,,,,,228.00217130000055,0.0021713000005547656,None,261.2547876000008,261.2547876000008,261.2547876000008,261.2547876000008,261.2547876000008,261.2547876000008,261.2547876000008,261.2547876000008,261.2547876000008,261.2547876000008,,007,P019,2025_Mar_21_1040,ConditionRich,2021.2.3,59.9423354729436,
228.75,232.0,41,0.0,Stimuli/Blank.png,0,0.0,0.0,0,100,100,100,,,,,,,,,,,,,228.76811559999987,0.018115599999873666,None,262.00544380000065,262.00544380000065,262.00544380000065,262.00544380000065,262.00544380000065,262.00544380000065,262.00544380000065,262.00544380000065,262.00544380000065,262.00544380000065,,007,P019,2025_Mar_21_1040,ConditionRich,2021.2.3,59.9423354729436,
232.0,232.75,33,0.75,Stimuli/P019/things_insole_10s.jpg,0,0.0,0.0,0,101,101,101,,,,,,,,,,,,,232.00388179999936,0.0038817999993625563,None,265.25835460000053,265.25835460000053,265.25835460000053,265.25835460000053,265.25835460000053,265.25835460000053,265.25835460000053,265.25835460000053,265.25835460000053,265.25835460000053,,007,P019,2025_Mar_21_1040,ConditionRich,2021.2.3,59.9423354729436,
232.75,236.0,41,0.0,Stimuli/Blank.png,1,2.25,3.0,0,102,102,102,,,,,,,,,,,,,232.7716137999996,0.021613799999613548,1,266.0089871,266.0089871,266.0089871,266.0089871,266.0089871,266.0089871,268.2442936000007,268.9949930999992,266.0089871,266.0089871,2.657920400000876,007,P019,2025_Mar_21_1040,ConditionRich,2021.2.3,59.9423354729436,
236.0,236.75,1,0.75,Stimuli/P019/sun_aaaidwecchadbake.jpg,0,0.0,0.0,0,103,103,103,,,,,,,,,,,,,236.00795990000006,0.00795990000005986,None,269.26186210000014,269.26186210000014,269.26186210000014,269.26186210000014,269.26186210000014,269.26186210000014,269.26186210000014,269.26186210000014,269.26186210000014,269.26186210000014,,007,P019,2025_Mar_21_1040,ConditionRich,2021.2.3,59.9423354729436,
236.75,240.0,41,0.0,Stimuli/Blank.png,0,0.0,0.0,0,104,104,104,,,,,,,,,,,,,236.776512800001,0.02651280000100087,None,270.0292117000008,270.0292117000008,270.0292117000008,270.0292117000008,270.0292117000008,270.0292117000008,270.0292117000008,270.0292117000008,270.0292117000008,270.0292117000008,,007,P019,2025_Mar_21_1040,ConditionRich,2021.2.3,59.9423354729436,
240.0,240.75,40,0.75,Stimuli/P019/things_woman_10s.jpg,0,0.0,0.0,0,105,105,105,,,,,,,,,,,,,240.02723479999986,0.027234799999860115,None,273.2653962000004,273.2653962000004,273.2653962000004,273.2653962000004,273.2653962000004,273.2653962000004,273.2653962000004,273.2653962000004,273.2653962000004,273.2653962000004,,007,P019,2025_Mar_21_1040,ConditionRich,2021.2.3,59.9423354729436,
240.75,244.0,41,0.0,Stimuli/Blank.png,0,0.0,0.0,0,106,106,106,,,,,,,,,,,,,240.76248010000018,0.012480100000175298,None,273.9993749000005,273.9993749000005,273.9993749000005,273.9993749000005,273.9993749000005,273.9993749000005,273.9993749000005,273.9993749000005,273.9993749000005,273.9993749000005,,007,P019,2025_Mar_21_1040,ConditionRich,2021.2.3,59.9423354729436,
244.0,244.75,13,0.75,Stimuli/P019/sun_bhzwrbdycbchqesq.jpg,0,0.0,0.0,0,107,107,107,,,,,,,,,,,,,244.01683299999968,0.016832999999678577,None,277.2688997999994,277.2688997999994,277.2688997999994,277.2688997999994,277.2688997999994,277.2688997999994,277.2688997999994,277.2688997999994,277.2688997999994,277.2688997999994,,007,P019,2025_Mar_21_1040,ConditionRich,2021.2.3,59.9423354729436,
244.75,248.0,41,0.0,Stimuli/Blank.png,1,0.25,1.0,0,108,108,108,,,,,,,,,,,,,244.76678790000005,0.016787900000053924,1,278.0196065,278.0196065,278.0196065,278.0196065,278.0196065,278.0196065,278.2541270999991,279.0037964000003,278.0196065,278.0196065,0.6359455000001617,007,P019,2025_Mar_21_1040,ConditionRich,2021.2.3,59.9423354729436,
248.0,248.75,17,0.75,Stimuli/P019/sun_bltxkcclrpweopkl.jpg,0,0.0,0.0,0,109,109,109,,,,,,,,,,,,,248.01769559999957,0.017695599999569822,None,281.2557815,281.2557815,281.2557815,281.2557815,281.2557815,281.2557815,281.2557815,281.2557815,281.2557815,281.2557815,,007,P019,2025_Mar_21_1040,ConditionRich,2021.2.3,59.9423354729436,
248.75,252.0,41,0.0,Stimuli/Blank.png,0,0.0,0.0,0,110,110,110,,,,,,,,,,,,,248.75283570000101,0.0028357000010146294,None,282.00647220000064,282.00647220000064,282.00647220000064,282.00647220000064,282.00647220000064,282.00647220000064,282.00647220000064,282.00647220000064,282.00647220000064,282.00647220000064,,007,P019,2025_Mar_21_1040,ConditionRich,2021.2.3,59.9423354729436,
252.0,252.75,21,0.75,Stimuli/P019/things_anteater_10s.jpg,1,0.0,0.75,0,111,111,111,,,,,,,,,,,,,252.02176719999989,0.021767199999885634,1,285.2593180999993,285.2593180999993,285.2593180999993,285.2593180999993,285.2593180999993,285.2593180999993,285.2593180999993,None,285.2593180999993,285.2593180999993,0.38037200000144367,007,P019,2025_Mar_21_1040,ConditionRich,2021.2.3,59.9423354729436,
252.75,256.0,41,0.0,Stimuli/Blank.png,0,0.0,0.0,0,112,112,112,,,,,,,,,,,,,252.7577636999995,0.007763699999486562,None,286.0100387000002,286.0100387000002,286.0100387000002,286.0100387000002,286.0100387000002,286.0100387000002,286.0100387000002,286.0100387000002,286.0100387000002,286.0100387000002,,007,P019,2025_Mar_21_1040,ConditionRich,2021.2.3,59.9423354729436,
256.0,256.75,11,0.75,Stimuli/P019/sun_bcbfjkoziukwmdkd.jpg,0,0.0,0.0,0,113,113,113,,,,,,,,,,,,,256.02554260000034,0.02554260000033537,None,289.26286040000014,289.26286040000014,289.26286040000014,289.26286040000014,289.26286040000014,289.26286040000014,289.26286040000014,289.26286040000014,289.26286040000014,289.26286040000014,,007,P019,2025_Mar_21_1040,ConditionRich,2021.2.3,59.9423354729436,
256.75,260.0,41,0.0,Stimuli/Blank.png,0,0.0,0.0,0,114,114,114,,,,,,,,,,,,,256.7618917,0.0118916999999783,None,290.01353050000034,290.01353050000034,290.01353050000034,290.01353050000034,290.01353050000034,290.01353050000034,290.01353050000034,290.01353050000034,290.01353050000034,290.01353050000034,,007,P019,2025_Mar_21_1040,ConditionRich,2021.2.3,59.9423354729436,
260.0,260.75,22,0.75,Stimuli/P019/things_bead_10s.jpg,1,0.0,0.75,0,115,115,115,,,,,,,,,,,,,260.0284857000006,0.028485700000601355,1,293.2830887,293.2830887,293.2830887,293.2830887,293.2830887,293.2830887,293.2830887,294.00039970000034,293.2830887,293.2830887,0.5174531000011484,007,P019,2025_Mar_21_1040,ConditionRich,2021.2.3,59.9423354729436,
260.75,264.0,41,0.0,Stimuli/Blank.png,0,0.0,0.0,0,116,116,116,,,,,,,,,,,,,260.77975440000046,0.02975440000045637,None,294.01706449999983,294.01706449999983,294.01706449999983,294.01706449999983,294.01706449999983,294.01706449999983,294.01706449999983,294.01706449999983,294.01706449999983,294.01706449999983,,007,P019,2025_Mar_21_1040,ConditionRich,2021.2.3,59.9423354729436,
264.0,264.75,2,0.75,Stimuli/P019/sun_ajhvfwzgpfovdgid.jpg,0,0.0,0.0,0,117,117,117,,,,,,,,,,,,,263.9984201999996,-0.0015798000003997004,None,297.25326999999925,297.25326999999925,297.25326999999925,297.25326999999925,297.25326999999925,297.25326999999925,297.25326999999925,297.25326999999925,297.25326999999925,297.25326999999925,,007,P019,2025_Mar_21_1040,ConditionRich,2021.2.3,59.9423354729436,
264.75,268.0,41,0.0,Stimuli/Blank.png,0,0.0,0.0,0,118,118,118,,,,,,,,,,,,,264.76576829999976,0.015768299999763258,None,298.0039085999997,298.0039085999997,298.0039085999997,298.0039085999997,298.0039085999997,298.0039085999997,298.0039085999997,298.0039085999997,298.0039085999997,298.0039085999997,,007,P019,2025_Mar_21_1040,ConditionRich,2021.2.3,59.9423354729436,
268.0,268.75,30,0.75,Stimuli/P019/things_flip_flop_10s.jpg,0,0.0,0.0,0,119,119,119,,,,,,,,,,,,,268.0023987000004,0.0023987000004126457,None,301.2401188999993,301.2401188999993,301.2401188999993,301.2401188999993,301.2401188999993,301.2401188999993,301.2401188999993,301.2401188999993,301.2401188999993,301.2401188999993,,007,P019,2025_Mar_21_1040,ConditionRich,2021.2.3,59.9423354729436,
268.75,272.0,41,0.0,Stimuli/Blank.png,0,0.0,0.0,0,120,120,120,,,,,,,,,,,,,268.75285690000055,0.002856900000551832,None,301.99077059999945,301.99077059999945,301.99077059999945,301.99077059999945,301.99077059999945,301.99077059999945,301.99077059999945,301.99077059999945,301.99077059999945,301.99077059999945,,007,P019,2025_Mar_21_1040,ConditionRich,2021.2.3,59.9423354729436,
272.0,272.75,32,0.75,Stimuli/P019/things_girl_10s.jpg,0,0.0,0.0,0,121,121,121,,,,,,,,,,,,,272.0068494999996,0.00684949999958917,None,305.26034939999954,305.26034939999954,305.26034939999954,305.26034939999954,305.26034939999954,305.26034939999954,305.26034939999954,305.26034939999954,305.26034939999954,305.26034939999954,,007,P019,2025_Mar_21_1040,ConditionRich,2021.2.3,59.9423354729436,
272.75,276.0,41,0.0,Stimuli/Blank.png,0,0.0,0.0,0,122,122,122,,,,,,,,,,,,,272.7734192000007,0.023419200000716955,None,306.01099240000076,306.01099240000076,306.01099240000076,306.01099240000076,306.01099240000076,306.01099240000076,306.01099240000076,306.01099240000076,306.01099240000076,306.01099240000076,,007,P019,2025_Mar_21_1040,ConditionRich,2021.2.3,59.9423354729436,
276.0,292.0,0,0.0,Stimuli/Blank.png,1,6.0,6.75,0,123,123,123,,,,,,,,,,,,,276.0116168000004,0.011616800000410876,1,309.2638724999997,309.2638724999997,309.2638724999997,309.2638724999997,309.2638724999997,309.2638724999997,315.2524854000003,315.9864636000002,309.2638724999997,309.2638724999997,6.438735499999893,007,P019,2025_Mar_21_1040,ConditionRich,2021.2.3,59.9423354729436,
292.0,292.75,26,0.75,Stimuli/P019/things_earwig_10n.jpg,0,0.0,0.0,0,124,124,124,,,,,,,,,,,,,292.0233986000003,0.02339860000029148,None,325.2613227999991,325.2613227999991,325.2613227999991,325.2613227999991,325.2613227999991,325.2613227999991,325.2613227999991,325.2613227999991,325.2613227999991,325.2613227999991,,007,P019,2025_Mar_21_1040,ConditionRich,2021.2.3,59.9423354729436,
292.75,296.0,41,0.0,Stimuli/Blank.png,0,0.0,0.0,0,125,125,125,,,,,,,,,,,,,292.75743580000017,0.007435800000166637,None,325.9953005999996,325.9953005999996,325.9953005999996,325.9953005999996,325.9953005999996,325.9953005999996,325.9953005999996,325.9953005999996,325.9953005999996,325.9953005999996,,007,P019,2025_Mar_21_1040,ConditionRich,2021.2.3,59.9423354729436,
296.0,296.75,27,0.75,Stimuli/P019/things_eel_10s.jpg,0,0.0,0.0,0,126,126,126,,,,,,,,,,,,,296.0115968000009,0.011596800000916119,None,329.2648802999993,329.2648802999993,329.2648802999993,329.2648802999993,329.2648802999993,329.2648802999993,329.2648802999993,329.2648802999993,329.2648802999993,329.2648802999993,,007,P019,2025_Mar_21_1040,ConditionRich,2021.2.3,59.9423354729436,
296.75,300.0,41,0.0,Stimuli/Blank.png,0,0.0,0.0,0,127,127,127,,,,,,,,,,,,,296.7782963000009,0.028296300000874908,None,330.0156029999998,330.0156029999998,330.0156029999998,330.0156029999998,330.0156029999998,330.0156029999998,330.0156029999998,330.0156029999998,330.0156029999998,330.0156029999998,,007,P019,2025_Mar_21_1040,ConditionRich,2021.2.3,59.9423354729436,
300.0,300.75,25,0.75,Stimuli/P019/things_chime_10s.jpg,0,0.0,0.0,0,128,128,128,,,,,,,,,,,,,300.0139789999994,0.013978999999380903,None,333.2517133000001,333.2517133000001,333.2517133000001,333.2517133000001,333.2517133000001,333.2517133000001,333.2517133000001,333.2517133000001,333.2517133000001,333.2517133000001,,007,P019,2025_Mar_21_1040,ConditionRich,2021.2.3,59.9423354729436,
300.75,304.0,41,0.0,Stimuli/Blank.png,0,0.0,0.0,0,129,129,129,,,,,,,,,,,,,300.76418680000097,0.014186800000970834,None,334.00245370000084,334.00245370000084,334.00245370000084,334.00245370000084,334.00245370000084,334.00245370000084,334.00245370000084,334.00245370000084,334.00245370000084,334.00245370000084,,007,P019,2025_Mar_21_1040,ConditionRich,2021.2.3,59.9423354729436,
304.0,304.75,15,0.75,Stimuli/P019/sun_bkubdnohuakmwcaj.jpg,0,0.0,0.0,0,130,130,130,,,,,,,,,,,,,304.0019360999995,0.001936099999511498,None,337.2552527000007,337.2552527000007,337.2552527000007,337.2552527000007,337.2552527000007,337.2552527000007,337.2552527000007,337.2552527000007,337.2552527000007,337.2552527000007,,007,P019,2025_Mar_21_1040,ConditionRich,2021.2.3,59.9423354729436,
304.75,308.0,41,0.0,Stimuli/Blank.png,0,0.0,0.0,0,131,131,131,,,,,,,,,,,,,304.76787370000056,0.017873700000563986,None,338.0059103000003,338.0059103000003,338.0059103000003,338.0059103000003,338.0059103000003,338.0059103000003,338.0059103000003,338.0059103000003,338.0059103000003,338.0059103000003,,007,P019,2025_Mar_21_1040,ConditionRich,2021.2.3,59.9423354729436,
308.0,308.75,23,0.75,Stimuli/P019/things_boy_10s.jpg,0,0.0,0.0,0,132,132,132,,,,,,,,,,,,,308.0078265000011,0.007826500001101522,None,341.2587882000007,341.2587882000007,341.2587882000007,341.2587882000007,341.2587882000007,341.2587882000007,341.2587882000007,341.2587882000007,341.2587882000007,341.2587882000007,,007,P019,2025_Mar_21_1040,ConditionRich,2021.2.3,59.9423354729436,
308.75,312.0,41,0.0,Stimuli/Blank.png,1,0.25,1.0,0,133,133,133,,,,,,,,,,,,,308.77196709999953,0.021967099999528727,1,342.00945649999994,342.00945649999994,342.00945649999994,342.00945649999994,342.00945649999994,342.00945649999994,342.2430165000005,342.9936483999991,342.00945649999994,342.00945649999994,0.6900898000003508,007,P019,2025_Mar_21_1040,ConditionRich,2021.2.3,59.9423354729436,
312.0,312.75,7,0.75,Stimuli/P019/sun_aqkbfuonyunmyqxb.jpg,0,0.0,0.0,0,134,134,134,,,,,,,,,,,,,312.00775910000084,0.00775910000083968,None,345.24565620000067,345.24565620000067,345.24565620000067,345.24565620000067,345.24565620000067,345.24565620000067,345.24565620000067,345.24565620000067,345.24565620000067,345.24565620000067,,007,P019,2025_Mar_21_1040,ConditionRich,2021.2.3,59.9423354729436,
312.75,316.0,41,0.0,Stimuli/Blank.png,1,2.25,3.0,0,135,135,135,,,,,,,,,,,,,312.7581473000009,0.008147300000928226,1,345.9963057999994,345.9963057999994,345.9963057999994,345.9963057999994,345.9963057999994,345.9963057999994,348.23161660000005,348.9822702999991,345.9963057999994,345.9963057999994,2.6526439000008395,007,P019,2025_Mar_21_1040,ConditionRich,2021.2.3,59.9423354729436,
316.0,316.75,29,0.75,Stimuli/P019/things_flamingo_10s.jpg,0,0.0,0.0,0,136,136,136,,,,,,,,,,,,,316.0116828000009,0.011682800000926363,None,349.2491718000001,349.2491718000001,349.2491718000001,349.2491718000001,349.2491718000001,349.2491718000001,349.2491718000001,349.2491718000001,349.2491718000001,349.2491718000001,,007,P019,2025_Mar_21_1040,ConditionRich,2021.2.3,59.9423354729436,
316.75,320.0,41,0.0,Stimuli/Blank.png,0,0.0,0.0,0,137,137,137,,,,,,,,,,,,,316.76209870000093,0.012098700000933604,None,349.9998465999997,349.9998465999997,349.9998465999997,349.9998465999997,349.9998465999997,349.9998465999997,349.9998465999997,349.9998465999997,349.9998465999997,349.9998465999997,,007,P019,2025_Mar_21_1040,ConditionRich,2021.2.3,59.9423354729436,
320.0,320.75,34,0.75,Stimuli/P019/things_man_10s.jpg,0,0.0,0.0,0,138,138,138,,,,,,,,,,,,,320.01801010000054,0.018010100000537932,None,353.2693696999995,353.2693696999995,353.2693696999995,353.2693696999995,353.2693696999995,353.2693696999995,353.2693696999995,353.2693696999995,353.2693696999995,353.2693696999995,,007,P019,2025_Mar_21_1040,ConditionRich,2021.2.3,59.9423354729436,
320.75,324.0,41,0.0,Stimuli/Blank.png,0,0.0,0.0,0,139,139,139,,,,,,,,,,,,,320.76540620000014,0.015406200000143144,None,354.0033739999999,354.0033739999999,354.0033739999999,354.0033739999999,354.0033739999999,354.0033739999999,354.0033739999999,354.0033739999999,354.0033739999999,354.0033739999999,,007,P019,2025_Mar_21_1040,ConditionRich,2021.2.3,59.9423354729436,
324.0,324.75,12,0.75,Stimuli/P019/sun_bgjrtiivbwugxhxp.jpg,0,0.0,0.0,0,140,140,140,,,,,,,,,,,,,324.0017812999995,0.0017812999994930578,None,357.2395603999994,357.2395603999994,357.2395603999994,357.2395603999994,357.2395603999994,357.2395603999994,357.2395603999994,357.2395603999994,357.2395603999994,357.2395603999994,,007,P019,2025_Mar_21_1040,ConditionRich,2021.2.3,59.9423354729436,
324.75,328.0,41,0.0,Stimuli/Blank.png,0,0.0,0.0,0,141,141,141,,,,,,,,,,,,,324.75287370000115,0.0028737000011460623,None,357.99022689999947,357.99022689999947,357.99022689999947,357.99022689999947,357.99022689999947,357.99022689999947,357.99022689999947,357.99022689999947,357.99022689999947,357.99022689999947,,007,P019,2025_Mar_21_1040,ConditionRich,2021.2.3,59.9423354729436,
328.0,328.75,19,0.75,Stimuli/P019/sun_byssdezaaqnthppd.jpg,0,0.0,0.0,0,142,142,142,,,,,,,,,,,,,328.007223300001,0.007223300000987365,None,361.25978790000045,361.25978790000045,361.25978790000045,361.25978790000045,361.25978790000045,361.25978790000045,361.25978790000045,361.25978790000045,361.25978790000045,361.25978790000045,,007,P019,2025_Mar_21_1040,ConditionRich,2021.2.3,59.9423354729436,
328.75,332.0,41,0.0,Stimuli/Blank.png,0,0.0,0.0,0,143,143,143,,,,,,,,,,,,,328.7725016000004,0.022501600000396138,None,362.01044189999993,362.01044189999993,362.01044189999993,362.01044189999993,362.01044189999993,362.01044189999993,362.01044189999993,362.01044189999993,362.01044189999993,362.01044189999993,,007,P019,2025_Mar_21_1040,ConditionRich,2021.2.3,59.9423354729436,
332.0,332.75,28,0.75,Stimuli/P019/things_face_10s.jpg,0,0.0,0.0,0,144,144,144,,,,,,,,,,,,,332.0085565999998,0.008556599999792525,None,365.2633253999993,365.2633253999993,365.2633253999993,365.2633253999993,365.2633253999993,365.2633253999993,365.2633253999993,365.2633253999993,365.2633253999993,365.2633253999993,,007,P019,2025_Mar_21_1040,ConditionRich,2021.2.3,59.9423354729436,
332.75,336.0,41,0.0,Stimuli/Blank.png,0,0.0,0.0,0,145,145,145,,,,,,,,,,,,,332.7772291000001,0.02722910000011325,None,366.01399950000086,366.01399950000086,366.01399950000086,366.01399950000086,366.01399950000086,366.01399950000086,366.01399950000086,366.01399950000086,366.01399950000086,366.01399950000086,,007,P019,2025_Mar_21_1040,ConditionRich,2021.2.3,59.9423354729436,
336.0,336.75,31,0.75,Stimuli/P019/things_fudge_10s.jpg,0,0.0,0.0,0,146,146,146,,,,,,,,,,,,,336.01241590000063,0.012415900000632973,None,369.2669292999999,369.2669292999999,369.2669292999999,369.2669292999999,369.2669292999999,369.2669292999999,369.2669292999999,369.2669292999999,369.2669292999999,369.2669292999999,,007,P019,2025_Mar_21_1040,ConditionRich,2021.2.3,59.9423354729436,
336.75,340.0,41,0.0,Stimuli/Blank.png,0,0.0,0.0,0,147,147,147,,,,,,,,,,,,,336.78154970000105,0.03154970000105095,None,370.0342113000006,370.0342113000006,370.0342113000006,370.0342113000006,370.0342113000006,370.0342113000006,370.0342113000006,370.0342113000006,370.0342113000006,370.0342113000006,,007,P019,2025_Mar_21_1040,ConditionRich,2021.2.3,59.9423354729436,
340.0,340.75,14,0.75,Stimuli/P019/sun_birvagufpcschyrr.jpg,0,0.0,0.0,0,148,148,148,,,,,,,,,,,,,340.01626059999944,0.016260599999441183,None,373.2704228999992,373.2704228999992,373.2704228999992,373.2704228999992,373.2704228999992,373.2704228999992,373.2704228999992,373.2704228999992,373.2704228999992,373.2704228999992,,007,P019,2025_Mar_21_1040,ConditionRich,2021.2.3,59.9423354729436,
340.75,344.0,41,0.0,Stimuli/Blank.png,0,0.0,0.0,0,149,149,149,,,,,,,,,,,,,340.7663745000009,0.016374500000893022,None,374.00437729999976,374.00437729999976,374.00437729999976,374.00437729999976,374.00437729999976,374.00437729999976,374.00437729999976,374.00437729999976,374.00437729999976,374.00437729999976,,007,P019,2025_Mar_21_1040,ConditionRich,2021.2.3,59.9423354729436,
344.0,344.75,35,0.75,Stimuli/P019/things_pretzel_10s.jpg,0,0.0,0.0,0,150,150,150,,,,,,,,,,,,,344.00247500000114,0.00247500000114087,None,377.2405670999997,377.2405670999997,377.2405670999997,377.2405670999997,377.2405670999997,377.2405670999997,377.2405670999997,377.2405670999997,377.2405670999997,377.2405670999997,,007,P019,2025_Mar_21_1040,ConditionRich,2021.2.3,59.9423354729436,
344.75,348.0,41,0.0,Stimuli/Blank.png,0,0.0,0.0,0,151,151,151,,,,,,,,,,,,,344.7537897000002,0.0037897000001976267,None,377.9912227999994,377.9912227999994,377.9912227999994,377.9912227999994,377.9912227999994,377.9912227999994,377.9912227999994,377.9912227999994,377.9912227999994,377.9912227999994,,007,P019,2025_Mar_21_1040,ConditionRich,2021.2.3,59.9423354729436,
348.0,348.75,20,0.75,Stimuli/P019/sun_dlnwonqxagdvtlta.jpg,0,0.0,0.0,0,152,152,152,,,,,,,,,,,,,348.0082244000005,0.008224400000472087,None,381.26078810000035,381.26078810000035,381.26078810000035,381.26078810000035,381.26078810000035,381.26078810000035,381.26078810000035,381.26078810000035,381.26078810000035,381.26078810000035,,007,P019,2025_Mar_21_1040,ConditionRich,2021.2.3,59.9423354729436,
348.75,352.0,41,0.0,Stimuli/Blank.png,1,0.25,1.0,0,153,153,153,,,,,,,,,,,,,348.77340580000055,0.02340580000054615,1,382.0114544999997,382.0114544999997,382.0114544999997,382.0114544999997,382.0114544999997,382.0114544999997,382.24498010000025,382.9956418999991,382.0114544999997,382.0114544999997,0.7383874000006472,007,P019,2025_Mar_21_1040,ConditionRich,2021.2.3,59.9423354729436,
352.0,352.75,38,0.75,Stimuli/P019/things_turtle_10n.jpg,0,0.0,0.0,0,154,154,154,,,,,,,,,,,,,352.0111687999997,0.011168799999722978,None,385.26432869999917,385.26432869999917,385.26432869999917,385.26432869999917,385.26432869999917,385.26432869999917,385.26432869999917,385.26432869999917,385.26432869999917,385.26432869999917,,007,P019,2025_Mar_21_1040,ConditionRich,2021.2.3,59.9423354729436,
352.75,356.0,41,0.0,Stimuli/Blank.png,0,0.0,0.0,0,155,155,155,,,,,,,,,,,,,352.7773582000009,0.027358200000890065,None,386.01498119999997,386.01498119999997,386.01498119999997,386.01498119999997,386.01498119999997,386.01498119999997,386.01498119999997,386.01498119999997,386.01498119999997,386.01498119999997,,007,P019,2025_Mar_21_1040,ConditionRich,2021.2.3,59.9423354729436,
356.0,356.75,8,0.75,Stimuli/P019/sun_avbzvunekksfggon.jpg,1,0.0,0.75,0,156,156,156,,,,,,,,,,,,,356.01408000000083,0.014080000000831205,1,389.2678572999994,389.2678572999994,389.2678572999994,389.2678572999994,389.2678572999994,389.2678572999994,389.2678572999994,389.9851557999991,389.2678572999994,389.2678572999994,0.5127355000004172,007,P019,2025_Mar_21_1040,ConditionRich,2021.2.3,59.9423354729436,
356.75,360.0,41,0.0,Stimuli/Blank.png,0,0.0,0.0,0,157,157,157,,,,,,,,,,,,,356.78131510000094,0.0313151000009384,None,390.01852189999954,390.01852189999954,390.01852189999954,390.01852189999954,390.01852189999954,390.01852189999954,390.01852189999954,390.01852189999954,390.01852189999954,390.01852189999954,,007,P019,2025_Mar_21_1040,ConditionRich,2021.2.3,59.9423354729436,
360.0,360.75,24,0.75,Stimuli/P019/things_bulletin_board_10s.jpg,0,0.0,0.0,0,158,158,158,,,,,,,,,,,,,360.0029013000003,0.0029013000003033085,None,393.25470329999916,393.25470329999916,393.25470329999916,393.25470329999916,393.25470329999916,393.25470329999916,393.25470329999916,393.25470329999916,393.25470329999916,393.25470329999916,,007,P019,2025_Mar_21_1040,ConditionRich,2021.2.3,59.9423354729436,
360.75,364.0,41,0.0,Stimuli/Blank.png,0,0.0,0.0,0,159,159,159,,,,,,,,,,,,,360.7672375000002,0.017237500000192085,None,394.00537749999967,394.00537749999967,394.00537749999967,394.00537749999967,394.00537749999967,394.00537749999967,394.00537749999967,394.00537749999967,394.00537749999967,394.00537749999967,,007,P019,2025_Mar_21_1040,ConditionRich,2021.2.3,59.9423354729436,
364.0,364.75,37,0.75,Stimuli/P019/things_toaster_10s.jpg,0,0.0,0.0,0,160,160,160,,,,,,,,,,,,,364.00358530000085,0.0035853000008501112,None,397.2415645000001,397.2415645000001,397.2415645000001,397.2415645000001,397.2415645000001,397.2415645000001,397.2415645000001,397.2415645000001,397.2415645000001,397.2415645000001,,007,P019,2025_Mar_21_1040,ConditionRich,2021.2.3,59.9423354729436,
364.75,368.0,41,0.0,Stimuli/Blank.png,0,0.0,0.0,0,161,161,161,,,,,,,,,,,,,364.7548258000006,0.004825800000617164,None,397.99223899999924,397.99223899999924,397.99223899999924,397.99223899999924,397.99223899999924,397.99223899999924,397.99223899999924,397.99223899999924,397.99223899999924,397.99223899999924,,007,P019,2025_Mar_21_1040,ConditionRich,2021.2.3,59.9423354729436,
368.0,368.75,9,0.75,Stimuli/P019/sun_bbfmuujfvpiaqdww.jpg,0,0.0,0.0,0,162,162,162,,,,,,,,,,,,,368.00777800000105,0.007778000001053442,None,401.24510069999997,401.24510069999997,401.24510069999997,401.24510069999997,401.24510069999997,401.24510069999997,401.24510069999997,401.24510069999997,401.24510069999997,401.24510069999997,,007,P019,2025_Mar_21_1040,ConditionRich,2021.2.3,59.9423354729436,
368.75,372.0,41,0.0,Stimuli/Blank.png,0,0.0,0.0,0,163,163,163,,,,,,,,,,,,,368.7576081999996,0.0076081999995949445,None,401.9957415000008,401.9957415000008,401.9957415000008,401.9957415000008,401.9957415000008,401.9957415000008,401.9957415000008,401.9957415000008,401.9957415000008,401.9957415000008,,007,P019,2025_Mar_21_1040,ConditionRich,2021.2.3,59.9423354729436,
372.0,388.0,0,0.0,Stimuli/Blank.png,1,11.0,11.75,0,164,164,164,,,,,,,,,,,,,372.01110100000005,0.011101000000053318,1,405.24877559999914,405.24877559999914,405.24877559999914,405.24877559999914,405.24877559999914,405.24877559999914,416.2416852000006,416.9757153999999,405.24877559999914,405.24877559999914,11.488817200000994,007,P019,2025_Mar_21_1040,ConditionRich,2021.2.3,59.9423354729436,
