eventStartTime,eventEndTime,eventCond,imSize,imFile,responseEvent,fixRespStart,fixRespEnd,Events.thisRepN,Events.thisTrialN,Events.thisN,Events.thisIndex,Instructions.started,Instructions.stopped,participantReadyResponse.keys,participantReadyResponse.rt,participantReadyResponse.started,participantReadyResponse.stopped,startWaitforTrigger,triggerResponse.keys,triggerResponse.rt,triggerResponse.started,triggerResponse.stopped,globalTimer,actualStartTime,startTimingDiff,participantResponse.keys,participantResponse.started,participantResponse.stopped,image.started,image.stopped,fixationOutside.started,fixationOutside.stopped,fixationResponse.started,fixationResponse.stopped,fixationInside.started,fixationInside.stopped,participantResponse.rt,session,participant,date,expName,psychopyVersion,frameRate,
,,,,,,,,,,,,10.921540899998945,None,1,2.8510386000016297,10.921540899998945,None,,,,,,,,,,,,,,,,,,,,,008,P019,2025_Mar_21_1047,ConditionRich,2021.2.3,59.93511424489494,
,,,,,,,,,,,,,,,,,,13.775967599998694,5,15.584700299999895,13.788750899999286,None,,,,,,,,,,,,,,,,008,P019,2025_Mar_21_1047,ConditionRich,2021.2.3,59.93511424489494,
0.0,4.0,0,0.0,Stimuli/Blank.png,0,0,0.0,0,0,0,0,,,,,,,,,,,,29.388313599998583,0.03582110000024841,0.03582110000024841,None,29.435940599998503,None,29.435940599998503,None,29.435940599998503,None,29.435940599998503,29.435940599998503,29.435940599998503,None,,008,P019,2025_Mar_21_1047,ConditionRich,2021.2.3,59.93511424489494,
4.0,4.75,24,0.75,Stimuli/P019/things_bulletin_board_10s.jpg,0,0,0.0,0,1,1,1,,,,,,,,,,,,,4.005218199999945,0.005218199999944773,None,33.40629789999912,33.40629789999912,33.40629789999912,33.40629789999912,33.40629789999912,33.40629789999912,33.40629789999912,33.40629789999912,33.40629789999912,33.40629789999912,,008,P019,2025_Mar_21_1047,ConditionRich,2021.2.3,59.93511424489494,
4.75,5.0,41,0.0,Stimuli/Blank.png,0,0,0.0,0,2,2,2,,,,,,,,,,,,,4.756542200000695,0.00654220000069472,None,34.173675699999876,34.173675699999876,34.173675699999876,34.173675699999876,34.173675699999876,34.173675699999876,34.173675699999876,34.173675699999876,34.173675699999876,34.173675699999876,,008,P019,2025_Mar_21_1047,ConditionRich,2021.2.3,59.93511424489494,
5.0,5.75,24,0.75,Stimuli/P019/things_bulletin_board_10s.jpg,0,0,0.0,0,3,3,3,,,,,,,,,,,,,5.021768599999632,0.021768599999631988,None,34.4235966999986,34.4235966999986,34.4235966999986,34.4235966999986,34.4235966999986,34.4235966999986,34.4235966999986,34.4235966999986,34.4235966999986,34.4235966999986,,008,P019,2025_Mar_21_1047,ConditionRich,2021.2.3,59.93511424489494,
5.75,6.0,41,0.0,Stimuli/Blank.png,0,0,0.0,0,4,4,4,,,,,,,,,,,,,5.756841399999757,0.006841399999757414,None,35.17427679999855,35.17427679999855,35.17427679999855,35.17427679999855,35.17427679999855,35.17427679999855,35.17427679999855,35.17427679999855,35.17427679999855,35.17427679999855,,008,P019,2025_Mar_21_1047,ConditionRich,2021.2.3,59.93511424489494,
6.0,6.75,24,0.75,Stimuli/P019/things_bulletin_board_10s.jpg,0,0,0.0,0,5,5,5,,,,,,,,,,,,,6.022357499999998,0.022357499999998254,None,35.4412941999999,35.4412941999999,35.4412941999999,35.4412941999999,35.4412941999999,35.4412941999999,35.4412941999999,35.4412941999999,35.4412941999999,35.4412941999999,,008,P019,2025_Mar_21_1047,ConditionRich,2021.2.3,59.93511424489494,
6.75,7.0,41,0.0,Stimuli/Blank.png,0,0,0.0,0,6,6,6,,,,,,,,,,,,,6.772533900000781,0.022533900000780704,None,36.17527489999884,36.17527489999884,36.17527489999884,36.17527489999884,36.17527489999884,36.17527489999884,36.17527489999884,36.17527489999884,36.17527489999884,36.17527489999884,,008,P019,2025_Mar_21_1047,ConditionRich,2021.2.3,59.93511424489494,
7.0,7.75,24,0.75,Stimuli/P019/things_bulletin_board_10s.jpg,1,0,0.75,0,7,7,7,,,,,,,,,,,,,7.007081100000505,0.007081100000505103,1,36.42551669999921,36.42551669999921,36.42551669999921,36.42551669999921,36.42551669999921,36.42551669999921,36.42551669999921,37.14283669999895,36.42551669999921,36.42551669999921,0.5468096999993577,008,P019,2025_Mar_21_1047,ConditionRich,2021.2.3,59.93511424489494,
7.75,8.0,41,0.0,Stimuli/Blank.png,0,0,0.0,0,8,8,8,,,,,,,,,,,,,7.773440099999789,0.0234400999997888,None,37.17615389999992,37.17615389999992,37.17615389999992,37.17615389999992,37.17615389999992,37.17615389999992,37.17615389999992,37.17615389999992,37.17615389999992,37.17615389999992,,008,P019,2025_Mar_21_1047,ConditionRich,2021.2.3,59.93511424489494,
8.0,8.75,17,0.75,Stimuli/P019/sun_bltxkcclrpweopkl.jpg,0,0,0.0,0,9,9,9,,,,,,,,,,,,,8.007068099999742,0.007068099999742117,None,37.40970389999893,37.40970389999893,37.40970389999893,37.40970389999893,37.40970389999893,37.40970389999893,37.40970389999893,37.40970389999893,37.40970389999893,37.40970389999893,,008,P019,2025_Mar_21_1047,ConditionRich,2021.2.3,59.93511424489494,
8.75,9.0,41,0.0,Stimuli/Blank.png,0,0,0.0,0,10,10,10,,,,,,,,,,,,,8.757987000000867,0.007987000000866828,None,38.16040999999859,38.16040999999859,38.16040999999859,38.16040999999859,38.16040999999859,38.16040999999859,38.16040999999859,38.16040999999859,38.16040999999859,38.16040999999859,,008,P019,2025_Mar_21_1047,ConditionRich,2021.2.3,59.93511424489494,
9.0,9.75,17,0.75,Stimuli/P019/sun_bltxkcclrpweopkl.jpg,1,0,0.75,0,11,11,11,,,,,,,,,,,,,9.008867700000337,0.008867700000337209,1,38.41062879999845,38.41062879999845,38.41062879999845,38.41062879999845,38.41062879999845,38.41062879999845,38.41062879999845,39.144689599999765,38.41062879999845,38.41062879999845,0.45973439999943366,008,P019,2025_Mar_21_1047,ConditionRich,2021.2.3,59.93511424489494,
9.75,10.0,41,0.0,Stimuli/Blank.png,0,0,0.0,0,12,12,12,,,,,,,,,,,,,9.759906999999657,0.009906999999657273,None,39.16130129999874,39.16130129999874,39.16130129999874,39.16130129999874,39.16130129999874,39.16130129999874,39.16130129999874,39.16130129999874,39.16130129999874,39.16130129999874,,008,P019,2025_Mar_21_1047,ConditionRich,2021.2.3,59.93511424489494,
10.0,10.75,17,0.75,Stimuli/P019/sun_bltxkcclrpweopkl.jpg,0,0,0.0,0,13,13,13,,,,,,,,,,,,,10.008896800000002,0.008896800000002258,None,39.41151389999868,39.41151389999868,39.41151389999868,39.41151389999868,39.41151389999868,39.41151389999868,39.41151389999868,39.41151389999868,39.41151389999868,39.41151389999868,,008,P019,2025_Mar_21_1047,ConditionRich,2021.2.3,59.93511424489494,
10.75,11.0,41,0.0,Stimuli/Blank.png,0,0,0.0,0,14,14,14,,,,,,,,,,,,,10.761666800000967,0.01166680000096676,None,40.16250929999842,40.16250929999842,40.16250929999842,40.16250929999842,40.16250929999842,40.16250929999842,40.16250929999842,40.16250929999842,40.16250929999842,40.16250929999842,,008,P019,2025_Mar_21_1047,ConditionRich,2021.2.3,59.93511424489494,
11.0,11.75,17,0.75,Stimuli/P019/sun_bltxkcclrpweopkl.jpg,0,0,0.0,0,15,15,15,,,,,,,,,,,,,11.011558899999727,0.011558899999727146,None,40.42908019999959,40.42908019999959,40.42908019999959,40.42908019999959,40.42908019999959,40.42908019999959,40.42908019999959,40.42908019999959,40.42908019999959,40.42908019999959,,008,P019,2025_Mar_21_1047,ConditionRich,2021.2.3,59.93511424489494,
11.75,12.0,41,0.0,Stimuli/Blank.png,0,0,0.0,0,16,16,16,,,,,,,,,,,,,11.777047699999457,0.02704769999945711,None,41.17981739999959,41.17981739999959,41.17981739999959,41.17981739999959,41.17981739999959,41.17981739999959,41.17981739999959,41.17981739999959,41.17981739999959,41.17981739999959,,008,P019,2025_Mar_21_1047,ConditionRich,2021.2.3,59.93511424489494,
12.0,12.75,14,0.75,Stimuli/P019/sun_birvagufpcschyrr.jpg,0,0,0.0,0,17,17,17,,,,,,,,,,,,,12.010865700000068,0.01086570000006759,None,41.41335179999987,41.41335179999987,41.41335179999987,41.41335179999987,41.41335179999987,41.41335179999987,41.41335179999987,41.41335179999987,41.41335179999987,41.41335179999987,,008,P019,2025_Mar_21_1047,ConditionRich,2021.2.3,59.93511424489494,
12.75,13.0,41,0.0,Stimuli/Blank.png,0,0,0.0,0,18,18,18,,,,,,,,,,,,,12.76206540000021,0.012065400000210502,None,42.164022099999784,42.164022099999784,42.164022099999784,42.164022099999784,42.164022099999784,42.164022099999784,42.164022099999784,42.164022099999784,42.164022099999784,42.164022099999784,,008,P019,2025_Mar_21_1047,ConditionRich,2021.2.3,59.93511424489494,
13.0,13.75,14,0.75,Stimuli/P019/sun_birvagufpcschyrr.jpg,0,0,0.0,0,19,19,19,,,,,,,,,,,,,13.011775000000853,0.011775000000852742,None,42.41424039999947,42.41424039999947,42.41424039999947,42.41424039999947,42.41424039999947,42.41424039999947,42.41424039999947,42.41424039999947,42.41424039999947,42.41424039999947,,008,P019,2025_Mar_21_1047,ConditionRich,2021.2.3,59.93511424489494,
13.75,14.0,41,0.0,Stimuli/Blank.png,0,0,0.0,0,20,20,20,,,,,,,,,,,,,13.762007799999992,0.01200779999999213,None,43.16487739999866,43.16487739999866,43.16487739999866,43.16487739999866,43.16487739999866,43.16487739999866,43.16487739999866,43.16487739999866,43.16487739999866,43.16487739999866,,008,P019,2025_Mar_21_1047,ConditionRich,2021.2.3,59.93511424489494,
14.0,14.75,14,0.75,Stimuli/P019/sun_birvagufpcschyrr.jpg,1,0,0.75,0,21,21,21,,,,,,,,,,,,,14.012248200000613,0.012248200000612997,1,43.415126099998815,43.415126099998815,43.415126099998815,43.415126099998815,43.415126099998815,43.415126099998815,43.415126099998815,44.14912529999856,43.415126099998815,43.415126099998815,0.3862959000016417,008,P019,2025_Mar_21_1047,ConditionRich,2021.2.3,59.93511424489494,
14.75,15.0,41,0.0,Stimuli/Blank.png,0,0,0.0,0,22,22,22,,,,,,,,,,,,,14.762991400000828,0.012991400000828435,None,44.165785199998936,44.165785199998936,44.165785199998936,44.165785199998936,44.165785199998936,44.165785199998936,44.165785199998936,44.165785199998936,44.165785199998936,44.165785199998936,,008,P019,2025_Mar_21_1047,ConditionRich,2021.2.3,59.93511424489494,
15.0,15.75,14,0.75,Stimuli/P019/sun_birvagufpcschyrr.jpg,0,0,0.0,0,23,23,23,,,,,,,,,,,,,15.01401960000112,0.014019600001120125,None,44.43270999999913,44.43270999999913,44.43270999999913,44.43270999999913,44.43270999999913,44.43270999999913,44.43270999999913,44.43270999999913,44.43270999999913,44.43270999999913,,008,P019,2025_Mar_21_1047,ConditionRich,2021.2.3,59.93511424489494,
15.75,16.0,41,0.0,Stimuli/Blank.png,0,0,0.0,0,24,24,24,,,,,,,,,,,,,15.781227900000886,0.03122790000088571,None,45.18335719999959,45.18335719999959,45.18335719999959,45.18335719999959,45.18335719999959,45.18335719999959,45.18335719999959,45.18335719999959,45.18335719999959,45.18335719999959,,008,P019,2025_Mar_21_1047,ConditionRich,2021.2.3,59.93511424489494,
16.0,16.75,6,0.75,Stimuli/P019/sun_amppcthpabgulbwl.jpg,0,0,0.0,0,25,25,25,,,,,,,,,,,,,16.016621400000076,0.01662140000007639,None,45.433588199999576,45.433588199999576,45.433588199999576,45.433588199999576,45.433588199999576,45.433588199999576,45.433588199999576,45.433588199999576,45.433588199999576,45.433588199999576,,008,P019,2025_Mar_21_1047,ConditionRich,2021.2.3,59.93511424489494,
16.75,17.0,41,0.0,Stimuli/Blank.png,0,0,0.0,0,26,26,26,,,,,,,,,,,,,16.76658470000075,0.016584700000748853,None,46.184247199998936,46.184247199998936,46.184247199998936,46.184247199998936,46.184247199998936,46.184247199998936,46.184247199998936,46.184247199998936,46.184247199998936,46.184247199998936,,008,P019,2025_Mar_21_1047,ConditionRich,2021.2.3,59.93511424489494,
17.0,17.75,6,0.75,Stimuli/P019/sun_amppcthpabgulbwl.jpg,0,0,0.0,0,27,27,27,,,,,,,,,,,,,17.016893600000913,0.016893600000912556,None,46.434471999999005,46.434471999999005,46.434471999999005,46.434471999999005,46.434471999999005,46.434471999999005,46.434471999999005,46.434471999999005,46.434471999999005,46.434471999999005,,008,P019,2025_Mar_21_1047,ConditionRich,2021.2.3,59.93511424489494,
17.75,18.0,41,0.0,Stimuli/Blank.png,0,0,0.0,0,28,28,28,,,,,,,,,,,,,17.767060899999706,0.017060899999705725,None,47.168445399998745,47.168445399998745,47.168445399998745,47.168445399998745,47.168445399998745,47.168445399998745,47.168445399998745,47.168445399998745,47.168445399998745,47.168445399998745,,008,P019,2025_Mar_21_1047,ConditionRich,2021.2.3,59.93511424489494,
18.0,18.75,6,0.75,Stimuli/P019/sun_amppcthpabgulbwl.jpg,0,0,0.0,0,29,29,29,,,,,,,,,,,,,18.0018213000003,0.0018213000003015622,None,47.41868269999941,47.41868269999941,47.41868269999941,47.41868269999941,47.41868269999941,47.41868269999941,47.41868269999941,47.41868269999941,47.41868269999941,47.41868269999941,,008,P019,2025_Mar_21_1047,ConditionRich,2021.2.3,59.93511424489494,
18.75,19.0,41,0.0,Stimuli/Blank.png,0,0,0.0,0,30,30,30,,,,,,,,,,,,,18.76710980000098,0.017109800000980613,None,48.16934869999932,48.16934869999932,48.16934869999932,48.16934869999932,48.16934869999932,48.16934869999932,48.16934869999932,48.16934869999932,48.16934869999932,48.16934869999932,,008,P019,2025_Mar_21_1047,ConditionRich,2021.2.3,59.93511424489494,
19.0,19.75,6,0.75,Stimuli/P019/sun_amppcthpabgulbwl.jpg,0,0,0.0,0,31,31,31,,,,,,,,,,,,,19.00262930000099,0.0026293000009900425,None,48.41955239999879,48.41955239999879,48.41955239999879,48.41955239999879,48.41955239999879,48.41955239999879,48.41955239999879,48.41955239999879,48.41955239999879,48.41955239999879,,008,P019,2025_Mar_21_1047,ConditionRich,2021.2.3,59.93511424489494,
19.75,20.0,41,0.0,Stimuli/Blank.png,0,0,0.0,0,32,32,32,,,,,,,,,,,,,19.76727039999969,0.01727039999968838,None,49.17021669999849,49.17021669999849,49.17021669999849,49.17021669999849,49.17021669999849,49.17021669999849,49.17021669999849,49.17021669999849,49.17021669999849,49.17021669999849,,008,P019,2025_Mar_21_1047,ConditionRich,2021.2.3,59.93511424489494,
20.0,20.75,40,0.75,Stimuli/P019/things_woman_10s.jpg,0,0,0.0,0,33,33,33,,,,,,,,,,,,,20.000778300000093,0.0007783000000927132,None,49.403767799998604,49.403767799998604,49.403767799998604,49.403767799998604,49.403767799998604,49.403767799998604,49.403767799998604,49.403767799998604,49.403767799998604,49.403767799998604,,008,P019,2025_Mar_21_1047,ConditionRich,2021.2.3,59.93511424489494,
20.75,21.0,41,0.0,Stimuli/Blank.png,0,0,0.0,0,34,34,34,,,,,,,,,,,,,20.75220300000001,0.0022030000000086147,None,50.154435399999784,50.154435399999784,50.154435399999784,50.154435399999784,50.154435399999784,50.154435399999784,50.154435399999784,50.154435399999784,50.154435399999784,50.154435399999784,,008,P019,2025_Mar_21_1047,ConditionRich,2021.2.3,59.93511424489494,
21.0,21.75,40,0.75,Stimuli/P019/things_woman_10s.jpg,0,0,0.0,0,35,35,35,,,,,,,,,,,,,21.003888999999617,0.0038889999996172264,None,50.42133359999934,50.42133359999934,50.42133359999934,50.42133359999934,50.42133359999934,50.42133359999934,50.42133359999934,50.42133359999934,50.42133359999934,50.42133359999934,,008,P019,2025_Mar_21_1047,ConditionRich,2021.2.3,59.93511424489494,
21.75,22.0,41,0.0,Stimuli/Blank.png,0,0,0.0,0,36,36,36,,,,,,,,,,,,,21.769844399999783,0.01984439999978349,None,51.17199409999921,51.17199409999921,51.17199409999921,51.17199409999921,51.17199409999921,51.17199409999921,51.17199409999921,51.17199409999921,51.17199409999921,51.17199409999921,,008,P019,2025_Mar_21_1047,ConditionRich,2021.2.3,59.93511424489494,
22.0,22.75,40,0.75,Stimuli/P019/things_woman_10s.jpg,0,0,0.0,0,37,37,37,,,,,,,,,,,,,22.003329900000608,0.003329900000608177,None,51.405531399999745,51.405531399999745,51.405531399999745,51.405531399999745,51.405531399999745,51.405531399999745,51.405531399999745,51.405531399999745,51.405531399999745,51.405531399999745,,008,P019,2025_Mar_21_1047,ConditionRich,2021.2.3,59.93511424489494,
22.75,23.0,41,0.0,Stimuli/Blank.png,0,0,0.0,0,38,38,38,,,,,,,,,,,,,22.754354200000307,0.0043542000003071735,None,52.15626650000013,52.15626650000013,52.15626650000013,52.15626650000013,52.15626650000013,52.15626650000013,52.15626650000013,52.15626650000013,52.15626650000013,52.15626650000013,,008,P019,2025_Mar_21_1047,ConditionRich,2021.2.3,59.93511424489494,
23.0,23.75,40,0.75,Stimuli/P019/things_woman_10s.jpg,0,0,0.0,0,39,39,39,,,,,,,,,,,,,23.003537000000506,0.003537000000505941,None,52.423119699999006,52.423119699999006,52.423119699999006,52.423119699999006,52.423119699999006,52.423119699999006,52.423119699999006,52.423119699999006,52.423119699999006,52.423119699999006,,008,P019,2025_Mar_21_1047,ConditionRich,2021.2.3,59.93511424489494,
23.75,24.0,41,0.0,Stimuli/Blank.png,0,0,0.0,0,40,40,40,,,,,,,,,,,,,23.77092249999987,0.020922499999869615,None,53.173764799999844,53.173764799999844,53.173764799999844,53.173764799999844,53.173764799999844,53.173764799999844,53.173764799999844,53.173764799999844,53.173764799999844,53.173764799999844,,008,P019,2025_Mar_21_1047,ConditionRich,2021.2.3,59.93511424489494,
24.0,24.75,13,0.75,Stimuli/P019/sun_bhzwrbdycbchqesq.jpg,0,0,0.0,0,41,41,41,,,,,,,,,,,,,24.004782500000147,0.004782500000146683,None,53.40729749999991,53.40729749999991,53.40729749999991,53.40729749999991,53.40729749999991,53.40729749999991,53.40729749999991,53.40729749999991,53.40729749999991,53.40729749999991,,008,P019,2025_Mar_21_1047,ConditionRich,2021.2.3,59.93511424489494,
24.75,25.0,41,0.0,Stimuli/Blank.png,0,0,0.0,0,42,42,42,,,,,,,,,,,,,24.75811210000029,0.008112100000289502,None,54.17465769999944,54.17465769999944,54.17465769999944,54.17465769999944,54.17465769999944,54.17465769999944,54.17465769999944,54.17465769999944,54.17465769999944,54.17465769999944,,008,P019,2025_Mar_21_1047,ConditionRich,2021.2.3,59.93511424489494,
25.0,25.75,13,0.75,Stimuli/P019/sun_bhzwrbdycbchqesq.jpg,0,0,0.0,0,43,43,43,,,,,,,,,,,,,25.021930200000497,0.02193020000049728,None,54.42485979999947,54.42485979999947,54.42485979999947,54.42485979999947,54.42485979999947,54.42485979999947,54.42485979999947,54.42485979999947,54.42485979999947,54.42485979999947,,008,P019,2025_Mar_21_1047,ConditionRich,2021.2.3,59.93511424489494,
25.75,26.0,41,0.0,Stimuli/Blank.png,0,0,0.0,0,44,44,44,,,,,,,,,,,,,25.756586400000742,0.006586400000742287,None,55.15885209999942,55.15885209999942,55.15885209999942,55.15885209999942,55.15885209999942,55.15885209999942,55.15885209999942,55.15885209999942,55.15885209999942,55.15885209999942,,008,P019,2025_Mar_21_1047,ConditionRich,2021.2.3,59.93511424489494,
26.0,26.75,13,0.75,Stimuli/P019/sun_bhzwrbdycbchqesq.jpg,0,0,0.0,0,45,45,45,,,,,,,,,,,,,26.00682120000056,0.006821200000558747,None,55.409055199999784,55.409055199999784,55.409055199999784,55.409055199999784,55.409055199999784,55.409055199999784,55.409055199999784,55.409055199999784,55.409055199999784,55.409055199999784,,008,P019,2025_Mar_21_1047,ConditionRich,2021.2.3,59.93511424489494,
26.75,27.0,41,0.0,Stimuli/Blank.png,0,0,0.0,0,46,46,46,,,,,,,,,,,,,26.75770349999948,0.007703499999479391,None,56.159716399999525,56.159716399999525,56.159716399999525,56.159716399999525,56.159716399999525,56.159716399999525,56.159716399999525,56.159716399999525,56.159716399999525,56.159716399999525,,008,P019,2025_Mar_21_1047,ConditionRich,2021.2.3,59.93511424489494,
27.0,27.75,13,0.75,Stimuli/P019/sun_bhzwrbdycbchqesq.jpg,0,0,0.0,0,47,47,47,,,,,,,,,,,,,27.008029099999476,0.008029099999475875,None,56.4099585999993,56.4099585999993,56.4099585999993,56.4099585999993,56.4099585999993,56.4099585999993,56.4099585999993,56.4099585999993,56.4099585999993,56.4099585999993,,008,P019,2025_Mar_21_1047,ConditionRich,2021.2.3,59.93511424489494,
27.75,28.0,41,0.0,Stimuli/Blank.png,0,0,0.0,0,48,48,48,,,,,,,,,,,,,27.757822999999917,0.007822999999916647,None,57.160609999999,57.160609999999,57.160609999999,57.160609999999,57.160609999999,57.160609999999,57.160609999999,57.160609999999,57.160609999999,57.160609999999,,008,P019,2025_Mar_21_1047,ConditionRich,2021.2.3,59.93511424489494,
28.0,28.75,15,0.75,Stimuli/P019/sun_bkubdnohuakmwcaj.jpg,0,0,0.0,0,49,49,49,,,,,,,,,,,,,28.008421200000157,0.008421200000157114,None,57.41087659999903,57.41087659999903,57.41087659999903,57.41087659999903,57.41087659999903,57.41087659999903,57.41087659999903,57.41087659999903,57.41087659999903,57.41087659999903,,008,P019,2025_Mar_21_1047,ConditionRich,2021.2.3,59.93511424489494,
28.75,29.0,41,0.0,Stimuli/Blank.png,0,0,0.0,0,50,50,50,,,,,,,,,,,,,28.75856980000026,0.00856980000025942,None,58.16149589999986,58.16149589999986,58.16149589999986,58.16149589999986,58.16149589999986,58.16149589999986,58.16149589999986,58.16149589999986,58.16149589999986,58.16149589999986,,008,P019,2025_Mar_21_1047,ConditionRich,2021.2.3,59.93511424489494,
29.0,29.75,15,0.75,Stimuli/P019/sun_bkubdnohuakmwcaj.jpg,0,0,0.0,0,51,51,51,,,,,,,,,,,,,29.00951239999995,0.009512399999948684,None,58.41176769999947,58.41176769999947,58.41176769999947,58.41176769999947,58.41176769999947,58.41176769999947,58.41176769999947,58.41176769999947,58.41176769999947,58.41176769999947,,008,P019,2025_Mar_21_1047,ConditionRich,2021.2.3,59.93511424489494,
29.75,30.0,41,0.0,Stimuli/Blank.png,0,0,0.0,0,52,52,52,,,,,,,,,,,,,29.76174660000106,0.01174660000106087,None,59.17907419999938,59.17907419999938,59.17907419999938,59.17907419999938,59.17907419999938,59.17907419999938,59.17907419999938,59.17907419999938,59.17907419999938,59.17907419999938,,008,P019,2025_Mar_21_1047,ConditionRich,2021.2.3,59.93511424489494,
30.0,30.75,15,0.75,Stimuli/P019/sun_bkubdnohuakmwcaj.jpg,0,0,0.0,0,53,53,53,,,,,,,,,,,,,30.02634399999988,0.026343999999880907,None,59.429274399999485,59.429274399999485,59.429274399999485,59.429274399999485,59.429274399999485,59.429274399999485,59.429274399999485,59.429274399999485,59.429274399999485,59.429274399999485,,008,P019,2025_Mar_21_1047,ConditionRich,2021.2.3,59.93511424489494,
30.75,31.0,41,0.0,Stimuli/Blank.png,0,0,0.0,0,54,54,54,,,,,,,,,,,,,30.761057400000936,0.011057400000936468,None,60.163256299998466,60.163256299998466,60.163256299998466,60.163256299998466,60.163256299998466,60.163256299998466,60.163256299998466,60.163256299998466,60.163256299998466,60.163256299998466,,008,P019,2025_Mar_21_1047,ConditionRich,2021.2.3,59.93511424489494,
31.0,31.75,15,0.75,Stimuli/P019/sun_bkubdnohuakmwcaj.jpg,0,0,0.0,0,55,55,55,,,,,,,,,,,,,31.01125680000041,0.011256800000410294,None,60.413490699998874,60.413490699998874,60.413490699998874,60.413490699998874,60.413490699998874,60.413490699998874,60.413490699998874,60.413490699998874,60.413490699998874,60.413490699998874,,008,P019,2025_Mar_21_1047,ConditionRich,2021.2.3,59.93511424489494,
31.75,32.0,41,0.0,Stimuli/Blank.png,0,0,0.0,0,56,56,56,,,,,,,,,,,,,31.76215989999946,0.012159899999460322,None,61.1641553999998,61.1641553999998,61.1641553999998,61.1641553999998,61.1641553999998,61.1641553999998,61.1641553999998,61.1641553999998,61.1641553999998,61.1641553999998,,008,P019,2025_Mar_21_1047,ConditionRich,2021.2.3,59.93511424489494,
32.0,32.75,32,0.75,Stimuli/P019/things_girl_10s.jpg,0,0,0.0,0,57,57,57,,,,,,,,,,,,,32.01274030000059,0.012740300000587013,None,61.43106289999923,61.43106289999923,61.43106289999923,61.43106289999923,61.43106289999923,61.43106289999923,61.43106289999923,61.43106289999923,61.43106289999923,61.43106289999923,,008,P019,2025_Mar_21_1047,ConditionRich,2021.2.3,59.93511424489494,
32.75,33.0,41,0.0,Stimuli/Blank.png,0,0,0.0,0,58,58,58,,,,,,,,,,,,,32.77879229999962,0.028792299999622628,None,62.18171230000007,62.18171230000007,62.18171230000007,62.18171230000007,62.18171230000007,62.18171230000007,62.18171230000007,62.18171230000007,62.18171230000007,62.18171230000007,,008,P019,2025_Mar_21_1047,ConditionRich,2021.2.3,59.93511424489494,
33.0,33.75,32,0.75,Stimuli/P019/things_girl_10s.jpg,0,0,0.0,0,59,59,59,,,,,,,,,,,,,33.01223510000091,0.01223510000090755,None,62.41524690000006,62.41524690000006,62.41524690000006,62.41524690000006,62.41524690000006,62.41524690000006,62.41524690000006,62.41524690000006,62.41524690000006,62.41524690000006,,008,P019,2025_Mar_21_1047,ConditionRich,2021.2.3,59.93511424489494,
33.75,34.0,41,0.0,Stimuli/Blank.png,0,0,0.0,0,60,60,60,,,,,,,,,,,,,33.76311680000072,0.013116800000716466,None,63.16590989999895,63.16590989999895,63.16590989999895,63.16590989999895,63.16590989999895,63.16590989999895,63.16590989999895,63.16590989999895,63.16590989999895,63.16590989999895,,008,P019,2025_Mar_21_1047,ConditionRich,2021.2.3,59.93511424489494,
34.0,34.75,32,0.75,Stimuli/P019/things_girl_10s.jpg,0,0,0.0,0,61,61,61,,,,,,,,,,,,,34.01315849999992,0.013158499999917694,None,63.41613219999999,63.41613219999999,63.41613219999999,63.41613219999999,63.41613219999999,63.41613219999999,63.41613219999999,63.41613219999999,63.41613219999999,63.41613219999999,,008,P019,2025_Mar_21_1047,ConditionRich,2021.2.3,59.93511424489494,
34.75,35.0,41,0.0,Stimuli/Blank.png,0,0,0.0,0,62,62,62,,,,,,,,,,,,,34.76384710000093,0.013847100000930368,None,64.16679379999914,64.16679379999914,64.16679379999914,64.16679379999914,64.16679379999914,64.16679379999914,64.16679379999914,64.16679379999914,64.16679379999914,64.16679379999914,,008,P019,2025_Mar_21_1047,ConditionRich,2021.2.3,59.93511424489494,
35.0,35.75,32,0.75,Stimuli/P019/things_girl_10s.jpg,0,0,0.0,0,63,63,63,,,,,,,,,,,,,35.01645000000099,0.01645000000098662,None,64.43371560000014,64.43371560000014,64.43371560000014,64.43371560000014,64.43371560000014,64.43371560000014,64.43371560000014,64.43371560000014,64.43371560000014,64.43371560000014,,008,P019,2025_Mar_21_1047,ConditionRich,2021.2.3,59.93511424489494,
35.75,36.0,41,0.0,Stimuli/Blank.png,0,0,0.0,0,64,64,64,,,,,,,,,,,,,35.76701160000084,0.01701160000084201,None,65.18437789999916,65.18437789999916,65.18437789999916,65.18437789999916,65.18437789999916,65.18437789999916,65.18437789999916,65.18437789999916,65.18437789999916,65.18437789999916,,008,P019,2025_Mar_21_1047,ConditionRich,2021.2.3,59.93511424489494,
36.0,36.75,29,0.75,Stimuli/P019/things_flamingo_10s.jpg,0,0,0.0,0,65,65,65,,,,,,,,,,,,,36.01550710000083,0.015507100000831997,None,65.41790039999978,65.41790039999978,65.41790039999978,65.41790039999978,65.41790039999978,65.41790039999978,65.41790039999978,65.41790039999978,65.41790039999978,65.41790039999978,,008,P019,2025_Mar_21_1047,ConditionRich,2021.2.3,59.93511424489494,
36.75,37.0,41,0.0,Stimuli/Blank.png,0,0,0.0,0,66,66,66,,,,,,,,,,,,,36.752272699999594,0.002272699999593897,None,66.16858119999961,66.16858119999961,66.16858119999961,66.16858119999961,66.16858119999961,66.16858119999961,66.16858119999961,66.16858119999961,66.16858119999961,66.16858119999961,,008,P019,2025_Mar_21_1047,ConditionRich,2021.2.3,59.93511424489494,
37.0,37.75,29,0.75,Stimuli/P019/things_flamingo_10s.jpg,0,0,0.0,0,67,67,67,,,,,,,,,,,,,37.01652339999964,0.016523399999641697,None,66.43546509999942,66.43546509999942,66.43546509999942,66.43546509999942,66.43546509999942,66.43546509999942,66.43546509999942,66.43546509999942,66.43546509999942,66.43546509999942,,008,P019,2025_Mar_21_1047,ConditionRich,2021.2.3,59.93511424489494,
37.75,38.0,41,0.0,Stimuli/Blank.png,0,0,0.0,0,68,68,68,,,,,,,,,,,,,37.76677130000098,0.016771300000982592,None,67.16945119999946,67.16945119999946,67.16945119999946,67.16945119999946,67.16945119999946,67.16945119999946,67.16945119999946,67.16945119999946,67.16945119999946,67.16945119999946,,008,P019,2025_Mar_21_1047,ConditionRich,2021.2.3,59.93511424489494,
38.0,38.75,29,0.75,Stimuli/P019/things_flamingo_10s.jpg,0,0,0.0,0,69,69,69,,,,,,,,,,,,,38.00159650000023,0.0015965000002324814,None,67.41969519999839,67.41969519999839,67.41969519999839,67.41969519999839,67.41969519999839,67.41969519999839,67.41969519999839,67.41969519999839,67.41969519999839,67.41969519999839,,008,P019,2025_Mar_21_1047,ConditionRich,2021.2.3,59.93511424489494,
38.75,39.0,41,0.0,Stimuli/Blank.png,0,0,0.0,0,70,70,70,,,,,,,,,,,,,38.76737460000004,0.01737460000003921,None,68.1703413999985,68.1703413999985,68.1703413999985,68.1703413999985,68.1703413999985,68.1703413999985,68.1703413999985,68.1703413999985,68.1703413999985,68.1703413999985,,008,P019,2025_Mar_21_1047,ConditionRich,2021.2.3,59.93511424489494,
39.0,39.75,29,0.75,Stimuli/P019/things_flamingo_10s.jpg,0,0,0.0,0,71,71,71,,,,,,,,,,,,,39.001018799999656,0.0010187999996560393,None,68.40387329999976,68.40387329999976,68.40387329999976,68.40387329999976,68.40387329999976,68.40387329999976,68.40387329999976,68.40387329999976,68.40387329999976,68.40387329999976,,008,P019,2025_Mar_21_1047,ConditionRich,2021.2.3,59.93511424489494,
39.75,40.0,41,0.0,Stimuli/Blank.png,0,0,0.0,0,72,72,72,,,,,,,,,,,,,39.75339929999973,0.0033992999997281004,None,69.1545557999998,69.1545557999998,69.1545557999998,69.1545557999998,69.1545557999998,69.1545557999998,69.1545557999998,69.1545557999998,69.1545557999998,69.1545557999998,,008,P019,2025_Mar_21_1047,ConditionRich,2021.2.3,59.93511424489494,
40.0,40.75,3,0.75,Stimuli/P019/sun_aknrkswonrogcooi.jpg,0,0,0.0,0,73,73,73,,,,,,,,,,,,,40.00273130000096,0.002731300000959891,None,69.42146489999868,69.42146489999868,69.42146489999868,69.42146489999868,69.42146489999868,69.42146489999868,69.42146489999868,69.42146489999868,69.42146489999868,69.42146489999868,,008,P019,2025_Mar_21_1047,ConditionRich,2021.2.3,59.93511424489494,
40.75,41.0,41,0.0,Stimuli/Blank.png,0,0,0.0,0,74,74,74,,,,,,,,,,,,,40.77161900000101,0.021619000001010136,None,70.18879629999901,70.18879629999901,70.18879629999901,70.18879629999901,70.18879629999901,70.18879629999901,70.18879629999901,70.18879629999901,70.18879629999901,70.18879629999901,,008,P019,2025_Mar_21_1047,ConditionRich,2021.2.3,59.93511424489494,
41.0,41.75,3,0.75,Stimuli/P019/sun_aknrkswonrogcooi.jpg,1,0,0.75,0,75,75,75,,,,,,,,,,,,,41.02191180000045,0.021911800000452786,1,70.43901389999883,70.43901389999883,70.43901389999883,70.43901389999883,70.43901389999883,70.43901389999883,70.43901389999883,None,70.43901389999883,70.43901389999883,0.4473658999995678,008,P019,2025_Mar_21_1047,ConditionRich,2021.2.3,59.93511424489494,
41.75,42.0,41,0.0,Stimuli/Blank.png,0,0,0.0,0,76,76,76,,,,,,,,,,,,,41.77313839999988,0.023138399999879766,None,71.18967209999937,71.18967209999937,71.18967209999937,71.18967209999937,71.18967209999937,71.18967209999937,71.18967209999937,71.18967209999937,71.18967209999937,71.18967209999937,,008,P019,2025_Mar_21_1047,ConditionRich,2021.2.3,59.93511424489494,
42.0,42.75,3,0.75,Stimuli/P019/sun_aknrkswonrogcooi.jpg,0,0,0.0,0,77,77,77,,,,,,,,,,,,,42.021873499999856,0.021873499999855994,None,71.43989309999961,71.43989309999961,71.43989309999961,71.43989309999961,71.43989309999961,71.43989309999961,71.43989309999961,71.43989309999961,71.43989309999961,71.43989309999961,,008,P019,2025_Mar_21_1047,ConditionRich,2021.2.3,59.93511424489494,
42.75,43.0,41,0.0,Stimuli/Blank.png,0,0,0.0,0,78,78,78,,,,,,,,,,,,,42.771538000000874,0.02153800000087358,None,72.17386979999901,72.17386979999901,72.17386979999901,72.17386979999901,72.17386979999901,72.17386979999901,72.17386979999901,72.17386979999901,72.17386979999901,72.17386979999901,,008,P019,2025_Mar_21_1047,ConditionRich,2021.2.3,59.93511424489494,
43.0,43.75,3,0.75,Stimuli/P019/sun_aknrkswonrogcooi.jpg,0,0,0.0,0,79,79,79,,,,,,,,,,,,,43.007235500001116,0.0072355000011157244,None,72.42412039999908,72.42412039999908,72.42412039999908,72.42412039999908,72.42412039999908,72.42412039999908,72.42412039999908,72.42412039999908,72.42412039999908,72.42412039999908,,008,P019,2025_Mar_21_1047,ConditionRich,2021.2.3,59.93511424489494,
43.75,44.0,41,0.0,Stimuli/Blank.png,0,0,0.0,0,80,80,80,,,,,,,,,,,,,43.77184560000023,0.02184560000023339,None,73.17476219999844,73.17476219999844,73.17476219999844,73.17476219999844,73.17476219999844,73.17476219999844,73.17476219999844,73.17476219999844,73.17476219999844,73.17476219999844,,008,P019,2025_Mar_21_1047,ConditionRich,2021.2.3,59.93511424489494,
44.0,44.75,1,0.75,Stimuli/P019/sun_aaaidwecchadbake.jpg,0,0,0.0,0,81,81,81,,,,,,,,,,,,,44.00589179999952,0.005891799999517389,None,73.40829609999855,73.40829609999855,73.40829609999855,73.40829609999855,73.40829609999855,73.40829609999855,73.40829609999855,73.40829609999855,73.40829609999855,73.40829609999855,,008,P019,2025_Mar_21_1047,ConditionRich,2021.2.3,59.93511424489494,
44.75,45.0,41,0.0,Stimuli/Blank.png,0,0,0.0,0,82,82,82,,,,,,,,,,,,,44.75627170000007,0.006271700000070268,None,74.15896209999846,74.15896209999846,74.15896209999846,74.15896209999846,74.15896209999846,74.15896209999846,74.15896209999846,74.15896209999846,74.15896209999846,74.15896209999846,,008,P019,2025_Mar_21_1047,ConditionRich,2021.2.3,59.93511424489494,
45.0,45.75,1,0.75,Stimuli/P019/sun_aaaidwecchadbake.jpg,0,0,0.0,0,83,83,83,,,,,,,,,,,,,45.00725799999964,0.007257999999637832,None,74.40918699999929,74.40918699999929,74.40918699999929,74.40918699999929,74.40918699999929,74.40918699999929,74.40918699999929,74.40918699999929,74.40918699999929,74.40918699999929,,008,P019,2025_Mar_21_1047,ConditionRich,2021.2.3,59.93511424489494,
45.75,46.0,41,0.0,Stimuli/Blank.png,0,0,0.0,0,84,84,84,,,,,,,,,,,,,45.756892999999764,0.0068929999997635605,None,75.15981789999933,75.15981789999933,75.15981789999933,75.15981789999933,75.15981789999933,75.15981789999933,75.15981789999933,75.15981789999933,75.15981789999933,75.15981789999933,,008,P019,2025_Mar_21_1047,ConditionRich,2021.2.3,59.93511424489494,
46.0,46.75,1,0.75,Stimuli/P019/sun_aaaidwecchadbake.jpg,0,0,0.0,0,85,85,85,,,,,,,,,,,,,46.007545800001026,0.007545800001025782,None,75.4100897999997,75.4100897999997,75.4100897999997,75.4100897999997,75.4100897999997,75.4100897999997,75.4100897999997,75.4100897999997,75.4100897999997,75.4100897999997,,008,P019,2025_Mar_21_1047,ConditionRich,2021.2.3,59.93511424489494,
46.75,47.0,41,0.0,Stimuli/Blank.png,0,0,0.0,0,86,86,86,,,,,,,,,,,,,46.757987900000444,0.007987900000443915,None,76.16072729999905,76.16072729999905,76.16072729999905,76.16072729999905,76.16072729999905,76.16072729999905,76.16072729999905,76.16072729999905,76.16072729999905,76.16072729999905,,008,P019,2025_Mar_21_1047,ConditionRich,2021.2.3,59.93511424489494,
47.0,47.75,1,0.75,Stimuli/P019/sun_aaaidwecchadbake.jpg,0,0,0.0,0,87,87,87,,,,,,,,,,,,,47.008694000000105,0.008694000000105007,None,76.42790249999962,76.42790249999962,76.42790249999962,76.42790249999962,76.42790249999962,76.42790249999962,76.42790249999962,76.42790249999962,76.42790249999962,76.42790249999962,,008,P019,2025_Mar_21_1047,ConditionRich,2021.2.3,59.93511424489494,
47.75,48.0,41,0.0,Stimuli/Blank.png,0,0,0.0,0,88,88,88,,,,,,,,,,,,,47.77535870000065,0.02535870000065188,None,77.17829379999966,77.17829379999966,77.17829379999966,77.17829379999966,77.17829379999966,77.17829379999966,77.17829379999966,77.17829379999966,77.17829379999966,77.17829379999966,,008,P019,2025_Mar_21_1047,ConditionRich,2021.2.3,59.93511424489494,
48.0,48.75,21,0.75,Stimuli/P019/things_anteater_10s.jpg,0,0,0.0,0,89,89,89,,,,,,,,,,,,,48.009089200000744,0.009089200000744313,None,77.41183359999923,77.41183359999923,77.41183359999923,77.41183359999923,77.41183359999923,77.41183359999923,77.41183359999923,77.41183359999923,77.41183359999923,77.41183359999923,,008,P019,2025_Mar_21_1047,ConditionRich,2021.2.3,59.93511424489494,
48.75,49.0,41,0.0,Stimuli/Blank.png,0,0,0.0,0,90,90,90,,,,,,,,,,,,,48.7619494999999,0.011949499999900581,None,78.17919029999939,78.17919029999939,78.17919029999939,78.17919029999939,78.17919029999939,78.17919029999939,78.17919029999939,78.17919029999939,78.17919029999939,78.17919029999939,,008,P019,2025_Mar_21_1047,ConditionRich,2021.2.3,59.93511424489494,
49.0,49.75,21,0.75,Stimuli/P019/things_anteater_10s.jpg,0,0,0.0,0,91,91,91,,,,,,,,,,,,,49.028234400000656,0.028234400000656024,None,78.44609080000009,78.44609080000009,78.44609080000009,78.44609080000009,78.44609080000009,78.44609080000009,78.44609080000009,78.44609080000009,78.44609080000009,78.44609080000009,,008,P019,2025_Mar_21_1047,ConditionRich,2021.2.3,59.93511424489494,
49.75,50.0,41,0.0,Stimuli/Blank.png,0,0,0.0,0,92,92,92,,,,,,,,,,,,,49.77725459999965,0.027254599999650964,None,79.18006349999996,79.18006349999996,79.18006349999996,79.18006349999996,79.18006349999996,79.18006349999996,79.18006349999996,79.18006349999996,79.18006349999996,79.18006349999996,,008,P019,2025_Mar_21_1047,ConditionRich,2021.2.3,59.93511424489494,
50.0,50.75,21,0.75,Stimuli/P019/things_anteater_10s.jpg,0,0,0.0,0,93,93,93,,,,,,,,,,,,,50.01128600000084,0.011286000000836793,None,79.43028629999935,79.43028629999935,79.43028629999935,79.43028629999935,79.43028629999935,79.43028629999935,79.43028629999935,79.43028629999935,79.43028629999935,79.43028629999935,,008,P019,2025_Mar_21_1047,ConditionRich,2021.2.3,59.93511424489494,
50.75,51.0,41,0.0,Stimuli/Blank.png,0,0,0.0,0,94,94,94,,,,,,,,,,,,,50.77817309999955,0.028173099999548867,None,80.18095339999854,80.18095339999854,80.18095339999854,80.18095339999854,80.18095339999854,80.18095339999854,80.18095339999854,80.18095339999854,80.18095339999854,80.18095339999854,,008,P019,2025_Mar_21_1047,ConditionRich,2021.2.3,59.93511424489494,
51.0,51.75,21,0.75,Stimuli/P019/things_anteater_10s.jpg,0,0,0.0,0,95,95,95,,,,,,,,,,,,,51.012613099999726,0.012613099999725819,None,80.43117910000001,80.43117910000001,80.43117910000001,80.43117910000001,80.43117910000001,80.43117910000001,80.43117910000001,80.43117910000001,80.43117910000001,80.43117910000001,,008,P019,2025_Mar_21_1047,ConditionRich,2021.2.3,59.93511424489494,
51.75,52.0,41,0.0,Stimuli/Blank.png,0,0,0.0,0,96,96,96,,,,,,,,,,,,,51.77898860000096,0.028988600000957376,None,81.18183639999916,81.18183639999916,81.18183639999916,81.18183639999916,81.18183639999916,81.18183639999916,81.18183639999916,81.18183639999916,81.18183639999916,81.18183639999916,,008,P019,2025_Mar_21_1047,ConditionRich,2021.2.3,59.93511424489494,
52.0,52.75,30,0.75,Stimuli/P019/things_flip_flop_10s.jpg,0,0,0.0,0,97,97,97,,,,,,,,,,,,,52.01248880000094,0.012488800000937772,None,81.41536719999931,81.41536719999931,81.41536719999931,81.41536719999931,81.41536719999931,81.41536719999931,81.41536719999931,81.41536719999931,81.41536719999931,81.41536719999931,,008,P019,2025_Mar_21_1047,ConditionRich,2021.2.3,59.93511424489494,
52.75,53.0,41,0.0,Stimuli/Blank.png,0,0,0.0,0,98,98,98,,,,,,,,,,,,,52.764019300000655,0.014019300000654766,None,82.16604329999973,82.16604329999973,82.16604329999973,82.16604329999973,82.16604329999973,82.16604329999973,82.16604329999973,82.16604329999973,82.16604329999973,82.16604329999973,,008,P019,2025_Mar_21_1047,ConditionRich,2021.2.3,59.93511424489494,
53.0,53.75,30,0.75,Stimuli/P019/things_flip_flop_10s.jpg,0,0,0.0,0,99,99,99,,,,,,,,,,,,,53.01355429999967,0.013554299999668729,None,82.41625789999853,82.41625789999853,82.41625789999853,82.41625789999853,82.41625789999853,82.41625789999853,82.41625789999853,82.41625789999853,82.41625789999853,82.41625789999853,,008,P019,2025_Mar_21_1047,ConditionRich,2021.2.3,59.93511424489494,
53.75,54.0,41,0.0,Stimuli/Blank.png,0,0,0.0,0,100,100,100,,,,,,,,,,,,,53.764831599999525,0.01483159999952477,None,83.16694009999992,83.16694009999992,83.16694009999992,83.16694009999992,83.16694009999992,83.16694009999992,83.16694009999992,83.16694009999992,83.16694009999992,83.16694009999992,,008,P019,2025_Mar_21_1047,ConditionRich,2021.2.3,59.93511424489494,
54.0,54.75,30,0.75,Stimuli/P019/things_flip_flop_10s.jpg,0,0,0.0,0,101,101,101,,,,,,,,,,,,,54.01629680000042,0.016296800000418443,None,83.43384709999918,83.43384709999918,83.43384709999918,83.43384709999918,83.43384709999918,83.43384709999918,83.43384709999918,83.43384709999918,83.43384709999918,83.43384709999918,,008,P019,2025_Mar_21_1047,ConditionRich,2021.2.3,59.93511424489494,
54.75,55.0,41,0.0,Stimuli/Blank.png,0,0,0.0,0,102,102,102,,,,,,,,,,,,,54.76792200000091,0.017922000000908156,None,84.18450019999909,84.18450019999909,84.18450019999909,84.18450019999909,84.18450019999909,84.18450019999909,84.18450019999909,84.18450019999909,84.18450019999909,84.18450019999909,,008,P019,2025_Mar_21_1047,ConditionRich,2021.2.3,59.93511424489494,
55.0,55.75,30,0.75,Stimuli/P019/things_flip_flop_10s.jpg,1,0,0.75,0,103,103,103,,,,,,,,,,,,,55.01805980000063,0.018059800000628456,1,84.43472509999992,84.43472509999992,84.43472509999992,84.43472509999992,84.43472509999992,84.43472509999992,84.43472509999992,None,84.43472509999992,84.43472509999992,0.4396593999990728,008,P019,2025_Mar_21_1047,ConditionRich,2021.2.3,59.93511424489494,
55.75,56.0,41,0.0,Stimuli/Blank.png,0,0,0.0,0,104,104,104,,,,,,,,,,,,,55.767207799999596,0.017207799999596318,None,85.1687011999984,85.1687011999984,85.1687011999984,85.1687011999984,85.1687011999984,85.1687011999984,85.1687011999984,85.1687011999984,85.1687011999984,85.1687011999984,,008,P019,2025_Mar_21_1047,ConditionRich,2021.2.3,59.93511424489494,
56.0,56.75,5,0.75,Stimuli/P019/sun_amjqxnqvhovkotym.jpg,0,0,0.0,0,105,105,105,,,,,,,,,,,,,55.999730499999714,-0.00026950000028591603,None,85.41891749999922,85.41891749999922,85.41891749999922,85.41891749999922,85.41891749999922,85.41891749999922,85.41891749999922,85.41891749999922,85.41891749999922,85.41891749999922,,008,P019,2025_Mar_21_1047,ConditionRich,2021.2.3,59.93511424489494,
56.75,57.0,41,0.0,Stimuli/Blank.png,0,0,0.0,0,106,106,106,,,,,,,,,,,,,56.76667520000046,0.01667520000046352,None,86.16958029999842,86.16958029999842,86.16958029999842,86.16958029999842,86.16958029999842,86.16958029999842,86.16958029999842,86.16958029999842,86.16958029999842,86.16958029999842,,008,P019,2025_Mar_21_1047,ConditionRich,2021.2.3,59.93511424489494,
57.0,57.75,5,0.75,Stimuli/P019/sun_amjqxnqvhovkotym.jpg,0,0,0.0,0,107,107,107,,,,,,,,,,,,,57.00047269999959,0.0004726999995909864,None,86.40311409999958,86.40311409999958,86.40311409999958,86.40311409999958,86.40311409999958,86.40311409999958,86.40311409999958,86.40311409999958,86.40311409999958,86.40311409999958,,008,P019,2025_Mar_21_1047,ConditionRich,2021.2.3,59.93511424489494,
57.75,58.0,41,0.0,Stimuli/Blank.png,0,0,0.0,0,108,108,108,,,,,,,,,,,,,57.750892699999895,0.0008926999998948304,None,87.15377459999945,87.15377459999945,87.15377459999945,87.15377459999945,87.15377459999945,87.15377459999945,87.15377459999945,87.15377459999945,87.15377459999945,87.15377459999945,,008,P019,2025_Mar_21_1047,ConditionRich,2021.2.3,59.93511424489494,
58.0,58.75,5,0.75,Stimuli/P019/sun_amjqxnqvhovkotym.jpg,0,0,0.0,0,109,109,109,,,,,,,,,,,,,58.00167049999982,0.0016704999998182757,None,87.42070269999931,87.42070269999931,87.42070269999931,87.42070269999931,87.42070269999931,87.42070269999931,87.42070269999931,87.42070269999931,87.42070269999931,87.42070269999931,,008,P019,2025_Mar_21_1047,ConditionRich,2021.2.3,59.93511424489494,
58.75,59.0,41,0.0,Stimuli/Blank.png,0,0,0.0,0,110,110,110,,,,,,,,,,,,,58.769161399999575,0.019161399999575224,None,88.17141919999995,88.17141919999995,88.17141919999995,88.17141919999995,88.17141919999995,88.17141919999995,88.17141919999995,88.17141919999995,88.17141919999995,88.17141919999995,,008,P019,2025_Mar_21_1047,ConditionRich,2021.2.3,59.93511424489494,
59.0,59.75,5,0.75,Stimuli/P019/sun_amjqxnqvhovkotym.jpg,0,0,0.0,0,111,111,111,,,,,,,,,,,,,59.00233029999981,0.0023302999998122687,None,88.40487629999916,88.40487629999916,88.40487629999916,88.40487629999916,88.40487629999916,88.40487629999916,88.40487629999916,88.40487629999916,88.40487629999916,88.40487629999916,,008,P019,2025_Mar_21_1047,ConditionRich,2021.2.3,59.93511424489494,
59.75,60.0,41,0.0,Stimuli/Blank.png,0,0,0.0,0,112,112,112,,,,,,,,,,,,,59.75315199999932,0.0031519999993179226,None,89.15554650000013,89.15554650000013,89.15554650000013,89.15554650000013,89.15554650000013,89.15554650000013,89.15554650000013,89.15554650000013,89.15554650000013,89.15554650000013,,008,P019,2025_Mar_21_1047,ConditionRich,2021.2.3,59.93511424489494,
60.0,60.75,39,0.75,Stimuli/P019/things_wire_10s.jpg,0,0,0.0,0,113,113,113,,,,,,,,,,,,,60.00285459999941,0.002854599999409402,None,89.40575739999986,89.40575739999986,89.40575739999986,89.40575739999986,89.40575739999986,89.40575739999986,89.40575739999986,89.40575739999986,89.40575739999986,89.40575739999986,,008,P019,2025_Mar_21_1047,ConditionRich,2021.2.3,59.93511424489494,
60.75,61.0,41,0.0,Stimuli/Blank.png,0,0,0.0,0,114,114,114,,,,,,,,,,,,,60.75353349999932,0.003533499999321066,None,90.15644539999994,90.15644539999994,90.15644539999994,90.15644539999994,90.15644539999994,90.15644539999994,90.15644539999994,90.15644539999994,90.15644539999994,90.15644539999994,,008,P019,2025_Mar_21_1047,ConditionRich,2021.2.3,59.93511424489494,
61.0,61.75,39,0.75,Stimuli/P019/things_wire_10s.jpg,0,0,0.0,0,115,115,115,,,,,,,,,,,,,61.00365740000052,0.0036574000005202834,None,90.4066546999984,90.4066546999984,90.4066546999984,90.4066546999984,90.4066546999984,90.4066546999984,90.4066546999984,90.4066546999984,90.4066546999984,90.4066546999984,,008,P019,2025_Mar_21_1047,ConditionRich,2021.2.3,59.93511424489494,
61.75,62.0,41,0.0,Stimuli/Blank.png,0,0,0.0,0,116,116,116,,,,,,,,,,,,,61.756462600000305,0.006462600000304519,None,91.17400409999937,91.17400409999937,91.17400409999937,91.17400409999937,91.17400409999937,91.17400409999937,91.17400409999937,91.17400409999937,91.17400409999937,91.17400409999937,,008,P019,2025_Mar_21_1047,ConditionRich,2021.2.3,59.93511424489494,
62.0,62.75,39,0.75,Stimuli/P019/things_wire_10s.jpg,0,0,0.0,0,117,117,117,,,,,,,,,,,,,62.022534100000485,0.022534100000484614,None,91.44089709999935,91.44089709999935,91.44089709999935,91.44089709999935,91.44089709999935,91.44089709999935,91.44089709999935,91.44089709999935,91.44089709999935,91.44089709999935,,008,P019,2025_Mar_21_1047,ConditionRich,2021.2.3,59.93511424489494,
62.75,63.0,41,0.0,Stimuli/Blank.png,0,0,0.0,0,118,118,118,,,,,,,,,,,,,62.77206549999937,0.02206549999937124,None,92.1748893999993,92.1748893999993,92.1748893999993,92.1748893999993,92.1748893999993,92.1748893999993,92.1748893999993,92.1748893999993,92.1748893999993,92.1748893999993,,008,P019,2025_Mar_21_1047,ConditionRich,2021.2.3,59.93511424489494,
63.0,63.75,39,0.75,Stimuli/P019/things_wire_10s.jpg,0,0,0.0,0,119,119,119,,,,,,,,,,,,,63.00547170000027,0.005471700000271085,None,92.40842699999848,92.40842699999848,92.40842699999848,92.40842699999848,92.40842699999848,92.40842699999848,92.40842699999848,92.40842699999848,92.40842699999848,92.40842699999848,,008,P019,2025_Mar_21_1047,ConditionRich,2021.2.3,59.93511424489494,
63.75,64.0,41,0.0,Stimuli/Blank.png,0,0,0.0,0,120,120,120,,,,,,,,,,,,,63.75744169999962,0.007441699999617413,None,93.15906109999924,93.15906109999924,93.15906109999924,93.15906109999924,93.15906109999924,93.15906109999924,93.15906109999924,93.15906109999924,93.15906109999924,93.15906109999924,,008,P019,2025_Mar_21_1047,ConditionRich,2021.2.3,59.93511424489494,
64.0,64.75,36,0.75,Stimuli/P019/things_sunroof_10s.jpg,0,0,0.0,0,121,121,121,,,,,,,,,,,,,64.00709800000004,0.007098000000041793,None,93.40930979999939,93.40930979999939,93.40930979999939,93.40930979999939,93.40930979999939,93.40930979999939,93.40930979999939,93.40930979999939,93.40930979999939,93.40930979999939,,008,P019,2025_Mar_21_1047,ConditionRich,2021.2.3,59.93511424489494,
64.75,65.0,41,0.0,Stimuli/Blank.png,0,0,0.0,0,122,122,122,,,,,,,,,,,,,64.75756069999989,0.007560699999885401,None,94.15999120000015,94.15999120000015,94.15999120000015,94.15999120000015,94.15999120000015,94.15999120000015,94.15999120000015,94.15999120000015,94.15999120000015,94.15999120000015,,008,P019,2025_Mar_21_1047,ConditionRich,2021.2.3,59.93511424489494,
65.0,65.75,36,0.75,Stimuli/P019/things_sunroof_10s.jpg,0,0,0.0,0,123,123,123,,,,,,,,,,,,,65.00796300000002,0.007963000000017928,None,94.41019419999975,94.41019419999975,94.41019419999975,94.41019419999975,94.41019419999975,94.41019419999975,94.41019419999975,94.41019419999975,94.41019419999975,94.41019419999975,,008,P019,2025_Mar_21_1047,ConditionRich,2021.2.3,59.93511424489494,
65.75,66.0,41,0.0,Stimuli/Blank.png,0,0,0.0,0,124,124,124,,,,,,,,,,,,,65.75798639999994,0.007986399999936111,None,95.16085190000013,95.16085190000013,95.16085190000013,95.16085190000013,95.16085190000013,95.16085190000013,95.16085190000013,95.16085190000013,95.16085190000013,95.16085190000013,,008,P019,2025_Mar_21_1047,ConditionRich,2021.2.3,59.93511424489494,
66.0,66.75,36,0.75,Stimuli/P019/things_sunroof_10s.jpg,0,0,0.0,0,125,125,125,,,,,,,,,,,,,66.0087908000005,0.008790800000497256,None,95.41107089999969,95.41107089999969,95.41107089999969,95.41107089999969,95.41107089999969,95.41107089999969,95.41107089999969,95.41107089999969,95.41107089999969,95.41107089999969,,008,P019,2025_Mar_21_1047,ConditionRich,2021.2.3,59.93511424489494,
66.75,67.0,41,0.0,Stimuli/Blank.png,0,0,0.0,0,126,126,126,,,,,,,,,,,,,66.75878180000109,0.008781800001088413,None,96.16173589999926,96.16173589999926,96.16173589999926,96.16173589999926,96.16173589999926,96.16173589999926,96.16173589999926,96.16173589999926,96.16173589999926,96.16173589999926,,008,P019,2025_Mar_21_1047,ConditionRich,2021.2.3,59.93511424489494,
67.0,67.75,36,0.75,Stimuli/P019/things_sunroof_10s.jpg,0,0,0.0,0,127,127,127,,,,,,,,,,,,,67.0115464999999,0.011546499999894877,None,96.42865019999954,96.42865019999954,96.42865019999954,96.42865019999954,96.42865019999954,96.42865019999954,96.42865019999954,96.42865019999954,96.42865019999954,96.42865019999954,,008,P019,2025_Mar_21_1047,ConditionRich,2021.2.3,59.93511424489494,
67.75,68.0,41,0.0,Stimuli/Blank.png,0,0,0.0,0,128,128,128,,,,,,,,,,,,,67.77680139999939,0.026801399999385467,None,97.1793018999997,97.1793018999997,97.1793018999997,97.1793018999997,97.1793018999997,97.1793018999997,97.1793018999997,97.1793018999997,97.1793018999997,97.1793018999997,,008,P019,2025_Mar_21_1047,ConditionRich,2021.2.3,59.93511424489494,
68.0,68.75,4,0.75,Stimuli/P019/sun_amixpbnrxiulfsri.jpg,0,0,0.0,0,129,129,129,,,,,,,,,,,,,68.01136059999953,0.011360599999534315,None,97.42952979999973,97.42952979999973,97.42952979999973,97.42952979999973,97.42952979999973,97.42952979999973,97.42952979999973,97.42952979999973,97.42952979999973,97.42952979999973,,008,P019,2025_Mar_21_1047,ConditionRich,2021.2.3,59.93511424489494,
68.75,69.0,41,0.0,Stimuli/Blank.png,0,0,0.0,0,130,130,130,,,,,,,,,,,,,68.77729220000037,0.027292200000374578,None,98.18018349999875,98.18018349999875,98.18018349999875,98.18018349999875,98.18018349999875,98.18018349999875,98.18018349999875,98.18018349999875,98.18018349999875,98.18018349999875,,008,P019,2025_Mar_21_1047,ConditionRich,2021.2.3,59.93511424489494,
69.0,69.75,4,0.75,Stimuli/P019/sun_amixpbnrxiulfsri.jpg,0,0,0.0,0,131,131,131,,,,,,,,,,,,,69.01150410000082,0.011504100000820472,None,98.41373249999924,98.41373249999924,98.41373249999924,98.41373249999924,98.41373249999924,98.41373249999924,98.41373249999924,98.41373249999924,98.41373249999924,98.41373249999924,,008,P019,2025_Mar_21_1047,ConditionRich,2021.2.3,59.93511424489494,
69.75,70.0,41,0.0,Stimuli/Blank.png,0,0,0.0,0,132,132,132,,,,,,,,,,,,,69.76305320000029,0.01305320000028587,None,99.16439489999902,99.16439489999902,99.16439489999902,99.16439489999902,99.16439489999902,99.16439489999902,99.16439489999902,99.16439489999902,99.16439489999902,99.16439489999902,,008,P019,2025_Mar_21_1047,ConditionRich,2021.2.3,59.93511424489494,
70.0,70.75,4,0.75,Stimuli/P019/sun_amixpbnrxiulfsri.jpg,0,0,0.0,0,133,133,133,,,,,,,,,,,,,70.01167420000093,0.011674200000925339,None,99.4146069999988,99.4146069999988,99.4146069999988,99.4146069999988,99.4146069999988,99.4146069999988,99.4146069999988,99.4146069999988,99.4146069999988,99.4146069999988,,008,P019,2025_Mar_21_1047,ConditionRich,2021.2.3,59.93511424489494,
70.75,71.0,41,0.0,Stimuli/Blank.png,0,0,0.0,0,134,134,134,,,,,,,,,,,,,70.76231300000109,0.012313000001086039,None,100.16527659999883,100.16527659999883,100.16527659999883,100.16527659999883,100.16527659999883,100.16527659999883,100.16527659999883,100.16527659999883,100.16527659999883,100.16527659999883,,008,P019,2025_Mar_21_1047,ConditionRich,2021.2.3,59.93511424489494,
71.0,71.75,4,0.75,Stimuli/P019/sun_amixpbnrxiulfsri.jpg,0,0,0.0,0,135,135,135,,,,,,,,,,,,,71.0126865000002,0.012686500000199885,None,100.41550029999962,100.41550029999962,100.41550029999962,100.41550029999962,100.41550029999962,100.41550029999962,100.41550029999962,100.41550029999962,100.41550029999962,100.41550029999962,,008,P019,2025_Mar_21_1047,ConditionRich,2021.2.3,59.93511424489494,
71.75,72.0,41,0.0,Stimuli/Blank.png,0,0,0.0,0,136,136,136,,,,,,,,,,,,,71.76406599999973,0.014065999999729684,None,101.16618369999924,101.16618369999924,101.16618369999924,101.16618369999924,101.16618369999924,101.16618369999924,101.16618369999924,101.16618369999924,101.16618369999924,101.16618369999924,,008,P019,2025_Mar_21_1047,ConditionRich,2021.2.3,59.93511424489494,
72.0,72.75,37,0.75,Stimuli/P019/things_toaster_10s.jpg,0,0,0.0,0,137,137,137,,,,,,,,,,,,,72.01348839999991,0.01348839999991469,None,101.43310849999943,101.43310849999943,101.43310849999943,101.43310849999943,101.43310849999943,101.43310849999943,101.43310849999943,101.43310849999943,101.43310849999943,101.43310849999943,,008,P019,2025_Mar_21_1047,ConditionRich,2021.2.3,59.93511424489494,
72.75,73.0,41,0.0,Stimuli/Blank.png,0,0,0.0,0,138,138,138,,,,,,,,,,,,,72.78092359999937,0.03092359999936889,None,102.18378229999871,102.18378229999871,102.18378229999871,102.18378229999871,102.18378229999871,102.18378229999871,102.18378229999871,102.18378229999871,102.18378229999871,102.18378229999871,,008,P019,2025_Mar_21_1047,ConditionRich,2021.2.3,59.93511424489494,
73.0,73.75,37,0.75,Stimuli/P019/things_toaster_10s.jpg,0,0,0.0,0,139,139,139,,,,,,,,,,,,,73.01663200000075,0.016632000000754488,None,102.43395959999907,102.43395959999907,102.43395959999907,102.43395959999907,102.43395959999907,102.43395959999907,102.43395959999907,102.43395959999907,102.43395959999907,102.43395959999907,,008,P019,2025_Mar_21_1047,ConditionRich,2021.2.3,59.93511424489494,
73.75,74.0,41,0.0,Stimuli/Blank.png,0,0,0.0,0,140,140,140,,,,,,,,,,,,,73.76594789999945,0.015947899999446236,None,103.16793499999949,103.16793499999949,103.16793499999949,103.16793499999949,103.16793499999949,103.16793499999949,103.16793499999949,103.16793499999949,103.16793499999949,103.16793499999949,,008,P019,2025_Mar_21_1047,ConditionRich,2021.2.3,59.93511424489494,
74.0,74.75,37,0.75,Stimuli/P019/things_toaster_10s.jpg,0,0,0.0,0,141,141,141,,,,,,,,,,,,,73.99868109999989,-0.0013189000001148088,None,103.40146719999939,103.40146719999939,103.40146719999939,103.40146719999939,103.40146719999939,103.40146719999939,103.40146719999939,103.40146719999939,103.40146719999939,103.40146719999939,,008,P019,2025_Mar_21_1047,ConditionRich,2021.2.3,59.93511424489494,
74.75,75.0,41,0.0,Stimuli/Blank.png,0,0,0.0,0,142,142,142,,,,,,,,,,,,,74.7492156999997,-0.0007843000003049383,None,104.15212859999883,104.15212859999883,104.15212859999883,104.15212859999883,104.15212859999883,104.15212859999883,104.15212859999883,104.15212859999883,104.15212859999883,104.15212859999883,,008,P019,2025_Mar_21_1047,ConditionRich,2021.2.3,59.93511424489494,
75.0,75.75,37,0.75,Stimuli/P019/things_toaster_10s.jpg,0,0,0.0,0,143,143,143,,,,,,,,,,,,,75.00054400000045,0.0005440000004455214,None,104.40235219999886,104.40235219999886,104.40235219999886,104.40235219999886,104.40235219999886,104.40235219999886,104.40235219999886,104.40235219999886,104.40235219999886,104.40235219999886,,008,P019,2025_Mar_21_1047,ConditionRich,2021.2.3,59.93511424489494,
75.75,76.0,41,0.0,Stimuli/Blank.png,0,0,0.0,0,144,144,144,,,,,,,,,,,,,75.75117820000014,0.0011782000001403503,None,105.15302429999974,105.15302429999974,105.15302429999974,105.15302429999974,105.15302429999974,105.15302429999974,105.15302429999974,105.15302429999974,105.15302429999974,105.15302429999974,,008,P019,2025_Mar_21_1047,ConditionRich,2021.2.3,59.93511424489494,
76.0,76.75,7,0.75,Stimuli/P019/sun_aqkbfuonyunmyqxb.jpg,0,0,0.0,0,145,145,145,,,,,,,,,,,,,76.00220310000077,0.002203100000770064,None,105.41991749999943,105.41991749999943,105.41991749999943,105.41991749999943,105.41991749999943,105.41991749999943,105.41991749999943,105.41991749999943,105.41991749999943,105.41991749999943,,008,P019,2025_Mar_21_1047,ConditionRich,2021.2.3,59.93511424489494,
76.75,77.0,41,0.0,Stimuli/Blank.png,0,0,0.0,0,146,146,146,,,,,,,,,,,,,76.76792019999993,0.017920199999934994,None,106.17058849999921,106.17058849999921,106.17058849999921,106.17058849999921,106.17058849999921,106.17058849999921,106.17058849999921,106.17058849999921,106.17058849999921,106.17058849999921,,008,P019,2025_Mar_21_1047,ConditionRich,2021.2.3,59.93511424489494,
77.0,77.75,7,0.75,Stimuli/P019/sun_aqkbfuonyunmyqxb.jpg,0,0,0.0,0,147,147,147,,,,,,,,,,,,,77.00186399999984,0.001863999999841326,None,106.42083379999895,106.42083379999895,106.42083379999895,106.42083379999895,106.42083379999895,106.42083379999895,106.42083379999895,106.42083379999895,106.42083379999895,106.42083379999895,,008,P019,2025_Mar_21_1047,ConditionRich,2021.2.3,59.93511424489494,
77.75,78.0,41,0.0,Stimuli/Blank.png,0,0,0.0,0,148,148,148,,,,,,,,,,,,,77.77161809999961,0.02161809999961406,None,107.18816479999987,107.18816479999987,107.18816479999987,107.18816479999987,107.18816479999987,107.18816479999987,107.18816479999987,107.18816479999987,107.18816479999987,107.18816479999987,,008,P019,2025_Mar_21_1047,ConditionRich,2021.2.3,59.93511424489494,
78.0,78.75,7,0.75,Stimuli/P019/sun_aqkbfuonyunmyqxb.jpg,0,0,0.0,0,149,149,149,,,,,,,,,,,,,78.01979849999952,0.01979849999952421,None,107.43836699999883,107.43836699999883,107.43836699999883,107.43836699999883,107.43836699999883,107.43836699999883,107.43836699999883,107.43836699999883,107.43836699999883,107.43836699999883,,008,P019,2025_Mar_21_1047,ConditionRich,2021.2.3,59.93511424489494,
78.75,79.0,41,0.0,Stimuli/Blank.png,0,0,0.0,0,150,150,150,,,,,,,,,,,,,78.77087019999999,0.02087019999999029,None,108.17235679999976,108.17235679999976,108.17235679999976,108.17235679999976,108.17235679999976,108.17235679999976,108.17235679999976,108.17235679999976,108.17235679999976,108.17235679999976,,008,P019,2025_Mar_21_1047,ConditionRich,2021.2.3,59.93511424489494,
79.0,79.75,7,0.75,Stimuli/P019/sun_aqkbfuonyunmyqxb.jpg,0,0,0.0,0,151,151,151,,,,,,,,,,,,,79.00382660000105,0.003826600001048064,None,108.40589809999983,108.40589809999983,108.40589809999983,108.40589809999983,108.40589809999983,108.40589809999983,108.40589809999983,108.40589809999983,108.40589809999983,108.40589809999983,,008,P019,2025_Mar_21_1047,ConditionRich,2021.2.3,59.93511424489494,
79.75,80.0,41,0.0,Stimuli/Blank.png,0,0,0.0,0,152,152,152,,,,,,,,,,,,,79.75663770000028,0.0066377000002830755,None,109.17324359999839,109.17324359999839,109.17324359999839,109.17324359999839,109.17324359999839,109.17324359999839,109.17324359999839,109.17324359999839,109.17324359999839,109.17324359999839,,008,P019,2025_Mar_21_1047,ConditionRich,2021.2.3,59.93511424489494,
80.0,80.75,35,0.75,Stimuli/P019/things_pretzel_10s.jpg,0,0,0.0,0,153,153,153,,,,,,,,,,,,,80.02154520000113,0.02154520000112825,None,109.44014219999917,109.44014219999917,109.44014219999917,109.44014219999917,109.44014219999917,109.44014219999917,109.44014219999917,109.44014219999917,109.44014219999917,109.44014219999917,,008,P019,2025_Mar_21_1047,ConditionRich,2021.2.3,59.93511424489494,
80.75,81.0,41,0.0,Stimuli/Blank.png,0,0,0.0,0,154,154,154,,,,,,,,,,,,,80.77111329999934,0.021113299999342416,None,110.17412960000001,110.17412960000001,110.17412960000001,110.17412960000001,110.17412960000001,110.17412960000001,110.17412960000001,110.17412960000001,110.17412960000001,110.17412960000001,,008,P019,2025_Mar_21_1047,ConditionRich,2021.2.3,59.93511424489494,
81.0,81.75,35,0.75,Stimuli/P019/things_pretzel_10s.jpg,0,0,0.0,0,155,155,155,,,,,,,,,,,,,81.0076609000007,0.007660900000701076,None,110.42434119999962,110.42434119999962,110.42434119999962,110.42434119999962,110.42434119999962,110.42434119999962,110.42434119999962,110.42434119999962,110.42434119999962,110.42434119999962,,008,P019,2025_Mar_21_1047,ConditionRich,2021.2.3,59.93511424489494,
81.75,82.0,41,0.0,Stimuli/Blank.png,0,0,0.0,0,156,156,156,,,,,,,,,,,,,81.77321669999947,0.023216699999466073,None,111.17499859999953,111.17499859999953,111.17499859999953,111.17499859999953,111.17499859999953,111.17499859999953,111.17499859999953,111.17499859999953,111.17499859999953,111.17499859999953,,008,P019,2025_Mar_21_1047,ConditionRich,2021.2.3,59.93511424489494,
82.0,82.75,35,0.75,Stimuli/P019/things_pretzel_10s.jpg,0,0,0.0,0,157,157,157,,,,,,,,,,,,,82.00633820000076,0.006338200000755023,None,111.40854609999951,111.40854609999951,111.40854609999951,111.40854609999951,111.40854609999951,111.40854609999951,111.40854609999951,111.40854609999951,111.40854609999951,111.40854609999951,,008,P019,2025_Mar_21_1047,ConditionRich,2021.2.3,59.93511424489494,
82.75,83.0,41,0.0,Stimuli/Blank.png,0,0,0.0,0,158,158,158,,,,,,,,,,,,,82.75630830000046,0.006308300000455347,None,112.15919509999912,112.15919509999912,112.15919509999912,112.15919509999912,112.15919509999912,112.15919509999912,112.15919509999912,112.15919509999912,112.15919509999912,112.15919509999912,,008,P019,2025_Mar_21_1047,ConditionRich,2021.2.3,59.93511424489494,
83.0,83.75,35,0.75,Stimuli/P019/things_pretzel_10s.jpg,0,0,0.0,0,159,159,159,,,,,,,,,,,,,83.00797690000036,0.007976900000358,None,112.42614519999916,112.42614519999916,112.42614519999916,112.42614519999916,112.42614519999916,112.42614519999916,112.42614519999916,112.42614519999916,112.42614519999916,112.42614519999916,,008,P019,2025_Mar_21_1047,ConditionRich,2021.2.3,59.93511424489494,
83.75,84.0,41,0.0,Stimuli/Blank.png,0,0,0.0,0,160,160,160,,,,,,,,,,,,,83.77658519999932,0.02658519999931741,None,113.19347019999987,113.19347019999987,113.19347019999987,113.19347019999987,113.19347019999987,113.19347019999987,113.19347019999987,113.19347019999987,113.19347019999987,113.19347019999987,,008,P019,2025_Mar_21_1047,ConditionRich,2021.2.3,59.93511424489494,
84.0,100.0,0,0.0,Stimuli/Blank.png,1,13,13.75,0,161,161,161,,,,,,,,,,,,,84.02554749999945,0.02554749999944761,1,113.42701569999917,113.42701569999917,113.42701569999917,113.42701569999917,113.42701569999917,113.42701569999917,126.42184979999911,127.17250039999999,113.42701569999917,113.42701569999917,13.450385300000562,008,P019,2025_Mar_21_1047,ConditionRich,2021.2.3,59.93511424489494,
100.0,100.75,22,0.75,Stimuli/P019/things_bead_10s.jpg,0,0,0.0,0,162,162,162,,,,,,,,,,,,,100.00523319999957,0.005233199999565841,None,129.40778129999853,129.40778129999853,129.40778129999853,129.40778129999853,129.40778129999853,129.40778129999853,129.40778129999853,129.40778129999853,129.40778129999853,129.40778129999853,,008,P019,2025_Mar_21_1047,ConditionRich,2021.2.3,59.93511424489494,
100.75,101.0,41,0.0,Stimuli/Blank.png,0,0,0.0,0,163,163,163,,,,,,,,,,,,,100.75557870000011,0.0055787000001146225,None,130.1584884999993,130.1584884999993,130.1584884999993,130.1584884999993,130.1584884999993,130.1584884999993,130.1584884999993,130.1584884999993,130.1584884999993,130.1584884999993,,008,P019,2025_Mar_21_1047,ConditionRich,2021.2.3,59.93511424489494,
101.0,101.75,22,0.75,Stimuli/P019/things_bead_10s.jpg,1,0,0.75,0,164,164,164,,,,,,,,,,,,,101.00630590000037,0.006305900000370457,1,130.40872750000017,130.40872750000017,130.40872750000017,130.40872750000017,130.40872750000017,130.40872750000017,130.40872750000017,131.1426879999999,130.40872750000017,130.40872750000017,0.46373899999889545,008,P019,2025_Mar_21_1047,ConditionRich,2021.2.3,59.93511424489494,
101.75,102.0,41,0.0,Stimuli/Blank.png,0,0,0.0,0,165,165,165,,,,,,,,,,,,,101.75742700000046,0.007427000000461703,None,131.1593342999986,131.1593342999986,131.1593342999986,131.1593342999986,131.1593342999986,131.1593342999986,131.1593342999986,131.1593342999986,131.1593342999986,131.1593342999986,,008,P019,2025_Mar_21_1047,ConditionRich,2021.2.3,59.93511424489494,
102.0,102.75,22,0.75,Stimuli/P019/things_bead_10s.jpg,0,0,0.0,0,166,166,166,,,,,,,,,,,,,102.00690899999972,0.006908999999723164,None,131.40954179999972,131.40954179999972,131.40954179999972,131.40954179999972,131.40954179999972,131.40954179999972,131.40954179999972,131.40954179999972,131.40954179999972,131.40954179999972,,008,P019,2025_Mar_21_1047,ConditionRich,2021.2.3,59.93511424489494,
102.75,103.0,41,0.0,Stimuli/Blank.png,0,0,0.0,0,167,167,167,,,,,,,,,,,,,102.75824900000043,0.008249000000432716,None,132.16021389999878,132.16021389999878,132.16021389999878,132.16021389999878,132.16021389999878,132.16021389999878,132.16021389999878,132.16021389999878,132.16021389999878,132.16021389999878,,008,P019,2025_Mar_21_1047,ConditionRich,2021.2.3,59.93511424489494,
103.0,103.75,22,0.75,Stimuli/P019/things_bead_10s.jpg,0,0,0.0,0,168,168,168,,,,,,,,,,,,,103.00751409999975,0.007514099999752943,None,132.41043170000012,132.41043170000012,132.41043170000012,132.41043170000012,132.41043170000012,132.41043170000012,132.41043170000012,132.41043170000012,132.41043170000012,132.41043170000012,,008,P019,2025_Mar_21_1047,ConditionRich,2021.2.3,59.93511424489494,
103.75,104.0,41,0.0,Stimuli/Blank.png,0,0,0.0,0,169,169,169,,,,,,,,,,,,,103.75910210000075,0.00910210000074585,None,133.16111159999855,133.16111159999855,133.16111159999855,133.16111159999855,133.16111159999855,133.16111159999855,133.16111159999855,133.16111159999855,133.16111159999855,133.16111159999855,,008,P019,2025_Mar_21_1047,ConditionRich,2021.2.3,59.93511424489494,
104.0,104.75,12,0.75,Stimuli/P019/sun_bgjrtiivbwugxhxp.jpg,0,0,0.0,0,170,170,170,,,,,,,,,,,,,104.00978489999943,0.009784899999431218,None,133.428039299999,133.428039299999,133.428039299999,133.428039299999,133.428039299999,133.428039299999,133.428039299999,133.428039299999,133.428039299999,133.428039299999,,008,P019,2025_Mar_21_1047,ConditionRich,2021.2.3,59.93511424489494,
104.75,105.0,41,0.0,Stimuli/Blank.png,0,0,0.0,0,171,171,171,,,,,,,,,,,,,104.77573450000091,0.025734500000908156,None,134.17863020000004,134.17863020000004,134.17863020000004,134.17863020000004,134.17863020000004,134.17863020000004,134.17863020000004,134.17863020000004,134.17863020000004,134.17863020000004,,008,P019,2025_Mar_21_1047,ConditionRich,2021.2.3,59.93511424489494,
105.0,105.75,12,0.75,Stimuli/P019/sun_bgjrtiivbwugxhxp.jpg,0,0,0.0,0,172,172,172,,,,,,,,,,,,,105.01084740000078,0.010847400000784546,None,134.42888439999842,134.42888439999842,134.42888439999842,134.42888439999842,134.42888439999842,134.42888439999842,134.42888439999842,134.42888439999842,134.42888439999842,134.42888439999842,,008,P019,2025_Mar_21_1047,ConditionRich,2021.2.3,59.93511424489494,
105.75,106.0,41,0.0,Stimuli/Blank.png,0,0,0.0,0,173,173,173,,,,,,,,,,,,,105.77727489999961,0.02727489999961108,None,135.17955639999855,135.17955639999855,135.17955639999855,135.17955639999855,135.17955639999855,135.17955639999855,135.17955639999855,135.17955639999855,135.17955639999855,135.17955639999855,,008,P019,2025_Mar_21_1047,ConditionRich,2021.2.3,59.93511424489494,
106.0,106.75,12,0.75,Stimuli/P019/sun_bgjrtiivbwugxhxp.jpg,0,0,0.0,0,174,174,174,,,,,,,,,,,,,106.0128292999998,0.012829299999793875,None,135.42977429999883,135.42977429999883,135.42977429999883,135.42977429999883,135.42977429999883,135.42977429999883,135.42977429999883,135.42977429999883,135.42977429999883,135.42977429999883,,008,P019,2025_Mar_21_1047,ConditionRich,2021.2.3,59.93511424489494,
106.75,107.0,41,0.0,Stimuli/Blank.png,0,0,0.0,0,175,175,175,,,,,,,,,,,,,106.777524000001,0.02752400000099442,None,136.18043709999984,136.18043709999984,136.18043709999984,136.18043709999984,136.18043709999984,136.18043709999984,136.18043709999984,136.18043709999984,136.18043709999984,136.18043709999984,,008,P019,2025_Mar_21_1047,ConditionRich,2021.2.3,59.93511424489494,
107.0,107.75,12,0.75,Stimuli/P019/sun_bgjrtiivbwugxhxp.jpg,0,0,0.0,0,176,176,176,,,,,,,,,,,,,107.01246790000005,0.012467900000046939,None,136.43065500000012,136.43065500000012,136.43065500000012,136.43065500000012,136.43065500000012,136.43065500000012,136.43065500000012,136.43065500000012,136.43065500000012,136.43065500000012,,008,P019,2025_Mar_21_1047,ConditionRich,2021.2.3,59.93511424489494,
107.75,108.0,41,0.0,Stimuli/Blank.png,0,0,0.0,0,177,177,177,,,,,,,,,,,,,107.77834190000067,0.02834190000066883,None,137.18131659999926,137.18131659999926,137.18131659999926,137.18131659999926,137.18131659999926,137.18131659999926,137.18131659999926,137.18131659999926,137.18131659999926,137.18131659999926,,008,P019,2025_Mar_21_1047,ConditionRich,2021.2.3,59.93511424489494,
108.0,108.75,25,0.75,Stimuli/P019/things_chime_10s.jpg,0,0,0.0,0,178,178,178,,,,,,,,,,,,,108.01191669999935,0.011916699999346747,None,137.41486009999971,137.41486009999971,137.41486009999971,137.41486009999971,137.41486009999971,137.41486009999971,137.41486009999971,137.41486009999971,137.41486009999971,137.41486009999971,,008,P019,2025_Mar_21_1047,ConditionRich,2021.2.3,59.93511424489494,
108.75,109.0,41,0.0,Stimuli/Blank.png,0,0,0.0,0,179,179,179,,,,,,,,,,,,,108.76270490000024,0.012704900000244379,None,138.16551489999983,138.16551489999983,138.16551489999983,138.16551489999983,138.16551489999983,138.16551489999983,138.16551489999983,138.16551489999983,138.16551489999983,138.16551489999983,,008,P019,2025_Mar_21_1047,ConditionRich,2021.2.3,59.93511424489494,
109.0,109.75,25,0.75,Stimuli/P019/things_chime_10s.jpg,0,0,0.0,0,180,180,180,,,,,,,,,,,,,109.01292719999947,0.01292719999946712,None,138.41573489999973,138.41573489999973,138.41573489999973,138.41573489999973,138.41573489999973,138.41573489999973,138.41573489999973,138.41573489999973,138.41573489999973,138.41573489999973,,008,P019,2025_Mar_21_1047,ConditionRich,2021.2.3,59.93511424489494,
109.75,110.0,41,0.0,Stimuli/Blank.png,0,0,0.0,0,181,181,181,,,,,,,,,,,,,109.76367310000023,0.013673100000232807,None,139.1664080999999,139.1664080999999,139.1664080999999,139.1664080999999,139.1664080999999,139.1664080999999,139.1664080999999,139.1664080999999,139.1664080999999,139.1664080999999,,008,P019,2025_Mar_21_1047,ConditionRich,2021.2.3,59.93511424489494,
110.0,110.75,25,0.75,Stimuli/P019/things_chime_10s.jpg,0,0,0.0,0,182,182,182,,,,,,,,,,,,,110.01461980000022,0.014619800000218675,None,139.41662879999967,139.41662879999967,139.41662879999967,139.41662879999967,139.41662879999967,139.41662879999967,139.41662879999967,139.41662879999967,139.41662879999967,139.41662879999967,,008,P019,2025_Mar_21_1047,ConditionRich,2021.2.3,59.93511424489494,
110.75,111.0,41,0.0,Stimuli/Blank.png,0,0,0.0,0,183,183,183,,,,,,,,,,,,,110.76671220000026,0.016712200000256416,None,140.1839803999992,140.1839803999992,140.1839803999992,140.1839803999992,140.1839803999992,140.1839803999992,140.1839803999992,140.1839803999992,140.1839803999992,140.1839803999992,,008,P019,2025_Mar_21_1047,ConditionRich,2021.2.3,59.93511424489494,
111.0,111.75,25,0.75,Stimuli/P019/things_chime_10s.jpg,0,0,0.0,0,184,184,184,,,,,,,,,,,,,111.01585420000083,0.015854200000831042,None,140.43419559999893,140.43419559999893,140.43419559999893,140.43419559999893,140.43419559999893,140.43419559999893,140.43419559999893,140.43419559999893,140.43419559999893,140.43419559999893,,008,P019,2025_Mar_21_1047,ConditionRich,2021.2.3,59.93511424489494,
111.75,112.0,41,0.0,Stimuli/Blank.png,0,0,0.0,0,185,185,185,,,,,,,,,,,,,111.76526980000017,0.015269800000169198,None,141.16821960000016,141.16821960000016,141.16821960000016,141.16821960000016,141.16821960000016,141.16821960000016,141.16821960000016,141.16821960000016,141.16821960000016,141.16821960000016,,008,P019,2025_Mar_21_1047,ConditionRich,2021.2.3,59.93511424489494,
112.0,112.75,11,0.75,Stimuli/P019/sun_bcbfjkoziukwmdkd.jpg,0,0,0.0,0,186,186,186,,,,,,,,,,,,,112.0156134000008,0.015613400000802358,None,141.41837039999882,141.41837039999882,141.41837039999882,141.41837039999882,141.41837039999882,141.41837039999882,141.41837039999882,141.41837039999882,141.41837039999882,141.41837039999882,,008,P019,2025_Mar_21_1047,ConditionRich,2021.2.3,59.93511424489494,
112.75,113.0,41,0.0,Stimuli/Blank.png,0,0,0.0,0,187,187,187,,,,,,,,,,,,,112.75194399999964,0.0019439999996393453,None,142.16907209999954,142.16907209999954,142.16907209999954,142.16907209999954,142.16907209999954,142.16907209999954,142.16907209999954,142.16907209999954,142.16907209999954,142.16907209999954,,008,P019,2025_Mar_21_1047,ConditionRich,2021.2.3,59.93511424489494,
113.0,113.75,11,0.75,Stimuli/P019/sun_bcbfjkoziukwmdkd.jpg,0,0,0.0,0,188,188,188,,,,,,,,,,,,,113.0164549000001,0.01645490000009886,None,142.4192794999999,142.4192794999999,142.4192794999999,142.4192794999999,142.4192794999999,142.4192794999999,142.4192794999999,142.4192794999999,142.4192794999999,142.4192794999999,,008,P019,2025_Mar_21_1047,ConditionRich,2021.2.3,59.93511424489494,
113.75,114.0,41,0.0,Stimuli/Blank.png,0,0,0.0,0,189,189,189,,,,,,,,,,,,,113.75098489999982,0.0009848999998212093,None,143.15328289999889,143.15328289999889,143.15328289999889,143.15328289999889,143.15328289999889,143.15328289999889,143.15328289999889,143.15328289999889,143.15328289999889,143.15328289999889,,008,P019,2025_Mar_21_1047,ConditionRich,2021.2.3,59.93511424489494,
114.0,114.75,11,0.75,Stimuli/P019/sun_bcbfjkoziukwmdkd.jpg,0,0,0.0,0,190,190,190,,,,,,,,,,,,,114.00104950000059,0.001049500000590342,None,143.40347539999857,143.40347539999857,143.40347539999857,143.40347539999857,143.40347539999857,143.40347539999857,143.40347539999857,143.40347539999857,143.40347539999857,143.40347539999857,,008,P019,2025_Mar_21_1047,ConditionRich,2021.2.3,59.93511424489494,
114.75,115.0,41,0.0,Stimuli/Blank.png,0,0,0.0,0,191,191,191,,,,,,,,,,,,,114.75178770000093,0.001787700000932091,None,144.15414950000013,144.15414950000013,144.15414950000013,144.15414950000013,144.15414950000013,144.15414950000013,144.15414950000013,144.15414950000013,144.15414950000013,144.15414950000013,,008,P019,2025_Mar_21_1047,ConditionRich,2021.2.3,59.93511424489494,
115.0,115.75,11,0.75,Stimuli/P019/sun_bcbfjkoziukwmdkd.jpg,0,0,0.0,0,192,192,192,,,,,,,,,,,,,115.00231350000104,0.0023135000010370277,None,144.4210654999988,144.4210654999988,144.4210654999988,144.4210654999988,144.4210654999988,144.4210654999988,144.4210654999988,144.4210654999988,144.4210654999988,144.4210654999988,,008,P019,2025_Mar_21_1047,ConditionRich,2021.2.3,59.93511424489494,
115.75,116.0,41,0.0,Stimuli/Blank.png,0,0,0.0,0,193,193,193,,,,,,,,,,,,,115.76964609999959,0.01964609999959066,None,145.17180550000012,145.17180550000012,145.17180550000012,145.17180550000012,145.17180550000012,145.17180550000012,145.17180550000012,145.17180550000012,145.17180550000012,145.17180550000012,,008,P019,2025_Mar_21_1047,ConditionRich,2021.2.3,59.93511424489494,
116.0,116.75,31,0.75,Stimuli/P019/things_fudge_10s.jpg,0,0,0.0,0,194,194,194,,,,,,,,,,,,,116.00240400000075,0.0024040000007516937,None,145.4052627000001,145.4052627000001,145.4052627000001,145.4052627000001,145.4052627000001,145.4052627000001,145.4052627000001,145.4052627000001,145.4052627000001,145.4052627000001,,008,P019,2025_Mar_21_1047,ConditionRich,2021.2.3,59.93511424489494,
116.75,117.0,41,0.0,Stimuli/Blank.png,0,0,0.0,0,195,195,195,,,,,,,,,,,,,116.7531927,0.003192699999999604,None,146.1559140999998,146.1559140999998,146.1559140999998,146.1559140999998,146.1559140999998,146.1559140999998,146.1559140999998,146.1559140999998,146.1559140999998,146.1559140999998,,008,P019,2025_Mar_21_1047,ConditionRich,2021.2.3,59.93511424489494,
117.0,117.75,31,0.75,Stimuli/P019/things_fudge_10s.jpg,0,0,0.0,0,196,196,196,,,,,,,,,,,,,117.00482109999939,0.004821099999389844,None,146.4228153999993,146.4228153999993,146.4228153999993,146.4228153999993,146.4228153999993,146.4228153999993,146.4228153999993,146.4228153999993,146.4228153999993,146.4228153999993,,008,P019,2025_Mar_21_1047,ConditionRich,2021.2.3,59.93511424489494,
117.75,118.0,41,0.0,Stimuli/Blank.png,0,0,0.0,0,197,197,197,,,,,,,,,,,,,117.77119959999982,0.02119959999981802,None,147.1734949999991,147.1734949999991,147.1734949999991,147.1734949999991,147.1734949999991,147.1734949999991,147.1734949999991,147.1734949999991,147.1734949999991,147.1734949999991,,008,P019,2025_Mar_21_1047,ConditionRich,2021.2.3,59.93511424489494,
118.0,118.75,31,0.75,Stimuli/P019/things_fudge_10s.jpg,0,0,0.0,0,198,198,198,,,,,,,,,,,,,118.00404829999934,0.004048299999340088,None,147.42371429999912,147.42371429999912,147.42371429999912,147.42371429999912,147.42371429999912,147.42371429999912,147.42371429999912,147.42371429999912,147.42371429999912,147.42371429999912,,008,P019,2025_Mar_21_1047,ConditionRich,2021.2.3,59.93511424489494,
118.75,119.0,41,0.0,Stimuli/Blank.png,0,0,0.0,0,199,199,199,,,,,,,,,,,,,118.77214529999947,0.02214529999946535,None,148.17436420000013,148.17436420000013,148.17436420000013,148.17436420000013,148.17436420000013,148.17436420000013,148.17436420000013,148.17436420000013,148.17436420000013,148.17436420000013,,008,P019,2025_Mar_21_1047,ConditionRich,2021.2.3,59.93511424489494,
119.0,119.75,31,0.75,Stimuli/P019/things_fudge_10s.jpg,1,0,0.75,0,200,200,200,,,,,,,,,,,,,119.00696890000108,0.006968900001083966,1,148.4246048999994,148.4246048999994,148.4246048999994,148.4246048999994,148.4246048999994,148.4246048999994,148.4246048999994,149.15863139999965,148.4246048999994,148.4246048999994,0.4451783999993495,008,P019,2025_Mar_21_1047,ConditionRich,2021.2.3,59.93511424489494,
119.75,120.0,41,0.0,Stimuli/Blank.png,0,0,0.0,0,201,201,201,,,,,,,,,,,,,119.77255590000095,0.022555900000952533,None,149.1752891999986,149.1752891999986,149.1752891999986,149.1752891999986,149.1752891999986,149.1752891999986,149.1752891999986,149.1752891999986,149.1752891999986,149.1752891999986,,008,P019,2025_Mar_21_1047,ConditionRich,2021.2.3,59.93511424489494,
120.0,120.75,10,0.75,Stimuli/P019/sun_bblqhrudkospnbbv.jpg,0,0,0.0,0,202,202,202,,,,,,,,,,,,,120.00692859999981,0.006928599999810103,None,149.40879139999925,149.40879139999925,149.40879139999925,149.40879139999925,149.40879139999925,149.40879139999925,149.40879139999925,149.40879139999925,149.40879139999925,149.40879139999925,,008,P019,2025_Mar_21_1047,ConditionRich,2021.2.3,59.93511424489494,
120.75,121.0,41,0.0,Stimuli/Blank.png,0,0,0.0,0,203,203,203,,,,,,,,,,,,,120.75781769999958,0.007817699999577599,None,150.17618719999882,150.17618719999882,150.17618719999882,150.17618719999882,150.17618719999882,150.17618719999882,150.17618719999882,150.17618719999882,150.17618719999882,150.17618719999882,,008,P019,2025_Mar_21_1047,ConditionRich,2021.2.3,59.93511424489494,
121.0,121.75,10,0.75,Stimuli/P019/sun_bblqhrudkospnbbv.jpg,0,0,0.0,0,204,204,204,,,,,,,,,,,,,121.02444230000037,0.024442300000373507,None,150.44303839999884,150.44303839999884,150.44303839999884,150.44303839999884,150.44303839999884,150.44303839999884,150.44303839999884,150.44303839999884,150.44303839999884,150.44303839999884,,008,P019,2025_Mar_21_1047,ConditionRich,2021.2.3,59.93511424489494,
121.75,122.0,41,0.0,Stimuli/Blank.png,0,0,0.0,0,205,205,205,,,,,,,,,,,,,121.77678109999943,0.02678109999942535,None,151.1937227999988,151.1937227999988,151.1937227999988,151.1937227999988,151.1937227999988,151.1937227999988,151.1937227999988,151.1937227999988,151.1937227999988,151.1937227999988,,008,P019,2025_Mar_21_1047,ConditionRich,2021.2.3,59.93511424489494,
122.0,122.75,10,0.75,Stimuli/P019/sun_bblqhrudkospnbbv.jpg,0,0,0.0,0,206,206,206,,,,,,,,,,,,,122.02652330000092,0.026523300000917516,None,151.44393579999996,151.44393579999996,151.44393579999996,151.44393579999996,151.44393579999996,151.44393579999996,151.44393579999996,151.44393579999996,151.44393579999996,151.44393579999996,,008,P019,2025_Mar_21_1047,ConditionRich,2021.2.3,59.93511424489494,
122.75,123.0,41,0.0,Stimuli/Blank.png,0,0,0.0,0,207,207,207,,,,,,,,,,,,,122.77713229999972,0.027132299999721,None,152.19458189999932,152.19458189999932,152.19458189999932,152.19458189999932,152.19458189999932,152.19458189999932,152.19458189999932,152.19458189999932,152.19458189999932,152.19458189999932,,008,P019,2025_Mar_21_1047,ConditionRich,2021.2.3,59.93511424489494,
123.0,123.75,10,0.75,Stimuli/P019/sun_bblqhrudkospnbbv.jpg,0,0,0.0,0,208,208,208,,,,,,,,,,,,,123.0253173000001,0.02531730000009702,None,152.42812479999884,152.42812479999884,152.42812479999884,152.42812479999884,152.42812479999884,152.42812479999884,152.42812479999884,152.42812479999884,152.42812479999884,152.42812479999884,,008,P019,2025_Mar_21_1047,ConditionRich,2021.2.3,59.93511424489494,
123.75,124.0,41,0.0,Stimuli/Blank.png,0,0,0.0,0,209,209,209,,,,,,,,,,,,,123.76184099999955,0.01184099999954924,None,153.17880369999875,153.17880369999875,153.17880369999875,153.17880369999875,153.17880369999875,153.17880369999875,153.17880369999875,153.17880369999875,153.17880369999875,153.17880369999875,,008,P019,2025_Mar_21_1047,ConditionRich,2021.2.3,59.93511424489494,
124.0,124.75,9,0.75,Stimuli/P019/sun_bbfmuujfvpiaqdww.jpg,0,0,0.0,0,210,210,210,,,,,,,,,,,,,124.02606419999938,0.026064199999382254,None,153.4290105,153.4290105,153.4290105,153.4290105,153.4290105,153.4290105,153.4290105,153.4290105,153.4290105,153.4290105,,008,P019,2025_Mar_21_1047,ConditionRich,2021.2.3,59.93511424489494,
124.75,125.0,41,0.0,Stimuli/Blank.png,0,0,0.0,0,211,211,211,,,,,,,,,,,,,124.76270880000084,0.012708800000837073,None,154.17969939999966,154.17969939999966,154.17969939999966,154.17969939999966,154.17969939999966,154.17969939999966,154.17969939999966,154.17969939999966,154.17969939999966,154.17969939999966,,008,P019,2025_Mar_21_1047,ConditionRich,2021.2.3,59.93511424489494,
125.0,125.75,9,0.75,Stimuli/P019/sun_bbfmuujfvpiaqdww.jpg,0,0,0.0,0,212,212,212,,,,,,,,,,,,,125.02771320000102,0.027713200001016958,None,154.4298934999988,154.4298934999988,154.4298934999988,154.4298934999988,154.4298934999988,154.4298934999988,154.4298934999988,154.4298934999988,154.4298934999988,154.4298934999988,,008,P019,2025_Mar_21_1047,ConditionRich,2021.2.3,59.93511424489494,
125.75,126.0,41,0.0,Stimuli/Blank.png,0,0,0.0,0,213,213,213,,,,,,,,,,,,,125.76255780000065,0.012557800000649877,None,155.18056780000006,155.18056780000006,155.18056780000006,155.18056780000006,155.18056780000006,155.18056780000006,155.18056780000006,155.18056780000006,155.18056780000006,155.18056780000006,,008,P019,2025_Mar_21_1047,ConditionRich,2021.2.3,59.93511424489494,
126.0,126.75,9,0.75,Stimuli/P019/sun_bbfmuujfvpiaqdww.jpg,0,0,0.0,0,214,214,214,,,,,,,,,,,,,126.02854740000112,0.02854740000111633,None,155.4307699000001,155.4307699000001,155.4307699000001,155.4307699000001,155.4307699000001,155.4307699000001,155.4307699000001,155.4307699000001,155.4307699000001,155.4307699000001,,008,P019,2025_Mar_21_1047,ConditionRich,2021.2.3,59.93511424489494,
126.75,127.0,41,0.0,Stimuli/Blank.png,0,0,0.0,0,215,215,215,,,,,,,,,,,,,126.76195449999977,0.01195449999977427,None,156.16476179999881,156.16476179999881,156.16476179999881,156.16476179999881,156.16476179999881,156.16476179999881,156.16476179999881,156.16476179999881,156.16476179999881,156.16476179999881,,008,P019,2025_Mar_21_1047,ConditionRich,2021.2.3,59.93511424489494,
127.0,127.75,9,0.75,Stimuli/P019/sun_bbfmuujfvpiaqdww.jpg,0,0,0.0,0,216,216,216,,,,,,,,,,,,,127.01274010000088,0.012740100000883103,None,156.4149796999991,156.4149796999991,156.4149796999991,156.4149796999991,156.4149796999991,156.4149796999991,156.4149796999991,156.4149796999991,156.4149796999991,156.4149796999991,,008,P019,2025_Mar_21_1047,ConditionRich,2021.2.3,59.93511424489494,
127.75,128.0,41,0.0,Stimuli/Blank.png,0,0,0.0,0,217,217,217,,,,,,,,,,,,,127.76371500000096,0.013715000000956934,None,157.16563769999993,157.16563769999993,157.16563769999993,157.16563769999993,157.16563769999993,157.16563769999993,157.16563769999993,157.16563769999993,157.16563769999993,157.16563769999993,,008,P019,2025_Mar_21_1047,ConditionRich,2021.2.3,59.93511424489494,
128.0,128.75,16,0.75,Stimuli/P019/sun_blfpbbfyzmewzplm.jpg,1,0,0.75,0,218,218,218,,,,,,,,,,,,,128.0130119000005,0.01301190000049246,1,157.41588149999916,157.41588149999916,157.41588149999916,157.41588149999916,157.41588149999916,157.41588149999916,157.41588149999916,158.14988409999933,157.41588149999916,157.41588149999916,0.5439420000002428,008,P019,2025_Mar_21_1047,ConditionRich,2021.2.3,59.93511424489494,
128.75,129.0,41,0.0,Stimuli/Blank.png,0,0,0.0,0,219,219,219,,,,,,,,,,,,,128.76675389999946,0.016753899999457644,None,158.18322459999945,158.18322459999945,158.18322459999945,158.18322459999945,158.18322459999945,158.18322459999945,158.18322459999945,158.18322459999945,158.18322459999945,158.18322459999945,,008,P019,2025_Mar_21_1047,ConditionRich,2021.2.3,59.93511424489494,
129.0,129.75,16,0.75,Stimuli/P019/sun_blfpbbfyzmewzplm.jpg,0,0,0.0,0,220,220,220,,,,,,,,,,,,,129.01380040000004,0.013800400000036461,None,158.41675269999905,158.41675269999905,158.41675269999905,158.41675269999905,158.41675269999905,158.41675269999905,158.41675269999905,158.41675269999905,158.41675269999905,158.41675269999905,,008,P019,2025_Mar_21_1047,ConditionRich,2021.2.3,59.93511424489494,
129.75,130.0,41,0.0,Stimuli/Blank.png,0,0,0.0,0,221,221,221,,,,,,,,,,,,,129.76544000000104,0.015440000001035514,None,159.1674168999998,159.1674168999998,159.1674168999998,159.1674168999998,159.1674168999998,159.1674168999998,159.1674168999998,159.1674168999998,159.1674168999998,159.1674168999998,,008,P019,2025_Mar_21_1047,ConditionRich,2021.2.3,59.93511424489494,
130.0,130.75,16,0.75,Stimuli/P019/sun_blfpbbfyzmewzplm.jpg,0,0,0.0,0,222,222,222,,,,,,,,,,,,,130.0167523,0.01675230000000738,None,159.43431119999877,159.43431119999877,159.43431119999877,159.43431119999877,159.43431119999877,159.43431119999877,159.43431119999877,159.43431119999877,159.43431119999877,159.43431119999877,,008,P019,2025_Mar_21_1047,ConditionRich,2021.2.3,59.93511424489494,
130.75,131.0,41,0.0,Stimuli/Blank.png,0,0,0.0,0,223,223,223,,,,,,,,,,,,,130.76536309999938,0.015363099999376573,None,160.16828919999898,160.16828919999898,160.16828919999898,160.16828919999898,160.16828919999898,160.16828919999898,160.16828919999898,160.16828919999898,160.16828919999898,160.16828919999898,,008,P019,2025_Mar_21_1047,ConditionRich,2021.2.3,59.93511424489494,
131.0,131.75,16,0.75,Stimuli/P019/sun_blfpbbfyzmewzplm.jpg,0,0,0.0,0,224,224,224,,,,,,,,,,,,,131.01559300000008,0.015593000000080792,None,160.4185194999991,160.4185194999991,160.4185194999991,160.4185194999991,160.4185194999991,160.4185194999991,160.4185194999991,160.4185194999991,160.4185194999991,160.4185194999991,,008,P019,2025_Mar_21_1047,ConditionRich,2021.2.3,59.93511424489494,
131.75,132.0,41,0.0,Stimuli/Blank.png,0,0,0.0,0,225,225,225,,,,,,,,,,,,,131.75171450000016,0.0017145000001619337,None,161.1691858999984,161.1691858999984,161.1691858999984,161.1691858999984,161.1691858999984,161.1691858999984,161.1691858999984,161.1691858999984,161.1691858999984,161.1691858999984,,008,P019,2025_Mar_21_1047,ConditionRich,2021.2.3,59.93511424489494,
132.0,132.75,2,0.75,Stimuli/P019/sun_ajhvfwzgpfovdgid.jpg,0,0,0.0,0,226,226,226,,,,,,,,,,,,,132.01726580000104,0.017265800001041498,None,161.4361057999995,161.4361057999995,161.4361057999995,161.4361057999995,161.4361057999995,161.4361057999995,161.4361057999995,161.4361057999995,161.4361057999995,161.4361057999995,,008,P019,2025_Mar_21_1047,ConditionRich,2021.2.3,59.93511424489494,
132.75,133.0,41,0.0,Stimuli/Blank.png,0,0,0.0,0,227,227,227,,,,,,,,,,,,,132.76723049999964,0.017230499999641324,None,162.17005879999851,162.17005879999851,162.17005879999851,162.17005879999851,162.17005879999851,162.17005879999851,162.17005879999851,162.17005879999851,162.17005879999851,162.17005879999851,,008,P019,2025_Mar_21_1047,ConditionRich,2021.2.3,59.93511424489494,
133.0,133.75,2,0.75,Stimuli/P019/sun_ajhvfwzgpfovdgid.jpg,0,0,0.0,0,228,228,228,,,,,,,,,,,,,133.00079619999997,0.0007961999999679392,None,162.4036075999993,162.4036075999993,162.4036075999993,162.4036075999993,162.4036075999993,162.4036075999993,162.4036075999993,162.4036075999993,162.4036075999993,162.4036075999993,,008,P019,2025_Mar_21_1047,ConditionRich,2021.2.3,59.93511424489494,
133.75,134.0,41,0.0,Stimuli/Blank.png,0,0,0.0,0,229,229,229,,,,,,,,,,,,,133.75256199999967,0.002561999999670661,None,163.15427629999976,163.15427629999976,163.15427629999976,163.15427629999976,163.15427629999976,163.15427629999976,163.15427629999976,163.15427629999976,163.15427629999976,163.15427629999976,,008,P019,2025_Mar_21_1047,ConditionRich,2021.2.3,59.93511424489494,
134.0,134.75,2,0.75,Stimuli/P019/sun_ajhvfwzgpfovdgid.jpg,0,0,0.0,0,230,230,230,,,,,,,,,,,,,134.0022315999995,0.0022315999995043967,None,163.42120239999895,163.42120239999895,163.42120239999895,163.42120239999895,163.42120239999895,163.42120239999895,163.42120239999895,163.42120239999895,163.42120239999895,163.42120239999895,,008,P019,2025_Mar_21_1047,ConditionRich,2021.2.3,59.93511424489494,
134.75,135.0,41,0.0,Stimuli/Blank.png,0,0,0.0,0,231,231,231,,,,,,,,,,,,,134.7693548999996,0.019354899999598274,None,164.17194139999992,164.17194139999992,164.17194139999992,164.17194139999992,164.17194139999992,164.17194139999992,164.17194139999992,164.17194139999992,164.17194139999992,164.17194139999992,,008,P019,2025_Mar_21_1047,ConditionRich,2021.2.3,59.93511424489494,
135.0,135.75,2,0.75,Stimuli/P019/sun_ajhvfwzgpfovdgid.jpg,0,0,0.0,0,232,232,232,,,,,,,,,,,,,135.0028612999995,0.002861299999494804,None,164.42206879999867,164.42206879999867,164.42206879999867,164.42206879999867,164.42206879999867,164.42206879999867,164.42206879999867,164.42206879999867,164.42206879999867,164.42206879999867,,008,P019,2025_Mar_21_1047,ConditionRich,2021.2.3,59.93511424489494,
135.75,136.0,41,0.0,Stimuli/Blank.png,0,0,0.0,0,233,233,233,,,,,,,,,,,,,135.7716786000001,0.02167860000008659,None,165.189417399999,165.189417399999,165.189417399999,165.189417399999,165.189417399999,165.189417399999,165.189417399999,165.189417399999,165.189417399999,165.189417399999,,008,P019,2025_Mar_21_1047,ConditionRich,2021.2.3,59.93511424489494,
136.0,136.75,23,0.75,Stimuli/P019/things_boy_10s.jpg,0,0,0.0,0,234,234,234,,,,,,,,,,,,,136.0233657000008,0.023365700000795186,None,165.43962159999865,165.43962159999865,165.43962159999865,165.43962159999865,165.43962159999865,165.43962159999865,165.43962159999865,165.43962159999865,165.43962159999865,165.43962159999865,,008,P019,2025_Mar_21_1047,ConditionRich,2021.2.3,59.93511424489494,
136.75,137.0,41,0.0,Stimuli/Blank.png,0,0,0.0,0,235,235,235,,,,,,,,,,,,,136.77154820000032,0.02154820000032487,None,166.1736063999997,166.1736063999997,166.1736063999997,166.1736063999997,166.1736063999997,166.1736063999997,166.1736063999997,166.1736063999997,166.1736063999997,166.1736063999997,,008,P019,2025_Mar_21_1047,ConditionRich,2021.2.3,59.93511424489494,
137.0,137.75,23,0.75,Stimuli/P019/things_boy_10s.jpg,0,0,0.0,0,236,236,236,,,,,,,,,,,,,137.00532150000072,0.005321500000718515,None,166.40711939999892,166.40711939999892,166.40711939999892,166.40711939999892,166.40711939999892,166.40711939999892,166.40711939999892,166.40711939999892,166.40711939999892,166.40711939999892,,008,P019,2025_Mar_21_1047,ConditionRich,2021.2.3,59.93511424489494,
137.75,138.0,41,0.0,Stimuli/Blank.png,0,0,0.0,0,237,237,237,,,,,,,,,,,,,137.75811000000067,0.00811000000066997,None,167.1746217,167.1746217,167.1746217,167.1746217,167.1746217,167.1746217,167.1746217,167.1746217,167.1746217,167.1746217,,008,P019,2025_Mar_21_1047,ConditionRich,2021.2.3,59.93511424489494,
138.0,138.75,23,0.75,Stimuli/P019/things_boy_10s.jpg,0,0,0.0,0,238,238,238,,,,,,,,,,,,,138.02192040000045,0.02192040000045381,None,167.4247077,167.4247077,167.4247077,167.4247077,167.4247077,167.4247077,167.4247077,167.4247077,167.4247077,167.4247077,,008,P019,2025_Mar_21_1047,ConditionRich,2021.2.3,59.93511424489494,
138.75,139.0,41,0.0,Stimuli/Blank.png,0,0,0.0,0,239,239,239,,,,,,,,,,,,,138.7559172000001,0.0059172000001126435,None,168.15869639999983,168.15869639999983,168.15869639999983,168.15869639999983,168.15869639999983,168.15869639999983,168.15869639999983,168.15869639999983,168.15869639999983,168.15869639999983,,008,P019,2025_Mar_21_1047,ConditionRich,2021.2.3,59.93511424489494,
139.0,139.75,23,0.75,Stimuli/P019/things_boy_10s.jpg,0,0,0.0,0,240,240,240,,,,,,,,,,,,,139.0074072999996,0.007407299999613315,None,168.42559549999896,168.42559549999896,168.42559549999896,168.42559549999896,168.42559549999896,168.42559549999896,168.42559549999896,168.42559549999896,168.42559549999896,168.42559549999896,,008,P019,2025_Mar_21_1047,ConditionRich,2021.2.3,59.93511424489494,
139.75,140.0,41,0.0,Stimuli/Blank.png,0,0,0.0,0,241,241,241,,,,,,,,,,,,,139.7741889000008,0.024188900000808644,None,169.17626319999908,169.17626319999908,169.17626319999908,169.17626319999908,169.17626319999908,169.17626319999908,169.17626319999908,169.17626319999908,169.17626319999908,169.17626319999908,,008,P019,2025_Mar_21_1047,ConditionRich,2021.2.3,59.93511424489494,
140.0,140.75,33,0.75,Stimuli/P019/things_insole_10s.jpg,0,0,0.0,0,242,242,242,,,,,,,,,,,,,140.0076571999998,0.007657199999812292,None,169.40979159999915,169.40979159999915,169.40979159999915,169.40979159999915,169.40979159999915,169.40979159999915,169.40979159999915,169.40979159999915,169.40979159999915,169.40979159999915,,008,P019,2025_Mar_21_1047,ConditionRich,2021.2.3,59.93511424489494,
140.75,141.0,41,0.0,Stimuli/Blank.png,0,0,0.0,0,243,243,243,,,,,,,,,,,,,140.75799150000057,0.00799150000057125,None,170.16046490000008,170.16046490000008,170.16046490000008,170.16046490000008,170.16046490000008,170.16046490000008,170.16046490000008,170.16046490000008,170.16046490000008,170.16046490000008,,008,P019,2025_Mar_21_1047,ConditionRich,2021.2.3,59.93511424489494,
141.0,141.75,33,0.75,Stimuli/P019/things_insole_10s.jpg,0,0,0.0,0,244,244,244,,,,,,,,,,,,,141.00867199999993,0.008671999999933178,None,170.4106714999998,170.4106714999998,170.4106714999998,170.4106714999998,170.4106714999998,170.4106714999998,170.4106714999998,170.4106714999998,170.4106714999998,170.4106714999998,,008,P019,2025_Mar_21_1047,ConditionRich,2021.2.3,59.93511424489494,
141.75,142.0,41,0.0,Stimuli/Blank.png,0,0,0.0,0,245,245,245,,,,,,,,,,,,,141.75854810000055,0.00854810000055295,None,171.16134149999925,171.16134149999925,171.16134149999925,171.16134149999925,171.16134149999925,171.16134149999925,171.16134149999925,171.16134149999925,171.16134149999925,171.16134149999925,,008,P019,2025_Mar_21_1047,ConditionRich,2021.2.3,59.93511424489494,
142.0,142.75,33,0.75,Stimuli/P019/things_insole_10s.jpg,0,0,0.0,0,246,246,246,,,,,,,,,,,,,142.0093581000001,0.009358100000099512,None,171.41156259999843,171.41156259999843,171.41156259999843,171.41156259999843,171.41156259999843,171.41156259999843,171.41156259999843,171.41156259999843,171.41156259999843,171.41156259999843,,008,P019,2025_Mar_21_1047,ConditionRich,2021.2.3,59.93511424489494,
142.75,143.0,41,0.0,Stimuli/Blank.png,0,0,0.0,0,247,247,247,,,,,,,,,,,,,142.76157609999973,0.011576099999729195,None,172.1789358999995,172.1789358999995,172.1789358999995,172.1789358999995,172.1789358999995,172.1789358999995,172.1789358999995,172.1789358999995,172.1789358999995,172.1789358999995,,008,P019,2025_Mar_21_1047,ConditionRich,2021.2.3,59.93511424489494,
143.0,143.75,33,0.75,Stimuli/P019/things_insole_10s.jpg,0,0,0.0,0,248,248,248,,,,,,,,,,,,,143.0274171000001,0.027417100000093342,None,172.44581389999985,172.44581389999985,172.44581389999985,172.44581389999985,172.44581389999985,172.44581389999985,172.44581389999985,172.44581389999985,172.44581389999985,172.44581389999985,,008,P019,2025_Mar_21_1047,ConditionRich,2021.2.3,59.93511424489494,
143.75,144.0,41,0.0,Stimuli/Blank.png,0,0,0.0,0,249,249,249,,,,,,,,,,,,,143.77797049999936,0.027970499999355525,None,173.17978989999938,173.17978989999938,173.17978989999938,173.17978989999938,173.17978989999938,173.17978989999938,173.17978989999938,173.17978989999938,173.17978989999938,173.17978989999938,,008,P019,2025_Mar_21_1047,ConditionRich,2021.2.3,59.93511424489494,
144.0,144.75,26,0.75,Stimuli/P019/things_earwig_10n.jpg,0,0,0.0,0,250,250,250,,,,,,,,,,,,,144.0113362000011,0.011336200001096586,None,173.4133396999987,173.4133396999987,173.4133396999987,173.4133396999987,173.4133396999987,173.4133396999987,173.4133396999987,173.4133396999987,173.4133396999987,173.4133396999987,,008,P019,2025_Mar_21_1047,ConditionRich,2021.2.3,59.93511424489494,
144.75,145.0,41,0.0,Stimuli/Blank.png,0,0,0.0,0,251,251,251,,,,,,,,,,,,,144.76229160000003,0.012291600000025937,None,174.16401069999847,174.16401069999847,174.16401069999847,174.16401069999847,174.16401069999847,174.16401069999847,174.16401069999847,174.16401069999847,174.16401069999847,174.16401069999847,,008,P019,2025_Mar_21_1047,ConditionRich,2021.2.3,59.93511424489494,
145.0,145.75,26,0.75,Stimuli/P019/things_earwig_10n.jpg,0,0,0.0,0,252,252,252,,,,,,,,,,,,,145.0120267000002,0.012026700000205892,None,174.41421779999837,174.41421779999837,174.41421779999837,174.41421779999837,174.41421779999837,174.41421779999837,174.41421779999837,174.41421779999837,174.41421779999837,174.41421779999837,,008,P019,2025_Mar_21_1047,ConditionRich,2021.2.3,59.93511424489494,
145.75,146.0,41,0.0,Stimuli/Blank.png,0,0,0.0,0,253,253,253,,,,,,,,,,,,,145.7619993999997,0.011999399999695015,None,175.1648712999995,175.1648712999995,175.1648712999995,175.1648712999995,175.1648712999995,175.1648712999995,175.1648712999995,175.1648712999995,175.1648712999995,175.1648712999995,,008,P019,2025_Mar_21_1047,ConditionRich,2021.2.3,59.93511424489494,
146.0,146.75,26,0.75,Stimuli/P019/things_earwig_10n.jpg,0,0,0.0,0,254,254,254,,,,,,,,,,,,,146.0124377000011,0.012437700001100893,None,175.41511739999987,175.41511739999987,175.41511739999987,175.41511739999987,175.41511739999987,175.41511739999987,175.41511739999987,175.41511739999987,175.41511739999987,175.41511739999987,,008,P019,2025_Mar_21_1047,ConditionRich,2021.2.3,59.93511424489494,
146.75,147.0,41,0.0,Stimuli/Blank.png,0,0,0.0,0,255,255,255,,,,,,,,,,,,,146.76300280000032,0.013002800000322168,None,176.16576819999864,176.16576819999864,176.16576819999864,176.16576819999864,176.16576819999864,176.16576819999864,176.16576819999864,176.16576819999864,176.16576819999864,176.16576819999864,,008,P019,2025_Mar_21_1047,ConditionRich,2021.2.3,59.93511424489494,
147.0,147.75,26,0.75,Stimuli/P019/things_earwig_10n.jpg,0,0,0.0,0,256,256,256,,,,,,,,,,,,,147.0137135999994,0.01371359999939159,None,176.41598519999934,176.41598519999934,176.41598519999934,176.41598519999934,176.41598519999934,176.41598519999934,176.41598519999934,176.41598519999934,176.41598519999934,176.41598519999934,,008,P019,2025_Mar_21_1047,ConditionRich,2021.2.3,59.93511424489494,
147.75,148.0,41,0.0,Stimuli/Blank.png,0,0,0.0,0,257,257,257,,,,,,,,,,,,,147.7652902000009,0.015290200000890763,None,177.16667179999968,177.16667179999968,177.16667179999968,177.16667179999968,177.16667179999968,177.16667179999968,177.16667179999968,177.16667179999968,177.16667179999968,177.16667179999968,,008,P019,2025_Mar_21_1047,ConditionRich,2021.2.3,59.93511424489494,
148.0,148.75,28,0.75,Stimuli/P019/things_face_10s.jpg,0,0,0.0,0,258,258,258,,,,,,,,,,,,,148.0140293000004,0.014029300000402145,None,177.41687149999962,177.41687149999962,177.41687149999962,177.41687149999962,177.41687149999962,177.41687149999962,177.41687149999962,177.41687149999962,177.41687149999962,177.41687149999962,,008,P019,2025_Mar_21_1047,ConditionRich,2021.2.3,59.93511424489494,
148.75,149.0,41,0.0,Stimuli/Blank.png,0,0,0.0,0,259,259,259,,,,,,,,,,,,,148.76674529999946,0.01674529999945662,None,178.1842214999997,178.1842214999997,178.1842214999997,178.1842214999997,178.1842214999997,178.1842214999997,178.1842214999997,178.1842214999997,178.1842214999997,178.1842214999997,,008,P019,2025_Mar_21_1047,ConditionRich,2021.2.3,59.93511424489494,
149.0,149.75,28,0.75,Stimuli/P019/things_face_10s.jpg,0,0,0.0,0,260,260,260,,,,,,,,,,,,,149.01766850000058,0.017668500000581844,None,178.43445429999883,178.43445429999883,178.43445429999883,178.43445429999883,178.43445429999883,178.43445429999883,178.43445429999883,178.43445429999883,178.43445429999883,178.43445429999883,,008,P019,2025_Mar_21_1047,ConditionRich,2021.2.3,59.93511424489494,
149.75,150.0,41,0.0,Stimuli/Blank.png,0,0,0.0,0,261,261,261,,,,,,,,,,,,,149.76621150000028,0.016211500000281376,None,179.16842539999925,179.16842539999925,179.16842539999925,179.16842539999925,179.16842539999925,179.16842539999925,179.16842539999925,179.16842539999925,179.16842539999925,179.16842539999925,,008,P019,2025_Mar_21_1047,ConditionRich,2021.2.3,59.93511424489494,
150.0,150.75,28,0.75,Stimuli/P019/things_face_10s.jpg,0,0,0.0,0,262,262,262,,,,,,,,,,,,,149.9998097000007,-0.0001902999993035337,None,179.41864429999987,179.41864429999987,179.41864429999987,179.41864429999987,179.41864429999987,179.41864429999987,179.41864429999987,179.41864429999987,179.41864429999987,179.41864429999987,,008,P019,2025_Mar_21_1047,ConditionRich,2021.2.3,59.93511424489494,
