eventStartTime,eventEndTime,eventCond,imSize,imFile,responseEvent,fixRespStart,fixRespEnd,Events.thisRepN,Events.thisTrialN,Events.thisN,Events.thisIndex,Instructions.started,Instructions.stopped,participantReadyResponse.keys,participantReadyResponse.rt,participantReadyResponse.started,participantReadyResponse.stopped,startWaitforTrigger,triggerResponse.keys,triggerResponse.rt,triggerResponse.started,triggerResponse.stopped,globalTimer,actualStartTime,startTimingDiff,participantResponse.keys,participantResponse.started,participantResponse.stopped,image.started,image.stopped,fixationOutside.started,fixationOutside.stopped,fixationResponse.started,fixationResponse.stopped,fixationInside.started,fixationInside.stopped,participantResponse.rt,session,participant,date,expName,psychopyVersion,frameRate,
,,,,,,,,,,,,13.67189199999848,None,1,15.810531499999342,13.67189199999848,None,,,,,,,,,,,,,,,,,,,,,001,P020,2025_May_06_1641,ConditionRich,2021.2.3,59.93550939186639,
,,,,,,,,,,,,,,,,,,29.493542799998977,5,18.98749019999741,29.506085599998187,None,,,,,,,,,,,,,,,,001,P020,2025_May_06_1641,ConditionRich,2021.2.3,59.93550939186639,
0.0,4.0,0,0.0,Stimuli/Blank.png,0,0,0.0,0,0,0,0,,,,,,,,,,,,48.50987489999898,0.05047779999949853,0.05047779999949853,None,48.589627199999086,None,48.589627199999086,None,48.589627199999086,None,48.589627199999086,48.589627199999086,48.589627199999086,None,,001,P020,2025_May_06_1641,ConditionRich,2021.2.3,59.93550939186639,
4.0,4.75,20,0.75,Stimuli/P020/sun_dlnwonqxagdvtlta.jpg,0,0,0.0,0,1,1,1,,,,,,,,,,,,,4.0218681000005745,0.021868100000574486,None,52.56006419999903,52.56006419999903,52.56006419999903,52.56006419999903,52.56006419999903,52.56006419999903,52.56006419999903,52.56006419999903,52.56006419999903,52.56006419999903,,001,P020,2025_May_06_1641,ConditionRich,2021.2.3,59.93550939186639,
4.75,5.0,41,0.0,Stimuli/Blank.png,0,0,0.0,0,2,2,2,,,,,,,,,,,,,4.770137699997576,0.02013769999757642,None,53.294014200000674,53.294014200000674,53.294014200000674,53.294014200000674,53.294014200000674,53.294014200000674,53.294014200000674,53.294014200000674,53.294014200000674,53.294014200000674,,001,P020,2025_May_06_1641,ConditionRich,2021.2.3,59.93550939186639,
5.0,5.75,20,0.75,Stimuli/P020/sun_dlnwonqxagdvtlta.jpg,0,0,0.0,0,3,3,3,,,,,,,,,,,,,5.003096699998423,0.0030966999984229915,None,53.52728059999936,53.52728059999936,53.52728059999936,53.52728059999936,53.52728059999936,53.52728059999936,53.52728059999936,53.52728059999936,53.52728059999936,53.52728059999936,,001,P020,2025_May_06_1641,ConditionRich,2021.2.3,59.93550939186639,
5.75,6.0,41,0.0,Stimuli/Blank.png,0,0,0.0,0,4,4,4,,,,,,,,,,,,,5.754204900000332,0.0042049000003316905,None,54.27797219999775,54.27797219999775,54.27797219999775,54.27797219999775,54.27797219999775,54.27797219999775,54.27797219999775,54.27797219999775,54.27797219999775,54.27797219999775,,001,P020,2025_May_06_1641,ConditionRich,2021.2.3,59.93550939186639,
6.0,6.75,20,0.75,Stimuli/P020/sun_dlnwonqxagdvtlta.jpg,1,0,0.75,0,5,5,5,,,,,,,,,,,,,6.003941099999793,0.003941099999792641,1,54.52817619999769,54.52817619999769,54.52817619999769,54.52817619999769,54.52817619999769,54.52817619999769,54.52817619999769,55.26216829999976,54.52817619999769,54.52817619999769,0.4851457999975537,001,P020,2025_May_06_1641,ConditionRich,2021.2.3,59.93550939186639,
6.75,7.0,41,0.0,Stimuli/Blank.png,0,0,0.0,0,6,6,6,,,,,,,,,,,,,6.75553619999846,0.005536199998459779,None,55.278845199998614,55.278845199998614,55.278845199998614,55.278845199998614,55.278845199998614,55.278845199998614,55.278845199998614,55.278845199998614,55.278845199998614,55.278845199998614,,001,P020,2025_May_06_1641,ConditionRich,2021.2.3,59.93550939186639,
7.0,7.75,20,0.75,Stimuli/P020/sun_dlnwonqxagdvtlta.jpg,0,0,0.0,0,7,7,7,,,,,,,,,,,,,7.004694700000982,0.004694700000982266,None,55.529063300000416,55.529063300000416,55.529063300000416,55.529063300000416,55.529063300000416,55.529063300000416,55.529063300000416,55.529063300000416,55.529063300000416,55.529063300000416,,001,P020,2025_May_06_1641,ConditionRich,2021.2.3,59.93550939186639,
7.75,8.0,41,0.0,Stimuli/Blank.png,0,0,0.0,0,8,8,8,,,,,,,,,,,,,7.75538830000005,0.0053883000000496395,None,56.27973489999931,56.27973489999931,56.27973489999931,56.27973489999931,56.27973489999931,56.27973489999931,56.27973489999931,56.27973489999931,56.27973489999931,56.27973489999931,,001,P020,2025_May_06_1641,ConditionRich,2021.2.3,59.93550939186639,
8.0,8.75,22,0.75,Stimuli/P020/things_bead_10s.jpg,0,0,0.0,0,9,9,9,,,,,,,,,,,,,8.006118499997683,0.006118499997683102,None,56.546648799998366,56.546648799998366,56.546648799998366,56.546648799998366,56.546648799998366,56.546648799998366,56.546648799998366,56.546648799998366,56.546648799998366,56.546648799998366,,001,P020,2025_May_06_1641,ConditionRich,2021.2.3,59.93550939186639,
8.75,9.0,41,0.0,Stimuli/Blank.png,0,0,0.0,0,10,10,10,,,,,,,,,,,,,8.772948699999688,0.02294869999968796,None,57.29729600000064,57.29729600000064,57.29729600000064,57.29729600000064,57.29729600000064,57.29729600000064,57.29729600000064,57.29729600000064,57.29729600000064,57.29729600000064,,001,P020,2025_May_06_1641,ConditionRich,2021.2.3,59.93550939186639,
9.0,9.75,22,0.75,Stimuli/P020/things_bead_10s.jpg,0,0,0.0,0,11,11,11,,,,,,,,,,,,,9.008428400000412,0.008428400000411784,None,57.547522999997454,57.547522999997454,57.547522999997454,57.547522999997454,57.547522999997454,57.547522999997454,57.547522999997454,57.547522999997454,57.547522999997454,57.547522999997454,,001,P020,2025_May_06_1641,ConditionRich,2021.2.3,59.93550939186639,
9.75,10.0,41,0.0,Stimuli/Blank.png,0,0,0.0,0,12,12,12,,,,,,,,,,,,,9.774579199998698,0.02457919999869773,None,58.29818289999821,58.29818289999821,58.29818289999821,58.29818289999821,58.29818289999821,58.29818289999821,58.29818289999821,58.29818289999821,58.29818289999821,58.29818289999821,,001,P020,2025_May_06_1641,ConditionRich,2021.2.3,59.93550939186639,
10.0,10.75,22,0.75,Stimuli/P020/things_bead_10s.jpg,0,0,0.0,0,13,13,13,,,,,,,,,,,,,10.007225299999845,0.007225299999845447,None,58.53172489999997,58.53172489999997,58.53172489999997,58.53172489999997,58.53172489999997,58.53172489999997,58.53172489999997,58.53172489999997,58.53172489999997,58.53172489999997,,001,P020,2025_May_06_1641,ConditionRich,2021.2.3,59.93550939186639,
10.75,11.0,41,0.0,Stimuli/Blank.png,0,0,0.0,0,14,14,14,,,,,,,,,,,,,10.758929799998441,0.008929799998441013,None,59.28238549999878,59.28238549999878,59.28238549999878,59.28238549999878,59.28238549999878,59.28238549999878,59.28238549999878,59.28238549999878,59.28238549999878,59.28238549999878,,001,P020,2025_May_06_1641,ConditionRich,2021.2.3,59.93550939186639,
11.0,11.75,22,0.75,Stimuli/P020/things_bead_10s.jpg,0,0,0.0,0,15,15,15,,,,,,,,,,,,,11.009161399997538,0.009161399997537956,None,59.53260719999889,59.53260719999889,59.53260719999889,59.53260719999889,59.53260719999889,59.53260719999889,59.53260719999889,59.53260719999889,59.53260719999889,59.53260719999889,,001,P020,2025_May_06_1641,ConditionRich,2021.2.3,59.93550939186639,
11.75,12.0,41,0.0,Stimuli/Blank.png,0,0,0.0,0,16,16,16,,,,,,,,,,,,,11.75983239999914,0.009832399999140762,None,60.283271699998295,60.283271699998295,60.283271699998295,60.283271699998295,60.283271699998295,60.283271699998295,60.283271699998295,60.283271699998295,60.283271699998295,60.283271699998295,,001,P020,2025_May_06_1641,ConditionRich,2021.2.3,59.93550939186639,
12.0,12.75,21,0.75,Stimuli/P020/things_anteater_10s.jpg,0,0,0.0,0,17,17,17,,,,,,,,,,,,,12.009126799999649,0.009126799999648938,None,60.533498699998745,60.533498699998745,60.533498699998745,60.533498699998745,60.533498699998745,60.533498699998745,60.533498699998745,60.533498699998745,60.533498699998745,60.533498699998745,,001,P020,2025_May_06_1641,ConditionRich,2021.2.3,59.93550939186639,
12.75,13.0,41,0.0,Stimuli/Blank.png,0,0,0.0,0,18,18,18,,,,,,,,,,,,,12.760357999999542,0.01035799999954179,None,61.285038499998336,61.285038499998336,61.285038499998336,61.285038499998336,61.285038499998336,61.285038499998336,61.285038499998336,61.285038499998336,61.285038499998336,61.285038499998336,,001,P020,2025_May_06_1641,ConditionRich,2021.2.3,59.93550939186639,
13.0,13.75,21,0.75,Stimuli/P020/things_anteater_10s.jpg,0,0,0.0,0,19,19,19,,,,,,,,,,,,,13.010713799998484,0.010713799998484319,None,61.53449360000013,61.53449360000013,61.53449360000013,61.53449360000013,61.53449360000013,61.53449360000013,61.53449360000013,61.53449360000013,61.53449360000013,61.53449360000013,,001,P020,2025_May_06_1641,ConditionRich,2021.2.3,59.93550939186639,
13.75,14.0,41,0.0,Stimuli/Blank.png,0,0,0.0,0,20,20,20,,,,,,,,,,,,,13.760678899998311,0.010678899998310953,None,62.285043799998675,62.285043799998675,62.285043799998675,62.285043799998675,62.285043799998675,62.285043799998675,62.285043799998675,62.285043799998675,62.285043799998675,62.285043799998675,,001,P020,2025_May_06_1641,ConditionRich,2021.2.3,59.93550939186639,
14.0,14.75,21,0.75,Stimuli/P020/things_anteater_10s.jpg,0,0,0.0,0,21,21,21,,,,,,,,,,,,,14.011808799998107,0.011808799998107133,None,62.551915299998655,62.551915299998655,62.551915299998655,62.551915299998655,62.551915299998655,62.551915299998655,62.551915299998655,62.551915299998655,62.551915299998655,62.551915299998655,,001,P020,2025_May_06_1641,ConditionRich,2021.2.3,59.93550939186639,
14.75,15.0,41,0.0,Stimuli/Blank.png,0,0,0.0,0,22,22,22,,,,,,,,,,,,,14.7781544999998,0.028154499999800464,None,63.30260260000068,63.30260260000068,63.30260260000068,63.30260260000068,63.30260260000068,63.30260260000068,63.30260260000068,63.30260260000068,63.30260260000068,63.30260260000068,,001,P020,2025_May_06_1641,ConditionRich,2021.2.3,59.93550939186639,
15.0,15.75,21,0.75,Stimuli/P020/things_anteater_10s.jpg,0,0,0.0,0,23,23,23,,,,,,,,,,,,,15.014802899997449,0.014802899997448549,None,63.552831199998764,63.552831199998764,63.552831199998764,63.552831199998764,63.552831199998764,63.552831199998764,63.552831199998764,63.552831199998764,63.552831199998764,63.552831199998764,,001,P020,2025_May_06_1641,ConditionRich,2021.2.3,59.93550939186639,
15.75,16.0,41,0.0,Stimuli/Blank.png,0,0,0.0,0,24,24,24,,,,,,,,,,,,,15.779129399998055,0.029129399998055305,None,64.30349729999944,64.30349729999944,64.30349729999944,64.30349729999944,64.30349729999944,64.30349729999944,64.30349729999944,64.30349729999944,64.30349729999944,64.30349729999944,,001,P020,2025_May_06_1641,ConditionRich,2021.2.3,59.93550939186639,
16.0,16.75,38,0.75,Stimuli/P020/things_turtle_10n.jpg,1,0,0.75,0,25,25,25,,,,,,,,,,,,,16.012733899999148,0.01273389999914798,1,64.53703719999976,64.53703719999976,64.53703719999976,64.53703719999976,64.53703719999976,64.53703719999976,64.53703719999976,65.27104440000039,64.53703719999976,64.53703719999976,0.37423649999982445,001,P020,2025_May_06_1641,ConditionRich,2021.2.3,59.93550939186639,
16.75,17.0,41,0.0,Stimuli/Blank.png,0,0,0.0,0,26,26,26,,,,,,,,,,,,,16.76463800000056,0.01463800000055926,None,65.30438270000013,65.30438270000013,65.30438270000013,65.30438270000013,65.30438270000013,65.30438270000013,65.30438270000013,65.30438270000013,65.30438270000013,65.30438270000013,,001,P020,2025_May_06_1641,ConditionRich,2021.2.3,59.93550939186639,
17.0,17.75,38,0.75,Stimuli/P020/things_turtle_10n.jpg,0,0,0.0,0,27,27,27,,,,,,,,,,,,,17.030197000000044,0.030197000000043772,None,65.57130119999783,65.57130119999783,65.57130119999783,65.57130119999783,65.57130119999783,65.57130119999783,65.57130119999783,65.57130119999783,65.57130119999783,65.57130119999783,,001,P020,2025_May_06_1641,ConditionRich,2021.2.3,59.93550939186639,
17.75,18.0,41,0.0,Stimuli/Blank.png,0,0,0.0,0,28,28,28,,,,,,,,,,,,,17.783735799999704,0.033735799999703886,None,66.32196140000087,66.32196140000087,66.32196140000087,66.32196140000087,66.32196140000087,66.32196140000087,66.32196140000087,66.32196140000087,66.32196140000087,66.32196140000087,,001,P020,2025_May_06_1641,ConditionRich,2021.2.3,59.93550939186639,
18.0,18.75,38,0.75,Stimuli/P020/things_turtle_10n.jpg,0,0,0.0,0,29,29,29,,,,,,,,,,,,,18.01451769999767,0.014517699997668387,None,66.53880189999836,66.53880189999836,66.53880189999836,66.53880189999836,66.53880189999836,66.53880189999836,66.53880189999836,66.53880189999836,66.53880189999836,66.53880189999836,,001,P020,2025_May_06_1641,ConditionRich,2021.2.3,59.93550939186639,
18.75,19.0,41,0.0,Stimuli/Blank.png,0,0,0.0,0,30,30,30,,,,,,,,,,,,,18.76513530000011,0.015135300000110874,None,67.28949239999929,67.28949239999929,67.28949239999929,67.28949239999929,67.28949239999929,67.28949239999929,67.28949239999929,67.28949239999929,67.28949239999929,67.28949239999929,,001,P020,2025_May_06_1641,ConditionRich,2021.2.3,59.93550939186639,
19.0,19.75,38,0.75,Stimuli/P020/things_turtle_10n.jpg,0,0,0.0,0,31,31,31,,,,,,,,,,,,,19.0152414999975,0.015241499997500796,None,67.55639080000037,67.55639080000037,67.55639080000037,67.55639080000037,67.55639080000037,67.55639080000037,67.55639080000037,67.55639080000037,67.55639080000037,67.55639080000037,,001,P020,2025_May_06_1641,ConditionRich,2021.2.3,59.93550939186639,
19.75,20.0,41,0.0,Stimuli/Blank.png,0,0,0.0,0,32,32,32,,,,,,,,,,,,,19.76891909999904,0.018919099999038735,None,68.30703839999842,68.30703839999842,68.30703839999842,68.30703839999842,68.30703839999842,68.30703839999842,68.30703839999842,68.30703839999842,68.30703839999842,68.30703839999842,,001,P020,2025_May_06_1641,ConditionRich,2021.2.3,59.93550939186639,
20.0,20.75,13,0.75,Stimuli/P020/sun_bhzwrbdycbchqesq.jpg,0,0,0.0,0,33,33,33,,,,,,,,,,,,,20.016298200000165,0.016298200000164798,None,68.54057130000001,68.54057130000001,68.54057130000001,68.54057130000001,68.54057130000001,68.54057130000001,68.54057130000001,68.54057130000001,68.54057130000001,68.54057130000001,,001,P020,2025_May_06_1641,ConditionRich,2021.2.3,59.93550939186639,
20.75,21.0,41,0.0,Stimuli/Blank.png,0,0,0.0,0,34,34,34,,,,,,,,,,,,,20.750351200000296,0.00035120000029564835,None,69.27456339999844,69.27456339999844,69.27456339999844,69.27456339999844,69.27456339999844,69.27456339999844,69.27456339999844,69.27456339999844,69.27456339999844,69.27456339999844,,001,P020,2025_May_06_1641,ConditionRich,2021.2.3,59.93550939186639,
21.0,21.75,13,0.75,Stimuli/P020/sun_bhzwrbdycbchqesq.jpg,0,0,0.0,0,35,35,35,,,,,,,,,,,,,21.003430099997786,0.0034300999977858737,None,69.541461599998,69.541461599998,69.541461599998,69.541461599998,69.541461599998,69.541461599998,69.541461599998,69.541461599998,69.541461599998,69.541461599998,,001,P020,2025_May_06_1641,ConditionRich,2021.2.3,59.93550939186639,
21.75,22.0,41,0.0,Stimuli/Blank.png,0,0,0.0,0,36,36,36,,,,,,,,,,,,,21.76860569999917,0.01860569999917061,None,70.29212120000011,70.29212120000011,70.29212120000011,70.29212120000011,70.29212120000011,70.29212120000011,70.29212120000011,70.29212120000011,70.29212120000011,70.29212120000011,,001,P020,2025_May_06_1641,ConditionRich,2021.2.3,59.93550939186639,
22.0,22.75,13,0.75,Stimuli/P020/sun_bhzwrbdycbchqesq.jpg,0,0,0.0,0,37,37,37,,,,,,,,,,,,,22.002121099998476,0.0021210999984759837,None,70.5256687000001,70.5256687000001,70.5256687000001,70.5256687000001,70.5256687000001,70.5256687000001,70.5256687000001,70.5256687000001,70.5256687000001,70.5256687000001,,001,P020,2025_May_06_1641,ConditionRich,2021.2.3,59.93550939186639,
22.75,23.0,41,0.0,Stimuli/Blank.png,0,0,0.0,0,38,38,38,,,,,,,,,,,,,22.754073100000824,0.004073100000823615,None,71.29302140000073,71.29302140000073,71.29302140000073,71.29302140000073,71.29302140000073,71.29302140000073,71.29302140000073,71.29302140000073,71.29302140000073,71.29302140000073,,001,P020,2025_May_06_1641,ConditionRich,2021.2.3,59.93550939186639,
23.0,23.75,13,0.75,Stimuli/P020/sun_bhzwrbdycbchqesq.jpg,0,0,0.0,0,39,39,39,,,,,,,,,,,,,23.019107299998723,0.019107299998722738,None,71.54323149999982,71.54323149999982,71.54323149999982,71.54323149999982,71.54323149999982,71.54323149999982,71.54323149999982,71.54323149999982,71.54323149999982,71.54323149999982,,001,P020,2025_May_06_1641,ConditionRich,2021.2.3,59.93550939186639,
23.75,24.0,41,0.0,Stimuli/Blank.png,0,0,0.0,0,40,40,40,,,,,,,,,,,,,23.754308600000513,0.004308600000513252,None,72.27721509999901,72.27721509999901,72.27721509999901,72.27721509999901,72.27721509999901,72.27721509999901,72.27721509999901,72.27721509999901,72.27721509999901,72.27721509999901,,001,P020,2025_May_06_1641,ConditionRich,2021.2.3,59.93550939186639,
24.0,24.75,17,0.75,Stimuli/P020/sun_bltxkcclrpweopkl.jpg,0,0,0.0,0,41,41,41,,,,,,,,,,,,,24.00346549999813,0.0034654999981285073,None,72.5274387999998,72.5274387999998,72.5274387999998,72.5274387999998,72.5274387999998,72.5274387999998,72.5274387999998,72.5274387999998,72.5274387999998,72.5274387999998,,001,P020,2025_May_06_1641,ConditionRich,2021.2.3,59.93550939186639,
24.75,25.0,41,0.0,Stimuli/Blank.png,0,0,0.0,0,42,42,42,,,,,,,,,,,,,24.754903599998215,0.004903599998215213,None,73.27810250000039,73.27810250000039,73.27810250000039,73.27810250000039,73.27810250000039,73.27810250000039,73.27810250000039,73.27810250000039,73.27810250000039,73.27810250000039,,001,P020,2025_May_06_1641,ConditionRich,2021.2.3,59.93550939186639,
25.0,25.75,17,0.75,Stimuli/P020/sun_bltxkcclrpweopkl.jpg,0,0,0.0,0,43,43,43,,,,,,,,,,,,,25.004783899999893,0.004783899999893038,None,73.54502370000046,73.54502370000046,73.54502370000046,73.54502370000046,73.54502370000046,73.54502370000046,73.54502370000046,73.54502370000046,73.54502370000046,73.54502370000046,,001,P020,2025_May_06_1641,ConditionRich,2021.2.3,59.93550939186639,
25.75,26.0,41,0.0,Stimuli/Blank.png,0,0,0.0,0,44,44,44,,,,,,,,,,,,,25.773371100000077,0.023371100000076694,None,74.3123943999999,74.3123943999999,74.3123943999999,74.3123943999999,74.3123943999999,74.3123943999999,74.3123943999999,74.3123943999999,74.3123943999999,74.3123943999999,,001,P020,2025_May_06_1641,ConditionRich,2021.2.3,59.93550939186639,
26.0,26.75,17,0.75,Stimuli/P020/sun_bltxkcclrpweopkl.jpg,0,0,0.0,0,45,45,45,,,,,,,,,,,,,26.023500700001023,0.02350070000102278,None,74.56257809999806,74.56257809999806,74.56257809999806,74.56257809999806,74.56257809999806,74.56257809999806,74.56257809999806,74.56257809999806,74.56257809999806,74.56257809999806,,001,P020,2025_May_06_1641,ConditionRich,2021.2.3,59.93550939186639,
26.75,27.0,41,0.0,Stimuli/Blank.png,0,0,0.0,0,46,46,46,,,,,,,,,,,,,26.77287570000044,0.022875700000440702,None,75.29655740000089,75.29655740000089,75.29655740000089,75.29655740000089,75.29655740000089,75.29655740000089,75.29655740000089,75.29655740000089,75.29655740000089,75.29655740000089,,001,P020,2025_May_06_1641,ConditionRich,2021.2.3,59.93550939186639,
27.0,27.75,17,0.75,Stimuli/P020/sun_bltxkcclrpweopkl.jpg,0,0,0.0,0,47,47,47,,,,,,,,,,,,,27.00835619999998,0.008356199999980163,None,75.54678299999796,75.54678299999796,75.54678299999796,75.54678299999796,75.54678299999796,75.54678299999796,75.54678299999796,75.54678299999796,75.54678299999796,75.54678299999796,,001,P020,2025_May_06_1641,ConditionRich,2021.2.3,59.93550939186639,
27.75,28.0,41,0.0,Stimuli/Blank.png,0,0,0.0,0,48,48,48,,,,,,,,,,,,,27.773521499999333,0.023521499999333173,None,76.29743509999753,76.29743509999753,76.29743509999753,76.29743509999753,76.29743509999753,76.29743509999753,76.29743509999753,76.29743509999753,76.29743509999753,76.29743509999753,,001,P020,2025_May_06_1641,ConditionRich,2021.2.3,59.93550939186639,
28.0,28.75,24,0.75,Stimuli/P020/things_bulletin_board_10s.jpg,0,0,0.0,0,49,49,49,,,,,,,,,,,,,28.007889199998317,0.007889199998317054,None,76.53098160000081,76.53098160000081,76.53098160000081,76.53098160000081,76.53098160000081,76.53098160000081,76.53098160000081,76.53098160000081,76.53098160000081,76.53098160000081,,001,P020,2025_May_06_1641,ConditionRich,2021.2.3,59.93550939186639,
28.75,29.0,41,0.0,Stimuli/Blank.png,0,0,0.0,0,50,50,50,,,,,,,,,,,,,28.757878399999754,0.007878399999754038,None,77.28165140000056,77.28165140000056,77.28165140000056,77.28165140000056,77.28165140000056,77.28165140000056,77.28165140000056,77.28165140000056,77.28165140000056,77.28165140000056,,001,P020,2025_May_06_1641,ConditionRich,2021.2.3,59.93550939186639,
29.0,29.75,24,0.75,Stimuli/P020/things_bulletin_board_10s.jpg,0,0,0.0,0,51,51,51,,,,,,,,,,,,,29.00801270000011,0.008012700000108453,None,77.548545499998,77.548545499998,77.548545499998,77.548545499998,77.548545499998,77.548545499998,77.548545499998,77.548545499998,77.548545499998,77.548545499998,,001,P020,2025_May_06_1641,ConditionRich,2021.2.3,59.93550939186639,
29.75,30.0,41,0.0,Stimuli/Blank.png,0,0,0.0,0,52,52,52,,,,,,,,,,,,,29.77569129999756,0.025691299997561146,None,78.29920819999825,78.29920819999825,78.29920819999825,78.29920819999825,78.29920819999825,78.29920819999825,78.29920819999825,78.29920819999825,78.29920819999825,78.29920819999825,,001,P020,2025_May_06_1641,ConditionRich,2021.2.3,59.93550939186639,
30.0,30.75,24,0.75,Stimuli/P020/things_bulletin_board_10s.jpg,0,0,0.0,0,53,53,53,,,,,,,,,,,,,30.008981299997686,0.00898129999768571,None,78.53274819999933,78.53274819999933,78.53274819999933,78.53274819999933,78.53274819999933,78.53274819999933,78.53274819999933,78.53274819999933,78.53274819999933,78.53274819999933,,001,P020,2025_May_06_1641,ConditionRich,2021.2.3,59.93550939186639,
30.75,31.0,41,0.0,Stimuli/Blank.png,0,0,0.0,0,54,54,54,,,,,,,,,,,,,30.75914709999779,0.009147099997790065,None,79.28341770000043,79.28341770000043,79.28341770000043,79.28341770000043,79.28341770000043,79.28341770000043,79.28341770000043,79.28341770000043,79.28341770000043,79.28341770000043,,001,P020,2025_May_06_1641,ConditionRich,2021.2.3,59.93550939186639,
31.0,31.75,24,0.75,Stimuli/P020/things_bulletin_board_10s.jpg,0,0,0.0,0,55,55,55,,,,,,,,,,,,,31.009778799998458,0.009778799998457544,None,79.55059509999774,79.55059509999774,79.55059509999774,79.55059509999774,79.55059509999774,79.55059509999774,79.55059509999774,79.55059509999774,79.55059509999774,79.55059509999774,,001,P020,2025_May_06_1641,ConditionRich,2021.2.3,59.93550939186639,
31.75,32.0,41,0.0,Stimuli/Blank.png,0,0,0.0,0,56,56,56,,,,,,,,,,,,,31.777269800000795,0.02726980000079493,None,80.30094459999964,80.30094459999964,80.30094459999964,80.30094459999964,80.30094459999964,80.30094459999964,80.30094459999964,80.30094459999964,80.30094459999964,80.30094459999964,,001,P020,2025_May_06_1641,ConditionRich,2021.2.3,59.93550939186639,
32.0,32.75,40,0.75,Stimuli/P020/things_woman_10s.jpg,0,0,0.0,0,57,57,57,,,,,,,,,,,,,32.01068250000026,0.010682500000257278,None,80.53451510000014,80.53451510000014,80.53451510000014,80.53451510000014,80.53451510000014,80.53451510000014,80.53451510000014,80.53451510000014,80.53451510000014,80.53451510000014,,001,P020,2025_May_06_1641,ConditionRich,2021.2.3,59.93550939186639,
32.75,33.0,41,0.0,Stimuli/Blank.png,0,0,0.0,0,58,58,58,,,,,,,,,,,,,32.76359289999891,0.01359289999891189,None,81.30188730000009,81.30188730000009,81.30188730000009,81.30188730000009,81.30188730000009,81.30188730000009,81.30188730000009,81.30188730000009,81.30188730000009,81.30188730000009,,001,P020,2025_May_06_1641,ConditionRich,2021.2.3,59.93550939186639,
33.0,33.75,40,0.75,Stimuli/P020/things_woman_10s.jpg,0,0,0.0,0,59,59,59,,,,,,,,,,,,,33.02867239999978,0.028672399999777554,None,81.56879339999796,81.56879339999796,81.56879339999796,81.56879339999796,81.56879339999796,81.56879339999796,81.56879339999796,81.56879339999796,81.56879339999796,81.56879339999796,,001,P020,2025_May_06_1641,ConditionRich,2021.2.3,59.93550939186639,
33.75,34.0,41,0.0,Stimuli/Blank.png,0,0,0.0,0,60,60,60,,,,,,,,,,,,,33.77932610000062,0.02932610000061686,None,82.30276360000062,82.30276360000062,82.30276360000062,82.30276360000062,82.30276360000062,82.30276360000062,82.30276360000062,82.30276360000062,82.30276360000062,82.30276360000062,,001,P020,2025_May_06_1641,ConditionRich,2021.2.3,59.93550939186639,
34.0,34.75,40,0.75,Stimuli/P020/things_woman_10s.jpg,0,0,0.0,0,61,61,61,,,,,,,,,,,,,34.01421180000034,0.01421180000033928,None,82.55297879999853,82.55297879999853,82.55297879999853,82.55297879999853,82.55297879999853,82.55297879999853,82.55297879999853,82.55297879999853,82.55297879999853,82.55297879999853,,001,P020,2025_May_06_1641,ConditionRich,2021.2.3,59.93550939186639,
34.75,35.0,41,0.0,Stimuli/Blank.png,0,0,0.0,0,62,62,62,,,,,,,,,,,,,34.779863199997635,0.029863199997635093,None,83.30363319999742,83.30363319999742,83.30363319999742,83.30363319999742,83.30363319999742,83.30363319999742,83.30363319999742,83.30363319999742,83.30363319999742,83.30363319999742,,001,P020,2025_May_06_1641,ConditionRich,2021.2.3,59.93550939186639,
35.0,35.75,40,0.75,Stimuli/P020/things_woman_10s.jpg,0,0,0.0,0,63,63,63,,,,,,,,,,,,,35.013538100000005,0.013538100000005215,None,83.53716799999893,83.53716799999893,83.53716799999893,83.53716799999893,83.53716799999893,83.53716799999893,83.53716799999893,83.53716799999893,83.53716799999893,83.53716799999893,,001,P020,2025_May_06_1641,ConditionRich,2021.2.3,59.93550939186639,
35.75,36.0,41,0.0,Stimuli/Blank.png,0,0,0.0,0,64,64,64,,,,,,,,,,,,,35.76421499999924,0.014214999999239808,None,84.28784099999757,84.28784099999757,84.28784099999757,84.28784099999757,84.28784099999757,84.28784099999757,84.28784099999757,84.28784099999757,84.28784099999757,84.28784099999757,,001,P020,2025_May_06_1641,ConditionRich,2021.2.3,59.93550939186639,
36.0,36.75,35,0.75,Stimuli/P020/things_pretzel_10s.jpg,0,0,0.0,0,65,65,65,,,,,,,,,,,,,36.01357459999781,0.013574599997809855,None,84.57143889999861,84.57143889999861,84.57143889999861,84.57143889999861,84.57143889999861,84.57143889999861,84.57143889999861,84.57143889999861,84.57143889999861,84.57143889999861,,001,P020,2025_May_06_1641,ConditionRich,2021.2.3,59.93550939186639,
36.75,37.0,41,0.0,Stimuli/Blank.png,0,0,0.0,0,66,66,66,,,,,,,,,,,,,36.79822340000101,0.04822340000100667,None,85.3220880000008,85.3220880000008,85.3220880000008,85.3220880000008,85.3220880000008,85.3220880000008,85.3220880000008,85.3220880000008,85.3220880000008,85.3220880000008,,001,P020,2025_May_06_1641,ConditionRich,2021.2.3,59.93550939186639,
37.0,37.75,35,0.75,Stimuli/P020/things_pretzel_10s.jpg,0,0,0.0,0,67,67,67,,,,,,,,,,,,,37.015046299999085,0.015046299999085022,None,85.53894600000058,85.53894600000058,85.53894600000058,85.53894600000058,85.53894600000058,85.53894600000058,85.53894600000058,85.53894600000058,85.53894600000058,85.53894600000058,,001,P020,2025_May_06_1641,ConditionRich,2021.2.3,59.93550939186639,
37.75,38.0,41,0.0,Stimuli/Blank.png,0,0,0.0,0,68,68,68,,,,,,,,,,,,,37.74843449999753,-0.0015655000024707988,None,86.27292490000036,86.27292490000036,86.27292490000036,86.27292490000036,86.27292490000036,86.27292490000036,86.27292490000036,86.27292490000036,86.27292490000036,86.27292490000036,,001,P020,2025_May_06_1641,ConditionRich,2021.2.3,59.93550939186639,
38.0,38.75,35,0.75,Stimuli/P020/things_pretzel_10s.jpg,1,0,0.75,0,69,69,69,,,,,,,,,,,,,38.015570699997625,0.015570699997624615,1,86.53982879999967,86.53982879999967,86.53982879999967,86.53982879999967,86.53982879999967,86.53982879999967,86.53982879999967,None,86.53982879999967,86.53982879999967,0.46448660000169184,001,P020,2025_May_06_1641,ConditionRich,2021.2.3,59.93550939186639,
38.75,39.0,41,0.0,Stimuli/Blank.png,0,0,0.0,0,70,70,70,,,,,,,,,,,,,38.75036689999979,0.00036689999978989363,None,87.27381500000047,87.27381500000047,87.27381500000047,87.27381500000047,87.27381500000047,87.27381500000047,87.27381500000047,87.27381500000047,87.27381500000047,87.27381500000047,,001,P020,2025_May_06_1641,ConditionRich,2021.2.3,59.93550939186639,
39.0,39.75,35,0.75,Stimuli/P020/things_pretzel_10s.jpg,0,0,0.0,0,71,71,71,,,,,,,,,,,,,38.999471999999514,-0.0005280000004859176,None,87.52403889999914,87.52403889999914,87.52403889999914,87.52403889999914,87.52403889999914,87.52403889999914,87.52403889999914,87.52403889999914,87.52403889999914,87.52403889999914,,001,P020,2025_May_06_1641,ConditionRich,2021.2.3,59.93550939186639,
39.75,40.0,41,0.0,Stimuli/Blank.png,0,0,0.0,0,72,72,72,,,,,,,,,,,,,39.750836600000184,0.0008366000001842622,None,88.27469589999964,88.27469589999964,88.27469589999964,88.27469589999964,88.27469589999964,88.27469589999964,88.27469589999964,88.27469589999964,88.27469589999964,88.27469589999964,,001,P020,2025_May_06_1641,ConditionRich,2021.2.3,59.93550939186639,
40.0,40.75,33,0.75,Stimuli/P020/things_insole_10s.jpg,0,0,0.0,0,73,73,73,,,,,,,,,,,,,40.001030999999784,0.0010309999997843988,None,88.52491829999781,88.52491829999781,88.52491829999781,88.52491829999781,88.52491829999781,88.52491829999781,88.52491829999781,88.52491829999781,88.52491829999781,88.52491829999781,,001,P020,2025_May_06_1641,ConditionRich,2021.2.3,59.93550939186639,
40.75,41.0,41,0.0,Stimuli/Blank.png,0,0,0.0,0,74,74,74,,,,,,,,,,,,,40.75108429999818,0.001084299998183269,None,89.27561389999755,89.27561389999755,89.27561389999755,89.27561389999755,89.27561389999755,89.27561389999755,89.27561389999755,89.27561389999755,89.27561389999755,89.27561389999755,,001,P020,2025_May_06_1641,ConditionRich,2021.2.3,59.93550939186639,
41.0,41.75,33,0.75,Stimuli/P020/things_insole_10s.jpg,0,0,0.0,0,75,75,75,,,,,,,,,,,,,41.00543280000056,0.005432800000562565,None,89.54251119999753,89.54251119999753,89.54251119999753,89.54251119999753,89.54251119999753,89.54251119999753,89.54251119999753,89.54251119999753,89.54251119999753,89.54251119999753,,001,P020,2025_May_06_1641,ConditionRich,2021.2.3,59.93550939186639,
41.75,42.0,41,0.0,Stimuli/Blank.png,0,0,0.0,0,76,76,76,,,,,,,,,,,,,41.769299399999,0.019299399998999434,None,90.29315230000066,90.29315230000066,90.29315230000066,90.29315230000066,90.29315230000066,90.29315230000066,90.29315230000066,90.29315230000066,90.29315230000066,90.29315230000066,,001,P020,2025_May_06_1641,ConditionRich,2021.2.3,59.93550939186639,
42.0,42.75,33,0.75,Stimuli/P020/things_insole_10s.jpg,0,0,0.0,0,77,77,77,,,,,,,,,,,,,42.00264840000091,0.0026484000009077135,None,90.52669149999929,90.52669149999929,90.52669149999929,90.52669149999929,90.52669149999929,90.52669149999929,90.52669149999929,90.52669149999929,90.52669149999929,90.52669149999929,,001,P020,2025_May_06_1641,ConditionRich,2021.2.3,59.93550939186639,
42.75,43.0,41,0.0,Stimuli/Blank.png,0,0,0.0,0,78,78,78,,,,,,,,,,,,,42.75380299999961,0.003802999999606982,None,91.27735739999844,91.27735739999844,91.27735739999844,91.27735739999844,91.27735739999844,91.27735739999844,91.27735739999844,91.27735739999844,91.27735739999844,91.27735739999844,,001,P020,2025_May_06_1641,ConditionRich,2021.2.3,59.93550939186639,
43.0,43.75,33,0.75,Stimuli/P020/things_insole_10s.jpg,0,0,0.0,0,79,79,79,,,,,,,,,,,,,43.00450070000079,0.004500700000789948,None,91.54427669999859,91.54427669999859,91.54427669999859,91.54427669999859,91.54427669999859,91.54427669999859,91.54427669999859,91.54427669999859,91.54427669999859,91.54427669999859,,001,P020,2025_May_06_1641,ConditionRich,2021.2.3,59.93550939186639,
43.75,44.0,41,0.0,Stimuli/Blank.png,0,0,0.0,0,80,80,80,,,,,,,,,,,,,43.77156119999927,0.021561199999268865,None,92.29494859999977,92.29494859999977,92.29494859999977,92.29494859999977,92.29494859999977,92.29494859999977,92.29494859999977,92.29494859999977,92.29494859999977,92.29494859999977,,001,P020,2025_May_06_1641,ConditionRich,2021.2.3,59.93550939186639,
44.0,44.75,32,0.75,Stimuli/P020/things_girl_10s.jpg,0,0,0.0,0,81,81,81,,,,,,,,,,,,,44.00416570000016,0.004165700000157813,None,92.54514270000072,92.54514270000072,92.54514270000072,92.54514270000072,92.54514270000072,92.54514270000072,92.54514270000072,92.54514270000072,92.54514270000072,92.54514270000072,,001,P020,2025_May_06_1641,ConditionRich,2021.2.3,59.93550939186639,
44.75,45.0,41,0.0,Stimuli/Blank.png,0,0,0.0,0,82,82,82,,,,,,,,,,,,,44.77297610000096,0.022976100000960287,None,93.29581859999962,93.29581859999962,93.29581859999962,93.29581859999962,93.29581859999962,93.29581859999962,93.29581859999962,93.29581859999962,93.29581859999962,93.29581859999962,,001,P020,2025_May_06_1641,ConditionRich,2021.2.3,59.93550939186639,
45.0,45.75,32,0.75,Stimuli/P020/things_girl_10s.jpg,0,0,0.0,0,83,83,83,,,,,,,,,,,,,45.00518639999791,0.005186399997910485,None,93.52934769999774,93.52934769999774,93.52934769999774,93.52934769999774,93.52934769999774,93.52934769999774,93.52934769999774,93.52934769999774,93.52934769999774,93.52934769999774,,001,P020,2025_May_06_1641,ConditionRich,2021.2.3,59.93550939186639,
45.75,46.0,41,0.0,Stimuli/Blank.png,0,0,0.0,0,84,84,84,,,,,,,,,,,,,45.755485699999554,0.005485699999553617,None,94.28001099999892,94.28001099999892,94.28001099999892,94.28001099999892,94.28001099999892,94.28001099999892,94.28001099999892,94.28001099999892,94.28001099999892,94.28001099999892,,001,P020,2025_May_06_1641,ConditionRich,2021.2.3,59.93550939186639,
46.0,46.75,32,0.75,Stimuli/P020/things_girl_10s.jpg,0,0,0.0,0,85,85,85,,,,,,,,,,,,,46.00579269999798,0.005792699997982709,None,94.5469669999984,94.5469669999984,94.5469669999984,94.5469669999984,94.5469669999984,94.5469669999984,94.5469669999984,94.5469669999984,94.5469669999984,94.5469669999984,,001,P020,2025_May_06_1641,ConditionRich,2021.2.3,59.93550939186639,
46.75,47.0,41,0.0,Stimuli/Blank.png,0,0,0.0,0,86,86,86,,,,,,,,,,,,,46.77431549999892,0.02431549999892013,None,95.29758489999949,95.29758489999949,95.29758489999949,95.29758489999949,95.29758489999949,95.29758489999949,95.29758489999949,95.29758489999949,95.29758489999949,95.29758489999949,,001,P020,2025_May_06_1641,ConditionRich,2021.2.3,59.93550939186639,
47.0,47.75,32,0.75,Stimuli/P020/things_girl_10s.jpg,0,0,0.0,0,87,87,87,,,,,,,,,,,,,47.00783529999899,0.007835299998987466,None,95.54780150000079,95.54780150000079,95.54780150000079,95.54780150000079,95.54780150000079,95.54780150000079,95.54780150000079,95.54780150000079,95.54780150000079,95.54780150000079,,001,P020,2025_May_06_1641,ConditionRich,2021.2.3,59.93550939186639,
47.75,48.0,41,0.0,Stimuli/Blank.png,0,0,0.0,0,88,88,88,,,,,,,,,,,,,47.77411690000008,0.024116900000080932,None,96.29847119999977,96.29847119999977,96.29847119999977,96.29847119999977,96.29847119999977,96.29847119999977,96.29847119999977,96.29847119999977,96.29847119999977,96.29847119999977,,001,P020,2025_May_06_1641,ConditionRich,2021.2.3,59.93550939186639,
48.0,48.75,28,0.75,Stimuli/P020/things_face_10s.jpg,0,0,0.0,0,89,89,89,,,,,,,,,,,,,48.007532299998275,0.007532299998274539,None,96.54871930000081,96.54871930000081,96.54871930000081,96.54871930000081,96.54871930000081,96.54871930000081,96.54871930000081,96.54871930000081,96.54871930000081,96.54871930000081,,001,P020,2025_May_06_1641,ConditionRich,2021.2.3,59.93550939186639,
48.75,49.0,41,0.0,Stimuli/Blank.png,0,0,0.0,0,90,90,90,,,,,,,,,,,,,48.77493250000043,0.0249325000004319,None,97.29936239999734,97.29936239999734,97.29936239999734,97.29936239999734,97.29936239999734,97.29936239999734,97.29936239999734,97.29936239999734,97.29936239999734,97.29936239999734,,001,P020,2025_May_06_1641,ConditionRich,2021.2.3,59.93550939186639,
49.0,49.75,28,0.75,Stimuli/P020/things_face_10s.jpg,0,0,0.0,0,91,91,91,,,,,,,,,,,,,49.00838129999829,0.00838129999829107,None,97.53345369999806,97.53345369999806,97.53345369999806,97.53345369999806,97.53345369999806,97.53345369999806,97.53345369999806,97.53345369999806,97.53345369999806,97.53345369999806,,001,P020,2025_May_06_1641,ConditionRich,2021.2.3,59.93550939186639,
49.75,50.0,41,0.0,Stimuli/Blank.png,0,0,0.0,0,92,92,92,,,,,,,,,,,,,49.759185899998556,0.009185899998556124,None,98.2835172999985,98.2835172999985,98.2835172999985,98.2835172999985,98.2835172999985,98.2835172999985,98.2835172999985,98.2835172999985,98.2835172999985,98.2835172999985,,001,P020,2025_May_06_1641,ConditionRich,2021.2.3,59.93550939186639,
50.0,50.75,28,0.75,Stimuli/P020/things_face_10s.jpg,0,0,0.0,0,93,93,93,,,,,,,,,,,,,50.00931929999933,0.009319299999333452,None,98.53379859999768,98.53379859999768,98.53379859999768,98.53379859999768,98.53379859999768,98.53379859999768,98.53379859999768,98.53379859999768,98.53379859999768,98.53379859999768,,001,P020,2025_May_06_1641,ConditionRich,2021.2.3,59.93550939186639,
50.75,51.0,41,0.0,Stimuli/Blank.png,0,0,0.0,0,94,94,94,,,,,,,,,,,,,50.76004710000052,0.010047100000520004,None,99.28443399999742,99.28443399999742,99.28443399999742,99.28443399999742,99.28443399999742,99.28443399999742,99.28443399999742,99.28443399999742,99.28443399999742,99.28443399999742,,001,P020,2025_May_06_1641,ConditionRich,2021.2.3,59.93550939186639,
51.0,51.75,28,0.75,Stimuli/P020/things_face_10s.jpg,0,0,0.0,0,95,95,95,,,,,,,,,,,,,51.01080079999883,0.0108007999988331,None,99.55135529999825,99.55135529999825,99.55135529999825,99.55135529999825,99.55135529999825,99.55135529999825,99.55135529999825,99.55135529999825,99.55135529999825,99.55135529999825,,001,P020,2025_May_06_1641,ConditionRich,2021.2.3,59.93550939186639,
51.75,52.0,41,0.0,Stimuli/Blank.png,0,0,0.0,0,96,96,96,,,,,,,,,,,,,51.7791572999995,0.0291572999994969,None,100.30201079999824,100.30201079999824,100.30201079999824,100.30201079999824,100.30201079999824,100.30201079999824,100.30201079999824,100.30201079999824,100.30201079999824,100.30201079999824,,001,P020,2025_May_06_1641,ConditionRich,2021.2.3,59.93550939186639,
52.0,52.75,2,0.75,Stimuli/P020/sun_ajhvfwzgpfovdgid.jpg,0,0,0.0,0,97,97,97,,,,,,,,,,,,,52.011281099999906,0.011281099999905564,None,100.56891529999848,100.56891529999848,100.56891529999848,100.56891529999848,100.56891529999848,100.56891529999848,100.56891529999848,100.56891529999848,100.56891529999848,100.56891529999848,,001,P020,2025_May_06_1641,ConditionRich,2021.2.3,59.93550939186639,
52.75,53.0,41,0.0,Stimuli/Blank.png,0,0,0.0,0,98,98,98,,,,,,,,,,,,,52.795200299999124,0.04520029999912367,None,101.31956530000025,101.31956530000025,101.31956530000025,101.31956530000025,101.31956530000025,101.31956530000025,101.31956530000025,101.31956530000025,101.31956530000025,101.31956530000025,,001,P020,2025_May_06_1641,ConditionRich,2021.2.3,59.93550939186639,
53.0,53.75,2,0.75,Stimuli/P020/sun_ajhvfwzgpfovdgid.jpg,0,0,0.0,0,99,99,99,,,,,,,,,,,,,53.01314300000013,0.013143000000127358,None,101.55310429999736,101.55310429999736,101.55310429999736,101.55310429999736,101.55310429999736,101.55310429999736,101.55310429999736,101.55310429999736,101.55310429999736,101.55310429999736,,001,P020,2025_May_06_1641,ConditionRich,2021.2.3,59.93550939186639,
53.75,54.0,41,0.0,Stimuli/Blank.png,0,0,0.0,0,100,100,100,,,,,,,,,,,,,53.78042099999948,0.030420999999478227,None,102.30377009999938,102.30377009999938,102.30377009999938,102.30377009999938,102.30377009999938,102.30377009999938,102.30377009999938,102.30377009999938,102.30377009999938,102.30377009999938,,001,P020,2025_May_06_1641,ConditionRich,2021.2.3,59.93550939186639,
54.0,54.75,2,0.75,Stimuli/P020/sun_ajhvfwzgpfovdgid.jpg,0,0,0.0,0,101,101,101,,,,,,,,,,,,,54.012843699998484,0.012843699998484226,None,102.5373116999981,102.5373116999981,102.5373116999981,102.5373116999981,102.5373116999981,102.5373116999981,102.5373116999981,102.5373116999981,102.5373116999981,102.5373116999981,,001,P020,2025_May_06_1641,ConditionRich,2021.2.3,59.93550939186639,
54.75,55.0,41,0.0,Stimuli/Blank.png,0,0,0.0,0,102,102,102,,,,,,,,,,,,,54.764490400000795,0.01449040000079549,None,103.28798259999894,103.28798259999894,103.28798259999894,103.28798259999894,103.28798259999894,103.28798259999894,103.28798259999894,103.28798259999894,103.28798259999894,103.28798259999894,,001,P020,2025_May_06_1641,ConditionRich,2021.2.3,59.93550939186639,
55.0,55.75,2,0.75,Stimuli/P020/sun_ajhvfwzgpfovdgid.jpg,0,0,0.0,0,103,103,103,,,,,,,,,,,,,55.01549089999753,0.015490899997530505,None,103.55488639999749,103.55488639999749,103.55488639999749,103.55488639999749,103.55488639999749,103.55488639999749,103.55488639999749,103.55488639999749,103.55488639999749,103.55488639999749,,001,P020,2025_May_06_1641,ConditionRich,2021.2.3,59.93550939186639,
55.75,56.0,41,0.0,Stimuli/Blank.png,0,0,0.0,0,104,104,104,,,,,,,,,,,,,55.76452419999987,0.01452419999986887,None,104.2888415999987,104.2888415999987,104.2888415999987,104.2888415999987,104.2888415999987,104.2888415999987,104.2888415999987,104.2888415999987,104.2888415999987,104.2888415999987,,001,P020,2025_May_06_1641,ConditionRich,2021.2.3,59.93550939186639,
56.0,56.75,19,0.75,Stimuli/P020/sun_byssdezaaqnthppd.jpg,0,0,0.0,0,105,105,105,,,,,,,,,,,,,56.01476769999863,0.014767699998628814,None,104.55576719999954,104.55576719999954,104.55576719999954,104.55576719999954,104.55576719999954,104.55576719999954,104.55576719999954,104.55576719999954,104.55576719999954,104.55576719999954,,001,P020,2025_May_06_1641,ConditionRich,2021.2.3,59.93550939186639,
56.75,57.0,41,0.0,Stimuli/Blank.png,0,0,0.0,0,106,106,106,,,,,,,,,,,,,56.78231890000097,0.03231890000097337,None,105.30649199999971,105.30649199999971,105.30649199999971,105.30649199999971,105.30649199999971,105.30649199999971,105.30649199999971,105.30649199999971,105.30649199999971,105.30649199999971,,001,P020,2025_May_06_1641,ConditionRich,2021.2.3,59.93550939186639,
57.0,57.75,19,0.75,Stimuli/P020/sun_byssdezaaqnthppd.jpg,0,0,0.0,0,107,107,107,,,,,,,,,,,,,56.9989390999981,-0.0010609000019030645,None,105.52329499999905,105.52329499999905,105.52329499999905,105.52329499999905,105.52329499999905,105.52329499999905,105.52329499999905,105.52329499999905,105.52329499999905,105.52329499999905,,001,P020,2025_May_06_1641,ConditionRich,2021.2.3,59.93550939186639,
57.75,58.0,41,0.0,Stimuli/Blank.png,0,0,0.0,0,108,108,108,,,,,,,,,,,,,57.750250699999015,0.00025069999901461415,None,106.27395269999761,106.27395269999761,106.27395269999761,106.27395269999761,106.27395269999761,106.27395269999761,106.27395269999761,106.27395269999761,106.27395269999761,106.27395269999761,,001,P020,2025_May_06_1641,ConditionRich,2021.2.3,59.93550939186639,
58.0,58.75,19,0.75,Stimuli/P020/sun_byssdezaaqnthppd.jpg,0,0,0.0,0,109,109,109,,,,,,,,,,,,,57.999940999998216,-5.900000178371556e-05,None,106.52417689999857,106.52417689999857,106.52417689999857,106.52417689999857,106.52417689999857,106.52417689999857,106.52417689999857,106.52417689999857,106.52417689999857,106.52417689999857,,001,P020,2025_May_06_1641,ConditionRich,2021.2.3,59.93550939186639,
58.75,59.0,41,0.0,Stimuli/Blank.png,0,0,0.0,0,110,110,110,,,,,,,,,,,,,58.7508620999979,0.0008620999979029875,None,107.27483690000008,107.27483690000008,107.27483690000008,107.27483690000008,107.27483690000008,107.27483690000008,107.27483690000008,107.27483690000008,107.27483690000008,107.27483690000008,,001,P020,2025_May_06_1641,ConditionRich,2021.2.3,59.93550939186639,
59.0,59.75,19,0.75,Stimuli/P020/sun_byssdezaaqnthppd.jpg,0,0,0.0,0,111,111,111,,,,,,,,,,,,,59.00141090000034,0.0014109000003372785,None,107.54174449999846,107.54174449999846,107.54174449999846,107.54174449999846,107.54174449999846,107.54174449999846,107.54174449999846,107.54174449999846,107.54174449999846,107.54174449999846,,001,P020,2025_May_06_1641,ConditionRich,2021.2.3,59.93550939186639,
59.75,60.0,41,0.0,Stimuli/Blank.png,0,0,0.0,0,112,112,112,,,,,,,,,,,,,59.76938909999808,0.019389099998079473,None,108.29242519999752,108.29242519999752,108.29242519999752,108.29242519999752,108.29242519999752,108.29242519999752,108.29242519999752,108.29242519999752,108.29242519999752,108.29242519999752,,001,P020,2025_May_06_1641,ConditionRich,2021.2.3,59.93550939186639,
60.0,60.75,36,0.75,Stimuli/P020/things_sunroof_10s.jpg,0,0,0.0,0,113,113,113,,,,,,,,,,,,,60.00249949999852,0.0024994999985210598,None,108.54263100000026,108.54263100000026,108.54263100000026,108.54263100000026,108.54263100000026,108.54263100000026,108.54263100000026,108.54263100000026,108.54263100000026,108.54263100000026,,001,P020,2025_May_06_1641,ConditionRich,2021.2.3,59.93550939186639,
60.75,61.0,41,0.0,Stimuli/Blank.png,0,0,0.0,0,114,114,114,,,,,,,,,,,,,60.768985200000316,0.018985200000315672,None,109.29329040000084,109.29329040000084,109.29329040000084,109.29329040000084,109.29329040000084,109.29329040000084,109.29329040000084,109.29329040000084,109.29329040000084,109.29329040000084,,001,P020,2025_May_06_1641,ConditionRich,2021.2.3,59.93550939186639,
61.0,61.75,36,0.75,Stimuli/P020/things_sunroof_10s.jpg,0,0,0.0,0,115,115,115,,,,,,,,,,,,,61.00307059999977,0.003070599999773549,None,109.52684459999728,109.52684459999728,109.52684459999728,109.52684459999728,109.52684459999728,109.52684459999728,109.52684459999728,109.52684459999728,109.52684459999728,109.52684459999728,,001,P020,2025_May_06_1641,ConditionRich,2021.2.3,59.93550939186639,
61.75,62.0,41,0.0,Stimuli/Blank.png,0,0,0.0,0,116,116,116,,,,,,,,,,,,,61.7542246999983,0.004224699998303549,None,110.2775072000004,110.2775072000004,110.2775072000004,110.2775072000004,110.2775072000004,110.2775072000004,110.2775072000004,110.2775072000004,110.2775072000004,110.2775072000004,,001,P020,2025_May_06_1641,ConditionRich,2021.2.3,59.93550939186639,
62.0,62.75,36,0.75,Stimuli/P020/things_sunroof_10s.jpg,1,0,0.75,0,117,117,117,,,,,,,,,,,,,62.00334440000006,0.003344400000059977,1,110.52771799999755,110.52771799999755,110.52771799999755,110.52771799999755,110.52771799999755,110.52771799999755,110.52771799999755,111.26170490000004,110.52771799999755,110.52771799999755,0.37763279999853694,001,P020,2025_May_06_1641,ConditionRich,2021.2.3,59.93550939186639,
62.75,63.0,41,0.0,Stimuli/Blank.png,0,0,0.0,0,118,118,118,,,,,,,,,,,,,62.75450799999817,0.0045079999981680885,None,111.27837659999932,111.27837659999932,111.27837659999932,111.27837659999932,111.27837659999932,111.27837659999932,111.27837659999932,111.27837659999932,111.27837659999932,111.27837659999932,,001,P020,2025_May_06_1641,ConditionRich,2021.2.3,59.93550939186639,
63.0,63.75,36,0.75,Stimuli/P020/things_sunroof_10s.jpg,0,0,0.0,0,119,119,119,,,,,,,,,,,,,63.004609299998265,0.00460929999826476,None,111.52860329999749,111.52860329999749,111.52860329999749,111.52860329999749,111.52860329999749,111.52860329999749,111.52860329999749,111.52860329999749,111.52860329999749,111.52860329999749,,001,P020,2025_May_06_1641,ConditionRich,2021.2.3,59.93550939186639,
63.75,64.0,41,0.0,Stimuli/Blank.png,0,0,0.0,0,120,120,120,,,,,,,,,,,,,63.75541299999895,0.005412999998952728,None,112.2792812000007,112.2792812000007,112.2792812000007,112.2792812000007,112.2792812000007,112.2792812000007,112.2792812000007,112.2792812000007,112.2792812000007,112.2792812000007,,001,P020,2025_May_06_1641,ConditionRich,2021.2.3,59.93550939186639,
64.0,64.75,1,0.75,Stimuli/P020/sun_aaaidwecchadbake.jpg,0,0,0.0,0,121,121,121,,,,,,,,,,,,,64.00528660000055,0.00528660000054515,None,112.56287959999827,112.56287959999827,112.56287959999827,112.56287959999827,112.56287959999827,112.56287959999827,112.56287959999827,112.56287959999827,112.56287959999827,112.56287959999827,,001,P020,2025_May_06_1641,ConditionRich,2021.2.3,59.93550939186639,
64.75,65.0,41,0.0,Stimuli/Blank.png,0,0,0.0,0,122,122,122,,,,,,,,,,,,,64.78899749999982,0.03899749999982305,None,113.31351079999877,113.31351079999877,113.31351079999877,113.31351079999877,113.31351079999877,113.31351079999877,113.31351079999877,113.31351079999877,113.31351079999877,113.31351079999877,,001,P020,2025_May_06_1641,ConditionRich,2021.2.3,59.93550939186639,
65.0,65.75,1,0.75,Stimuli/P020/sun_aaaidwecchadbake.jpg,0,0,0.0,0,123,123,123,,,,,,,,,,,,,65.0066052000002,0.0066052000001946,None,113.53038100000049,113.53038100000049,113.53038100000049,113.53038100000049,113.53038100000049,113.53038100000049,113.53038100000049,113.53038100000049,113.53038100000049,113.53038100000049,,001,P020,2025_May_06_1641,ConditionRich,2021.2.3,59.93550939186639,
65.75,66.0,41,0.0,Stimuli/Blank.png,0,0,0.0,0,124,124,124,,,,,,,,,,,,,65.75784569999814,0.007845699998142663,None,114.28104610000082,114.28104610000082,114.28104610000082,114.28104610000082,114.28104610000082,114.28104610000082,114.28104610000082,114.28104610000082,114.28104610000082,114.28104610000082,,001,P020,2025_May_06_1641,ConditionRich,2021.2.3,59.93550939186639,
66.0,66.75,1,0.75,Stimuli/P020/sun_aaaidwecchadbake.jpg,0,0,0.0,0,125,125,125,,,,,,,,,,,,,66.00717280000026,0.007172800000262214,None,114.5312574999989,114.5312574999989,114.5312574999989,114.5312574999989,114.5312574999989,114.5312574999989,114.5312574999989,114.5312574999989,114.5312574999989,114.5312574999989,,001,P020,2025_May_06_1641,ConditionRich,2021.2.3,59.93550939186639,
66.75,67.0,41,0.0,Stimuli/Blank.png,0,0,0.0,0,126,126,126,,,,,,,,,,,,,66.75811319999775,0.008113199997751508,None,115.28186509999796,115.28186509999796,115.28186509999796,115.28186509999796,115.28186509999796,115.28186509999796,115.28186509999796,115.28186509999796,115.28186509999796,115.28186509999796,,001,P020,2025_May_06_1641,ConditionRich,2021.2.3,59.93550939186639,
67.0,67.75,1,0.75,Stimuli/P020/sun_aaaidwecchadbake.jpg,0,0,0.0,0,127,127,127,,,,,,,,,,,,,67.00828999999794,0.008289999997941777,None,115.53210749999926,115.53210749999926,115.53210749999926,115.53210749999926,115.53210749999926,115.53210749999926,115.53210749999926,115.53210749999926,115.53210749999926,115.53210749999926,,001,P020,2025_May_06_1641,ConditionRich,2021.2.3,59.93550939186639,
67.75,68.0,41,0.0,Stimuli/Blank.png,0,0,0.0,0,128,128,128,,,,,,,,,,,,,67.75907409999854,0.009074099998542806,None,116.2828112999996,116.2828112999996,116.2828112999996,116.2828112999996,116.2828112999996,116.2828112999996,116.2828112999996,116.2828112999996,116.2828112999996,116.2828112999996,,001,P020,2025_May_06_1641,ConditionRich,2021.2.3,59.93550939186639,
68.0,68.75,27,0.75,Stimuli/P020/things_eel_10s.jpg,0,0,0.0,0,129,129,129,,,,,,,,,,,,,68.00856239999848,0.008562399998481851,None,116.53302360000089,116.53302360000089,116.53302360000089,116.53302360000089,116.53302360000089,116.53302360000089,116.53302360000089,116.53302360000089,116.53302360000089,116.53302360000089,,001,P020,2025_May_06_1641,ConditionRich,2021.2.3,59.93550939186639,
68.75,69.0,41,0.0,Stimuli/Blank.png,0,0,0.0,0,130,130,130,,,,,,,,,,,,,68.75987069999974,0.009870699999737553,None,117.2836905999975,117.2836905999975,117.2836905999975,117.2836905999975,117.2836905999975,117.2836905999975,117.2836905999975,117.2836905999975,117.2836905999975,117.2836905999975,,001,P020,2025_May_06_1641,ConditionRich,2021.2.3,59.93550939186639,
69.0,69.75,27,0.75,Stimuli/P020/things_eel_10s.jpg,0,0,0.0,0,131,131,131,,,,,,,,,,,,,69.00958099999843,0.009580999998433981,None,117.53390509999736,117.53390509999736,117.53390509999736,117.53390509999736,117.53390509999736,117.53390509999736,117.53390509999736,117.53390509999736,117.53390509999736,117.53390509999736,,001,P020,2025_May_06_1641,ConditionRich,2021.2.3,59.93550939186639,
69.75,70.0,41,0.0,Stimuli/Blank.png,0,0,0.0,0,132,132,132,,,,,,,,,,,,,69.76094939999894,0.010949399998935405,None,118.28457689999777,118.28457689999777,118.28457689999777,118.28457689999777,118.28457689999777,118.28457689999777,118.28457689999777,118.28457689999777,118.28457689999777,118.28457689999777,,001,P020,2025_May_06_1641,ConditionRich,2021.2.3,59.93550939186639,
70.0,70.75,27,0.75,Stimuli/P020/things_eel_10s.jpg,1,0,0.75,0,133,133,133,,,,,,,,,,,,,70.01103629999852,0.011036299998522736,1,118.5514989000003,118.5514989000003,118.5514989000003,118.5514989000003,118.5514989000003,118.5514989000003,118.5514989000003,119.2688261000003,118.5514989000003,118.5514989000003,0.44488579999961075,001,P020,2025_May_06_1641,ConditionRich,2021.2.3,59.93550939186639,
70.75,71.0,41,0.0,Stimuli/Blank.png,0,0,0.0,0,134,134,134,,,,,,,,,,,,,70.77886239999862,0.02886239999861573,None,119.30215999999928,119.30215999999928,119.30215999999928,119.30215999999928,119.30215999999928,119.30215999999928,119.30215999999928,119.30215999999928,119.30215999999928,119.30215999999928,,001,P020,2025_May_06_1641,ConditionRich,2021.2.3,59.93550939186639,
71.0,71.75,27,0.75,Stimuli/P020/things_eel_10s.jpg,0,0,0.0,0,135,135,135,,,,,,,,,,,,,71.01123680000092,0.011236800000915537,None,119.55237619999752,119.55237619999752,119.55237619999752,119.55237619999752,119.55237619999752,119.55237619999752,119.55237619999752,119.55237619999752,119.55237619999752,119.55237619999752,,001,P020,2025_May_06_1641,ConditionRich,2021.2.3,59.93550939186639,
71.75,72.0,41,0.0,Stimuli/Blank.png,0,0,0.0,0,136,136,136,,,,,,,,,,,,,71.77938480000012,0.02938480000011623,None,120.30303279999862,120.30303279999862,120.30303279999862,120.30303279999862,120.30303279999862,120.30303279999862,120.30303279999862,120.30303279999862,120.30303279999862,120.30303279999862,,001,P020,2025_May_06_1641,ConditionRich,2021.2.3,59.93550939186639,
72.0,72.75,37,0.75,Stimuli/P020/things_toaster_10s.jpg,0,0,0.0,0,137,137,137,,,,,,,,,,,,,72.01503859999866,0.015038599998661084,None,120.56996689999869,120.56996689999869,120.56996689999869,120.56996689999869,120.56996689999869,120.56996689999869,120.56996689999869,120.56996689999869,120.56996689999869,120.56996689999869,,001,P020,2025_May_06_1641,ConditionRich,2021.2.3,59.93550939186639,
72.75,73.0,41,0.0,Stimuli/Blank.png,0,0,0.0,0,138,138,138,,,,,,,,,,,,,72.79753770000025,0.04753770000024815,None,121.32062799999767,121.32062799999767,121.32062799999767,121.32062799999767,121.32062799999767,121.32062799999767,121.32062799999767,121.32062799999767,121.32062799999767,121.32062799999767,,001,P020,2025_May_06_1641,ConditionRich,2021.2.3,59.93550939186639,
73.0,73.75,37,0.75,Stimuli/P020/things_toaster_10s.jpg,0,0,0.0,0,139,139,139,,,,,,,,,,,,,73.01347279999754,0.013472799997543916,None,121.53745479999998,121.53745479999998,121.53745479999998,121.53745479999998,121.53745479999998,121.53745479999998,121.53745479999998,121.53745479999998,121.53745479999998,121.53745479999998,,001,P020,2025_May_06_1641,ConditionRich,2021.2.3,59.93550939186639,
73.75,74.0,41,0.0,Stimuli/Blank.png,0,0,0.0,0,140,140,140,,,,,,,,,,,,,73.76408509999965,0.014085099999647355,None,122.28813669999727,122.28813669999727,122.28813669999727,122.28813669999727,122.28813669999727,122.28813669999727,122.28813669999727,122.28813669999727,122.28813669999727,122.28813669999727,,001,P020,2025_May_06_1641,ConditionRich,2021.2.3,59.93550939186639,
74.0,74.75,37,0.75,Stimuli/P020/things_toaster_10s.jpg,0,0,0.0,0,141,141,141,,,,,,,,,,,,,74.01447479999842,0.014474799998424714,None,122.53833300000042,122.53833300000042,122.53833300000042,122.53833300000042,122.53833300000042,122.53833300000042,122.53833300000042,122.53833300000042,122.53833300000042,122.53833300000042,,001,P020,2025_May_06_1641,ConditionRich,2021.2.3,59.93550939186639,
74.75,75.0,41,0.0,Stimuli/Blank.png,0,0,0.0,0,142,142,142,,,,,,,,,,,,,74.76556820000042,0.015568200000416255,None,123.28900149999754,123.28900149999754,123.28900149999754,123.28900149999754,123.28900149999754,123.28900149999754,123.28900149999754,123.28900149999754,123.28900149999754,123.28900149999754,,001,P020,2025_May_06_1641,ConditionRich,2021.2.3,59.93550939186639,
75.0,75.75,37,0.75,Stimuli/P020/things_toaster_10s.jpg,0,0,0.0,0,143,143,143,,,,,,,,,,,,,74.99936800000069,-0.0006319999993138481,None,123.53922519999833,123.53922519999833,123.53922519999833,123.53922519999833,123.53922519999833,123.53922519999833,123.53922519999833,123.53922519999833,123.53922519999833,123.53922519999833,,001,P020,2025_May_06_1641,ConditionRich,2021.2.3,59.93550939186639,
75.75,76.0,41,0.0,Stimuli/Blank.png,0,0,0.0,0,144,144,144,,,,,,,,,,,,,75.76552919999813,0.015529199998127297,None,124.28989530000035,124.28989530000035,124.28989530000035,124.28989530000035,124.28989530000035,124.28989530000035,124.28989530000035,124.28989530000035,124.28989530000035,124.28989530000035,,001,P020,2025_May_06_1641,ConditionRich,2021.2.3,59.93550939186639,
76.0,76.75,7,0.75,Stimuli/P020/sun_aqkbfuonyunmyqxb.jpg,0,0,0.0,0,145,145,145,,,,,,,,,,,,,75.99893650000013,-0.0010634999998728745,None,124.54012669999793,124.54012669999793,124.54012669999793,124.54012669999793,124.54012669999793,124.54012669999793,124.54012669999793,124.54012669999793,124.54012669999793,124.54012669999793,,001,P020,2025_May_06_1641,ConditionRich,2021.2.3,59.93550939186639,
76.75,77.0,41,0.0,Stimuli/Blank.png,0,0,0.0,0,146,146,146,,,,,,,,,,,,,76.76854719999756,0.018547199997556163,None,125.30746429999999,125.30746429999999,125.30746429999999,125.30746429999999,125.30746429999999,125.30746429999999,125.30746429999999,125.30746429999999,125.30746429999999,125.30746429999999,,001,P020,2025_May_06_1641,ConditionRich,2021.2.3,59.93550939186639,
77.0,77.75,7,0.75,Stimuli/P020/sun_aqkbfuonyunmyqxb.jpg,0,0,0.0,0,147,147,147,,,,,,,,,,,,,77.01964189999853,0.019641899998532608,None,125.55773520000002,125.55773520000002,125.55773520000002,125.55773520000002,125.55773520000002,125.55773520000002,125.55773520000002,125.55773520000002,125.55773520000002,125.55773520000002,,001,P020,2025_May_06_1641,ConditionRich,2021.2.3,59.93550939186639,
77.75,78.0,41,0.0,Stimuli/Blank.png,0,0,0.0,0,148,148,148,,,,,,,,,,,,,77.76737479999792,0.01737479999792413,None,126.29167360000065,126.29167360000065,126.29167360000065,126.29167360000065,126.29167360000065,126.29167360000065,126.29167360000065,126.29167360000065,126.29167360000065,126.29167360000065,,001,P020,2025_May_06_1641,ConditionRich,2021.2.3,59.93550939186639,
78.0,78.75,7,0.75,Stimuli/P020/sun_aqkbfuonyunmyqxb.jpg,0,0,0.0,0,149,149,149,,,,,,,,,,,,,78.00125769999795,0.0012576999979501124,None,126.54190179999932,126.54190179999932,126.54190179999932,126.54190179999932,126.54190179999932,126.54190179999932,126.54190179999932,126.54190179999932,126.54190179999932,126.54190179999932,,001,P020,2025_May_06_1641,ConditionRich,2021.2.3,59.93550939186639,
78.75,79.0,41,0.0,Stimuli/Blank.png,0,0,0.0,0,150,150,150,,,,,,,,,,,,,78.76962419999836,0.01962419999836129,None,127.29252059999999,127.29252059999999,127.29252059999999,127.29252059999999,127.29252059999999,127.29252059999999,127.29252059999999,127.29252059999999,127.29252059999999,127.29252059999999,,001,P020,2025_May_06_1641,ConditionRich,2021.2.3,59.93550939186639,
79.0,79.75,7,0.75,Stimuli/P020/sun_aqkbfuonyunmyqxb.jpg,0,0,0.0,0,151,151,151,,,,,,,,,,,,,79.00227929999892,0.0022792999989178497,None,127.52608449999752,127.52608449999752,127.52608449999752,127.52608449999752,127.52608449999752,127.52608449999752,127.52608449999752,127.52608449999752,127.52608449999752,127.52608449999752,,001,P020,2025_May_06_1641,ConditionRich,2021.2.3,59.93550939186639,
79.75,80.0,41,0.0,Stimuli/Blank.png,0,0,0.0,0,152,152,152,,,,,,,,,,,,,79.7528276999983,0.0028276999983063433,None,128.27676380000048,128.27676380000048,128.27676380000048,128.27676380000048,128.27676380000048,128.27676380000048,128.27676380000048,128.27676380000048,128.27676380000048,128.27676380000048,,001,P020,2025_May_06_1641,ConditionRich,2021.2.3,59.93550939186639,
80.0,80.75,15,0.75,Stimuli/P020/sun_bkubdnohuakmwcaj.jpg,0,0,0.0,0,153,153,153,,,,,,,,,,,,,80.00377329999901,0.003773299999011215,None,128.54366939999818,128.54366939999818,128.54366939999818,128.54366939999818,128.54366939999818,128.54366939999818,128.54366939999818,128.54366939999818,128.54366939999818,128.54366939999818,,001,P020,2025_May_06_1641,ConditionRich,2021.2.3,59.93550939186639,
80.75,81.0,41,0.0,Stimuli/Blank.png,0,0,0.0,0,154,154,154,,,,,,,,,,,,,80.7704405000004,0.020440500000404427,None,129.29431489999843,129.29431489999843,129.29431489999843,129.29431489999843,129.29431489999843,129.29431489999843,129.29431489999843,129.29431489999843,129.29431489999843,129.29431489999843,,001,P020,2025_May_06_1641,ConditionRich,2021.2.3,59.93550939186639,
81.0,81.75,15,0.75,Stimuli/P020/sun_bkubdnohuakmwcaj.jpg,0,0,0.0,0,155,155,155,,,,,,,,,,,,,81.00400259999878,0.004002599998784717,None,129.5445609999988,129.5445609999988,129.5445609999988,129.5445609999988,129.5445609999988,129.5445609999988,129.5445609999988,129.5445609999988,129.5445609999988,129.5445609999988,,001,P020,2025_May_06_1641,ConditionRich,2021.2.3,59.93550939186639,
81.75,82.0,41,0.0,Stimuli/Blank.png,0,0,0.0,0,156,156,156,,,,,,,,,,,,,81.7712939999983,0.02129399999830639,None,130.29522899999938,130.29522899999938,130.29522899999938,130.29522899999938,130.29522899999938,130.29522899999938,130.29522899999938,130.29522899999938,130.29522899999938,130.29522899999938,,001,P020,2025_May_06_1641,ConditionRich,2021.2.3,59.93550939186639,
82.0,82.75,15,0.75,Stimuli/P020/sun_bkubdnohuakmwcaj.jpg,0,0,0.0,0,157,157,157,,,,,,,,,,,,,82.00451550000071,0.004515500000707107,None,130.52874410000004,130.52874410000004,130.52874410000004,130.52874410000004,130.52874410000004,130.52874410000004,130.52874410000004,130.52874410000004,130.52874410000004,130.52874410000004,,001,P020,2025_May_06_1641,ConditionRich,2021.2.3,59.93550939186639,
82.75,83.0,41,0.0,Stimuli/Blank.png,0,0,0.0,0,158,158,158,,,,,,,,,,,,,82.75538229999802,0.005382299998018425,None,131.27940189999936,131.27940189999936,131.27940189999936,131.27940189999936,131.27940189999936,131.27940189999936,131.27940189999936,131.27940189999936,131.27940189999936,131.27940189999936,,001,P020,2025_May_06_1641,ConditionRich,2021.2.3,59.93550939186639,
83.0,83.75,15,0.75,Stimuli/P020/sun_bkubdnohuakmwcaj.jpg,0,0,0.0,0,159,159,159,,,,,,,,,,,,,83.00542399999904,0.005423999999038642,None,131.52963109999837,131.52963109999837,131.52963109999837,131.52963109999837,131.52963109999837,131.52963109999837,131.52963109999837,131.52963109999837,131.52963109999837,131.52963109999837,,001,P020,2025_May_06_1641,ConditionRich,2021.2.3,59.93550939186639,
83.75,84.0,41,0.0,Stimuli/Blank.png,0,0,0.0,0,160,160,160,,,,,,,,,,,,,83.75859610000043,0.008596100000431761,None,132.29698129999815,132.29698129999815,132.29698129999815,132.29698129999815,132.29698129999815,132.29698129999815,132.29698129999815,132.29698129999815,132.29698129999815,132.29698129999815,,001,P020,2025_May_06_1641,ConditionRich,2021.2.3,59.93550939186639,
84.0,100.0,0,0.0,Stimuli/Blank.png,1,7,7.75,0,161,161,161,,,,,,,,,,,,,84.02348849999908,0.02348849999907543,1,132.5471738999986,132.5471738999986,132.5471738999986,132.5471738999986,132.5471738999986,132.5471738999986,139.5367081000004,140.28738309999972,132.5471738999986,132.5471738999986,7.574205800003256,001,P020,2025_May_06_1641,ConditionRich,2021.2.3,59.93550939186639,
100.0,100.75,10,0.75,Stimuli/P020/sun_bblqhrudkospnbbv.jpg,0,0,0.0,0,162,162,162,,,,,,,,,,,,,100.00424419999763,0.004244199997629039,None,148.5613998000008,148.5613998000008,148.5613998000008,148.5613998000008,148.5613998000008,148.5613998000008,148.5613998000008,148.5613998000008,148.5613998000008,148.5613998000008,,001,P020,2025_May_06_1641,ConditionRich,2021.2.3,59.93550939186639,
100.75,101.0,41,0.0,Stimuli/Blank.png,0,0,0.0,0,163,163,163,,,,,,,,,,,,,100.78837799999746,0.03837799999746494,None,149.31200479999825,149.31200479999825,149.31200479999825,149.31200479999825,149.31200479999825,149.31200479999825,149.31200479999825,149.31200479999825,149.31200479999825,149.31200479999825,,001,P020,2025_May_06_1641,ConditionRich,2021.2.3,59.93550939186639,
101.0,101.75,10,0.75,Stimuli/P020/sun_bblqhrudkospnbbv.jpg,0,0,0.0,0,164,164,164,,,,,,,,,,,,,101.0049168000005,0.004916800000501098,None,149.5288834999992,149.5288834999992,149.5288834999992,149.5288834999992,149.5288834999992,149.5288834999992,149.5288834999992,149.5288834999992,149.5288834999992,149.5288834999992,,001,P020,2025_May_06_1641,ConditionRich,2021.2.3,59.93550939186639,
101.75,102.0,41,0.0,Stimuli/Blank.png,0,0,0.0,0,165,165,165,,,,,,,,,,,,,101.75493909999932,0.004939099999319296,None,150.27954509999836,150.27954509999836,150.27954509999836,150.27954509999836,150.27954509999836,150.27954509999836,150.27954509999836,150.27954509999836,150.27954509999836,150.27954509999836,,001,P020,2025_May_06_1641,ConditionRich,2021.2.3,59.93550939186639,
102.0,102.75,10,0.75,Stimuli/P020/sun_bblqhrudkospnbbv.jpg,0,0,0.0,0,166,166,166,,,,,,,,,,,,,102.00615649999963,0.006156499999633525,None,150.52977259999898,150.52977259999898,150.52977259999898,150.52977259999898,150.52977259999898,150.52977259999898,150.52977259999898,150.52977259999898,150.52977259999898,150.52977259999898,,001,P020,2025_May_06_1641,ConditionRich,2021.2.3,59.93550939186639,
102.75,103.0,41,0.0,Stimuli/Blank.png,0,0,0.0,0,167,167,167,,,,,,,,,,,,,102.756923500001,0.006923500000993954,None,151.28044709999813,151.28044709999813,151.28044709999813,151.28044709999813,151.28044709999813,151.28044709999813,151.28044709999813,151.28044709999813,151.28044709999813,151.28044709999813,,001,P020,2025_May_06_1641,ConditionRich,2021.2.3,59.93550939186639,
103.0,103.75,10,0.75,Stimuli/P020/sun_bblqhrudkospnbbv.jpg,0,0,0.0,0,168,168,168,,,,,,,,,,,,,103.00689149999744,0.0068914999974367674,None,151.5473060999975,151.5473060999975,151.5473060999975,151.5473060999975,151.5473060999975,151.5473060999975,151.5473060999975,151.5473060999975,151.5473060999975,151.5473060999975,,001,P020,2025_May_06_1641,ConditionRich,2021.2.3,59.93550939186639,
103.75,104.0,41,0.0,Stimuli/Blank.png,0,0,0.0,0,169,169,169,,,,,,,,,,,,,103.7745565999976,0.024556599997595185,None,152.29802410000048,152.29802410000048,152.29802410000048,152.29802410000048,152.29802410000048,152.29802410000048,152.29802410000048,152.29802410000048,152.29802410000048,152.29802410000048,,001,P020,2025_May_06_1641,ConditionRich,2021.2.3,59.93550939186639,
104.0,104.75,18,0.75,Stimuli/P020/sun_bodjbrgwzlshgypq.jpg,0,0,0.0,0,170,170,170,,,,,,,,,,,,,104.00735200000054,0.007352000000537373,None,152.5482192999989,152.5482192999989,152.5482192999989,152.5482192999989,152.5482192999989,152.5482192999989,152.5482192999989,152.5482192999989,152.5482192999989,152.5482192999989,,001,P020,2025_May_06_1641,ConditionRich,2021.2.3,59.93550939186639,
104.75,105.0,41,0.0,Stimuli/Blank.png,0,0,0.0,0,171,171,171,,,,,,,,,,,,,104.77498650000052,0.024986500000522938,None,153.29888070000015,153.29888070000015,153.29888070000015,153.29888070000015,153.29888070000015,153.29888070000015,153.29888070000015,153.29888070000015,153.29888070000015,153.29888070000015,,001,P020,2025_May_06_1641,ConditionRich,2021.2.3,59.93550939186639,
105.0,105.75,18,0.75,Stimuli/P020/sun_bodjbrgwzlshgypq.jpg,0,0,0.0,0,172,172,172,,,,,,,,,,,,,105.00935430000027,0.009354300000268267,None,153.54910689999815,153.54910689999815,153.54910689999815,153.54910689999815,153.54910689999815,153.54910689999815,153.54910689999815,153.54910689999815,153.54910689999815,153.54910689999815,,001,P020,2025_May_06_1641,ConditionRich,2021.2.3,59.93550939186639,
105.75,106.0,41,0.0,Stimuli/Blank.png,0,0,0.0,0,173,173,173,,,,,,,,,,,,,105.77599099999861,0.025990999998612097,None,154.29987939999774,154.29987939999774,154.29987939999774,154.29987939999774,154.29987939999774,154.29987939999774,154.29987939999774,154.29987939999774,154.29987939999774,154.29987939999774,,001,P020,2025_May_06_1641,ConditionRich,2021.2.3,59.93550939186639,
106.0,106.75,18,0.75,Stimuli/P020/sun_bodjbrgwzlshgypq.jpg,0,0,0.0,0,174,174,174,,,,,,,,,,,,,106.00944700000036,0.009447000000363914,None,154.53330409999762,154.53330409999762,154.53330409999762,154.53330409999762,154.53330409999762,154.53330409999762,154.53330409999762,154.53330409999762,154.53330409999762,154.53330409999762,,001,P020,2025_May_06_1641,ConditionRich,2021.2.3,59.93550939186639,
106.75,107.0,41,0.0,Stimuli/Blank.png,0,0,0.0,0,175,175,175,,,,,,,,,,,,,106.76049969999804,0.010499699998035794,None,155.28396989999965,155.28396989999965,155.28396989999965,155.28396989999965,155.28396989999965,155.28396989999965,155.28396989999965,155.28396989999965,155.28396989999965,155.28396989999965,,001,P020,2025_May_06_1641,ConditionRich,2021.2.3,59.93550939186639,
107.0,107.75,18,0.75,Stimuli/P020/sun_bodjbrgwzlshgypq.jpg,0,0,0.0,0,176,176,176,,,,,,,,,,,,,107.01031669999793,0.01031669999792939,None,155.55088830000022,155.55088830000022,155.55088830000022,155.55088830000022,155.55088830000022,155.55088830000022,155.55088830000022,155.55088830000022,155.55088830000022,155.55088830000022,,001,P020,2025_May_06_1641,ConditionRich,2021.2.3,59.93550939186639,
107.75,108.0,41,0.0,Stimuli/Blank.png,0,0,0.0,0,177,177,177,,,,,,,,,,,,,107.78007849999995,0.030078499999945052,None,156.31822929999908,156.31822929999908,156.31822929999908,156.31822929999908,156.31822929999908,156.31822929999908,156.31822929999908,156.31822929999908,156.31822929999908,156.31822929999908,,001,P020,2025_May_06_1641,ConditionRich,2021.2.3,59.93550939186639,
108.0,108.75,8,0.75,Stimuli/P020/sun_avbzvunekksfggon.jpg,0,0,0.0,0,178,178,178,,,,,,,,,,,,,108.0273316999992,0.027331699999194825,None,156.55177489999915,156.55177489999915,156.55177489999915,156.55177489999915,156.55177489999915,156.55177489999915,156.55177489999915,156.55177489999915,156.55177489999915,156.55177489999915,,001,P020,2025_May_06_1641,ConditionRich,2021.2.3,59.93550939186639,
108.75,109.0,41,0.0,Stimuli/Blank.png,0,0,0.0,0,179,179,179,,,,,,,,,,,,,108.76283830000102,0.012838300001021707,None,157.28576279999834,157.28576279999834,157.28576279999834,157.28576279999834,157.28576279999834,157.28576279999834,157.28576279999834,157.28576279999834,157.28576279999834,157.28576279999834,,001,P020,2025_May_06_1641,ConditionRich,2021.2.3,59.93550939186639,
109.0,109.75,8,0.75,Stimuli/P020/sun_avbzvunekksfggon.jpg,0,0,0.0,0,180,180,180,,,,,,,,,,,,,109.01392090000081,0.013920900000812253,None,157.5526499000007,157.5526499000007,157.5526499000007,157.5526499000007,157.5526499000007,157.5526499000007,157.5526499000007,157.5526499000007,157.5526499000007,157.5526499000007,,001,P020,2025_May_06_1641,ConditionRich,2021.2.3,59.93550939186639,
109.75,110.0,41,0.0,Stimuli/Blank.png,0,0,0.0,0,181,181,181,,,,,,,,,,,,,109.77906219999932,0.029062199999316363,None,158.30330839999806,158.30330839999806,158.30330839999806,158.30330839999806,158.30330839999806,158.30330839999806,158.30330839999806,158.30330839999806,158.30330839999806,158.30330839999806,,001,P020,2025_May_06_1641,ConditionRich,2021.2.3,59.93550939186639,
110.0,110.75,8,0.75,Stimuli/P020/sun_avbzvunekksfggon.jpg,0,0,0.0,0,182,182,182,,,,,,,,,,,,,110.01290119999976,0.012901199999760138,None,158.53684090000024,158.53684090000024,158.53684090000024,158.53684090000024,158.53684090000024,158.53684090000024,158.53684090000024,158.53684090000024,158.53684090000024,158.53684090000024,,001,P020,2025_May_06_1641,ConditionRich,2021.2.3,59.93550939186639,
110.75,111.0,41,0.0,Stimuli/Blank.png,0,0,0.0,0,183,183,183,,,,,,,,,,,,,110.76418130000093,0.014181300000927877,None,159.28753639999923,159.28753639999923,159.28753639999923,159.28753639999923,159.28753639999923,159.28753639999923,159.28753639999923,159.28753639999923,159.28753639999923,159.28753639999923,,001,P020,2025_May_06_1641,ConditionRich,2021.2.3,59.93550939186639,
111.0,111.75,8,0.75,Stimuli/P020/sun_avbzvunekksfggon.jpg,0,0,0.0,0,184,184,184,,,,,,,,,,,,,111.01433499999985,0.014334999999846332,None,159.5544102999993,159.5544102999993,159.5544102999993,159.5544102999993,159.5544102999993,159.5544102999993,159.5544102999993,159.5544102999993,159.5544102999993,159.5544102999993,,001,P020,2025_May_06_1641,ConditionRich,2021.2.3,59.93550939186639,
111.75,112.0,41,0.0,Stimuli/Blank.png,0,0,0.0,0,185,185,185,,,,,,,,,,,,,111.78084459999809,0.030844599998090416,None,160.30507859999852,160.30507859999852,160.30507859999852,160.30507859999852,160.30507859999852,160.30507859999852,160.30507859999852,160.30507859999852,160.30507859999852,160.30507859999852,,001,P020,2025_May_06_1641,ConditionRich,2021.2.3,59.93550939186639,
112.0,112.75,23,0.75,Stimuli/P020/things_boy_10s.jpg,0,0,0.0,0,186,186,186,,,,,,,,,,,,,112.01476329999787,0.014763299997866852,None,160.57199319999927,160.57199319999927,160.57199319999927,160.57199319999927,160.57199319999927,160.57199319999927,160.57199319999927,160.57199319999927,160.57199319999927,160.57199319999927,,001,P020,2025_May_06_1641,ConditionRich,2021.2.3,59.93550939186639,
112.75,113.0,41,0.0,Stimuli/Blank.png,0,0,0.0,0,187,187,187,,,,,,,,,,,,,112.79838929999823,0.04838929999823449,None,161.322647099998,161.322647099998,161.322647099998,161.322647099998,161.322647099998,161.322647099998,161.322647099998,161.322647099998,161.322647099998,161.322647099998,,001,P020,2025_May_06_1641,ConditionRich,2021.2.3,59.93550939186639,
113.0,113.75,23,0.75,Stimuli/P020/things_boy_10s.jpg,0,0,0.0,0,188,188,188,,,,,,,,,,,,,113.01610059999803,0.016100599998026155,None,161.5562022999984,161.5562022999984,161.5562022999984,161.5562022999984,161.5562022999984,161.5562022999984,161.5562022999984,161.5562022999984,161.5562022999984,161.5562022999984,,001,P020,2025_May_06_1641,ConditionRich,2021.2.3,59.93550939186639,
113.75,114.0,41,0.0,Stimuli/Blank.png,0,0,0.0,0,189,189,189,,,,,,,,,,,,,113.76619919999939,0.016199199999391567,None,162.2901712999992,162.2901712999992,162.2901712999992,162.2901712999992,162.2901712999992,162.2901712999992,162.2901712999992,162.2901712999992,162.2901712999992,162.2901712999992,,001,P020,2025_May_06_1641,ConditionRich,2021.2.3,59.93550939186639,
114.0,114.75,23,0.75,Stimuli/P020/things_boy_10s.jpg,0,0,0.0,0,190,190,190,,,,,,,,,,,,,113.99964850000106,-0.00035149999894201756,None,162.52373779999834,162.52373779999834,162.52373779999834,162.52373779999834,162.52373779999834,162.52373779999834,162.52373779999834,162.52373779999834,162.52373779999834,162.52373779999834,,001,P020,2025_May_06_1641,ConditionRich,2021.2.3,59.93550939186639,
114.75,115.0,41,0.0,Stimuli/Blank.png,0,0,0.0,0,191,191,191,,,,,,,,,,,,,114.75056009999753,0.0005600999975285958,None,163.2743453999974,163.2743453999974,163.2743453999974,163.2743453999974,163.2743453999974,163.2743453999974,163.2743453999974,163.2743453999974,163.2743453999974,163.2743453999974,,001,P020,2025_May_06_1641,ConditionRich,2021.2.3,59.93550939186639,
115.0,115.75,23,0.75,Stimuli/P020/things_boy_10s.jpg,0,0,0.0,0,192,192,192,,,,,,,,,,,,,115.000269199998,0.000269199998001568,None,163.52466079999795,163.52466079999795,163.52466079999795,163.52466079999795,163.52466079999795,163.52466079999795,163.52466079999795,163.52466079999795,163.52466079999795,163.52466079999795,,001,P020,2025_May_06_1641,ConditionRich,2021.2.3,59.93550939186639,
115.75,116.0,41,0.0,Stimuli/Blank.png,0,0,0.0,0,193,193,193,,,,,,,,,,,,,115.75133459999779,0.0013345999977900647,None,164.27526289999878,164.27526289999878,164.27526289999878,164.27526289999878,164.27526289999878,164.27526289999878,164.27526289999878,164.27526289999878,164.27526289999878,164.27526289999878,,001,P020,2025_May_06_1641,ConditionRich,2021.2.3,59.93550939186639,
116.0,116.75,29,0.75,Stimuli/P020/things_flamingo_10s.jpg,0,0,0.0,0,194,194,194,,,,,,,,,,,,,116.00103419999868,0.001034199998684926,None,164.55885990000024,164.55885990000024,164.55885990000024,164.55885990000024,164.55885990000024,164.55885990000024,164.55885990000024,164.55885990000024,164.55885990000024,164.55885990000024,,001,P020,2025_May_06_1641,ConditionRich,2021.2.3,59.93550939186639,
116.75,117.0,41,0.0,Stimuli/Blank.png,0,0,0.0,0,195,195,195,,,,,,,,,,,,,116.78501300000062,0.03501300000061747,None,165.30950599999778,165.30950599999778,165.30950599999778,165.30950599999778,165.30950599999778,165.30950599999778,165.30950599999778,165.30950599999778,165.30950599999778,165.30950599999778,,001,P020,2025_May_06_1641,ConditionRich,2021.2.3,59.93550939186639,
117.0,117.75,29,0.75,Stimuli/P020/things_flamingo_10s.jpg,0,0,0.0,0,196,196,196,,,,,,,,,,,,,117.00461670000004,0.004616700000042329,None,165.5430587999981,165.5430587999981,165.5430587999981,165.5430587999981,165.5430587999981,165.5430587999981,165.5430587999981,165.5430587999981,165.5430587999981,165.5430587999981,,001,P020,2025_May_06_1641,ConditionRich,2021.2.3,59.93550939186639,
117.75,118.0,41,0.0,Stimuli/Blank.png,0,0,0.0,0,197,197,197,,,,,,,,,,,,,117.76963419999811,0.01963419999810867,None,166.2937122000003,166.2937122000003,166.2937122000003,166.2937122000003,166.2937122000003,166.2937122000003,166.2937122000003,166.2937122000003,166.2937122000003,166.2937122000003,,001,P020,2025_May_06_1641,ConditionRich,2021.2.3,59.93550939186639,
118.0,118.75,29,0.75,Stimuli/P020/things_flamingo_10s.jpg,0,0,0.0,0,198,198,198,,,,,,,,,,,,,118.00291549999747,0.0029154999974707607,None,166.52724979999766,166.52724979999766,166.52724979999766,166.52724979999766,166.52724979999766,166.52724979999766,166.52724979999766,166.52724979999766,166.52724979999766,166.52724979999766,,001,P020,2025_May_06_1641,ConditionRich,2021.2.3,59.93550939186639,
118.75,119.0,41,0.0,Stimuli/Blank.png,0,0,0.0,0,199,199,199,,,,,,,,,,,,,118.75479020000057,0.004790200000570621,None,167.29462309999872,167.29462309999872,167.29462309999872,167.29462309999872,167.29462309999872,167.29462309999872,167.29462309999872,167.29462309999872,167.29462309999872,167.29462309999872,,001,P020,2025_May_06_1641,ConditionRich,2021.2.3,59.93550939186639,
119.0,119.75,29,0.75,Stimuli/P020/things_flamingo_10s.jpg,0,0,0.0,0,200,200,200,,,,,,,,,,,,,119.02104549999785,0.021045499997853767,None,167.56151239999963,167.56151239999963,167.56151239999963,167.56151239999963,167.56151239999963,167.56151239999963,167.56151239999963,167.56151239999963,167.56151239999963,167.56151239999963,,001,P020,2025_May_06_1641,ConditionRich,2021.2.3,59.93550939186639,
119.75,120.0,41,0.0,Stimuli/Blank.png,0,0,0.0,0,201,201,201,,,,,,,,,,,,,119.77089429999978,0.02089429999978165,None,168.29549269999916,168.29549269999916,168.29549269999916,168.29549269999916,168.29549269999916,168.29549269999916,168.29549269999916,168.29549269999916,168.29549269999916,168.29549269999916,,001,P020,2025_May_06_1641,ConditionRich,2021.2.3,59.93550939186639,
120.0,120.75,34,0.75,Stimuli/P020/things_man_10s.jpg,0,0,0.0,0,202,202,202,,,,,,,,,,,,,120.00506649999807,0.00506649999806541,None,168.54572949999783,168.54572949999783,168.54572949999783,168.54572949999783,168.54572949999783,168.54572949999783,168.54572949999783,168.54572949999783,168.54572949999783,168.54572949999783,,001,P020,2025_May_06_1641,ConditionRich,2021.2.3,59.93550939186639,
120.75,121.0,41,0.0,Stimuli/Blank.png,0,0,0.0,0,203,203,203,,,,,,,,,,,,,120.7749135999984,0.02491359999839915,None,169.31308569999965,169.31308569999965,169.31308569999965,169.31308569999965,169.31308569999965,169.31308569999965,169.31308569999965,169.31308569999965,169.31308569999965,169.31308569999965,,001,P020,2025_May_06_1641,ConditionRich,2021.2.3,59.93550939186639,
121.0,121.75,34,0.75,Stimuli/P020/things_man_10s.jpg,0,0,0.0,0,204,204,204,,,,,,,,,,,,,121.02464340000006,0.024643400000059046,None,169.5633001999995,169.5633001999995,169.5633001999995,169.5633001999995,169.5633001999995,169.5633001999995,169.5633001999995,169.5633001999995,169.5633001999995,169.5633001999995,,001,P020,2025_May_06_1641,ConditionRich,2021.2.3,59.93550939186639,
121.75,122.0,41,0.0,Stimuli/Blank.png,0,0,0.0,0,205,205,205,,,,,,,,,,,,,121.77396109999972,0.023961099999723956,None,170.2974080999993,170.2974080999993,170.2974080999993,170.2974080999993,170.2974080999993,170.2974080999993,170.2974080999993,170.2974080999993,170.2974080999993,170.2974080999993,,001,P020,2025_May_06_1641,ConditionRich,2021.2.3,59.93550939186639,
122.0,122.75,34,0.75,Stimuli/P020/things_man_10s.jpg,0,0,0.0,0,206,206,206,,,,,,,,,,,,,122.00928270000077,0.009282700000767363,None,170.54748199999813,170.54748199999813,170.54748199999813,170.54748199999813,170.54748199999813,170.54748199999813,170.54748199999813,170.54748199999813,170.54748199999813,170.54748199999813,,001,P020,2025_May_06_1641,ConditionRich,2021.2.3,59.93550939186639,
122.75,123.0,41,0.0,Stimuli/Blank.png,0,0,0.0,0,207,207,207,,,,,,,,,,,,,122.77502509999977,0.0250250999997661,None,171.29814439999973,171.29814439999973,171.29814439999973,171.29814439999973,171.29814439999973,171.29814439999973,171.29814439999973,171.29814439999973,171.29814439999973,171.29814439999973,,001,P020,2025_May_06_1641,ConditionRich,2021.2.3,59.93550939186639,
123.0,123.75,34,0.75,Stimuli/P020/things_man_10s.jpg,0,0,0.0,0,208,208,208,,,,,,,,,,,,,123.0086659999979,0.008665999997901963,None,171.548367899999,171.548367899999,171.548367899999,171.548367899999,171.548367899999,171.548367899999,171.548367899999,171.548367899999,171.548367899999,171.548367899999,,001,P020,2025_May_06_1641,ConditionRich,2021.2.3,59.93550939186639,
123.75,124.0,41,0.0,Stimuli/Blank.png,0,0,0.0,0,209,209,209,,,,,,,,,,,,,123.7747391999983,0.02473919999829377,None,172.29902349999975,172.29902349999975,172.29902349999975,172.29902349999975,172.29902349999975,172.29902349999975,172.29902349999975,172.29902349999975,172.29902349999975,172.29902349999975,,001,P020,2025_May_06_1641,ConditionRich,2021.2.3,59.93550939186639,
124.0,124.75,11,0.75,Stimuli/P020/sun_bcbfjkoziukwmdkd.jpg,0,0,0.0,0,210,210,210,,,,,,,,,,,,,124.008810299998,0.008810299998003757,None,172.54926739999792,172.54926739999792,172.54926739999792,172.54926739999792,172.54926739999792,172.54926739999792,172.54926739999792,172.54926739999792,172.54926739999792,172.54926739999792,,001,P020,2025_May_06_1641,ConditionRich,2021.2.3,59.93550939186639,
124.75,125.0,41,0.0,Stimuli/Blank.png,0,0,0.0,0,211,211,211,,,,,,,,,,,,,124.77557019999949,0.025570199999492615,None,173.29987569999867,173.29987569999867,173.29987569999867,173.29987569999867,173.29987569999867,173.29987569999867,173.29987569999867,173.29987569999867,173.29987569999867,173.29987569999867,,001,P020,2025_May_06_1641,ConditionRich,2021.2.3,59.93550939186639,
125.0,125.75,11,0.75,Stimuli/P020/sun_bcbfjkoziukwmdkd.jpg,0,0,0.0,0,212,212,212,,,,,,,,,,,,,125.00914479999847,0.009144799998466624,None,173.5334460999984,173.5334460999984,173.5334460999984,173.5334460999984,173.5334460999984,173.5334460999984,173.5334460999984,173.5334460999984,173.5334460999984,173.5334460999984,,001,P020,2025_May_06_1641,ConditionRich,2021.2.3,59.93550939186639,
125.75,126.0,41,0.0,Stimuli/Blank.png,0,0,0.0,0,213,213,213,,,,,,,,,,,,,125.76043109999955,0.010431099999550497,None,174.28410939999958,174.28410939999958,174.28410939999958,174.28410939999958,174.28410939999958,174.28410939999958,174.28410939999958,174.28410939999958,174.28410939999958,174.28410939999958,,001,P020,2025_May_06_1641,ConditionRich,2021.2.3,59.93550939186639,
126.0,126.75,11,0.75,Stimuli/P020/sun_bcbfjkoziukwmdkd.jpg,0,0,0.0,0,214,214,214,,,,,,,,,,,,,126.01061309999932,0.010613099999318365,None,174.53435439999885,174.53435439999885,174.53435439999885,174.53435439999885,174.53435439999885,174.53435439999885,174.53435439999885,174.53435439999885,174.53435439999885,174.53435439999885,,001,P020,2025_May_06_1641,ConditionRich,2021.2.3,59.93550939186639,
126.75,127.0,41,0.0,Stimuli/Blank.png,0,0,0.0,0,215,215,215,,,,,,,,,,,,,126.76141559999814,0.011415599998144899,None,175.28501139999935,175.28501139999935,175.28501139999935,175.28501139999935,175.28501139999935,175.28501139999935,175.28501139999935,175.28501139999935,175.28501139999935,175.28501139999935,,001,P020,2025_May_06_1641,ConditionRich,2021.2.3,59.93550939186639,
127.0,127.75,11,0.75,Stimuli/P020/sun_bcbfjkoziukwmdkd.jpg,0,0,0.0,0,216,216,216,,,,,,,,,,,,,127.01064539999788,0.010645399997883942,None,175.5352187999997,175.5352187999997,175.5352187999997,175.5352187999997,175.5352187999997,175.5352187999997,175.5352187999997,175.5352187999997,175.5352187999997,175.5352187999997,,001,P020,2025_May_06_1641,ConditionRich,2021.2.3,59.93550939186639,
127.75,128.0,41,0.0,Stimuli/Blank.png,0,0,0.0,0,217,217,217,,,,,,,,,,,,,127.76423489999797,0.014234899997973116,None,176.30257209999763,176.30257209999763,176.30257209999763,176.30257209999763,176.30257209999763,176.30257209999763,176.30257209999763,176.30257209999763,176.30257209999763,176.30257209999763,,001,P020,2025_May_06_1641,ConditionRich,2021.2.3,59.93550939186639,
128.0,128.75,16,0.75,Stimuli/P020/sun_blfpbbfyzmewzplm.jpg,0,0,0.0,0,218,218,218,,,,,,,,,,,,,128.029028500001,0.02902850000100443,None,176.56948750000083,176.56948750000083,176.56948750000083,176.56948750000083,176.56948750000083,176.56948750000083,176.56948750000083,176.56948750000083,176.56948750000083,176.56948750000083,,001,P020,2025_May_06_1641,ConditionRich,2021.2.3,59.93550939186639,
128.75,129.0,41,0.0,Stimuli/Blank.png,0,0,0.0,0,219,219,219,,,,,,,,,,,,,128.77907229999983,0.02907229999982519,None,177.30345189999935,177.30345189999935,177.30345189999935,177.30345189999935,177.30345189999935,177.30345189999935,177.30345189999935,177.30345189999935,177.30345189999935,177.30345189999935,,001,P020,2025_May_06_1641,ConditionRich,2021.2.3,59.93550939186639,
129.0,129.75,16,0.75,Stimuli/P020/sun_blfpbbfyzmewzplm.jpg,1,0,0.75,0,220,220,220,,,,,,,,,,,,,129.01403909999863,0.014039099998626625,1,177.55369190000056,177.55369190000056,177.55369190000056,177.55369190000056,177.55369190000056,177.55369190000056,177.55369190000056,178.2876443999994,177.55369190000056,177.55369190000056,0.3867523999979312,001,P020,2025_May_06_1641,ConditionRich,2021.2.3,59.93550939186639,
129.75,130.0,41,0.0,Stimuli/Blank.png,0,0,0.0,0,221,221,221,,,,,,,,,,,,,129.78001080000104,0.03001080000103684,None,178.3043319999997,178.3043319999997,178.3043319999997,178.3043319999997,178.3043319999997,178.3043319999997,178.3043319999997,178.3043319999997,178.3043319999997,178.3043319999997,,001,P020,2025_May_06_1641,ConditionRich,2021.2.3,59.93550939186639,
130.0,130.75,16,0.75,Stimuli/P020/sun_blfpbbfyzmewzplm.jpg,0,0,0.0,0,222,222,222,,,,,,,,,,,,,130.01395879999836,0.013958799998363247,None,178.53787379999994,178.53787379999994,178.53787379999994,178.53787379999994,178.53787379999994,178.53787379999994,178.53787379999994,178.53787379999994,178.53787379999994,178.53787379999994,,001,P020,2025_May_06_1641,ConditionRich,2021.2.3,59.93550939186639,
130.75,131.0,41,0.0,Stimuli/Blank.png,0,0,0.0,0,223,223,223,,,,,,,,,,,,,130.7641705999995,0.014170599999488331,None,179.28854819999833,179.28854819999833,179.28854819999833,179.28854819999833,179.28854819999833,179.28854819999833,179.28854819999833,179.28854819999833,179.28854819999833,179.28854819999833,,001,P020,2025_May_06_1641,ConditionRich,2021.2.3,59.93550939186639,
131.0,131.75,16,0.75,Stimuli/P020/sun_blfpbbfyzmewzplm.jpg,0,0,0.0,0,224,224,224,,,,,,,,,,,,,131.0149629999978,0.014962999997806037,None,179.55551449999984,179.55551449999984,179.55551449999984,179.55551449999984,179.55551449999984,179.55551449999984,179.55551449999984,179.55551449999984,179.55551449999984,179.55551449999984,,001,P020,2025_May_06_1641,ConditionRich,2021.2.3,59.93550939186639,
131.75,132.0,41,0.0,Stimuli/Blank.png,0,0,0.0,0,225,225,225,,,,,,,,,,,,,131.7837784000003,0.03377840000030119,None,180.32279500000004,180.32279500000004,180.32279500000004,180.32279500000004,180.32279500000004,180.32279500000004,180.32279500000004,180.32279500000004,180.32279500000004,180.32279500000004,,001,P020,2025_May_06_1641,ConditionRich,2021.2.3,59.93550939186639,
132.0,132.75,26,0.75,Stimuli/P020/things_earwig_10n.jpg,0,0,0.0,0,226,226,226,,,,,,,,,,,,,132.01608909999777,0.016089099997770973,None,180.55632449999757,180.55632449999757,180.55632449999757,180.55632449999757,180.55632449999757,180.55632449999757,180.55632449999757,180.55632449999757,180.55632449999757,180.55632449999757,,001,P020,2025_May_06_1641,ConditionRich,2021.2.3,59.93550939186639,
132.75,133.0,41,0.0,Stimuli/Blank.png,0,0,0.0,0,227,227,227,,,,,,,,,,,,,132.7665503999997,0.016550399999687215,None,181.29032599999846,181.29032599999846,181.29032599999846,181.29032599999846,181.29032599999846,181.29032599999846,181.29032599999846,181.29032599999846,181.29032599999846,181.29032599999846,,001,P020,2025_May_06_1641,ConditionRich,2021.2.3,59.93550939186639,
133.0,133.75,26,0.75,Stimuli/P020/things_earwig_10n.jpg,0,0,0.0,0,228,228,228,,,,,,,,,,,,,132.9993575999979,-0.0006424000021070242,None,181.52384469999743,181.52384469999743,181.52384469999743,181.52384469999743,181.52384469999743,181.52384469999743,181.52384469999743,181.52384469999743,181.52384469999743,181.52384469999743,,001,P020,2025_May_06_1641,ConditionRich,2021.2.3,59.93550939186639,
133.75,134.0,41,0.0,Stimuli/Blank.png,0,0,0.0,0,229,229,229,,,,,,,,,,,,,133.75013240000044,0.00013240000043879263,None,182.2745165999986,182.2745165999986,182.2745165999986,182.2745165999986,182.2745165999986,182.2745165999986,182.2745165999986,182.2745165999986,182.2745165999986,182.2745165999986,,001,P020,2025_May_06_1641,ConditionRich,2021.2.3,59.93550939186639,
134.0,134.75,26,0.75,Stimuli/P020/things_earwig_10n.jpg,0,0,0.0,0,230,230,230,,,,,,,,,,,,,134.00092500000028,0.0009250000002793968,None,182.5414294000002,182.5414294000002,182.5414294000002,182.5414294000002,182.5414294000002,182.5414294000002,182.5414294000002,182.5414294000002,182.5414294000002,182.5414294000002,,001,P020,2025_May_06_1641,ConditionRich,2021.2.3,59.93550939186639,
134.75,135.0,41,0.0,Stimuli/Blank.png,0,0,0.0,0,231,231,231,,,,,,,,,,,,,134.7683868999993,0.018386899999313755,None,183.29207889999816,183.29207889999816,183.29207889999816,183.29207889999816,183.29207889999816,183.29207889999816,183.29207889999816,183.29207889999816,183.29207889999816,183.29207889999816,,001,P020,2025_May_06_1641,ConditionRich,2021.2.3,59.93550939186639,
135.0,135.75,26,0.75,Stimuli/P020/things_earwig_10n.jpg,0,0,0.0,0,232,232,232,,,,,,,,,,,,,135.00196270000015,0.001962700000149198,None,183.5422746999975,183.5422746999975,183.5422746999975,183.5422746999975,183.5422746999975,183.5422746999975,183.5422746999975,183.5422746999975,183.5422746999975,183.5422746999975,,001,P020,2025_May_06_1641,ConditionRich,2021.2.3,59.93550939186639,
135.75,136.0,41,0.0,Stimuli/Blank.png,0,0,0.0,0,233,233,233,,,,,,,,,,,,,135.7690853999993,0.019085399999312358,None,184.2929766999987,184.2929766999987,184.2929766999987,184.2929766999987,184.2929766999987,184.2929766999987,184.2929766999987,184.2929766999987,184.2929766999987,184.2929766999987,,001,P020,2025_May_06_1641,ConditionRich,2021.2.3,59.93550939186639,
136.0,136.75,4,0.75,Stimuli/P020/sun_amixpbnrxiulfsri.jpg,0,0,0.0,0,234,234,234,,,,,,,,,,,,,136.00323769999886,0.0032376999988628086,None,184.55987679999816,184.55987679999816,184.55987679999816,184.55987679999816,184.55987679999816,184.55987679999816,184.55987679999816,184.55987679999816,184.55987679999816,184.55987679999816,,001,P020,2025_May_06_1641,ConditionRich,2021.2.3,59.93550939186639,
136.75,137.0,41,0.0,Stimuli/Blank.png,0,0,0.0,0,235,235,235,,,,,,,,,,,,,136.78611079999973,0.03611079999973299,None,185.3106031999996,185.3106031999996,185.3106031999996,185.3106031999996,185.3106031999996,185.3106031999996,185.3106031999996,185.3106031999996,185.3106031999996,185.3106031999996,,001,P020,2025_May_06_1641,ConditionRich,2021.2.3,59.93550939186639,
137.0,137.75,4,0.75,Stimuli/P020/sun_amixpbnrxiulfsri.jpg,0,0,0.0,0,236,236,236,,,,,,,,,,,,,137.00302409999858,0.0030240999985835515,None,185.52739909999946,185.52739909999946,185.52739909999946,185.52739909999946,185.52739909999946,185.52739909999946,185.52739909999946,185.52739909999946,185.52739909999946,185.52739909999946,,001,P020,2025_May_06_1641,ConditionRich,2021.2.3,59.93550939186639,
137.75,138.0,41,0.0,Stimuli/Blank.png,0,0,0.0,0,237,237,237,,,,,,,,,,,,,137.75413729999855,0.0041372999985469505,None,186.27805459999945,186.27805459999945,186.27805459999945,186.27805459999945,186.27805459999945,186.27805459999945,186.27805459999945,186.27805459999945,186.27805459999945,186.27805459999945,,001,P020,2025_May_06_1641,ConditionRich,2021.2.3,59.93550939186639,
138.0,138.75,4,0.75,Stimuli/P020/sun_amixpbnrxiulfsri.jpg,0,0,0.0,0,238,238,238,,,,,,,,,,,,,138.00441779999892,0.004417799998918781,None,186.5282800999994,186.5282800999994,186.5282800999994,186.5282800999994,186.5282800999994,186.5282800999994,186.5282800999994,186.5282800999994,186.5282800999994,186.5282800999994,,001,P020,2025_May_06_1641,ConditionRich,2021.2.3,59.93550939186639,
138.75,139.0,41,0.0,Stimuli/Blank.png,0,0,0.0,0,239,239,239,,,,,,,,,,,,,138.75466949999827,0.004669499998271931,None,187.27895159999753,187.27895159999753,187.27895159999753,187.27895159999753,187.27895159999753,187.27895159999753,187.27895159999753,187.27895159999753,187.27895159999753,187.27895159999753,,001,P020,2025_May_06_1641,ConditionRich,2021.2.3,59.93550939186639,
139.0,139.75,4,0.75,Stimuli/P020/sun_amixpbnrxiulfsri.jpg,0,0,0.0,0,240,240,240,,,,,,,,,,,,,139.00488549999864,0.004885499998636078,None,187.5291705999989,187.5291705999989,187.5291705999989,187.5291705999989,187.5291705999989,187.5291705999989,187.5291705999989,187.5291705999989,187.5291705999989,187.5291705999989,,001,P020,2025_May_06_1641,ConditionRich,2021.2.3,59.93550939186639,
139.75,140.0,41,0.0,Stimuli/Blank.png,0,0,0.0,0,241,241,241,,,,,,,,,,,,,139.75604739999835,0.006047399998351466,None,188.28071129999807,188.28071129999807,188.28071129999807,188.28071129999807,188.28071129999807,188.28071129999807,188.28071129999807,188.28071129999807,188.28071129999807,188.28071129999807,,001,P020,2025_May_06_1641,ConditionRich,2021.2.3,59.93550939186639,
140.0,140.75,14,0.75,Stimuli/P020/sun_birvagufpcschyrr.jpg,0,0,0.0,0,242,242,242,,,,,,,,,,,,,140.00566249999974,0.005662499999743886,None,188.56344279999757,188.56344279999757,188.56344279999757,188.56344279999757,188.56344279999757,188.56344279999757,188.56344279999757,188.56344279999757,188.56344279999757,188.56344279999757,,001,P020,2025_May_06_1641,ConditionRich,2021.2.3,59.93550939186639,
140.75,141.0,41,0.0,Stimuli/Blank.png,0,0,0.0,0,243,243,243,,,,,,,,,,,,,140.7902686999987,0.040268699998705415,None,189.31407019999824,189.31407019999824,189.31407019999824,189.31407019999824,189.31407019999824,189.31407019999824,189.31407019999824,189.31407019999824,189.31407019999824,189.31407019999824,,001,P020,2025_May_06_1641,ConditionRich,2021.2.3,59.93550939186639,
141.0,141.75,14,0.75,Stimuli/P020/sun_birvagufpcschyrr.jpg,0,0,0.0,0,244,244,244,,,,,,,,,,,,,141.00874180000028,0.008741800000279909,None,189.5476267999984,189.5476267999984,189.5476267999984,189.5476267999984,189.5476267999984,189.5476267999984,189.5476267999984,189.5476267999984,189.5476267999984,189.5476267999984,,001,P020,2025_May_06_1641,ConditionRich,2021.2.3,59.93550939186639,
141.75,142.0,41,0.0,Stimuli/Blank.png,0,0,0.0,0,245,245,245,,,,,,,,,,,,,141.77512439999919,0.025124399999185698,None,190.31500089999827,190.31500089999827,190.31500089999827,190.31500089999827,190.31500089999827,190.31500089999827,190.31500089999827,190.31500089999827,190.31500089999827,190.31500089999827,,001,P020,2025_May_06_1641,ConditionRich,2021.2.3,59.93550939186639,
142.0,142.75,14,0.75,Stimuli/P020/sun_birvagufpcschyrr.jpg,0,0,0.0,0,246,246,246,,,,,,,,,,,,,142.0241313999977,0.024131399997713743,None,190.54849280000053,190.54849280000053,190.54849280000053,190.54849280000053,190.54849280000053,190.54849280000053,190.54849280000053,190.54849280000053,190.54849280000053,190.54849280000053,,001,P020,2025_May_06_1641,ConditionRich,2021.2.3,59.93550939186639,
142.75,143.0,41,0.0,Stimuli/Blank.png,0,0,0.0,0,247,247,247,,,,,,,,,,,,,142.75858999999764,0.008589999997639097,None,191.28247600000032,191.28247600000032,191.28247600000032,191.28247600000032,191.28247600000032,191.28247600000032,191.28247600000032,191.28247600000032,191.28247600000032,191.28247600000032,,001,P020,2025_May_06_1641,ConditionRich,2021.2.3,59.93550939186639,
143.0,143.75,14,0.75,Stimuli/P020/sun_birvagufpcschyrr.jpg,0,0,0.0,0,248,248,248,,,,,,,,,,,,,143.00980100000015,0.009801000000152271,None,191.54934759999742,191.54934759999742,191.54934759999742,191.54934759999742,191.54934759999742,191.54934759999742,191.54934759999742,191.54934759999742,191.54934759999742,191.54934759999742,,001,P020,2025_May_06_1641,ConditionRich,2021.2.3,59.93550939186639,
143.75,144.0,41,0.0,Stimuli/Blank.png,0,0,0.0,0,249,249,249,,,,,,,,,,,,,143.7762103999994,0.02621039999939967,None,192.30015060000005,192.30015060000005,192.30015060000005,192.30015060000005,192.30015060000005,192.30015060000005,192.30015060000005,192.30015060000005,192.30015060000005,192.30015060000005,,001,P020,2025_May_06_1641,ConditionRich,2021.2.3,59.93550939186639,
144.0,144.75,39,0.75,Stimuli/P020/things_wire_10s.jpg,0,0,0.0,0,250,250,250,,,,,,,,,,,,,144.00972919999913,0.009729199999128468,None,192.56696530000045,192.56696530000045,192.56696530000045,192.56696530000045,192.56696530000045,192.56696530000045,192.56696530000045,192.56696530000045,192.56696530000045,192.56696530000045,,001,P020,2025_May_06_1641,ConditionRich,2021.2.3,59.93550939186639,
144.75,145.0,41,0.0,Stimuli/Blank.png,0,0,0.0,0,251,251,251,,,,,,,,,,,,,144.7942222999991,0.044222299999091774,None,193.3176237000007,193.3176237000007,193.3176237000007,193.3176237000007,193.3176237000007,193.3176237000007,193.3176237000007,193.3176237000007,193.3176237000007,193.3176237000007,,001,P020,2025_May_06_1641,ConditionRich,2021.2.3,59.93550939186639,
145.0,145.75,39,0.75,Stimuli/P020/things_wire_10s.jpg,0,0,0.0,0,252,252,252,,,,,,,,,,,,,145.01073410000026,0.010734100000263425,None,193.53446599999734,193.53446599999734,193.53446599999734,193.53446599999734,193.53446599999734,193.53446599999734,193.53446599999734,193.53446599999734,193.53446599999734,193.53446599999734,,001,P020,2025_May_06_1641,ConditionRich,2021.2.3,59.93550939186639,
145.75,146.0,41,0.0,Stimuli/Blank.png,0,0,0.0,0,253,253,253,,,,,,,,,,,,,145.76110419999895,0.011104199998953845,None,194.28513480000038,194.28513480000038,194.28513480000038,194.28513480000038,194.28513480000038,194.28513480000038,194.28513480000038,194.28513480000038,194.28513480000038,194.28513480000038,,001,P020,2025_May_06_1641,ConditionRich,2021.2.3,59.93550939186639,
146.0,146.75,39,0.75,Stimuli/P020/things_wire_10s.jpg,0,0,0.0,0,254,254,254,,,,,,,,,,,,,146.01245579999886,0.012455799998861039,None,194.55204930000036,194.55204930000036,194.55204930000036,194.55204930000036,194.55204930000036,194.55204930000036,194.55204930000036,194.55204930000036,194.55204930000036,194.55204930000036,,001,P020,2025_May_06_1641,ConditionRich,2021.2.3,59.93550939186639,
146.75,147.0,41,0.0,Stimuli/Blank.png,0,0,0.0,0,255,255,255,,,,,,,,,,,,,146.7788846000003,0.028884600000310456,None,195.30271639999773,195.30271639999773,195.30271639999773,195.30271639999773,195.30271639999773,195.30271639999773,195.30271639999773,195.30271639999773,195.30271639999773,195.30271639999773,,001,P020,2025_May_06_1641,ConditionRich,2021.2.3,59.93550939186639,
147.0,147.75,39,0.75,Stimuli/P020/things_wire_10s.jpg,0,0,0.0,0,256,256,256,,,,,,,,,,,,,147.01430039999832,0.014300399998319335,None,195.55293059999894,195.55293059999894,195.55293059999894,195.55293059999894,195.55293059999894,195.55293059999894,195.55293059999894,195.55293059999894,195.55293059999894,195.55293059999894,,001,P020,2025_May_06_1641,ConditionRich,2021.2.3,59.93550939186639,
147.75,148.0,41,0.0,Stimuli/Blank.png,0,0,0.0,0,257,257,257,,,,,,,,,,,,,147.77913210000042,0.029132100000424543,None,196.30358889999843,196.30358889999843,196.30358889999843,196.30358889999843,196.30358889999843,196.30358889999843,196.30358889999843,196.30358889999843,196.30358889999843,196.30358889999843,,001,P020,2025_May_06_1641,ConditionRich,2021.2.3,59.93550939186639,
148.0,148.75,31,0.75,Stimuli/P020/things_fudge_10s.jpg,0,0,0.0,0,258,258,258,,,,,,,,,,,,,148.01426530000026,0.01426530000026105,None,196.5538123999977,196.5538123999977,196.5538123999977,196.5538123999977,196.5538123999977,196.5538123999977,196.5538123999977,196.5538123999977,196.5538123999977,196.5538123999977,,001,P020,2025_May_06_1641,ConditionRich,2021.2.3,59.93550939186639,
148.75,149.0,41,0.0,Stimuli/Blank.png,0,0,0.0,0,259,259,259,,,,,,,,,,,,,148.77993309999874,0.029933099998743273,None,197.30447300000014,197.30447300000014,197.30447300000014,197.30447300000014,197.30447300000014,197.30447300000014,197.30447300000014,197.30447300000014,197.30447300000014,197.30447300000014,,001,P020,2025_May_06_1641,ConditionRich,2021.2.3,59.93550939186639,
149.0,149.75,31,0.75,Stimuli/P020/things_fudge_10s.jpg,0,0,0.0,0,260,260,260,,,,,,,,,,,,,149.014280899999,0.014280899998993846,None,197.53801029999886,197.53801029999886,197.53801029999886,197.53801029999886,197.53801029999886,197.53801029999886,197.53801029999886,197.53801029999886,197.53801029999886,197.53801029999886,,001,P020,2025_May_06_1641,ConditionRich,2021.2.3,59.93550939186639,
