eventStartTime,eventEndTime,eventCond,imSize,imFile,responseEvent,fixRespStart,fixRespEnd,Events.thisRepN,Events.thisTrialN,Events.thisN,Events.thisIndex,Instructions.started,Instructions.stopped,participantReadyResponse.keys,participantReadyResponse.rt,participantReadyResponse.started,participantReadyResponse.stopped,startWaitforTrigger,triggerResponse.keys,triggerResponse.rt,triggerResponse.started,triggerResponse.stopped,globalTimer,actualStartTime,startTimingDiff,participantResponse.keys,participantResponse.started,participantResponse.stopped,image.started,image.stopped,fixationOutside.started,fixationOutside.stopped,fixationResponse.started,fixationResponse.stopped,fixationInside.started,fixationInside.stopped,participantResponse.rt,session,participant,date,expName,psychopyVersion,frameRate,
,,,,,,,,,,,,10.8937846000008,None,1,13.029430399998091,10.8937846000008,None,,,,,,,,,,,,,,,,,,,,,002,P020,2025_May_06_1648,ConditionRich,2021.2.3,59.94790527056727,
,,,,,,,,,,,,,,,,,,23.93645689999903,5,14.62250110000241,23.949686299998575,None,,,,,,,,,,,,,,,,002,P020,2025_May_06_1648,ConditionRich,2021.2.3,59.94790527056727,
0.0,4.0,0,0.0,Stimuli/Blank.png,0,0,0.0,0,0,0,0,,,,,,,,,,,,38.58396129999892,0.026305499999580206,0.026305499999580206,None,38.62958660000004,None,38.62958660000004,None,38.62958660000004,None,38.62958660000004,38.62958660000004,38.62958660000004,None,,002,P020,2025_May_06_1648,ConditionRich,2021.2.3,59.94790527056727,
4.0,7.75,2,0.75,Stimuli/P020/sun_ajhvfwzgpfovdgid.jpg,1,0,0.75,0,1,1,1,,,,,,,,,,,,,4.019097699998383,0.019097699998383177,1,42.63341379999838,42.63341379999838,42.63341379999838,42.63341379999838,42.63341379999838,42.63341379999838,42.63341379999838,43.350484399998095,42.63341379999838,42.63341379999838,0.5538073999996413,002,P020,2025_May_06_1648,ConditionRich,2021.2.3,59.94790527056727,
7.75,8.0,41,0.0,Stimuli/Blank.png,0,0,0.0,0,2,2,2,,,,,,,,,,,,,7.77346530000068,0.023465300000680145,None,46.38678549999895,46.38678549999895,46.38678549999895,46.38678549999895,46.38678549999895,46.38678549999895,46.38678549999895,46.38678549999895,46.38678549999895,46.38678549999895,,002,P020,2025_May_06_1648,ConditionRich,2021.2.3,59.94790527056727,
8.0,11.75,40,0.75,Stimuli/P020/things_woman_10s.jpg,0,0,0.0,0,3,3,3,,,,,,,,,,,,,8.022172499997396,0.02217249999739579,None,46.61999640000067,46.61999640000067,46.61999640000067,46.61999640000067,46.61999640000067,46.61999640000067,46.61999640000067,46.61999640000067,46.61999640000067,46.61999640000067,,002,P020,2025_May_06_1648,ConditionRich,2021.2.3,59.94790527056727,
11.75,12.0,41,0.0,Stimuli/Blank.png,0,0,0.0,0,4,4,4,,,,,,,,,,,,,11.758792299999186,0.00879229999918607,None,50.356735900000785,50.356735900000785,50.356735900000785,50.356735900000785,50.356735900000785,50.356735900000785,50.356735900000785,50.356735900000785,50.356735900000785,50.356735900000785,,002,P020,2025_May_06_1648,ConditionRich,2021.2.3,59.94790527056727,
12.0,15.75,12,0.75,Stimuli/P020/sun_bgjrtiivbwugxhxp.jpg,0,0,0.0,0,5,5,5,,,,,,,,,,,,,12.009607299998606,0.009607299998606322,None,50.62353439999788,50.62353439999788,50.62353439999788,50.62353439999788,50.62353439999788,50.62353439999788,50.62353439999788,50.62353439999788,50.62353439999788,50.62353439999788,,002,P020,2025_May_06_1648,ConditionRich,2021.2.3,59.94790527056727,
15.75,16.0,41,0.0,Stimuli/Blank.png,0,0,0.0,0,6,6,6,,,,,,,,,,,,,15.778799799998524,0.028799799998523667,None,54.376864199999545,54.376864199999545,54.376864199999545,54.376864199999545,54.376864199999545,54.376864199999545,54.376864199999545,54.376864199999545,54.376864199999545,54.376864199999545,,002,P020,2025_May_06_1648,ConditionRich,2021.2.3,59.94790527056727,
16.0,19.75,35,0.75,Stimuli/P020/things_pretzel_10s.jpg,0,0,0.0,0,7,7,7,,,,,,,,,,,,,16.012390699997923,0.012390699997922638,None,54.61040479999792,54.61040479999792,54.61040479999792,54.61040479999792,54.61040479999792,54.61040479999792,54.61040479999792,54.61040479999792,54.61040479999792,54.61040479999792,,002,P020,2025_May_06_1648,ConditionRich,2021.2.3,59.94790527056727,
19.75,20.0,41,0.0,Stimuli/Blank.png,0,0,0.0,0,8,8,8,,,,,,,,,,,,,19.751464699998905,0.0014646999989054166,None,58.363728500000434,58.363728500000434,58.363728500000434,58.363728500000434,58.363728500000434,58.363728500000434,58.363728500000434,58.363728500000434,58.363728500000434,58.363728500000434,,002,P020,2025_May_06_1648,ConditionRich,2021.2.3,59.94790527056727,
20.0,23.75,5,0.75,Stimuli/P020/sun_amjqxnqvhovkotym.jpg,0,0,0.0,0,9,9,9,,,,,,,,,,,,,20.016175000000658,0.016175000000657747,None,58.613953399999446,58.613953399999446,58.613953399999446,58.613953399999446,58.613953399999446,58.613953399999446,58.613953399999446,58.613953399999446,58.613953399999446,58.613953399999446,,002,P020,2025_May_06_1648,ConditionRich,2021.2.3,59.94790527056727,
23.75,24.0,41,0.0,Stimuli/Blank.png,0,0,0.0,0,10,10,10,,,,,,,,,,,,,23.75272109999787,0.002721099997870624,None,62.35057830000005,62.35057830000005,62.35057830000005,62.35057830000005,62.35057830000005,62.35057830000005,62.35057830000005,62.35057830000005,62.35057830000005,62.35057830000005,,002,P020,2025_May_06_1648,ConditionRich,2021.2.3,59.94790527056727,
24.0,27.75,3,0.75,Stimuli/P020/sun_aknrkswonrogcooi.jpg,1,0,0.75,0,11,11,11,,,,,,,,,,,,,24.00227829999858,0.002278299998579314,1,62.60081259999788,62.60081259999788,62.60081259999788,62.60081259999788,62.60081259999788,62.60081259999788,62.60081259999788,63.334800599997834,62.60081259999788,62.60081259999788,0.6175712000003841,002,P020,2025_May_06_1648,ConditionRich,2021.2.3,59.94790527056727,
27.75,28.0,41,0.0,Stimuli/Blank.png,0,0,0.0,0,12,12,12,,,,,,,,,,,,,27.756549599998834,0.00654959999883431,None,66.3541292000009,66.3541292000009,66.3541292000009,66.3541292000009,66.3541292000009,66.3541292000009,66.3541292000009,66.3541292000009,66.3541292000009,66.3541292000009,,002,P020,2025_May_06_1648,ConditionRich,2021.2.3,59.94790527056727,
28.0,31.75,1,0.75,Stimuli/P020/sun_aaaidwecchadbake.jpg,0,0,0.0,0,13,13,13,,,,,,,,,,,,,28.006045599999197,0.006045599999197293,None,66.60434239999813,66.60434239999813,66.60434239999813,66.60434239999813,66.60434239999813,66.60434239999813,66.60434239999813,66.60434239999813,66.60434239999813,66.60434239999813,,002,P020,2025_May_06_1648,ConditionRich,2021.2.3,59.94790527056727,
31.75,32.0,41,0.0,Stimuli/Blank.png,0,0,0.0,0,14,14,14,,,,,,,,,,,,,31.761383599998226,0.01138359999822569,None,70.37436719999823,70.37436719999823,70.37436719999823,70.37436719999823,70.37436719999823,70.37436719999823,70.37436719999823,70.37436719999823,70.37436719999823,70.37436719999823,,002,P020,2025_May_06_1648,ConditionRich,2021.2.3,59.94790527056727,
32.0,35.75,10,0.75,Stimuli/P020/sun_bblqhrudkospnbbv.jpg,0,0,0.0,0,15,15,15,,,,,,,,,,,,,32.02670329999819,0.026703299998189323,None,70.62457409999843,70.62457409999843,70.62457409999843,70.62457409999843,70.62457409999843,70.62457409999843,70.62457409999843,70.62457409999843,70.62457409999843,70.62457409999843,,002,P020,2025_May_06_1648,ConditionRich,2021.2.3,59.94790527056727,
35.75,36.0,41,0.0,Stimuli/Blank.png,0,0,0.0,0,16,16,16,,,,,,,,,,,,,35.76289919999908,0.012899199999083066,None,74.36122469999827,74.36122469999827,74.36122469999827,74.36122469999827,74.36122469999827,74.36122469999827,74.36122469999827,74.36122469999827,74.36122469999827,74.36122469999827,,002,P020,2025_May_06_1648,ConditionRich,2021.2.3,59.94790527056727,
36.0,39.75,32,0.75,Stimuli/P020/things_girl_10s.jpg,0,0,0.0,0,17,17,17,,,,,,,,,,,,,36.01285350000035,0.012853500000346685,None,74.6281510000008,74.6281510000008,74.6281510000008,74.6281510000008,74.6281510000008,74.6281510000008,74.6281510000008,74.6281510000008,74.6281510000008,74.6281510000008,,002,P020,2025_May_06_1648,ConditionRich,2021.2.3,59.94790527056727,
39.75,40.0,41,0.0,Stimuli/Blank.png,0,0,0.0,0,18,18,18,,,,,,,,,,,,,39.767778699999326,0.01777869999932591,None,78.38145749999967,78.38145749999967,78.38145749999967,78.38145749999967,78.38145749999967,78.38145749999967,78.38145749999967,78.38145749999967,78.38145749999967,78.38145749999967,,002,P020,2025_May_06_1648,ConditionRich,2021.2.3,59.94790527056727,
40.0,43.75,13,0.75,Stimuli/P020/sun_bhzwrbdycbchqesq.jpg,0,0,0.0,0,19,19,19,,,,,,,,,,,,,40.017638099998294,0.01763809999829391,None,78.63188760000048,78.63188760000048,78.63188760000048,78.63188760000048,78.63188760000048,78.63188760000048,78.63188760000048,78.63188760000048,78.63188760000048,78.63188760000048,,002,P020,2025_May_06_1648,ConditionRich,2021.2.3,59.94790527056727,
43.75,44.0,41,0.0,Stimuli/Blank.png,0,0,0.0,0,20,20,20,,,,,,,,,,,,,43.772453999998106,0.022453999998106156,None,82.38499220000085,82.38499220000085,82.38499220000085,82.38499220000085,82.38499220000085,82.38499220000085,82.38499220000085,82.38499220000085,82.38499220000085,82.38499220000085,,002,P020,2025_May_06_1648,ConditionRich,2021.2.3,59.94790527056727,
44.0,47.75,26,0.75,Stimuli/P020/things_earwig_10n.jpg,0,0,0.0,0,21,21,21,,,,,,,,,,,,,44.02028579999751,0.020285799997509457,None,82.61852830000134,82.61852830000134,82.61852830000134,82.61852830000134,82.61852830000134,82.61852830000134,82.61852830000134,82.61852830000134,82.61852830000134,82.61852830000134,,002,P020,2025_May_06_1648,ConditionRich,2021.2.3,59.94790527056727,
47.75,48.0,41,0.0,Stimuli/Blank.png,0,0,0.0,0,22,22,22,,,,,,,,,,,,,47.75681369999802,0.006813699998019729,None,86.35516279999865,86.35516279999865,86.35516279999865,86.35516279999865,86.35516279999865,86.35516279999865,86.35516279999865,86.35516279999865,86.35516279999865,86.35516279999865,,002,P020,2025_May_06_1648,ConditionRich,2021.2.3,59.94790527056727,
48.0,51.75,30,0.75,Stimuli/P020/things_flip_flop_10s.jpg,0,0,0.0,0,23,23,23,,,,,,,,,,,,,48.00682609999785,0.006826099997851998,None,86.60538900000029,86.60538900000029,86.60538900000029,86.60538900000029,86.60538900000029,86.60538900000029,86.60538900000029,86.60538900000029,86.60538900000029,86.60538900000029,,002,P020,2025_May_06_1648,ConditionRich,2021.2.3,59.94790527056727,
51.75,52.0,41,0.0,Stimuli/Blank.png,0,0,0.0,0,24,24,24,,,,,,,,,,,,,51.76116479999837,0.011164799998368835,None,90.35871760000009,90.35871760000009,90.35871760000009,90.35871760000009,90.35871760000009,90.35871760000009,90.35871760000009,90.35871760000009,90.35871760000009,90.35871760000009,,002,P020,2025_May_06_1648,ConditionRich,2021.2.3,59.94790527056727,
52.0,55.75,24,0.75,Stimuli/P020/things_bulletin_board_10s.jpg,0,0,0.0,0,25,25,25,,,,,,,,,,,,,52.01092989999961,0.010929899999609916,None,90.60896710000088,90.60896710000088,90.60896710000088,90.60896710000088,90.60896710000088,90.60896710000088,90.60896710000088,90.60896710000088,90.60896710000088,90.60896710000088,,002,P020,2025_May_06_1648,ConditionRich,2021.2.3,59.94790527056727,
55.75,56.0,41,0.0,Stimuli/Blank.png,0,0,0.0,0,26,26,26,,,,,,,,,,,,,55.76488379999864,0.014883799998642644,None,94.36226330000136,94.36226330000136,94.36226330000136,94.36226330000136,94.36226330000136,94.36226330000136,94.36226330000136,94.36226330000136,94.36226330000136,94.36226330000136,,002,P020,2025_May_06_1648,ConditionRich,2021.2.3,59.94790527056727,
56.0,59.75,18,0.75,Stimuli/P020/sun_bodjbrgwzlshgypq.jpg,1,1,1.75,0,27,27,27,,,,,,,,,,,,,56.014738599998964,0.014738599998963764,1,94.61245069999859,94.61245069999859,94.61245069999859,94.61245069999859,94.61245069999859,94.61245069999859,95.59668369999781,96.34735379999984,94.61245069999859,94.61245069999859,2.0519091999995,002,P020,2025_May_06_1648,ConditionRich,2021.2.3,59.94790527056727,
59.75,60.0,41,0.0,Stimuli/Blank.png,0,0,0.0,0,28,28,28,,,,,,,,,,,,,59.750766699999076,0.0007666999990760814,None,98.34911999999895,98.34911999999895,98.34911999999895,98.34911999999895,98.34911999999895,98.34911999999895,98.34911999999895,98.34911999999895,98.34911999999895,98.34911999999895,,002,P020,2025_May_06_1648,ConditionRich,2021.2.3,59.94790527056727,
60.0,63.75,9,0.75,Stimuli/P020/sun_bbfmuujfvpiaqdww.jpg,0,0,0.0,0,29,29,29,,,,,,,,,,,,,60.0015433999979,0.0015433999978995416,None,98.59931700000016,98.59931700000016,98.59931700000016,98.59931700000016,98.59931700000016,98.59931700000016,98.59931700000016,98.59931700000016,98.59931700000016,98.59931700000016,,002,P020,2025_May_06_1648,ConditionRich,2021.2.3,59.94790527056727,
63.75,64.0,41,0.0,Stimuli/Blank.png,0,0,0.0,0,30,30,30,,,,,,,,,,,,,63.756741900000634,0.006741900000633905,None,102.36934889999975,102.36934889999975,102.36934889999975,102.36934889999975,102.36934889999975,102.36934889999975,102.36934889999975,102.36934889999975,102.36934889999975,102.36934889999975,,002,P020,2025_May_06_1648,ConditionRich,2021.2.3,59.94790527056727,
64.0,67.75,31,0.75,Stimuli/P020/things_fudge_10s.jpg,0,0,0.0,0,31,31,31,,,,,,,,,,,,,64.02104029999828,0.02104029999827617,None,102.6195547999996,102.6195547999996,102.6195547999996,102.6195547999996,102.6195547999996,102.6195547999996,102.6195547999996,102.6195547999996,102.6195547999996,102.6195547999996,,002,P020,2025_May_06_1648,ConditionRich,2021.2.3,59.94790527056727,
67.75,68.0,41,0.0,Stimuli/Blank.png,0,0,0.0,0,32,32,32,,,,,,,,,,,,,67.7580941999986,0.008094199998595286,None,106.35621959999844,106.35621959999844,106.35621959999844,106.35621959999844,106.35621959999844,106.35621959999844,106.35621959999844,106.35621959999844,106.35621959999844,106.35621959999844,,002,P020,2025_May_06_1648,ConditionRich,2021.2.3,59.94790527056727,
68.0,71.75,19,0.75,Stimuli/P020/sun_byssdezaaqnthppd.jpg,1,2,2.75,0,33,33,33,,,,,,,,,,,,,68.00783260000026,0.007832600000256207,1,106.60642160000134,106.60642160000134,106.60642160000134,106.60642160000134,106.60642160000134,106.60642160000134,108.59150310000041,109.34234310000102,106.60642160000134,106.60642160000134,2.42701390000002,002,P020,2025_May_06_1648,ConditionRich,2021.2.3,59.94790527056727,
71.75,72.0,41,0.0,Stimuli/Blank.png,0,0,0.0,0,34,34,34,,,,,,,,,,,,,71.7618298999987,0.011829899998701876,None,110.35976129999835,110.35976129999835,110.35976129999835,110.35976129999835,110.35976129999835,110.35976129999835,110.35976129999835,110.35976129999835,110.35976129999835,110.35976129999835,,002,P020,2025_May_06_1648,ConditionRich,2021.2.3,59.94790527056727,
72.0,75.75,23,0.75,Stimuli/P020/things_boy_10s.jpg,0,0,0.0,0,35,35,35,,,,,,,,,,,,,72.01256959999955,0.012569599999551428,None,110.62667950000105,110.62667950000105,110.62667950000105,110.62667950000105,110.62667950000105,110.62667950000105,110.62667950000105,110.62667950000105,110.62667950000105,110.62667950000105,,002,P020,2025_May_06_1648,ConditionRich,2021.2.3,59.94790527056727,
75.75,76.0,41,0.0,Stimuli/Blank.png,0,0,0.0,0,36,36,36,,,,,,,,,,,,,75.76758229999905,0.0175822999990487,None,114.3799637000011,114.3799637000011,114.3799637000011,114.3799637000011,114.3799637000011,114.3799637000011,114.3799637000011,114.3799637000011,114.3799637000011,114.3799637000011,,002,P020,2025_May_06_1648,ConditionRich,2021.2.3,59.94790527056727,
76.0,79.75,8,0.75,Stimuli/P020/sun_avbzvunekksfggon.jpg,0,0,0.0,0,37,37,37,,,,,,,,,,,,,76.0148515999972,0.014851599997200537,None,114.6302027999991,114.6302027999991,114.6302027999991,114.6302027999991,114.6302027999991,114.6302027999991,114.6302027999991,114.6302027999991,114.6302027999991,114.6302027999991,,002,P020,2025_May_06_1648,ConditionRich,2021.2.3,59.94790527056727,
79.75,80.0,41,0.0,Stimuli/Blank.png,0,0,0.0,0,38,38,38,,,,,,,,,,,,,79.76908790000016,0.019087900000158697,None,118.36684120000064,118.36684120000064,118.36684120000064,118.36684120000064,118.36684120000064,118.36684120000064,118.36684120000064,118.36684120000064,118.36684120000064,118.36684120000064,,002,P020,2025_May_06_1648,ConditionRich,2021.2.3,59.94790527056727,
80.0,83.75,29,0.75,Stimuli/P020/things_flamingo_10s.jpg,0,0,0.0,0,39,39,39,,,,,,,,,,,,,80.00184099999751,0.0018409999975119717,None,118.60034100000121,118.60034100000121,118.60034100000121,118.60034100000121,118.60034100000121,118.60034100000121,118.60034100000121,118.60034100000121,118.60034100000121,118.60034100000121,,002,P020,2025_May_06_1648,ConditionRich,2021.2.3,59.94790527056727,
83.75,84.0,41,0.0,Stimuli/Blank.png,0,0,0.0,0,40,40,40,,,,,,,,,,,,,83.75595839999733,0.005958399997325614,None,122.3537026999984,122.3537026999984,122.3537026999984,122.3537026999984,122.3537026999984,122.3537026999984,122.3537026999984,122.3537026999984,122.3537026999984,122.3537026999984,,002,P020,2025_May_06_1648,ConditionRich,2021.2.3,59.94790527056727,
84.0,100.0,0,0.0,Stimuli/Blank.png,1,6,6.75,0,41,41,41,,,,,,,,,,,,,84.00537590000022,0.005375900000217371,1,122.60391410000011,122.60391410000011,122.60391410000011,122.60391410000011,122.60391410000011,122.60391410000011,128.59257869999783,129.34322429999884,122.60391410000011,122.60391410000011,6.538545899999008,002,P020,2025_May_06_1648,ConditionRich,2021.2.3,59.94790527056727,
100.0,103.75,6,0.75,Stimuli/P020/sun_amppcthpabgulbwl.jpg,0,0,0.0,0,42,42,42,,,,,,,,,,,,,100.00290060000043,0.0029006000004301313,None,138.60141300000032,138.60141300000032,138.60141300000032,138.60141300000032,138.60141300000032,138.60141300000032,138.60141300000032,138.60141300000032,138.60141300000032,138.60141300000032,,002,P020,2025_May_06_1648,ConditionRich,2021.2.3,59.94790527056727,
103.75,104.0,41,0.0,Stimuli/Blank.png,0,0,0.0,0,43,43,43,,,,,,,,,,,,,103.75675879999835,0.006758799998351606,None,142.354767599998,142.354767599998,142.354767599998,142.354767599998,142.354767599998,142.354767599998,142.354767599998,142.354767599998,142.354767599998,142.354767599998,,002,P020,2025_May_06_1648,ConditionRich,2021.2.3,59.94790527056727,
104.0,107.75,22,0.75,Stimuli/P020/things_bead_10s.jpg,0,0,0.0,0,44,44,44,,,,,,,,,,,,,104.00678120000157,0.006781200001569232,None,142.60495759999685,142.60495759999685,142.60495759999685,142.60495759999685,142.60495759999685,142.60495759999685,142.60495759999685,142.60495759999685,142.60495759999685,142.60495759999685,,002,P020,2025_May_06_1648,ConditionRich,2021.2.3,59.94790527056727,
107.75,108.0,41,0.0,Stimuli/Blank.png,0,0,0.0,0,45,45,45,,,,,,,,,,,,,107.76062610000008,0.010626100000081351,None,146.35830799999894,146.35830799999894,146.35830799999894,146.35830799999894,146.35830799999894,146.35830799999894,146.35830799999894,146.35830799999894,146.35830799999894,146.35830799999894,,002,P020,2025_May_06_1648,ConditionRich,2021.2.3,59.94790527056727,
108.0,111.75,4,0.75,Stimuli/P020/sun_amixpbnrxiulfsri.jpg,0,0,0.0,0,46,46,46,,,,,,,,,,,,,108.01051460000235,0.010514600002352381,None,146.60849280000184,146.60849280000184,146.60849280000184,146.60849280000184,146.60849280000184,146.60849280000184,146.60849280000184,146.60849280000184,146.60849280000184,146.60849280000184,,002,P020,2025_May_06_1648,ConditionRich,2021.2.3,59.94790527056727,
111.75,112.0,41,0.0,Stimuli/Blank.png,0,0,0.0,0,47,47,47,,,,,,,,,,,,,111.76344939999763,0.013449399997625733,None,150.361821399998,150.361821399998,150.361821399998,150.361821399998,150.361821399998,150.361821399998,150.361821399998,150.361821399998,150.361821399998,150.361821399998,,002,P020,2025_May_06_1648,ConditionRich,2021.2.3,59.94790527056727,
112.0,115.75,36,0.75,Stimuli/P020/things_sunroof_10s.jpg,1,0,0.75,0,48,48,48,,,,,,,,,,,,,112.01356719999967,0.013567199999670265,1,150.61205059999702,150.61205059999702,150.61205059999702,150.61205059999702,150.61205059999702,150.61205059999702,150.61205059999702,151.34611439999935,150.61205059999702,150.61205059999702,0.4662566999977571,002,P020,2025_May_06_1648,ConditionRich,2021.2.3,59.94790527056727,
115.75,116.0,41,0.0,Stimuli/Blank.png,0,0,0.0,0,49,49,49,,,,,,,,,,,,,115.75300629999765,0.0030062999976507854,None,154.36537950000275,154.36537950000275,154.36537950000275,154.36537950000275,154.36537950000275,154.36537950000275,154.36537950000275,154.36537950000275,154.36537950000275,154.36537950000275,,002,P020,2025_May_06_1648,ConditionRich,2021.2.3,59.94790527056727,
116.0,119.75,39,0.75,Stimuli/P020/things_wire_10s.jpg,0,0,0.0,0,50,50,50,,,,,,,,,,,,,116.01766110000244,0.017661100002442254,None,154.61557929999617,154.61557929999617,154.61557929999617,154.61557929999617,154.61557929999617,154.61557929999617,154.61557929999617,154.61557929999617,154.61557929999617,154.61557929999617,,002,P020,2025_May_06_1648,ConditionRich,2021.2.3,59.94790527056727,
119.75,120.0,41,0.0,Stimuli/Blank.png,0,0,0.0,0,51,51,51,,,,,,,,,,,,,119.75367869999536,0.003678699995361967,None,158.3522183999994,158.3522183999994,158.3522183999994,158.3522183999994,158.3522183999994,158.3522183999994,158.3522183999994,158.3522183999994,158.3522183999994,158.3522183999994,,002,P020,2025_May_06_1648,ConditionRich,2021.2.3,59.94790527056727,
120.0,123.75,20,0.75,Stimuli/P020/sun_dlnwonqxagdvtlta.jpg,0,0,0.0,0,52,52,52,,,,,,,,,,,,,120.00394589999996,0.003945899999962421,None,158.60243960000298,158.60243960000298,158.60243960000298,158.60243960000298,158.60243960000298,158.60243960000298,158.60243960000298,158.60243960000298,158.60243960000298,158.60243960000298,,002,P020,2025_May_06_1648,ConditionRich,2021.2.3,59.94790527056727,
123.75,124.0,41,0.0,Stimuli/Blank.png,0,0,0.0,0,53,53,53,,,,,,,,,,,,,123.75791150000077,0.00791150000077323,None,162.35578670000177,162.35578670000177,162.35578670000177,162.35578670000177,162.35578670000177,162.35578670000177,162.35578670000177,162.35578670000177,162.35578670000177,162.35578670000177,,002,P020,2025_May_06_1648,ConditionRich,2021.2.3,59.94790527056727,
124.0,127.75,11,0.75,Stimuli/P020/sun_bcbfjkoziukwmdkd.jpg,0,0,0.0,0,54,54,54,,,,,,,,,,,,,124.00761099999727,0.007610999997268664,None,162.60598140000002,162.60598140000002,162.60598140000002,162.60598140000002,162.60598140000002,162.60598140000002,162.60598140000002,162.60598140000002,162.60598140000002,162.60598140000002,,002,P020,2025_May_06_1648,ConditionRich,2021.2.3,59.94790527056727,
127.75,128.0,41,0.0,Stimuli/Blank.png,0,0,0.0,0,55,55,55,,,,,,,,,,,,,127.7607167999995,0.010716799999499926,None,166.35931250000067,166.35931250000067,166.35931250000067,166.35931250000067,166.35931250000067,166.35931250000067,166.35931250000067,166.35931250000067,166.35931250000067,166.35931250000067,,002,P020,2025_May_06_1648,ConditionRich,2021.2.3,59.94790527056727,
128.0,131.75,15,0.75,Stimuli/P020/sun_bkubdnohuakmwcaj.jpg,0,0,0.0,0,56,56,56,,,,,,,,,,,,,128.01118060000226,0.011180600002262508,None,166.60951299999942,166.60951299999942,166.60951299999942,166.60951299999942,166.60951299999942,166.60951299999942,166.60951299999942,166.60951299999942,166.60951299999942,166.60951299999942,,002,P020,2025_May_06_1648,ConditionRich,2021.2.3,59.94790527056727,
131.75,132.0,41,0.0,Stimuli/Blank.png,0,0,0.0,0,57,57,57,,,,,,,,,,,,,131.76431439999942,0.014314399999420857,None,170.3628570999972,170.3628570999972,170.3628570999972,170.3628570999972,170.3628570999972,170.3628570999972,170.3628570999972,170.3628570999972,170.3628570999972,170.3628570999972,,002,P020,2025_May_06_1648,ConditionRich,2021.2.3,59.94790527056727,
132.0,135.75,16,0.75,Stimuli/P020/sun_blfpbbfyzmewzplm.jpg,0,0,0.0,0,58,58,58,,,,,,,,,,,,,132.01478799999677,0.01478799999676994,None,170.61307889999807,170.61307889999807,170.61307889999807,170.61307889999807,170.61307889999807,170.61307889999807,170.61307889999807,170.61307889999807,170.61307889999807,170.61307889999807,,002,P020,2025_May_06_1648,ConditionRich,2021.2.3,59.94790527056727,
135.75,136.0,41,0.0,Stimuli/Blank.png,0,0,0.0,0,59,59,59,,,,,,,,,,,,,135.75240750000012,0.0024075000001175795,None,174.34974509999665,174.34974509999665,174.34974509999665,174.34974509999665,174.34974509999665,174.34974509999665,174.34974509999665,174.34974509999665,174.34974509999665,174.34974509999665,,002,P020,2025_May_06_1648,ConditionRich,2021.2.3,59.94790527056727,
136.0,139.75,25,0.75,Stimuli/P020/things_chime_10s.jpg,1,1,1.75,0,60,60,60,,,,,,,,,,,,,136.00204499999745,0.0020449999974516686,1,174.6166198000028,174.6166198000028,174.6166198000028,174.6166198000028,174.6166198000028,174.6166198000028,175.58419359999607,176.33487519999835,174.6166198000028,174.6166198000028,1.7178378000025987,002,P020,2025_May_06_1648,ConditionRich,2021.2.3,59.94790527056727,
139.75,140.0,41,0.0,Stimuli/Blank.png,0,0,0.0,0,61,61,61,,,,,,,,,,,,,139.77454389999548,0.02454389999547857,None,178.38665050000054,178.38665050000054,178.38665050000054,178.38665050000054,178.38665050000054,178.38665050000054,178.38665050000054,178.38665050000054,178.38665050000054,178.38665050000054,,002,P020,2025_May_06_1648,ConditionRich,2021.2.3,59.94790527056727,
140.0,143.75,37,0.75,Stimuli/P020/things_toaster_10s.jpg,1,1,1.75,0,62,62,62,,,,,,,,,,,,,140.02263379999567,0.022633799995674053,1,178.62022649999926,178.62022649999926,178.62022649999926,178.62022649999926,178.62022649999926,178.62022649999926,179.60439170000245,180.35506109999915,178.62022649999926,178.62022649999926,1.442127199996321,002,P020,2025_May_06_1648,ConditionRich,2021.2.3,59.94790527056727,
143.75,144.0,41,0.0,Stimuli/Blank.png,0,0,0.0,0,63,63,63,,,,,,,,,,,,,143.75926629999958,0.009266299999580951,None,182.3568090000008,182.3568090000008,182.3568090000008,182.3568090000008,182.3568090000008,182.3568090000008,182.3568090000008,182.3568090000008,182.3568090000008,182.3568090000008,,002,P020,2025_May_06_1648,ConditionRich,2021.2.3,59.94790527056727,
144.0,147.75,28,0.75,Stimuli/P020/things_face_10s.jpg,0,0,0.0,0,64,64,64,,,,,,,,,,,,,144.00852870000017,0.00852870000016992,None,182.60702759999913,182.60702759999913,182.60702759999913,182.60702759999913,182.60702759999913,182.60702759999913,182.60702759999913,182.60702759999913,182.60702759999913,182.60702759999913,,002,P020,2025_May_06_1648,ConditionRich,2021.2.3,59.94790527056727,
147.75,148.0,41,0.0,Stimuli/Blank.png,0,0,0.0,0,65,65,65,,,,,,,,,,,,,147.76261709999744,0.012617099997441983,None,186.3603497999975,186.3603497999975,186.3603497999975,186.3603497999975,186.3603497999975,186.3603497999975,186.3603497999975,186.3603497999975,186.3603497999975,186.3603497999975,,002,P020,2025_May_06_1648,ConditionRich,2021.2.3,59.94790527056727,
148.0,151.75,17,0.75,Stimuli/P020/sun_bltxkcclrpweopkl.jpg,0,0,0.0,0,66,66,66,,,,,,,,,,,,,148.01278110000203,0.012781100002030144,None,186.61058550000234,186.61058550000234,186.61058550000234,186.61058550000234,186.61058550000234,186.61058550000234,186.61058550000234,186.61058550000234,186.61058550000234,186.61058550000234,,002,P020,2025_May_06_1648,ConditionRich,2021.2.3,59.94790527056727,
151.75,152.0,41,0.0,Stimuli/Blank.png,0,0,0.0,0,67,67,67,,,,,,,,,,,,,151.74972440000056,-0.0002755999994406011,None,190.36392069999783,190.36392069999783,190.36392069999783,190.36392069999783,190.36392069999783,190.36392069999783,190.36392069999783,190.36392069999783,190.36392069999783,190.36392069999783,,002,P020,2025_May_06_1648,ConditionRich,2021.2.3,59.94790527056727,
152.0,155.75,33,0.75,Stimuli/P020/things_insole_10s.jpg,0,0,0.0,0,68,68,68,,,,,,,,,,,,,152.0155066999978,0.0155066999977862,None,190.61411459999727,190.61411459999727,190.61411459999727,190.61411459999727,190.61411459999727,190.61411459999727,190.61411459999727,190.61411459999727,190.61411459999727,190.61411459999727,,002,P020,2025_May_06_1648,ConditionRich,2021.2.3,59.94790527056727,
155.75,156.0,41,0.0,Stimuli/Blank.png,0,0,0.0,0,69,69,69,,,,,,,,,,,,,155.75329910000073,0.003299100000731414,None,194.35075549999965,194.35075549999965,194.35075549999965,194.35075549999965,194.35075549999965,194.35075549999965,194.35075549999965,194.35075549999965,194.35075549999965,194.35075549999965,,002,P020,2025_May_06_1648,ConditionRich,2021.2.3,59.94790527056727,
156.0,159.75,38,0.75,Stimuli/P020/things_turtle_10n.jpg,0,0,0.0,0,70,70,70,,,,,,,,,,,,,156.00343639999846,0.0034363999984634575,None,194.6009715,194.6009715,194.6009715,194.6009715,194.6009715,194.6009715,194.6009715,194.6009715,194.6009715,194.6009715,,002,P020,2025_May_06_1648,ConditionRich,2021.2.3,59.94790527056727,
159.75,160.0,41,0.0,Stimuli/Blank.png,0,0,0.0,0,71,71,71,,,,,,,,,,,,,159.75676770000064,0.006767700000636978,None,198.3543144000032,198.3543144000032,198.3543144000032,198.3543144000032,198.3543144000032,198.3543144000032,198.3543144000032,198.3543144000032,198.3543144000032,198.3543144000032,,002,P020,2025_May_06_1648,ConditionRich,2021.2.3,59.94790527056727,
160.0,163.75,7,0.75,Stimuli/P020/sun_aqkbfuonyunmyqxb.jpg,0,0,0.0,0,72,72,72,,,,,,,,,,,,,160.00673720000123,0.006737200001225574,None,198.62119110000276,198.62119110000276,198.62119110000276,198.62119110000276,198.62119110000276,198.62119110000276,198.62119110000276,198.62119110000276,198.62119110000276,198.62119110000276,,002,P020,2025_May_06_1648,ConditionRich,2021.2.3,59.94790527056727,
163.75,164.0,41,0.0,Stimuli/Blank.png,0,0,0.0,0,73,73,73,,,,,,,,,,,,,163.77683929999694,0.02683929999693646,None,202.37450460000036,202.37450460000036,202.37450460000036,202.37450460000036,202.37450460000036,202.37450460000036,202.37450460000036,202.37450460000036,202.37450460000036,202.37450460000036,,002,P020,2025_May_06_1648,ConditionRich,2021.2.3,59.94790527056727,
164.0,167.75,21,0.75,Stimuli/P020/things_anteater_10s.jpg,1,2,2.75,0,74,74,74,,,,,,,,,,,,,164.0102291999974,0.010229199997411342,1,202.60806329999832,202.60806329999832,202.60806329999832,202.60806329999832,202.60806329999832,202.60806329999832,204.5931418,205.34391929999765,202.60806329999832,202.60806329999832,2.4913266000003205,002,P020,2025_May_06_1648,ConditionRich,2021.2.3,59.94790527056727,
167.75,168.0,41,0.0,Stimuli/Blank.png,0,0,0.0,0,75,75,75,,,,,,,,,,,,,167.76339789999838,0.013397899998381035,None,206.36137650000092,206.36137650000092,206.36137650000092,206.36137650000092,206.36137650000092,206.36137650000092,206.36137650000092,206.36137650000092,206.36137650000092,206.36137650000092,,002,P020,2025_May_06_1648,ConditionRich,2021.2.3,59.94790527056727,
168.0,171.75,14,0.75,Stimuli/P020/sun_birvagufpcschyrr.jpg,0,0,0.0,0,76,76,76,,,,,,,,,,,,,168.01350929999535,0.013509299995348556,None,206.61159530000077,206.61159530000077,206.61159530000077,206.61159530000077,206.61159530000077,206.61159530000077,206.61159530000077,206.61159530000077,206.61159530000077,206.61159530000077,,002,P020,2025_May_06_1648,ConditionRich,2021.2.3,59.94790527056727,
171.75,172.0,41,0.0,Stimuli/Blank.png,0,0,0.0,0,77,77,77,,,,,,,,,,,,,171.7503456000013,0.00034560000131023116,None,210.3482385999996,210.3482385999996,210.3482385999996,210.3482385999996,210.3482385999996,210.3482385999996,210.3482385999996,210.3482385999996,210.3482385999996,210.3482385999996,,002,P020,2025_May_06_1648,ConditionRich,2021.2.3,59.94790527056727,
172.0,175.75,34,0.75,Stimuli/P020/things_man_10s.jpg,0,0,0.0,0,78,78,78,,,,,,,,,,,,,172.00050919999558,0.0005091999955766369,None,210.59846730000208,210.59846730000208,210.59846730000208,210.59846730000208,210.59846730000208,210.59846730000208,210.59846730000208,210.59846730000208,210.59846730000208,210.59846730000208,,002,P020,2025_May_06_1648,ConditionRich,2021.2.3,59.94790527056727,
175.75,176.0,41,0.0,Stimuli/Blank.png,0,0,0.0,0,79,79,79,,,,,,,,,,,,,175.75439800000095,0.004398000000946922,None,214.3517965999963,214.3517965999963,214.3517965999963,214.3517965999963,214.3517965999963,214.3517965999963,214.3517965999963,214.3517965999963,214.3517965999963,214.3517965999963,,002,P020,2025_May_06_1648,ConditionRich,2021.2.3,59.94790527056727,
176.0,179.75,27,0.75,Stimuli/P020/things_eel_10s.jpg,0,0,0.0,0,80,80,80,,,,,,,,,,,,,176.00424539999585,0.004245399995852495,None,214.60201299999972,214.60201299999972,214.60201299999972,214.60201299999972,214.60201299999972,214.60201299999972,214.60201299999972,214.60201299999972,214.60201299999972,214.60201299999972,,002,P020,2025_May_06_1648,ConditionRich,2021.2.3,59.94790527056727,
179.75,180.0,41,0.0,Stimuli/Blank.png,0,0,0.0,0,81,81,81,,,,,,,,,,,,,179.75969989999794,0.00969989999794052,None,218.3719861000027,218.3719861000027,218.3719861000027,218.3719861000027,218.3719861000027,218.3719861000027,218.3719861000027,218.3719861000027,218.3719861000027,218.3719861000027,,002,P020,2025_May_06_1648,ConditionRich,2021.2.3,59.94790527056727,
180.0,196.0,0,0.0,Stimuli/Blank.png,1,4,4.75,0,82,82,82,,,,,,,,,,,,,180.0238403000003,0.023840300000301795,None,218.6222314000006,218.6222314000006,218.6222314000006,218.6222314000006,218.6222314000006,218.6222314000006,222.60918239999955,223.3597273000014,218.6222314000006,218.6222314000006,,002,P020,2025_May_06_1648,ConditionRich,2021.2.3,59.94790527056727,
196.0,199.75,34,0.75,Stimuli/P020/things_man_10s.jpg,0,0,0.0,0,83,83,83,,,,,,,,,,,,,196.00545359999887,0.00545359999887296,None,234.60304700000052,234.60304700000052,234.60304700000052,234.60304700000052,234.60304700000052,234.60304700000052,234.60304700000052,234.60304700000052,234.60304700000052,234.60304700000052,,002,P020,2025_May_06_1648,ConditionRich,2021.2.3,59.94790527056727,
199.75,200.0,41,0.0,Stimuli/Blank.png,0,0,0.0,0,84,84,84,,,,,,,,,,,,,199.75840660000176,0.008406600001762854,None,238.356373300001,238.356373300001,238.356373300001,238.356373300001,238.356373300001,238.356373300001,238.356373300001,238.356373300001,238.356373300001,238.356373300001,,002,P020,2025_May_06_1648,ConditionRich,2021.2.3,59.94790527056727,
200.0,203.75,18,0.75,Stimuli/P020/sun_bodjbrgwzlshgypq.jpg,0,0,0.0,0,85,85,85,,,,,,,,,,,,,200.00969429999896,0.009694299998955103,None,238.62326949999624,238.62326949999624,238.62326949999624,238.62326949999624,238.62326949999624,238.62326949999624,238.62326949999624,238.62326949999624,238.62326949999624,238.62326949999624,,002,P020,2025_May_06_1648,ConditionRich,2021.2.3,59.94790527056727,
203.75,204.0,41,0.0,Stimuli/Blank.png,0,0,0.0,0,86,86,86,,,,,,,,,,,,,203.77934019999884,0.029340199998841854,None,242.39329650000218,242.39329650000218,242.39329650000218,242.39329650000218,242.39329650000218,242.39329650000218,242.39329650000218,242.39329650000218,242.39329650000218,242.39329650000218,,002,P020,2025_May_06_1648,ConditionRich,2021.2.3,59.94790527056727,
204.0,207.75,3,0.75,Stimuli/P020/sun_aknrkswonrogcooi.jpg,0,0,0.0,0,87,87,87,,,,,,,,,,,,,204.02965010000116,0.029650100001163082,None,242.64349649999713,242.64349649999713,242.64349649999713,242.64349649999713,242.64349649999713,242.64349649999713,242.64349649999713,242.64349649999713,242.64349649999713,242.64349649999713,,002,P020,2025_May_06_1648,ConditionRich,2021.2.3,59.94790527056727,
207.75,208.0,41,0.0,Stimuli/Blank.png,0,0,0.0,0,88,88,88,,,,,,,,,,,,,207.76486510000177,0.01486510000177077,None,246.3634398000031,246.3634398000031,246.3634398000031,246.3634398000031,246.3634398000031,246.3634398000031,246.3634398000031,246.3634398000031,246.3634398000031,246.3634398000031,,002,P020,2025_May_06_1648,ConditionRich,2021.2.3,59.94790527056727,
208.0,211.75,12,0.75,Stimuli/P020/sun_bgjrtiivbwugxhxp.jpg,0,0,0.0,0,89,89,89,,,,,,,,,,,,,208.01591659999758,0.015916599997581216,None,246.63035979999768,246.63035979999768,246.63035979999768,246.63035979999768,246.63035979999768,246.63035979999768,246.63035979999768,246.63035979999768,246.63035979999768,246.63035979999768,,002,P020,2025_May_06_1648,ConditionRich,2021.2.3,59.94790527056727,
211.75,212.0,41,0.0,Stimuli/Blank.png,0,0,0.0,0,90,90,90,,,,,,,,,,,,,211.76916960000017,0.01916960000016843,None,250.36699620000218,250.36699620000218,250.36699620000218,250.36699620000218,250.36699620000218,250.36699620000218,250.36699620000218,250.36699620000218,250.36699620000218,250.36699620000218,,002,P020,2025_May_06_1648,ConditionRich,2021.2.3,59.94790527056727,
212.0,215.75,38,0.75,Stimuli/P020/things_turtle_10n.jpg,0,0,0.0,0,91,91,91,,,,,,,,,,,,,212.0040764999976,0.004076499997609062,None,250.61721939999916,250.61721939999916,250.61721939999916,250.61721939999916,250.61721939999916,250.61721939999916,250.61721939999916,250.61721939999916,250.61721939999916,250.61721939999916,,002,P020,2025_May_06_1648,ConditionRich,2021.2.3,59.94790527056727,
215.75,216.0,41,0.0,Stimuli/Blank.png,0,0,0.0,0,92,92,92,,,,,,,,,,,,,215.77492500000153,0.02492500000153086,None,254.38722519999646,254.38722519999646,254.38722519999646,254.38722519999646,254.38722519999646,254.38722519999646,254.38722519999646,254.38722519999646,254.38722519999646,254.38722519999646,,002,P020,2025_May_06_1648,ConditionRich,2021.2.3,59.94790527056727,
216.0,219.75,8,0.75,Stimuli/P020/sun_avbzvunekksfggon.jpg,0,0,0.0,0,93,93,93,,,,,,,,,,,,,216.02294610000172,0.02294610000171815,None,254.6374392999969,254.6374392999969,254.6374392999969,254.6374392999969,254.6374392999969,254.6374392999969,254.6374392999969,254.6374392999969,254.6374392999969,254.6374392999969,,002,P020,2025_May_06_1648,ConditionRich,2021.2.3,59.94790527056727,
219.75,220.0,41,0.0,Stimuli/Blank.png,0,0,0.0,0,94,94,94,,,,,,,,,,,,,219.7784836999963,0.028483699996286305,None,258.3907657999989,258.3907657999989,258.3907657999989,258.3907657999989,258.3907657999989,258.3907657999989,258.3907657999989,258.3907657999989,258.3907657999989,258.3907657999989,,002,P020,2025_May_06_1648,ConditionRich,2021.2.3,59.94790527056727,
220.0,223.75,36,0.75,Stimuli/P020/things_sunroof_10s.jpg,0,0,0.0,0,95,95,95,,,,,,,,,,,,,220.0285152999968,0.028515299996797694,None,258.6409879000021,258.6409879000021,258.6409879000021,258.6409879000021,258.6409879000021,258.6409879000021,258.6409879000021,258.6409879000021,258.6409879000021,258.6409879000021,,002,P020,2025_May_06_1648,ConditionRich,2021.2.3,59.94790527056727,
223.75,224.0,41,0.0,Stimuli/Blank.png,0,0,0.0,0,96,96,96,,,,,,,,,,,,,223.77947579999818,0.029475799998181174,None,262.3776228000024,262.3776228000024,262.3776228000024,262.3776228000024,262.3776228000024,262.3776228000024,262.3776228000024,262.3776228000024,262.3776228000024,262.3776228000024,,002,P020,2025_May_06_1648,ConditionRich,2021.2.3,59.94790527056727,
224.0,227.75,26,0.75,Stimuli/P020/things_earwig_10n.jpg,0,0,0.0,0,97,97,97,,,,,,,,,,,,,224.01353999999628,0.013539999996282859,None,262.62784179999653,262.62784179999653,262.62784179999653,262.62784179999653,262.62784179999653,262.62784179999653,262.62784179999653,262.62784179999653,262.62784179999653,262.62784179999653,,002,P020,2025_May_06_1648,ConditionRich,2021.2.3,59.94790527056727,
227.75,228.0,41,0.0,Stimuli/Blank.png,0,0,0.0,0,98,98,98,,,,,,,,,,,,,227.76866130000053,0.0186613000005309,None,266.3811842999967,266.3811842999967,266.3811842999967,266.3811842999967,266.3811842999967,266.3811842999967,266.3811842999967,266.3811842999967,266.3811842999967,266.3811842999967,,002,P020,2025_May_06_1648,ConditionRich,2021.2.3,59.94790527056727,
228.0,231.75,9,0.75,Stimuli/P020/sun_bbfmuujfvpiaqdww.jpg,1,2,2.75,0,99,99,99,,,,,,,,,,,,,228.0169335999999,0.01693359999990207,1,266.61475229999996,266.61475229999996,266.61475229999996,266.61475229999996,266.61475229999996,266.61475229999996,268.5998494999985,269.35047490000215,266.61475229999996,266.61475229999996,2.874041099996248,002,P020,2025_May_06_1648,ConditionRich,2021.2.3,59.94790527056727,
231.75,232.0,41,0.0,Stimuli/Blank.png,0,0,0.0,0,100,100,100,,,,,,,,,,,,,231.75332600000183,0.0033260000018344726,None,270.35134050000124,270.35134050000124,270.35134050000124,270.35134050000124,270.35134050000124,270.35134050000124,270.35134050000124,270.35134050000124,270.35134050000124,270.35134050000124,,002,P020,2025_May_06_1648,ConditionRich,2021.2.3,59.94790527056727,
232.0,235.75,35,0.75,Stimuli/P020/things_pretzel_10s.jpg,1,1,1.75,0,101,101,101,,,,,,,,,,,,,232.0032781000009,0.003278100000898121,1,270.6015623000021,270.6015623000021,270.6015623000021,270.6015623000021,270.6015623000021,270.6015623000021,271.5857730000025,272.3364326999981,270.6015623000021,270.6015623000021,1.5839090000008582,002,P020,2025_May_06_1648,ConditionRich,2021.2.3,59.94790527056727,
235.75,236.0,41,0.0,Stimuli/Blank.png,0,0,0.0,0,102,102,102,,,,,,,,,,,,,235.75632099999711,0.0063209999971149955,None,274.35488209999676,274.35488209999676,274.35488209999676,274.35488209999676,274.35488209999676,274.35488209999676,274.35488209999676,274.35488209999676,274.35488209999676,274.35488209999676,,002,P020,2025_May_06_1648,ConditionRich,2021.2.3,59.94790527056727,
236.0,239.75,37,0.75,Stimuli/P020/things_toaster_10s.jpg,0,0,0.0,0,103,103,103,,,,,,,,,,,,,236.0071468999995,0.007146899999497691,None,274.60511300000144,274.60511300000144,274.60511300000144,274.60511300000144,274.60511300000144,274.60511300000144,274.60511300000144,274.60511300000144,274.60511300000144,274.60511300000144,,002,P020,2025_May_06_1648,ConditionRich,2021.2.3,59.94790527056727,
239.75,240.0,41,0.0,Stimuli/Blank.png,0,0,0.0,0,104,104,104,,,,,,,,,,,,,239.76001629999882,0.010016299998824252,None,278.3584767999964,278.3584767999964,278.3584767999964,278.3584767999964,278.3584767999964,278.3584767999964,278.3584767999964,278.3584767999964,278.3584767999964,278.3584767999964,,002,P020,2025_May_06_1648,ConditionRich,2021.2.3,59.94790527056727,
240.0,243.75,20,0.75,Stimuli/P020/sun_dlnwonqxagdvtlta.jpg,0,0,0.0,0,105,105,105,,,,,,,,,,,,,240.0108788999969,0.010878899996896507,None,278.6086497999968,278.6086497999968,278.6086497999968,278.6086497999968,278.6086497999968,278.6086497999968,278.6086497999968,278.6086497999968,278.6086497999968,278.6086497999968,,002,P020,2025_May_06_1648,ConditionRich,2021.2.3,59.94790527056727,
243.75,244.0,41,0.0,Stimuli/Blank.png,0,0,0.0,0,106,106,106,,,,,,,,,,,,,243.76406990000032,0.014069900000322377,None,282.3619834000019,282.3619834000019,282.3619834000019,282.3619834000019,282.3619834000019,282.3619834000019,282.3619834000019,282.3619834000019,282.3619834000019,282.3619834000019,,002,P020,2025_May_06_1648,ConditionRich,2021.2.3,59.94790527056727,
244.0,247.75,19,0.75,Stimuli/P020/sun_byssdezaaqnthppd.jpg,0,0,0.0,0,107,107,107,,,,,,,,,,,,,244.01428999999553,0.01428999999552616,None,282.62888269999894,282.62888269999894,282.62888269999894,282.62888269999894,282.62888269999894,282.62888269999894,282.62888269999894,282.62888269999894,282.62888269999894,282.62888269999894,,002,P020,2025_May_06_1648,ConditionRich,2021.2.3,59.94790527056727,
247.75,248.0,41,0.0,Stimuli/Blank.png,0,0,0.0,0,108,108,108,,,,,,,,,,,,,247.7691156999972,0.019115699997200863,None,286.3821981999972,286.3821981999972,286.3821981999972,286.3821981999972,286.3821981999972,286.3821981999972,286.3821981999972,286.3821981999972,286.3821981999972,286.3821981999972,,002,P020,2025_May_06_1648,ConditionRich,2021.2.3,59.94790527056727,
248.0,251.75,11,0.75,Stimuli/P020/sun_bcbfjkoziukwmdkd.jpg,1,2,2.75,0,109,109,109,,,,,,,,,,,,,248.01844379999602,0.01844379999602097,1,286.6324201999996,286.6324201999996,286.6324201999996,286.6324201999996,286.6324201999996,286.6324201999996,288.6008325999974,289.3515110999979,286.6324201999996,286.6324201999996,2.544064300003811,002,P020,2025_May_06_1648,ConditionRich,2021.2.3,59.94790527056727,
251.75,252.0,41,0.0,Stimuli/Blank.png,0,0,0.0,0,110,110,110,,,,,,,,,,,,,251.77125629999864,0.021256299998640316,None,290.3690605999982,290.3690605999982,290.3690605999982,290.3690605999982,290.3690605999982,290.3690605999982,290.3690605999982,290.3690605999982,290.3690605999982,290.3690605999982,,002,P020,2025_May_06_1648,ConditionRich,2021.2.3,59.94790527056727,
252.0,255.75,23,0.75,Stimuli/P020/things_boy_10s.jpg,0,0,0.0,0,111,111,111,,,,,,,,,,,,,252.00450140000248,0.004501400002482114,None,290.61933350000254,290.61933350000254,290.61933350000254,290.61933350000254,290.61933350000254,290.61933350000254,290.61933350000254,290.61933350000254,290.61933350000254,290.61933350000254,,002,P020,2025_May_06_1648,ConditionRich,2021.2.3,59.94790527056727,
255.75,256.0,41,0.0,Stimuli/Blank.png,0,0,0.0,0,112,112,112,,,,,,,,,,,,,255.77478250000058,0.02478250000058324,None,294.3726010999999,294.3726010999999,294.3726010999999,294.3726010999999,294.3726010999999,294.3726010999999,294.3726010999999,294.3726010999999,294.3726010999999,294.3726010999999,,002,P020,2025_May_06_1648,ConditionRich,2021.2.3,59.94790527056727,
256.0,259.75,29,0.75,Stimuli/P020/things_flamingo_10s.jpg,0,0,0.0,0,113,113,113,,,,,,,,,,,,,256.00759520000065,0.007595200000650948,None,294.6061437999997,294.6061437999997,294.6061437999997,294.6061437999997,294.6061437999997,294.6061437999997,294.6061437999997,294.6061437999997,294.6061437999997,294.6061437999997,,002,P020,2025_May_06_1648,ConditionRich,2021.2.3,59.94790527056727,
259.75,260.0,41,0.0,Stimuli/Blank.png,0,0,0.0,0,114,114,114,,,,,,,,,,,,,259.76359529999536,0.0135952999953588,None,298.3761554999983,298.3761554999983,298.3761554999983,298.3761554999983,298.3761554999983,298.3761554999983,298.3761554999983,298.3761554999983,298.3761554999983,298.3761554999983,,002,P020,2025_May_06_1648,ConditionRich,2021.2.3,59.94790527056727,
260.0,263.75,24,0.75,Stimuli/P020/things_bulletin_board_10s.jpg,0,0,0.0,0,115,115,115,,,,,,,,,,,,,260.0278653000023,0.02786530000230414,None,298.62636089999796,298.62636089999796,298.62636089999796,298.62636089999796,298.62636089999796,298.62636089999796,298.62636089999796,298.62636089999796,298.62636089999796,298.62636089999796,,002,P020,2025_May_06_1648,ConditionRich,2021.2.3,59.94790527056727,
263.75,264.0,41,0.0,Stimuli/Blank.png,0,0,0.0,0,116,116,116,,,,,,,,,,,,,263.76445810000223,0.014458100002229912,None,302.36301230000026,302.36301230000026,302.36301230000026,302.36301230000026,302.36301230000026,302.36301230000026,302.36301230000026,302.36301230000026,302.36301230000026,302.36301230000026,,002,P020,2025_May_06_1648,ConditionRich,2021.2.3,59.94790527056727,
264.0,267.75,5,0.75,Stimuli/P020/sun_amjqxnqvhovkotym.jpg,1,2,2.75,0,117,117,117,,,,,,,,,,,,,264.0147042999997,0.014704299999721115,1,302.6132219000028,302.6132219000028,302.6132219000028,302.6132219000028,302.6132219000028,302.6132219000028,304.598371899996,305.34903490000215,302.6132219000028,302.6132219000028,2.488567600004899,002,P020,2025_May_06_1648,ConditionRich,2021.2.3,59.94790527056727,
267.75,268.0,41,0.0,Stimuli/Blank.png,0,0,0.0,0,118,118,118,,,,,,,,,,,,,267.7513485999989,0.0013485999988915864,None,306.3498654000032,306.3498654000032,306.3498654000032,306.3498654000032,306.3498654000032,306.3498654000032,306.3498654000032,306.3498654000032,306.3498654000032,306.3498654000032,,002,P020,2025_May_06_1648,ConditionRich,2021.2.3,59.94790527056727,
268.0,271.75,40,0.75,Stimuli/P020/things_woman_10s.jpg,0,0,0.0,0,119,119,119,,,,,,,,,,,,,268.00466940000115,0.00466940000114846,None,306.6167781000004,306.6167781000004,306.6167781000004,306.6167781000004,306.6167781000004,306.6167781000004,306.6167781000004,306.6167781000004,306.6167781000004,306.6167781000004,,002,P020,2025_May_06_1648,ConditionRich,2021.2.3,59.94790527056727,
271.75,272.0,41,0.0,Stimuli/Blank.png,0,0,0.0,0,120,120,120,,,,,,,,,,,,,271.7717886999999,0.021788699999888195,None,310.37009449999823,310.37009449999823,310.37009449999823,310.37009449999823,310.37009449999823,310.37009449999823,310.37009449999823,310.37009449999823,310.37009449999823,310.37009449999823,,002,P020,2025_May_06_1648,ConditionRich,2021.2.3,59.94790527056727,
272.0,275.75,21,0.75,Stimuli/P020/things_anteater_10s.jpg,0,0,0.0,0,121,121,121,,,,,,,,,,,,,272.00585689999934,0.005856899999344023,None,310.62032610000097,310.62032610000097,310.62032610000097,310.62032610000097,310.62032610000097,310.62032610000097,310.62032610000097,310.62032610000097,310.62032610000097,310.62032610000097,,002,P020,2025_May_06_1648,ConditionRich,2021.2.3,59.94790527056727,
275.75,276.0,41,0.0,Stimuli/Blank.png,0,0,0.0,0,122,122,122,,,,,,,,,,,,,275.7755722999973,0.025572299997293158,None,314.3738587000007,314.3738587000007,314.3738587000007,314.3738587000007,314.3738587000007,314.3738587000007,314.3738587000007,314.3738587000007,314.3738587000007,314.3738587000007,,002,P020,2025_May_06_1648,ConditionRich,2021.2.3,59.94790527056727,
276.0,292.0,0,0.0,Stimuli/Blank.png,1,10,10.75,0,123,123,123,,,,,,,,,,,,,276.009322599999,0.009322599998995429,None,314.60720519999813,314.60720519999813,314.60720519999813,314.60720519999813,314.60720519999813,314.60720519999813,324.5994103000012,325.35004039999694,314.60720519999813,314.60720519999813,,002,P020,2025_May_06_1648,ConditionRich,2021.2.3,59.94790527056727,
292.0,295.75,39,0.75,Stimuli/P020/things_wire_10s.jpg,0,0,0.0,0,124,124,124,,,,,,,,,,,,,292.00954529999944,0.009545299999444978,None,330.6213671999976,330.6213671999976,330.6213671999976,330.6213671999976,330.6213671999976,330.6213671999976,330.6213671999976,330.6213671999976,330.6213671999976,330.6213671999976,,002,P020,2025_May_06_1648,ConditionRich,2021.2.3,59.94790527056727,
295.75,296.0,41,0.0,Stimuli/Blank.png,0,0,0.0,0,125,125,125,,,,,,,,,,,,,295.7766012999964,0.026601299996400485,None,334.37467449999895,334.37467449999895,334.37467449999895,334.37467449999895,334.37467449999895,334.37467449999895,334.37467449999895,334.37467449999895,334.37467449999895,334.37467449999895,,002,P020,2025_May_06_1648,ConditionRich,2021.2.3,59.94790527056727,
296.0,299.75,2,0.75,Stimuli/P020/sun_ajhvfwzgpfovdgid.jpg,1,0,0.75,0,126,126,126,,,,,,,,,,,,,296.0111471999953,0.011147199995320989,1,334.6249119000022,334.6249119000022,334.6249119000022,334.6249119000022,334.6249119000022,334.6249119000022,334.6249119000022,335.3421943999965,334.6249119000022,334.6249119000022,0.5187026999992668,002,P020,2025_May_06_1648,ConditionRich,2021.2.3,59.94790527056727,
299.75,300.0,41,0.0,Stimuli/Blank.png,0,0,0.0,0,127,127,127,,,,,,,,,,,,,299.7796111000025,0.029611100002512103,None,338.37822380000216,338.37822380000216,338.37822380000216,338.37822380000216,338.37822380000216,338.37822380000216,338.37822380000216,338.37822380000216,338.37822380000216,338.37822380000216,,002,P020,2025_May_06_1648,ConditionRich,2021.2.3,59.94790527056727,
300.0,303.75,30,0.75,Stimuli/P020/things_flip_flop_10s.jpg,0,0,0.0,0,128,128,128,,,,,,,,,,,,,300.0142132000001,0.014213200000085635,None,338.6284465000026,338.6284465000026,338.6284465000026,338.6284465000026,338.6284465000026,338.6284465000026,338.6284465000026,338.6284465000026,338.6284465000026,338.6284465000026,,002,P020,2025_May_06_1648,ConditionRich,2021.2.3,59.94790527056727,
303.75,304.0,41,0.0,Stimuli/Blank.png,0,0,0.0,0,129,129,129,,,,,,,,,,,,,303.76912329999686,0.019123299996863352,None,342.3818293999975,342.3818293999975,342.3818293999975,342.3818293999975,342.3818293999975,342.3818293999975,342.3818293999975,342.3818293999975,342.3818293999975,342.3818293999975,,002,P020,2025_May_06_1648,ConditionRich,2021.2.3,59.94790527056727,
304.0,307.75,28,0.75,Stimuli/P020/things_face_10s.jpg,0,0,0.0,0,130,130,130,,,,,,,,,,,,,304.0190235000009,0.019023500000912463,None,342.631986999997,342.631986999997,342.631986999997,342.631986999997,342.631986999997,342.631986999997,342.631986999997,342.631986999997,342.631986999997,342.631986999997,,002,P020,2025_May_06_1648,ConditionRich,2021.2.3,59.94790527056727,
307.75,308.0,41,0.0,Stimuli/Blank.png,0,0,0.0,0,131,131,131,,,,,,,,,,,,,307.77018150000004,0.020181500000035157,None,346.3686196000017,346.3686196000017,346.3686196000017,346.3686196000017,346.3686196000017,346.3686196000017,346.3686196000017,346.3686196000017,346.3686196000017,346.3686196000017,,002,P020,2025_May_06_1648,ConditionRich,2021.2.3,59.94790527056727,
308.0,311.75,14,0.75,Stimuli/P020/sun_birvagufpcschyrr.jpg,0,0,0.0,0,132,132,132,,,,,,,,,,,,,308.00387319999936,0.003873199999361532,None,346.60216639999635,346.60216639999635,346.60216639999635,346.60216639999635,346.60216639999635,346.60216639999635,346.60216639999635,346.60216639999635,346.60216639999635,346.60216639999635,,002,P020,2025_May_06_1648,ConditionRich,2021.2.3,59.94790527056727,
311.75,312.0,41,0.0,Stimuli/Blank.png,0,0,0.0,0,133,133,133,,,,,,,,,,,,,311.75914929999635,0.009149299996352056,None,350.3721700999995,350.3721700999995,350.3721700999995,350.3721700999995,350.3721700999995,350.3721700999995,350.3721700999995,350.3721700999995,350.3721700999995,350.3721700999995,,002,P020,2025_May_06_1648,ConditionRich,2021.2.3,59.94790527056727,
312.0,315.75,7,0.75,Stimuli/P020/sun_aqkbfuonyunmyqxb.jpg,0,0,0.0,0,134,134,134,,,,,,,,,,,,,312.0246001000014,0.024600100001407554,None,350.62292530000195,350.62292530000195,350.62292530000195,350.62292530000195,350.62292530000195,350.62292530000195,350.62292530000195,350.62292530000195,350.62292530000195,350.62292530000195,,002,P020,2025_May_06_1648,ConditionRich,2021.2.3,59.94790527056727,
315.75,316.0,41,0.0,Stimuli/Blank.png,0,0,0.0,0,135,135,135,,,,,,,,,,,,,315.7620440999999,0.01204409999991185,None,354.35903029999827,354.35903029999827,354.35903029999827,354.35903029999827,354.35903029999827,354.35903029999827,354.35903029999827,354.35903029999827,354.35903029999827,354.35903029999827,,002,P020,2025_May_06_1648,ConditionRich,2021.2.3,59.94790527056727,
316.0,319.75,13,0.75,Stimuli/P020/sun_bhzwrbdycbchqesq.jpg,0,0,0.0,0,136,136,136,,,,,,,,,,,,,316.0111638999988,0.011163899998791749,None,354.62592409999706,354.62592409999706,354.62592409999706,354.62592409999706,354.62592409999706,354.62592409999706,354.62592409999706,354.62592409999706,354.62592409999706,354.62592409999706,,002,P020,2025_May_06_1648,ConditionRich,2021.2.3,59.94790527056727,
319.75,320.0,41,0.0,Stimuli/Blank.png,0,0,0.0,0,137,137,137,,,,,,,,,,,,,319.78093230000013,0.030932300000131363,None,358.3793141000024,358.3793141000024,358.3793141000024,358.3793141000024,358.3793141000024,358.3793141000024,358.3793141000024,358.3793141000024,358.3793141000024,358.3793141000024,,002,P020,2025_May_06_1648,ConditionRich,2021.2.3,59.94790527056727,
320.0,323.75,33,0.75,Stimuli/P020/things_insole_10s.jpg,0,0,0.0,0,138,138,138,,,,,,,,,,,,,320.01438869999765,0.01438869999765302,None,358.61275899999964,358.61275899999964,358.61275899999964,358.61275899999964,358.61275899999964,358.61275899999964,358.61275899999964,358.61275899999964,358.61275899999964,358.61275899999964,,002,P020,2025_May_06_1648,ConditionRich,2021.2.3,59.94790527056727,
323.75,324.0,41,0.0,Stimuli/Blank.png,0,0,0.0,0,139,139,139,,,,,,,,,,,,,323.75129299999753,0.0012929999975312967,None,362.3494916000018,362.3494916000018,362.3494916000018,362.3494916000018,362.3494916000018,362.3494916000018,362.3494916000018,362.3494916000018,362.3494916000018,362.3494916000018,,002,P020,2025_May_06_1648,ConditionRich,2021.2.3,59.94790527056727,
324.0,327.75,31,0.75,Stimuli/P020/things_fudge_10s.jpg,0,0,0.0,0,140,140,140,,,,,,,,,,,,,324.0011357000003,0.001135700000304496,None,362.61634799999956,362.61634799999956,362.61634799999956,362.61634799999956,362.61634799999956,362.61634799999956,362.61634799999956,362.61634799999956,362.61634799999956,362.61634799999956,,002,P020,2025_May_06_1648,ConditionRich,2021.2.3,59.94790527056727,
327.75,328.0,41,0.0,Stimuli/Blank.png,0,0,0.0,0,141,141,141,,,,,,,,,,,,,327.7718857999971,0.021885799997107824,None,366.3696615999979,366.3696615999979,366.3696615999979,366.3696615999979,366.3696615999979,366.3696615999979,366.3696615999979,366.3696615999979,366.3696615999979,366.3696615999979,,002,P020,2025_May_06_1648,ConditionRich,2021.2.3,59.94790527056727,
328.0,331.75,32,0.75,Stimuli/P020/things_girl_10s.jpg,0,0,0.0,0,142,142,142,,,,,,,,,,,,,328.0046583999974,0.004658399997424567,None,366.60319430000163,366.60319430000163,366.60319430000163,366.60319430000163,366.60319430000163,366.60319430000163,366.60319430000163,366.60319430000163,366.60319430000163,366.60319430000163,,002,P020,2025_May_06_1648,ConditionRich,2021.2.3,59.94790527056727,
331.75,332.0,41,0.0,Stimuli/Blank.png,0,0,0.0,0,143,143,143,,,,,,,,,,,,,331.7587119999989,0.008711999998922693,None,370.3565157000012,370.3565157000012,370.3565157000012,370.3565157000012,370.3565157000012,370.3565157000012,370.3565157000012,370.3565157000012,370.3565157000012,370.3565157000012,,002,P020,2025_May_06_1648,ConditionRich,2021.2.3,59.94790527056727,
332.0,335.75,17,0.75,Stimuli/P020/sun_bltxkcclrpweopkl.jpg,0,0,0.0,0,144,144,144,,,,,,,,,,,,,332.00838229999863,0.008382299998629605,None,370.60673009999664,370.60673009999664,370.60673009999664,370.60673009999664,370.60673009999664,370.60673009999664,370.60673009999664,370.60673009999664,370.60673009999664,370.60673009999664,,002,P020,2025_May_06_1648,ConditionRich,2021.2.3,59.94790527056727,
335.75,336.0,41,0.0,Stimuli/Blank.png,0,0,0.0,0,145,145,145,,,,,,,,,,,,,335.7623480000002,0.012348000000201864,None,374.36005600000135,374.36005600000135,374.36005600000135,374.36005600000135,374.36005600000135,374.36005600000135,374.36005600000135,374.36005600000135,374.36005600000135,374.36005600000135,,002,P020,2025_May_06_1648,ConditionRich,2021.2.3,59.94790527056727,
336.0,339.75,1,0.75,Stimuli/P020/sun_aaaidwecchadbake.jpg,0,0,0.0,0,146,146,146,,,,,,,,,,,,,336.0140422000004,0.014042200000403682,None,374.62696420000066,374.62696420000066,374.62696420000066,374.62696420000066,374.62696420000066,374.62696420000066,374.62696420000066,374.62696420000066,374.62696420000066,374.62696420000066,,002,P020,2025_May_06_1648,ConditionRich,2021.2.3,59.94790527056727,
339.75,340.0,41,0.0,Stimuli/Blank.png,0,0,0.0,0,147,147,147,,,,,,,,,,,,,339.76516020000054,0.015160200000536861,None,378.3635966999973,378.3635966999973,378.3635966999973,378.3635966999973,378.3635966999973,378.3635966999973,378.3635966999973,378.3635966999973,378.3635966999973,378.3635966999973,,002,P020,2025_May_06_1648,ConditionRich,2021.2.3,59.94790527056727,
340.0,343.75,27,0.75,Stimuli/P020/things_eel_10s.jpg,0,0,0.0,0,148,148,148,,,,,,,,,,,,,340.0160550999972,0.016055099997174693,None,378.63051300000006,378.63051300000006,378.63051300000006,378.63051300000006,378.63051300000006,378.63051300000006,378.63051300000006,378.63051300000006,378.63051300000006,378.63051300000006,,002,P020,2025_May_06_1648,ConditionRich,2021.2.3,59.94790527056727,
343.75,344.0,41,0.0,Stimuli/Blank.png,0,0,0.0,0,149,149,149,,,,,,,,,,,,,343.76938609999706,0.019386099997063866,None,382.367151800001,382.367151800001,382.367151800001,382.367151800001,382.367151800001,382.367151800001,382.367151800001,382.367151800001,382.367151800001,382.367151800001,,002,P020,2025_May_06_1648,ConditionRich,2021.2.3,59.94790527056727,
344.0,347.75,25,0.75,Stimuli/P020/things_chime_10s.jpg,0,0,0.0,0,150,150,150,,,,,,,,,,,,,344.00529520000055,0.005295200000546174,None,382.61737170000197,382.61737170000197,382.61737170000197,382.61737170000197,382.61737170000197,382.61737170000197,382.61737170000197,382.61737170000197,382.61737170000197,382.61737170000197,,002,P020,2025_May_06_1648,ConditionRich,2021.2.3,59.94790527056727,
347.75,348.0,41,0.0,Stimuli/Blank.png,0,0,0.0,0,151,151,151,,,,,,,,,,,,,347.7748904,0.024890400000003865,None,386.387354100003,386.387354100003,386.387354100003,386.387354100003,386.387354100003,386.387354100003,386.387354100003,386.387354100003,386.387354100003,386.387354100003,,002,P020,2025_May_06_1648,ConditionRich,2021.2.3,59.94790527056727,
348.0,351.75,10,0.75,Stimuli/P020/sun_bblqhrudkospnbbv.jpg,0,0,0.0,0,152,152,152,,,,,,,,,,,,,348.02322490000006,0.02322490000005928,None,386.63757760000226,386.63757760000226,386.63757760000226,386.63757760000226,386.63757760000226,386.63757760000226,386.63757760000226,386.63757760000226,386.63757760000226,386.63757760000226,,002,P020,2025_May_06_1648,ConditionRich,2021.2.3,59.94790527056727,
351.75,352.0,41,0.0,Stimuli/Blank.png,0,0,0.0,0,153,153,153,,,,,,,,,,,,,351.7765290999996,0.026529099999606842,None,390.3742213999976,390.3742213999976,390.3742213999976,390.3742213999976,390.3742213999976,390.3742213999976,390.3742213999976,390.3742213999976,390.3742213999976,390.3742213999976,,002,P020,2025_May_06_1648,ConditionRich,2021.2.3,59.94790527056727,
352.0,355.75,22,0.75,Stimuli/P020/things_bead_10s.jpg,1,0,0.75,0,154,154,154,,,,,,,,,,,,,352.0102994000008,0.010299400000803871,1,390.62447189999875,390.62447189999875,390.62447189999875,390.62447189999875,390.62447189999875,390.62447189999875,390.62447189999875,391.3417569999983,390.62447189999875,390.62447189999875,0.4224285999953281,002,P020,2025_May_06_1648,ConditionRich,2021.2.3,59.94790527056727,
355.75,356.0,41,0.0,Stimuli/Blank.png,0,0,0.0,0,155,155,155,,,,,,,,,,,,,355.7795057000003,0.02950570000029984,None,394.3777710999966,394.3777710999966,394.3777710999966,394.3777710999966,394.3777710999966,394.3777710999966,394.3777710999966,394.3777710999966,394.3777710999966,394.3777710999966,,002,P020,2025_May_06_1648,ConditionRich,2021.2.3,59.94790527056727,
356.0,359.75,4,0.75,Stimuli/P020/sun_amixpbnrxiulfsri.jpg,0,0,0.0,0,156,156,156,,,,,,,,,,,,,356.0145076000008,0.014507600000797538,None,394.61130709999634,394.61130709999634,394.61130709999634,394.61130709999634,394.61130709999634,394.61130709999634,394.61130709999634,394.61130709999634,394.61130709999634,394.61130709999634,,002,P020,2025_May_06_1648,ConditionRich,2021.2.3,59.94790527056727,
359.75,360.0,41,0.0,Stimuli/Blank.png,0,0,0.0,0,157,157,157,,,,,,,,,,,,,359.7496323999985,-0.0003676000014820602,None,398.3479490999998,398.3479490999998,398.3479490999998,398.3479490999998,398.3479490999998,398.3479490999998,398.3479490999998,398.3479490999998,398.3479490999998,398.3479490999998,,002,P020,2025_May_06_1648,ConditionRich,2021.2.3,59.94790527056727,
360.0,363.75,16,0.75,Stimuli/P020/sun_blfpbbfyzmewzplm.jpg,1,3,3.75,0,158,158,158,,,,,,,,,,,,,360.0003353999964,0.00033539999640197493,1,398.5981742999975,398.5981742999975,398.5981742999975,398.5981742999975,398.5981742999975,398.5981742999975,401.58418670000174,402.3348461000023,398.5981742999975,398.5981742999975,3.384447700002056,002,P020,2025_May_06_1648,ConditionRich,2021.2.3,59.94790527056727,
363.75,364.0,41,0.0,Stimuli/Blank.png,0,0,0.0,0,159,159,159,,,,,,,,,,,,,363.75366530000247,0.00366530000246712,None,402.3515034999982,402.3515034999982,402.3515034999982,402.3515034999982,402.3515034999982,402.3515034999982,402.3515034999982,402.3515034999982,402.3515034999982,402.3515034999982,,002,P020,2025_May_06_1648,ConditionRich,2021.2.3,59.94790527056727,
364.0,367.75,15,0.75,Stimuli/P020/sun_bkubdnohuakmwcaj.jpg,1,3,3.75,0,160,160,160,,,,,,,,,,,,,364.0044573000014,0.004457300001377007,1,402.6184018000022,402.6184018000022,402.6184018000022,402.6184018000022,402.6184018000022,402.6184018000022,405.5876917000023,406.33839210000224,402.6184018000022,402.6184018000022,3.3551916999931564,002,P020,2025_May_06_1648,ConditionRich,2021.2.3,59.94790527056727,
367.75,368.0,41,0.0,Stimuli/Blank.png,0,0,0.0,0,161,161,161,,,,,,,,,,,,,367.77432749999934,0.024327499999344582,None,406.3717226999979,406.3717226999979,406.3717226999979,406.3717226999979,406.3717226999979,406.3717226999979,406.3717226999979,406.3717226999979,406.3717226999979,406.3717226999979,,002,P020,2025_May_06_1648,ConditionRich,2021.2.3,59.94790527056727,
368.0,371.75,6,0.75,Stimuli/P020/sun_amppcthpabgulbwl.jpg,0,0,0.0,0,162,162,162,,,,,,,,,,,,,368.0088203000014,0.008820300001389114,None,406.62190159999955,406.62190159999955,406.62190159999955,406.62190159999955,406.62190159999955,406.62190159999955,406.62190159999955,406.62190159999955,406.62190159999955,406.62190159999955,,002,P020,2025_May_06_1648,ConditionRich,2021.2.3,59.94790527056727,
371.75,372.0,41,0.0,Stimuli/Blank.png,0,0,0.0,0,163,163,163,,,,,,,,,,,,,371.77889230000073,0.028892300000734394,None,410.3919765999999,410.3919765999999,410.3919765999999,410.3919765999999,410.3919765999999,410.3919765999999,410.3919765999999,410.3919765999999,410.3919765999999,410.3919765999999,,002,P020,2025_May_06_1648,ConditionRich,2021.2.3,59.94790527056727,
372.0,388.0,0,0.0,Stimuli/Blank.png,1,5,5.75,0,164,164,164,,,,,,,,,,,,,372.02752529999634,0.027525299996341346,1,410.6254824000025,410.6254824000025,410.6254824000025,410.6254824000025,410.6254824000025,410.6254824000025,415.61327150000216,416.3639474999982,410.6254824000025,410.6254824000025,5.549294199998258,002,P020,2025_May_06_1648,ConditionRich,2021.2.3,59.94790527056727,
