eventStartTime,eventEndTime,eventCond,imSize,imFile,responseEvent,fixRespStart,fixRespEnd,Events.thisRepN,Events.thisTrialN,Events.thisN,Events.thisIndex,Instructions.started,Instructions.stopped,participantReadyResponse.keys,participantReadyResponse.rt,participantReadyResponse.started,participantReadyResponse.stopped,startWaitforTrigger,triggerResponse.keys,triggerResponse.rt,triggerResponse.started,triggerResponse.stopped,globalTimer,actualStartTime,startTimingDiff,participantResponse.keys,participantResponse.started,participantResponse.stopped,image.started,image.stopped,fixationOutside.started,fixationOutside.stopped,fixationResponse.started,fixationResponse.stopped,fixationInside.started,fixationInside.stopped,participantResponse.rt,session,participant,date,expName,psychopyVersion,frameRate,
,,,,,,,,,,,,10.403726199998346,None,1,12.181680400004552,10.403726199998346,None,,,,,,,,,,,,,,,,,,,,,004,P020,2025_May_06_1709,ConditionRich,2021.2.3,59.93288715126645,
,,,,,,,,,,,,,,,,,,22.595025599999644,5,15.089555200000177,22.607699300002423,None,,,,,,,,,,,,,,,,004,P020,2025_May_06_1709,ConditionRich,2021.2.3,59.93288715126645,
0.0,4.0,0,0.0,Stimuli/Blank.png,0,0,0.0,0,0,0,0,,,,,,,,,,,,37.70769850000215,0.047190799996315036,0.047190799996315036,None,37.771081400002004,None,37.771081400002004,None,37.771081400002004,None,37.771081400002004,37.771081400002004,37.771081400002004,None,,004,P020,2025_May_06_1709,ConditionRich,2021.2.3,59.93288715126645,
4.0,4.75,2,0.75,Stimuli/P020/sun_ajhvfwzgpfovdgid.jpg,0,0,0.0,0,1,1,1,,,,,,,,,,,,,4.003591199994844,0.003591199994843919,None,41.741606099996716,41.741606099996716,41.741606099996716,41.741606099996716,41.741606099996716,41.741606099996716,41.741606099996716,41.741606099996716,41.741606099996716,41.741606099996716,,004,P020,2025_May_06_1709,ConditionRich,2021.2.3,59.93288715126645,
4.75,5.0,41,0.0,Stimuli/Blank.png,0,0,0.0,0,2,2,2,,,,,,,,,,,,,4.771917199999734,0.021917199999734294,None,42.50893599999836,42.50893599999836,42.50893599999836,42.50893599999836,42.50893599999836,42.50893599999836,42.50893599999836,42.50893599999836,42.50893599999836,42.50893599999836,,004,P020,2025_May_06_1709,ConditionRich,2021.2.3,59.93288715126645,
5.0,5.75,2,0.75,Stimuli/P020/sun_ajhvfwzgpfovdgid.jpg,0,0,0.0,0,3,3,3,,,,,,,,,,,,,5.0226402999978745,0.022640299997874536,None,42.758845800002746,42.758845800002746,42.758845800002746,42.758845800002746,42.758845800002746,42.758845800002746,42.758845800002746,42.758845800002746,42.758845800002746,42.758845800002746,,004,P020,2025_May_06_1709,ConditionRich,2021.2.3,59.93288715126645,
5.75,6.0,41,0.0,Stimuli/Blank.png,0,0,0.0,0,4,4,4,,,,,,,,,,,,,5.772279400000116,0.022279400000115857,None,43.50952490000054,43.50952490000054,43.50952490000054,43.50952490000054,43.50952490000054,43.50952490000054,43.50952490000054,43.50952490000054,43.50952490000054,43.50952490000054,,004,P020,2025_May_06_1709,ConditionRich,2021.2.3,59.93288715126645,
6.0,6.75,2,0.75,Stimuli/P020/sun_ajhvfwzgpfovdgid.jpg,0,0,0.0,0,5,5,5,,,,,,,,,,,,,6.021625399996992,0.0216253999969922,None,43.74303050000162,43.74303050000162,43.74303050000162,43.74303050000162,43.74303050000162,43.74303050000162,43.74303050000162,43.74303050000162,43.74303050000162,43.74303050000162,,004,P020,2025_May_06_1709,ConditionRich,2021.2.3,59.93288715126645,
6.75,7.0,41,0.0,Stimuli/Blank.png,0,0,0.0,0,6,6,6,,,,,,,,,,,,,6.7555658999990555,0.005565899999055546,None,44.47702500000014,44.47702500000014,44.47702500000014,44.47702500000014,44.47702500000014,44.47702500000014,44.47702500000014,44.47702500000014,44.47702500000014,44.47702500000014,,004,P020,2025_May_06_1709,ConditionRich,2021.2.3,59.93288715126645,
7.0,7.75,2,0.75,Stimuli/P020/sun_ajhvfwzgpfovdgid.jpg,0,0,0.0,0,7,7,7,,,,,,,,,,,,,7.006969399997615,0.006969399997615255,None,44.743912799996906,44.743912799996906,44.743912799996906,44.743912799996906,44.743912799996906,44.743912799996906,44.743912799996906,44.743912799996906,44.743912799996906,44.743912799996906,,004,P020,2025_May_06_1709,ConditionRich,2021.2.3,59.93288715126645,
7.75,8.0,41,0.0,Stimuli/Blank.png,0,0,0.0,0,8,8,8,,,,,,,,,,,,,7.773146599996835,0.023146599996834993,None,45.494569700000284,45.494569700000284,45.494569700000284,45.494569700000284,45.494569700000284,45.494569700000284,45.494569700000284,45.494569700000284,45.494569700000284,45.494569700000284,,004,P020,2025_May_06_1709,ConditionRich,2021.2.3,59.93288715126645,
8.0,8.75,21,0.75,Stimuli/P020/things_anteater_10s.jpg,0,0,0.0,0,9,9,9,,,,,,,,,,,,,8.005891099994187,0.005891099994187243,None,45.72811180000281,45.72811180000281,45.72811180000281,45.72811180000281,45.72811180000281,45.72811180000281,45.72811180000281,45.72811180000281,45.72811180000281,45.72811180000281,,004,P020,2025_May_06_1709,ConditionRich,2021.2.3,59.93288715126645,
8.75,9.0,41,0.0,Stimuli/Blank.png,0,0,0.0,0,10,10,10,,,,,,,,,,,,,8.757346799997322,0.007346799997321796,None,46.47878430000128,46.47878430000128,46.47878430000128,46.47878430000128,46.47878430000128,46.47878430000128,46.47878430000128,46.47878430000128,46.47878430000128,46.47878430000128,,004,P020,2025_May_06_1709,ConditionRich,2021.2.3,59.93288715126645,
9.0,9.75,21,0.75,Stimuli/P020/things_anteater_10s.jpg,0,0,0.0,0,11,11,11,,,,,,,,,,,,,9.006812899999204,0.006812899999204092,None,46.728999300001306,46.728999300001306,46.728999300001306,46.728999300001306,46.728999300001306,46.728999300001306,46.728999300001306,46.728999300001306,46.728999300001306,46.728999300001306,,004,P020,2025_May_06_1709,ConditionRich,2021.2.3,59.93288715126645,
9.75,10.0,41,0.0,Stimuli/Blank.png,0,0,0.0,0,12,12,12,,,,,,,,,,,,,9.758044999995036,0.00804499999503605,None,47.48040369999944,47.48040369999944,47.48040369999944,47.48040369999944,47.48040369999944,47.48040369999944,47.48040369999944,47.48040369999944,47.48040369999944,47.48040369999944,,004,P020,2025_May_06_1709,ConditionRich,2021.2.3,59.93288715126645,
10.0,10.75,21,0.75,Stimuli/P020/things_anteater_10s.jpg,0,0,0.0,0,13,13,13,,,,,,,,,,,,,10.008593899998232,0.008593899998231791,None,47.72991739999998,47.72991739999998,47.72991739999998,47.72991739999998,47.72991739999998,47.72991739999998,47.72991739999998,47.72991739999998,47.72991739999998,47.72991739999998,,004,P020,2025_May_06_1709,ConditionRich,2021.2.3,59.93288715126645,
10.75,11.0,41,0.0,Stimuli/Blank.png,0,0,0.0,0,14,14,14,,,,,,,,,,,,,10.758468100000755,0.00846810000075493,None,48.480543300000136,48.480543300000136,48.480543300000136,48.480543300000136,48.480543300000136,48.480543300000136,48.480543300000136,48.480543300000136,48.480543300000136,48.480543300000136,,004,P020,2025_May_06_1709,ConditionRich,2021.2.3,59.93288715126645,
11.0,11.75,21,0.75,Stimuli/P020/things_anteater_10s.jpg,1,0,0.75,0,15,15,15,,,,,,,,,,,,,11.009290599999076,0.009290599999076221,1,48.74745200000325,48.74745200000325,48.74745200000325,48.74745200000325,48.74745200000325,48.74745200000325,48.74745200000325,49.464742500000284,48.74745200000325,48.74745200000325,0.3799291000032099,004,P020,2025_May_06_1709,ConditionRich,2021.2.3,59.93288715126645,
11.75,12.0,41,0.0,Stimuli/Blank.png,0,0,0.0,0,16,16,16,,,,,,,,,,,,,11.776018500000646,0.026018500000645872,None,49.49812859999656,49.49812859999656,49.49812859999656,49.49812859999656,49.49812859999656,49.49812859999656,49.49812859999656,49.49812859999656,49.49812859999656,49.49812859999656,,004,P020,2025_May_06_1709,ConditionRich,2021.2.3,59.93288715126645,
12.0,12.75,10,0.75,Stimuli/P020/sun_bblqhrudkospnbbv.jpg,0,0,0.0,0,17,17,17,,,,,,,,,,,,,12.010552699997788,0.010552699997788295,None,49.73165149999841,49.73165149999841,49.73165149999841,49.73165149999841,49.73165149999841,49.73165149999841,49.73165149999841,49.73165149999841,49.73165149999841,49.73165149999841,,004,P020,2025_May_06_1709,ConditionRich,2021.2.3,59.93288715126645,
12.75,13.0,41,0.0,Stimuli/Blank.png,0,0,0.0,0,18,18,18,,,,,,,,,,,,,12.762847899997723,0.012847899997723289,None,50.49900909999997,50.49900909999997,50.49900909999997,50.49900909999997,50.49900909999997,50.49900909999997,50.49900909999997,50.49900909999997,50.49900909999997,50.49900909999997,,004,P020,2025_May_06_1709,ConditionRich,2021.2.3,59.93288715126645,
13.0,13.75,10,0.75,Stimuli/P020/sun_bblqhrudkospnbbv.jpg,0,0,0.0,0,19,19,19,,,,,,,,,,,,,13.027046099996369,0.027046099996368866,None,50.749217299999145,50.749217299999145,50.749217299999145,50.749217299999145,50.749217299999145,50.749217299999145,50.749217299999145,50.749217299999145,50.749217299999145,50.749217299999145,,004,P020,2025_May_06_1709,ConditionRich,2021.2.3,59.93288715126645,
13.75,14.0,41,0.0,Stimuli/Blank.png,0,0,0.0,0,20,20,20,,,,,,,,,,,,,13.761036399999284,0.011036399999284185,None,51.48321020000003,51.48321020000003,51.48321020000003,51.48321020000003,51.48321020000003,51.48321020000003,51.48321020000003,51.48321020000003,51.48321020000003,51.48321020000003,,004,P020,2025_May_06_1709,ConditionRich,2021.2.3,59.93288715126645,
14.0,14.75,10,0.75,Stimuli/P020/sun_bblqhrudkospnbbv.jpg,0,0,0.0,0,21,21,21,,,,,,,,,,,,,14.013306000000739,0.013306000000739004,None,51.75011660000018,51.75011660000018,51.75011660000018,51.75011660000018,51.75011660000018,51.75011660000018,51.75011660000018,51.75011660000018,51.75011660000018,51.75011660000018,,004,P020,2025_May_06_1709,ConditionRich,2021.2.3,59.93288715126645,
14.75,15.0,41,0.0,Stimuli/Blank.png,0,0,0.0,0,22,22,22,,,,,,,,,,,,,14.779226299993752,0.029226299993752036,None,52.50076550000085,52.50076550000085,52.50076550000085,52.50076550000085,52.50076550000085,52.50076550000085,52.50076550000085,52.50076550000085,52.50076550000085,52.50076550000085,,004,P020,2025_May_06_1709,ConditionRich,2021.2.3,59.93288715126645,
15.0,15.75,10,0.75,Stimuli/P020/sun_bblqhrudkospnbbv.jpg,0,0,0.0,0,23,23,23,,,,,,,,,,,,,15.011973599997873,0.011973599997872952,None,52.73431569999957,52.73431569999957,52.73431569999957,52.73431569999957,52.73431569999957,52.73431569999957,52.73431569999957,52.73431569999957,52.73431569999957,52.73431569999957,,004,P020,2025_May_06_1709,ConditionRich,2021.2.3,59.93288715126645,
15.75,16.0,41,0.0,Stimuli/Blank.png,0,0,0.0,0,24,24,24,,,,,,,,,,,,,15.763452200000756,0.01345220000075642,None,53.48497189999762,53.48497189999762,53.48497189999762,53.48497189999762,53.48497189999762,53.48497189999762,53.48497189999762,53.48497189999762,53.48497189999762,53.48497189999762,,004,P020,2025_May_06_1709,ConditionRich,2021.2.3,59.93288715126645,
16.0,16.75,11,0.75,Stimuli/P020/sun_bcbfjkoziukwmdkd.jpg,0,0,0.0,0,25,25,25,,,,,,,,,,,,,16.013079799995467,0.013079799995466601,None,53.7352058999968,53.7352058999968,53.7352058999968,53.7352058999968,53.7352058999968,53.7352058999968,53.7352058999968,53.7352058999968,53.7352058999968,53.7352058999968,,004,P020,2025_May_06_1709,ConditionRich,2021.2.3,59.93288715126645,
16.75,17.0,41,0.0,Stimuli/Blank.png,0,0,0.0,0,26,26,26,,,,,,,,,,,,,16.76401939999778,0.014019399997778237,None,54.48586179999984,54.48586179999984,54.48586179999984,54.48586179999984,54.48586179999984,54.48586179999984,54.48586179999984,54.48586179999984,54.48586179999984,54.48586179999984,,004,P020,2025_May_06_1709,ConditionRich,2021.2.3,59.93288715126645,
17.0,17.75,11,0.75,Stimuli/P020/sun_bcbfjkoziukwmdkd.jpg,0,0,0.0,0,27,27,27,,,,,,,,,,,,,17.01518539999961,0.015185399999609217,None,54.75276119999762,54.75276119999762,54.75276119999762,54.75276119999762,54.75276119999762,54.75276119999762,54.75276119999762,54.75276119999762,54.75276119999762,54.75276119999762,,004,P020,2025_May_06_1709,ConditionRich,2021.2.3,59.93288715126645,
17.75,18.0,41,0.0,Stimuli/Blank.png,0,0,0.0,0,28,28,28,,,,,,,,,,,,,17.76669459999539,0.01669459999538958,None,55.50342939999973,55.50342939999973,55.50342939999973,55.50342939999973,55.50342939999973,55.50342939999973,55.50342939999973,55.50342939999973,55.50342939999973,55.50342939999973,,004,P020,2025_May_06_1709,ConditionRich,2021.2.3,59.93288715126645,
18.0,18.75,11,0.75,Stimuli/P020/sun_bcbfjkoziukwmdkd.jpg,0,0,0.0,0,29,29,29,,,,,,,,,,,,,18.014675699996587,0.014675699996587355,None,55.75368100000196,55.75368100000196,55.75368100000196,55.75368100000196,55.75368100000196,55.75368100000196,55.75368100000196,55.75368100000196,55.75368100000196,55.75368100000196,,004,P020,2025_May_06_1709,ConditionRich,2021.2.3,59.93288715126645,
18.75,19.0,41,0.0,Stimuli/Blank.png,0,0,0.0,0,30,30,30,,,,,,,,,,,,,18.782648199994583,0.03264819999458268,None,56.504318400002376,56.504318400002376,56.504318400002376,56.504318400002376,56.504318400002376,56.504318400002376,56.504318400002376,56.504318400002376,56.504318400002376,56.504318400002376,,004,P020,2025_May_06_1709,ConditionRich,2021.2.3,59.93288715126645,
19.0,19.75,11,0.75,Stimuli/P020/sun_bcbfjkoziukwmdkd.jpg,0,0,0.0,0,31,31,31,,,,,,,,,,,,,18.999763100000564,-0.00023689999943599105,None,56.72117309999885,56.72117309999885,56.72117309999885,56.72117309999885,56.72117309999885,56.72117309999885,56.72117309999885,56.72117309999885,56.72117309999885,56.72117309999885,,004,P020,2025_May_06_1709,ConditionRich,2021.2.3,59.93288715126645,
19.75,20.0,41,0.0,Stimuli/Blank.png,0,0,0.0,0,32,32,32,,,,,,,,,,,,,19.75164439999935,0.0016443999993498437,None,57.47187329999724,57.47187329999724,57.47187329999724,57.47187329999724,57.47187329999724,57.47187329999724,57.47187329999724,57.47187329999724,57.47187329999724,57.47187329999724,,004,P020,2025_May_06_1709,ConditionRich,2021.2.3,59.93288715126645,
20.0,20.75,39,0.75,Stimuli/P020/things_wire_10s.jpg,0,0,0.0,0,33,33,33,,,,,,,,,,,,,20.00096059999487,0.0009605999948689714,None,57.73874739999883,57.73874739999883,57.73874739999883,57.73874739999883,57.73874739999883,57.73874739999883,57.73874739999883,57.73874739999883,57.73874739999883,57.73874739999883,,004,P020,2025_May_06_1709,ConditionRich,2021.2.3,59.93288715126645,
20.75,21.0,41,0.0,Stimuli/Blank.png,0,0,0.0,0,34,34,34,,,,,,,,,,,,,20.767730399995344,0.01773039999534376,None,58.48940240000229,58.48940240000229,58.48940240000229,58.48940240000229,58.48940240000229,58.48940240000229,58.48940240000229,58.48940240000229,58.48940240000229,58.48940240000229,,004,P020,2025_May_06_1709,ConditionRich,2021.2.3,59.93288715126645,
21.0,21.75,39,0.75,Stimuli/P020/things_wire_10s.jpg,0,0,0.0,0,35,35,35,,,,,,,,,,,,,21.00129079999897,0.0012907999989693053,None,58.739662499996484,58.739662499996484,58.739662499996484,58.739662499996484,58.739662499996484,58.739662499996484,58.739662499996484,58.739662499996484,58.739662499996484,58.739662499996484,,004,P020,2025_May_06_1709,ConditionRich,2021.2.3,59.93288715126645,
21.75,22.0,41,0.0,Stimuli/Blank.png,0,0,0.0,0,36,36,36,,,,,,,,,,,,,21.768111799996404,0.018111799996404443,None,59.49028869999893,59.49028869999893,59.49028869999893,59.49028869999893,59.49028869999893,59.49028869999893,59.49028869999893,59.49028869999893,59.49028869999893,59.49028869999893,,004,P020,2025_May_06_1709,ConditionRich,2021.2.3,59.93288715126645,
22.0,22.75,39,0.75,Stimuli/P020/things_wire_10s.jpg,0,0,0.0,0,37,37,37,,,,,,,,,,,,,22.002393999995547,0.0023939999955473468,None,59.74051760000293,59.74051760000293,59.74051760000293,59.74051760000293,59.74051760000293,59.74051760000293,59.74051760000293,59.74051760000293,59.74051760000293,59.74051760000293,,004,P020,2025_May_06_1709,ConditionRich,2021.2.3,59.93288715126645,
22.75,23.0,41,0.0,Stimuli/Blank.png,0,0,0.0,0,38,38,38,,,,,,,,,,,,,22.772400699999707,0.022400699999707285,None,60.50788599999942,60.50788599999942,60.50788599999942,60.50788599999942,60.50788599999942,60.50788599999942,60.50788599999942,60.50788599999942,60.50788599999942,60.50788599999942,,004,P020,2025_May_06_1709,ConditionRich,2021.2.3,59.93288715126645,
23.0,23.75,39,0.75,Stimuli/P020/things_wire_10s.jpg,0,0,0.0,0,39,39,39,,,,,,,,,,,,,23.0193014999968,0.019301499996799976,None,60.75808880000113,60.75808880000113,60.75808880000113,60.75808880000113,60.75808880000113,60.75808880000113,60.75808880000113,60.75808880000113,60.75808880000113,60.75808880000113,,004,P020,2025_May_06_1709,ConditionRich,2021.2.3,59.93288715126645,
23.75,24.0,41,0.0,Stimuli/Blank.png,0,0,0.0,0,40,40,40,,,,,,,,,,,,,23.7720319,0.02203190000000177,None,61.50875510000333,61.50875510000333,61.50875510000333,61.50875510000333,61.50875510000333,61.50875510000333,61.50875510000333,61.50875510000333,61.50875510000333,61.50875510000333,,004,P020,2025_May_06_1709,ConditionRich,2021.2.3,59.93288715126645,
24.0,24.75,24,0.75,Stimuli/P020/things_bulletin_board_10s.jpg,1,0,0.75,0,41,41,41,,,,,,,,,,,,,24.023116199998185,0.02311619999818504,1,61.758972900002846,61.758972900002846,61.758972900002846,61.758972900002846,61.758972900002846,61.758972900002846,61.758972900002846,None,61.758972900002846,61.758972900002846,0.43131500000163214,004,P020,2025_May_06_1709,ConditionRich,2021.2.3,59.93288715126645,
24.75,25.0,41,0.0,Stimuli/Blank.png,0,0,0.0,0,42,42,42,,,,,,,,,,,,,24.77120859999559,0.021208599995588884,None,62.49295079999865,62.49295079999865,62.49295079999865,62.49295079999865,62.49295079999865,62.49295079999865,62.49295079999865,62.49295079999865,62.49295079999865,62.49295079999865,,004,P020,2025_May_06_1709,ConditionRich,2021.2.3,59.93288715126645,
25.0,25.75,24,0.75,Stimuli/P020/things_bulletin_board_10s.jpg,0,0,0.0,0,43,43,43,,,,,,,,,,,,,25.00793859999976,0.007938599999761209,None,62.743176299998595,62.743176299998595,62.743176299998595,62.743176299998595,62.743176299998595,62.743176299998595,62.743176299998595,62.743176299998595,62.743176299998595,62.743176299998595,,004,P020,2025_May_06_1709,ConditionRich,2021.2.3,59.93288715126645,
25.75,26.0,41,0.0,Stimuli/Blank.png,0,0,0.0,0,44,44,44,,,,,,,,,,,,,25.77315959999396,0.02315959999396,None,63.51053200000024,63.51053200000024,63.51053200000024,63.51053200000024,63.51053200000024,63.51053200000024,63.51053200000024,63.51053200000024,63.51053200000024,63.51053200000024,,004,P020,2025_May_06_1709,ConditionRich,2021.2.3,59.93288715126645,
26.0,26.75,24,0.75,Stimuli/P020/things_bulletin_board_10s.jpg,0,0,0.0,0,45,45,45,,,,,,,,,,,,,26.02309659999446,0.02309659999446012,None,63.76075480000145,63.76075480000145,63.76075480000145,63.76075480000145,63.76075480000145,63.76075480000145,63.76075480000145,63.76075480000145,63.76075480000145,63.76075480000145,,004,P020,2025_May_06_1709,ConditionRich,2021.2.3,59.93288715126645,
26.75,27.0,41,0.0,Stimuli/Blank.png,0,0,0.0,0,46,46,46,,,,,,,,,,,,,26.773108800000045,0.02310880000004545,None,64.49472860000242,64.49472860000242,64.49472860000242,64.49472860000242,64.49472860000242,64.49472860000242,64.49472860000242,64.49472860000242,64.49472860000242,64.49472860000242,,004,P020,2025_May_06_1709,ConditionRich,2021.2.3,59.93288715126645,
27.0,27.75,24,0.75,Stimuli/P020/things_bulletin_board_10s.jpg,0,0,0.0,0,47,47,47,,,,,,,,,,,,,27.006728399996064,0.006728399996063672,None,64.72826019999775,64.72826019999775,64.72826019999775,64.72826019999775,64.72826019999775,64.72826019999775,64.72826019999775,64.72826019999775,64.72826019999775,64.72826019999775,,004,P020,2025_May_06_1709,ConditionRich,2021.2.3,59.93288715126645,
27.75,28.0,41,0.0,Stimuli/Blank.png,0,0,0.0,0,48,48,48,,,,,,,,,,,,,27.75772529999813,0.007725299998128321,None,65.47903629999928,65.47903629999928,65.47903629999928,65.47903629999928,65.47903629999928,65.47903629999928,65.47903629999928,65.47903629999928,65.47903629999928,65.47903629999928,,004,P020,2025_May_06_1709,ConditionRich,2021.2.3,59.93288715126645,
28.0,28.75,23,0.75,Stimuli/P020/things_boy_10s.jpg,0,0,0.0,0,49,49,49,,,,,,,,,,,,,28.007008000000496,0.007008000000496395,None,65.72930330000236,65.72930330000236,65.72930330000236,65.72930330000236,65.72930330000236,65.72930330000236,65.72930330000236,65.72930330000236,65.72930330000236,65.72930330000236,,004,P020,2025_May_06_1709,ConditionRich,2021.2.3,59.93288715126645,
28.75,29.0,41,0.0,Stimuli/Blank.png,0,0,0.0,0,50,50,50,,,,,,,,,,,,,28.75749349999387,0.0074934999938705005,None,66.47980800000369,66.47980800000369,66.47980800000369,66.47980800000369,66.47980800000369,66.47980800000369,66.47980800000369,66.47980800000369,66.47980800000369,66.47980800000369,,004,P020,2025_May_06_1709,ConditionRich,2021.2.3,59.93288715126645,
29.0,29.75,23,0.75,Stimuli/P020/things_boy_10s.jpg,0,0,0.0,0,51,51,51,,,,,,,,,,,,,29.007900899996457,0.007900899996457156,None,66.73003359999711,66.73003359999711,66.73003359999711,66.73003359999711,66.73003359999711,66.73003359999711,66.73003359999711,66.73003359999711,66.73003359999711,66.73003359999711,,004,P020,2025_May_06_1709,ConditionRich,2021.2.3,59.93288715126645,
29.75,30.0,41,0.0,Stimuli/Blank.png,0,0,0.0,0,52,52,52,,,,,,,,,,,,,29.75914219999686,0.009142199996858835,None,67.4807753999994,67.4807753999994,67.4807753999994,67.4807753999994,67.4807753999994,67.4807753999994,67.4807753999994,67.4807753999994,67.4807753999994,67.4807753999994,,004,P020,2025_May_06_1709,ConditionRich,2021.2.3,59.93288715126645,
30.0,30.75,23,0.75,Stimuli/P020/things_boy_10s.jpg,0,0,0.0,0,53,53,53,,,,,,,,,,,,,30.01156869999977,0.011568699999770615,None,67.74760180000158,67.74760180000158,67.74760180000158,67.74760180000158,67.74760180000158,67.74760180000158,67.74760180000158,67.74760180000158,67.74760180000158,67.74760180000158,,004,P020,2025_May_06_1709,ConditionRich,2021.2.3,59.93288715126645,
30.75,31.0,41,0.0,Stimuli/Blank.png,0,0,0.0,0,54,54,54,,,,,,,,,,,,,30.7765905999986,0.02659059999859892,None,68.49831999999878,68.49831999999878,68.49831999999878,68.49831999999878,68.49831999999878,68.49831999999878,68.49831999999878,68.49831999999878,68.49831999999878,68.49831999999878,,004,P020,2025_May_06_1709,ConditionRich,2021.2.3,59.93288715126645,
31.0,31.75,23,0.75,Stimuli/P020/things_boy_10s.jpg,0,0,0.0,0,55,55,55,,,,,,,,,,,,,31.012131299998146,0.01213129999814555,None,68.74848860000202,68.74848860000202,68.74848860000202,68.74848860000202,68.74848860000202,68.74848860000202,68.74848860000202,68.74848860000202,68.74848860000202,68.74848860000202,,004,P020,2025_May_06_1709,ConditionRich,2021.2.3,59.93288715126645,
31.75,32.0,41,0.0,Stimuli/Blank.png,0,0,0.0,0,56,56,56,,,,,,,,,,,,,31.777449199995317,0.02744919999531703,None,69.49915229999897,69.49915229999897,69.49915229999897,69.49915229999897,69.49915229999897,69.49915229999897,69.49915229999897,69.49915229999897,69.49915229999897,69.49915229999897,,004,P020,2025_May_06_1709,ConditionRich,2021.2.3,59.93288715126645,
32.0,32.75,12,0.75,Stimuli/P020/sun_bgjrtiivbwugxhxp.jpg,0,0,0.0,0,57,57,57,,,,,,,,,,,,,32.011188099997526,0.011188099997525569,None,69.73268500000268,69.73268500000268,69.73268500000268,69.73268500000268,69.73268500000268,69.73268500000268,69.73268500000268,69.73268500000268,69.73268500000268,69.73268500000268,,004,P020,2025_May_06_1709,ConditionRich,2021.2.3,59.93288715126645,
32.75,33.0,41,0.0,Stimuli/Blank.png,0,0,0.0,0,58,58,58,,,,,,,,,,,,,32.76155479999579,0.011554799995792564,None,70.48334710000199,70.48334710000199,70.48334710000199,70.48334710000199,70.48334710000199,70.48334710000199,70.48334710000199,70.48334710000199,70.48334710000199,70.48334710000199,,004,P020,2025_May_06_1709,ConditionRich,2021.2.3,59.93288715126645,
33.0,33.75,12,0.75,Stimuli/P020/sun_bgjrtiivbwugxhxp.jpg,0,0,0.0,0,59,59,59,,,,,,,,,,,,,33.011938899995585,0.011938899995584507,None,70.73356860000058,70.73356860000058,70.73356860000058,70.73356860000058,70.73356860000058,70.73356860000058,70.73356860000058,70.73356860000058,70.73356860000058,70.73356860000058,,004,P020,2025_May_06_1709,ConditionRich,2021.2.3,59.93288715126645,
33.75,34.0,41,0.0,Stimuli/Blank.png,0,0,0.0,0,60,60,60,,,,,,,,,,,,,33.76274719999492,0.012747199994919356,None,71.48422869999922,71.48422869999922,71.48422869999922,71.48422869999922,71.48422869999922,71.48422869999922,71.48422869999922,71.48422869999922,71.48422869999922,71.48422869999922,,004,P020,2025_May_06_1709,ConditionRich,2021.2.3,59.93288715126645,
34.0,34.75,12,0.75,Stimuli/P020/sun_bgjrtiivbwugxhxp.jpg,0,0,0.0,0,61,61,61,,,,,,,,,,,,,34.012868699996034,0.012868699996033683,None,71.7511572000003,71.7511572000003,71.7511572000003,71.7511572000003,71.7511572000003,71.7511572000003,71.7511572000003,71.7511572000003,71.7511572000003,71.7511572000003,,004,P020,2025_May_06_1709,ConditionRich,2021.2.3,59.93288715126645,
34.75,35.0,41,0.0,Stimuli/Blank.png,0,0,0.0,0,62,62,62,,,,,,,,,,,,,34.78149879999546,0.03149879999546101,None,72.51849039999797,72.51849039999797,72.51849039999797,72.51849039999797,72.51849039999797,72.51849039999797,72.51849039999797,72.51849039999797,72.51849039999797,72.51849039999797,,004,P020,2025_May_06_1709,ConditionRich,2021.2.3,59.93288715126645,
35.0,35.75,12,0.75,Stimuli/P020/sun_bgjrtiivbwugxhxp.jpg,0,0,0.0,0,63,63,63,,,,,,,,,,,,,35.03185569999914,0.03185569999914151,None,72.76870909999707,72.76870909999707,72.76870909999707,72.76870909999707,72.76870909999707,72.76870909999707,72.76870909999707,72.76870909999707,72.76870909999707,72.76870909999707,,004,P020,2025_May_06_1709,ConditionRich,2021.2.3,59.93288715126645,
35.75,36.0,41,0.0,Stimuli/Blank.png,0,0,0.0,0,64,64,64,,,,,,,,,,,,,35.766824799997266,0.016824799997266382,None,73.5026985000004,73.5026985000004,73.5026985000004,73.5026985000004,73.5026985000004,73.5026985000004,73.5026985000004,73.5026985000004,73.5026985000004,73.5026985000004,,004,P020,2025_May_06_1709,ConditionRich,2021.2.3,59.93288715126645,
36.0,36.75,34,0.75,Stimuli/P020/things_man_10s.jpg,0,0,0.0,0,65,65,65,,,,,,,,,,,,,36.01653769999393,0.01653769999393262,None,73.75291390000348,73.75291390000348,73.75291390000348,73.75291390000348,73.75291390000348,73.75291390000348,73.75291390000348,73.75291390000348,73.75291390000348,73.75291390000348,,004,P020,2025_May_06_1709,ConditionRich,2021.2.3,59.93288715126645,
36.75,37.0,41,0.0,Stimuli/Blank.png,0,0,0.0,0,66,66,66,,,,,,,,,,,,,36.76729129999876,0.017291299998760223,None,74.50358360000246,74.50358360000246,74.50358360000246,74.50358360000246,74.50358360000246,74.50358360000246,74.50358360000246,74.50358360000246,74.50358360000246,74.50358360000246,,004,P020,2025_May_06_1709,ConditionRich,2021.2.3,59.93288715126645,
37.0,37.75,34,0.75,Stimuli/P020/things_man_10s.jpg,0,0,0.0,0,67,67,67,,,,,,,,,,,,,37.01800669999648,0.018006699996476527,None,74.75380230000155,74.75380230000155,74.75380230000155,74.75380230000155,74.75380230000155,74.75380230000155,74.75380230000155,74.75380230000155,74.75380230000155,74.75380230000155,,004,P020,2025_May_06_1709,ConditionRich,2021.2.3,59.93288715126645,
37.75,38.0,41,0.0,Stimuli/Blank.png,0,0,0.0,0,68,68,68,,,,,,,,,,,,,37.76620980000007,0.016209800000069663,None,75.48779099999956,75.48779099999956,75.48779099999956,75.48779099999956,75.48779099999956,75.48779099999956,75.48779099999956,75.48779099999956,75.48779099999956,75.48779099999956,,004,P020,2025_May_06_1709,ConditionRich,2021.2.3,59.93288715126645,
38.0,38.75,34,0.75,Stimuli/P020/things_man_10s.jpg,0,0,0.0,0,69,69,69,,,,,,,,,,,,,37.99905249999574,-0.0009475000042584725,None,75.72131459999946,75.72131459999946,75.72131459999946,75.72131459999946,75.72131459999946,75.72131459999946,75.72131459999946,75.72131459999946,75.72131459999946,75.72131459999946,,004,P020,2025_May_06_1709,ConditionRich,2021.2.3,59.93288715126645,
38.75,39.0,41,0.0,Stimuli/Blank.png,0,0,0.0,0,70,70,70,,,,,,,,,,,,,38.75184449999506,0.001844499995058868,None,76.48867389999941,76.48867389999941,76.48867389999941,76.48867389999941,76.48867389999941,76.48867389999941,76.48867389999941,76.48867389999941,76.48867389999941,76.48867389999941,,004,P020,2025_May_06_1709,ConditionRich,2021.2.3,59.93288715126645,
39.0,39.75,34,0.75,Stimuli/P020/things_man_10s.jpg,0,0,0.0,0,71,71,71,,,,,,,,,,,,,39.01698609999585,0.016986099995847326,None,76.73888969999825,76.73888969999825,76.73888969999825,76.73888969999825,76.73888969999825,76.73888969999825,76.73888969999825,76.73888969999825,76.73888969999825,76.73888969999825,,004,P020,2025_May_06_1709,ConditionRich,2021.2.3,59.93288715126645,
39.75,40.0,41,0.0,Stimuli/Blank.png,0,0,0.0,0,72,72,72,,,,,,,,,,,,,39.751653599996644,0.0016535999966436066,None,77.47288429999753,77.47288429999753,77.47288429999753,77.47288429999753,77.47288429999753,77.47288429999753,77.47288429999753,77.47288429999753,77.47288429999753,77.47288429999753,,004,P020,2025_May_06_1709,ConditionRich,2021.2.3,59.93288715126645,
40.0,40.75,3,0.75,Stimuli/P020/sun_aknrkswonrogcooi.jpg,0,0,0.0,0,73,73,73,,,,,,,,,,,,,40.00172929999826,0.0017292999982601032,None,77.7397953000036,77.7397953000036,77.7397953000036,77.7397953000036,77.7397953000036,77.7397953000036,77.7397953000036,77.7397953000036,77.7397953000036,77.7397953000036,,004,P020,2025_May_06_1709,ConditionRich,2021.2.3,59.93288715126645,
40.75,41.0,41,0.0,Stimuli/Blank.png,0,0,0.0,0,74,74,74,,,,,,,,,,,,,40.76809009999852,0.018090099998516962,None,78.4904366999981,78.4904366999981,78.4904366999981,78.4904366999981,78.4904366999981,78.4904366999981,78.4904366999981,78.4904366999981,78.4904366999981,78.4904366999981,,004,P020,2025_May_06_1709,ConditionRich,2021.2.3,59.93288715126645,
41.0,41.75,3,0.75,Stimuli/P020/sun_aknrkswonrogcooi.jpg,0,0,0.0,0,75,75,75,,,,,,,,,,,,,41.00281559999712,0.0028155999971204437,None,78.74067210000067,78.74067210000067,78.74067210000067,78.74067210000067,78.74067210000067,78.74067210000067,78.74067210000067,78.74067210000067,78.74067210000067,78.74067210000067,,004,P020,2025_May_06_1709,ConditionRich,2021.2.3,59.93288715126645,
41.75,42.0,41,0.0,Stimuli/Blank.png,0,0,0.0,0,76,76,76,,,,,,,,,,,,,41.77151619999495,0.021516199994948693,None,79.50801330000104,79.50801330000104,79.50801330000104,79.50801330000104,79.50801330000104,79.50801330000104,79.50801330000104,79.50801330000104,79.50801330000104,79.50801330000104,,004,P020,2025_May_06_1709,ConditionRich,2021.2.3,59.93288715126645,
42.0,42.75,3,0.75,Stimuli/P020/sun_aknrkswonrogcooi.jpg,0,0,0.0,0,77,77,77,,,,,,,,,,,,,42.02248339999642,0.022483399996417575,None,79.75822830000106,79.75822830000106,79.75822830000106,79.75822830000106,79.75822830000106,79.75822830000106,79.75822830000106,79.75822830000106,79.75822830000106,79.75822830000106,,004,P020,2025_May_06_1709,ConditionRich,2021.2.3,59.93288715126645,
42.75,43.0,41,0.0,Stimuli/Blank.png,0,0,0.0,0,78,78,78,,,,,,,,,,,,,42.771981699996104,0.021981699996104,None,80.50891950000369,80.50891950000369,80.50891950000369,80.50891950000369,80.50891950000369,80.50891950000369,80.50891950000369,80.50891950000369,80.50891950000369,80.50891950000369,,004,P020,2025_May_06_1709,ConditionRich,2021.2.3,59.93288715126645,
43.0,43.75,3,0.75,Stimuli/P020/sun_aknrkswonrogcooi.jpg,0,0,0.0,0,79,79,79,,,,,,,,,,,,,43.02206849999493,0.02206849999492988,None,80.75912450000033,80.75912450000033,80.75912450000033,80.75912450000033,80.75912450000033,80.75912450000033,80.75912450000033,80.75912450000033,80.75912450000033,80.75912450000033,,004,P020,2025_May_06_1709,ConditionRich,2021.2.3,59.93288715126645,
43.75,44.0,41,0.0,Stimuli/Blank.png,0,0,0.0,0,80,80,80,,,,,,,,,,,,,43.771028600000136,0.021028600000136066,None,81.49309789999825,81.49309789999825,81.49309789999825,81.49309789999825,81.49309789999825,81.49309789999825,81.49309789999825,81.49309789999825,81.49309789999825,81.49309789999825,,004,P020,2025_May_06_1709,ConditionRich,2021.2.3,59.93288715126645,
44.0,44.75,33,0.75,Stimuli/P020/things_insole_10s.jpg,0,0,0.0,0,81,81,81,,,,,,,,,,,,,44.00489999999991,0.004899999999906868,None,81.72663560000365,81.72663560000365,81.72663560000365,81.72663560000365,81.72663560000365,81.72663560000365,81.72663560000365,81.72663560000365,81.72663560000365,81.72663560000365,,004,P020,2025_May_06_1709,ConditionRich,2021.2.3,59.93288715126645,
44.75,45.0,41,0.0,Stimuli/Blank.png,0,0,0.0,0,82,82,82,,,,,,,,,,,,,44.75622199999634,0.006221999996341765,None,82.47730810000212,82.47730810000212,82.47730810000212,82.47730810000212,82.47730810000212,82.47730810000212,82.47730810000212,82.47730810000212,82.47730810000212,82.47730810000212,,004,P020,2025_May_06_1709,ConditionRich,2021.2.3,59.93288715126645,
45.0,45.75,33,0.75,Stimuli/P020/things_insole_10s.jpg,0,0,0.0,0,83,83,83,,,,,,,,,,,,,45.00604839999869,0.006048399998690002,None,82.74418259999948,82.74418259999948,82.74418259999948,82.74418259999948,82.74418259999948,82.74418259999948,82.74418259999948,82.74418259999948,82.74418259999948,82.74418259999948,,004,P020,2025_May_06_1709,ConditionRich,2021.2.3,59.93288715126645,
45.75,46.0,41,0.0,Stimuli/Blank.png,0,0,0.0,0,84,84,84,,,,,,,,,,,,,45.77303329999995,0.02303329999995185,None,83.4948504999993,83.4948504999993,83.4948504999993,83.4948504999993,83.4948504999993,83.4948504999993,83.4948504999993,83.4948504999993,83.4948504999993,83.4948504999993,,004,P020,2025_May_06_1709,ConditionRich,2021.2.3,59.93288715126645,
46.0,46.75,33,0.75,Stimuli/P020/things_insole_10s.jpg,0,0,0.0,0,85,85,85,,,,,,,,,,,,,46.006788899998355,0.006788899998355191,None,83.72849459999998,83.72849459999998,83.72849459999998,83.72849459999998,83.72849459999998,83.72849459999998,83.72849459999998,83.72849459999998,83.72849459999998,83.72849459999998,,004,P020,2025_May_06_1709,ConditionRich,2021.2.3,59.93288715126645,
46.75,47.0,41,0.0,Stimuli/Blank.png,0,0,0.0,0,86,86,86,,,,,,,,,,,,,46.75833039999998,0.00833039999997709,None,84.49577719999797,84.49577719999797,84.49577719999797,84.49577719999797,84.49577719999797,84.49577719999797,84.49577719999797,84.49577719999797,84.49577719999797,84.49577719999797,,004,P020,2025_May_06_1709,ConditionRich,2021.2.3,59.93288715126645,
47.0,47.75,33,0.75,Stimuli/P020/things_insole_10s.jpg,0,0,0.0,0,87,87,87,,,,,,,,,,,,,47.02385539999523,0.023855399995227344,None,84.74594030000299,84.74594030000299,84.74594030000299,84.74594030000299,84.74594030000299,84.74594030000299,84.74594030000299,84.74594030000299,84.74594030000299,84.74594030000299,,004,P020,2025_May_06_1709,ConditionRich,2021.2.3,59.93288715126645,
47.75,48.0,41,0.0,Stimuli/Blank.png,0,0,0.0,0,88,88,88,,,,,,,,,,,,,47.75827659999777,0.008276599997770973,None,85.47995670000091,85.47995670000091,85.47995670000091,85.47995670000091,85.47995670000091,85.47995670000091,85.47995670000091,85.47995670000091,85.47995670000091,85.47995670000091,,004,P020,2025_May_06_1709,ConditionRich,2021.2.3,59.93288715126645,
48.0,48.75,27,0.75,Stimuli/P020/things_eel_10s.jpg,0,0,0.0,0,89,89,89,,,,,,,,,,,,,48.00788019999891,0.00788019999890821,None,85.74686059999658,85.74686059999658,85.74686059999658,85.74686059999658,85.74686059999658,85.74686059999658,85.74686059999658,85.74686059999658,85.74686059999658,85.74686059999658,,004,P020,2025_May_06_1709,ConditionRich,2021.2.3,59.93288715126645,
48.75,49.0,41,0.0,Stimuli/Blank.png,0,0,0.0,0,90,90,90,,,,,,,,,,,,,48.77631999999721,0.026319999997213017,None,86.49753809999675,86.49753809999675,86.49753809999675,86.49753809999675,86.49753809999675,86.49753809999675,86.49753809999675,86.49753809999675,86.49753809999675,86.49753809999675,,004,P020,2025_May_06_1709,ConditionRich,2021.2.3,59.93288715126645,
49.0,49.75,27,0.75,Stimuli/P020/things_eel_10s.jpg,0,0,0.0,0,91,91,91,,,,,,,,,,,,,49.00977799999964,0.009777999999641906,None,86.73105590000341,86.73105590000341,86.73105590000341,86.73105590000341,86.73105590000341,86.73105590000341,86.73105590000341,86.73105590000341,86.73105590000341,86.73105590000341,,004,P020,2025_May_06_1709,ConditionRich,2021.2.3,59.93288715126645,
49.75,50.0,41,0.0,Stimuli/Blank.png,0,0,0.0,0,92,92,92,,,,,,,,,,,,,49.75934399999824,0.00934399999823654,None,87.4817439000035,87.4817439000035,87.4817439000035,87.4817439000035,87.4817439000035,87.4817439000035,87.4817439000035,87.4817439000035,87.4817439000035,87.4817439000035,,004,P020,2025_May_06_1709,ConditionRich,2021.2.3,59.93288715126645,
50.0,50.75,27,0.75,Stimuli/P020/things_eel_10s.jpg,0,0,0.0,0,93,93,93,,,,,,,,,,,,,50.00961719999759,0.009617199997592252,None,87.74864060000255,87.74864060000255,87.74864060000255,87.74864060000255,87.74864060000255,87.74864060000255,87.74864060000255,87.74864060000255,87.74864060000255,87.74864060000255,,004,P020,2025_May_06_1709,ConditionRich,2021.2.3,59.93288715126645,
50.75,51.0,41,0.0,Stimuli/Blank.png,0,0,0.0,0,94,94,94,,,,,,,,,,,,,50.777199699994526,0.027199699994525872,None,88.4992865000022,88.4992865000022,88.4992865000022,88.4992865000022,88.4992865000022,88.4992865000022,88.4992865000022,88.4992865000022,88.4992865000022,88.4992865000022,,004,P020,2025_May_06_1709,ConditionRich,2021.2.3,59.93288715126645,
51.0,51.75,27,0.75,Stimuli/P020/things_eel_10s.jpg,0,0,0.0,0,95,95,95,,,,,,,,,,,,,51.01052820000041,0.010528200000408106,None,88.73284029999922,88.73284029999922,88.73284029999922,88.73284029999922,88.73284029999922,88.73284029999922,88.73284029999922,88.73284029999922,88.73284029999922,88.73284029999922,,004,P020,2025_May_06_1709,ConditionRich,2021.2.3,59.93288715126645,
51.75,52.0,41,0.0,Stimuli/Blank.png,0,0,0.0,0,96,96,96,,,,,,,,,,,,,51.76223239999672,0.012232399996719323,None,89.4834891999999,89.4834891999999,89.4834891999999,89.4834891999999,89.4834891999999,89.4834891999999,89.4834891999999,89.4834891999999,89.4834891999999,89.4834891999999,,004,P020,2025_May_06_1709,ConditionRich,2021.2.3,59.93288715126645,
52.0,52.75,7,0.75,Stimuli/P020/sun_aqkbfuonyunmyqxb.jpg,0,0,0.0,0,97,97,97,,,,,,,,,,,,,52.01196959999652,0.01196959999651881,None,89.73371570000018,89.73371570000018,89.73371570000018,89.73371570000018,89.73371570000018,89.73371570000018,89.73371570000018,89.73371570000018,89.73371570000018,89.73371570000018,,004,P020,2025_May_06_1709,ConditionRich,2021.2.3,59.93288715126645,
52.75,53.0,41,0.0,Stimuli/Blank.png,0,0,0.0,0,98,98,98,,,,,,,,,,,,,52.76239419999911,0.012394199999107514,None,90.48439630000212,90.48439630000212,90.48439630000212,90.48439630000212,90.48439630000212,90.48439630000212,90.48439630000212,90.48439630000212,90.48439630000212,90.48439630000212,,004,P020,2025_May_06_1709,ConditionRich,2021.2.3,59.93288715126645,
53.0,53.75,7,0.75,Stimuli/P020/sun_aqkbfuonyunmyqxb.jpg,0,0,0.0,0,99,99,99,,,,,,,,,,,,,53.012455999996746,0.012455999996745959,None,90.73461069999757,90.73461069999757,90.73461069999757,90.73461069999757,90.73461069999757,90.73461069999757,90.73461069999757,90.73461069999757,90.73461069999757,90.73461069999757,,004,P020,2025_May_06_1709,ConditionRich,2021.2.3,59.93288715126645,
53.75,54.0,41,0.0,Stimuli/Blank.png,0,0,0.0,0,100,100,100,,,,,,,,,,,,,53.76384159999725,0.013841599997249432,None,91.48526989999664,91.48526989999664,91.48526989999664,91.48526989999664,91.48526989999664,91.48526989999664,91.48526989999664,91.48526989999664,91.48526989999664,91.48526989999664,,004,P020,2025_May_06_1709,ConditionRich,2021.2.3,59.93288715126645,
54.0,54.75,7,0.75,Stimuli/P020/sun_aqkbfuonyunmyqxb.jpg,0,0,0.0,0,101,101,101,,,,,,,,,,,,,54.01377800000046,0.013778000000456814,None,91.75218250000034,91.75218250000034,91.75218250000034,91.75218250000034,91.75218250000034,91.75218250000034,91.75218250000034,91.75218250000034,91.75218250000034,91.75218250000034,,004,P020,2025_May_06_1709,ConditionRich,2021.2.3,59.93288715126645,
54.75,55.0,41,0.0,Stimuli/Blank.png,0,0,0.0,0,102,102,102,,,,,,,,,,,,,54.78123929999856,0.031239299998560455,None,92.50285879999865,92.50285879999865,92.50285879999865,92.50285879999865,92.50285879999865,92.50285879999865,92.50285879999865,92.50285879999865,92.50285879999865,92.50285879999865,,004,P020,2025_May_06_1709,ConditionRich,2021.2.3,59.93288715126645,
55.0,55.75,7,0.75,Stimuli/P020/sun_aqkbfuonyunmyqxb.jpg,0,0,0.0,0,103,103,103,,,,,,,,,,,,,55.014858299997286,0.01485829999728594,None,92.75306950000231,92.75306950000231,92.75306950000231,92.75306950000231,92.75306950000231,92.75306950000231,92.75306950000231,92.75306950000231,92.75306950000231,92.75306950000231,,004,P020,2025_May_06_1709,ConditionRich,2021.2.3,59.93288715126645,
55.75,56.0,41,0.0,Stimuli/Blank.png,0,0,0.0,0,104,104,104,,,,,,,,,,,,,55.78226399999403,0.03226399999402929,None,93.50374159999774,93.50374159999774,93.50374159999774,93.50374159999774,93.50374159999774,93.50374159999774,93.50374159999774,93.50374159999774,93.50374159999774,93.50374159999774,,004,P020,2025_May_06_1709,ConditionRich,2021.2.3,59.93288715126645,
56.0,56.75,1,0.75,Stimuli/P020/sun_aaaidwecchadbake.jpg,0,0,0.0,0,105,105,105,,,,,,,,,,,,,55.99906909999845,-0.000930900001549162,None,93.73728000000119,93.73728000000119,93.73728000000119,93.73728000000119,93.73728000000119,93.73728000000119,93.73728000000119,93.73728000000119,93.73728000000119,93.73728000000119,,004,P020,2025_May_06_1709,ConditionRich,2021.2.3,59.93288715126645,
56.75,57.0,41,0.0,Stimuli/Blank.png,0,0,0.0,0,106,106,106,,,,,,,,,,,,,56.766274599998724,0.016274599998723716,None,94.48793270000169,94.48793270000169,94.48793270000169,94.48793270000169,94.48793270000169,94.48793270000169,94.48793270000169,94.48793270000169,94.48793270000169,94.48793270000169,,004,P020,2025_May_06_1709,ConditionRich,2021.2.3,59.93288715126645,
57.0,57.75,1,0.75,Stimuli/P020/sun_aaaidwecchadbake.jpg,1,0,0.75,0,107,107,107,,,,,,,,,,,,,57.00014929999452,0.00014929999451851472,1,94.72144220000337,94.72144220000337,94.72144220000337,94.72144220000337,94.72144220000337,94.72144220000337,94.72144220000337,95.4554433000012,94.72144220000337,94.72144220000337,0.4607888999962597,004,P020,2025_May_06_1709,ConditionRich,2021.2.3,59.93288715126645,
57.75,58.0,41,0.0,Stimuli/Blank.png,0,0,0.0,0,108,108,108,,,,,,,,,,,,,57.75039749999996,0.0003974999999627471,None,95.47214990000066,95.47214990000066,95.47214990000066,95.47214990000066,95.47214990000066,95.47214990000066,95.47214990000066,95.47214990000066,95.47214990000066,95.47214990000066,,004,P020,2025_May_06_1709,ConditionRich,2021.2.3,59.93288715126645,
58.0,58.75,1,0.75,Stimuli/P020/sun_aaaidwecchadbake.jpg,0,0,0.0,0,109,109,109,,,,,,,,,,,,,58.00114459999895,0.0011445999989518896,None,95.7390333000003,95.7390333000003,95.7390333000003,95.7390333000003,95.7390333000003,95.7390333000003,95.7390333000003,95.7390333000003,95.7390333000003,95.7390333000003,,004,P020,2025_May_06_1709,ConditionRich,2021.2.3,59.93288715126645,
58.75,59.0,41,0.0,Stimuli/Blank.png,0,0,0.0,0,110,110,110,,,,,,,,,,,,,58.768371899997874,0.018371899997873697,None,96.48978039999929,96.48978039999929,96.48978039999929,96.48978039999929,96.48978039999929,96.48978039999929,96.48978039999929,96.48978039999929,96.48978039999929,96.48978039999929,,004,P020,2025_May_06_1709,ConditionRich,2021.2.3,59.93288715126645,
59.0,59.75,1,0.75,Stimuli/P020/sun_aaaidwecchadbake.jpg,0,0,0.0,0,111,111,111,,,,,,,,,,,,,59.00162529999943,0.0016252999994321726,None,96.72324249999656,96.72324249999656,96.72324249999656,96.72324249999656,96.72324249999656,96.72324249999656,96.72324249999656,96.72324249999656,96.72324249999656,96.72324249999656,,004,P020,2025_May_06_1709,ConditionRich,2021.2.3,59.93288715126645,
59.75,60.0,41,0.0,Stimuli/Blank.png,0,0,0.0,0,112,112,112,,,,,,,,,,,,,59.753764399996726,0.0037643999967258424,None,97.47391610000341,97.47391610000341,97.47391610000341,97.47391610000341,97.47391610000341,97.47391610000341,97.47391610000341,97.47391610000341,97.47391610000341,97.47391610000341,,004,P020,2025_May_06_1709,ConditionRich,2021.2.3,59.93288715126645,
60.0,60.75,29,0.75,Stimuli/P020/things_flamingo_10s.jpg,1,0,0.75,0,113,113,113,,,,,,,,,,,,,60.00278350000008,0.0027835000000777654,1,97.7408007999984,97.7408007999984,97.7408007999984,97.7408007999984,97.7408007999984,97.7408007999984,97.7408007999984,98.45813829999679,97.7408007999984,97.7408007999984,0.5265091999972356,004,P020,2025_May_06_1709,ConditionRich,2021.2.3,59.93288715126645,
60.75,61.0,41,0.0,Stimuli/Blank.png,0,0,0.0,0,114,114,114,,,,,,,,,,,,,60.76917929999763,0.01917929999763146,None,98.4914751000033,98.4914751000033,98.4914751000033,98.4914751000033,98.4914751000033,98.4914751000033,98.4914751000033,98.4914751000033,98.4914751000033,98.4914751000033,,004,P020,2025_May_06_1709,ConditionRich,2021.2.3,59.93288715126645,
61.0,61.75,29,0.75,Stimuli/P020/things_flamingo_10s.jpg,0,0,0.0,0,115,115,115,,,,,,,,,,,,,61.003340999996,0.0033409999959985726,None,98.72501010000269,98.72501010000269,98.72501010000269,98.72501010000269,98.72501010000269,98.72501010000269,98.72501010000269,98.72501010000269,98.72501010000269,98.72501010000269,,004,P020,2025_May_06_1709,ConditionRich,2021.2.3,59.93288715126645,
61.75,62.0,41,0.0,Stimuli/Blank.png,0,0,0.0,0,116,116,116,,,,,,,,,,,,,61.7537211999952,0.0037211999951978214,None,99.47567639999761,99.47567639999761,99.47567639999761,99.47567639999761,99.47567639999761,99.47567639999761,99.47567639999761,99.47567639999761,99.47567639999761,99.47567639999761,,004,P020,2025_May_06_1709,ConditionRich,2021.2.3,59.93288715126645,
62.0,62.75,29,0.75,Stimuli/P020/things_flamingo_10s.jpg,0,0,0.0,0,117,117,117,,,,,,,,,,,,,62.00366189999477,0.0036618999947677366,None,99.72586890000093,99.72586890000093,99.72586890000093,99.72586890000093,99.72586890000093,99.72586890000093,99.72586890000093,99.72586890000093,99.72586890000093,99.72586890000093,,004,P020,2025_May_06_1709,ConditionRich,2021.2.3,59.93288715126645,
62.75,63.0,41,0.0,Stimuli/Blank.png,0,0,0.0,0,118,118,118,,,,,,,,,,,,,62.755973299994366,0.0059732999943662435,None,100.47653900000296,100.47653900000296,100.47653900000296,100.47653900000296,100.47653900000296,100.47653900000296,100.47653900000296,100.47653900000296,100.47653900000296,100.47653900000296,,004,P020,2025_May_06_1709,ConditionRich,2021.2.3,59.93288715126645,
63.0,63.75,29,0.75,Stimuli/P020/things_flamingo_10s.jpg,0,0,0.0,0,119,119,119,,,,,,,,,,,,,63.00709210000059,0.007092100000591017,None,100.74346610000066,100.74346610000066,100.74346610000066,100.74346610000066,100.74346610000066,100.74346610000066,100.74346610000066,100.74346610000066,100.74346610000066,100.74346610000066,,004,P020,2025_May_06_1709,ConditionRich,2021.2.3,59.93288715126645,
63.75,64.0,41,0.0,Stimuli/Blank.png,0,0,0.0,0,120,120,120,,,,,,,,,,,,,63.77242039999692,0.022420399996917695,None,101.49409520000336,101.49409520000336,101.49409520000336,101.49409520000336,101.49409520000336,101.49409520000336,101.49409520000336,101.49409520000336,101.49409520000336,101.49409520000336,,004,P020,2025_May_06_1709,ConditionRich,2021.2.3,59.93288715126645,
64.0,64.75,17,0.75,Stimuli/P020/sun_bltxkcclrpweopkl.jpg,0,0,0.0,0,121,121,121,,,,,,,,,,,,,64.0055246999982,0.005524699998204596,None,101.72766299999785,101.72766299999785,101.72766299999785,101.72766299999785,101.72766299999785,101.72766299999785,101.72766299999785,101.72766299999785,101.72766299999785,101.72766299999785,,004,P020,2025_May_06_1709,ConditionRich,2021.2.3,59.93288715126645,
64.75,65.0,41,0.0,Stimuli/Blank.png,0,0,0.0,0,122,122,122,,,,,,,,,,,,,64.75637439999991,0.006374399999913294,None,102.47836529999768,102.47836529999768,102.47836529999768,102.47836529999768,102.47836529999768,102.47836529999768,102.47836529999768,102.47836529999768,102.47836529999768,102.47836529999768,,004,P020,2025_May_06_1709,ConditionRich,2021.2.3,59.93288715126645,
65.0,65.75,17,0.75,Stimuli/P020/sun_bltxkcclrpweopkl.jpg,0,0,0.0,0,123,123,123,,,,,,,,,,,,,65.00799269999698,0.007992699996975716,None,102.74523130000307,102.74523130000307,102.74523130000307,102.74523130000307,102.74523130000307,102.74523130000307,102.74523130000307,102.74523130000307,102.74523130000307,102.74523130000307,,004,P020,2025_May_06_1709,ConditionRich,2021.2.3,59.93288715126645,
65.75,66.0,41,0.0,Stimuli/Blank.png,0,0,0.0,0,124,124,124,,,,,,,,,,,,,65.77437119999377,0.024371199993765913,None,103.49589279999782,103.49589279999782,103.49589279999782,103.49589279999782,103.49589279999782,103.49589279999782,103.49589279999782,103.49589279999782,103.49589279999782,103.49589279999782,,004,P020,2025_May_06_1709,ConditionRich,2021.2.3,59.93288715126645,
66.0,66.75,17,0.75,Stimuli/P020/sun_bltxkcclrpweopkl.jpg,0,0,0.0,0,125,125,125,,,,,,,,,,,,,66.0071179000006,0.007117900000594091,None,103.72942869999679,103.72942869999679,103.72942869999679,103.72942869999679,103.72942869999679,103.72942869999679,103.72942869999679,103.72942869999679,103.72942869999679,103.72942869999679,,004,P020,2025_May_06_1709,ConditionRich,2021.2.3,59.93288715126645,
66.75,67.0,41,0.0,Stimuli/Blank.png,0,0,0.0,0,126,126,126,,,,,,,,,,,,,66.75822739999421,0.008227399994211737,None,104.48011389999738,104.48011389999738,104.48011389999738,104.48011389999738,104.48011389999738,104.48011389999738,104.48011389999738,104.48011389999738,104.48011389999738,104.48011389999738,,004,P020,2025_May_06_1709,ConditionRich,2021.2.3,59.93288715126645,
67.0,67.75,17,0.75,Stimuli/P020/sun_bltxkcclrpweopkl.jpg,0,0,0.0,0,127,127,127,,,,,,,,,,,,,67.00875570000062,0.008755700000619981,None,104.73032370000146,104.73032370000146,104.73032370000146,104.73032370000146,104.73032370000146,104.73032370000146,104.73032370000146,104.73032370000146,104.73032370000146,104.73032370000146,,004,P020,2025_May_06_1709,ConditionRich,2021.2.3,59.93288715126645,
67.75,68.0,41,0.0,Stimuli/Blank.png,0,0,0.0,0,128,128,128,,,,,,,,,,,,,67.76009969999723,0.010099699997226708,None,105.48098700000264,105.48098700000264,105.48098700000264,105.48098700000264,105.48098700000264,105.48098700000264,105.48098700000264,105.48098700000264,105.48098700000264,105.48098700000264,,004,P020,2025_May_06_1709,ConditionRich,2021.2.3,59.93288715126645,
68.0,68.75,9,0.75,Stimuli/P020/sun_bbfmuujfvpiaqdww.jpg,0,0,0.0,0,129,129,129,,,,,,,,,,,,,68.01171299999987,0.011712999999872409,None,105.74790020000364,105.74790020000364,105.74790020000364,105.74790020000364,105.74790020000364,105.74790020000364,105.74790020000364,105.74790020000364,105.74790020000364,105.74790020000364,,004,P020,2025_May_06_1709,ConditionRich,2021.2.3,59.93288715126645,
68.75,69.0,41,0.0,Stimuli/Blank.png,0,0,0.0,0,130,130,130,,,,,,,,,,,,,68.77691169999889,0.02691169999889098,None,106.49857920000068,106.49857920000068,106.49857920000068,106.49857920000068,106.49857920000068,106.49857920000068,106.49857920000068,106.49857920000068,106.49857920000068,106.49857920000068,,004,P020,2025_May_06_1709,ConditionRich,2021.2.3,59.93288715126645,
69.0,69.75,9,0.75,Stimuli/P020/sun_bbfmuujfvpiaqdww.jpg,0,0,0.0,0,131,131,131,,,,,,,,,,,,,69.01074849999713,0.010748499997134786,None,106.73209089999727,106.73209089999727,106.73209089999727,106.73209089999727,106.73209089999727,106.73209089999727,106.73209089999727,106.73209089999727,106.73209089999727,106.73209089999727,,004,P020,2025_May_06_1709,ConditionRich,2021.2.3,59.93288715126645,
69.75,70.0,41,0.0,Stimuli/Blank.png,0,0,0.0,0,132,132,132,,,,,,,,,,,,,69.7604166999954,0.010416699995403178,None,107.48280749999685,107.48280749999685,107.48280749999685,107.48280749999685,107.48280749999685,107.48280749999685,107.48280749999685,107.48280749999685,107.48280749999685,107.48280749999685,,004,P020,2025_May_06_1709,ConditionRich,2021.2.3,59.93288715126645,
70.0,70.75,9,0.75,Stimuli/P020/sun_bbfmuujfvpiaqdww.jpg,0,0,0.0,0,133,133,133,,,,,,,,,,,,,70.01129789999686,0.011297899996861815,None,107.74965469999734,107.74965469999734,107.74965469999734,107.74965469999734,107.74965469999734,107.74965469999734,107.74965469999734,107.74965469999734,107.74965469999734,107.74965469999734,,004,P020,2025_May_06_1709,ConditionRich,2021.2.3,59.93288715126645,
70.75,71.0,41,0.0,Stimuli/Blank.png,0,0,0.0,0,134,134,134,,,,,,,,,,,,,70.7786502999952,0.028650299995206296,None,108.50032949999877,108.50032949999877,108.50032949999877,108.50032949999877,108.50032949999877,108.50032949999877,108.50032949999877,108.50032949999877,108.50032949999877,108.50032949999877,,004,P020,2025_May_06_1709,ConditionRich,2021.2.3,59.93288715126645,
71.0,71.75,9,0.75,Stimuli/P020/sun_bbfmuujfvpiaqdww.jpg,0,0,0.0,0,135,135,135,,,,,,,,,,,,,71.01312830000097,0.013128300000971649,None,108.75054850000015,108.75054850000015,108.75054850000015,108.75054850000015,108.75054850000015,108.75054850000015,108.75054850000015,108.75054850000015,108.75054850000015,108.75054850000015,,004,P020,2025_May_06_1709,ConditionRich,2021.2.3,59.93288715126645,
71.75,72.0,41,0.0,Stimuli/Blank.png,0,0,0.0,0,136,136,136,,,,,,,,,,,,,71.78180989999964,0.031809899999643676,None,109.5179105999996,109.5179105999996,109.5179105999996,109.5179105999996,109.5179105999996,109.5179105999996,109.5179105999996,109.5179105999996,109.5179105999996,109.5179105999996,,004,P020,2025_May_06_1709,ConditionRich,2021.2.3,59.93288715126645,
72.0,72.75,8,0.75,Stimuli/P020/sun_avbzvunekksfggon.jpg,0,0,0.0,0,137,137,137,,,,,,,,,,,,,72.0318735999972,0.031873599997197744,None,109.76812179999979,109.76812179999979,109.76812179999979,109.76812179999979,109.76812179999979,109.76812179999979,109.76812179999979,109.76812179999979,109.76812179999979,109.76812179999979,,004,P020,2025_May_06_1709,ConditionRich,2021.2.3,59.93288715126645,
72.75,73.0,41,0.0,Stimuli/Blank.png,0,0,0.0,0,138,138,138,,,,,,,,,,,,,72.76338489999762,0.01338489999761805,None,110.48542450000241,110.48542450000241,110.48542450000241,110.48542450000241,110.48542450000241,110.48542450000241,110.48542450000241,110.48542450000241,110.48542450000241,110.48542450000241,,004,P020,2025_May_06_1709,ConditionRich,2021.2.3,59.93288715126645,
73.0,73.75,8,0.75,Stimuli/P020/sun_avbzvunekksfggon.jpg,0,0,0.0,0,139,139,139,,,,,,,,,,,,,73.0137867999947,0.01378679999470478,None,110.75235750000138,110.75235750000138,110.75235750000138,110.75235750000138,110.75235750000138,110.75235750000138,110.75235750000138,110.75235750000138,110.75235750000138,110.75235750000138,,004,P020,2025_May_06_1709,ConditionRich,2021.2.3,59.93288715126645,
73.75,74.0,41,0.0,Stimuli/Blank.png,0,0,0.0,0,140,140,140,,,,,,,,,,,,,73.78129489999992,0.031294899999920744,None,111.50299169999926,111.50299169999926,111.50299169999926,111.50299169999926,111.50299169999926,111.50299169999926,111.50299169999926,111.50299169999926,111.50299169999926,111.50299169999926,,004,P020,2025_May_06_1709,ConditionRich,2021.2.3,59.93288715126645,
74.0,74.75,8,0.75,Stimuli/P020/sun_avbzvunekksfggon.jpg,0,0,0.0,0,141,141,141,,,,,,,,,,,,,74.0171457999968,0.017145799996796995,None,111.7532143999997,111.7532143999997,111.7532143999997,111.7532143999997,111.7532143999997,111.7532143999997,111.7532143999997,111.7532143999997,111.7532143999997,111.7532143999997,,004,P020,2025_May_06_1709,ConditionRich,2021.2.3,59.93288715126645,
74.75,75.0,41,0.0,Stimuli/Blank.png,0,0,0.0,0,142,142,142,,,,,,,,,,,,,74.76706549999653,0.017065499996533617,None,112.50384550000308,112.50384550000308,112.50384550000308,112.50384550000308,112.50384550000308,112.50384550000308,112.50384550000308,112.50384550000308,112.50384550000308,112.50384550000308,,004,P020,2025_May_06_1709,ConditionRich,2021.2.3,59.93288715126645,
75.0,75.75,8,0.75,Stimuli/P020/sun_avbzvunekksfggon.jpg,0,0,0.0,0,143,143,143,,,,,,,,,,,,,75.01812199999404,0.01812199999403674,None,112.75408880000032,112.75408880000032,112.75408880000032,112.75408880000032,112.75408880000032,112.75408880000032,112.75408880000032,112.75408880000032,112.75408880000032,112.75408880000032,,004,P020,2025_May_06_1709,ConditionRich,2021.2.3,59.93288715126645,
75.75,76.0,41,0.0,Stimuli/Blank.png,0,0,0.0,0,144,144,144,,,,,,,,,,,,,75.76701779999712,0.017017799997120164,None,113.48808460000146,113.48808460000146,113.48808460000146,113.48808460000146,113.48808460000146,113.48808460000146,113.48808460000146,113.48808460000146,113.48808460000146,113.48808460000146,,004,P020,2025_May_06_1709,ConditionRich,2021.2.3,59.93288715126645,
76.0,76.75,19,0.75,Stimuli/P020/sun_byssdezaaqnthppd.jpg,0,0,0.0,0,145,145,145,,,,,,,,,,,,,75.99932609999814,-0.0006739000018569641,None,113.73830720000115,113.73830720000115,113.73830720000115,113.73830720000115,113.73830720000115,113.73830720000115,113.73830720000115,113.73830720000115,113.73830720000115,113.73830720000115,,004,P020,2025_May_06_1709,ConditionRich,2021.2.3,59.93288715126645,
76.75,77.0,41,0.0,Stimuli/Blank.png,0,0,0.0,0,146,146,146,,,,,,,,,,,,,76.76775659999839,0.01775659999839263,None,114.48896070000046,114.48896070000046,114.48896070000046,114.48896070000046,114.48896070000046,114.48896070000046,114.48896070000046,114.48896070000046,114.48896070000046,114.48896070000046,,004,P020,2025_May_06_1709,ConditionRich,2021.2.3,59.93288715126645,
77.0,77.75,19,0.75,Stimuli/P020/sun_byssdezaaqnthppd.jpg,0,0,0.0,0,147,147,147,,,,,,,,,,,,,77.00283929999568,0.0028392999956849962,None,114.7391837000032,114.7391837000032,114.7391837000032,114.7391837000032,114.7391837000032,114.7391837000032,114.7391837000032,114.7391837000032,114.7391837000032,114.7391837000032,,004,P020,2025_May_06_1709,ConditionRich,2021.2.3,59.93288715126645,
77.75,78.0,41,0.0,Stimuli/Blank.png,0,0,0.0,0,148,148,148,,,,,,,,,,,,,77.76819909999904,0.01819909999903757,None,115.48984840000048,115.48984840000048,115.48984840000048,115.48984840000048,115.48984840000048,115.48984840000048,115.48984840000048,115.48984840000048,115.48984840000048,115.48984840000048,,004,P020,2025_May_06_1709,ConditionRich,2021.2.3,59.93288715126645,
78.0,78.75,19,0.75,Stimuli/P020/sun_byssdezaaqnthppd.jpg,0,0,0.0,0,149,149,149,,,,,,,,,,,,,78.0018185999943,0.0018185999942943454,None,115.74006050000025,115.74006050000025,115.74006050000025,115.74006050000025,115.74006050000025,115.74006050000025,115.74006050000025,115.74006050000025,115.74006050000025,115.74006050000025,,004,P020,2025_May_06_1709,ConditionRich,2021.2.3,59.93288715126645,
78.75,79.0,41,0.0,Stimuli/Blank.png,0,0,0.0,0,150,150,150,,,,,,,,,,,,,78.76929369999561,0.019293699995614588,None,116.4907286000016,116.4907286000016,116.4907286000016,116.4907286000016,116.4907286000016,116.4907286000016,116.4907286000016,116.4907286000016,116.4907286000016,116.4907286000016,,004,P020,2025_May_06_1709,ConditionRich,2021.2.3,59.93288715126645,
79.0,79.75,19,0.75,Stimuli/P020/sun_byssdezaaqnthppd.jpg,0,0,0.0,0,151,151,151,,,,,,,,,,,,,79.00219309999375,0.0021930999937467277,None,116.72423490000074,116.72423490000074,116.72423490000074,116.72423490000074,116.72423490000074,116.72423490000074,116.72423490000074,116.72423490000074,116.72423490000074,116.72423490000074,,004,P020,2025_May_06_1709,ConditionRich,2021.2.3,59.93288715126645,
79.75,80.0,41,0.0,Stimuli/Blank.png,0,0,0.0,0,152,152,152,,,,,,,,,,,,,79.75291749999451,0.0029174999945098534,None,117.47493679999752,117.47493679999752,117.47493679999752,117.47493679999752,117.47493679999752,117.47493679999752,117.47493679999752,117.47493679999752,117.47493679999752,117.47493679999752,,004,P020,2025_May_06_1709,ConditionRich,2021.2.3,59.93288715126645,
80.0,80.75,28,0.75,Stimuli/P020/things_face_10s.jpg,0,0,0.0,0,153,153,153,,,,,,,,,,,,,80.0033964999966,0.003396499996597413,None,117.72515389999899,117.72515389999899,117.72515389999899,117.72515389999899,117.72515389999899,117.72515389999899,117.72515389999899,117.72515389999899,117.72515389999899,117.72515389999899,,004,P020,2025_May_06_1709,ConditionRich,2021.2.3,59.93288715126645,
80.75,81.0,41,0.0,Stimuli/Blank.png,0,0,0.0,0,154,154,154,,,,,,,,,,,,,80.7535901999945,0.003590199994505383,None,118.47581860000355,118.47581860000355,118.47581860000355,118.47581860000355,118.47581860000355,118.47581860000355,118.47581860000355,118.47581860000355,118.47581860000355,118.47581860000355,,004,P020,2025_May_06_1709,ConditionRich,2021.2.3,59.93288715126645,
81.0,81.75,28,0.75,Stimuli/P020/things_face_10s.jpg,0,0,0.0,0,155,155,155,,,,,,,,,,,,,81.0050351999962,0.00503519999620039,None,118.74271800000133,118.74271800000133,118.74271800000133,118.74271800000133,118.74271800000133,118.74271800000133,118.74271800000133,118.74271800000133,118.74271800000133,118.74271800000133,,004,P020,2025_May_06_1709,ConditionRich,2021.2.3,59.93288715126645,
81.75,82.0,41,0.0,Stimuli/Blank.png,0,0,0.0,0,156,156,156,,,,,,,,,,,,,81.77104609999515,0.021046099995146506,None,119.4933527999965,119.4933527999965,119.4933527999965,119.4933527999965,119.4933527999965,119.4933527999965,119.4933527999965,119.4933527999965,119.4933527999965,119.4933527999965,,004,P020,2025_May_06_1709,ConditionRich,2021.2.3,59.93288715126645,
82.0,82.75,28,0.75,Stimuli/P020/things_face_10s.jpg,0,0,0.0,0,157,157,157,,,,,,,,,,,,,82.00527829999919,0.005278299999190494,None,119.74360829999932,119.74360829999932,119.74360829999932,119.74360829999932,119.74360829999932,119.74360829999932,119.74360829999932,119.74360829999932,119.74360829999932,119.74360829999932,,004,P020,2025_May_06_1709,ConditionRich,2021.2.3,59.93288715126645,
82.75,83.0,41,0.0,Stimuli/Blank.png,0,0,0.0,0,158,158,158,,,,,,,,,,,,,82.772770699994,0.022770699993998278,None,120.49429239999881,120.49429239999881,120.49429239999881,120.49429239999881,120.49429239999881,120.49429239999881,120.49429239999881,120.49429239999881,120.49429239999881,120.49429239999881,,004,P020,2025_May_06_1709,ConditionRich,2021.2.3,59.93288715126645,
83.0,83.75,28,0.75,Stimuli/P020/things_face_10s.jpg,0,0,0.0,0,159,159,159,,,,,,,,,,,,,83.00682119999692,0.006821199996920768,None,120.74448999999731,120.74448999999731,120.74448999999731,120.74448999999731,120.74448999999731,120.74448999999731,120.74448999999731,120.74448999999731,120.74448999999731,120.74448999999731,,004,P020,2025_May_06_1709,ConditionRich,2021.2.3,59.93288715126645,
83.75,84.0,41,0.0,Stimuli/Blank.png,0,0,0.0,0,160,160,160,,,,,,,,,,,,,83.77338419999433,0.023384199994325172,None,121.49516489999951,121.49516489999951,121.49516489999951,121.49516489999951,121.49516489999951,121.49516489999951,121.49516489999951,121.49516489999951,121.49516489999951,121.49516489999951,,004,P020,2025_May_06_1709,ConditionRich,2021.2.3,59.93288715126645,
84.0,100.0,0,0.0,Stimuli/Blank.png,1,3,3.75,0,161,161,161,,,,,,,,,,,,,84.00768229999812,0.007682299998123199,1,121.72869920000085,121.72869920000085,121.72869920000085,121.72869920000085,121.72869920000085,121.72869920000085,124.71467049999774,125.46538190000138,121.72869920000085,121.72869920000085,3.4337736000015866,004,P020,2025_May_06_1709,ConditionRich,2021.2.3,59.93288715126645,
100.0,100.75,18,0.75,Stimuli/P020/sun_bodjbrgwzlshgypq.jpg,0,0,0.0,0,162,162,162,,,,,,,,,,,,,100.00453769999876,0.0045376999987638555,None,137.74287809999805,137.74287809999805,137.74287809999805,137.74287809999805,137.74287809999805,137.74287809999805,137.74287809999805,137.74287809999805,137.74287809999805,137.74287809999805,,004,P020,2025_May_06_1709,ConditionRich,2021.2.3,59.93288715126645,
100.75,101.0,41,0.0,Stimuli/Blank.png,0,0,0.0,0,163,163,163,,,,,,,,,,,,,100.77188609999575,0.021886099995754194,None,138.49353629999678,138.49353629999678,138.49353629999678,138.49353629999678,138.49353629999678,138.49353629999678,138.49353629999678,138.49353629999678,138.49353629999678,138.49353629999678,,004,P020,2025_May_06_1709,ConditionRich,2021.2.3,59.93288715126645,
101.0,101.75,18,0.75,Stimuli/P020/sun_bodjbrgwzlshgypq.jpg,0,0,0.0,0,164,164,164,,,,,,,,,,,,,101.00756179999735,0.007561799997347407,None,138.7437604000006,138.7437604000006,138.7437604000006,138.7437604000006,138.7437604000006,138.7437604000006,138.7437604000006,138.7437604000006,138.7437604000006,138.7437604000006,,004,P020,2025_May_06_1709,ConditionRich,2021.2.3,59.93288715126645,
101.75,102.0,41,0.0,Stimuli/Blank.png,0,0,0.0,0,165,165,165,,,,,,,,,,,,,101.77286399999866,0.02286399999866262,None,139.49440770000365,139.49440770000365,139.49440770000365,139.49440770000365,139.49440770000365,139.49440770000365,139.49440770000365,139.49440770000365,139.49440770000365,139.49440770000365,,004,P020,2025_May_06_1709,ConditionRich,2021.2.3,59.93288715126645,
102.0,102.75,18,0.75,Stimuli/P020/sun_bodjbrgwzlshgypq.jpg,0,0,0.0,0,166,166,166,,,,,,,,,,,,,102.00583139999799,0.005831399997987319,None,139.72795020000194,139.72795020000194,139.72795020000194,139.72795020000194,139.72795020000194,139.72795020000194,139.72795020000194,139.72795020000194,139.72795020000194,139.72795020000194,,004,P020,2025_May_06_1709,ConditionRich,2021.2.3,59.93288715126645,
102.75,103.0,41,0.0,Stimuli/Blank.png,0,0,0.0,0,167,167,167,,,,,,,,,,,,,102.75715529999434,0.007155299994337838,None,140.4786191000021,140.4786191000021,140.4786191000021,140.4786191000021,140.4786191000021,140.4786191000021,140.4786191000021,140.4786191000021,140.4786191000021,140.4786191000021,,004,P020,2025_May_06_1709,ConditionRich,2021.2.3,59.93288715126645,
103.0,103.75,18,0.75,Stimuli/P020/sun_bodjbrgwzlshgypq.jpg,0,0,0.0,0,168,168,168,,,,,,,,,,,,,103.00694989999465,0.006949899994651787,None,140.72884019999765,140.72884019999765,140.72884019999765,140.72884019999765,140.72884019999765,140.72884019999765,140.72884019999765,140.72884019999765,140.72884019999765,140.72884019999765,,004,P020,2025_May_06_1709,ConditionRich,2021.2.3,59.93288715126645,
103.75,104.0,41,0.0,Stimuli/Blank.png,0,0,0.0,0,169,169,169,,,,,,,,,,,,,103.75719279999612,0.007192799996118993,None,141.47950039999705,141.47950039999705,141.47950039999705,141.47950039999705,141.47950039999705,141.47950039999705,141.47950039999705,141.47950039999705,141.47950039999705,141.47950039999705,,004,P020,2025_May_06_1709,ConditionRich,2021.2.3,59.93288715126645,
104.0,104.75,14,0.75,Stimuli/P020/sun_birvagufpcschyrr.jpg,0,0,0.0,0,170,170,170,,,,,,,,,,,,,104.00740360000054,0.00740360000054352,None,141.7297056000025,141.7297056000025,141.7297056000025,141.7297056000025,141.7297056000025,141.7297056000025,141.7297056000025,141.7297056000025,141.7297056000025,141.7297056000025,,004,P020,2025_May_06_1709,ConditionRich,2021.2.3,59.93288715126645,
104.75,105.0,41,0.0,Stimuli/Blank.png,0,0,0.0,0,171,171,171,,,,,,,,,,,,,104.75895279999531,0.008952799995313399,None,142.4803918999969,142.4803918999969,142.4803918999969,142.4803918999969,142.4803918999969,142.4803918999969,142.4803918999969,142.4803918999969,142.4803918999969,142.4803918999969,,004,P020,2025_May_06_1709,ConditionRich,2021.2.3,59.93288715126645,
105.0,105.75,14,0.75,Stimuli/P020/sun_birvagufpcschyrr.jpg,0,0,0.0,0,172,172,172,,,,,,,,,,,,,105.00829040000099,0.008290400000987574,None,142.74730490000366,142.74730490000366,142.74730490000366,142.74730490000366,142.74730490000366,142.74730490000366,142.74730490000366,142.74730490000366,142.74730490000366,142.74730490000366,,004,P020,2025_May_06_1709,ConditionRich,2021.2.3,59.93288715126645,
105.75,106.0,41,0.0,Stimuli/Blank.png,0,0,0.0,0,173,173,173,,,,,,,,,,,,,105.7763632999995,0.026363299999502487,None,143.49796719999722,143.49796719999722,143.49796719999722,143.49796719999722,143.49796719999722,143.49796719999722,143.49796719999722,143.49796719999722,143.49796719999722,143.49796719999722,,004,P020,2025_May_06_1709,ConditionRich,2021.2.3,59.93288715126645,
106.0,106.75,14,0.75,Stimuli/P020/sun_birvagufpcschyrr.jpg,0,0,0.0,0,174,174,174,,,,,,,,,,,,,106.00962499999878,0.009624999998777639,None,143.74819410000055,143.74819410000055,143.74819410000055,143.74819410000055,143.74819410000055,143.74819410000055,143.74819410000055,143.74819410000055,143.74819410000055,143.74819410000055,,004,P020,2025_May_06_1709,ConditionRich,2021.2.3,59.93288715126645,
106.75,107.0,41,0.0,Stimuli/Blank.png,0,0,0.0,0,175,175,175,,,,,,,,,,,,,106.77678960000048,0.026789600000483915,None,144.49883930000215,144.49883930000215,144.49883930000215,144.49883930000215,144.49883930000215,144.49883930000215,144.49883930000215,144.49883930000215,144.49883930000215,144.49883930000215,,004,P020,2025_May_06_1709,ConditionRich,2021.2.3,59.93288715126645,
107.0,107.75,14,0.75,Stimuli/P020/sun_birvagufpcschyrr.jpg,0,0,0.0,0,176,176,176,,,,,,,,,,,,,107.01283970000077,0.012839700000768062,None,144.74907099999837,144.74907099999837,144.74907099999837,144.74907099999837,144.74907099999837,144.74907099999837,144.74907099999837,144.74907099999837,144.74907099999837,144.74907099999837,,004,P020,2025_May_06_1709,ConditionRich,2021.2.3,59.93288715126645,
107.75,108.0,41,0.0,Stimuli/Blank.png,0,0,0.0,0,177,177,177,,,,,,,,,,,,,107.77762409999559,0.027624099995591678,None,145.49972369999887,145.49972369999887,145.49972369999887,145.49972369999887,145.49972369999887,145.49972369999887,145.49972369999887,145.49972369999887,145.49972369999887,145.49972369999887,,004,P020,2025_May_06_1709,ConditionRich,2021.2.3,59.93288715126645,
108.0,108.75,16,0.75,Stimuli/P020/sun_blfpbbfyzmewzplm.jpg,1,0,0.75,0,178,178,178,,,,,,,,,,,,,108.01161139999749,0.01161139999749139,1,145.73326980000274,145.73326980000274,145.73326980000274,145.73326980000274,145.73326980000274,145.73326980000274,145.73326980000274,146.46724879999965,145.73326980000274,145.73326980000274,0.38226790000044275,004,P020,2025_May_06_1709,ConditionRich,2021.2.3,59.93288715126645,
108.75,109.0,41,0.0,Stimuli/Blank.png,0,0,0.0,0,179,179,179,,,,,,,,,,,,,108.76159119999647,0.011591199996473733,None,146.48394330000156,146.48394330000156,146.48394330000156,146.48394330000156,146.48394330000156,146.48394330000156,146.48394330000156,146.48394330000156,146.48394330000156,146.48394330000156,,004,P020,2025_May_06_1709,ConditionRich,2021.2.3,59.93288715126645,
109.0,109.75,16,0.75,Stimuli/P020/sun_blfpbbfyzmewzplm.jpg,0,0,0.0,0,180,180,180,,,,,,,,,,,,,109.01267729999381,0.012677299993811175,None,146.75086949999968,146.75086949999968,146.75086949999968,146.75086949999968,146.75086949999968,146.75086949999968,146.75086949999968,146.75086949999968,146.75086949999968,146.75086949999968,,004,P020,2025_May_06_1709,ConditionRich,2021.2.3,59.93288715126645,
109.75,110.0,41,0.0,Stimuli/Blank.png,0,0,0.0,0,181,181,181,,,,,,,,,,,,,109.7821397000007,0.03213970000069821,None,147.51819870000327,147.51819870000327,147.51819870000327,147.51819870000327,147.51819870000327,147.51819870000327,147.51819870000327,147.51819870000327,147.51819870000327,147.51819870000327,,004,P020,2025_May_06_1709,ConditionRich,2021.2.3,59.93288715126645,
110.0,110.75,16,0.75,Stimuli/P020/sun_blfpbbfyzmewzplm.jpg,0,0,0.0,0,182,182,182,,,,,,,,,,,,,110.01280209999823,0.012802099998225458,None,147.7350366000028,147.7350366000028,147.7350366000028,147.7350366000028,147.7350366000028,147.7350366000028,147.7350366000028,147.7350366000028,147.7350366000028,147.7350366000028,,004,P020,2025_May_06_1709,ConditionRich,2021.2.3,59.93288715126645,
110.75,111.0,41,0.0,Stimuli/Blank.png,0,0,0.0,0,183,183,183,,,,,,,,,,,,,110.76380559999961,0.01380559999961406,None,148.48569940000016,148.48569940000016,148.48569940000016,148.48569940000016,148.48569940000016,148.48569940000016,148.48569940000016,148.48569940000016,148.48569940000016,148.48569940000016,,004,P020,2025_May_06_1709,ConditionRich,2021.2.3,59.93288715126645,
111.0,111.75,16,0.75,Stimuli/P020/sun_blfpbbfyzmewzplm.jpg,0,0,0.0,0,184,184,184,,,,,,,,,,,,,111.01358079999773,0.01358079999772599,None,148.75261809999938,148.75261809999938,148.75261809999938,148.75261809999938,148.75261809999938,148.75261809999938,148.75261809999938,148.75261809999938,148.75261809999938,148.75261809999938,,004,P020,2025_May_06_1709,ConditionRich,2021.2.3,59.93288715126645,
111.75,112.0,41,0.0,Stimuli/Blank.png,0,0,0.0,0,185,185,185,,,,,,,,,,,,,111.78095839999878,0.030958399998780806,None,149.50326759999734,149.50326759999734,149.50326759999734,149.50326759999734,149.50326759999734,149.50326759999734,149.50326759999734,149.50326759999734,149.50326759999734,149.50326759999734,,004,P020,2025_May_06_1709,ConditionRich,2021.2.3,59.93288715126645,
112.0,112.75,36,0.75,Stimuli/P020/things_sunroof_10s.jpg,1,0,0.75,0,186,186,186,,,,,,,,,,,,,112.01452559999598,0.014525599995977245,1,149.75351000000228,149.75351000000228,149.75351000000228,149.75351000000228,149.75351000000228,149.75351000000228,149.75351000000228,150.47078579999652,149.75351000000228,149.75351000000228,0.5100657999937539,004,P020,2025_May_06_1709,ConditionRich,2021.2.3,59.93288715126645,
112.75,113.0,41,0.0,Stimuli/Blank.png,0,0,0.0,0,187,187,187,,,,,,,,,,,,,112.78261699999712,0.03261699999711709,None,150.50421829999686,150.50421829999686,150.50421829999686,150.50421829999686,150.50421829999686,150.50421829999686,150.50421829999686,150.50421829999686,150.50421829999686,150.50421829999686,,004,P020,2025_May_06_1709,ConditionRich,2021.2.3,59.93288715126645,
113.0,113.75,36,0.75,Stimuli/P020/things_sunroof_10s.jpg,0,0,0.0,0,188,188,188,,,,,,,,,,,,,113.00170429999707,0.0017042999970726669,None,150.73771249999845,150.73771249999845,150.73771249999845,150.73771249999845,150.73771249999845,150.73771249999845,150.73771249999845,150.73771249999845,150.73771249999845,150.73771249999845,,004,P020,2025_May_06_1709,ConditionRich,2021.2.3,59.93288715126645,
113.75,114.0,41,0.0,Stimuli/Blank.png,0,0,0.0,0,189,189,189,,,,,,,,,,,,,113.76594829999522,0.015948299995216075,None,151.48836370000208,151.48836370000208,151.48836370000208,151.48836370000208,151.48836370000208,151.48836370000208,151.48836370000208,151.48836370000208,151.48836370000208,151.48836370000208,,004,P020,2025_May_06_1709,ConditionRich,2021.2.3,59.93288715126645,
114.0,114.75,36,0.75,Stimuli/P020/things_sunroof_10s.jpg,0,0,0.0,0,190,190,190,,,,,,,,,,,,,114.00295779999578,0.0029577999957837164,None,151.7385882000017,151.7385882000017,151.7385882000017,151.7385882000017,151.7385882000017,151.7385882000017,151.7385882000017,151.7385882000017,151.7385882000017,151.7385882000017,,004,P020,2025_May_06_1709,ConditionRich,2021.2.3,59.93288715126645,
114.75,115.0,41,0.0,Stimuli/Blank.png,0,0,0.0,0,191,191,191,,,,,,,,,,,,,114.76751969999896,0.01751969999895664,None,152.48925230000168,152.48925230000168,152.48925230000168,152.48925230000168,152.48925230000168,152.48925230000168,152.48925230000168,152.48925230000168,152.48925230000168,152.48925230000168,,004,P020,2025_May_06_1709,ConditionRich,2021.2.3,59.93288715126645,
115.0,115.75,36,0.75,Stimuli/P020/things_sunroof_10s.jpg,0,0,0.0,0,192,192,192,,,,,,,,,,,,,115.00062339999567,0.0006233999956748448,None,152.7227888999987,152.7227888999987,152.7227888999987,152.7227888999987,152.7227888999987,152.7227888999987,152.7227888999987,152.7227888999987,152.7227888999987,152.7227888999987,,004,P020,2025_May_06_1709,ConditionRich,2021.2.3,59.93288715126645,
115.75,116.0,41,0.0,Stimuli/Blank.png,0,0,0.0,0,193,193,193,,,,,,,,,,,,,115.75203599999804,0.0020359999980428256,None,153.47347430000082,153.47347430000082,153.47347430000082,153.47347430000082,153.47347430000082,153.47347430000082,153.47347430000082,153.47347430000082,153.47347430000082,153.47347430000082,,004,P020,2025_May_06_1709,ConditionRich,2021.2.3,59.93288715126645,
116.0,116.75,26,0.75,Stimuli/P020/things_earwig_10n.jpg,0,0,0.0,0,194,194,194,,,,,,,,,,,,,116.00279639999644,0.0027963999964413233,None,153.7403809000025,153.7403809000025,153.7403809000025,153.7403809000025,153.7403809000025,153.7403809000025,153.7403809000025,153.7403809000025,153.7403809000025,153.7403809000025,,004,P020,2025_May_06_1709,ConditionRich,2021.2.3,59.93288715126645,
116.75,117.0,41,0.0,Stimuli/Blank.png,0,0,0.0,0,195,195,195,,,,,,,,,,,,,116.76908990000084,0.01908990000083577,None,154.4910144000023,154.4910144000023,154.4910144000023,154.4910144000023,154.4910144000023,154.4910144000023,154.4910144000023,154.4910144000023,154.4910144000023,154.4910144000023,,004,P020,2025_May_06_1709,ConditionRich,2021.2.3,59.93288715126645,
117.0,117.75,26,0.75,Stimuli/P020/things_earwig_10n.jpg,0,0,0.0,0,196,196,196,,,,,,,,,,,,,117.00294259999646,0.002942599996458739,None,154.72453490000044,154.72453490000044,154.72453490000044,154.72453490000044,154.72453490000044,154.72453490000044,154.72453490000044,154.72453490000044,154.72453490000044,154.72453490000044,,004,P020,2025_May_06_1709,ConditionRich,2021.2.3,59.93288715126645,
117.75,118.0,41,0.0,Stimuli/Blank.png,0,0,0.0,0,197,197,197,,,,,,,,,,,,,117.75357109999459,0.003571099994587712,None,155.47523869999713,155.47523869999713,155.47523869999713,155.47523869999713,155.47523869999713,155.47523869999713,155.47523869999713,155.47523869999713,155.47523869999713,155.47523869999713,,004,P020,2025_May_06_1709,ConditionRich,2021.2.3,59.93288715126645,
118.0,118.75,26,0.75,Stimuli/P020/things_earwig_10n.jpg,0,0,0.0,0,198,198,198,,,,,,,,,,,,,118.003627399994,0.0036273999940021895,None,155.72544339999877,155.72544339999877,155.72544339999877,155.72544339999877,155.72544339999877,155.72544339999877,155.72544339999877,155.72544339999877,155.72544339999877,155.72544339999877,,004,P020,2025_May_06_1709,ConditionRich,2021.2.3,59.93288715126645,
118.75,119.0,41,0.0,Stimuli/Blank.png,0,0,0.0,0,199,199,199,,,,,,,,,,,,,118.75431869999738,0.004318699997384101,None,156.4761959000025,156.4761959000025,156.4761959000025,156.4761959000025,156.4761959000025,156.4761959000025,156.4761959000025,156.4761959000025,156.4761959000025,156.4761959000025,,004,P020,2025_May_06_1709,ConditionRich,2021.2.3,59.93288715126645,
119.0,119.75,26,0.75,Stimuli/P020/things_earwig_10n.jpg,0,0,0.0,0,200,200,200,,,,,,,,,,,,,119.00437509999756,0.004375099997560028,None,156.7430314000012,156.7430314000012,156.7430314000012,156.7430314000012,156.7430314000012,156.7430314000012,156.7430314000012,156.7430314000012,156.7430314000012,156.7430314000012,,004,P020,2025_May_06_1709,ConditionRich,2021.2.3,59.93288715126645,
119.75,120.0,41,0.0,Stimuli/Blank.png,0,0,0.0,0,201,201,201,,,,,,,,,,,,,119.77235559999826,0.022355599998263642,None,157.49367570000322,157.49367570000322,157.49367570000322,157.49367570000322,157.49367570000322,157.49367570000322,157.49367570000322,157.49367570000322,157.49367570000322,157.49367570000322,,004,P020,2025_May_06_1709,ConditionRich,2021.2.3,59.93288715126645,
120.0,120.75,35,0.75,Stimuli/P020/things_pretzel_10s.jpg,0,0,0.0,0,202,202,202,,,,,,,,,,,,,120.00717409999925,0.007174099999247119,None,157.7439000000013,157.7439000000013,157.7439000000013,157.7439000000013,157.7439000000013,157.7439000000013,157.7439000000013,157.7439000000013,157.7439000000013,157.7439000000013,,004,P020,2025_May_06_1709,ConditionRich,2021.2.3,59.93288715126645,
120.75,121.0,41,0.0,Stimuli/Blank.png,0,0,0.0,0,203,203,203,,,,,,,,,,,,,120.77294550000079,0.022945500000787433,None,158.49456040000223,158.49456040000223,158.49456040000223,158.49456040000223,158.49456040000223,158.49456040000223,158.49456040000223,158.49456040000223,158.49456040000223,158.49456040000223,,004,P020,2025_May_06_1709,ConditionRich,2021.2.3,59.93288715126645,
121.0,121.75,35,0.75,Stimuli/P020/things_pretzel_10s.jpg,0,0,0.0,0,204,204,204,,,,,,,,,,,,,121.0057164999962,0.005716499996196944,None,158.72809569999663,158.72809569999663,158.72809569999663,158.72809569999663,158.72809569999663,158.72809569999663,158.72809569999663,158.72809569999663,158.72809569999663,158.72809569999663,,004,P020,2025_May_06_1709,ConditionRich,2021.2.3,59.93288715126645,
121.75,122.0,41,0.0,Stimuli/Blank.png,0,0,0.0,0,205,205,205,,,,,,,,,,,,,121.7571981000001,0.007198100000096019,None,159.47877270000026,159.47877270000026,159.47877270000026,159.47877270000026,159.47877270000026,159.47877270000026,159.47877270000026,159.47877270000026,159.47877270000026,159.47877270000026,,004,P020,2025_May_06_1709,ConditionRich,2021.2.3,59.93288715126645,
122.0,122.75,35,0.75,Stimuli/P020/things_pretzel_10s.jpg,0,0,0.0,0,206,206,206,,,,,,,,,,,,,122.00672089999716,0.006720899997162633,None,159.72898649999843,159.72898649999843,159.72898649999843,159.72898649999843,159.72898649999843,159.72898649999843,159.72898649999843,159.72898649999843,159.72898649999843,159.72898649999843,,004,P020,2025_May_06_1709,ConditionRich,2021.2.3,59.93288715126645,
122.75,123.0,41,0.0,Stimuli/Blank.png,0,0,0.0,0,207,207,207,,,,,,,,,,,,,122.75729850000062,0.007298500000615604,None,160.47965180000028,160.47965180000028,160.47965180000028,160.47965180000028,160.47965180000028,160.47965180000028,160.47965180000028,160.47965180000028,160.47965180000028,160.47965180000028,,004,P020,2025_May_06_1709,ConditionRich,2021.2.3,59.93288715126645,
123.0,123.75,35,0.75,Stimuli/P020/things_pretzel_10s.jpg,0,0,0.0,0,208,208,208,,,,,,,,,,,,,123.00759259999904,0.007592599999043159,None,160.72988420000183,160.72988420000183,160.72988420000183,160.72988420000183,160.72988420000183,160.72988420000183,160.72988420000183,160.72988420000183,160.72988420000183,160.72988420000183,,004,P020,2025_May_06_1709,ConditionRich,2021.2.3,59.93288715126645,
123.75,124.0,41,0.0,Stimuli/Blank.png,0,0,0.0,0,209,209,209,,,,,,,,,,,,,123.75908869999694,0.009088699996937066,None,161.48053860000073,161.48053860000073,161.48053860000073,161.48053860000073,161.48053860000073,161.48053860000073,161.48053860000073,161.48053860000073,161.48053860000073,161.48053860000073,,004,P020,2025_May_06_1709,ConditionRich,2021.2.3,59.93288715126645,
124.0,124.75,13,0.75,Stimuli/P020/sun_bhzwrbdycbchqesq.jpg,0,0,0.0,0,210,210,210,,,,,,,,,,,,,124.00864179999917,0.008641799999168143,None,161.74744459999783,161.74744459999783,161.74744459999783,161.74744459999783,161.74744459999783,161.74744459999783,161.74744459999783,161.74744459999783,161.74744459999783,161.74744459999783,,004,P020,2025_May_06_1709,ConditionRich,2021.2.3,59.93288715126645,
124.75,125.0,41,0.0,Stimuli/Blank.png,0,0,0.0,0,211,211,211,,,,,,,,,,,,,124.7764304999946,0.02643049999460345,None,162.49810859999707,162.49810859999707,162.49810859999707,162.49810859999707,162.49810859999707,162.49810859999707,162.49810859999707,162.49810859999707,162.49810859999707,162.49810859999707,,004,P020,2025_May_06_1709,ConditionRich,2021.2.3,59.93288715126645,
125.0,125.75,13,0.75,Stimuli/P020/sun_bhzwrbdycbchqesq.jpg,0,0,0.0,0,212,212,212,,,,,,,,,,,,,125.00934259999485,0.009342599994852208,None,162.74836089999735,162.74836089999735,162.74836089999735,162.74836089999735,162.74836089999735,162.74836089999735,162.74836089999735,162.74836089999735,162.74836089999735,162.74836089999735,,004,P020,2025_May_06_1709,ConditionRich,2021.2.3,59.93288715126645,
125.75,126.0,41,0.0,Stimuli/Blank.png,0,0,0.0,0,213,213,213,,,,,,,,,,,,,125.77787299999909,0.027872999999090098,None,163.51569690000179,163.51569690000179,163.51569690000179,163.51569690000179,163.51569690000179,163.51569690000179,163.51569690000179,163.51569690000179,163.51569690000179,163.51569690000179,,004,P020,2025_May_06_1709,ConditionRich,2021.2.3,59.93288715126645,
126.0,126.75,13,0.75,Stimuli/P020/sun_bhzwrbdycbchqesq.jpg,0,0,0.0,0,214,214,214,,,,,,,,,,,,,126.02700619999814,0.0270061999981408,None,163.74921090000134,163.74921090000134,163.74921090000134,163.74921090000134,163.74921090000134,163.74921090000134,163.74921090000134,163.74921090000134,163.74921090000134,163.74921090000134,,004,P020,2025_May_06_1709,ConditionRich,2021.2.3,59.93288715126645,
126.75,127.0,41,0.0,Stimuli/Blank.png,0,0,0.0,0,215,215,215,,,,,,,,,,,,,126.76155969999672,0.011559699996723793,None,164.48320480000257,164.48320480000257,164.48320480000257,164.48320480000257,164.48320480000257,164.48320480000257,164.48320480000257,164.48320480000257,164.48320480000257,164.48320480000257,,004,P020,2025_May_06_1709,ConditionRich,2021.2.3,59.93288715126645,
127.0,127.75,13,0.75,Stimuli/P020/sun_bhzwrbdycbchqesq.jpg,0,0,0.0,0,216,216,216,,,,,,,,,,,,,127.01179669999692,0.011796699996921234,None,164.73341110000183,164.73341110000183,164.73341110000183,164.73341110000183,164.73341110000183,164.73341110000183,164.73341110000183,164.73341110000183,164.73341110000183,164.73341110000183,,004,P020,2025_May_06_1709,ConditionRich,2021.2.3,59.93288715126645,
127.75,128.0,41,0.0,Stimuli/Blank.png,0,0,0.0,0,217,217,217,,,,,,,,,,,,,127.76348839999991,0.01348839999991469,None,165.5007845,165.5007845,165.5007845,165.5007845,165.5007845,165.5007845,165.5007845,165.5007845,165.5007845,165.5007845,,004,P020,2025_May_06_1709,ConditionRich,2021.2.3,59.93288715126645,
128.0,128.75,15,0.75,Stimuli/P020/sun_bkubdnohuakmwcaj.jpg,0,0,0.0,0,218,218,218,,,,,,,,,,,,,128.0299995999958,0.02999959999579005,None,165.7676610999988,165.7676610999988,165.7676610999988,165.7676610999988,165.7676610999988,165.7676610999988,165.7676610999988,165.7676610999988,165.7676610999988,165.7676610999988,,004,P020,2025_May_06_1709,ConditionRich,2021.2.3,59.93288715126645,
128.75,129.0,41,0.0,Stimuli/Blank.png,0,0,0.0,0,219,219,219,,,,,,,,,,,,,128.7793298999968,0.029329899996810127,None,166.50172089999978,166.50172089999978,166.50172089999978,166.50172089999978,166.50172089999978,166.50172089999978,166.50172089999978,166.50172089999978,166.50172089999978,166.50172089999978,,004,P020,2025_May_06_1709,ConditionRich,2021.2.3,59.93288715126645,
129.0,129.75,15,0.75,Stimuli/P020/sun_bkubdnohuakmwcaj.jpg,0,0,0.0,0,220,220,220,,,,,,,,,,,,,129.01367319999554,0.013673199995537288,None,166.7351864000011,166.7351864000011,166.7351864000011,166.7351864000011,166.7351864000011,166.7351864000011,166.7351864000011,166.7351864000011,166.7351864000011,166.7351864000011,,004,P020,2025_May_06_1709,ConditionRich,2021.2.3,59.93288715126645,
129.75,130.0,41,0.0,Stimuli/Blank.png,0,0,0.0,0,221,221,221,,,,,,,,,,,,,129.76380139999674,0.013801399996737018,None,167.4858452999979,167.4858452999979,167.4858452999979,167.4858452999979,167.4858452999979,167.4858452999979,167.4858452999979,167.4858452999979,167.4858452999979,167.4858452999979,,004,P020,2025_May_06_1709,ConditionRich,2021.2.3,59.93288715126645,
130.0,130.75,15,0.75,Stimuli/P020/sun_bkubdnohuakmwcaj.jpg,0,0,0.0,0,222,222,222,,,,,,,,,,,,,130.01435019999917,0.01435019999917131,None,167.75276100000337,167.75276100000337,167.75276100000337,167.75276100000337,167.75276100000337,167.75276100000337,167.75276100000337,167.75276100000337,167.75276100000337,167.75276100000337,,004,P020,2025_May_06_1709,ConditionRich,2021.2.3,59.93288715126645,
130.75,131.0,41,0.0,Stimuli/Blank.png,0,0,0.0,0,223,223,223,,,,,,,,,,,,,130.78107369999634,0.03107369999634102,None,168.50342039999668,168.50342039999668,168.50342039999668,168.50342039999668,168.50342039999668,168.50342039999668,168.50342039999668,168.50342039999668,168.50342039999668,168.50342039999668,,004,P020,2025_May_06_1709,ConditionRich,2021.2.3,59.93288715126645,
131.0,131.75,15,0.75,Stimuli/P020/sun_bkubdnohuakmwcaj.jpg,0,0,0.0,0,224,224,224,,,,,,,,,,,,,131.0160551999943,0.016055199994298164,None,168.75364139999874,168.75364139999874,168.75364139999874,168.75364139999874,168.75364139999874,168.75364139999874,168.75364139999874,168.75364139999874,168.75364139999874,168.75364139999874,,004,P020,2025_May_06_1709,ConditionRich,2021.2.3,59.93288715126645,
131.75,132.0,41,0.0,Stimuli/Blank.png,0,0,0.0,0,225,225,225,,,,,,,,,,,,,131.76605549999658,0.016055499996582512,None,169.48763450000115,169.48763450000115,169.48763450000115,169.48763450000115,169.48763450000115,169.48763450000115,169.48763450000115,169.48763450000115,169.48763450000115,169.48763450000115,,004,P020,2025_May_06_1709,ConditionRich,2021.2.3,59.93288715126645,
132.0,132.75,38,0.75,Stimuli/P020/things_turtle_10n.jpg,0,0,0.0,0,226,226,226,,,,,,,,,,,,,131.99956749999546,-0.00043250000453554094,None,169.72115900000063,169.72115900000063,169.72115900000063,169.72115900000063,169.72115900000063,169.72115900000063,169.72115900000063,169.72115900000063,169.72115900000063,169.72115900000063,,004,P020,2025_May_06_1709,ConditionRich,2021.2.3,59.93288715126645,
132.75,133.0,41,0.0,Stimuli/Blank.png,0,0,0.0,0,227,227,227,,,,,,,,,,,,,132.75225469999714,0.002254699997138232,None,170.4885374000005,170.4885374000005,170.4885374000005,170.4885374000005,170.4885374000005,170.4885374000005,170.4885374000005,170.4885374000005,170.4885374000005,170.4885374000005,,004,P020,2025_May_06_1709,ConditionRich,2021.2.3,59.93288715126645,
133.0,133.75,38,0.75,Stimuli/P020/things_turtle_10n.jpg,0,0,0.0,0,228,228,228,,,,,,,,,,,,,133.01834550000058,0.018345500000577886,None,170.75543650000327,170.75543650000327,170.75543650000327,170.75543650000327,170.75543650000327,170.75543650000327,170.75543650000327,170.75543650000327,170.75543650000327,170.75543650000327,,004,P020,2025_May_06_1709,ConditionRich,2021.2.3,59.93288715126645,
133.75,134.0,41,0.0,Stimuli/Blank.png,0,0,0.0,0,229,229,229,,,,,,,,,,,,,133.7673231000008,0.01732310000079451,None,171.48939650000102,171.48939650000102,171.48939650000102,171.48939650000102,171.48939650000102,171.48939650000102,171.48939650000102,171.48939650000102,171.48939650000102,171.48939650000102,,004,P020,2025_May_06_1709,ConditionRich,2021.2.3,59.93288715126645,
134.0,134.75,38,0.75,Stimuli/P020/things_turtle_10n.jpg,0,0,0.0,0,230,230,230,,,,,,,,,,,,,134.00061679999635,0.0006167999963508919,None,171.72293160000117,171.72293160000117,171.72293160000117,171.72293160000117,171.72293160000117,171.72293160000117,171.72293160000117,171.72293160000117,171.72293160000117,171.72293160000117,,004,P020,2025_May_06_1709,ConditionRich,2021.2.3,59.93288715126645,
134.75,135.0,41,0.0,Stimuli/Blank.png,0,0,0.0,0,231,231,231,,,,,,,,,,,,,134.75188389999676,0.0018838999967556447,None,172.47359609999694,172.47359609999694,172.47359609999694,172.47359609999694,172.47359609999694,172.47359609999694,172.47359609999694,172.47359609999694,172.47359609999694,172.47359609999694,,004,P020,2025_May_06_1709,ConditionRich,2021.2.3,59.93288715126645,
135.0,135.75,38,0.75,Stimuli/P020/things_turtle_10n.jpg,0,0,0.0,0,232,232,232,,,,,,,,,,,,,135.0016589999941,0.001658999994106125,None,172.72381840000162,172.72381840000162,172.72381840000162,172.72381840000162,172.72381840000162,172.72381840000162,172.72381840000162,172.72381840000162,172.72381840000162,172.72381840000162,,004,P020,2025_May_06_1709,ConditionRich,2021.2.3,59.93288715126645,
135.75,136.0,41,0.0,Stimuli/Blank.png,0,0,0.0,0,233,233,233,,,,,,,,,,,,,135.75276350000058,0.002763500000583008,None,173.4744864000022,173.4744864000022,173.4744864000022,173.4744864000022,173.4744864000022,173.4744864000022,173.4744864000022,173.4744864000022,173.4744864000022,173.4744864000022,,004,P020,2025_May_06_1709,ConditionRich,2021.2.3,59.93288715126645,
136.0,136.75,4,0.75,Stimuli/P020/sun_amixpbnrxiulfsri.jpg,0,0,0.0,0,234,234,234,,,,,,,,,,,,,136.0026665999976,0.0026665999976103194,None,173.7247062000024,173.7247062000024,173.7247062000024,173.7247062000024,173.7247062000024,173.7247062000024,173.7247062000024,173.7247062000024,173.7247062000024,173.7247062000024,,004,P020,2025_May_06_1709,ConditionRich,2021.2.3,59.93288715126645,
136.75,137.0,41,0.0,Stimuli/Blank.png,0,0,0.0,0,235,235,235,,,,,,,,,,,,,136.75326109999878,0.003261099998780992,None,174.47557249999954,174.47557249999954,174.47557249999954,174.47557249999954,174.47557249999954,174.47557249999954,174.47557249999954,174.47557249999954,174.47557249999954,174.47557249999954,,004,P020,2025_May_06_1709,ConditionRich,2021.2.3,59.93288715126645,
137.0,137.75,4,0.75,Stimuli/P020/sun_amixpbnrxiulfsri.jpg,0,0,0.0,0,236,236,236,,,,,,,,,,,,,137.0034902999978,0.003490299997793045,None,174.72558549999667,174.72558549999667,174.72558549999667,174.72558549999667,174.72558549999667,174.72558549999667,174.72558549999667,174.72558549999667,174.72558549999667,174.72558549999667,,004,P020,2025_May_06_1709,ConditionRich,2021.2.3,59.93288715126645,
137.75,138.0,41,0.0,Stimuli/Blank.png,0,0,0.0,0,237,237,237,,,,,,,,,,,,,137.75397379999777,0.0039737999977660365,None,175.47625700000208,175.47625700000208,175.47625700000208,175.47625700000208,175.47625700000208,175.47625700000208,175.47625700000208,175.47625700000208,175.47625700000208,175.47625700000208,,004,P020,2025_May_06_1709,ConditionRich,2021.2.3,59.93288715126645,
138.0,138.75,4,0.75,Stimuli/P020/sun_amixpbnrxiulfsri.jpg,0,0,0.0,0,238,238,238,,,,,,,,,,,,,138.00431939999544,0.004319399995438289,None,175.74316499999986,175.74316499999986,175.74316499999986,175.74316499999986,175.74316499999986,175.74316499999986,175.74316499999986,175.74316499999986,175.74316499999986,175.74316499999986,,004,P020,2025_May_06_1709,ConditionRich,2021.2.3,59.93288715126645,
138.75,139.0,41,0.0,Stimuli/Blank.png,0,0,0.0,0,239,239,239,,,,,,,,,,,,,138.7722470000008,0.02224700000078883,None,176.49381449999782,176.49381449999782,176.49381449999782,176.49381449999782,176.49381449999782,176.49381449999782,176.49381449999782,176.49381449999782,176.49381449999782,176.49381449999782,,004,P020,2025_May_06_1709,ConditionRich,2021.2.3,59.93288715126645,
139.0,139.75,4,0.75,Stimuli/P020/sun_amixpbnrxiulfsri.jpg,1,0,0.75,0,240,240,240,,,,,,,,,,,,,139.0080564999953,0.008056499995291233,1,176.74404469999718,176.74404469999718,176.74404469999718,176.74404469999718,176.74404469999718,176.74404469999718,176.74404469999718,177.4780271999989,176.74404469999718,176.74404469999718,0.49938269999984186,004,P020,2025_May_06_1709,ConditionRich,2021.2.3,59.93288715126645,
139.75,140.0,41,0.0,Stimuli/Blank.png,0,0,0.0,0,241,241,241,,,,,,,,,,,,,139.77324329999828,0.023243299998284783,None,177.49470779999683,177.49470779999683,177.49470779999683,177.49470779999683,177.49470779999683,177.49470779999683,177.49470779999683,177.49470779999683,177.49470779999683,177.49470779999683,,004,P020,2025_May_06_1709,ConditionRich,2021.2.3,59.93288715126645,
140.0,140.75,25,0.75,Stimuli/P020/things_chime_10s.jpg,0,0,0.0,0,242,242,242,,,,,,,,,,,,,140.00593609999487,0.005936099994869437,None,177.72824959999707,177.72824959999707,177.72824959999707,177.72824959999707,177.72824959999707,177.72824959999707,177.72824959999707,177.72824959999707,177.72824959999707,177.72824959999707,,004,P020,2025_May_06_1709,ConditionRich,2021.2.3,59.93288715126645,
140.75,141.0,41,0.0,Stimuli/Blank.png,0,0,0.0,0,243,243,243,,,,,,,,,,,,,140.75730420000036,0.007304200000362471,None,178.4789333000008,178.4789333000008,178.4789333000008,178.4789333000008,178.4789333000008,178.4789333000008,178.4789333000008,178.4789333000008,178.4789333000008,178.4789333000008,,004,P020,2025_May_06_1709,ConditionRich,2021.2.3,59.93288715126645,
141.0,141.75,25,0.75,Stimuli/P020/things_chime_10s.jpg,0,0,0.0,0,244,244,244,,,,,,,,,,,,,141.00840600000083,0.008406000000832137,None,178.7458123999968,178.7458123999968,178.7458123999968,178.7458123999968,178.7458123999968,178.7458123999968,178.7458123999968,178.7458123999968,178.7458123999968,178.7458123999968,,004,P020,2025_May_06_1709,ConditionRich,2021.2.3,59.93288715126645,
141.75,142.0,41,0.0,Stimuli/Blank.png,0,0,0.0,0,245,245,245,,,,,,,,,,,,,141.77421189999586,0.02421189999586204,None,179.4964736999973,179.4964736999973,179.4964736999973,179.4964736999973,179.4964736999973,179.4964736999973,179.4964736999973,179.4964736999973,179.4964736999973,179.4964736999973,,004,P020,2025_May_06_1709,ConditionRich,2021.2.3,59.93288715126645,
142.0,142.75,25,0.75,Stimuli/P020/things_chime_10s.jpg,0,0,0.0,0,246,246,246,,,,,,,,,,,,,142.00855659999797,0.008556599997973535,None,179.73001490000024,179.73001490000024,179.73001490000024,179.73001490000024,179.73001490000024,179.73001490000024,179.73001490000024,179.73001490000024,179.73001490000024,179.73001490000024,,004,P020,2025_May_06_1709,ConditionRich,2021.2.3,59.93288715126645,
142.75,143.0,41,0.0,Stimuli/Blank.png,0,0,0.0,0,247,247,247,,,,,,,,,,,,,142.75833679999778,0.008336799997778144,None,180.48068280000007,180.48068280000007,180.48068280000007,180.48068280000007,180.48068280000007,180.48068280000007,180.48068280000007,180.48068280000007,180.48068280000007,180.48068280000007,,004,P020,2025_May_06_1709,ConditionRich,2021.2.3,59.93288715126645,
143.0,143.75,25,0.75,Stimuli/P020/things_chime_10s.jpg,0,0,0.0,0,248,248,248,,,,,,,,,,,,,143.0087385999941,0.008738599994103424,None,180.73090290000255,180.73090290000255,180.73090290000255,180.73090290000255,180.73090290000255,180.73090290000255,180.73090290000255,180.73090290000255,180.73090290000255,180.73090290000255,,004,P020,2025_May_06_1709,ConditionRich,2021.2.3,59.93288715126645,
143.75,144.0,41,0.0,Stimuli/Blank.png,0,0,0.0,0,249,249,249,,,,,,,,,,,,,143.75916339999822,0.009163399998215027,None,181.48156860000017,181.48156860000017,181.48156860000017,181.48156860000017,181.48156860000017,181.48156860000017,181.48156860000017,181.48156860000017,181.48156860000017,181.48156860000017,,004,P020,2025_May_06_1709,ConditionRich,2021.2.3,59.93288715126645,
144.0,144.75,20,0.75,Stimuli/P020/sun_dlnwonqxagdvtlta.jpg,0,0,0.0,0,250,250,250,,,,,,,,,,,,,144.0097769999993,0.00977699999930337,None,181.7317922000002,181.7317922000002,181.7317922000002,181.7317922000002,181.7317922000002,181.7317922000002,181.7317922000002,181.7317922000002,181.7317922000002,181.7317922000002,,004,P020,2025_May_06_1709,ConditionRich,2021.2.3,59.93288715126645,
144.75,145.0,41,0.0,Stimuli/Blank.png,0,0,0.0,0,251,251,251,,,,,,,,,,,,,144.76227690000087,0.012276900000870228,None,182.49914810000337,182.49914810000337,182.49914810000337,182.49914810000337,182.49914810000337,182.49914810000337,182.49914810000337,182.49914810000337,182.49914810000337,182.49914810000337,,004,P020,2025_May_06_1709,ConditionRich,2021.2.3,59.93288715126645,
145.0,145.75,20,0.75,Stimuli/P020/sun_dlnwonqxagdvtlta.jpg,0,0,0.0,0,252,252,252,,,,,,,,,,,,,145.02856679999968,0.02856679999968037,None,182.76603969999996,182.76603969999996,182.76603969999996,182.76603969999996,182.76603969999996,182.76603969999996,182.76603969999996,182.76603969999996,182.76603969999996,182.76603969999996,,004,P020,2025_May_06_1709,ConditionRich,2021.2.3,59.93288715126645,
145.75,146.0,41,0.0,Stimuli/Blank.png,0,0,0.0,0,253,253,253,,,,,,,,,,,,,145.77772819999518,0.027728199995181058,None,183.50002210000093,183.50002210000093,183.50002210000093,183.50002210000093,183.50002210000093,183.50002210000093,183.50002210000093,183.50002210000093,183.50002210000093,183.50002210000093,,004,P020,2025_May_06_1709,ConditionRich,2021.2.3,59.93288715126645,
146.0,146.75,20,0.75,Stimuli/P020/sun_dlnwonqxagdvtlta.jpg,0,0,0.0,0,254,254,254,,,,,,,,,,,,,146.01157959999546,0.011579599995457102,None,183.73356030000286,183.73356030000286,183.73356030000286,183.73356030000286,183.73356030000286,183.73356030000286,183.73356030000286,183.73356030000286,183.73356030000286,183.73356030000286,,004,P020,2025_May_06_1709,ConditionRich,2021.2.3,59.93288715126645,
146.75,147.0,41,0.0,Stimuli/Blank.png,0,0,0.0,0,255,255,255,,,,,,,,,,,,,146.7625795999993,0.012579599999298807,None,184.4842260000005,184.4842260000005,184.4842260000005,184.4842260000005,184.4842260000005,184.4842260000005,184.4842260000005,184.4842260000005,184.4842260000005,184.4842260000005,,004,P020,2025_May_06_1709,ConditionRich,2021.2.3,59.93288715126645,
147.0,147.75,20,0.75,Stimuli/P020/sun_dlnwonqxagdvtlta.jpg,0,0,0.0,0,256,256,256,,,,,,,,,,,,,147.01233800000045,0.012338000000454485,None,184.73444839999866,184.73444839999866,184.73444839999866,184.73444839999866,184.73444839999866,184.73444839999866,184.73444839999866,184.73444839999866,184.73444839999866,184.73444839999866,,004,P020,2025_May_06_1709,ConditionRich,2021.2.3,59.93288715126645,
147.75,148.0,41,0.0,Stimuli/Blank.png,0,0,0.0,0,257,257,257,,,,,,,,,,,,,147.7634137999994,0.01341379999939818,None,185.4851118000006,185.4851118000006,185.4851118000006,185.4851118000006,185.4851118000006,185.4851118000006,185.4851118000006,185.4851118000006,185.4851118000006,185.4851118000006,,004,P020,2025_May_06_1709,ConditionRich,2021.2.3,59.93288715126645,
148.0,148.75,30,0.75,Stimuli/P020/things_flip_flop_10s.jpg,0,0,0.0,0,258,258,258,,,,,,,,,,,,,148.01321189999726,0.013211899997259025,None,185.75202520000312,185.75202520000312,185.75202520000312,185.75202520000312,185.75202520000312,185.75202520000312,185.75202520000312,185.75202520000312,185.75202520000312,185.75202520000312,,004,P020,2025_May_06_1709,ConditionRich,2021.2.3,59.93288715126645,
148.75,149.0,41,0.0,Stimuli/Blank.png,0,0,0.0,0,259,259,259,,,,,,,,,,,,,148.78174189999845,0.03174189999845112,None,186.50270940000337,186.50270940000337,186.50270940000337,186.50270940000337,186.50270940000337,186.50270940000337,186.50270940000337,186.50270940000337,186.50270940000337,186.50270940000337,,004,P020,2025_May_06_1709,ConditionRich,2021.2.3,59.93288715126645,
149.0,149.75,30,0.75,Stimuli/P020/things_flip_flop_10s.jpg,0,0,0.0,0,260,260,260,,,,,,,,,,,,,149.0143764999957,0.014376499995705672,None,186.75290769999992,186.75290769999992,186.75290769999992,186.75290769999992,186.75290769999992,186.75290769999992,186.75290769999992,186.75290769999992,186.75290769999992,186.75290769999992,,004,P020,2025_May_06_1709,ConditionRich,2021.2.3,59.93288715126645,
149.75,150.0,41,0.0,Stimuli/Blank.png,0,0,0.0,0,261,261,261,,,,,,,,,,,,,149.78194589999475,0.031945899994752835,None,187.50356750000356,187.50356750000356,187.50356750000356,187.50356750000356,187.50356750000356,187.50356750000356,187.50356750000356,187.50356750000356,187.50356750000356,187.50356750000356,,004,P020,2025_May_06_1709,ConditionRich,2021.2.3,59.93288715126645,
