eventStartTime,eventEndTime,eventCond,imSize,imFile,responseEvent,fixRespStart,fixRespEnd,Events.thisRepN,Events.thisTrialN,Events.thisN,Events.thisIndex,Instructions.started,Instructions.stopped,participantReadyResponse.keys,participantReadyResponse.rt,participantReadyResponse.started,participantReadyResponse.stopped,startWaitforTrigger,triggerResponse.keys,triggerResponse.rt,triggerResponse.started,triggerResponse.stopped,globalTimer,actualStartTime,startTimingDiff,participantResponse.keys,participantResponse.started,participantResponse.stopped,image.started,image.stopped,fixationOutside.started,fixationOutside.stopped,fixationResponse.started,fixationResponse.stopped,fixationInside.started,fixationInside.stopped,participantResponse.rt,session,participant,date,expName,psychopyVersion,frameRate,
,,,,,,,,,,,,12.789703400005237,None,1,12.208424800002831,12.789703400005237,None,,,,,,,,,,,,,,,,,,,,,007,P020,2025_May_06_1737,ConditionRich,2021.2.3,59.93418028351918,
,,,,,,,,,,,,,,,,,,25.008307299998705,5,14.849554799999169,25.02093800000148,None,,,,,,,,,,,,,,,,007,P020,2025_May_06_1737,ConditionRich,2021.2.3,59.93418028351918,
0.0,4.0,0,0.0,Stimuli/Blank.png,0,0,0.0,0,0,0,0,,,,,,,,,,,,39.88666660000308,0.05995919999986654,0.05995919999986654,None,39.96742810000433,None,39.96742810000433,None,39.96742810000433,None,39.96742810000433,39.96742810000433,39.96742810000433,None,,007,P020,2025_May_06_1737,ConditionRich,2021.2.3,59.93418028351918,
4.0,4.75,9,0.75,Stimuli/P020/sun_bbfmuujfvpiaqdww.jpg,0,0,0.0,0,1,1,1,,,,,,,,,,,,,4.025661700005003,0.025661700005002785,None,43.93802040000446,43.93802040000446,43.93802040000446,43.93802040000446,43.93802040000446,43.93802040000446,43.93802040000446,43.93802040000446,43.93802040000446,43.93802040000446,,007,P020,2025_May_06_1737,ConditionRich,2021.2.3,59.93418028351918,
4.75,5.0,41,0.0,Stimuli/Blank.png,0,0,0.0,0,2,2,2,,,,,,,,,,,,,4.771225600001344,0.02122560000134399,None,44.67190660000051,44.67190660000051,44.67190660000051,44.67190660000051,44.67190660000051,44.67190660000051,44.67190660000051,44.67190660000051,44.67190660000051,44.67190660000051,,007,P020,2025_May_06_1737,ConditionRich,2021.2.3,59.93418028351918,
5.0,5.75,9,0.75,Stimuli/P020/sun_bbfmuujfvpiaqdww.jpg,0,0,0.0,0,3,3,3,,,,,,,,,,,,,5.003790900002059,0.003790900002059061,None,44.92181849999906,44.92181849999906,44.92181849999906,44.92181849999906,44.92181849999906,44.92181849999906,44.92181849999906,44.92181849999906,44.92181849999906,44.92181849999906,,007,P020,2025_May_06_1737,ConditionRich,2021.2.3,59.93418028351918,
5.75,6.0,41,0.0,Stimuli/Blank.png,0,0,0.0,0,4,4,4,,,,,,,,,,,,,5.772723499998392,0.02272349999839207,None,45.6725471000027,45.6725471000027,45.6725471000027,45.6725471000027,45.6725471000027,45.6725471000027,45.6725471000027,45.6725471000027,45.6725471000027,45.6725471000027,,007,P020,2025_May_06_1737,ConditionRich,2021.2.3,59.93418028351918,
6.0,6.75,9,0.75,Stimuli/P020/sun_bbfmuujfvpiaqdww.jpg,0,0,0.0,0,5,5,5,,,,,,,,,,,,,6.005937400004768,0.0059374000047682784,None,45.92269110000052,45.92269110000052,45.92269110000052,45.92269110000052,45.92269110000052,45.92269110000052,45.92269110000052,45.92269110000052,45.92269110000052,45.92269110000052,,007,P020,2025_May_06_1737,ConditionRich,2021.2.3,59.93418028351918,
6.75,7.0,41,0.0,Stimuli/Blank.png,0,0,0.0,0,6,6,6,,,,,,,,,,,,,6.772684299998218,0.022684299998218194,None,46.673354099999415,46.673354099999415,46.673354099999415,46.673354099999415,46.673354099999415,46.673354099999415,46.673354099999415,46.673354099999415,46.673354099999415,46.673354099999415,,007,P020,2025_May_06_1737,ConditionRich,2021.2.3,59.93418028351918,
7.0,7.75,9,0.75,Stimuli/P020/sun_bbfmuujfvpiaqdww.jpg,0,0,0.0,0,7,7,7,,,,,,,,,,,,,7.0055907999994815,0.005590799999481533,None,46.90689430000202,46.90689430000202,46.90689430000202,46.90689430000202,46.90689430000202,46.90689430000202,46.90689430000202,46.90689430000202,46.90689430000202,46.90689430000202,,007,P020,2025_May_06_1737,ConditionRich,2021.2.3,59.93418028351918,
7.75,8.0,41,0.0,Stimuli/Blank.png,0,0,0.0,0,8,8,8,,,,,,,,,,,,,7.757158400003391,0.007158400003390852,None,47.65756749999855,47.65756749999855,47.65756749999855,47.65756749999855,47.65756749999855,47.65756749999855,47.65756749999855,47.65756749999855,47.65756749999855,47.65756749999855,,007,P020,2025_May_06_1737,ConditionRich,2021.2.3,59.93418028351918,
8.0,8.75,39,0.75,Stimuli/P020/things_wire_10s.jpg,0,0,0.0,0,9,9,9,,,,,,,,,,,,,8.00733290000062,0.007332900000619702,None,47.90778390000196,47.90778390000196,47.90778390000196,47.90778390000196,47.90778390000196,47.90778390000196,47.90778390000196,47.90778390000196,47.90778390000196,47.90778390000196,,007,P020,2025_May_06_1737,ConditionRich,2021.2.3,59.93418028351918,
8.75,9.0,41,0.0,Stimuli/Blank.png,0,0,0.0,0,10,10,10,,,,,,,,,,,,,8.75800999999774,0.008009999997739214,None,48.65843860000314,48.65843860000314,48.65843860000314,48.65843860000314,48.65843860000314,48.65843860000314,48.65843860000314,48.65843860000314,48.65843860000314,48.65843860000314,,007,P020,2025_May_06_1737,ConditionRich,2021.2.3,59.93418028351918,
9.0,9.75,39,0.75,Stimuli/P020/things_wire_10s.jpg,0,0,0.0,0,11,11,11,,,,,,,,,,,,,9.007564999999886,0.007564999999885913,None,48.9086685000002,48.9086685000002,48.9086685000002,48.9086685000002,48.9086685000002,48.9086685000002,48.9086685000002,48.9086685000002,48.9086685000002,48.9086685000002,,007,P020,2025_May_06_1737,ConditionRich,2021.2.3,59.93418028351918,
9.75,10.0,41,0.0,Stimuli/Blank.png,0,0,0.0,0,12,12,12,,,,,,,,,,,,,9.758734499999264,0.00873449999926379,None,49.65933880000375,49.65933880000375,49.65933880000375,49.65933880000375,49.65933880000375,49.65933880000375,49.65933880000375,49.65933880000375,49.65933880000375,49.65933880000375,,007,P020,2025_May_06_1737,ConditionRich,2021.2.3,59.93418028351918,
10.0,10.75,39,0.75,Stimuli/P020/things_wire_10s.jpg,0,0,0.0,0,13,13,13,,,,,,,,,,,,,10.008826900004351,0.008826900004351046,None,49.9095496000009,49.9095496000009,49.9095496000009,49.9095496000009,49.9095496000009,49.9095496000009,49.9095496000009,49.9095496000009,49.9095496000009,49.9095496000009,,007,P020,2025_May_06_1737,ConditionRich,2021.2.3,59.93418028351918,
10.75,11.0,41,0.0,Stimuli/Blank.png,0,0,0.0,0,14,14,14,,,,,,,,,,,,,10.758935300000303,0.00893530000030296,None,50.660209900001064,50.660209900001064,50.660209900001064,50.660209900001064,50.660209900001064,50.660209900001064,50.660209900001064,50.660209900001064,50.660209900001064,50.660209900001064,,007,P020,2025_May_06_1737,ConditionRich,2021.2.3,59.93418028351918,
11.0,11.75,39,0.75,Stimuli/P020/things_wire_10s.jpg,0,0,0.0,0,15,15,15,,,,,,,,,,,,,11.009957100002794,0.009957100002793595,None,50.927136999998766,50.927136999998766,50.927136999998766,50.927136999998766,50.927136999998766,50.927136999998766,50.927136999998766,50.927136999998766,50.927136999998766,50.927136999998766,,007,P020,2025_May_06_1737,ConditionRich,2021.2.3,59.93418028351918,
11.75,12.0,41,0.0,Stimuli/Blank.png,0,0,0.0,0,16,16,16,,,,,,,,,,,,,11.777175800001714,0.02717580000171438,None,51.67777660000138,51.67777660000138,51.67777660000138,51.67777660000138,51.67777660000138,51.67777660000138,51.67777660000138,51.67777660000138,51.67777660000138,51.67777660000138,,007,P020,2025_May_06_1737,ConditionRich,2021.2.3,59.93418028351918,
12.0,12.75,20,0.75,Stimuli/P020/sun_dlnwonqxagdvtlta.jpg,0,0,0.0,0,17,17,17,,,,,,,,,,,,,12.012268700003915,0.012268700003915,None,51.92803410000488,51.92803410000488,51.92803410000488,51.92803410000488,51.92803410000488,51.92803410000488,51.92803410000488,51.92803410000488,51.92803410000488,51.92803410000488,,007,P020,2025_May_06_1737,ConditionRich,2021.2.3,59.93418028351918,
12.75,13.0,41,0.0,Stimuli/Blank.png,0,0,0.0,0,18,18,18,,,,,,,,,,,,,12.777572500002861,0.02757250000286149,None,52.67866850000428,52.67866850000428,52.67866850000428,52.67866850000428,52.67866850000428,52.67866850000428,52.67866850000428,52.67866850000428,52.67866850000428,52.67866850000428,,007,P020,2025_May_06_1737,ConditionRich,2021.2.3,59.93418028351918,
13.0,13.75,20,0.75,Stimuli/P020/sun_dlnwonqxagdvtlta.jpg,0,0,0.0,0,19,19,19,,,,,,,,,,,,,13.01160080000409,0.011600800004089251,None,52.912204300002486,52.912204300002486,52.912204300002486,52.912204300002486,52.912204300002486,52.912204300002486,52.912204300002486,52.912204300002486,52.912204300002486,52.912204300002486,,007,P020,2025_May_06_1737,ConditionRich,2021.2.3,59.93418028351918,
13.75,14.0,41,0.0,Stimuli/Blank.png,0,0,0.0,0,20,20,20,,,,,,,,,,,,,13.763741399998253,0.013741399998252746,None,53.662907700003416,53.662907700003416,53.662907700003416,53.662907700003416,53.662907700003416,53.662907700003416,53.662907700003416,53.662907700003416,53.662907700003416,53.662907700003416,,007,P020,2025_May_06_1737,ConditionRich,2021.2.3,59.93418028351918,
14.0,14.75,20,0.75,Stimuli/P020/sun_dlnwonqxagdvtlta.jpg,0,0,0.0,0,21,21,21,,,,,,,,,,,,,14.011983600001258,0.01198360000125831,None,53.913096700001915,53.913096700001915,53.913096700001915,53.913096700001915,53.913096700001915,53.913096700001915,53.913096700001915,53.913096700001915,53.913096700001915,53.913096700001915,,007,P020,2025_May_06_1737,ConditionRich,2021.2.3,59.93418028351918,
14.75,15.0,41,0.0,Stimuli/Blank.png,0,0,0.0,0,22,22,22,,,,,,,,,,,,,14.762600800000655,0.012600800000655,None,54.663764900004026,54.663764900004026,54.663764900004026,54.663764900004026,54.663764900004026,54.663764900004026,54.663764900004026,54.663764900004026,54.663764900004026,54.663764900004026,,007,P020,2025_May_06_1737,ConditionRich,2021.2.3,59.93418028351918,
15.0,15.75,20,0.75,Stimuli/P020/sun_dlnwonqxagdvtlta.jpg,0,0,0.0,0,23,23,23,,,,,,,,,,,,,15.012814000001526,0.012814000001526438,None,54.913978399999905,54.913978399999905,54.913978399999905,54.913978399999905,54.913978399999905,54.913978399999905,54.913978399999905,54.913978399999905,54.913978399999905,54.913978399999905,,007,P020,2025_May_06_1737,ConditionRich,2021.2.3,59.93418028351918,
15.75,16.0,41,0.0,Stimuli/Blank.png,0,0,0.0,0,24,24,24,,,,,,,,,,,,,15.763378000003286,0.013378000003285706,None,55.66465080000489,55.66465080000489,55.66465080000489,55.66465080000489,55.66465080000489,55.66465080000489,55.66465080000489,55.66465080000489,55.66465080000489,55.66465080000489,,007,P020,2025_May_06_1737,ConditionRich,2021.2.3,59.93418028351918,
16.0,16.75,4,0.75,Stimuli/P020/sun_amixpbnrxiulfsri.jpg,0,0,0.0,0,25,25,25,,,,,,,,,,,,,16.016149600000062,0.016149600000062492,None,55.931559900003776,55.931559900003776,55.931559900003776,55.931559900003776,55.931559900003776,55.931559900003776,55.931559900003776,55.931559900003776,55.931559900003776,55.931559900003776,,007,P020,2025_May_06_1737,ConditionRich,2021.2.3,59.93418028351918,
16.75,17.0,41,0.0,Stimuli/Blank.png,0,0,0.0,0,26,26,26,,,,,,,,,,,,,16.76693840000371,0.01693840000370983,None,56.68221900000208,56.68221900000208,56.68221900000208,56.68221900000208,56.68221900000208,56.68221900000208,56.68221900000208,56.68221900000208,56.68221900000208,56.68221900000208,,007,P020,2025_May_06_1737,ConditionRich,2021.2.3,59.93418028351918,
17.0,17.75,4,0.75,Stimuli/P020/sun_amixpbnrxiulfsri.jpg,0,0,0.0,0,27,27,27,,,,,,,,,,,,,17.016716600002837,0.016716600002837367,None,56.9324465000027,56.9324465000027,56.9324465000027,56.9324465000027,56.9324465000027,56.9324465000027,56.9324465000027,56.9324465000027,56.9324465000027,56.9324465000027,,007,P020,2025_May_06_1737,ConditionRich,2021.2.3,59.93418028351918,
17.75,18.0,41,0.0,Stimuli/Blank.png,0,0,0.0,0,28,28,28,,,,,,,,,,,,,17.765859099999943,0.015859099999943282,None,57.66642729999876,57.66642729999876,57.66642729999876,57.66642729999876,57.66642729999876,57.66642729999876,57.66642729999876,57.66642729999876,57.66642729999876,57.66642729999876,,007,P020,2025_May_06_1737,ConditionRich,2021.2.3,59.93418028351918,
18.0,18.75,4,0.75,Stimuli/P020/sun_amixpbnrxiulfsri.jpg,1,0,0.75,0,29,29,29,,,,,,,,,,,,,17.999223400001938,-0.0007765999980620109,1,57.899962499999674,57.899962499999674,57.899962499999674,57.899962499999674,57.899962499999674,57.899962499999674,57.899962499999674,58.634013399998366,57.899962499999674,57.899962499999674,0.4283981999979005,007,P020,2025_May_06_1737,ConditionRich,2021.2.3,59.93418028351918,
18.75,19.0,41,0.0,Stimuli/Blank.png,0,0,0.0,0,30,30,30,,,,,,,,,,,,,18.752386200001638,0.002386200001637917,None,58.66731599999912,58.66731599999912,58.66731599999912,58.66731599999912,58.66731599999912,58.66731599999912,58.66731599999912,58.66731599999912,58.66731599999912,58.66731599999912,,007,P020,2025_May_06_1737,ConditionRich,2021.2.3,59.93418028351918,
19.0,19.75,4,0.75,Stimuli/P020/sun_amixpbnrxiulfsri.jpg,0,0,0.0,0,31,31,31,,,,,,,,,,,,,19.01626290000422,0.016262900004221592,None,58.91751820000354,58.91751820000354,58.91751820000354,58.91751820000354,58.91751820000354,58.91751820000354,58.91751820000354,58.91751820000354,58.91751820000354,58.91751820000354,,007,P020,2025_May_06_1737,ConditionRich,2021.2.3,59.93418028351918,
19.75,20.0,41,0.0,Stimuli/Blank.png,0,0,0.0,0,32,32,32,,,,,,,,,,,,,19.75141390000499,0.0014139000049908645,None,59.65151889999834,59.65151889999834,59.65151889999834,59.65151889999834,59.65151889999834,59.65151889999834,59.65151889999834,59.65151889999834,59.65151889999834,59.65151889999834,,007,P020,2025_May_06_1737,ConditionRich,2021.2.3,59.93418028351918,
20.0,20.75,22,0.75,Stimuli/P020/things_bead_10s.jpg,0,0,0.0,0,33,33,33,,,,,,,,,,,,,20.000494500003697,0.000494500003696885,None,59.9017479000031,59.9017479000031,59.9017479000031,59.9017479000031,59.9017479000031,59.9017479000031,59.9017479000031,59.9017479000031,59.9017479000031,59.9017479000031,,007,P020,2025_May_06_1737,ConditionRich,2021.2.3,59.93418028351918,
20.75,21.0,41,0.0,Stimuli/Blank.png,0,0,0.0,0,34,34,34,,,,,,,,,,,,,20.752003300003707,0.002003300003707409,None,60.65240430000267,60.65240430000267,60.65240430000267,60.65240430000267,60.65240430000267,60.65240430000267,60.65240430000267,60.65240430000267,60.65240430000267,60.65240430000267,,007,P020,2025_May_06_1737,ConditionRich,2021.2.3,59.93418028351918,
21.0,21.75,22,0.75,Stimuli/P020/things_bead_10s.jpg,0,0,0.0,0,35,35,35,,,,,,,,,,,,,21.002328800001123,0.0023288000011234544,None,60.91931299999851,60.91931299999851,60.91931299999851,60.91931299999851,60.91931299999851,60.91931299999851,60.91931299999851,60.91931299999851,60.91931299999851,60.91931299999851,,007,P020,2025_May_06_1737,ConditionRich,2021.2.3,59.93418028351918,
21.75,22.0,41,0.0,Stimuli/Blank.png,0,0,0.0,0,36,36,36,,,,,,,,,,,,,21.768672800004424,0.01867280000442406,None,61.66998389999935,61.66998389999935,61.66998389999935,61.66998389999935,61.66998389999935,61.66998389999935,61.66998389999935,61.66998389999935,61.66998389999935,61.66998389999935,,007,P020,2025_May_06_1737,ConditionRich,2021.2.3,59.93418028351918,
22.0,22.75,22,0.75,Stimuli/P020/things_bead_10s.jpg,1,0,0.75,0,37,37,37,,,,,,,,,,,,,22.002917500001786,0.002917500001785811,1,61.920615399998496,61.920615399998496,61.920615399998496,61.920615399998496,61.920615399998496,61.920615399998496,61.920615399998496,62.63747990000411,61.920615399998496,61.920615399998496,0.40562040000077104,007,P020,2025_May_06_1737,ConditionRich,2021.2.3,59.93418028351918,
22.75,23.0,41,0.0,Stimuli/Blank.png,0,0,0.0,0,38,38,38,,,,,,,,,,,,,22.770998300002248,0.02099830000224756,None,62.670851000002585,62.670851000002585,62.670851000002585,62.670851000002585,62.670851000002585,62.670851000002585,62.670851000002585,62.670851000002585,62.670851000002585,62.670851000002585,,007,P020,2025_May_06_1737,ConditionRich,2021.2.3,59.93418028351918,
23.0,23.75,22,0.75,Stimuli/P020/things_bead_10s.jpg,0,0,0.0,0,39,39,39,,,,,,,,,,,,,23.00326550000318,0.0032655000031809323,None,62.90438010000071,62.90438010000071,62.90438010000071,62.90438010000071,62.90438010000071,62.90438010000071,62.90438010000071,62.90438010000071,62.90438010000071,62.90438010000071,,007,P020,2025_May_06_1737,ConditionRich,2021.2.3,59.93418028351918,
23.75,24.0,41,0.0,Stimuli/Blank.png,0,0,0.0,0,40,40,40,,,,,,,,,,,,,23.75664870000037,0.00664870000036899,None,63.67174180000438,63.67174180000438,63.67174180000438,63.67174180000438,63.67174180000438,63.67174180000438,63.67174180000438,63.67174180000438,63.67174180000438,63.67174180000438,,007,P020,2025_May_06_1737,ConditionRich,2021.2.3,59.93418028351918,
24.0,24.75,14,0.75,Stimuli/P020/sun_birvagufpcschyrr.jpg,0,0,0.0,0,41,41,41,,,,,,,,,,,,,24.021060200000647,0.021060200000647455,None,63.92194970000128,63.92194970000128,63.92194970000128,63.92194970000128,63.92194970000128,63.92194970000128,63.92194970000128,63.92194970000128,63.92194970000128,63.92194970000128,,007,P020,2025_May_06_1737,ConditionRich,2021.2.3,59.93418028351918,
24.75,25.0,41,0.0,Stimuli/Blank.png,0,0,0.0,0,42,42,42,,,,,,,,,,,,,24.755355500004953,0.0053555000049527735,None,64.6559797000009,64.6559797000009,64.6559797000009,64.6559797000009,64.6559797000009,64.6559797000009,64.6559797000009,64.6559797000009,64.6559797000009,64.6559797000009,,007,P020,2025_May_06_1737,ConditionRich,2021.2.3,59.93418028351918,
25.0,25.75,14,0.75,Stimuli/P020/sun_birvagufpcschyrr.jpg,0,0,0.0,0,43,43,43,,,,,,,,,,,,,25.00761500000226,0.0076150000022607855,None,64.92284210000071,64.92284210000071,64.92284210000071,64.92284210000071,64.92284210000071,64.92284210000071,64.92284210000071,64.92284210000071,64.92284210000071,64.92284210000071,,007,P020,2025_May_06_1737,ConditionRich,2021.2.3,59.93418028351918,
25.75,26.0,41,0.0,Stimuli/Blank.png,0,0,0.0,0,44,44,44,,,,,,,,,,,,,25.77239879999979,0.022398799999791663,None,65.67349890000332,65.67349890000332,65.67349890000332,65.67349890000332,65.67349890000332,65.67349890000332,65.67349890000332,65.67349890000332,65.67349890000332,65.67349890000332,,007,P020,2025_May_06_1737,ConditionRich,2021.2.3,59.93418028351918,
26.0,26.75,14,0.75,Stimuli/P020/sun_birvagufpcschyrr.jpg,0,0,0.0,0,45,45,45,,,,,,,,,,,,,26.0058130000034,0.005813000003399793,None,65.907008400005,65.907008400005,65.907008400005,65.907008400005,65.907008400005,65.907008400005,65.907008400005,65.907008400005,65.907008400005,65.907008400005,,007,P020,2025_May_06_1737,ConditionRich,2021.2.3,59.93418028351918,
26.75,27.0,41,0.0,Stimuli/Blank.png,0,0,0.0,0,46,46,46,,,,,,,,,,,,,26.756372900003043,0.006372900003043469,None,66.6577025000006,66.6577025000006,66.6577025000006,66.6577025000006,66.6577025000006,66.6577025000006,66.6577025000006,66.6577025000006,66.6577025000006,66.6577025000006,,007,P020,2025_May_06_1737,ConditionRich,2021.2.3,59.93418028351918,
27.0,27.75,14,0.75,Stimuli/P020/sun_birvagufpcschyrr.jpg,0,0,0.0,0,47,47,47,,,,,,,,,,,,,27.00738419999834,0.007384199998341501,None,66.92463770000177,66.92463770000177,66.92463770000177,66.92463770000177,66.92463770000177,66.92463770000177,66.92463770000177,66.92463770000177,66.92463770000177,66.92463770000177,,007,P020,2025_May_06_1737,ConditionRich,2021.2.3,59.93418028351918,
27.75,28.0,41,0.0,Stimuli/Blank.png,0,0,0.0,0,48,48,48,,,,,,,,,,,,,27.774869200002286,0.024869200002285652,None,67.67529070000455,67.67529070000455,67.67529070000455,67.67529070000455,67.67529070000455,67.67529070000455,67.67529070000455,67.67529070000455,67.67529070000455,67.67529070000455,,007,P020,2025_May_06_1737,ConditionRich,2021.2.3,59.93418028351918,
28.0,28.75,18,0.75,Stimuli/P020/sun_bodjbrgwzlshgypq.jpg,1,0,0.75,0,49,49,49,,,,,,,,,,,,,28.007586899999296,0.007586899999296293,1,67.90880580000521,67.90880580000521,67.90880580000521,67.90880580000521,67.90880580000521,67.90880580000521,67.90880580000521,68.64279270000407,67.90880580000521,67.90880580000521,0.3876980999993975,007,P020,2025_May_06_1737,ConditionRich,2021.2.3,59.93418028351918,
28.75,29.0,41,0.0,Stimuli/Blank.png,0,0,0.0,0,50,50,50,,,,,,,,,,,,,28.758483999998134,0.008483999998134095,None,68.65956050000386,68.65956050000386,68.65956050000386,68.65956050000386,68.65956050000386,68.65956050000386,68.65956050000386,68.65956050000386,68.65956050000386,68.65956050000386,,007,P020,2025_May_06_1737,ConditionRich,2021.2.3,59.93418028351918,
29.0,29.75,18,0.75,Stimuli/P020/sun_bodjbrgwzlshgypq.jpg,0,0,0.0,0,51,51,51,,,,,,,,,,,,,29.00858000000153,0.008580000001529697,None,68.90969990000303,68.90969990000303,68.90969990000303,68.90969990000303,68.90969990000303,68.90969990000303,68.90969990000303,68.90969990000303,68.90969990000303,68.90969990000303,,007,P020,2025_May_06_1737,ConditionRich,2021.2.3,59.93418028351918,
29.75,30.0,41,0.0,Stimuli/Blank.png,0,0,0.0,0,52,52,52,,,,,,,,,,,,,29.759865300002275,0.009865300002275035,None,69.66037499999948,69.66037499999948,69.66037499999948,69.66037499999948,69.66037499999948,69.66037499999948,69.66037499999948,69.66037499999948,69.66037499999948,69.66037499999948,,007,P020,2025_May_06_1737,ConditionRich,2021.2.3,59.93418028351918,
30.0,30.75,18,0.75,Stimuli/P020/sun_bodjbrgwzlshgypq.jpg,0,0,0.0,0,53,53,53,,,,,,,,,,,,,30.0094265000007,0.009426500000699889,None,69.9105813999995,69.9105813999995,69.9105813999995,69.9105813999995,69.9105813999995,69.9105813999995,69.9105813999995,69.9105813999995,69.9105813999995,69.9105813999995,,007,P020,2025_May_06_1737,ConditionRich,2021.2.3,59.93418028351918,
30.75,31.0,41,0.0,Stimuli/Blank.png,0,0,0.0,0,54,54,54,,,,,,,,,,,,,30.7606453000044,0.01064530000439845,None,70.6612449000022,70.6612449000022,70.6612449000022,70.6612449000022,70.6612449000022,70.6612449000022,70.6612449000022,70.6612449000022,70.6612449000022,70.6612449000022,,007,P020,2025_May_06_1737,ConditionRich,2021.2.3,59.93418028351918,
31.0,31.75,18,0.75,Stimuli/P020/sun_bodjbrgwzlshgypq.jpg,0,0,0.0,0,55,55,55,,,,,,,,,,,,,31.011263500004134,0.011263500004133675,None,70.92815720000362,70.92815720000362,70.92815720000362,70.92815720000362,70.92815720000362,70.92815720000362,70.92815720000362,70.92815720000362,70.92815720000362,70.92815720000362,,007,P020,2025_May_06_1737,ConditionRich,2021.2.3,59.93418028351918,
31.75,32.0,41,0.0,Stimuli/Blank.png,0,0,0.0,0,56,56,56,,,,,,,,,,,,,31.777578500004893,0.027578500004892703,None,71.67881540000235,71.67881540000235,71.67881540000235,71.67881540000235,71.67881540000235,71.67881540000235,71.67881540000235,71.67881540000235,71.67881540000235,71.67881540000235,,007,P020,2025_May_06_1737,ConditionRich,2021.2.3,59.93418028351918,
32.0,32.75,1,0.75,Stimuli/P020/sun_aaaidwecchadbake.jpg,0,0,0.0,0,57,57,57,,,,,,,,,,,,,32.0120476000011,0.012047600001096725,None,71.91238359999988,71.91238359999988,71.91238359999988,71.91238359999988,71.91238359999988,71.91238359999988,71.91238359999988,71.91238359999988,71.91238359999988,71.91238359999988,,007,P020,2025_May_06_1737,ConditionRich,2021.2.3,59.93418028351918,
32.75,33.0,41,0.0,Stimuli/Blank.png,0,0,0.0,0,58,58,58,,,,,,,,,,,,,32.76188640000328,0.011886400003277231,None,72.6630170999997,72.6630170999997,72.6630170999997,72.6630170999997,72.6630170999997,72.6630170999997,72.6630170999997,72.6630170999997,72.6630170999997,72.6630170999997,,007,P020,2025_May_06_1737,ConditionRich,2021.2.3,59.93418028351918,
33.0,33.75,1,0.75,Stimuli/P020/sun_aaaidwecchadbake.jpg,0,0,0.0,0,59,59,59,,,,,,,,,,,,,33.01208030000271,0.0120803000027081,None,72.91323790000024,72.91323790000024,72.91323790000024,72.91323790000024,72.91323790000024,72.91323790000024,72.91323790000024,72.91323790000024,72.91323790000024,72.91323790000024,,007,P020,2025_May_06_1737,ConditionRich,2021.2.3,59.93418028351918,
33.75,34.0,41,0.0,Stimuli/Blank.png,0,0,0.0,0,60,60,60,,,,,,,,,,,,,33.76353930000187,0.01353930000186665,None,73.66390189999947,73.66390189999947,73.66390189999947,73.66390189999947,73.66390189999947,73.66390189999947,73.66390189999947,73.66390189999947,73.66390189999947,73.66390189999947,,007,P020,2025_May_06_1737,ConditionRich,2021.2.3,59.93418028351918,
34.0,34.75,1,0.75,Stimuli/P020/sun_aaaidwecchadbake.jpg,0,0,0.0,0,61,61,61,,,,,,,,,,,,,34.01388370000495,0.013883700004953425,None,73.93082729999878,73.93082729999878,73.93082729999878,73.93082729999878,73.93082729999878,73.93082729999878,73.93082729999878,73.93082729999878,73.93082729999878,73.93082729999878,,007,P020,2025_May_06_1737,ConditionRich,2021.2.3,59.93418028351918,
34.75,35.0,41,0.0,Stimuli/Blank.png,0,0,0.0,0,62,62,62,,,,,,,,,,,,,34.78071479999926,0.030714799999259412,None,74.68148320000182,74.68148320000182,74.68148320000182,74.68148320000182,74.68148320000182,74.68148320000182,74.68148320000182,74.68148320000182,74.68148320000182,74.68148320000182,,007,P020,2025_May_06_1737,ConditionRich,2021.2.3,59.93418028351918,
35.0,35.75,1,0.75,Stimuli/P020/sun_aaaidwecchadbake.jpg,0,0,0.0,0,63,63,63,,,,,,,,,,,,,35.01369089999935,0.013690899999346584,None,74.91500590000214,74.91500590000214,74.91500590000214,74.91500590000214,74.91500590000214,74.91500590000214,74.91500590000214,74.91500590000214,74.91500590000214,74.91500590000214,,007,P020,2025_May_06_1737,ConditionRich,2021.2.3,59.93418028351918,
35.75,36.0,41,0.0,Stimuli/Blank.png,0,0,0.0,0,64,64,64,,,,,,,,,,,,,35.767234999999346,0.017234999999345746,None,75.68236360000446,75.68236360000446,75.68236360000446,75.68236360000446,75.68236360000446,75.68236360000446,75.68236360000446,75.68236360000446,75.68236360000446,75.68236360000446,,007,P020,2025_May_06_1737,ConditionRich,2021.2.3,59.93418028351918,
36.0,36.75,11,0.75,Stimuli/P020/sun_bcbfjkoziukwmdkd.jpg,0,0,0.0,0,65,65,65,,,,,,,,,,,,,36.0165993000046,0.01659930000460008,None,75.93259540000145,75.93259540000145,75.93259540000145,75.93259540000145,75.93259540000145,75.93259540000145,75.93259540000145,75.93259540000145,75.93259540000145,75.93259540000145,,007,P020,2025_May_06_1737,ConditionRich,2021.2.3,59.93418028351918,
36.75,37.0,41,0.0,Stimuli/Blank.png,0,0,0.0,0,66,66,66,,,,,,,,,,,,,36.76616700000159,0.01616700000158744,None,76.66657639999903,76.66657639999903,76.66657639999903,76.66657639999903,76.66657639999903,76.66657639999903,76.66657639999903,76.66657639999903,76.66657639999903,76.66657639999903,,007,P020,2025_May_06_1737,ConditionRich,2021.2.3,59.93418028351918,
37.0,37.75,11,0.75,Stimuli/P020/sun_bcbfjkoziukwmdkd.jpg,0,0,0.0,0,67,67,67,,,,,,,,,,,,,37.001974200000404,0.0019742000004043803,None,76.9167884999988,76.9167884999988,76.9167884999988,76.9167884999988,76.9167884999988,76.9167884999988,76.9167884999988,76.9167884999988,76.9167884999988,76.9167884999988,,007,P020,2025_May_06_1737,ConditionRich,2021.2.3,59.93418028351918,
37.75,38.0,41,0.0,Stimuli/Blank.png,0,0,0.0,0,68,68,68,,,,,,,,,,,,,37.76692670000193,0.01692670000193175,None,77.66746209999837,77.66746209999837,77.66746209999837,77.66746209999837,77.66746209999837,77.66746209999837,77.66746209999837,77.66746209999837,77.66746209999837,77.66746209999837,,007,P020,2025_May_06_1737,ConditionRich,2021.2.3,59.93418028351918,
38.0,38.75,11,0.75,Stimuli/P020/sun_bcbfjkoziukwmdkd.jpg,0,0,0.0,0,69,69,69,,,,,,,,,,,,,38.001934300002176,0.0019343000021763146,None,77.917698199999,77.917698199999,77.917698199999,77.917698199999,77.917698199999,77.917698199999,77.917698199999,77.917698199999,77.917698199999,77.917698199999,,007,P020,2025_May_06_1737,ConditionRich,2021.2.3,59.93418028351918,
38.75,39.0,41,0.0,Stimuli/Blank.png,0,0,0.0,0,70,70,70,,,,,,,,,,,,,38.767152300002635,0.017152300002635457,None,78.66833079999924,78.66833079999924,78.66833079999924,78.66833079999924,78.66833079999924,78.66833079999924,78.66833079999924,78.66833079999924,78.66833079999924,78.66833079999924,,007,P020,2025_May_06_1737,ConditionRich,2021.2.3,59.93418028351918,
39.0,39.75,11,0.75,Stimuli/P020/sun_bcbfjkoziukwmdkd.jpg,0,0,0.0,0,71,71,71,,,,,,,,,,,,,39.00136470000143,0.001364700001431629,None,78.91855860000214,78.91855860000214,78.91855860000214,78.91855860000214,78.91855860000214,78.91855860000214,78.91855860000214,78.91855860000214,78.91855860000214,78.91855860000214,,007,P020,2025_May_06_1737,ConditionRich,2021.2.3,59.93418028351918,
39.75,40.0,41,0.0,Stimuli/Blank.png,0,0,0.0,0,72,72,72,,,,,,,,,,,,,39.768531699999585,0.018531699999584816,None,79.6692056000029,79.6692056000029,79.6692056000029,79.6692056000029,79.6692056000029,79.6692056000029,79.6692056000029,79.6692056000029,79.6692056000029,79.6692056000029,,007,P020,2025_May_06_1737,ConditionRich,2021.2.3,59.93418028351918,
40.0,40.75,2,0.75,Stimuli/P020/sun_ajhvfwzgpfovdgid.jpg,0,0,0.0,0,73,73,73,,,,,,,,,,,,,40.00395469999785,0.0039546999978483655,None,79.90272389999882,79.90272389999882,79.90272389999882,79.90272389999882,79.90272389999882,79.90272389999882,79.90272389999882,79.90272389999882,79.90272389999882,79.90272389999882,,007,P020,2025_May_06_1737,ConditionRich,2021.2.3,59.93418028351918,
40.75,41.0,41,0.0,Stimuli/Blank.png,0,0,0.0,0,74,74,74,,,,,,,,,,,,,40.75226770000154,0.002267700001539197,None,80.65342519999831,80.65342519999831,80.65342519999831,80.65342519999831,80.65342519999831,80.65342519999831,80.65342519999831,80.65342519999831,80.65342519999831,80.65342519999831,,007,P020,2025_May_06_1737,ConditionRich,2021.2.3,59.93418028351918,
41.0,41.75,2,0.75,Stimuli/P020/sun_ajhvfwzgpfovdgid.jpg,0,0,0.0,0,75,75,75,,,,,,,,,,,,,41.00302680000459,0.0030268000045907684,None,80.90363800000341,80.90363800000341,80.90363800000341,80.90363800000341,80.90363800000341,80.90363800000341,80.90363800000341,80.90363800000341,80.90363800000341,80.90363800000341,,007,P020,2025_May_06_1737,ConditionRich,2021.2.3,59.93418028351918,
41.75,42.0,41,0.0,Stimuli/Blank.png,0,0,0.0,0,76,76,76,,,,,,,,,,,,,41.754836799998884,0.004836799998884089,None,81.65433160000248,81.65433160000248,81.65433160000248,81.65433160000248,81.65433160000248,81.65433160000248,81.65433160000248,81.65433160000248,81.65433160000248,81.65433160000248,,007,P020,2025_May_06_1737,ConditionRich,2021.2.3,59.93418028351918,
42.0,42.75,2,0.75,Stimuli/P020/sun_ajhvfwzgpfovdgid.jpg,1,0,0.75,0,77,77,77,,,,,,,,,,,,,42.00331020000158,0.003310200001578778,1,81.90452560000267,81.90452560000267,81.90452560000267,81.90452560000267,81.90452560000267,81.90452560000267,81.90452560000267,82.63847710000118,81.90452560000267,81.90452560000267,0.39978899999550777,007,P020,2025_May_06_1737,ConditionRich,2021.2.3,59.93418028351918,
42.75,43.0,41,0.0,Stimuli/Blank.png,0,0,0.0,0,78,78,78,,,,,,,,,,,,,42.75397730000259,0.0039773000025888905,None,82.65532760000497,82.65532760000497,82.65532760000497,82.65532760000497,82.65532760000497,82.65532760000497,82.65532760000497,82.65532760000497,82.65532760000497,82.65532760000497,,007,P020,2025_May_06_1737,ConditionRich,2021.2.3,59.93418028351918,
43.0,43.75,2,0.75,Stimuli/P020/sun_ajhvfwzgpfovdgid.jpg,0,0,0.0,0,79,79,79,,,,,,,,,,,,,43.00691139999981,0.006911399999808054,None,82.92210129999876,82.92210129999876,82.92210129999876,82.92210129999876,82.92210129999876,82.92210129999876,82.92210129999876,82.92210129999876,82.92210129999876,82.92210129999876,,007,P020,2025_May_06_1737,ConditionRich,2021.2.3,59.93418028351918,
43.75,44.0,41,0.0,Stimuli/Blank.png,0,0,0.0,0,80,80,80,,,,,,,,,,,,,43.772981599999184,0.022981599999184255,None,83.67277840000315,83.67277840000315,83.67277840000315,83.67277840000315,83.67277840000315,83.67277840000315,83.67277840000315,83.67277840000315,83.67277840000315,83.67277840000315,,007,P020,2025_May_06_1737,ConditionRich,2021.2.3,59.93418028351918,
44.0,44.75,36,0.75,Stimuli/P020/things_sunroof_10s.jpg,0,0,0.0,0,81,81,81,,,,,,,,,,,,,44.00550099999964,0.005500999999640044,None,83.90630519999831,83.90630519999831,83.90630519999831,83.90630519999831,83.90630519999831,83.90630519999831,83.90630519999831,83.90630519999831,83.90630519999831,83.90630519999831,,007,P020,2025_May_06_1737,ConditionRich,2021.2.3,59.93418028351918,
44.75,45.0,41,0.0,Stimuli/Blank.png,0,0,0.0,0,82,82,82,,,,,,,,,,,,,44.75575350000145,0.00575350000144681,None,84.65701429999899,84.65701429999899,84.65701429999899,84.65701429999899,84.65701429999899,84.65701429999899,84.65701429999899,84.65701429999899,84.65701429999899,84.65701429999899,,007,P020,2025_May_06_1737,ConditionRich,2021.2.3,59.93418028351918,
45.0,45.75,36,0.75,Stimuli/P020/things_sunroof_10s.jpg,0,0,0.0,0,83,83,83,,,,,,,,,,,,,45.00648470000306,0.006484700003056787,None,84.90721969999868,84.90721969999868,84.90721969999868,84.90721969999868,84.90721969999868,84.90721969999868,84.90721969999868,84.90721969999868,84.90721969999868,84.90721969999868,,007,P020,2025_May_06_1737,ConditionRich,2021.2.3,59.93418028351918,
45.75,46.0,41,0.0,Stimuli/Blank.png,0,0,0.0,0,84,84,84,,,,,,,,,,,,,45.757193199999165,0.00719319999916479,None,85.65784420000273,85.65784420000273,85.65784420000273,85.65784420000273,85.65784420000273,85.65784420000273,85.65784420000273,85.65784420000273,85.65784420000273,85.65784420000273,,007,P020,2025_May_06_1737,ConditionRich,2021.2.3,59.93418028351918,
46.0,46.75,36,0.75,Stimuli/P020/things_sunroof_10s.jpg,0,0,0.0,0,85,85,85,,,,,,,,,,,,,46.007034100002784,0.007034100002783816,None,85.90807340000174,85.90807340000174,85.90807340000174,85.90807340000174,85.90807340000174,85.90807340000174,85.90807340000174,85.90807340000174,85.90807340000174,85.90807340000174,,007,P020,2025_May_06_1737,ConditionRich,2021.2.3,59.93418028351918,
46.75,47.0,41,0.0,Stimuli/Blank.png,0,0,0.0,0,86,86,86,,,,,,,,,,,,,46.758388100002776,0.0083881000027759,None,86.65872959999979,86.65872959999979,86.65872959999979,86.65872959999979,86.65872959999979,86.65872959999979,86.65872959999979,86.65872959999979,86.65872959999979,86.65872959999979,,007,P020,2025_May_06_1737,ConditionRich,2021.2.3,59.93418028351918,
47.0,47.75,36,0.75,Stimuli/P020/things_sunroof_10s.jpg,0,0,0.0,0,87,87,87,,,,,,,,,,,,,47.0085687000028,0.008568700002797414,None,86.92568800000299,86.92568800000299,86.92568800000299,86.92568800000299,86.92568800000299,86.92568800000299,86.92568800000299,86.92568800000299,86.92568800000299,86.92568800000299,,007,P020,2025_May_06_1737,ConditionRich,2021.2.3,59.93418028351918,
47.75,48.0,41,0.0,Stimuli/Blank.png,0,0,0.0,0,88,88,88,,,,,,,,,,,,,47.777032900005,0.027032900004996918,None,87.69298770000023,87.69298770000023,87.69298770000023,87.69298770000023,87.69298770000023,87.69298770000023,87.69298770000023,87.69298770000023,87.69298770000023,87.69298770000023,,007,P020,2025_May_06_1737,ConditionRich,2021.2.3,59.93418028351918,
48.0,48.75,5,0.75,Stimuli/P020/sun_amjqxnqvhovkotym.jpg,0,0,0.0,0,89,89,89,,,,,,,,,,,,,48.02532870000141,0.025328700001409743,None,87.92660099999921,87.92660099999921,87.92660099999921,87.92660099999921,87.92660099999921,87.92660099999921,87.92660099999921,87.92660099999921,87.92660099999921,87.92660099999921,,007,P020,2025_May_06_1737,ConditionRich,2021.2.3,59.93418028351918,
48.75,49.0,41,0.0,Stimuli/Blank.png,0,0,0.0,0,90,90,90,,,,,,,,,,,,,48.7623253999991,0.012325399999099318,None,88.67719610000495,88.67719610000495,88.67719610000495,88.67719610000495,88.67719610000495,88.67719610000495,88.67719610000495,88.67719610000495,88.67719610000495,88.67719610000495,,007,P020,2025_May_06_1737,ConditionRich,2021.2.3,59.93418028351918,
49.0,49.75,5,0.75,Stimuli/P020/sun_amjqxnqvhovkotym.jpg,0,0,0.0,0,91,91,91,,,,,,,,,,,,,49.02727440000308,0.02727440000307979,None,88.94406339999841,88.94406339999841,88.94406339999841,88.94406339999841,88.94406339999841,88.94406339999841,88.94406339999841,88.94406339999841,88.94406339999841,88.94406339999841,,007,P020,2025_May_06_1737,ConditionRich,2021.2.3,59.93418028351918,
49.75,50.0,41,0.0,Stimuli/Blank.png,0,0,0.0,0,92,92,92,,,,,,,,,,,,,49.77794540000468,0.027945400004682597,None,89.69479610000417,89.69479610000417,89.69479610000417,89.69479610000417,89.69479610000417,89.69479610000417,89.69479610000417,89.69479610000417,89.69479610000417,89.69479610000417,,007,P020,2025_May_06_1737,ConditionRich,2021.2.3,59.93418028351918,
50.0,50.75,5,0.75,Stimuli/P020/sun_amjqxnqvhovkotym.jpg,0,0,0.0,0,93,93,93,,,,,,,,,,,,,50.02697199999966,0.0269719999996596,None,89.92829809999967,89.92829809999967,89.92829809999967,89.92829809999967,89.92829809999967,89.92829809999967,89.92829809999967,89.92829809999967,89.92829809999967,89.92829809999967,,007,P020,2025_May_06_1737,ConditionRich,2021.2.3,59.93418028351918,
50.75,51.0,41,0.0,Stimuli/Blank.png,0,0,0.0,0,94,94,94,,,,,,,,,,,,,50.761050900000555,0.011050900000554975,None,90.66227860000072,90.66227860000072,90.66227860000072,90.66227860000072,90.66227860000072,90.66227860000072,90.66227860000072,90.66227860000072,90.66227860000072,90.66227860000072,,007,P020,2025_May_06_1737,ConditionRich,2021.2.3,59.93418028351918,
51.0,51.75,5,0.75,Stimuli/P020/sun_amjqxnqvhovkotym.jpg,0,0,0.0,0,95,95,95,,,,,,,,,,,,,51.012069000003976,0.012069000003975816,None,90.92919500000426,90.92919500000426,90.92919500000426,90.92919500000426,90.92919500000426,90.92919500000426,90.92919500000426,90.92919500000426,90.92919500000426,90.92919500000426,,007,P020,2025_May_06_1737,ConditionRich,2021.2.3,59.93418028351918,
51.75,52.0,41,0.0,Stimuli/Blank.png,0,0,0.0,0,96,96,96,,,,,,,,,,,,,51.781555699999444,0.03155569999944419,None,91.69653739999922,91.69653739999922,91.69653739999922,91.69653739999922,91.69653739999922,91.69653739999922,91.69653739999922,91.69653739999922,91.69653739999922,91.69653739999922,,007,P020,2025_May_06_1737,ConditionRich,2021.2.3,59.93418028351918,
52.0,52.75,40,0.75,Stimuli/P020/things_woman_10s.jpg,0,0,0.0,0,97,97,97,,,,,,,,,,,,,52.02881989999878,0.028819899998779874,None,91.93006890000106,91.93006890000106,91.93006890000106,91.93006890000106,91.93006890000106,91.93006890000106,91.93006890000106,91.93006890000106,91.93006890000106,91.93006890000106,,007,P020,2025_May_06_1737,ConditionRich,2021.2.3,59.93418028351918,
52.75,53.0,41,0.0,Stimuli/Blank.png,0,0,0.0,0,98,98,98,,,,,,,,,,,,,52.76291489999858,0.012914899998577312,None,92.66405910000321,92.66405910000321,92.66405910000321,92.66405910000321,92.66405910000321,92.66405910000321,92.66405910000321,92.66405910000321,92.66405910000321,92.66405910000321,,007,P020,2025_May_06_1737,ConditionRich,2021.2.3,59.93418028351918,
53.0,53.75,40,0.75,Stimuli/P020/things_woman_10s.jpg,0,0,0.0,0,99,99,99,,,,,,,,,,,,,53.0140825999988,0.014082599998801015,None,92.93097449999914,92.93097449999914,92.93097449999914,92.93097449999914,92.93097449999914,92.93097449999914,92.93097449999914,92.93097449999914,92.93097449999914,92.93097449999914,,007,P020,2025_May_06_1737,ConditionRich,2021.2.3,59.93418028351918,
53.75,54.0,41,0.0,Stimuli/Blank.png,0,0,0.0,0,100,100,100,,,,,,,,,,,,,53.781118899998546,0.031118899998546112,None,93.68162750000192,93.68162750000192,93.68162750000192,93.68162750000192,93.68162750000192,93.68162750000192,93.68162750000192,93.68162750000192,93.68162750000192,93.68162750000192,,007,P020,2025_May_06_1737,ConditionRich,2021.2.3,59.93418028351918,
54.0,54.75,40,0.75,Stimuli/P020/things_woman_10s.jpg,0,0,0.0,0,101,101,101,,,,,,,,,,,,,54.01665479999792,0.016654799997922964,None,93.9318529000011,93.9318529000011,93.9318529000011,93.9318529000011,93.9318529000011,93.9318529000011,93.9318529000011,93.9318529000011,93.9318529000011,93.9318529000011,,007,P020,2025_May_06_1737,ConditionRich,2021.2.3,59.93418028351918,
54.75,55.0,41,0.0,Stimuli/Blank.png,0,0,0.0,0,102,102,102,,,,,,,,,,,,,54.76652270000341,0.0165227000034065,None,94.68253610000102,94.68253610000102,94.68253610000102,94.68253610000102,94.68253610000102,94.68253610000102,94.68253610000102,94.68253610000102,94.68253610000102,94.68253610000102,,007,P020,2025_May_06_1737,ConditionRich,2021.2.3,59.93418028351918,
55.0,55.75,40,0.75,Stimuli/P020/things_woman_10s.jpg,0,0,0.0,0,103,103,103,,,,,,,,,,,,,55.015488500001084,0.015488500001083594,None,94.91604100000404,94.91604100000404,94.91604100000404,94.91604100000404,94.91604100000404,94.91604100000404,94.91604100000404,94.91604100000404,94.91604100000404,94.91604100000404,,007,P020,2025_May_06_1737,ConditionRich,2021.2.3,59.93418028351918,
55.75,56.0,41,0.0,Stimuli/Blank.png,0,0,0.0,0,104,104,104,,,,,,,,,,,,,55.74879080000392,-0.0012091999960830435,None,95.65003810000053,95.65003810000053,95.65003810000053,95.65003810000053,95.65003810000053,95.65003810000053,95.65003810000053,95.65003810000053,95.65003810000053,95.65003810000053,,007,P020,2025_May_06_1737,ConditionRich,2021.2.3,59.93418028351918,
56.0,56.75,37,0.75,Stimuli/P020/things_toaster_10s.jpg,0,0,0.0,0,105,105,105,,,,,,,,,,,,,56.01597269999911,0.015972699999110773,None,95.9169796999995,95.9169796999995,95.9169796999995,95.9169796999995,95.9169796999995,95.9169796999995,95.9169796999995,95.9169796999995,95.9169796999995,95.9169796999995,,007,P020,2025_May_06_1737,ConditionRich,2021.2.3,59.93418028351918,
56.75,57.0,41,0.0,Stimuli/Blank.png,0,0,0.0,0,106,106,106,,,,,,,,,,,,,56.75032780000038,0.00032780000037746504,None,96.65093250000064,96.65093250000064,96.65093250000064,96.65093250000064,96.65093250000064,96.65093250000064,96.65093250000064,96.65093250000064,96.65093250000064,96.65093250000064,,007,P020,2025_May_06_1737,ConditionRich,2021.2.3,59.93418028351918,
57.0,57.75,37,0.75,Stimuli/P020/things_toaster_10s.jpg,0,0,0.0,0,107,107,107,,,,,,,,,,,,,57.00141920000169,0.0014192000016919337,None,96.91781880000053,96.91781880000053,96.91781880000053,96.91781880000053,96.91781880000053,96.91781880000053,96.91781880000053,96.91781880000053,96.91781880000053,96.91781880000053,,007,P020,2025_May_06_1737,ConditionRich,2021.2.3,59.93418028351918,
57.75,58.0,41,0.0,Stimuli/Blank.png,0,0,0.0,0,108,108,108,,,,,,,,,,,,,57.76762540000345,0.01762540000345325,None,97.66845520000061,97.66845520000061,97.66845520000061,97.66845520000061,97.66845520000061,97.66845520000061,97.66845520000061,97.66845520000061,97.66845520000061,97.66845520000061,,007,P020,2025_May_06_1737,ConditionRich,2021.2.3,59.93418028351918,
58.0,58.75,37,0.75,Stimuli/P020/things_toaster_10s.jpg,0,0,0.0,0,109,109,109,,,,,,,,,,,,,58.00101480000012,0.0010148000001208857,None,97.90202300000237,97.90202300000237,97.90202300000237,97.90202300000237,97.90202300000237,97.90202300000237,97.90202300000237,97.90202300000237,97.90202300000237,97.90202300000237,,007,P020,2025_May_06_1737,ConditionRich,2021.2.3,59.93418028351918,
58.75,59.0,41,0.0,Stimuli/Blank.png,0,0,0.0,0,110,110,110,,,,,,,,,,,,,58.7519975000032,0.001997500003199093,None,98.65268070000457,98.65268070000457,98.65268070000457,98.65268070000457,98.65268070000457,98.65268070000457,98.65268070000457,98.65268070000457,98.65268070000457,98.65268070000457,,007,P020,2025_May_06_1737,ConditionRich,2021.2.3,59.93418028351918,
59.0,59.75,37,0.75,Stimuli/P020/things_toaster_10s.jpg,0,0,0.0,0,111,111,111,,,,,,,,,,,,,59.00164980000409,0.0016498000040883198,None,98.90290010000172,98.90290010000172,98.90290010000172,98.90290010000172,98.90290010000172,98.90290010000172,98.90290010000172,98.90290010000172,98.90290010000172,98.90290010000172,,007,P020,2025_May_06_1737,ConditionRich,2021.2.3,59.93418028351918,
59.75,60.0,41,0.0,Stimuli/Blank.png,0,0,0.0,0,112,112,112,,,,,,,,,,,,,59.752994900001795,0.002994900001795031,None,99.6535617000045,99.6535617000045,99.6535617000045,99.6535617000045,99.6535617000045,99.6535617000045,99.6535617000045,99.6535617000045,99.6535617000045,99.6535617000045,,007,P020,2025_May_06_1737,ConditionRich,2021.2.3,59.93418028351918,
60.0,60.75,13,0.75,Stimuli/P020/sun_bhzwrbdycbchqesq.jpg,0,0,0.0,0,113,113,113,,,,,,,,,,,,,60.002686200001335,0.002686200001335237,None,99.90379620000022,99.90379620000022,99.90379620000022,99.90379620000022,99.90379620000022,99.90379620000022,99.90379620000022,99.90379620000022,99.90379620000022,99.90379620000022,,007,P020,2025_May_06_1737,ConditionRich,2021.2.3,59.93418028351918,
60.75,61.0,41,0.0,Stimuli/Blank.png,0,0,0.0,0,114,114,114,,,,,,,,,,,,,60.75316269999894,0.0031626999989384785,None,100.65445960000216,100.65445960000216,100.65445960000216,100.65445960000216,100.65445960000216,100.65445960000216,100.65445960000216,100.65445960000216,100.65445960000216,100.65445960000216,,007,P020,2025_May_06_1737,ConditionRich,2021.2.3,59.93418028351918,
61.0,61.75,13,0.75,Stimuli/P020/sun_bhzwrbdycbchqesq.jpg,0,0,0.0,0,115,115,115,,,,,,,,,,,,,61.00354920000245,0.00354920000245329,None,100.90468040000269,100.90468040000269,100.90468040000269,100.90468040000269,100.90468040000269,100.90468040000269,100.90468040000269,100.90468040000269,100.90468040000269,100.90468040000269,,007,P020,2025_May_06_1737,ConditionRich,2021.2.3,59.93418028351918,
61.75,62.0,41,0.0,Stimuli/Blank.png,0,0,0.0,0,116,116,116,,,,,,,,,,,,,61.75407580000319,0.004075800003192853,None,101.65533940000023,101.65533940000023,101.65533940000023,101.65533940000023,101.65533940000023,101.65533940000023,101.65533940000023,101.65533940000023,101.65533940000023,101.65533940000023,,007,P020,2025_May_06_1737,ConditionRich,2021.2.3,59.93418028351918,
62.0,62.75,13,0.75,Stimuli/P020/sun_bhzwrbdycbchqesq.jpg,0,0,0.0,0,117,117,117,,,,,,,,,,,,,62.00501980000263,0.005019800002628472,None,101.90555850000237,101.90555850000237,101.90555850000237,101.90555850000237,101.90555850000237,101.90555850000237,101.90555850000237,101.90555850000237,101.90555850000237,101.90555850000237,,007,P020,2025_May_06_1737,ConditionRich,2021.2.3,59.93418028351918,
62.75,63.0,41,0.0,Stimuli/Blank.png,0,0,0.0,0,118,118,118,,,,,,,,,,,,,62.756954600001336,0.006954600001336075,None,102.6729215000014,102.6729215000014,102.6729215000014,102.6729215000014,102.6729215000014,102.6729215000014,102.6729215000014,102.6729215000014,102.6729215000014,102.6729215000014,,007,P020,2025_May_06_1737,ConditionRich,2021.2.3,59.93418028351918,
63.0,63.75,13,0.75,Stimuli/P020/sun_bhzwrbdycbchqesq.jpg,0,0,0.0,0,119,119,119,,,,,,,,,,,,,63.02254530000209,0.022545300002093427,None,102.93981680000434,102.93981680000434,102.93981680000434,102.93981680000434,102.93981680000434,102.93981680000434,102.93981680000434,102.93981680000434,102.93981680000434,102.93981680000434,,007,P020,2025_May_06_1737,ConditionRich,2021.2.3,59.93418028351918,
63.75,64.0,41,0.0,Stimuli/Blank.png,0,0,0.0,0,120,120,120,,,,,,,,,,,,,63.77350970000407,0.0235097000040696,None,103.67378580000513,103.67378580000513,103.67378580000513,103.67378580000513,103.67378580000513,103.67378580000513,103.67378580000513,103.67378580000513,103.67378580000513,103.67378580000513,,007,P020,2025_May_06_1737,ConditionRich,2021.2.3,59.93418028351918,
64.0,64.75,6,0.75,Stimuli/P020/sun_amppcthpabgulbwl.jpg,0,0,0.0,0,121,121,121,,,,,,,,,,,,,64.00698299999931,0.006982999999308959,None,103.90733490000275,103.90733490000275,103.90733490000275,103.90733490000275,103.90733490000275,103.90733490000275,103.90733490000275,103.90733490000275,103.90733490000275,103.90733490000275,,007,P020,2025_May_06_1737,ConditionRich,2021.2.3,59.93418028351918,
64.75,65.0,41,0.0,Stimuli/Blank.png,0,0,0.0,0,122,122,122,,,,,,,,,,,,,64.75760940000328,0.007609400003275368,None,104.65799840000545,104.65799840000545,104.65799840000545,104.65799840000545,104.65799840000545,104.65799840000545,104.65799840000545,104.65799840000545,104.65799840000545,104.65799840000545,,007,P020,2025_May_06_1737,ConditionRich,2021.2.3,59.93418028351918,
65.0,65.75,6,0.75,Stimuli/P020/sun_amppcthpabgulbwl.jpg,0,0,0.0,0,123,123,123,,,,,,,,,,,,,65.00764770000387,0.00764770000387216,None,104.90821739999956,104.90821739999956,104.90821739999956,104.90821739999956,104.90821739999956,104.90821739999956,104.90821739999956,104.90821739999956,104.90821739999956,104.90821739999956,,007,P020,2025_May_06_1737,ConditionRich,2021.2.3,59.93418028351918,
65.75,66.0,41,0.0,Stimuli/Blank.png,0,0,0.0,0,124,124,124,,,,,,,,,,,,,65.75837930000125,0.008379300001251977,None,105.65888229999837,105.65888229999837,105.65888229999837,105.65888229999837,105.65888229999837,105.65888229999837,105.65888229999837,105.65888229999837,105.65888229999837,105.65888229999837,,007,P020,2025_May_06_1737,ConditionRich,2021.2.3,59.93418028351918,
66.0,66.75,6,0.75,Stimuli/P020/sun_amppcthpabgulbwl.jpg,0,0,0.0,0,125,125,125,,,,,,,,,,,,,66.00802000000112,0.008020000001124572,None,105.90910720000102,105.90910720000102,105.90910720000102,105.90910720000102,105.90910720000102,105.90910720000102,105.90910720000102,105.90910720000102,105.90910720000102,105.90910720000102,,007,P020,2025_May_06_1737,ConditionRich,2021.2.3,59.93418028351918,
66.75,67.0,41,0.0,Stimuli/Blank.png,0,0,0.0,0,126,126,126,,,,,,,,,,,,,66.75948300000164,0.009483000001637265,None,106.65978220000397,106.65978220000397,106.65978220000397,106.65978220000397,106.65978220000397,106.65978220000397,106.65978220000397,106.65978220000397,106.65978220000397,106.65978220000397,,007,P020,2025_May_06_1737,ConditionRich,2021.2.3,59.93418028351918,
67.0,67.75,6,0.75,Stimuli/P020/sun_amppcthpabgulbwl.jpg,0,0,0.0,0,127,127,127,,,,,,,,,,,,,67.0087352000046,0.008735200004593935,None,106.9099858000045,106.9099858000045,106.9099858000045,106.9099858000045,106.9099858000045,106.9099858000045,106.9099858000045,106.9099858000045,106.9099858000045,106.9099858000045,,007,P020,2025_May_06_1737,ConditionRich,2021.2.3,59.93418028351918,
67.75,68.0,41,0.0,Stimuli/Blank.png,0,0,0.0,0,128,128,128,,,,,,,,,,,,,67.76211129999865,0.012111299998650793,None,107.67737420000049,107.67737420000049,107.67737420000049,107.67737420000049,107.67737420000049,107.67737420000049,107.67737420000049,107.67737420000049,107.67737420000049,107.67737420000049,,007,P020,2025_May_06_1737,ConditionRich,2021.2.3,59.93418028351918,
68.0,68.75,34,0.75,Stimuli/P020/things_man_10s.jpg,0,0,0.0,0,129,129,129,,,,,,,,,,,,,68.02737300000445,0.027373000004445203,None,107.92756000000372,107.92756000000372,107.92756000000372,107.92756000000372,107.92756000000372,107.92756000000372,107.92756000000372,107.92756000000372,107.92756000000372,107.92756000000372,,007,P020,2025_May_06_1737,ConditionRich,2021.2.3,59.93418028351918,
68.75,69.0,41,0.0,Stimuli/Blank.png,0,0,0.0,0,130,130,130,,,,,,,,,,,,,68.76091420000012,0.01091420000011567,None,108.66153969999868,108.66153969999868,108.66153969999868,108.66153969999868,108.66153969999868,108.66153969999868,108.66153969999868,108.66153969999868,108.66153969999868,108.66153969999868,,007,P020,2025_May_06_1737,ConditionRich,2021.2.3,59.93418028351918,
69.0,69.75,34,0.75,Stimuli/P020/things_man_10s.jpg,0,0,0.0,0,131,131,131,,,,,,,,,,,,,69.01128590000008,0.011285900000075344,None,108.92844180000247,108.92844180000247,108.92844180000247,108.92844180000247,108.92844180000247,108.92844180000247,108.92844180000247,108.92844180000247,108.92844180000247,108.92844180000247,,007,P020,2025_May_06_1737,ConditionRich,2021.2.3,59.93418028351918,
69.75,70.0,41,0.0,Stimuli/Blank.png,0,0,0.0,0,132,132,132,,,,,,,,,,,,,69.77806870000495,0.028068700004951097,None,109.67910610000399,109.67910610000399,109.67910610000399,109.67910610000399,109.67910610000399,109.67910610000399,109.67910610000399,109.67910610000399,109.67910610000399,109.67910610000399,,007,P020,2025_May_06_1737,ConditionRich,2021.2.3,59.93418028351918,
70.0,70.75,34,0.75,Stimuli/P020/things_man_10s.jpg,0,0,0.0,0,133,133,133,,,,,,,,,,,,,70.0116382999986,0.011638299998594448,None,109.91264990000491,109.91264990000491,109.91264990000491,109.91264990000491,109.91264990000491,109.91264990000491,109.91264990000491,109.91264990000491,109.91264990000491,109.91264990000491,,007,P020,2025_May_06_1737,ConditionRich,2021.2.3,59.93418028351918,
70.75,71.0,41,0.0,Stimuli/Blank.png,0,0,0.0,0,134,134,134,,,,,,,,,,,,,70.7621833000012,0.012183300001197495,None,110.66331210000499,110.66331210000499,110.66331210000499,110.66331210000499,110.66331210000499,110.66331210000499,110.66331210000499,110.66331210000499,110.66331210000499,110.66331210000499,,007,P020,2025_May_06_1737,ConditionRich,2021.2.3,59.93418028351918,
71.0,71.75,34,0.75,Stimuli/P020/things_man_10s.jpg,0,0,0.0,0,135,135,135,,,,,,,,,,,,,71.01308940000308,0.013089400003082119,None,110.91353150000214,110.91353150000214,110.91353150000214,110.91353150000214,110.91353150000214,110.91353150000214,110.91353150000214,110.91353150000214,110.91353150000214,110.91353150000214,,007,P020,2025_May_06_1737,ConditionRich,2021.2.3,59.93418028351918,
71.75,72.0,41,0.0,Stimuli/Blank.png,0,0,0.0,0,136,136,136,,,,,,,,,,,,,71.7630433000013,0.01304330000129994,None,111.66419970000425,111.66419970000425,111.66419970000425,111.66419970000425,111.66419970000425,111.66419970000425,111.66419970000425,111.66419970000425,111.66419970000425,111.66419970000425,,007,P020,2025_May_06_1737,ConditionRich,2021.2.3,59.93418028351918,
72.0,72.75,29,0.75,Stimuli/P020/things_flamingo_10s.jpg,0,0,0.0,0,137,137,137,,,,,,,,,,,,,72.01316220000444,0.013162200004444458,None,111.91441840000334,111.91441840000334,111.91441840000334,111.91441840000334,111.91441840000334,111.91441840000334,111.91441840000334,111.91441840000334,111.91441840000334,111.91441840000334,,007,P020,2025_May_06_1737,ConditionRich,2021.2.3,59.93418028351918,
72.75,73.0,41,0.0,Stimuli/Blank.png,0,0,0.0,0,138,138,138,,,,,,,,,,,,,72.76404770000227,0.014047700002265628,None,112.66508560000511,112.66508560000511,112.66508560000511,112.66508560000511,112.66508560000511,112.66508560000511,112.66508560000511,112.66508560000511,112.66508560000511,112.66508560000511,,007,P020,2025_May_06_1737,ConditionRich,2021.2.3,59.93418028351918,
73.0,73.75,29,0.75,Stimuli/P020/things_flamingo_10s.jpg,1,0,0.75,0,139,139,139,,,,,,,,,,,,,73.0140270999982,0.014027099998202175,1,112.91530570000032,112.91530570000032,112.91530570000032,112.91530570000032,112.91530570000032,112.91530570000032,112.91530570000032,113.64935669999977,112.91530570000032,112.91530570000032,0.5040502999981982,007,P020,2025_May_06_1737,ConditionRich,2021.2.3,59.93418028351918,
73.75,74.0,41,0.0,Stimuli/Blank.png,0,0,0.0,0,140,140,140,,,,,,,,,,,,,73.76617450000049,0.01617450000048848,None,113.66597520000505,113.66597520000505,113.66597520000505,113.66597520000505,113.66597520000505,113.66597520000505,113.66597520000505,113.66597520000505,113.66597520000505,113.66597520000505,,007,P020,2025_May_06_1737,ConditionRich,2021.2.3,59.93418028351918,
74.0,74.75,29,0.75,Stimuli/P020/things_flamingo_10s.jpg,0,0,0.0,0,141,141,141,,,,,,,,,,,,,73.99923719999788,-0.0007628000021213666,None,113.89949020000495,113.89949020000495,113.89949020000495,113.89949020000495,113.89949020000495,113.89949020000495,113.89949020000495,113.89949020000495,113.89949020000495,113.89949020000495,,007,P020,2025_May_06_1737,ConditionRich,2021.2.3,59.93418028351918,
74.75,75.0,41,0.0,Stimuli/Blank.png,0,0,0.0,0,142,142,142,,,,,,,,,,,,,74.74891449999996,-0.0010855000000447035,None,114.65014940000401,114.65014940000401,114.65014940000401,114.65014940000401,114.65014940000401,114.65014940000401,114.65014940000401,114.65014940000401,114.65014940000401,114.65014940000401,,007,P020,2025_May_06_1737,ConditionRich,2021.2.3,59.93418028351918,
75.0,75.75,29,0.75,Stimuli/P020/things_flamingo_10s.jpg,0,0,0.0,0,143,143,143,,,,,,,,,,,,,75.00175909999962,0.0017590999996173196,None,114.91709329999867,114.91709329999867,114.91709329999867,114.91709329999867,114.91709329999867,114.91709329999867,114.91709329999867,114.91709329999867,114.91709329999867,114.91709329999867,,007,P020,2025_May_06_1737,ConditionRich,2021.2.3,59.93418028351918,
75.75,76.0,41,0.0,Stimuli/Blank.png,0,0,0.0,0,144,144,144,,,,,,,,,,,,,75.76717160000408,0.017171600004076026,None,115.66774440000154,115.66774440000154,115.66774440000154,115.66774440000154,115.66774440000154,115.66774440000154,115.66774440000154,115.66774440000154,115.66774440000154,115.66774440000154,,007,P020,2025_May_06_1737,ConditionRich,2021.2.3,59.93418028351918,
76.0,76.75,3,0.75,Stimuli/P020/sun_aknrkswonrogcooi.jpg,0,0,0.0,0,145,145,145,,,,,,,,,,,,,76.00234759999876,0.0023475999987567775,None,115.91793730000063,115.91793730000063,115.91793730000063,115.91793730000063,115.91793730000063,115.91793730000063,115.91793730000063,115.91793730000063,115.91793730000063,115.91793730000063,,007,P020,2025_May_06_1737,ConditionRich,2021.2.3,59.93418028351918,
76.75,77.0,41,0.0,Stimuli/Blank.png,0,0,0.0,0,146,146,146,,,,,,,,,,,,,76.76790550000442,0.017905500004417263,None,116.66862319999927,116.66862319999927,116.66862319999927,116.66862319999927,116.66862319999927,116.66862319999927,116.66862319999927,116.66862319999927,116.66862319999927,116.66862319999927,,007,P020,2025_May_06_1737,ConditionRich,2021.2.3,59.93418028351918,
77.0,77.75,3,0.75,Stimuli/P020/sun_aknrkswonrogcooi.jpg,0,0,0.0,0,147,147,147,,,,,,,,,,,,,77.00260450000496,0.0026045000049634837,None,116.91885059999913,116.91885059999913,116.91885059999913,116.91885059999913,116.91885059999913,116.91885059999913,116.91885059999913,116.91885059999913,116.91885059999913,116.91885059999913,,007,P020,2025_May_06_1737,ConditionRich,2021.2.3,59.93418028351918,
77.75,78.0,41,0.0,Stimuli/Blank.png,0,0,0.0,0,148,148,148,,,,,,,,,,,,,77.76838049999787,0.018380499997874722,None,117.6695142000026,117.6695142000026,117.6695142000026,117.6695142000026,117.6695142000026,117.6695142000026,117.6695142000026,117.6695142000026,117.6695142000026,117.6695142000026,,007,P020,2025_May_06_1737,ConditionRich,2021.2.3,59.93418028351918,
78.0,78.75,3,0.75,Stimuli/P020/sun_aknrkswonrogcooi.jpg,0,0,0.0,0,149,149,149,,,,,,,,,,,,,78.0019059000042,0.0019059000042034313,None,117.90305570000055,117.90305570000055,117.90305570000055,117.90305570000055,117.90305570000055,117.90305570000055,117.90305570000055,117.90305570000055,117.90305570000055,117.90305570000055,,007,P020,2025_May_06_1737,ConditionRich,2021.2.3,59.93418028351918,
78.75,79.0,41,0.0,Stimuli/Blank.png,0,0,0.0,0,150,150,150,,,,,,,,,,,,,78.75248210000427,0.0024821000042720698,None,118.65371180000511,118.65371180000511,118.65371180000511,118.65371180000511,118.65371180000511,118.65371180000511,118.65371180000511,118.65371180000511,118.65371180000511,118.65371180000511,,007,P020,2025_May_06_1737,ConditionRich,2021.2.3,59.93418028351918,
79.0,79.75,3,0.75,Stimuli/P020/sun_aknrkswonrogcooi.jpg,0,0,0.0,0,151,151,151,,,,,,,,,,,,,79.00370660000044,0.00370660000044154,None,118.90393790000235,118.90393790000235,118.90393790000235,118.90393790000235,118.90393790000235,118.90393790000235,118.90393790000235,118.90393790000235,118.90393790000235,118.90393790000235,,007,P020,2025_May_06_1737,ConditionRich,2021.2.3,59.93418028351918,
79.75,80.0,41,0.0,Stimuli/Blank.png,0,0,0.0,0,152,152,152,,,,,,,,,,,,,79.75330160000158,0.0033016000015777536,None,119.6546113000004,119.6546113000004,119.6546113000004,119.6546113000004,119.6546113000004,119.6546113000004,119.6546113000004,119.6546113000004,119.6546113000004,119.6546113000004,,007,P020,2025_May_06_1737,ConditionRich,2021.2.3,59.93418028351918,
80.0,80.75,25,0.75,Stimuli/P020/things_chime_10s.jpg,0,0,0.0,0,153,153,153,,,,,,,,,,,,,80.00526610000088,0.005266100000881124,None,119.92151220000233,119.92151220000233,119.92151220000233,119.92151220000233,119.92151220000233,119.92151220000233,119.92151220000233,119.92151220000233,119.92151220000233,119.92151220000233,,007,P020,2025_May_06_1737,ConditionRich,2021.2.3,59.93418028351918,
80.75,81.0,41,0.0,Stimuli/Blank.png,0,0,0.0,0,154,154,154,,,,,,,,,,,,,80.77217750000273,0.022177500002726447,None,120.67218500000308,120.67218500000308,120.67218500000308,120.67218500000308,120.67218500000308,120.67218500000308,120.67218500000308,120.67218500000308,120.67218500000308,120.67218500000308,,007,P020,2025_May_06_1737,ConditionRich,2021.2.3,59.93418028351918,
81.0,81.75,25,0.75,Stimuli/P020/things_chime_10s.jpg,0,0,0.0,0,155,155,155,,,,,,,,,,,,,81.00664150000375,0.006641500003752299,None,120.92240030000539,120.92240030000539,120.92240030000539,120.92240030000539,120.92240030000539,120.92240030000539,120.92240030000539,120.92240030000539,120.92240030000539,120.92240030000539,,007,P020,2025_May_06_1737,ConditionRich,2021.2.3,59.93418028351918,
81.75,82.0,41,0.0,Stimuli/Blank.png,0,0,0.0,0,156,156,156,,,,,,,,,,,,,81.77281000000221,0.022810000002209563,None,121.6730521999998,121.6730521999998,121.6730521999998,121.6730521999998,121.6730521999998,121.6730521999998,121.6730521999998,121.6730521999998,121.6730521999998,121.6730521999998,,007,P020,2025_May_06_1737,ConditionRich,2021.2.3,59.93418028351918,
82.0,82.75,25,0.75,Stimuli/P020/things_chime_10s.jpg,0,0,0.0,0,157,157,157,,,,,,,,,,,,,82.00599199999851,0.005991999998514075,None,121.90660629999911,121.90660629999911,121.90660629999911,121.90660629999911,121.90660629999911,121.90660629999911,121.90660629999911,121.90660629999911,121.90660629999911,121.90660629999911,,007,P020,2025_May_06_1737,ConditionRich,2021.2.3,59.93418028351918,
82.75,83.0,41,0.0,Stimuli/Blank.png,0,0,0.0,0,158,158,158,,,,,,,,,,,,,82.75815919999877,0.008159199998772237,None,122.65727619999961,122.65727619999961,122.65727619999961,122.65727619999961,122.65727619999961,122.65727619999961,122.65727619999961,122.65727619999961,122.65727619999961,122.65727619999961,,007,P020,2025_May_06_1737,ConditionRich,2021.2.3,59.93418028351918,
83.0,83.75,25,0.75,Stimuli/P020/things_chime_10s.jpg,0,0,0.0,0,159,159,159,,,,,,,,,,,,,83.00732560000324,0.007325600003241561,None,122.90748010000243,122.90748010000243,122.90748010000243,122.90748010000243,122.90748010000243,122.90748010000243,122.90748010000243,122.90748010000243,122.90748010000243,122.90748010000243,,007,P020,2025_May_06_1737,ConditionRich,2021.2.3,59.93418028351918,
83.75,84.0,41,0.0,Stimuli/Blank.png,0,0,0.0,0,160,160,160,,,,,,,,,,,,,83.75831760000437,0.008317600004374981,None,123.65815320000547,123.65815320000547,123.65815320000547,123.65815320000547,123.65815320000547,123.65815320000547,123.65815320000547,123.65815320000547,123.65815320000547,123.65815320000547,,007,P020,2025_May_06_1737,ConditionRich,2021.2.3,59.93418028351918,
84.0,100.0,0,0.0,Stimuli/Blank.png,1,1,1.75,0,161,161,161,,,,,,,,,,,,,84.0072524999996,0.007252499999594875,1,123.90836680000211,123.90836680000211,123.90836680000211,123.90836680000211,123.90836680000211,123.90836680000211,124.89256540000497,125.64322650000395,123.90836680000211,123.90836680000211,1.5809281999972882,007,P020,2025_May_06_1737,ConditionRich,2021.2.3,59.93418028351918,
100.0,100.75,26,0.75,Stimuli/P020/things_earwig_10n.jpg,0,0,0.0,0,162,162,162,,,,,,,,,,,,,100.00633319999906,0.006333199999062344,None,139.92255640000076,139.92255640000076,139.92255640000076,139.92255640000076,139.92255640000076,139.92255640000076,139.92255640000076,139.92255640000076,139.92255640000076,139.92255640000076,,007,P020,2025_May_06_1737,ConditionRich,2021.2.3,59.93418028351918,
100.75,101.0,41,0.0,Stimuli/Blank.png,0,0,0.0,0,163,163,163,,,,,,,,,,,,,100.77335930000118,0.023359300001175143,None,140.673206200001,140.673206200001,140.673206200001,140.673206200001,140.673206200001,140.673206200001,140.673206200001,140.673206200001,140.673206200001,140.673206200001,,007,P020,2025_May_06_1737,ConditionRich,2021.2.3,59.93418028351918,
101.0,101.75,26,0.75,Stimuli/P020/things_earwig_10n.jpg,0,0,0.0,0,164,164,164,,,,,,,,,,,,,101.0055896000049,0.005589600004896056,None,140.90673919999972,140.90673919999972,140.90673919999972,140.90673919999972,140.90673919999972,140.90673919999972,140.90673919999972,140.90673919999972,140.90673919999972,140.90673919999972,,007,P020,2025_May_06_1737,ConditionRich,2021.2.3,59.93418028351918,
101.75,102.0,41,0.0,Stimuli/Blank.png,0,0,0.0,0,165,165,165,,,,,,,,,,,,,101.75713019999966,0.00713019999966491,None,141.65741070000513,141.65741070000513,141.65741070000513,141.65741070000513,141.65741070000513,141.65741070000513,141.65741070000513,141.65741070000513,141.65741070000513,141.65741070000513,,007,P020,2025_May_06_1737,ConditionRich,2021.2.3,59.93418028351918,
102.0,102.75,26,0.75,Stimuli/P020/things_earwig_10n.jpg,0,0,0.0,0,166,166,166,,,,,,,,,,,,,102.00682390000293,0.006823900002927985,None,141.9076314999984,141.9076314999984,141.9076314999984,141.9076314999984,141.9076314999984,141.9076314999984,141.9076314999984,141.9076314999984,141.9076314999984,141.9076314999984,,007,P020,2025_May_06_1737,ConditionRich,2021.2.3,59.93418028351918,
102.75,103.0,41,0.0,Stimuli/Blank.png,0,0,0.0,0,167,167,167,,,,,,,,,,,,,102.75718459999916,0.0071845999991637655,None,142.65829170000507,142.65829170000507,142.65829170000507,142.65829170000507,142.65829170000507,142.65829170000507,142.65829170000507,142.65829170000507,142.65829170000507,142.65829170000507,,007,P020,2025_May_06_1737,ConditionRich,2021.2.3,59.93418028351918,
103.0,103.75,26,0.75,Stimuli/P020/things_earwig_10n.jpg,0,0,0.0,0,168,168,168,,,,,,,,,,,,,103.007274100004,0.007274100003996864,None,142.90851100000145,142.90851100000145,142.90851100000145,142.90851100000145,142.90851100000145,142.90851100000145,142.90851100000145,142.90851100000145,142.90851100000145,142.90851100000145,,007,P020,2025_May_06_1737,ConditionRich,2021.2.3,59.93418028351918,
103.75,104.0,41,0.0,Stimuli/Blank.png,0,0,0.0,0,169,169,169,,,,,,,,,,,,,103.75893599999836,0.008935999998357147,None,143.65919760000543,143.65919760000543,143.65919760000543,143.65919760000543,143.65919760000543,143.65919760000543,143.65919760000543,143.65919760000543,143.65919760000543,143.65919760000543,,007,P020,2025_May_06_1737,ConditionRich,2021.2.3,59.93418028351918,
104.0,104.75,24,0.75,Stimuli/P020/things_bulletin_board_10s.jpg,0,0,0.0,0,170,170,170,,,,,,,,,,,,,104.00829070000327,0.008290700003271922,None,143.9093963999985,143.9093963999985,143.9093963999985,143.9093963999985,143.9093963999985,143.9093963999985,143.9093963999985,143.9093963999985,143.9093963999985,143.9093963999985,,007,P020,2025_May_06_1737,ConditionRich,2021.2.3,59.93418028351918,
104.75,105.0,41,0.0,Stimuli/Blank.png,0,0,0.0,0,171,171,171,,,,,,,,,,,,,104.75924210000085,0.009242100000847131,None,144.66009650000342,144.66009650000342,144.66009650000342,144.66009650000342,144.66009650000342,144.66009650000342,144.66009650000342,144.66009650000342,144.66009650000342,144.66009650000342,,007,P020,2025_May_06_1737,ConditionRich,2021.2.3,59.93418028351918,
105.0,105.75,24,0.75,Stimuli/P020/things_bulletin_board_10s.jpg,0,0,0.0,0,172,172,172,,,,,,,,,,,,,105.00907510000252,0.00907510000251932,None,144.9102853000004,144.9102853000004,144.9102853000004,144.9102853000004,144.9102853000004,144.9102853000004,144.9102853000004,144.9102853000004,144.9102853000004,144.9102853000004,,007,P020,2025_May_06_1737,ConditionRich,2021.2.3,59.93418028351918,
105.75,106.0,41,0.0,Stimuli/Blank.png,0,0,0.0,0,173,173,173,,,,,,,,,,,,,105.76125490000413,0.01125490000413265,None,145.66096169999946,145.66096169999946,145.66096169999946,145.66096169999946,145.66096169999946,145.66096169999946,145.66096169999946,145.66096169999946,145.66096169999946,145.66096169999946,,007,P020,2025_May_06_1737,ConditionRich,2021.2.3,59.93418028351918,
106.0,106.75,24,0.75,Stimuli/P020/things_bulletin_board_10s.jpg,0,0,0.0,0,174,174,174,,,,,,,,,,,,,106.01125799999863,0.01125799999863375,None,145.92785939999885,145.92785939999885,145.92785939999885,145.92785939999885,145.92785939999885,145.92785939999885,145.92785939999885,145.92785939999885,145.92785939999885,145.92785939999885,,007,P020,2025_May_06_1737,ConditionRich,2021.2.3,59.93418028351918,
106.75,107.0,41,0.0,Stimuli/Blank.png,0,0,0.0,0,175,175,175,,,,,,,,,,,,,106.77748750000319,0.02748750000318978,None,146.67851920000248,146.67851920000248,146.67851920000248,146.67851920000248,146.67851920000248,146.67851920000248,146.67851920000248,146.67851920000248,146.67851920000248,146.67851920000248,,007,P020,2025_May_06_1737,ConditionRich,2021.2.3,59.93418028351918,
107.0,107.75,24,0.75,Stimuli/P020/things_bulletin_board_10s.jpg,0,0,0.0,0,176,176,176,,,,,,,,,,,,,107.01269270000194,0.012692700001935009,None,146.92874930000107,146.92874930000107,146.92874930000107,146.92874930000107,146.92874930000107,146.92874930000107,146.92874930000107,146.92874930000107,146.92874930000107,146.92874930000107,,007,P020,2025_May_06_1737,ConditionRich,2021.2.3,59.93418028351918,
107.75,108.0,41,0.0,Stimuli/Blank.png,0,0,0.0,0,177,177,177,,,,,,,,,,,,,107.77866340000037,0.02866340000036871,None,147.67939670000487,147.67939670000487,147.67939670000487,147.67939670000487,147.67939670000487,147.67939670000487,147.67939670000487,147.67939670000487,147.67939670000487,147.67939670000487,,007,P020,2025_May_06_1737,ConditionRich,2021.2.3,59.93418028351918,
108.0,108.75,32,0.75,Stimuli/P020/things_girl_10s.jpg,0,0,0.0,0,178,178,178,,,,,,,,,,,,,108.01205710000067,0.012057100000674836,None,147.9129452000052,147.9129452000052,147.9129452000052,147.9129452000052,147.9129452000052,147.9129452000052,147.9129452000052,147.9129452000052,147.9129452000052,147.9129452000052,,007,P020,2025_May_06_1737,ConditionRich,2021.2.3,59.93418028351918,
108.75,109.0,41,0.0,Stimuli/Blank.png,0,0,0.0,0,179,179,179,,,,,,,,,,,,,108.76269979999779,0.012699799997790251,None,148.66358610000316,148.66358610000316,148.66358610000316,148.66358610000316,148.66358610000316,148.66358610000316,148.66358610000316,148.66358610000316,148.66358610000316,148.66358610000316,,007,P020,2025_May_06_1737,ConditionRich,2021.2.3,59.93418028351918,
109.0,109.75,32,0.75,Stimuli/P020/things_girl_10s.jpg,0,0,0.0,0,180,180,180,,,,,,,,,,,,,109.01333390000218,0.013333900002180599,None,148.91382200000226,148.91382200000226,148.91382200000226,148.91382200000226,148.91382200000226,148.91382200000226,148.91382200000226,148.91382200000226,148.91382200000226,148.91382200000226,,007,P020,2025_May_06_1737,ConditionRich,2021.2.3,59.93418028351918,
109.75,110.0,41,0.0,Stimuli/Blank.png,0,0,0.0,0,181,181,181,,,,,,,,,,,,,109.76490000000194,0.014900000001944136,None,149.66450830000394,149.66450830000394,149.66450830000394,149.66450830000394,149.66450830000394,149.66450830000394,149.66450830000394,149.66450830000394,149.66450830000394,149.66450830000394,,007,P020,2025_May_06_1737,ConditionRich,2021.2.3,59.93418028351918,
110.0,110.75,32,0.75,Stimuli/P020/things_girl_10s.jpg,0,0,0.0,0,182,182,182,,,,,,,,,,,,,110.01448589999927,0.014485899999272078,None,149.91471420000016,149.91471420000016,149.91471420000016,149.91471420000016,149.91471420000016,149.91471420000016,149.91471420000016,149.91471420000016,149.91471420000016,149.91471420000016,,007,P020,2025_May_06_1737,ConditionRich,2021.2.3,59.93418028351918,
110.75,111.0,41,0.0,Stimuli/Blank.png,0,0,0.0,0,183,183,183,,,,,,,,,,,,,110.76713430000382,0.01713430000381777,None,150.6820766000019,150.6820766000019,150.6820766000019,150.6820766000019,150.6820766000019,150.6820766000019,150.6820766000019,150.6820766000019,150.6820766000019,150.6820766000019,,007,P020,2025_May_06_1737,ConditionRich,2021.2.3,59.93418028351918,
111.0,111.75,32,0.75,Stimuli/P020/things_girl_10s.jpg,0,0,0.0,0,184,184,184,,,,,,,,,,,,,111.01706949999789,0.01706949999788776,None,150.93229150000116,150.93229150000116,150.93229150000116,150.93229150000116,150.93229150000116,150.93229150000116,150.93229150000116,150.93229150000116,150.93229150000116,150.93229150000116,,007,P020,2025_May_06_1737,ConditionRich,2021.2.3,59.93418028351918,
111.75,112.0,41,0.0,Stimuli/Blank.png,0,0,0.0,0,185,185,185,,,,,,,,,,,,,111.76714640000137,0.01714640000136569,None,151.6830198000025,151.6830198000025,151.6830198000025,151.6830198000025,151.6830198000025,151.6830198000025,151.6830198000025,151.6830198000025,151.6830198000025,151.6830198000025,,007,P020,2025_May_06_1737,ConditionRich,2021.2.3,59.93418028351918,
112.0,112.75,7,0.75,Stimuli/P020/sun_aqkbfuonyunmyqxb.jpg,0,0,0.0,0,186,186,186,,,,,,,,,,,,,112.01599610000267,0.015996100002666935,None,151.93317599999864,151.93317599999864,151.93317599999864,151.93317599999864,151.93317599999864,151.93317599999864,151.93317599999864,151.93317599999864,151.93317599999864,151.93317599999864,,007,P020,2025_May_06_1737,ConditionRich,2021.2.3,59.93418028351918,
112.75,113.0,41,0.0,Stimuli/Blank.png,0,0,0.0,0,187,187,187,,,,,,,,,,,,,112.76673750000191,0.01673750000190921,None,152.6671989000024,152.6671989000024,152.6671989000024,152.6671989000024,152.6671989000024,152.6671989000024,152.6671989000024,152.6671989000024,152.6671989000024,152.6671989000024,,007,P020,2025_May_06_1737,ConditionRich,2021.2.3,59.93418028351918,
113.0,113.75,7,0.75,Stimuli/P020/sun_aqkbfuonyunmyqxb.jpg,0,0,0.0,0,188,188,188,,,,,,,,,,,,,113.00165530000231,0.0016553000023122877,None,152.91738250000344,152.91738250000344,152.91738250000344,152.91738250000344,152.91738250000344,152.91738250000344,152.91738250000344,152.91738250000344,152.91738250000344,152.91738250000344,,007,P020,2025_May_06_1737,ConditionRich,2021.2.3,59.93418028351918,
113.75,114.0,41,0.0,Stimuli/Blank.png,0,0,0.0,0,189,189,189,,,,,,,,,,,,,113.76745479999954,0.017454799999541137,None,153.6680376000004,153.6680376000004,153.6680376000004,153.6680376000004,153.6680376000004,153.6680376000004,153.6680376000004,153.6680376000004,153.6680376000004,153.6680376000004,,007,P020,2025_May_06_1737,ConditionRich,2021.2.3,59.93418028351918,
114.0,114.75,7,0.75,Stimuli/P020/sun_aqkbfuonyunmyqxb.jpg,0,0,0.0,0,190,190,190,,,,,,,,,,,,,114.0024024000013,0.00240240000130143,None,153.9182643000022,153.9182643000022,153.9182643000022,153.9182643000022,153.9182643000022,153.9182643000022,153.9182643000022,153.9182643000022,153.9182643000022,153.9182643000022,,007,P020,2025_May_06_1737,ConditionRich,2021.2.3,59.93418028351918,
114.75,115.0,41,0.0,Stimuli/Blank.png,0,0,0.0,0,191,191,191,,,,,,,,,,,,,114.76823570000124,0.01823570000124164,None,154.66892010000447,154.66892010000447,154.66892010000447,154.66892010000447,154.66892010000447,154.66892010000447,154.66892010000447,154.66892010000447,154.66892010000447,154.66892010000447,,007,P020,2025_May_06_1737,ConditionRich,2021.2.3,59.93418028351918,
115.0,115.75,7,0.75,Stimuli/P020/sun_aqkbfuonyunmyqxb.jpg,0,0,0.0,0,192,192,192,,,,,,,,,,,,,115.00246250000055,0.002462500000547152,None,154.919137900004,154.919137900004,154.919137900004,154.919137900004,154.919137900004,154.919137900004,154.919137900004,154.919137900004,154.919137900004,154.919137900004,,007,P020,2025_May_06_1737,ConditionRich,2021.2.3,59.93418028351918,
115.75,116.0,41,0.0,Stimuli/Blank.png,0,0,0.0,0,193,193,193,,,,,,,,,,,,,115.76913950000016,0.019139500000164844,None,155.66981110000052,155.66981110000052,155.66981110000052,155.66981110000052,155.66981110000052,155.66981110000052,155.66981110000052,155.66981110000052,155.66981110000052,155.66981110000052,,007,P020,2025_May_06_1737,ConditionRich,2021.2.3,59.93418028351918,
116.0,116.75,16,0.75,Stimuli/P020/sun_blfpbbfyzmewzplm.jpg,0,0,0.0,0,194,194,194,,,,,,,,,,,,,116.00208289999864,0.0020828999986406416,None,155.9033442,155.9033442,155.9033442,155.9033442,155.9033442,155.9033442,155.9033442,155.9033442,155.9033442,155.9033442,,007,P020,2025_May_06_1737,ConditionRich,2021.2.3,59.93418028351918,
116.75,117.0,41,0.0,Stimuli/Blank.png,0,0,0.0,0,195,195,195,,,,,,,,,,,,,116.75383080000029,0.0038308000002871267,None,156.6540105000022,156.6540105000022,156.6540105000022,156.6540105000022,156.6540105000022,156.6540105000022,156.6540105000022,156.6540105000022,156.6540105000022,156.6540105000022,,007,P020,2025_May_06_1737,ConditionRich,2021.2.3,59.93418028351918,
117.0,117.75,16,0.75,Stimuli/P020/sun_blfpbbfyzmewzplm.jpg,0,0,0.0,0,196,196,196,,,,,,,,,,,,,117.00310170000012,0.0031017000001156703,None,156.90423590000137,156.90423590000137,156.90423590000137,156.90423590000137,156.90423590000137,156.90423590000137,156.90423590000137,156.90423590000137,156.90423590000137,156.90423590000137,,007,P020,2025_May_06_1737,ConditionRich,2021.2.3,59.93418028351918,
117.75,118.0,41,0.0,Stimuli/Blank.png,0,0,0.0,0,197,197,197,,,,,,,,,,,,,117.75446910000028,0.004469100000278559,None,157.6549062999984,157.6549062999984,157.6549062999984,157.6549062999984,157.6549062999984,157.6549062999984,157.6549062999984,157.6549062999984,157.6549062999984,157.6549062999984,,007,P020,2025_May_06_1737,ConditionRich,2021.2.3,59.93418028351918,
118.0,118.75,16,0.75,Stimuli/P020/sun_blfpbbfyzmewzplm.jpg,0,0,0.0,0,198,198,198,,,,,,,,,,,,,118.0039470000047,0.003947000004700385,None,157.92181870000059,157.92181870000059,157.92181870000059,157.92181870000059,157.92181870000059,157.92181870000059,157.92181870000059,157.92181870000059,157.92181870000059,157.92181870000059,,007,P020,2025_May_06_1737,ConditionRich,2021.2.3,59.93418028351918,
118.75,119.0,41,0.0,Stimuli/Blank.png,0,0,0.0,0,199,199,199,,,,,,,,,,,,,118.77188110000134,0.021881100001337472,None,158.6724566000048,158.6724566000048,158.6724566000048,158.6724566000048,158.6724566000048,158.6724566000048,158.6724566000048,158.6724566000048,158.6724566000048,158.6724566000048,,007,P020,2025_May_06_1737,ConditionRich,2021.2.3,59.93418028351918,
119.0,119.75,16,0.75,Stimuli/P020/sun_blfpbbfyzmewzplm.jpg,1,0,0.75,0,200,200,200,,,,,,,,,,,,,119.00719950000348,0.0071995000034803525,1,158.92270300000382,158.92270300000382,158.92270300000382,158.92270300000382,158.92270300000382,158.92270300000382,158.92270300000382,159.65667080000276,158.92270300000382,158.92270300000382,0.4317169999994803,007,P020,2025_May_06_1737,ConditionRich,2021.2.3,59.93418028351918,
119.75,120.0,41,0.0,Stimuli/Blank.png,0,0,0.0,0,201,201,201,,,,,,,,,,,,,119.77294660000189,0.02294660000188742,None,159.6733521999995,159.6733521999995,159.6733521999995,159.6733521999995,159.6733521999995,159.6733521999995,159.6733521999995,159.6733521999995,159.6733521999995,159.6733521999995,,007,P020,2025_May_06_1737,ConditionRich,2021.2.3,59.93418028351918,
120.0,120.75,15,0.75,Stimuli/P020/sun_bkubdnohuakmwcaj.jpg,0,0,0.0,0,202,202,202,,,,,,,,,,,,,120.0061646000031,0.00616460000310326,None,159.9068843999994,159.9068843999994,159.9068843999994,159.9068843999994,159.9068843999994,159.9068843999994,159.9068843999994,159.9068843999994,159.9068843999994,159.9068843999994,,007,P020,2025_May_06_1737,ConditionRich,2021.2.3,59.93418028351918,
120.75,121.0,41,0.0,Stimuli/Blank.png,0,0,0.0,0,203,203,203,,,,,,,,,,,,,120.75905610000336,0.009056100003363099,None,160.67424290000054,160.67424290000054,160.67424290000054,160.67424290000054,160.67424290000054,160.67424290000054,160.67424290000054,160.67424290000054,160.67424290000054,160.67424290000054,,007,P020,2025_May_06_1737,ConditionRich,2021.2.3,59.93418028351918,
121.0,121.75,15,0.75,Stimuli/P020/sun_bkubdnohuakmwcaj.jpg,0,0,0.0,0,204,204,204,,,,,,,,,,,,,121.02343349999865,0.023433499998645857,None,160.94115070000407,160.94115070000407,160.94115070000407,160.94115070000407,160.94115070000407,160.94115070000407,160.94115070000407,160.94115070000407,160.94115070000407,160.94115070000407,,007,P020,2025_May_06_1737,ConditionRich,2021.2.3,59.93418028351918,
121.75,122.0,41,0.0,Stimuli/Blank.png,0,0,0.0,0,205,205,205,,,,,,,,,,,,,121.77412710000499,0.024127100004989188,None,161.67511979999836,161.67511979999836,161.67511979999836,161.67511979999836,161.67511979999836,161.67511979999836,161.67511979999836,161.67511979999836,161.67511979999836,161.67511979999836,,007,P020,2025_May_06_1737,ConditionRich,2021.2.3,59.93418028351918,
122.0,122.75,15,0.75,Stimuli/P020/sun_bkubdnohuakmwcaj.jpg,0,0,0.0,0,206,206,206,,,,,,,,,,,,,122.00802850000036,0.008028500000364147,None,161.9086587999991,161.9086587999991,161.9086587999991,161.9086587999991,161.9086587999991,161.9086587999991,161.9086587999991,161.9086587999991,161.9086587999991,161.9086587999991,,007,P020,2025_May_06_1737,ConditionRich,2021.2.3,59.93418028351918,
122.75,123.0,41,0.0,Stimuli/Blank.png,0,0,0.0,0,207,207,207,,,,,,,,,,,,,122.75818720000098,0.008187200000975281,None,162.6593184000012,162.6593184000012,162.6593184000012,162.6593184000012,162.6593184000012,162.6593184000012,162.6593184000012,162.6593184000012,162.6593184000012,162.6593184000012,,007,P020,2025_May_06_1737,ConditionRich,2021.2.3,59.93418028351918,
123.0,123.75,15,0.75,Stimuli/P020/sun_bkubdnohuakmwcaj.jpg,0,0,0.0,0,208,208,208,,,,,,,,,,,,,123.00901760000124,0.009017600001243409,None,162.90955380000378,162.90955380000378,162.90955380000378,162.90955380000378,162.90955380000378,162.90955380000378,162.90955380000378,162.90955380000378,162.90955380000378,162.90955380000378,,007,P020,2025_May_06_1737,ConditionRich,2021.2.3,59.93418028351918,
123.75,124.0,41,0.0,Stimuli/Blank.png,0,0,0.0,0,209,209,209,,,,,,,,,,,,,123.76100849999784,0.011008499997842591,None,163.6769054000033,163.6769054000033,163.6769054000033,163.6769054000033,163.6769054000033,163.6769054000033,163.6769054000033,163.6769054000033,163.6769054000033,163.6769054000033,,007,P020,2025_May_06_1737,ConditionRich,2021.2.3,59.93418028351918,
124.0,124.75,28,0.75,Stimuli/P020/things_face_10s.jpg,0,0,0.0,0,210,210,210,,,,,,,,,,,,,124.02643959999841,0.026439599998411722,None,163.92711560000316,163.92711560000316,163.92711560000316,163.92711560000316,163.92711560000316,163.92711560000316,163.92711560000316,163.92711560000316,163.92711560000316,163.92711560000316,,007,P020,2025_May_06_1737,ConditionRich,2021.2.3,59.93418028351918,
124.75,125.0,41,0.0,Stimuli/Blank.png,0,0,0.0,0,211,211,211,,,,,,,,,,,,,124.76054840000143,0.010548400001425762,None,164.66110070000286,164.66110070000286,164.66110070000286,164.66110070000286,164.66110070000286,164.66110070000286,164.66110070000286,164.66110070000286,164.66110070000286,164.66110070000286,,007,P020,2025_May_06_1737,ConditionRich,2021.2.3,59.93418028351918,
125.0,125.75,28,0.75,Stimuli/P020/things_face_10s.jpg,0,0,0.0,0,212,212,212,,,,,,,,,,,,,125.01018660000409,0.010186600004089996,None,164.9113223000022,164.9113223000022,164.9113223000022,164.9113223000022,164.9113223000022,164.9113223000022,164.9113223000022,164.9113223000022,164.9113223000022,164.9113223000022,,007,P020,2025_May_06_1737,ConditionRich,2021.2.3,59.93418028351918,
125.75,126.0,41,0.0,Stimuli/Blank.png,0,0,0.0,0,213,213,213,,,,,,,,,,,,,125.76136860000406,0.011368600004061591,None,165.66199620000407,165.66199620000407,165.66199620000407,165.66199620000407,165.66199620000407,165.66199620000407,165.66199620000407,165.66199620000407,165.66199620000407,165.66199620000407,,007,P020,2025_May_06_1737,ConditionRich,2021.2.3,59.93418028351918,
126.0,126.75,28,0.75,Stimuli/P020/things_face_10s.jpg,0,0,0.0,0,214,214,214,,,,,,,,,,,,,126.01202190000186,0.012021900001855101,None,165.92893610000465,165.92893610000465,165.92893610000465,165.92893610000465,165.92893610000465,165.92893610000465,165.92893610000465,165.92893610000465,165.92893610000465,165.92893610000465,,007,P020,2025_May_06_1737,ConditionRich,2021.2.3,59.93418028351918,
126.75,127.0,41,0.0,Stimuli/Blank.png,0,0,0.0,0,215,215,215,,,,,,,,,,,,,126.77820420000353,0.028204200003528967,None,166.67954630000168,166.67954630000168,166.67954630000168,166.67954630000168,166.67954630000168,166.67954630000168,166.67954630000168,166.67954630000168,166.67954630000168,166.67954630000168,,007,P020,2025_May_06_1737,ConditionRich,2021.2.3,59.93418028351918,
127.0,127.75,28,0.75,Stimuli/P020/things_face_10s.jpg,0,0,0.0,0,216,216,216,,,,,,,,,,,,,127.01174290000199,0.011742900001991075,None,166.91308610000124,166.91308610000124,166.91308610000124,166.91308610000124,166.91308610000124,166.91308610000124,166.91308610000124,166.91308610000124,166.91308610000124,166.91308610000124,,007,P020,2025_May_06_1737,ConditionRich,2021.2.3,59.93418028351918,
127.75,128.0,41,0.0,Stimuli/Blank.png,0,0,0.0,0,217,217,217,,,,,,,,,,,,,127.76320600000327,0.013206000003265217,None,167.6638327000037,167.6638327000037,167.6638327000037,167.6638327000037,167.6638327000037,167.6638327000037,167.6638327000037,167.6638327000037,167.6638327000037,167.6638327000037,,007,P020,2025_May_06_1737,ConditionRich,2021.2.3,59.93418028351918,
128.0,128.75,12,0.75,Stimuli/P020/sun_bgjrtiivbwugxhxp.jpg,0,0,0.0,0,218,218,218,,,,,,,,,,,,,128.01359349999984,0.013593499999842606,None,167.930663500003,167.930663500003,167.930663500003,167.930663500003,167.930663500003,167.930663500003,167.930663500003,167.930663500003,167.930663500003,167.930663500003,,007,P020,2025_May_06_1737,ConditionRich,2021.2.3,59.93418028351918,
128.75,129.0,41,0.0,Stimuli/Blank.png,0,0,0.0,0,219,219,219,,,,,,,,,,,,,128.78105499999947,0.031054999999469146,None,168.681296499999,168.681296499999,168.681296499999,168.681296499999,168.681296499999,168.681296499999,168.681296499999,168.681296499999,168.681296499999,168.681296499999,,007,P020,2025_May_06_1737,ConditionRich,2021.2.3,59.93418028351918,
129.0,129.75,12,0.75,Stimuli/P020/sun_bgjrtiivbwugxhxp.jpg,0,0,0.0,0,220,220,220,,,,,,,,,,,,,129.01447429999826,0.014474299998255447,None,168.91485800000373,168.91485800000373,168.91485800000373,168.91485800000373,168.91485800000373,168.91485800000373,168.91485800000373,168.91485800000373,168.91485800000373,168.91485800000373,,007,P020,2025_May_06_1737,ConditionRich,2021.2.3,59.93418028351918,
129.75,130.0,41,0.0,Stimuli/Blank.png,0,0,0.0,0,221,221,221,,,,,,,,,,,,,129.76603080000496,0.01603080000495538,None,169.66553130000102,169.66553130000102,169.66553130000102,169.66553130000102,169.66553130000102,169.66553130000102,169.66553130000102,169.66553130000102,169.66553130000102,169.66553130000102,,007,P020,2025_May_06_1737,ConditionRich,2021.2.3,59.93418028351918,
130.0,130.75,12,0.75,Stimuli/P020/sun_bgjrtiivbwugxhxp.jpg,1,0,0.75,0,222,222,222,,,,,,,,,,,,,129.9979858000006,-0.0020141999993938953,1,169.91577120000147,169.91577120000147,169.91577120000147,169.91577120000147,169.91577120000147,169.91577120000147,169.91577120000147,170.63340310000058,169.91577120000147,169.91577120000147,0.47865599999931874,007,P020,2025_May_06_1737,ConditionRich,2021.2.3,59.93418028351918,
130.75,131.0,41,0.0,Stimuli/Blank.png,0,0,0.0,0,223,223,223,,,,,,,,,,,,,130.76583309999842,0.01583309999841731,None,170.6672475000014,170.6672475000014,170.6672475000014,170.6672475000014,170.6672475000014,170.6672475000014,170.6672475000014,170.6672475000014,170.6672475000014,170.6672475000014,,007,P020,2025_May_06_1737,ConditionRich,2021.2.3,59.93418028351918,
131.0,131.75,12,0.75,Stimuli/P020/sun_bgjrtiivbwugxhxp.jpg,0,0,0.0,0,224,224,224,,,,,,,,,,,,,131.01707629999873,0.017076299998734612,None,170.9333953000023,170.9333953000023,170.9333953000023,170.9333953000023,170.9333953000023,170.9333953000023,170.9333953000023,170.9333953000023,170.9333953000023,170.9333953000023,,007,P020,2025_May_06_1737,ConditionRich,2021.2.3,59.93418028351918,
131.75,132.0,41,0.0,Stimuli/Blank.png,0,0,0.0,0,225,225,225,,,,,,,,,,,,,131.76612720000412,0.016127200004120823,None,171.66729610000039,171.66729610000039,171.66729610000039,171.66729610000039,171.66729610000039,171.66729610000039,171.66729610000039,171.66729610000039,171.66729610000039,171.66729610000039,,007,P020,2025_May_06_1737,ConditionRich,2021.2.3,59.93418028351918,
132.0,132.75,27,0.75,Stimuli/P020/things_eel_10s.jpg,1,0,0.75,0,226,226,226,,,,,,,,,,,,,132.00039339999785,0.00039339999784715474,1,171.90082619999885,171.90082619999885,171.90082619999885,171.90082619999885,171.90082619999885,171.90082619999885,171.90082619999885,172.63485790000414,171.90082619999885,171.90082619999885,0.4334610000005341,007,P020,2025_May_06_1737,ConditionRich,2021.2.3,59.93418028351918,
132.75,133.0,41,0.0,Stimuli/Blank.png,0,0,0.0,0,227,227,227,,,,,,,,,,,,,132.75155919999816,0.0015591999981552362,None,172.65150600000197,172.65150600000197,172.65150600000197,172.65150600000197,172.65150600000197,172.65150600000197,172.65150600000197,172.65150600000197,172.65150600000197,172.65150600000197,,007,P020,2025_May_06_1737,ConditionRich,2021.2.3,59.93418028351918,
133.0,133.75,27,0.75,Stimuli/P020/things_eel_10s.jpg,0,0,0.0,0,228,228,228,,,,,,,,,,,,,133.00146140000288,0.001461400002881419,None,172.9184099999984,172.9184099999984,172.9184099999984,172.9184099999984,172.9184099999984,172.9184099999984,172.9184099999984,172.9184099999984,172.9184099999984,172.9184099999984,,007,P020,2025_May_06_1737,ConditionRich,2021.2.3,59.93418028351918,
133.75,134.0,41,0.0,Stimuli/Blank.png,0,0,0.0,0,229,229,229,,,,,,,,,,,,,133.76836380000168,0.01836380000167992,None,173.6690585000033,173.6690585000033,173.6690585000033,173.6690585000033,173.6690585000033,173.6690585000033,173.6690585000033,173.6690585000033,173.6690585000033,173.6690585000033,,007,P020,2025_May_06_1737,ConditionRich,2021.2.3,59.93418028351918,
134.0,134.75,27,0.75,Stimuli/P020/things_eel_10s.jpg,0,0,0.0,0,230,230,230,,,,,,,,,,,,,134.0014855000045,0.0014855000044917688,None,173.90260660000058,173.90260660000058,173.90260660000058,173.90260660000058,173.90260660000058,173.90260660000058,173.90260660000058,173.90260660000058,173.90260660000058,173.90260660000058,,007,P020,2025_May_06_1737,ConditionRich,2021.2.3,59.93418028351918,
134.75,135.0,41,0.0,Stimuli/Blank.png,0,0,0.0,0,231,231,231,,,,,,,,,,,,,134.75261460000183,0.002614600001834333,None,174.65326550000464,174.65326550000464,174.65326550000464,174.65326550000464,174.65326550000464,174.65326550000464,174.65326550000464,174.65326550000464,174.65326550000464,174.65326550000464,,007,P020,2025_May_06_1737,ConditionRich,2021.2.3,59.93418028351918,
135.0,135.75,27,0.75,Stimuli/P020/things_eel_10s.jpg,0,0,0.0,0,232,232,232,,,,,,,,,,,,,135.00282230000448,0.0028223000044818036,None,174.92019430000073,174.92019430000073,174.92019430000073,174.92019430000073,174.92019430000073,174.92019430000073,174.92019430000073,174.92019430000073,174.92019430000073,174.92019430000073,,007,P020,2025_May_06_1737,ConditionRich,2021.2.3,59.93418028351918,
135.75,136.0,41,0.0,Stimuli/Blank.png,0,0,0.0,0,233,233,233,,,,,,,,,,,,,135.7696042000025,0.019604200002504513,None,175.67093520000344,175.67093520000344,175.67093520000344,175.67093520000344,175.67093520000344,175.67093520000344,175.67093520000344,175.67093520000344,175.67093520000344,175.67093520000344,,007,P020,2025_May_06_1737,ConditionRich,2021.2.3,59.93418028351918,
136.0,136.75,33,0.75,Stimuli/P020/things_insole_10s.jpg,0,0,0.0,0,234,234,234,,,,,,,,,,,,,136.00302920000104,0.0030292000010376796,None,175.9043520999985,175.9043520999985,175.9043520999985,175.9043520999985,175.9043520999985,175.9043520999985,175.9043520999985,175.9043520999985,175.9043520999985,175.9043520999985,,007,P020,2025_May_06_1737,ConditionRich,2021.2.3,59.93418028351918,
136.75,137.0,41,0.0,Stimuli/Blank.png,0,0,0.0,0,235,235,235,,,,,,,,,,,,,136.75583840000036,0.005838400000357069,None,176.67173380000168,176.67173380000168,176.67173380000168,176.67173380000168,176.67173380000168,176.67173380000168,176.67173380000168,176.67173380000168,176.67173380000168,176.67173380000168,,007,P020,2025_May_06_1737,ConditionRich,2021.2.3,59.93418028351918,
137.0,137.75,33,0.75,Stimuli/P020/things_insole_10s.jpg,1,0,0.75,0,236,236,236,,,,,,,,,,,,,137.0213864000034,0.021386400003393646,1,176.92196010000043,176.92196010000043,176.92196010000043,176.92196010000043,176.92196010000043,176.92196010000043,176.92196010000043,None,176.92196010000043,176.92196010000043,0.515448699996341,007,P020,2025_May_06_1737,ConditionRich,2021.2.3,59.93418028351918,
137.75,138.0,41,0.0,Stimuli/Blank.png,0,0,0.0,0,237,237,237,,,,,,,,,,,,,137.7560850000009,0.00608500000089407,None,177.65593410000292,177.65593410000292,177.65593410000292,177.65593410000292,177.65593410000292,177.65593410000292,177.65593410000292,177.65593410000292,177.65593410000292,177.65593410000292,,007,P020,2025_May_06_1737,ConditionRich,2021.2.3,59.93418028351918,
138.0,138.75,33,0.75,Stimuli/P020/things_insole_10s.jpg,0,0,0.0,0,238,238,238,,,,,,,,,,,,,138.00478409999778,0.0047840999977779575,None,177.90614520000236,177.90614520000236,177.90614520000236,177.90614520000236,177.90614520000236,177.90614520000236,177.90614520000236,177.90614520000236,177.90614520000236,177.90614520000236,,007,P020,2025_May_06_1737,ConditionRich,2021.2.3,59.93418028351918,
138.75,139.0,41,0.0,Stimuli/Blank.png,0,0,0.0,0,239,239,239,,,,,,,,,,,,,138.75648799999908,0.006487999999080785,None,178.65681739999854,178.65681739999854,178.65681739999854,178.65681739999854,178.65681739999854,178.65681739999854,178.65681739999854,178.65681739999854,178.65681739999854,178.65681739999854,,007,P020,2025_May_06_1737,ConditionRich,2021.2.3,59.93418028351918,
139.0,139.75,33,0.75,Stimuli/P020/things_insole_10s.jpg,0,0,0.0,0,240,240,240,,,,,,,,,,,,,139.00678229999903,0.006782299999031238,None,178.92372360000445,178.92372360000445,178.92372360000445,178.92372360000445,178.92372360000445,178.92372360000445,178.92372360000445,178.92372360000445,178.92372360000445,178.92372360000445,,007,P020,2025_May_06_1737,ConditionRich,2021.2.3,59.93418028351918,
139.75,140.0,41,0.0,Stimuli/Blank.png,0,0,0.0,0,241,241,241,,,,,,,,,,,,,139.77594469999894,0.025944699998944998,None,179.69107290000102,179.69107290000102,179.69107290000102,179.69107290000102,179.69107290000102,179.69107290000102,179.69107290000102,179.69107290000102,179.69107290000102,179.69107290000102,,007,P020,2025_May_06_1737,ConditionRich,2021.2.3,59.93418028351918,
140.0,140.75,35,0.75,Stimuli/P020/things_pretzel_10s.jpg,0,0,0.0,0,242,242,242,,,,,,,,,,,,,140.02566469999874,0.025664699998742435,None,179.9412913000051,179.9412913000051,179.9412913000051,179.9412913000051,179.9412913000051,179.9412913000051,179.9412913000051,179.9412913000051,179.9412913000051,179.9412913000051,,007,P020,2025_May_06_1737,ConditionRich,2021.2.3,59.93418028351918,
140.75,141.0,41,0.0,Stimuli/Blank.png,0,0,0.0,0,243,243,243,,,,,,,,,,,,,140.77672999999777,0.026729999997769482,None,180.69198500000493,180.69198500000493,180.69198500000493,180.69198500000493,180.69198500000493,180.69198500000493,180.69198500000493,180.69198500000493,180.69198500000493,180.69198500000493,,007,P020,2025_May_06_1737,ConditionRich,2021.2.3,59.93418028351918,
141.0,141.75,35,0.75,Stimuli/P020/things_pretzel_10s.jpg,0,0,0.0,0,244,244,244,,,,,,,,,,,,,141.02512740000384,0.025127400003839284,None,180.94219149999844,180.94219149999844,180.94219149999844,180.94219149999844,180.94219149999844,180.94219149999844,180.94219149999844,180.94219149999844,180.94219149999844,180.94219149999844,,007,P020,2025_May_06_1737,ConditionRich,2021.2.3,59.93418028351918,
141.75,142.0,41,0.0,Stimuli/Blank.png,0,0,0.0,0,245,245,245,,,,,,,,,,,,,141.77566890000162,0.025668900001619477,None,181.6761764000039,181.6761764000039,181.6761764000039,181.6761764000039,181.6761764000039,181.6761764000039,181.6761764000039,181.6761764000039,181.6761764000039,181.6761764000039,,007,P020,2025_May_06_1737,ConditionRich,2021.2.3,59.93418028351918,
142.0,142.75,35,0.75,Stimuli/P020/things_pretzel_10s.jpg,0,0,0.0,0,246,246,246,,,,,,,,,,,,,142.00915460000397,0.009154600003967062,None,181.92638160000206,181.92638160000206,181.92638160000206,181.92638160000206,181.92638160000206,181.92638160000206,181.92638160000206,181.92638160000206,181.92638160000206,181.92638160000206,,007,P020,2025_May_06_1737,ConditionRich,2021.2.3,59.93418028351918,
142.75,143.0,41,0.0,Stimuli/Blank.png,0,0,0.0,0,247,247,247,,,,,,,,,,,,,142.77576380000392,0.025763800003915094,None,182.6770375000051,182.6770375000051,182.6770375000051,182.6770375000051,182.6770375000051,182.6770375000051,182.6770375000051,182.6770375000051,182.6770375000051,182.6770375000051,,007,P020,2025_May_06_1737,ConditionRich,2021.2.3,59.93418028351918,
143.0,143.75,35,0.75,Stimuli/P020/things_pretzel_10s.jpg,0,0,0.0,0,248,248,248,,,,,,,,,,,,,143.00946919999842,0.009469199998420663,None,182.91057930000534,182.91057930000534,182.91057930000534,182.91057930000534,182.91057930000534,182.91057930000534,182.91057930000534,182.91057930000534,182.91057930000534,182.91057930000534,,007,P020,2025_May_06_1737,ConditionRich,2021.2.3,59.93418028351918,
143.75,144.0,41,0.0,Stimuli/Blank.png,0,0,0.0,0,249,249,249,,,,,,,,,,,,,143.7605814999988,0.010581499998806976,None,183.66123530000186,183.66123530000186,183.66123530000186,183.66123530000186,183.66123530000186,183.66123530000186,183.66123530000186,183.66123530000186,183.66123530000186,183.66123530000186,,007,P020,2025_May_06_1737,ConditionRich,2021.2.3,59.93418028351918,
144.0,144.75,23,0.75,Stimuli/P020/things_boy_10s.jpg,0,0,0.0,0,250,250,250,,,,,,,,,,,,,144.01114410000446,0.011144100004457869,None,183.91146320000553,183.91146320000553,183.91146320000553,183.91146320000553,183.91146320000553,183.91146320000553,183.91146320000553,183.91146320000553,183.91146320000553,183.91146320000553,,007,P020,2025_May_06_1737,ConditionRich,2021.2.3,59.93418028351918,
144.75,145.0,41,0.0,Stimuli/Blank.png,0,0,0.0,0,251,251,251,,,,,,,,,,,,,144.76208690000203,0.012086900002032053,None,184.67884150000464,184.67884150000464,184.67884150000464,184.67884150000464,184.67884150000464,184.67884150000464,184.67884150000464,184.67884150000464,184.67884150000464,184.67884150000464,,007,P020,2025_May_06_1737,ConditionRich,2021.2.3,59.93418028351918,
145.0,145.75,23,0.75,Stimuli/P020/things_boy_10s.jpg,0,0,0.0,0,252,252,252,,,,,,,,,,,,,145.02777870000136,0.027778700001363177,None,184.929040300005,184.929040300005,184.929040300005,184.929040300005,184.929040300005,184.929040300005,184.929040300005,184.929040300005,184.929040300005,184.929040300005,,007,P020,2025_May_06_1737,ConditionRich,2021.2.3,59.93418028351918,
145.75,146.0,41,0.0,Stimuli/Blank.png,0,0,0.0,0,253,253,253,,,,,,,,,,,,,145.76174770000216,0.011747700002160855,None,185.66301170000224,185.66301170000224,185.66301170000224,185.66301170000224,185.66301170000224,185.66301170000224,185.66301170000224,185.66301170000224,185.66301170000224,185.66301170000224,,007,P020,2025_May_06_1737,ConditionRich,2021.2.3,59.93418028351918,
146.0,146.75,23,0.75,Stimuli/P020/things_boy_10s.jpg,0,0,0.0,0,254,254,254,,,,,,,,,,,,,146.01205969999864,0.012059699998644646,None,185.91323120000015,185.91323120000015,185.91323120000015,185.91323120000015,185.91323120000015,185.91323120000015,185.91323120000015,185.91323120000015,185.91323120000015,185.91323120000015,,007,P020,2025_May_06_1737,ConditionRich,2021.2.3,59.93418028351918,
146.75,147.0,41,0.0,Stimuli/Blank.png,0,0,0.0,0,255,255,255,,,,,,,,,,,,,146.7626051000043,0.01260510000429349,None,186.6638974000016,186.6638974000016,186.6638974000016,186.6638974000016,186.6638974000016,186.6638974000016,186.6638974000016,186.6638974000016,186.6638974000016,186.6638974000016,,007,P020,2025_May_06_1737,ConditionRich,2021.2.3,59.93418028351918,
147.0,147.75,23,0.75,Stimuli/P020/things_boy_10s.jpg,0,0,0.0,0,256,256,256,,,,,,,,,,,,,147.0158467000001,0.015846700000111014,None,186.93081399999937,186.93081399999937,186.93081399999937,186.93081399999937,186.93081399999937,186.93081399999937,186.93081399999937,186.93081399999937,186.93081399999937,186.93081399999937,,007,P020,2025_May_06_1737,ConditionRich,2021.2.3,59.93418028351918,
147.75,148.0,41,0.0,Stimuli/Blank.png,0,0,0.0,0,257,257,257,,,,,,,,,,,,,147.7662599000032,0.016259900003205985,None,187.68148360000487,187.68148360000487,187.68148360000487,187.68148360000487,187.68148360000487,187.68148360000487,187.68148360000487,187.68148360000487,187.68148360000487,187.68148360000487,,007,P020,2025_May_06_1737,ConditionRich,2021.2.3,59.93418028351918,
148.0,148.75,31,0.75,Stimuli/P020/things_fudge_10s.jpg,0,0,0.0,0,258,258,258,,,,,,,,,,,,,148.01394699999946,0.013946999999461696,None,187.93173920000118,187.93173920000118,187.93173920000118,187.93173920000118,187.93173920000118,187.93173920000118,187.93173920000118,187.93173920000118,187.93173920000118,187.93173920000118,,007,P020,2025_May_06_1737,ConditionRich,2021.2.3,59.93418028351918,
148.75,149.0,41,0.0,Stimuli/Blank.png,0,0,0.0,0,259,259,259,,,,,,,,,,,,,148.78173139999853,0.03173139999853447,None,188.69901300000492,188.69901300000492,188.69901300000492,188.69901300000492,188.69901300000492,188.69901300000492,188.69901300000492,188.69901300000492,188.69901300000492,188.69901300000492,,007,P020,2025_May_06_1737,ConditionRich,2021.2.3,59.93418028351918,
149.0,149.75,31,0.75,Stimuli/P020/things_fudge_10s.jpg,0,0,0.0,0,260,260,260,,,,,,,,,,,,,149.03152489999775,0.031524899997748435,None,188.93276239999977,188.93276239999977,188.93276239999977,188.93276239999977,188.93276239999977,188.93276239999977,188.93276239999977,188.93276239999977,188.93276239999977,188.93276239999977,,007,P020,2025_May_06_1737,ConditionRich,2021.2.3,59.93418028351918,
149.75,150.0,41,0.0,Stimuli/Blank.png,0,0,0.0,0,261,261,261,,,,,,,,,,,,,149.76597330000368,0.01597330000367947,None,189.66655780000292,189.66655780000292,189.66655780000292,189.66655780000292,189.66655780000292,189.66655780000292,189.66655780000292,189.66655780000292,189.66655780000292,189.66655780000292,,007,P020,2025_May_06_1737,ConditionRich,2021.2.3,59.93418028351918,
