eventStartTime,eventEndTime,eventCond,imSize,imFile,responseEvent,fixRespStart,fixRespEnd,Events.thisRepN,Events.thisTrialN,Events.thisN,Events.thisIndex,Instructions.started,Instructions.stopped,participantReadyResponse.keys,participantReadyResponse.rt,participantReadyResponse.started,participantReadyResponse.stopped,startWaitforTrigger,triggerResponse.keys,triggerResponse.rt,triggerResponse.started,triggerResponse.stopped,globalTimer,actualStartTime,startTimingDiff,participantResponse.keys,participantResponse.started,participantResponse.stopped,image.started,image.stopped,fixationOutside.started,fixationOutside.stopped,fixationResponse.started,fixationResponse.stopped,fixationInside.started,fixationInside.stopped,participantResponse.rt,session,participant,date,expName,psychopyVersion,frameRate,
,,,,,,,,,,,,11.259208700001182,None,1,7.809223900003417,11.259208700001182,None,,,,,,,,,,,,,,,,,,,,,006,P020,2025_May_06_1724,ConditionRich,2021.2.3,59.931665913979266,
,,,,,,,,,,,,,,,,,,19.076792100000603,5,14.524123100003635,19.089279600004375,None,,,,,,,,,,,,,,,,006,P020,2025_May_06_1724,ConditionRich,2021.2.3,59.931665913979266,
0.0,4.0,0,0.0,Stimuli/Blank.png,0,0.0,0.0,0,0,0,0,,,,,,,,,,,,33.62189870000293,0.05443319999903906,0.05443319999903906,None,33.7021820000009,None,33.7021820000009,None,33.7021820000009,None,33.7021820000009,33.7021820000009,33.7021820000009,None,,006,P020,2025_May_06_1724,ConditionRich,2021.2.3,59.931665913979266,
4.0,4.75,27,0.75,Stimuli/P020/things_eel_10s.jpg,0,0.0,0.0,0,1,1,1,,,,,,,,,,,,,4.020016900001792,0.020016900001792237,None,37.655949700005294,37.655949700005294,37.655949700005294,37.655949700005294,37.655949700005294,37.655949700005294,37.655949700005294,37.655949700005294,37.655949700005294,37.655949700005294,,006,P020,2025_May_06_1724,ConditionRich,2021.2.3,59.931665913979266,
4.75,8.0,41,0.0,Stimuli/Blank.png,0,0.0,0.0,0,2,2,2,,,,,,,,,,,,,4.7538601999985985,0.003860199998598546,None,38.38993470000423,38.38993470000423,38.38993470000423,38.38993470000423,38.38993470000423,38.38993470000423,38.38993470000423,38.38993470000423,38.38993470000423,38.38993470000423,,006,P020,2025_May_06_1724,ConditionRich,2021.2.3,59.931665913979266,
8.0,8.75,16,0.75,Stimuli/P020/sun_blfpbbfyzmewzplm.jpg,0,0.0,0.0,0,3,3,3,,,,,,,,,,,,,8.007060099997034,0.007060099997033831,None,41.65923219999968,41.65923219999968,41.65923219999968,41.65923219999968,41.65923219999968,41.65923219999968,41.65923219999968,41.65923219999968,41.65923219999968,41.65923219999968,,006,P020,2025_May_06_1724,ConditionRich,2021.2.3,59.931665913979266,
8.75,12.0,41,0.0,Stimuli/Blank.png,0,0.0,0.0,0,4,4,4,,,,,,,,,,,,,8.774113400002534,0.024113400002534036,None,42.409909699999844,42.409909699999844,42.409909699999844,42.409909699999844,42.409909699999844,42.409909699999844,42.409909699999844,42.409909699999844,42.409909699999844,42.409909699999844,,006,P020,2025_May_06_1724,ConditionRich,2021.2.3,59.931665913979266,
12.0,12.75,4,0.75,Stimuli/P020/sun_amixpbnrxiulfsri.jpg,0,0.0,0.0,0,5,5,5,,,,,,,,,,,,,12.010426399996504,0.010426399996504188,None,45.66279190000205,45.66279190000205,45.66279190000205,45.66279190000205,45.66279190000205,45.66279190000205,45.66279190000205,45.66279190000205,45.66279190000205,45.66279190000205,,006,P020,2025_May_06_1724,ConditionRich,2021.2.3,59.931665913979266,
12.75,16.0,41,0.0,Stimuli/Blank.png,0,0.0,0.0,0,6,6,6,,,,,,,,,,,,,12.777470200002426,0.02747020000242628,None,46.41364099999919,46.41364099999919,46.41364099999919,46.41364099999919,46.41364099999919,46.41364099999919,46.41364099999919,46.41364099999919,46.41364099999919,46.41364099999919,,006,P020,2025_May_06_1724,ConditionRich,2021.2.3,59.931665913979266,
16.0,16.75,29,0.75,Stimuli/P020/things_flamingo_10s.jpg,0,0.0,0.0,0,7,7,7,,,,,,,,,,,,,16.013691799998924,0.01369179999892367,None,49.64963340000395,49.64963340000395,49.64963340000395,49.64963340000395,49.64963340000395,49.64963340000395,49.64963340000395,49.64963340000395,49.64963340000395,49.64963340000395,,006,P020,2025_May_06_1724,ConditionRich,2021.2.3,59.931665913979266,
16.75,20.0,41,0.0,Stimuli/Blank.png,0,0.0,0.0,0,8,8,8,,,,,,,,,,,,,16.763974399997096,0.013974399997096043,None,50.400289400000474,50.400289400000474,50.400289400000474,50.400289400000474,50.400289400000474,50.400289400000474,50.400289400000474,50.400289400000474,50.400289400000474,50.400289400000474,,006,P020,2025_May_06_1724,ConditionRich,2021.2.3,59.931665913979266,
20.0,20.75,11,0.75,Stimuli/P020/sun_bcbfjkoziukwmdkd.jpg,0,0.0,0.0,0,9,9,9,,,,,,,,,,,,,20.000152100001287,0.00015210000128718093,None,53.6531685000009,53.6531685000009,53.6531685000009,53.6531685000009,53.6531685000009,53.6531685000009,53.6531685000009,53.6531685000009,53.6531685000009,53.6531685000009,,006,P020,2025_May_06_1724,ConditionRich,2021.2.3,59.931665913979266,
20.75,24.0,41,0.0,Stimuli/Blank.png,1,0.25,1.0,0,10,10,10,,,,,,,,,,,,,20.768067199998768,0.018067199998768046,1,54.4038326000009,54.4038326000009,54.4038326000009,54.4038326000009,54.4038326000009,54.4038326000009,54.63743719999911,55.388038900004176,54.4038326000009,54.4038326000009,0.6906906000003801,006,P020,2025_May_06_1724,ConditionRich,2021.2.3,59.931665913979266,
24.0,24.75,31,0.75,Stimuli/P020/things_fudge_10s.jpg,0,0.0,0.0,0,11,11,11,,,,,,,,,,,,,24.003703399997903,0.003703399997903034,None,57.640016100005596,57.640016100005596,57.640016100005596,57.640016100005596,57.640016100005596,57.640016100005596,57.640016100005596,57.640016100005596,57.640016100005596,57.640016100005596,,006,P020,2025_May_06_1724,ConditionRich,2021.2.3,59.931665913979266,
24.75,28.0,41,0.0,Stimuli/Blank.png,0,0.0,0.0,0,12,12,12,,,,,,,,,,,,,24.75428290000127,0.004282900001271628,None,58.390695699999924,58.390695699999924,58.390695699999924,58.390695699999924,58.390695699999924,58.390695699999924,58.390695699999924,58.390695699999924,58.390695699999924,58.390695699999924,,006,P020,2025_May_06_1724,ConditionRich,2021.2.3,59.931665913979266,
28.0,28.75,26,0.75,Stimuli/P020/things_earwig_10n.jpg,0,0.0,0.0,0,13,13,13,,,,,,,,,,,,,28.00710899999831,0.007108999998308718,None,61.6435638000039,61.6435638000039,61.6435638000039,61.6435638000039,61.6435638000039,61.6435638000039,61.6435638000039,61.6435638000039,61.6435638000039,61.6435638000039,,006,P020,2025_May_06_1724,ConditionRich,2021.2.3,59.931665913979266,
28.75,32.0,41,0.0,Stimuli/Blank.png,0,0.0,0.0,0,14,14,14,,,,,,,,,,,,,28.758762400000705,0.008762400000705384,None,62.394249200006016,62.394249200006016,62.394249200006016,62.394249200006016,62.394249200006016,62.394249200006016,62.394249200006016,62.394249200006016,62.394249200006016,62.394249200006016,,006,P020,2025_May_06_1724,ConditionRich,2021.2.3,59.931665913979266,
32.0,32.75,12,0.75,Stimuli/P020/sun_bgjrtiivbwugxhxp.jpg,0,0.0,0.0,0,15,15,15,,,,,,,,,,,,,32.01157009999588,0.01157009999587899,None,65.64713219999976,65.64713219999976,65.64713219999976,65.64713219999976,65.64713219999976,65.64713219999976,65.64713219999976,65.64713219999976,65.64713219999976,65.64713219999976,,006,P020,2025_May_06_1724,ConditionRich,2021.2.3,59.931665913979266,
32.75,36.0,41,0.0,Stimuli/Blank.png,0,0.0,0.0,0,16,16,16,,,,,,,,,,,,,32.762111999996705,0.01211199999670498,None,66.39778859999933,66.39778859999933,66.39778859999933,66.39778859999933,66.39778859999933,66.39778859999933,66.39778859999933,66.39778859999933,66.39778859999933,66.39778859999933,,006,P020,2025_May_06_1724,ConditionRich,2021.2.3,59.931665913979266,
36.0,36.75,1,0.75,Stimuli/P020/sun_aaaidwecchadbake.jpg,0,0.0,0.0,0,17,17,17,,,,,,,,,,,,,36.015591999996104,0.015591999996104278,None,69.66734189999988,69.66734189999988,69.66734189999988,69.66734189999988,69.66734189999988,69.66734189999988,69.66734189999988,69.66734189999988,69.66734189999988,69.66734189999988,,006,P020,2025_May_06_1724,ConditionRich,2021.2.3,59.931665913979266,
36.75,40.0,41,0.0,Stimuli/Blank.png,0,0.0,0.0,0,18,18,18,,,,,,,,,,,,,36.765637899996364,0.015637899996363558,None,70.40132460000314,70.40132460000314,70.40132460000314,70.40132460000314,70.40132460000314,70.40132460000314,70.40132460000314,70.40132460000314,70.40132460000314,70.40132460000314,,006,P020,2025_May_06_1724,ConditionRich,2021.2.3,59.931665913979266,
40.0,40.75,21,0.75,Stimuli/P020/things_anteater_10s.jpg,0,0.0,0.0,0,19,19,19,,,,,,,,,,,,,40.004105699998036,0.004105699998035561,None,73.65421630000492,73.65421630000492,73.65421630000492,73.65421630000492,73.65421630000492,73.65421630000492,73.65421630000492,73.65421630000492,73.65421630000492,73.65421630000492,,006,P020,2025_May_06_1724,ConditionRich,2021.2.3,59.931665913979266,
40.75,44.0,41,0.0,Stimuli/Blank.png,0,0.0,0.0,0,20,20,20,,,,,,,,,,,,,40.7683520999999,0.01835209999990184,None,74.4048671000055,74.4048671000055,74.4048671000055,74.4048671000055,74.4048671000055,74.4048671000055,74.4048671000055,74.4048671000055,74.4048671000055,74.4048671000055,,006,P020,2025_May_06_1724,ConditionRich,2021.2.3,59.931665913979266,
44.0,44.75,20,0.75,Stimuli/P020/sun_dlnwonqxagdvtlta.jpg,0,0.0,0.0,0,21,21,21,,,,,,,,,,,,,44.00447549999808,0.004475499998079613,None,77.64105380000547,77.64105380000547,77.64105380000547,77.64105380000547,77.64105380000547,77.64105380000547,77.64105380000547,77.64105380000547,77.64105380000547,77.64105380000547,,006,P020,2025_May_06_1724,ConditionRich,2021.2.3,59.931665913979266,
44.75,48.0,41,0.0,Stimuli/Blank.png,1,0.25,1.0,0,22,22,22,,,,,,,,,,,,,44.75600300000224,0.006003000002237968,1,78.39173490000394,78.39173490000394,78.39173490000394,78.39173490000394,78.39173490000394,78.39173490000394,78.62531840000156,79.37592890000087,78.39173490000394,78.39173490000394,0.6627956000011181,006,P020,2025_May_06_1724,ConditionRich,2021.2.3,59.931665913979266,
48.0,48.75,23,0.75,Stimuli/P020/things_boy_10s.jpg,1,0.0,0.75,0,23,23,23,,,,,,,,,,,,,48.008176399998774,0.008176399998774286,1,81.64460020000115,81.64460020000115,81.64460020000115,81.64460020000115,81.64460020000115,81.64460020000115,81.64460020000115,82.37858140000026,81.64460020000115,81.64460020000115,0.4929104000038933,006,P020,2025_May_06_1724,ConditionRich,2021.2.3,59.931665913979266,
48.75,52.0,41,0.0,Stimuli/Blank.png,0,0.0,0.0,0,24,24,24,,,,,,,,,,,,,48.75951509999868,0.009515099998679943,None,82.39526630000182,82.39526630000182,82.39526630000182,82.39526630000182,82.39526630000182,82.39526630000182,82.39526630000182,82.39526630000182,82.39526630000182,82.39526630000182,,006,P020,2025_May_06_1724,ConditionRich,2021.2.3,59.931665913979266,
52.0,52.75,36,0.75,Stimuli/P020/things_sunroof_10s.jpg,0,0.0,0.0,0,25,25,25,,,,,,,,,,,,,52.01204940000025,0.012049400000250898,None,85.6481505000047,85.6481505000047,85.6481505000047,85.6481505000047,85.6481505000047,85.6481505000047,85.6481505000047,85.6481505000047,85.6481505000047,85.6481505000047,,006,P020,2025_May_06_1724,ConditionRich,2021.2.3,59.931665913979266,
52.75,56.0,41,0.0,Stimuli/Blank.png,0,0.0,0.0,0,26,26,26,,,,,,,,,,,,,52.76345269999729,0.01345269999728771,None,86.39880819999962,86.39880819999962,86.39880819999962,86.39880819999962,86.39880819999962,86.39880819999962,86.39880819999962,86.39880819999962,86.39880819999962,86.39880819999962,,006,P020,2025_May_06_1724,ConditionRich,2021.2.3,59.931665913979266,
56.0,56.75,19,0.75,Stimuli/P020/sun_byssdezaaqnthppd.jpg,0,0.0,0.0,0,27,27,27,,,,,,,,,,,,,55.998822100002144,-0.0011778999978560023,None,89.63498249999975,89.63498249999975,89.63498249999975,89.63498249999975,89.63498249999975,89.63498249999975,89.63498249999975,89.63498249999975,89.63498249999975,89.63498249999975,,006,P020,2025_May_06_1724,ConditionRich,2021.2.3,59.931665913979266,
56.75,60.0,41,0.0,Stimuli/Blank.png,0,0.0,0.0,0,28,28,28,,,,,,,,,,,,,56.7492895999967,-0.0007104000032995827,None,90.38566920000449,90.38566920000449,90.38566920000449,90.38566920000449,90.38566920000449,90.38566920000449,90.38566920000449,90.38566920000449,90.38566920000449,90.38566920000449,,006,P020,2025_May_06_1724,ConditionRich,2021.2.3,59.931665913979266,
60.0,60.75,38,0.75,Stimuli/P020/things_turtle_10n.jpg,0,0.0,0.0,0,29,29,29,,,,,,,,,,,,,60.00245670000004,0.002456700000038836,None,93.63851070000237,93.63851070000237,93.63851070000237,93.63851070000237,93.63851070000237,93.63851070000237,93.63851070000237,93.63851070000237,93.63851070000237,93.63851070000237,,006,P020,2025_May_06_1724,ConditionRich,2021.2.3,59.931665913979266,
60.75,64.0,41,0.0,Stimuli/Blank.png,0,0.0,0.0,0,30,30,30,,,,,,,,,,,,,60.752860799999326,0.002860799999325536,None,94.38922210000601,94.38922210000601,94.38922210000601,94.38922210000601,94.38922210000601,94.38922210000601,94.38922210000601,94.38922210000601,94.38922210000601,94.38922210000601,,006,P020,2025_May_06_1724,ConditionRich,2021.2.3,59.931665913979266,
64.0,64.75,22,0.75,Stimuli/P020/things_bead_10s.jpg,0,0.0,0.0,0,31,31,31,,,,,,,,,,,,,64.0061812999993,0.006181299999298062,None,97.65877690000343,97.65877690000343,97.65877690000343,97.65877690000343,97.65877690000343,97.65877690000343,97.65877690000343,97.65877690000343,97.65877690000343,97.65877690000343,,006,P020,2025_May_06_1724,ConditionRich,2021.2.3,59.931665913979266,
64.75,68.0,41,0.0,Stimuli/Blank.png,1,0.25,1.0,0,32,32,32,,,,,,,,,,,,,64.77307879999717,0.023078799997165333,1,98.40942100000393,98.40942100000393,98.40942100000393,98.40942100000393,98.40942100000393,98.40942100000393,98.6430388000008,99.39369560000341,98.40942100000393,98.40942100000393,0.6543782000007923,006,P020,2025_May_06_1724,ConditionRich,2021.2.3,59.931665913979266,
68.0,68.75,9,0.75,Stimuli/P020/sun_bbfmuujfvpiaqdww.jpg,0,0.0,0.0,0,33,33,33,,,,,,,,,,,,,68.00919969999813,0.009199699998134747,None,101.64564200000314,101.64564200000314,101.64564200000314,101.64564200000314,101.64564200000314,101.64564200000314,101.64564200000314,101.64564200000314,101.64564200000314,101.64564200000314,,006,P020,2025_May_06_1724,ConditionRich,2021.2.3,59.931665913979266,
68.75,72.0,41,0.0,Stimuli/Blank.png,0,0.0,0.0,0,34,34,34,,,,,,,,,,,,,68.76005459999578,0.010054599995783065,None,102.39629440000135,102.39629440000135,102.39629440000135,102.39629440000135,102.39629440000135,102.39629440000135,102.39629440000135,102.39629440000135,102.39629440000135,102.39629440000135,,006,P020,2025_May_06_1724,ConditionRich,2021.2.3,59.931665913979266,
72.0,72.75,2,0.75,Stimuli/P020/sun_ajhvfwzgpfovdgid.jpg,0,0.0,0.0,0,35,35,35,,,,,,,,,,,,,72.01319409999996,0.013194099999964237,None,105.64915000000474,105.64915000000474,105.64915000000474,105.64915000000474,105.64915000000474,105.64915000000474,105.64915000000474,105.64915000000474,105.64915000000474,105.64915000000474,,006,P020,2025_May_06_1724,ConditionRich,2021.2.3,59.931665913979266,
72.75,76.0,41,0.0,Stimuli/Blank.png,0,0.0,0.0,0,36,36,36,,,,,,,,,,,,,72.76335870000185,0.013358700001845136,None,106.39985090000118,106.39985090000118,106.39985090000118,106.39985090000118,106.39985090000118,106.39985090000118,106.39985090000118,106.39985090000118,106.39985090000118,106.39985090000118,,006,P020,2025_May_06_1724,ConditionRich,2021.2.3,59.931665913979266,
76.0,76.75,3,0.75,Stimuli/P020/sun_aknrkswonrogcooi.jpg,0,0.0,0.0,0,37,37,37,,,,,,,,,,,,,76.00044009999692,0.000440099996922072,None,109.65272140000161,109.65272140000161,109.65272140000161,109.65272140000161,109.65272140000161,109.65272140000161,109.65272140000161,109.65272140000161,109.65272140000161,109.65272140000161,,006,P020,2025_May_06_1724,ConditionRich,2021.2.3,59.931665913979266,
76.75,80.0,41,0.0,Stimuli/Blank.png,1,2.25,3.0,0,38,38,38,,,,,,,,,,,,,76.76910639999551,0.019106399995507672,1,110.42008100000385,110.42008100000385,110.42008100000385,110.42008100000385,110.42008100000385,110.42008100000385,112.65537880000193,113.40609340000083,110.42008100000385,110.42008100000385,2.865441000001738,006,P020,2025_May_06_1724,ConditionRich,2021.2.3,59.931665913979266,
80.0,80.75,10,0.75,Stimuli/P020/sun_bblqhrudkospnbbv.jpg,0,0.0,0.0,0,39,39,39,,,,,,,,,,,,,80.01987160000135,0.019871600001351908,None,113.65626619999966,113.65626619999966,113.65626619999966,113.65626619999966,113.65626619999966,113.65626619999966,113.65626619999966,113.65626619999966,113.65626619999966,113.65626619999966,,006,P020,2025_May_06_1724,ConditionRich,2021.2.3,59.931665913979266,
80.75,84.0,41,0.0,Stimuli/Blank.png,0,0.0,0.0,0,40,40,40,,,,,,,,,,,,,80.7545450999969,0.004545099996903446,None,114.39025000000402,114.39025000000402,114.39025000000402,114.39025000000402,114.39025000000402,114.39025000000402,114.39025000000402,114.39025000000402,114.39025000000402,114.39025000000402,,006,P020,2025_May_06_1724,ConditionRich,2021.2.3,59.931665913979266,
84.0,100.0,0,0.0,Stimuli/Blank.png,1,12.0,12.75,0,41,41,41,,,,,,,,,,,,,84.00736419999885,0.007364199998846743,1,117.64313419999962,117.64313419999962,117.64313419999962,117.64313419999962,117.64313419999962,117.64313419999962,129.6371702000033,130.38776350000262,117.64313419999962,117.64313419999962,13.022535500000231,006,P020,2025_May_06_1724,ConditionRich,2021.2.3,59.931665913979266,
100.0,100.75,5,0.75,Stimuli/P020/sun_amjqxnqvhovkotym.jpg,0,0.0,0.0,0,42,42,42,,,,,,,,,,,,,100.00436199999967,0.0043619999996735714,None,133.6406208000044,133.6406208000044,133.6406208000044,133.6406208000044,133.6406208000044,133.6406208000044,133.6406208000044,133.6406208000044,133.6406208000044,133.6406208000044,,006,P020,2025_May_06_1724,ConditionRich,2021.2.3,59.931665913979266,
100.75,104.0,41,0.0,Stimuli/Blank.png,1,1.25,2.0,0,43,43,43,,,,,,,,,,,,,100.75491909999982,0.004919099999824539,1,134.3912891,134.3912891,134.3912891,134.3912891,134.3912891,134.3912891,135.62571030000254,136.37634390000312,134.3912891,134.3912891,1.9255982000031509,006,P020,2025_May_06_1724,ConditionRich,2021.2.3,59.931665913979266,
104.0,104.75,6,0.75,Stimuli/P020/sun_amppcthpabgulbwl.jpg,0,0.0,0.0,0,44,44,44,,,,,,,,,,,,,104.00908139999956,0.009081399999558926,None,137.66084319999936,137.66084319999936,137.66084319999936,137.66084319999936,137.66084319999936,137.66084319999936,137.66084319999936,137.66084319999936,137.66084319999936,137.66084319999936,,006,P020,2025_May_06_1724,ConditionRich,2021.2.3,59.931665913979266,
104.75,108.0,41,0.0,Stimuli/Blank.png,0,0.0,0.0,0,45,45,45,,,,,,,,,,,,,104.77557729999535,0.025577299995347857,None,138.41151360000367,138.41151360000367,138.41151360000367,138.41151360000367,138.41151360000367,138.41151360000367,138.41151360000367,138.41151360000367,138.41151360000367,138.41151360000367,,006,P020,2025_May_06_1724,ConditionRich,2021.2.3,59.931665913979266,
108.0,108.75,14,0.75,Stimuli/P020/sun_birvagufpcschyrr.jpg,0,0.0,0.0,0,46,46,46,,,,,,,,,,,,,108.01176929999929,0.011769299999286886,None,141.66438750000088,141.66438750000088,141.66438750000088,141.66438750000088,141.66438750000088,141.66438750000088,141.66438750000088,141.66438750000088,141.66438750000088,141.66438750000088,,006,P020,2025_May_06_1724,ConditionRich,2021.2.3,59.931665913979266,
108.75,112.0,41,0.0,Stimuli/Blank.png,0,0.0,0.0,0,47,47,47,,,,,,,,,,,,,108.77961689999938,0.02961689999938244,None,142.41504920000443,142.41504920000443,142.41504920000443,142.41504920000443,142.41504920000443,142.41504920000443,142.41504920000443,142.41504920000443,142.41504920000443,142.41504920000443,,006,P020,2025_May_06_1724,ConditionRich,2021.2.3,59.931665913979266,
112.0,112.75,30,0.75,Stimuli/P020/things_flip_flop_10s.jpg,0,0.0,0.0,0,48,48,48,,,,,,,,,,,,,111.99851230000058,-0.0014876999994157813,None,145.6512520000033,145.6512520000033,145.6512520000033,145.6512520000033,145.6512520000033,145.6512520000033,145.6512520000033,145.6512520000033,145.6512520000033,145.6512520000033,,006,P020,2025_May_06_1724,ConditionRich,2021.2.3,59.931665913979266,
112.75,116.0,41,0.0,Stimuli/Blank.png,1,1.25,2.0,0,49,49,49,,,,,,,,,,,,,112.7655511999983,0.015551199998299126,1,146.40190760000405,146.40190760000405,146.40190760000405,146.40190760000405,146.40190760000405,146.40190760000405,147.6363724000039,148.3870365000039,146.40190760000405,146.40190760000405,1.6928604999993695,006,P020,2025_May_06_1724,ConditionRich,2021.2.3,59.931665913979266,
116.0,116.75,13,0.75,Stimuli/P020/sun_bhzwrbdycbchqesq.jpg,0,0.0,0.0,0,50,50,50,,,,,,,,,,,,,116.00430939999933,0.004309399999328889,None,149.6547858000049,149.6547858000049,149.6547858000049,149.6547858000049,149.6547858000049,149.6547858000049,149.6547858000049,149.6547858000049,149.6547858000049,149.6547858000049,,006,P020,2025_May_06_1724,ConditionRich,2021.2.3,59.931665913979266,
116.75,120.0,41,0.0,Stimuli/Blank.png,0,0.0,0.0,0,51,51,51,,,,,,,,,,,,,116.76945179999893,0.019451799998932984,None,150.4054471000054,150.4054471000054,150.4054471000054,150.4054471000054,150.4054471000054,150.4054471000054,150.4054471000054,150.4054471000054,150.4054471000054,150.4054471000054,,006,P020,2025_May_06_1724,ConditionRich,2021.2.3,59.931665913979266,
120.0,120.75,35,0.75,Stimuli/P020/things_pretzel_10s.jpg,0,0.0,0.0,0,52,52,52,,,,,,,,,,,,,120.00621580000006,0.006215800000063609,None,153.65833760000532,153.65833760000532,153.65833760000532,153.65833760000532,153.65833760000532,153.65833760000532,153.65833760000532,153.65833760000532,153.65833760000532,153.65833760000532,,006,P020,2025_May_06_1724,ConditionRich,2021.2.3,59.931665913979266,
120.75,124.0,41,0.0,Stimuli/Blank.png,0,0.0,0.0,0,53,53,53,,,,,,,,,,,,,120.77357949999714,0.023579499997140374,None,154.4090045000048,154.4090045000048,154.4090045000048,154.4090045000048,154.4090045000048,154.4090045000048,154.4090045000048,154.4090045000048,154.4090045000048,154.4090045000048,,006,P020,2025_May_06_1724,ConditionRich,2021.2.3,59.931665913979266,
124.0,124.75,39,0.75,Stimuli/P020/things_wire_10s.jpg,0,0.0,0.0,0,54,54,54,,,,,,,,,,,,,124.00975559999642,0.00975559999642428,None,157.6451892000041,157.6451892000041,157.6451892000041,157.6451892000041,157.6451892000041,157.6451892000041,157.6451892000041,157.6451892000041,157.6451892000041,157.6451892000041,,006,P020,2025_May_06_1724,ConditionRich,2021.2.3,59.931665913979266,
124.75,128.0,41,0.0,Stimuli/Blank.png,0,0.0,0.0,0,55,55,55,,,,,,,,,,,,,124.76027539999632,0.010275399996316992,None,158.3958530000018,158.3958530000018,158.3958530000018,158.3958530000018,158.3958530000018,158.3958530000018,158.3958530000018,158.3958530000018,158.3958530000018,158.3958530000018,,006,P020,2025_May_06_1724,ConditionRich,2021.2.3,59.931665913979266,
128.0,128.75,8,0.75,Stimuli/P020/sun_avbzvunekksfggon.jpg,0,0.0,0.0,0,56,56,56,,,,,,,,,,,,,128.0124255999981,0.012425599998096004,None,161.64872990000003,161.64872990000003,161.64872990000003,161.64872990000003,161.64872990000003,161.64872990000003,161.64872990000003,161.64872990000003,161.64872990000003,161.64872990000003,,006,P020,2025_May_06_1724,ConditionRich,2021.2.3,59.931665913979266,
128.75,132.0,41,0.0,Stimuli/Blank.png,0,0.0,0.0,0,57,57,57,,,,,,,,,,,,,128.76431469999807,0.014314699998067226,None,162.3994118000046,162.3994118000046,162.3994118000046,162.3994118000046,162.3994118000046,162.3994118000046,162.3994118000046,162.3994118000046,162.3994118000046,162.3994118000046,,006,P020,2025_May_06_1724,ConditionRich,2021.2.3,59.931665913979266,
132.0,132.75,34,0.75,Stimuli/P020/things_man_10s.jpg,0,0.0,0.0,0,58,58,58,,,,,,,,,,,,,131.99927699999535,-0.0007230000046547502,None,165.6355990000011,165.6355990000011,165.6355990000011,165.6355990000011,165.6355990000011,165.6355990000011,165.6355990000011,165.6355990000011,165.6355990000011,165.6355990000011,,006,P020,2025_May_06_1724,ConditionRich,2021.2.3,59.931665913979266,
132.75,136.0,41,0.0,Stimuli/Blank.png,0,0.0,0.0,0,59,59,59,,,,,,,,,,,,,132.74986740000168,-0.0001325999983237125,None,166.38626990000193,166.38626990000193,166.38626990000193,166.38626990000193,166.38626990000193,166.38626990000193,166.38626990000193,166.38626990000193,166.38626990000193,166.38626990000193,,006,P020,2025_May_06_1724,ConditionRich,2021.2.3,59.931665913979266,
136.0,136.75,17,0.75,Stimuli/P020/sun_bltxkcclrpweopkl.jpg,0,0.0,0.0,0,60,60,60,,,,,,,,,,,,,136.00346269999864,0.0034626999986357987,None,169.65582350000477,169.65582350000477,169.65582350000477,169.65582350000477,169.65582350000477,169.65582350000477,169.65582350000477,169.65582350000477,169.65582350000477,169.65582350000477,,006,P020,2025_May_06_1724,ConditionRich,2021.2.3,59.931665913979266,
136.75,140.0,41,0.0,Stimuli/Blank.png,0,0.0,0.0,0,61,61,61,,,,,,,,,,,,,136.77083979999588,0.020839799995883368,None,170.4064836000034,170.4064836000034,170.4064836000034,170.4064836000034,170.4064836000034,170.4064836000034,170.4064836000034,170.4064836000034,170.4064836000034,170.4064836000034,,006,P020,2025_May_06_1724,ConditionRich,2021.2.3,59.931665913979266,
140.0,140.75,15,0.75,Stimuli/P020/sun_bkubdnohuakmwcaj.jpg,0,0.0,0.0,0,62,62,62,,,,,,,,,,,,,140.00748329999624,0.007483299996238202,None,173.64268780000566,173.64268780000566,173.64268780000566,173.64268780000566,173.64268780000566,173.64268780000566,173.64268780000566,173.64268780000566,173.64268780000566,173.64268780000566,,006,P020,2025_May_06_1724,ConditionRich,2021.2.3,59.931665913979266,
140.75,144.0,41,0.0,Stimuli/Blank.png,0,0.0,0.0,0,63,63,63,,,,,,,,,,,,,140.75902679999854,0.009026799998537172,None,174.4100391000029,174.4100391000029,174.4100391000029,174.4100391000029,174.4100391000029,174.4100391000029,174.4100391000029,174.4100391000029,174.4100391000029,174.4100391000029,,006,P020,2025_May_06_1724,ConditionRich,2021.2.3,59.931665913979266,
144.0,144.75,28,0.75,Stimuli/P020/things_face_10s.jpg,0,0.0,0.0,0,64,64,64,,,,,,,,,,,,,144.02870529999927,0.028705299999273848,None,177.6795834000004,177.6795834000004,177.6795834000004,177.6795834000004,177.6795834000004,177.6795834000004,177.6795834000004,177.6795834000004,177.6795834000004,177.6795834000004,,006,P020,2025_May_06_1724,ConditionRich,2021.2.3,59.931665913979266,
144.75,148.0,41,0.0,Stimuli/Blank.png,0,0.0,0.0,0,65,65,65,,,,,,,,,,,,,144.7802176999976,0.030217699997592717,None,178.4310289999994,178.4310289999994,178.4310289999994,178.4310289999994,178.4310289999994,178.4310289999994,178.4310289999994,178.4310289999994,178.4310289999994,178.4310289999994,,006,P020,2025_May_06_1724,ConditionRich,2021.2.3,59.931665913979266,
148.0,148.75,33,0.75,Stimuli/P020/things_insole_10s.jpg,0,0.0,0.0,0,66,66,66,,,,,,,,,,,,,148.0300711000018,0.030071100001805462,None,181.66644640000595,181.66644640000595,181.66644640000595,181.66644640000595,181.66644640000595,181.66644640000595,181.66644640000595,181.66644640000595,181.66644640000595,181.66644640000595,,006,P020,2025_May_06_1724,ConditionRich,2021.2.3,59.931665913979266,
148.75,152.0,41,0.0,Stimuli/Blank.png,0,0.0,0.0,0,67,67,67,,,,,,,,,,,,,148.76477969999542,0.014779699995415285,None,182.40045530000498,182.40045530000498,182.40045530000498,182.40045530000498,182.40045530000498,182.40045530000498,182.40045530000498,182.40045530000498,182.40045530000498,182.40045530000498,,006,P020,2025_May_06_1724,ConditionRich,2021.2.3,59.931665913979266,
152.0,152.75,40,0.75,Stimuli/P020/things_woman_10s.jpg,0,0.0,0.0,0,68,68,68,,,,,,,,,,,,,152.0011028000008,0.0011028000008082017,None,185.65330740000354,185.65330740000354,185.65330740000354,185.65330740000354,185.65330740000354,185.65330740000354,185.65330740000354,185.65330740000354,185.65330740000354,185.65330740000354,,006,P020,2025_May_06_1724,ConditionRich,2021.2.3,59.931665913979266,
152.75,156.0,41,0.0,Stimuli/Blank.png,0,0.0,0.0,0,69,69,69,,,,,,,,,,,,,152.76868780000223,0.01868780000222614,None,186.40399420000176,186.40399420000176,186.40399420000176,186.40399420000176,186.40399420000176,186.40399420000176,186.40399420000176,186.40399420000176,186.40399420000176,186.40399420000176,,006,P020,2025_May_06_1724,ConditionRich,2021.2.3,59.931665913979266,
156.0,156.75,25,0.75,Stimuli/P020/things_chime_10s.jpg,0,0.0,0.0,0,70,70,70,,,,,,,,,,,,,156.00473690000217,0.004736900002171751,None,189.65685090000625,189.65685090000625,189.65685090000625,189.65685090000625,189.65685090000625,189.65685090000625,189.65685090000625,189.65685090000625,189.65685090000625,189.65685090000625,,006,P020,2025_May_06_1724,ConditionRich,2021.2.3,59.931665913979266,
156.75,160.0,41,0.0,Stimuli/Blank.png,0,0.0,0.0,0,71,71,71,,,,,,,,,,,,,156.7711225000021,0.021122500002093147,None,190.40760679999948,190.40760679999948,190.40760679999948,190.40760679999948,190.40760679999948,190.40760679999948,190.40760679999948,190.40760679999948,190.40760679999948,190.40760679999948,,006,P020,2025_May_06_1724,ConditionRich,2021.2.3,59.931665913979266,
160.0,160.75,32,0.75,Stimuli/P020/things_girl_10s.jpg,0,0.0,0.0,0,72,72,72,,,,,,,,,,,,,160.00892269999895,0.008922699998947792,None,193.66040700000303,193.66040700000303,193.66040700000303,193.66040700000303,193.66040700000303,193.66040700000303,193.66040700000303,193.66040700000303,193.66040700000303,193.66040700000303,,006,P020,2025_May_06_1724,ConditionRich,2021.2.3,59.931665913979266,
160.75,164.0,41,0.0,Stimuli/Blank.png,0,0.0,0.0,0,73,73,73,,,,,,,,,,,,,160.7748683999962,0.024868399996194057,None,194.4110615000027,194.4110615000027,194.4110615000027,194.4110615000027,194.4110615000027,194.4110615000027,194.4110615000027,194.4110615000027,194.4110615000027,194.4110615000027,,006,P020,2025_May_06_1724,ConditionRich,2021.2.3,59.931665913979266,
164.0,164.75,7,0.75,Stimuli/P020/sun_aqkbfuonyunmyqxb.jpg,0,0.0,0.0,0,74,74,74,,,,,,,,,,,,,164.0107183,0.01071830000000773,None,197.6639381999994,197.6639381999994,197.6639381999994,197.6639381999994,197.6639381999994,197.6639381999994,197.6639381999994,197.6639381999994,197.6639381999994,197.6639381999994,,006,P020,2025_May_06_1724,ConditionRich,2021.2.3,59.931665913979266,
164.75,168.0,41,0.0,Stimuli/Blank.png,0,0.0,0.0,0,75,75,75,,,,,,,,,,,,,164.77885629999946,0.028856299999461044,None,198.4146047000031,198.4146047000031,198.4146047000031,198.4146047000031,198.4146047000031,198.4146047000031,198.4146047000031,198.4146047000031,198.4146047000031,198.4146047000031,,006,P020,2025_May_06_1724,ConditionRich,2021.2.3,59.931665913979266,
168.0,168.75,18,0.75,Stimuli/P020/sun_bodjbrgwzlshgypq.jpg,1,0.0,0.75,0,76,76,76,,,,,,,,,,,,,168.01480669999728,0.014806699997279793,1,201.65080970000417,201.65080970000417,201.65080970000417,201.65080970000417,201.65080970000417,201.65080970000417,201.65080970000417,202.38478130000294,201.65080970000417,201.65080970000417,0.7060048999992432,006,P020,2025_May_06_1724,ConditionRich,2021.2.3,59.931665913979266,
168.75,172.0,41,0.0,Stimuli/Blank.png,0,0.0,0.0,0,77,77,77,,,,,,,,,,,,,168.76584739999817,0.0158473999981652,None,202.40146490000188,202.40146490000188,202.40146490000188,202.40146490000188,202.40146490000188,202.40146490000188,202.40146490000188,202.40146490000188,202.40146490000188,202.40146490000188,,006,P020,2025_May_06_1724,ConditionRich,2021.2.3,59.931665913979266,
172.0,172.75,24,0.75,Stimuli/P020/things_bulletin_board_10s.jpg,0,0.0,0.0,0,78,78,78,,,,,,,,,,,,,172.0044091000018,0.004409100001794286,None,205.65434020000248,205.65434020000248,205.65434020000248,205.65434020000248,205.65434020000248,205.65434020000248,205.65434020000248,205.65434020000248,205.65434020000248,205.65434020000248,,006,P020,2025_May_06_1724,ConditionRich,2021.2.3,59.931665913979266,
172.75,176.0,41,0.0,Stimuli/Blank.png,1,2.25,3.0,0,79,79,79,,,,,,,,,,,,,172.76929579999705,0.01929579999705311,1,206.40500480000628,206.40500480000628,206.40500480000628,206.40500480000628,206.40500480000628,206.40500480000628,208.6403094000052,209.39098220000596,206.40500480000628,206.40500480000628,2.9438657999999123,006,P020,2025_May_06_1724,ConditionRich,2021.2.3,59.931665913979266,
176.0,176.75,37,0.75,Stimuli/P020/things_toaster_10s.jpg,0,0.0,0.0,0,80,80,80,,,,,,,,,,,,,176.0049130999978,0.004913099997793324,None,209.64140380000026,209.64140380000026,209.64140380000026,209.64140380000026,209.64140380000026,209.64140380000026,209.64140380000026,209.64140380000026,209.64140380000026,209.64140380000026,,006,P020,2025_May_06_1724,ConditionRich,2021.2.3,59.931665913979266,
176.75,180.0,41,0.0,Stimuli/Blank.png,0,0.0,0.0,0,81,81,81,,,,,,,,,,,,,176.75592419999884,0.005924199998844415,None,210.39188550000108,210.39188550000108,210.39188550000108,210.39188550000108,210.39188550000108,210.39188550000108,210.39188550000108,210.39188550000108,210.39188550000108,210.39188550000108,,006,P020,2025_May_06_1724,ConditionRich,2021.2.3,59.931665913979266,
180.0,196.0,0,0.0,Stimuli/Blank.png,1,10.0,10.75,0,82,82,82,,,,,,,,,,,,,180.0090418999971,0.0090418999971007,1,213.64475060000404,213.64475060000404,213.64475060000404,213.64475060000404,213.64475060000404,213.64475060000404,223.63695559999906,224.38759450000362,213.64475060000404,213.64475060000404,10.41801509999641,006,P020,2025_May_06_1724,ConditionRich,2021.2.3,59.931665913979266,
196.0,196.75,10,0.75,Stimuli/P020/sun_bblqhrudkospnbbv.jpg,0,0.0,0.0,0,83,83,83,,,,,,,,,,,,,196.00583919999917,0.005839199999172706,None,229.6422401000018,229.6422401000018,229.6422401000018,229.6422401000018,229.6422401000018,229.6422401000018,229.6422401000018,229.6422401000018,229.6422401000018,229.6422401000018,,006,P020,2025_May_06_1724,ConditionRich,2021.2.3,59.931665913979266,
196.75,200.0,41,0.0,Stimuli/Blank.png,0,0.0,0.0,0,84,84,84,,,,,,,,,,,,,196.7572758000024,0.0072758000023895875,None,230.39291270000103,230.39291270000103,230.39291270000103,230.39291270000103,230.39291270000103,230.39291270000103,230.39291270000103,230.39291270000103,230.39291270000103,230.39291270000103,,006,P020,2025_May_06_1724,ConditionRich,2021.2.3,59.931665913979266,
200.0,200.75,25,0.75,Stimuli/P020/things_chime_10s.jpg,0,0.0,0.0,0,85,85,85,,,,,,,,,,,,,200.01014149999537,0.010141499995370395,None,233.64578020000044,233.64578020000044,233.64578020000044,233.64578020000044,233.64578020000044,233.64578020000044,233.64578020000044,233.64578020000044,233.64578020000044,233.64578020000044,,006,P020,2025_May_06_1724,ConditionRich,2021.2.3,59.931665913979266,
200.75,204.0,41,0.0,Stimuli/Blank.png,0,0.0,0.0,0,86,86,86,,,,,,,,,,,,,200.7600456,0.0100456000000122,None,234.39643670000078,234.39643670000078,234.39643670000078,234.39643670000078,234.39643670000078,234.39643670000078,234.39643670000078,234.39643670000078,234.39643670000078,234.39643670000078,,006,P020,2025_May_06_1724,ConditionRich,2021.2.3,59.931665913979266,
204.0,204.75,37,0.75,Stimuli/P020/things_toaster_10s.jpg,0,0.0,0.0,0,87,87,87,,,,,,,,,,,,,204.01338489999762,0.01338489999761805,None,237.64933670000028,237.64933670000028,237.64933670000028,237.64933670000028,237.64933670000028,237.64933670000028,237.64933670000028,237.64933670000028,237.64933670000028,237.64933670000028,,006,P020,2025_May_06_1724,ConditionRich,2021.2.3,59.931665913979266,
204.75,208.0,41,0.0,Stimuli/Blank.png,0,0.0,0.0,0,88,88,88,,,,,,,,,,,,,204.76351269999577,0.013512699995771982,None,238.3999713000012,238.3999713000012,238.3999713000012,238.3999713000012,238.3999713000012,238.3999713000012,238.3999713000012,238.3999713000012,238.3999713000012,238.3999713000012,,006,P020,2025_May_06_1724,ConditionRich,2021.2.3,59.931665913979266,
208.0,208.75,28,0.75,Stimuli/P020/things_face_10s.jpg,0,0.0,0.0,0,89,89,89,,,,,,,,,,,,,208.00048940000124,0.0004894000012427568,None,241.63617779999913,241.63617779999913,241.63617779999913,241.63617779999913,241.63617779999913,241.63617779999913,241.63617779999913,241.63617779999913,241.63617779999913,241.63617779999913,,006,P020,2025_May_06_1724,ConditionRich,2021.2.3,59.931665913979266,
208.75,212.0,41,0.0,Stimuli/Blank.png,1,1.25,2.0,0,90,90,90,,,,,,,,,,,,,208.7510611999969,0.001061199996911455,1,242.38685870000336,242.38685870000336,242.38685870000336,242.38685870000336,242.38685870000336,242.38685870000336,243.62130840000464,244.37190530000225,242.38685870000336,242.38685870000336,2.0089106000014,006,P020,2025_May_06_1724,ConditionRich,2021.2.3,59.931665913979266,
212.0,212.75,8,0.75,Stimuli/P020/sun_avbzvunekksfggon.jpg,0,0.0,0.0,0,91,91,91,,,,,,,,,,,,,212.00481829999626,0.004818299996259157,None,245.6563989999995,245.6563989999995,245.6563989999995,245.6563989999995,245.6563989999995,245.6563989999995,245.6563989999995,245.6563989999995,245.6563989999995,245.6563989999995,,006,P020,2025_May_06_1724,ConditionRich,2021.2.3,59.931665913979266,
212.75,216.0,41,0.0,Stimuli/Blank.png,0,0.0,0.0,0,92,92,92,,,,,,,,,,,,,212.77124000000185,0.021240000001853332,None,246.4070842000001,246.4070842000001,246.4070842000001,246.4070842000001,246.4070842000001,246.4070842000001,246.4070842000001,246.4070842000001,246.4070842000001,246.4070842000001,,006,P020,2025_May_06_1724,ConditionRich,2021.2.3,59.931665913979266,
216.0,216.75,5,0.75,Stimuli/P020/sun_amjqxnqvhovkotym.jpg,0,0.0,0.0,0,93,93,93,,,,,,,,,,,,,216.00896949999878,0.008969499998784158,None,249.65996440000163,249.65996440000163,249.65996440000163,249.65996440000163,249.65996440000163,249.65996440000163,249.65996440000163,249.65996440000163,249.65996440000163,249.65996440000163,,006,P020,2025_May_06_1724,ConditionRich,2021.2.3,59.931665913979266,
216.75,220.0,41,0.0,Stimuli/Blank.png,0,0.0,0.0,0,94,94,94,,,,,,,,,,,,,216.77421279999544,0.024212799995439127,None,250.41062030000467,250.41062030000467,250.41062030000467,250.41062030000467,250.41062030000467,250.41062030000467,250.41062030000467,250.41062030000467,250.41062030000467,250.41062030000467,,006,P020,2025_May_06_1724,ConditionRich,2021.2.3,59.931665913979266,
220.0,220.75,2,0.75,Stimuli/P020/sun_ajhvfwzgpfovdgid.jpg,1,0.0,0.75,0,95,95,95,,,,,,,,,,,,,220.01057880000008,0.010578800000075717,1,253.64680810000573,253.64680810000573,253.64680810000573,253.64680810000573,253.64680810000573,253.64680810000573,253.64680810000573,254.38078520000272,253.64680810000573,253.64680810000573,0.43293940000148723,006,P020,2025_May_06_1724,ConditionRich,2021.2.3,59.931665913979266,
220.75,224.0,41,0.0,Stimuli/Blank.png,0,0.0,0.0,0,96,96,96,,,,,,,,,,,,,220.76101570000174,0.01101570000173524,None,254.39746379999997,254.39746379999997,254.39746379999997,254.39746379999997,254.39746379999997,254.39746379999997,254.39746379999997,254.39746379999997,254.39746379999997,254.39746379999997,,006,P020,2025_May_06_1724,ConditionRich,2021.2.3,59.931665913979266,
224.0,224.75,32,0.75,Stimuli/P020/things_girl_10s.jpg,1,0.0,0.75,0,97,97,97,,,,,,,,,,,,,224.01548100000218,0.015481000002182554,1,257.66703390000475,257.66703390000475,257.66703390000475,257.66703390000475,257.66703390000475,257.66703390000475,257.66703390000475,258.38432340000145,257.66703390000475,257.66703390000475,0.46669919999840204,006,P020,2025_May_06_1724,ConditionRich,2021.2.3,59.931665913979266,
224.75,228.0,41,0.0,Stimuli/Blank.png,0,0.0,0.0,0,98,98,98,,,,,,,,,,,,,224.7654984999972,0.015498499997192994,None,258.4010214000009,258.4010214000009,258.4010214000009,258.4010214000009,258.4010214000009,258.4010214000009,258.4010214000009,258.4010214000009,258.4010214000009,258.4010214000009,,006,P020,2025_May_06_1724,ConditionRich,2021.2.3,59.931665913979266,
228.0,228.75,23,0.75,Stimuli/P020/things_boy_10s.jpg,0,0.0,0.0,0,99,99,99,,,,,,,,,,,,,228.00091350000002,0.0009135000000242144,None,261.6539367000005,261.6539367000005,261.6539367000005,261.6539367000005,261.6539367000005,261.6539367000005,261.6539367000005,261.6539367000005,261.6539367000005,261.6539367000005,,006,P020,2025_May_06_1724,ConditionRich,2021.2.3,59.931665913979266,
228.75,232.0,41,0.0,Stimuli/Blank.png,1,2.25,3.0,0,100,100,100,,,,,,,,,,,,,228.7681980999987,0.018198099998699035,1,262.40455230000225,262.40455230000225,262.40455230000225,262.40455230000225,262.40455230000225,262.40455230000225,264.63986619999923,265.3905664000049,262.40455230000225,262.40455230000225,2.592496299999766,006,P020,2025_May_06_1724,ConditionRich,2021.2.3,59.931665913979266,
232.0,232.75,17,0.75,Stimuli/P020/sun_bltxkcclrpweopkl.jpg,0,0.0,0.0,0,101,101,101,,,,,,,,,,,,,232.0048960999993,0.004896099999314174,None,265.64075910000247,265.64075910000247,265.64075910000247,265.64075910000247,265.64075910000247,265.64075910000247,265.64075910000247,265.64075910000247,265.64075910000247,265.64075910000247,,006,P020,2025_May_06_1724,ConditionRich,2021.2.3,59.931665913979266,
232.75,236.0,41,0.0,Stimuli/Blank.png,0,0.0,0.0,0,102,102,102,,,,,,,,,,,,,232.75502669999696,0.005026699996960815,None,266.39142580000043,266.39142580000043,266.39142580000043,266.39142580000043,266.39142580000043,266.39142580000043,266.39142580000043,266.39142580000043,266.39142580000043,266.39142580000043,,006,P020,2025_May_06_1724,ConditionRich,2021.2.3,59.931665913979266,
236.0,236.75,14,0.75,Stimuli/P020/sun_birvagufpcschyrr.jpg,0,0.0,0.0,0,103,103,103,,,,,,,,,,,,,236.0094134999963,0.009413499996298924,None,269.66098200000124,269.66098200000124,269.66098200000124,269.66098200000124,269.66098200000124,269.66098200000124,269.66098200000124,269.66098200000124,269.66098200000124,269.66098200000124,,006,P020,2025_May_06_1724,ConditionRich,2021.2.3,59.931665913979266,
236.75,240.0,41,0.0,Stimuli/Blank.png,0,0.0,0.0,0,104,104,104,,,,,,,,,,,,,236.7760081000015,0.026008100001490675,None,270.4116400000057,270.4116400000057,270.4116400000057,270.4116400000057,270.4116400000057,270.4116400000057,270.4116400000057,270.4116400000057,270.4116400000057,270.4116400000057,,006,P020,2025_May_06_1724,ConditionRich,2021.2.3,59.931665913979266,
240.0,240.75,27,0.75,Stimuli/P020/things_eel_10s.jpg,0,0.0,0.0,0,105,105,105,,,,,,,,,,,,,240.014396999999,0.014396999999007676,None,273.6645181000058,273.6645181000058,273.6645181000058,273.6645181000058,273.6645181000058,273.6645181000058,273.6645181000058,273.6645181000058,273.6645181000058,273.6645181000058,,006,P020,2025_May_06_1724,ConditionRich,2021.2.3,59.931665913979266,
240.75,244.0,41,0.0,Stimuli/Blank.png,0,0.0,0.0,0,106,106,106,,,,,,,,,,,,,240.77980060000118,0.02980060000118101,None,274.41520540000056,274.41520540000056,274.41520540000056,274.41520540000056,274.41520540000056,274.41520540000056,274.41520540000056,274.41520540000056,274.41520540000056,274.41520540000056,,006,P020,2025_May_06_1724,ConditionRich,2021.2.3,59.931665913979266,
244.0,244.75,35,0.75,Stimuli/P020/things_pretzel_10s.jpg,0,0.0,0.0,0,107,107,107,,,,,,,,,,,,,243.99890919999598,-0.0010908000040217303,None,277.6346918000054,277.6346918000054,277.6346918000054,277.6346918000054,277.6346918000054,277.6346918000054,277.6346918000054,277.6346918000054,277.6346918000054,277.6346918000054,,006,P020,2025_May_06_1724,ConditionRich,2021.2.3,59.931665913979266,
244.75,248.0,41,0.0,Stimuli/Blank.png,0,0.0,0.0,0,108,108,108,,,,,,,,,,,,,244.75046419999853,0.0004641999985324219,None,278.3853831000015,278.3853831000015,278.3853831000015,278.3853831000015,278.3853831000015,278.3853831000015,278.3853831000015,278.3853831000015,278.3853831000015,278.3853831000015,,006,P020,2025_May_06_1724,ConditionRich,2021.2.3,59.931665913979266,
248.0,248.75,6,0.75,Stimuli/P020/sun_amppcthpabgulbwl.jpg,0,0.0,0.0,0,109,109,109,,,,,,,,,,,,,248.00262020000082,0.00262020000081975,None,281.6549290000039,281.6549290000039,281.6549290000039,281.6549290000039,281.6549290000039,281.6549290000039,281.6549290000039,281.6549290000039,281.6549290000039,281.6549290000039,,006,P020,2025_May_06_1724,ConditionRich,2021.2.3,59.931665913979266,
248.75,252.0,41,0.0,Stimuli/Blank.png,0,0.0,0.0,0,110,110,110,,,,,,,,,,,,,248.76967599999625,0.019675999996252358,None,282.4055963999999,282.4055963999999,282.4055963999999,282.4055963999999,282.4055963999999,282.4055963999999,282.4055963999999,282.4055963999999,282.4055963999999,282.4055963999999,,006,P020,2025_May_06_1724,ConditionRich,2021.2.3,59.931665913979266,
252.0,252.75,3,0.75,Stimuli/P020/sun_aknrkswonrogcooi.jpg,0,0.0,0.0,0,111,111,111,,,,,,,,,,,,,252.00599430000148,0.005994300001475494,None,285.6417861000009,285.6417861000009,285.6417861000009,285.6417861000009,285.6417861000009,285.6417861000009,285.6417861000009,285.6417861000009,285.6417861000009,285.6417861000009,,006,P020,2025_May_06_1724,ConditionRich,2021.2.3,59.931665913979266,
252.75,256.0,41,0.0,Stimuli/Blank.png,0,0.0,0.0,0,112,112,112,,,,,,,,,,,,,252.75606039999548,0.006060399995476473,None,286.39244090000284,286.39244090000284,286.39244090000284,286.39244090000284,286.39244090000284,286.39244090000284,286.39244090000284,286.39244090000284,286.39244090000284,286.39244090000284,,006,P020,2025_May_06_1724,ConditionRich,2021.2.3,59.931665913979266,
256.0,256.75,7,0.75,Stimuli/P020/sun_aqkbfuonyunmyqxb.jpg,0,0.0,0.0,0,113,113,113,,,,,,,,,,,,,256.0096382999982,0.009638299998186994,None,289.6453304000024,289.6453304000024,289.6453304000024,289.6453304000024,289.6453304000024,289.6453304000024,289.6453304000024,289.6453304000024,289.6453304000024,289.6453304000024,,006,P020,2025_May_06_1724,ConditionRich,2021.2.3,59.931665913979266,
256.75,260.0,41,0.0,Stimuli/Blank.png,0,0.0,0.0,0,114,114,114,,,,,,,,,,,,,256.759613299997,0.009613299996999558,None,290.39599360000284,290.39599360000284,290.39599360000284,290.39599360000284,290.39599360000284,290.39599360000284,290.39599360000284,290.39599360000284,290.39599360000284,290.39599360000284,,006,P020,2025_May_06_1724,ConditionRich,2021.2.3,59.931665913979266,
260.0,260.75,13,0.75,Stimuli/P020/sun_bhzwrbdycbchqesq.jpg,0,0.0,0.0,0,115,115,115,,,,,,,,,,,,,260.0150687999994,0.015068799999426119,None,293.66555970000627,293.66555970000627,293.66555970000627,293.66555970000627,293.66555970000627,293.66555970000627,293.66555970000627,293.66555970000627,293.66555970000627,293.66555970000627,,006,P020,2025_May_06_1724,ConditionRich,2021.2.3,59.931665913979266,
260.75,264.0,41,0.0,Stimuli/Blank.png,1,1.25,2.0,0,116,116,116,,,,,,,,,,,,,260.76376799999707,0.013767999997071456,1,294.39951770000334,294.39951770000334,294.39951770000334,294.39951770000334,294.39951770000334,294.39951770000334,295.6339569000047,296.3845994000003,294.39951770000334,294.39951770000334,1.6842795999982627,006,P020,2025_May_06_1724,ConditionRich,2021.2.3,59.931665913979266,
264.0,264.75,22,0.75,Stimuli/P020/things_bead_10s.jpg,0,0.0,0.0,0,117,117,117,,,,,,,,,,,,,263.99998629999754,-1.3700002455152571e-05,None,297.635726600005,297.635726600005,297.635726600005,297.635726600005,297.635726600005,297.635726600005,297.635726600005,297.635726600005,297.635726600005,297.635726600005,,006,P020,2025_May_06_1724,ConditionRich,2021.2.3,59.931665913979266,
264.75,268.0,41,0.0,Stimuli/Blank.png,0,0.0,0.0,0,118,118,118,,,,,,,,,,,,,264.74986779999745,-0.00013220000255387276,None,298.3863941000018,298.3863941000018,298.3863941000018,298.3863941000018,298.3863941000018,298.3863941000018,298.3863941000018,298.3863941000018,298.3863941000018,298.3863941000018,,006,P020,2025_May_06_1724,ConditionRich,2021.2.3,59.931665913979266,
268.0,268.75,36,0.75,Stimuli/P020/things_sunroof_10s.jpg,0,0.0,0.0,0,119,119,119,,,,,,,,,,,,,268.0047609999965,0.004760999996506143,None,301.6559791000036,301.6559791000036,301.6559791000036,301.6559791000036,301.6559791000036,301.6559791000036,301.6559791000036,301.6559791000036,301.6559791000036,301.6559791000036,,006,P020,2025_May_06_1724,ConditionRich,2021.2.3,59.931665913979266,
268.75,272.0,41,0.0,Stimuli/Blank.png,0,0.0,0.0,0,120,120,120,,,,,,,,,,,,,268.7700948999991,0.020094899999094196,None,302.4066110000058,302.4066110000058,302.4066110000058,302.4066110000058,302.4066110000058,302.4066110000058,302.4066110000058,302.4066110000058,302.4066110000058,302.4066110000058,,006,P020,2025_May_06_1724,ConditionRich,2021.2.3,59.931665913979266,
272.0,272.75,20,0.75,Stimuli/P020/sun_dlnwonqxagdvtlta.jpg,0,0.0,0.0,0,121,121,121,,,,,,,,,,,,,272.0099186000007,0.009918600000673905,None,305.6595008000004,305.6595008000004,305.6595008000004,305.6595008000004,305.6595008000004,305.6595008000004,305.6595008000004,305.6595008000004,305.6595008000004,305.6595008000004,,006,P020,2025_May_06_1724,ConditionRich,2021.2.3,59.931665913979266,
272.75,276.0,41,0.0,Stimuli/Blank.png,0,0.0,0.0,0,122,122,122,,,,,,,,,,,,,272.7744287000023,0.024428700002317782,None,306.410166200003,306.410166200003,306.410166200003,306.410166200003,306.410166200003,306.410166200003,306.410166200003,306.410166200003,306.410166200003,306.410166200003,,006,P020,2025_May_06_1724,ConditionRich,2021.2.3,59.931665913979266,
276.0,292.0,0,0.0,Stimuli/Blank.png,1,6.0,6.75,0,123,123,123,,,,,,,,,,,,,276.0105779000005,0.01057790000049863,1,309.64641259999917,309.64641259999917,309.64641259999917,309.64641259999917,309.64641259999917,309.64641259999917,315.634997000001,316.38564939999924,309.64641259999917,309.64641259999917,6.81659639999998,006,P020,2025_May_06_1724,ConditionRich,2021.2.3,59.931665913979266,
292.0,292.75,39,0.75,Stimuli/P020/things_wire_10s.jpg,0,0.0,0.0,0,124,124,124,,,,,,,,,,,,,292.0105651999984,0.010565199998382013,None,325.6605278999996,325.6605278999996,325.6605278999996,325.6605278999996,325.6605278999996,325.6605278999996,325.6605278999996,325.6605278999996,325.6605278999996,325.6605278999996,,006,P020,2025_May_06_1724,ConditionRich,2021.2.3,59.931665913979266,
292.75,296.0,41,0.0,Stimuli/Blank.png,0,0.0,0.0,0,125,125,125,,,,,,,,,,,,,292.77492009999696,0.024920099996961653,None,326.41119980000076,326.41119980000076,326.41119980000076,326.41119980000076,326.41119980000076,326.41119980000076,326.41119980000076,326.41119980000076,326.41119980000076,326.41119980000076,,006,P020,2025_May_06_1724,ConditionRich,2021.2.3,59.931665913979266,
296.0,296.75,4,0.75,Stimuli/P020/sun_amixpbnrxiulfsri.jpg,0,0.0,0.0,0,126,126,126,,,,,,,,,,,,,296.011605300002,0.011605300001974683,None,329.64739720000216,329.64739720000216,329.64739720000216,329.64739720000216,329.64739720000216,329.64739720000216,329.64739720000216,329.64739720000216,329.64739720000216,329.64739720000216,,006,P020,2025_May_06_1724,ConditionRich,2021.2.3,59.931665913979266,
296.75,300.0,41,0.0,Stimuli/Blank.png,0,0.0,0.0,0,127,127,127,,,,,,,,,,,,,296.76232799999707,0.012327999997069128,None,330.3980606000041,330.3980606000041,330.3980606000041,330.3980606000041,330.3980606000041,330.3980606000041,330.3980606000041,330.3980606000041,330.3980606000041,330.3980606000041,,006,P020,2025_May_06_1724,ConditionRich,2021.2.3,59.931665913979266,
300.0,300.75,33,0.75,Stimuli/P020/things_insole_10s.jpg,0,0.0,0.0,0,128,128,128,,,,,,,,,,,,,300.0144777999958,0.014477799995802343,None,333.65093490000436,333.65093490000436,333.65093490000436,333.65093490000436,333.65093490000436,333.65093490000436,333.65093490000436,333.65093490000436,333.65093490000436,333.65093490000436,,006,P020,2025_May_06_1724,ConditionRich,2021.2.3,59.931665913979266,
300.75,304.0,41,0.0,Stimuli/Blank.png,0,0.0,0.0,0,129,129,129,,,,,,,,,,,,,300.76522439999826,0.015224399998260196,None,334.4015905000051,334.4015905000051,334.4015905000051,334.4015905000051,334.4015905000051,334.4015905000051,334.4015905000051,334.4015905000051,334.4015905000051,334.4015905000051,,006,P020,2025_May_06_1724,ConditionRich,2021.2.3,59.931665913979266,
304.0,304.75,38,0.75,Stimuli/P020/things_turtle_10n.jpg,0,0.0,0.0,0,130,130,130,,,,,,,,,,,,,304.00220779999654,0.002207799996540416,None,337.65447850000055,337.65447850000055,337.65447850000055,337.65447850000055,337.65447850000055,337.65447850000055,337.65447850000055,337.65447850000055,337.65447850000055,337.65447850000055,,006,P020,2025_May_06_1724,ConditionRich,2021.2.3,59.931665913979266,
304.75,308.0,41,0.0,Stimuli/Blank.png,0,0.0,0.0,0,131,131,131,,,,,,,,,,,,,304.7694797000004,0.019479700000374578,None,338.405136100002,338.405136100002,338.405136100002,338.405136100002,338.405136100002,338.405136100002,338.405136100002,338.405136100002,338.405136100002,338.405136100002,,006,P020,2025_May_06_1724,ConditionRich,2021.2.3,59.931665913979266,
308.0,308.75,26,0.75,Stimuli/P020/things_earwig_10n.jpg,0,0.0,0.0,0,132,132,132,,,,,,,,,,,,,308.0060172000012,0.00601720000122441,None,341.64132919999975,341.64132919999975,341.64132919999975,341.64132919999975,341.64132919999975,341.64132919999975,341.64132919999975,341.64132919999975,341.64132919999975,341.64132919999975,,006,P020,2025_May_06_1724,ConditionRich,2021.2.3,59.931665913979266,
308.75,312.0,41,0.0,Stimuli/Blank.png,0,0.0,0.0,0,133,133,133,,,,,,,,,,,,,308.7556323999961,0.005632399996102322,None,342.39199320000625,342.39199320000625,342.39199320000625,342.39199320000625,342.39199320000625,342.39199320000625,342.39199320000625,342.39199320000625,342.39199320000625,342.39199320000625,,006,P020,2025_May_06_1724,ConditionRich,2021.2.3,59.931665913979266,
312.0,312.75,11,0.75,Stimuli/P020/sun_bcbfjkoziukwmdkd.jpg,0,0.0,0.0,0,134,134,134,,,,,,,,,,,,,312.0099341000023,0.00993410000228323,None,345.6615649000014,345.6615649000014,345.6615649000014,345.6615649000014,345.6615649000014,345.6615649000014,345.6615649000014,345.6615649000014,345.6615649000014,345.6615649000014,,006,P020,2025_May_06_1724,ConditionRich,2021.2.3,59.931665913979266,
312.75,316.0,41,0.0,Stimuli/Blank.png,0,0.0,0.0,0,135,135,135,,,,,,,,,,,,,312.7760801999975,0.026080199997522868,None,346.412213100004,346.412213100004,346.412213100004,346.412213100004,346.412213100004,346.412213100004,346.412213100004,346.412213100004,346.412213100004,346.412213100004,,006,P020,2025_May_06_1724,ConditionRich,2021.2.3,59.931665913979266,
316.0,316.75,16,0.75,Stimuli/P020/sun_blfpbbfyzmewzplm.jpg,0,0.0,0.0,0,136,136,136,,,,,,,,,,,,,316.0140010999967,0.014001099996676203,None,349.6651018000048,349.6651018000048,349.6651018000048,349.6651018000048,349.6651018000048,349.6651018000048,349.6651018000048,349.6651018000048,349.6651018000048,349.6651018000048,,006,P020,2025_May_06_1724,ConditionRich,2021.2.3,59.931665913979266,
316.75,320.0,41,0.0,Stimuli/Blank.png,0,0.0,0.0,0,137,137,137,,,,,,,,,,,,,316.7793051999979,0.02930519999790704,None,350.41577680000046,350.41577680000046,350.41577680000046,350.41577680000046,350.41577680000046,350.41577680000046,350.41577680000046,350.41577680000046,350.41577680000046,350.41577680000046,,006,P020,2025_May_06_1724,ConditionRich,2021.2.3,59.931665913979266,
320.0,320.75,19,0.75,Stimuli/P020/sun_byssdezaaqnthppd.jpg,0,0.0,0.0,0,138,138,138,,,,,,,,,,,,,320.01617049999913,0.016170499999134336,None,353.6519721000004,353.6519721000004,353.6519721000004,353.6519721000004,353.6519721000004,353.6519721000004,353.6519721000004,353.6519721000004,353.6519721000004,353.6519721000004,,006,P020,2025_May_06_1724,ConditionRich,2021.2.3,59.931665913979266,
320.75,324.0,41,0.0,Stimuli/Blank.png,0,0.0,0.0,0,139,139,139,,,,,,,,,,,,,320.7495770999958,-0.00042290000419598073,None,354.38594990000274,354.38594990000274,354.38594990000274,354.38594990000274,354.38594990000274,354.38594990000274,354.38594990000274,354.38594990000274,354.38594990000274,354.38594990000274,,006,P020,2025_May_06_1724,ConditionRich,2021.2.3,59.931665913979266,
324.0,324.75,24,0.75,Stimuli/P020/things_bulletin_board_10s.jpg,0,0.0,0.0,0,140,140,140,,,,,,,,,,,,,324.00460819999716,0.004608199997164775,None,357.65551000000414,357.65551000000414,357.65551000000414,357.65551000000414,357.65551000000414,357.65551000000414,357.65551000000414,357.65551000000414,357.65551000000414,357.65551000000414,,006,P020,2025_May_06_1724,ConditionRich,2021.2.3,59.931665913979266,
324.75,328.0,41,0.0,Stimuli/Blank.png,0,0.0,0.0,0,141,141,141,,,,,,,,,,,,,324.7697513999956,0.019751399995584507,None,358.406164,358.406164,358.406164,358.406164,358.406164,358.406164,358.406164,358.406164,358.406164,358.406164,,006,P020,2025_May_06_1724,ConditionRich,2021.2.3,59.931665913979266,
328.0,328.75,21,0.75,Stimuli/P020/things_anteater_10s.jpg,0,0.0,0.0,0,142,142,142,,,,,,,,,,,,,328.0090732000026,0.009073200002603699,None,361.65905770000245,361.65905770000245,361.65905770000245,361.65905770000245,361.65905770000245,361.65905770000245,361.65905770000245,361.65905770000245,361.65905770000245,361.65905770000245,,006,P020,2025_May_06_1724,ConditionRich,2021.2.3,59.931665913979266,
328.75,332.0,41,0.0,Stimuli/Blank.png,0,0.0,0.0,0,143,143,143,,,,,,,,,,,,,328.7735104000021,0.023510400002123788,None,362.4097433000061,362.4097433000061,362.4097433000061,362.4097433000061,362.4097433000061,362.4097433000061,362.4097433000061,362.4097433000061,362.4097433000061,362.4097433000061,,006,P020,2025_May_06_1724,ConditionRich,2021.2.3,59.931665913979266,
332.0,332.75,34,0.75,Stimuli/P020/things_man_10s.jpg,0,0.0,0.0,0,144,144,144,,,,,,,,,,,,,332.0094089999984,0.009408999998413492,None,365.6458760000023,365.6458760000023,365.6458760000023,365.6458760000023,365.6458760000023,365.6458760000023,365.6458760000023,365.6458760000023,365.6458760000023,365.6458760000023,,006,P020,2025_May_06_1724,ConditionRich,2021.2.3,59.931665913979266,
332.75,336.0,41,0.0,Stimuli/Blank.png,0,0.0,0.0,0,145,145,145,,,,,,,,,,,,,332.7607741999964,0.01077419999637641,None,366.396570900004,366.396570900004,366.396570900004,366.396570900004,366.396570900004,366.396570900004,366.396570900004,366.396570900004,366.396570900004,366.396570900004,,006,P020,2025_May_06_1724,ConditionRich,2021.2.3,59.931665913979266,
336.0,336.75,15,0.75,Stimuli/P020/sun_bkubdnohuakmwcaj.jpg,0,0.0,0.0,0,146,146,146,,,,,,,,,,,,,336.013286399997,0.013286399997014087,None,369.64946110000164,369.64946110000164,369.64946110000164,369.64946110000164,369.64946110000164,369.64946110000164,369.64946110000164,369.64946110000164,369.64946110000164,369.64946110000164,,006,P020,2025_May_06_1724,ConditionRich,2021.2.3,59.931665913979266,
336.75,340.0,41,0.0,Stimuli/Blank.png,1,2.25,3.0,0,147,147,147,,,,,,,,,,,,,336.76407279999694,0.014072799996938556,1,370.40012370000477,370.40012370000477,370.40012370000477,370.40012370000477,370.40012370000477,370.40012370000477,372.6363443000009,373.3860830000049,370.40012370000477,370.40012370000477,2.668725600000471,006,P020,2025_May_06_1724,ConditionRich,2021.2.3,59.931665913979266,
340.0,340.75,30,0.75,Stimuli/P020/things_flip_flop_10s.jpg,1,0.0,0.75,0,148,148,148,,,,,,,,,,,,,339.9998837000021,-0.00011629999789875001,1,373.6363154999999,373.6363154999999,373.6363154999999,373.6363154999999,373.6363154999999,373.6363154999999,373.6363154999999,374.3702923000019,373.6363154999999,373.6363154999999,0.5305962999991607,006,P020,2025_May_06_1724,ConditionRich,2021.2.3,59.931665913979266,
340.75,344.0,41,0.0,Stimuli/Blank.png,0,0.0,0.0,0,149,149,149,,,,,,,,,,,,,340.7506276999993,0.0006276999993133359,None,374.3869749000005,374.3869749000005,374.3869749000005,374.3869749000005,374.3869749000005,374.3869749000005,374.3869749000005,374.3869749000005,374.3869749000005,374.3869749000005,,006,P020,2025_May_06_1724,ConditionRich,2021.2.3,59.931665913979266,
344.0,344.75,1,0.75,Stimuli/P020/sun_aaaidwecchadbake.jpg,1,0.0,0.75,0,150,150,150,,,,,,,,,,,,,344.00355919999856,0.00355919999856269,1,377.63985420000245,377.63985420000245,377.63985420000245,377.63985420000245,377.63985420000245,377.63985420000245,377.63985420000245,None,377.63985420000245,377.63985420000245,0.3519880999956513,006,P020,2025_May_06_1724,ConditionRich,2021.2.3,59.931665913979266,
344.75,348.0,41,0.0,Stimuli/Blank.png,0,0.0,0.0,0,151,151,151,,,,,,,,,,,,,344.7542085000023,0.004208500002278015,None,378.3905115000016,378.3905115000016,378.3905115000016,378.3905115000016,378.3905115000016,378.3905115000016,378.3905115000016,378.3905115000016,378.3905115000016,378.3905115000016,,006,P020,2025_May_06_1724,ConditionRich,2021.2.3,59.931665913979266,
348.0,348.75,29,0.75,Stimuli/P020/things_flamingo_10s.jpg,0,0.0,0.0,0,152,152,152,,,,,,,,,,,,,348.00923379999585,0.009233799995854497,None,381.66007979999995,381.66007979999995,381.66007979999995,381.66007979999995,381.66007979999995,381.66007979999995,381.66007979999995,381.66007979999995,381.66007979999995,381.66007979999995,,006,P020,2025_May_06_1724,ConditionRich,2021.2.3,59.931665913979266,
348.75,352.0,41,0.0,Stimuli/Blank.png,0,0.0,0.0,0,153,153,153,,,,,,,,,,,,,348.7755465000009,0.025546500000928063,None,382.4274579000048,382.4274579000048,382.4274579000048,382.4274579000048,382.4274579000048,382.4274579000048,382.4274579000048,382.4274579000048,382.4274579000048,382.4274579000048,,006,P020,2025_May_06_1724,ConditionRich,2021.2.3,59.931665913979266,
352.0,352.75,9,0.75,Stimuli/P020/sun_bbfmuujfvpiaqdww.jpg,0,0.0,0.0,0,154,154,154,,,,,,,,,,,,,352.0277406999958,0.027740699995774776,None,385.6636206000039,385.6636206000039,385.6636206000039,385.6636206000039,385.6636206000039,385.6636206000039,385.6636206000039,385.6636206000039,385.6636206000039,385.6636206000039,,006,P020,2025_May_06_1724,ConditionRich,2021.2.3,59.931665913979266,
352.75,356.0,41,0.0,Stimuli/Blank.png,0,0.0,0.0,0,155,155,155,,,,,,,,,,,,,352.7610865000024,0.011086500002420507,None,386.39762870000413,386.39762870000413,386.39762870000413,386.39762870000413,386.39762870000413,386.39762870000413,386.39762870000413,386.39762870000413,386.39762870000413,386.39762870000413,,006,P020,2025_May_06_1724,ConditionRich,2021.2.3,59.931665913979266,
356.0,356.75,31,0.75,Stimuli/P020/things_fudge_10s.jpg,0,0.0,0.0,0,156,156,156,,,,,,,,,,,,,356.01397619999625,0.013976199996250216,None,389.6504853000006,389.6504853000006,389.6504853000006,389.6504853000006,389.6504853000006,389.6504853000006,389.6504853000006,389.6504853000006,389.6504853000006,389.6504853000006,,006,P020,2025_May_06_1724,ConditionRich,2021.2.3,59.931665913979266,
356.75,360.0,41,0.0,Stimuli/Blank.png,0,0.0,0.0,0,157,157,157,,,,,,,,,,,,,356.7647689000005,0.014768900000490248,None,390.4011578999998,390.4011578999998,390.4011578999998,390.4011578999998,390.4011578999998,390.4011578999998,390.4011578999998,390.4011578999998,390.4011578999998,390.4011578999998,,006,P020,2025_May_06_1724,ConditionRich,2021.2.3,59.931665913979266,
360.0,360.75,12,0.75,Stimuli/P020/sun_bgjrtiivbwugxhxp.jpg,0,0.0,0.0,0,158,158,158,,,,,,,,,,,,,360.0014897000001,0.0014897000000928529,None,393.65402720000566,393.65402720000566,393.65402720000566,393.65402720000566,393.65402720000566,393.65402720000566,393.65402720000566,393.65402720000566,393.65402720000566,393.65402720000566,,006,P020,2025_May_06_1724,ConditionRich,2021.2.3,59.931665913979266,
360.75,364.0,41,0.0,Stimuli/Blank.png,0,0.0,0.0,0,159,159,159,,,,,,,,,,,,,360.7690361999994,0.0190361999993911,None,394.40468630000396,394.40468630000396,394.40468630000396,394.40468630000396,394.40468630000396,394.40468630000396,394.40468630000396,394.40468630000396,394.40468630000396,394.40468630000396,,006,P020,2025_May_06_1724,ConditionRich,2021.2.3,59.931665913979266,
364.0,364.75,18,0.75,Stimuli/P020/sun_bodjbrgwzlshgypq.jpg,0,0.0,0.0,0,160,160,160,,,,,,,,,,,,,364.00514239999757,0.005142399997566827,None,397.6408530000044,397.6408530000044,397.6408530000044,397.6408530000044,397.6408530000044,397.6408530000044,397.6408530000044,397.6408530000044,397.6408530000044,397.6408530000044,,006,P020,2025_May_06_1724,ConditionRich,2021.2.3,59.931665913979266,
364.75,368.0,41,0.0,Stimuli/Blank.png,0,0.0,0.0,0,161,161,161,,,,,,,,,,,,,364.75507639999705,0.00507639999705134,None,398.3915552000035,398.3915552000035,398.3915552000035,398.3915552000035,398.3915552000035,398.3915552000035,398.3915552000035,398.3915552000035,398.3915552000035,398.3915552000035,,006,P020,2025_May_06_1724,ConditionRich,2021.2.3,59.931665913979266,
368.0,368.75,40,0.75,Stimuli/P020/things_woman_10s.jpg,0,0.0,0.0,0,162,162,162,,,,,,,,,,,,,368.0087321999963,0.00873219999630237,None,401.64443179999944,401.64443179999944,401.64443179999944,401.64443179999944,401.64443179999944,401.64443179999944,401.64443179999944,401.64443179999944,401.64443179999944,401.64443179999944,,006,P020,2025_May_06_1724,ConditionRich,2021.2.3,59.931665913979266,
368.75,372.0,41,0.0,Stimuli/Blank.png,1,0.25,1.0,0,163,163,163,,,,,,,,,,,,,368.75880250000046,0.008802500000456348,1,402.3951068000024,402.3951068000024,402.3951068000024,402.3951068000024,402.3951068000024,402.3951068000024,402.62865380000585,403.3792891000048,402.3951068000024,402.3951068000024,0.7067896999942604,006,P020,2025_May_06_1724,ConditionRich,2021.2.3,59.931665913979266,
372.0,388.0,0,0.0,Stimuli/Blank.png,1,1.0,1.75,0,164,164,164,,,,,,,,,,,,,372.01153709999926,0.011537099999259226,1,405.64798750000045,405.64798750000045,405.64798750000045,405.64798750000045,405.64798750000045,405.64798750000045,406.6322034000041,407.38287610000407,405.64798750000045,405.64798750000045,1.4810595999952056,006,P020,2025_May_06_1724,ConditionRich,2021.2.3,59.931665913979266,
