eventStartTime,eventEndTime,eventCond,imSize,imFile,responseEvent,fixRespStart,fixRespEnd,Events.thisRepN,Events.thisTrialN,Events.thisN,Events.thisIndex,Instructions.started,Instructions.stopped,participantReadyResponse.keys,participantReadyResponse.rt,participantReadyResponse.started,participantReadyResponse.stopped,startWaitforTrigger,triggerResponse.keys,triggerResponse.rt,triggerResponse.started,triggerResponse.stopped,globalTimer,actualStartTime,startTimingDiff,participantResponse.keys,participantResponse.started,participantResponse.stopped,image.started,image.stopped,fixationOutside.started,fixationOutside.stopped,fixationResponse.started,fixationResponse.stopped,fixationInside.started,fixationInside.stopped,participantResponse.rt,session,participant,date,expName,psychopyVersion,frameRate,
,,,,,,,,,,,,12.803951400004735,None,1,8.188858399997116,12.803951400004735,None,,,,,,,,,,,,,,,,,,,,,003,P020,2025_May_06_1655,ConditionRich,2021.2.3,59.93428804771249,
,,,,,,,,,,,,,,,,,,21.006419900004403,5,14.34433480000007,21.01965360000031,None,,,,,,,,,,,,,,,,003,P020,2025_May_06_1655,ConditionRich,2021.2.3,59.93428804771249,
0.0,4.0,0,0.0,Stimuli/Blank.png,0,0.0,0.0,0,0,0,0,,,,,,,,,,,,35.37005879999924,0.03819659999862779,0.03819659999862779,None,35.43236650000472,None,35.43236650000472,None,35.43236650000472,None,35.43236650000472,35.43236650000472,35.43236650000472,None,,003,P020,2025_May_06_1655,ConditionRich,2021.2.3,59.93428804771249,
4.0,4.75,21,0.75,Stimuli/P020/things_anteater_10s.jpg,1,0.0,0.75,0,1,1,1,,,,,,,,,,,,,4.018489000001864,0.018489000001864042,1,39.40280419999908,39.40280419999908,39.40280419999908,39.40280419999908,39.40280419999908,39.40280419999908,39.40280419999908,None,39.40280419999908,39.40280419999908,0.39805030000570696,003,P020,2025_May_06_1655,ConditionRich,2021.2.3,59.93428804771249,
4.75,8.0,41,0.0,Stimuli/Blank.png,0,0.0,0.0,0,2,2,2,,,,,,,,,,,,,4.753603600001952,0.0036036000019521452,None,40.153613000002224,40.153613000002224,40.153613000002224,40.153613000002224,40.153613000002224,40.153613000002224,40.153613000002224,40.153613000002224,40.153613000002224,40.153613000002224,,003,P020,2025_May_06_1655,ConditionRich,2021.2.3,59.93428804771249,
8.0,8.75,28,0.75,Stimuli/P020/things_face_10s.jpg,0,0.0,0.0,0,3,3,3,,,,,,,,,,,,,8.022017600000254,0.02201760000025388,None,43.406073999998625,43.406073999998625,43.406073999998625,43.406073999998625,43.406073999998625,43.406073999998625,43.406073999998625,43.406073999998625,43.406073999998625,43.406073999998625,,003,P020,2025_May_06_1655,ConditionRich,2021.2.3,59.93428804771249,
8.75,12.0,41,0.0,Stimuli/Blank.png,0,0.0,0.0,0,4,4,4,,,,,,,,,,,,,8.75812269999733,0.008122699997329619,None,44.15675010000268,44.15675010000268,44.15675010000268,44.15675010000268,44.15675010000268,44.15675010000268,44.15675010000268,44.15675010000268,44.15675010000268,44.15675010000268,,003,P020,2025_May_06_1655,ConditionRich,2021.2.3,59.93428804771249,
12.0,12.75,7,0.75,Stimuli/P020/sun_aqkbfuonyunmyqxb.jpg,1,0.0,0.75,0,5,5,5,,,,,,,,,,,,,12.027994999996736,0.027994999996735714,1,47.426305000000866,47.426305000000866,47.426305000000866,47.426305000000866,47.426305000000866,47.426305000000866,47.426305000000866,None,47.426305000000866,47.426305000000866,0.4625741999989259,003,P020,2025_May_06_1655,ConditionRich,2021.2.3,59.93428804771249,
12.75,16.0,41,0.0,Stimuli/Blank.png,0,0.0,0.0,0,6,6,6,,,,,,,,,,,,,12.777977400000964,0.027977400000963826,None,48.176972000001115,48.176972000001115,48.176972000001115,48.176972000001115,48.176972000001115,48.176972000001115,48.176972000001115,48.176972000001115,48.176972000001115,48.176972000001115,,003,P020,2025_May_06_1655,ConditionRich,2021.2.3,59.93428804771249,
16.0,16.75,30,0.75,Stimuli/P020/things_flip_flop_10s.jpg,0,0.0,0.0,0,7,7,7,,,,,,,,,,,,,16.02967599999829,0.029675999998289626,None,51.42984509999951,51.42984509999951,51.42984509999951,51.42984509999951,51.42984509999951,51.42984509999951,51.42984509999951,51.42984509999951,51.42984509999951,51.42984509999951,,003,P020,2025_May_06_1655,ConditionRich,2021.2.3,59.93428804771249,
16.75,20.0,41,0.0,Stimuli/Blank.png,0,0.0,0.0,0,8,8,8,,,,,,,,,,,,,16.779130299997632,0.029130299997632392,None,52.16382359999989,52.16382359999989,52.16382359999989,52.16382359999989,52.16382359999989,52.16382359999989,52.16382359999989,52.16382359999989,52.16382359999989,52.16382359999989,,003,P020,2025_May_06_1655,ConditionRich,2021.2.3,59.93428804771249,
20.0,20.75,31,0.75,Stimuli/P020/things_fudge_10s.jpg,0,0.0,0.0,0,9,9,9,,,,,,,,,,,,,20.01607579999836,0.016075799998361617,None,55.41672140000446,55.41672140000446,55.41672140000446,55.41672140000446,55.41672140000446,55.41672140000446,55.41672140000446,55.41672140000446,55.41672140000446,55.41672140000446,,003,P020,2025_May_06_1655,ConditionRich,2021.2.3,59.93428804771249,
20.75,24.0,41,0.0,Stimuli/Blank.png,0,0.0,0.0,0,10,10,10,,,,,,,,,,,,,20.7680165999991,0.018016599999100436,None,56.16737409999769,56.16737409999769,56.16737409999769,56.16737409999769,56.16737409999769,56.16737409999769,56.16737409999769,56.16737409999769,56.16737409999769,56.16737409999769,,003,P020,2025_May_06_1655,ConditionRich,2021.2.3,59.93428804771249,
24.0,24.75,13,0.75,Stimuli/P020/sun_bhzwrbdycbchqesq.jpg,1,0.0,0.75,0,11,11,11,,,,,,,,,,,,,24.01999860000069,0.019998600000690203,1,59.42027539999981,59.42027539999981,59.42027539999981,59.42027539999981,59.42027539999981,59.42027539999981,59.42027539999981,60.13756210000429,59.42027539999981,59.42027539999981,0.36361829999805195,003,P020,2025_May_06_1655,ConditionRich,2021.2.3,59.93428804771249,
24.75,28.0,41,0.0,Stimuli/Blank.png,0,0.0,0.0,0,12,12,12,,,,,,,,,,,,,24.76975390000007,0.019753900000068825,None,60.15423559999908,60.15423559999908,60.15423559999908,60.15423559999908,60.15423559999908,60.15423559999908,60.15423559999908,60.15423559999908,60.15423559999908,60.15423559999908,,003,P020,2025_May_06_1655,ConditionRich,2021.2.3,59.93428804771249,
28.0,28.75,15,0.75,Stimuli/P020/sun_bkubdnohuakmwcaj.jpg,0,0.0,0.0,0,13,13,13,,,,,,,,,,,,,28.008059399995545,0.008059399995545391,None,63.40711079999892,63.40711079999892,63.40711079999892,63.40711079999892,63.40711079999892,63.40711079999892,63.40711079999892,63.40711079999892,63.40711079999892,63.40711079999892,,003,P020,2025_May_06_1655,ConditionRich,2021.2.3,59.93428804771249,
28.75,32.0,41,0.0,Stimuli/Blank.png,0,0.0,0.0,0,14,14,14,,,,,,,,,,,,,28.773743599995214,0.023743599995214026,None,64.15787690000434,64.15787690000434,64.15787690000434,64.15787690000434,64.15787690000434,64.15787690000434,64.15787690000434,64.15787690000434,64.15787690000434,64.15787690000434,,003,P020,2025_May_06_1655,ConditionRich,2021.2.3,59.93428804771249,
32.0,32.75,38,0.75,Stimuli/P020/things_turtle_10n.jpg,0,0.0,0.0,0,15,15,15,,,,,,,,,,,,,32.00945810000121,0.009458100001211278,None,67.39397199999803,67.39397199999803,67.39397199999803,67.39397199999803,67.39397199999803,67.39397199999803,67.39397199999803,67.39397199999803,67.39397199999803,67.39397199999803,,003,P020,2025_May_06_1655,ConditionRich,2021.2.3,59.93428804771249,
32.75,36.0,41,0.0,Stimuli/Blank.png,1,0.25,1.0,0,16,16,16,,,,,,,,,,,,,32.76006889999553,0.010068899995530955,1,68.14463629999955,68.14463629999955,68.14463629999955,68.14463629999955,68.14463629999955,68.14463629999955,68.37816990000283,69.12884340000164,68.14463629999955,68.14463629999955,0.6344778999991831,003,P020,2025_May_06_1655,ConditionRich,2021.2.3,59.93428804771249,
36.0,36.75,29,0.75,Stimuli/P020/things_flamingo_10s.jpg,0,0.0,0.0,0,17,17,17,,,,,,,,,,,,,36.01390849999734,0.013908499997342005,None,71.39752179999778,71.39752179999778,71.39752179999778,71.39752179999778,71.39752179999778,71.39752179999778,71.39752179999778,71.39752179999778,71.39752179999778,71.39752179999778,,003,P020,2025_May_06_1655,ConditionRich,2021.2.3,59.93428804771249,
36.75,40.0,41,0.0,Stimuli/Blank.png,0,0.0,0.0,0,18,18,18,,,,,,,,,,,,,36.76388259999658,0.013882599996577483,None,72.14817570000014,72.14817570000014,72.14817570000014,72.14817570000014,72.14817570000014,72.14817570000014,72.14817570000014,72.14817570000014,72.14817570000014,72.14817570000014,,003,P020,2025_May_06_1655,ConditionRich,2021.2.3,59.93428804771249,
40.0,40.75,5,0.75,Stimuli/P020/sun_amjqxnqvhovkotym.jpg,0,0.0,0.0,0,19,19,19,,,,,,,,,,,,,40.00043749999895,0.0004374999989522621,None,75.40107369999896,75.40107369999896,75.40107369999896,75.40107369999896,75.40107369999896,75.40107369999896,75.40107369999896,75.40107369999896,75.40107369999896,75.40107369999896,,003,P020,2025_May_06_1655,ConditionRich,2021.2.3,59.93428804771249,
40.75,44.0,41,0.0,Stimuli/Blank.png,0,0.0,0.0,0,20,20,20,,,,,,,,,,,,,40.767375499999616,0.017375499999616295,None,76.1517262999987,76.1517262999987,76.1517262999987,76.1517262999987,76.1517262999987,76.1517262999987,76.1517262999987,76.1517262999987,76.1517262999987,76.1517262999987,,003,P020,2025_May_06_1655,ConditionRich,2021.2.3,59.93428804771249,
44.0,44.75,11,0.75,Stimuli/P020/sun_bcbfjkoziukwmdkd.jpg,0,0.0,0.0,0,21,21,21,,,,,,,,,,,,,44.003675799998746,0.003675799998745788,None,79.38789890000044,79.38789890000044,79.38789890000044,79.38789890000044,79.38789890000044,79.38789890000044,79.38789890000044,79.38789890000044,79.38789890000044,79.38789890000044,,003,P020,2025_May_06_1655,ConditionRich,2021.2.3,59.93428804771249,
44.75,48.0,41,0.0,Stimuli/Blank.png,0,0.0,0.0,0,22,22,22,,,,,,,,,,,,,44.75471989999642,0.004719899996416643,None,80.13857219999772,80.13857219999772,80.13857219999772,80.13857219999772,80.13857219999772,80.13857219999772,80.13857219999772,80.13857219999772,80.13857219999772,80.13857219999772,,003,P020,2025_May_06_1655,ConditionRich,2021.2.3,59.93428804771249,
48.0,48.75,33,0.75,Stimuli/P020/things_insole_10s.jpg,0,0.0,0.0,0,23,23,23,,,,,,,,,,,,,48.00749209999776,0.007492099997762125,None,83.39145960000315,83.39145960000315,83.39145960000315,83.39145960000315,83.39145960000315,83.39145960000315,83.39145960000315,83.39145960000315,83.39145960000315,83.39145960000315,,003,P020,2025_May_06_1655,ConditionRich,2021.2.3,59.93428804771249,
48.75,52.0,41,0.0,Stimuli/Blank.png,0,0.0,0.0,0,24,24,24,,,,,,,,,,,,,48.758704100000614,0.008704100000613835,None,84.14213259999815,84.14213259999815,84.14213259999815,84.14213259999815,84.14213259999815,84.14213259999815,84.14213259999815,84.14213259999815,84.14213259999815,84.14213259999815,,003,P020,2025_May_06_1655,ConditionRich,2021.2.3,59.93428804771249,
52.0,52.75,27,0.75,Stimuli/P020/things_eel_10s.jpg,0,0.0,0.0,0,25,25,25,,,,,,,,,,,,,52.01041989999794,0.010419899997941684,None,87.39501250000467,87.39501250000467,87.39501250000467,87.39501250000467,87.39501250000467,87.39501250000467,87.39501250000467,87.39501250000467,87.39501250000467,87.39501250000467,,003,P020,2025_May_06_1655,ConditionRich,2021.2.3,59.93428804771249,
52.75,56.0,41,0.0,Stimuli/Blank.png,1,1.25,2.0,0,26,26,26,,,,,,,,,,,,,52.76485059999686,0.014850599996862002,1,88.16237759999785,88.16237759999785,88.16237759999785,88.16237759999785,88.16237759999785,88.16237759999785,89.39677279999887,90.1474365000031,88.16237759999785,88.16237759999785,1.6656672000026447,003,P020,2025_May_06_1655,ConditionRich,2021.2.3,59.93428804771249,
56.0,56.75,16,0.75,Stimuli/P020/sun_blfpbbfyzmewzplm.jpg,0,0.0,0.0,0,27,27,27,,,,,,,,,,,,,56.013947200000985,0.013947200000984594,None,91.39854429999832,91.39854429999832,91.39854429999832,91.39854429999832,91.39854429999832,91.39854429999832,91.39854429999832,91.39854429999832,91.39854429999832,91.39854429999832,,003,P020,2025_May_06_1655,ConditionRich,2021.2.3,59.93428804771249,
56.75,60.0,41,0.0,Stimuli/Blank.png,0,0.0,0.0,0,28,28,28,,,,,,,,,,,,,56.76511799999571,0.015117999995709397,None,92.14922020000085,92.14922020000085,92.14922020000085,92.14922020000085,92.14922020000085,92.14922020000085,92.14922020000085,92.14922020000085,92.14922020000085,92.14922020000085,,003,P020,2025_May_06_1655,ConditionRich,2021.2.3,59.93428804771249,
60.0,60.75,39,0.75,Stimuli/P020/things_wire_10s.jpg,0,0.0,0.0,0,29,29,29,,,,,,,,,,,,,60.00295209999604,0.00295209999603685,None,95.40209239999967,95.40209239999967,95.40209239999967,95.40209239999967,95.40209239999967,95.40209239999967,95.40209239999967,95.40209239999967,95.40209239999967,95.40209239999967,,003,P020,2025_May_06_1655,ConditionRich,2021.2.3,59.93428804771249,
60.75,64.0,41,0.0,Stimuli/Blank.png,0,0.0,0.0,0,30,30,30,,,,,,,,,,,,,60.76826479999727,0.01826479999726871,None,96.15275349999865,96.15275349999865,96.15275349999865,96.15275349999865,96.15275349999865,96.15275349999865,96.15275349999865,96.15275349999865,96.15275349999865,96.15275349999865,,003,P020,2025_May_06_1655,ConditionRich,2021.2.3,59.93428804771249,
64.0,64.75,1,0.75,Stimuli/P020/sun_aaaidwecchadbake.jpg,0,0.0,0.0,0,31,31,31,,,,,,,,,,,,,64.00424629999907,0.00424629999906756,None,99.38896969999769,99.38896969999769,99.38896969999769,99.38896969999769,99.38896969999769,99.38896969999769,99.38896969999769,99.38896969999769,99.38896969999769,99.38896969999769,,003,P020,2025_May_06_1655,ConditionRich,2021.2.3,59.93428804771249,
64.75,68.0,41,0.0,Stimuli/Blank.png,0,0.0,0.0,0,32,32,32,,,,,,,,,,,,,64.7549457999994,0.004945799999404699,None,100.13962100000208,100.13962100000208,100.13962100000208,100.13962100000208,100.13962100000208,100.13962100000208,100.13962100000208,100.13962100000208,100.13962100000208,100.13962100000208,,003,P020,2025_May_06_1655,ConditionRich,2021.2.3,59.93428804771249,
68.0,68.75,26,0.75,Stimuli/P020/things_earwig_10n.jpg,0,0.0,0.0,0,33,33,33,,,,,,,,,,,,,68.0084657999978,0.00846579999779351,None,103.39249759999802,103.39249759999802,103.39249759999802,103.39249759999802,103.39249759999802,103.39249759999802,103.39249759999802,103.39249759999802,103.39249759999802,103.39249759999802,,003,P020,2025_May_06_1655,ConditionRich,2021.2.3,59.93428804771249,
68.75,72.0,41,0.0,Stimuli/Blank.png,0,0.0,0.0,0,34,34,34,,,,,,,,,,,,,68.75863759999629,0.008637599996291101,None,104.14315499999793,104.14315499999793,104.14315499999793,104.14315499999793,104.14315499999793,104.14315499999793,104.14315499999793,104.14315499999793,104.14315499999793,104.14315499999793,,003,P020,2025_May_06_1655,ConditionRich,2021.2.3,59.93428804771249,
72.0,72.75,18,0.75,Stimuli/P020/sun_bodjbrgwzlshgypq.jpg,0,0.0,0.0,0,35,35,35,,,,,,,,,,,,,72.01408190000075,0.014081900000746828,None,107.41272690000187,107.41272690000187,107.41272690000187,107.41272690000187,107.41272690000187,107.41272690000187,107.41272690000187,107.41272690000187,107.41272690000187,107.41272690000187,,003,P020,2025_May_06_1655,ConditionRich,2021.2.3,59.93428804771249,
72.75,76.0,41,0.0,Stimuli/Blank.png,0,0.0,0.0,0,36,36,36,,,,,,,,,,,,,72.77941089999513,0.029410899995127693,None,108.16338279999763,108.16338279999763,108.16338279999763,108.16338279999763,108.16338279999763,108.16338279999763,108.16338279999763,108.16338279999763,108.16338279999763,108.16338279999763,,003,P020,2025_May_06_1655,ConditionRich,2021.2.3,59.93428804771249,
76.0,76.75,3,0.75,Stimuli/P020/sun_aknrkswonrogcooi.jpg,0,0.0,0.0,0,37,37,37,,,,,,,,,,,,,76.01620240000193,0.016202400001930073,None,111.39958920000208,111.39958920000208,111.39958920000208,111.39958920000208,111.39958920000208,111.39958920000208,111.39958920000208,111.39958920000208,111.39958920000208,111.39958920000208,,003,P020,2025_May_06_1655,ConditionRich,2021.2.3,59.93428804771249,
76.75,80.0,41,0.0,Stimuli/Blank.png,0,0.0,0.0,0,38,38,38,,,,,,,,,,,,,76.74965620000148,-0.0003437999985180795,None,112.13356930000009,112.13356930000009,112.13356930000009,112.13356930000009,112.13356930000009,112.13356930000009,112.13356930000009,112.13356930000009,112.13356930000009,112.13356930000009,,003,P020,2025_May_06_1655,ConditionRich,2021.2.3,59.93428804771249,
80.0,80.75,9,0.75,Stimuli/P020/sun_bbfmuujfvpiaqdww.jpg,0,0.0,0.0,0,39,39,39,,,,,,,,,,,,,80.0025112000003,0.002511200000299141,None,115.38645550000365,115.38645550000365,115.38645550000365,115.38645550000365,115.38645550000365,115.38645550000365,115.38645550000365,115.38645550000365,115.38645550000365,115.38645550000365,,003,P020,2025_May_06_1655,ConditionRich,2021.2.3,59.93428804771249,
80.75,84.0,41,0.0,Stimuli/Blank.png,0,0.0,0.0,0,40,40,40,,,,,,,,,,,,,80.75278989999788,0.0027898999978788197,None,116.13710710000305,116.13710710000305,116.13710710000305,116.13710710000305,116.13710710000305,116.13710710000305,116.13710710000305,116.13710710000305,116.13710710000305,116.13710710000305,,003,P020,2025_May_06_1655,ConditionRich,2021.2.3,59.93428804771249,
84.0,100.0,0,0.0,Stimuli/Blank.png,1,12.0,12.75,0,41,41,41,,,,,,,,,,,,,84.0079573999974,0.007957399997394532,1,119.40666539999802,119.40666539999802,119.40666539999802,119.40666539999802,119.40666539999802,119.40666539999802,131.38393209999776,132.13459639999928,119.40666539999802,119.40666539999802,12.507324500002142,003,P020,2025_May_06_1655,ConditionRich,2021.2.3,59.93428804771249,
100.0,100.75,36,0.75,Stimuli/P020/things_sunroof_10s.jpg,0,0.0,0.0,0,42,42,42,,,,,,,,,,,,,100.01967950000108,0.019679500001075212,None,135.40414939999755,135.40414939999755,135.40414939999755,135.40414939999755,135.40414939999755,135.40414939999755,135.40414939999755,135.40414939999755,135.40414939999755,135.40414939999755,,003,P020,2025_May_06_1655,ConditionRich,2021.2.3,59.93428804771249,
100.75,104.0,41,0.0,Stimuli/Blank.png,0,0.0,0.0,0,43,43,43,,,,,,,,,,,,,100.75421410000126,0.004214100001263432,None,136.13810360000207,136.13810360000207,136.13810360000207,136.13810360000207,136.13810360000207,136.13810360000207,136.13810360000207,136.13810360000207,136.13810360000207,136.13810360000207,,003,P020,2025_May_06_1655,ConditionRich,2021.2.3,59.93428804771249,
104.0,104.75,35,0.75,Stimuli/P020/things_pretzel_10s.jpg,0,0.0,0.0,0,44,44,44,,,,,,,,,,,,,104.0067315999986,0.006731599998602178,None,139.3910165999987,139.3910165999987,139.3910165999987,139.3910165999987,139.3910165999987,139.3910165999987,139.3910165999987,139.3910165999987,139.3910165999987,139.3910165999987,,003,P020,2025_May_06_1655,ConditionRich,2021.2.3,59.93428804771249,
104.75,108.0,41,0.0,Stimuli/Blank.png,0,0.0,0.0,0,45,45,45,,,,,,,,,,,,,104.75843919999897,0.0084391999989748,None,140.14168390000123,140.14168390000123,140.14168390000123,140.14168390000123,140.14168390000123,140.14168390000123,140.14168390000123,140.14168390000123,140.14168390000123,140.14168390000123,,003,P020,2025_May_06_1655,ConditionRich,2021.2.3,59.93428804771249,
108.0,108.75,4,0.75,Stimuli/P020/sun_amixpbnrxiulfsri.jpg,0,0.0,0.0,0,46,46,46,,,,,,,,,,,,,108.00994150000042,0.00994150000042282,None,143.39455860000453,143.39455860000453,143.39455860000453,143.39455860000453,143.39455860000453,143.39455860000453,143.39455860000453,143.39455860000453,143.39455860000453,143.39455860000453,,003,P020,2025_May_06_1655,ConditionRich,2021.2.3,59.93428804771249,
108.75,112.0,41,0.0,Stimuli/Blank.png,0,0.0,0.0,0,47,47,47,,,,,,,,,,,,,108.76361039999756,0.013610399997560307,None,144.16192220000084,144.16192220000084,144.16192220000084,144.16192220000084,144.16192220000084,144.16192220000084,144.16192220000084,144.16192220000084,144.16192220000084,144.16192220000084,,003,P020,2025_May_06_1655,ConditionRich,2021.2.3,59.93428804771249,
112.0,112.75,19,0.75,Stimuli/P020/sun_byssdezaaqnthppd.jpg,0,0.0,0.0,0,48,48,48,,,,,,,,,,,,,112.01354770000034,0.013547700000344776,None,147.39810009999928,147.39810009999928,147.39810009999928,147.39810009999928,147.39810009999928,147.39810009999928,147.39810009999928,147.39810009999928,147.39810009999928,147.39810009999928,,003,P020,2025_May_06_1655,ConditionRich,2021.2.3,59.93428804771249,
112.75,116.0,41,0.0,Stimuli/Blank.png,0,0.0,0.0,0,49,49,49,,,,,,,,,,,,,112.76413899999898,0.014138999998976942,None,148.14876419999928,148.14876419999928,148.14876419999928,148.14876419999928,148.14876419999928,148.14876419999928,148.14876419999928,148.14876419999928,148.14876419999928,148.14876419999928,,003,P020,2025_May_06_1655,ConditionRich,2021.2.3,59.93428804771249,
116.0,116.75,37,0.75,Stimuli/P020/things_toaster_10s.jpg,0,0.0,0.0,0,50,50,50,,,,,,,,,,,,,116.00329979999515,0.003299799995147623,None,151.40164070000174,151.40164070000174,151.40164070000174,151.40164070000174,151.40164070000174,151.40164070000174,151.40164070000174,151.40164070000174,151.40164070000174,151.40164070000174,,003,P020,2025_May_06_1655,ConditionRich,2021.2.3,59.93428804771249,
116.75,120.0,41,0.0,Stimuli/Blank.png,0,0.0,0.0,0,51,51,51,,,,,,,,,,,,,116.76770879999822,0.017708799998217728,None,152.152285199998,152.152285199998,152.152285199998,152.152285199998,152.152285199998,152.152285199998,152.152285199998,152.152285199998,152.152285199998,152.152285199998,,003,P020,2025_May_06_1655,ConditionRich,2021.2.3,59.93428804771249,
120.0,120.75,10,0.75,Stimuli/P020/sun_bblqhrudkospnbbv.jpg,0,0.0,0.0,0,52,52,52,,,,,,,,,,,,,120.00392129999818,0.003921299998182803,None,155.38850069999899,155.38850069999899,155.38850069999899,155.38850069999899,155.38850069999899,155.38850069999899,155.38850069999899,155.38850069999899,155.38850069999899,155.38850069999899,,003,P020,2025_May_06_1655,ConditionRich,2021.2.3,59.93428804771249,
120.75,124.0,41,0.0,Stimuli/Blank.png,1,1.25,2.0,0,53,53,53,,,,,,,,,,,,,120.75471929999912,0.004719299999123905,1,156.13916900000186,156.13916900000186,156.13916900000186,156.13916900000186,156.13916900000186,156.13916900000186,157.37359339999966,158.12431630000356,156.13916900000186,156.13916900000186,1.7088917000000947,003,P020,2025_May_06_1655,ConditionRich,2021.2.3,59.93428804771249,
124.0,124.75,12,0.75,Stimuli/P020/sun_bgjrtiivbwugxhxp.jpg,0,0.0,0.0,0,54,54,54,,,,,,,,,,,,,124.00902169999608,0.009021699996083044,None,159.4087389999986,159.4087389999986,159.4087389999986,159.4087389999986,159.4087389999986,159.4087389999986,159.4087389999986,159.4087389999986,159.4087389999986,159.4087389999986,,003,P020,2025_May_06_1655,ConditionRich,2021.2.3,59.93428804771249,
124.75,128.0,41,0.0,Stimuli/Blank.png,0,0.0,0.0,0,55,55,55,,,,,,,,,,,,,124.77541259999998,0.025412599999981467,None,160.15940660000342,160.15940660000342,160.15940660000342,160.15940660000342,160.15940660000342,160.15940660000342,160.15940660000342,160.15940660000342,160.15940660000342,160.15940660000342,,003,P020,2025_May_06_1655,ConditionRich,2021.2.3,59.93428804771249,
128.0,128.75,17,0.75,Stimuli/P020/sun_bltxkcclrpweopkl.jpg,0,0.0,0.0,0,56,56,56,,,,,,,,,,,,,128.01361349999934,0.013613499999337364,None,163.4122486999986,163.4122486999986,163.4122486999986,163.4122486999986,163.4122486999986,163.4122486999986,163.4122486999986,163.4122486999986,163.4122486999986,163.4122486999986,,003,P020,2025_May_06_1655,ConditionRich,2021.2.3,59.93428804771249,
128.75,132.0,41,0.0,Stimuli/Blank.png,0,0.0,0.0,0,57,57,57,,,,,,,,,,,,,128.77837670000008,0.028376700000080746,None,164.16293099999893,164.16293099999893,164.16293099999893,164.16293099999893,164.16293099999893,164.16293099999893,164.16293099999893,164.16293099999893,164.16293099999893,164.16293099999893,,003,P020,2025_May_06_1655,ConditionRich,2021.2.3,59.93428804771249,
132.0,132.75,40,0.75,Stimuli/P020/things_woman_10s.jpg,0,0.0,0.0,0,58,58,58,,,,,,,,,,,,,132.01453690000199,0.014536900001985487,None,167.39913199999864,167.39913199999864,167.39913199999864,167.39913199999864,167.39913199999864,167.39913199999864,167.39913199999864,167.39913199999864,167.39913199999864,167.39913199999864,,003,P020,2025_May_06_1655,ConditionRich,2021.2.3,59.93428804771249,
132.75,136.0,41,0.0,Stimuli/Blank.png,0,0.0,0.0,0,59,59,59,,,,,,,,,,,,,132.76781479999772,0.01781479999772273,None,168.16647589999775,168.16647589999775,168.16647589999775,168.16647589999775,168.16647589999775,168.16647589999775,168.16647589999775,168.16647589999775,168.16647589999775,168.16647589999775,,003,P020,2025_May_06_1655,ConditionRich,2021.2.3,59.93428804771249,
136.0,136.75,34,0.75,Stimuli/P020/things_man_10s.jpg,0,0.0,0.0,0,60,60,60,,,,,,,,,,,,,136.01857400000154,0.01857400000153575,None,171.40280820000044,171.40280820000044,171.40280820000044,171.40280820000044,171.40280820000044,171.40280820000044,171.40280820000044,171.40280820000044,171.40280820000044,171.40280820000044,,003,P020,2025_May_06_1655,ConditionRich,2021.2.3,59.93428804771249,
136.75,140.0,41,0.0,Stimuli/Blank.png,0,0.0,0.0,0,61,61,61,,,,,,,,,,,,,136.7536207000012,0.003620700001192745,None,172.13666280000325,172.13666280000325,172.13666280000325,172.13666280000325,172.13666280000325,172.13666280000325,172.13666280000325,172.13666280000325,172.13666280000325,172.13666280000325,,003,P020,2025_May_06_1655,ConditionRich,2021.2.3,59.93428804771249,
140.0,140.75,6,0.75,Stimuli/P020/sun_amppcthpabgulbwl.jpg,0,0.0,0.0,0,62,62,62,,,,,,,,,,,,,140.0049216999978,0.004921699997794349,None,175.389539900003,175.389539900003,175.389539900003,175.389539900003,175.389539900003,175.389539900003,175.389539900003,175.389539900003,175.389539900003,175.389539900003,,003,P020,2025_May_06_1655,ConditionRich,2021.2.3,59.93428804771249,
140.75,144.0,41,0.0,Stimuli/Blank.png,0,0.0,0.0,0,63,63,63,,,,,,,,,,,,,140.75910750000185,0.009107500001846347,None,176.1569101999994,176.1569101999994,176.1569101999994,176.1569101999994,176.1569101999994,176.1569101999994,176.1569101999994,176.1569101999994,176.1569101999994,176.1569101999994,,003,P020,2025_May_06_1655,ConditionRich,2021.2.3,59.93428804771249,
144.0,144.75,32,0.75,Stimuli/P020/things_girl_10s.jpg,0,0.0,0.0,0,64,64,64,,,,,,,,,,,,,144.02629259999958,0.02629259999957867,None,179.4264450999981,179.4264450999981,179.4264450999981,179.4264450999981,179.4264450999981,179.4264450999981,179.4264450999981,179.4264450999981,179.4264450999981,179.4264450999981,,003,P020,2025_May_06_1655,ConditionRich,2021.2.3,59.93428804771249,
144.75,148.0,41,0.0,Stimuli/Blank.png,0,0.0,0.0,0,65,65,65,,,,,,,,,,,,,144.7776617999989,0.02766179999889573,None,180.160452600001,180.160452600001,180.160452600001,180.160452600001,180.160452600001,180.160452600001,180.160452600001,180.160452600001,180.160452600001,180.160452600001,,003,P020,2025_May_06_1655,ConditionRich,2021.2.3,59.93428804771249,
148.0,148.75,8,0.75,Stimuli/P020/sun_avbzvunekksfggon.jpg,1,0.0,0.75,0,66,66,66,,,,,,,,,,,,,148.01266139999643,0.01266139999643201,1,183.39662350000435,183.39662350000435,183.39662350000435,183.39662350000435,183.39662350000435,183.39662350000435,183.39662350000435,None,183.39662350000435,183.39662350000435,0.41764580000017304,003,P020,2025_May_06_1655,ConditionRich,2021.2.3,59.93428804771249,
148.75,152.0,41,0.0,Stimuli/Blank.png,0,0.0,0.0,0,67,67,67,,,,,,,,,,,,,148.7638982999997,0.013898299999709707,None,184.14729790000274,184.14729790000274,184.14729790000274,184.14729790000274,184.14729790000274,184.14729790000274,184.14729790000274,184.14729790000274,184.14729790000274,184.14729790000274,,003,P020,2025_May_06_1655,ConditionRich,2021.2.3,59.93428804771249,
152.0,152.75,23,0.75,Stimuli/P020/things_boy_10s.jpg,0,0.0,0.0,0,68,68,68,,,,,,,,,,,,,151.99951309999597,-0.00048690000403439626,None,187.38346260000253,187.38346260000253,187.38346260000253,187.38346260000253,187.38346260000253,187.38346260000253,187.38346260000253,187.38346260000253,187.38346260000253,187.38346260000253,,003,P020,2025_May_06_1655,ConditionRich,2021.2.3,59.93428804771249,
152.75,156.0,41,0.0,Stimuli/Blank.png,1,1.25,2.0,0,69,69,69,,,,,,,,,,,,,152.7496328999987,-0.0003671000013127923,1,188.13414719999855,188.13414719999855,188.13414719999855,188.13414719999855,188.13414719999855,188.13414719999855,189.3694250000044,190.11924680000084,188.13414719999855,188.13414719999855,1.7669373999960953,003,P020,2025_May_06_1655,ConditionRich,2021.2.3,59.93428804771249,
156.0,156.75,14,0.75,Stimuli/P020/sun_birvagufpcschyrr.jpg,0,0.0,0.0,0,70,70,70,,,,,,,,,,,,,156.0031444999986,0.003144499998597894,None,191.40370840000105,191.40370840000105,191.40370840000105,191.40370840000105,191.40370840000105,191.40370840000105,191.40370840000105,191.40370840000105,191.40370840000105,191.40370840000105,,003,P020,2025_May_06_1655,ConditionRich,2021.2.3,59.93428804771249,
156.75,160.0,41,0.0,Stimuli/Blank.png,0,0.0,0.0,0,71,71,71,,,,,,,,,,,,,156.77048719999584,0.020487199995841365,None,192.15434549999918,192.15434549999918,192.15434549999918,192.15434549999918,192.15434549999918,192.15434549999918,192.15434549999918,192.15434549999918,192.15434549999918,192.15434549999918,,003,P020,2025_May_06_1655,ConditionRich,2021.2.3,59.93428804771249,
160.0,160.75,24,0.75,Stimuli/P020/things_bulletin_board_10s.jpg,0,0.0,0.0,0,72,72,72,,,,,,,,,,,,,160.00825140000234,0.008251400002336595,None,195.40724890000274,195.40724890000274,195.40724890000274,195.40724890000274,195.40724890000274,195.40724890000274,195.40724890000274,195.40724890000274,195.40724890000274,195.40724890000274,,003,P020,2025_May_06_1655,ConditionRich,2021.2.3,59.93428804771249,
160.75,164.0,41,0.0,Stimuli/Blank.png,1,1.25,2.0,0,73,73,73,,,,,,,,,,,,,160.77482639999653,0.02482639999652747,1,196.17460520000168,196.17460520000168,196.17460520000168,196.17460520000168,196.17460520000168,196.17460520000168,197.3923505999992,198.14300399999775,196.17460520000168,196.17460520000168,1.7045904000042356,003,P020,2025_May_06_1655,ConditionRich,2021.2.3,59.93428804771249,
164.0,164.75,20,0.75,Stimuli/P020/sun_dlnwonqxagdvtlta.jpg,0,0.0,0.0,0,74,74,74,,,,,,,,,,,,,164.0293315999952,0.02933159999520285,None,199.42749339999864,199.42749339999864,199.42749339999864,199.42749339999864,199.42749339999864,199.42749339999864,199.42749339999864,199.42749339999864,199.42749339999864,199.42749339999864,,003,P020,2025_May_06_1655,ConditionRich,2021.2.3,59.93428804771249,
164.75,168.0,41,0.0,Stimuli/Blank.png,0,0.0,0.0,0,75,75,75,,,,,,,,,,,,,164.7767285000009,0.026728500000899658,None,200.16151489999902,200.16151489999902,200.16151489999902,200.16151489999902,200.16151489999902,200.16151489999902,200.16151489999902,200.16151489999902,200.16151489999902,200.16151489999902,,003,P020,2025_May_06_1655,ConditionRich,2021.2.3,59.93428804771249,
168.0,168.75,22,0.75,Stimuli/P020/things_bead_10s.jpg,1,0.0,0.75,0,76,76,76,,,,,,,,,,,,,168.01337210000202,0.01337210000201594,None,203.39765610000177,203.39765610000177,203.39765610000177,203.39765610000177,203.39765610000177,203.39765610000177,203.39765610000177,204.13164770000003,203.39765610000177,203.39765610000177,,003,P020,2025_May_06_1655,ConditionRich,2021.2.3,59.93428804771249,
168.75,172.0,41,0.0,Stimuli/Blank.png,0,0.0,0.0,0,77,77,77,,,,,,,,,,,,,168.76374450000003,0.013744500000029802,None,204.14833219999855,204.14833219999855,204.14833219999855,204.14833219999855,204.14833219999855,204.14833219999855,204.14833219999855,204.14833219999855,204.14833219999855,204.14833219999855,,003,P020,2025_May_06_1655,ConditionRich,2021.2.3,59.93428804771249,
172.0,172.75,2,0.75,Stimuli/P020/sun_ajhvfwzgpfovdgid.jpg,0,0.0,0.0,0,78,78,78,,,,,,,,,,,,,172.0004942000014,0.000494200001412537,None,207.38452289999987,207.38452289999987,207.38452289999987,207.38452289999987,207.38452289999987,207.38452289999987,207.38452289999987,207.38452289999987,207.38452289999987,207.38452289999987,,003,P020,2025_May_06_1655,ConditionRich,2021.2.3,59.93428804771249,
172.75,176.0,41,0.0,Stimuli/Blank.png,0,0.0,0.0,0,79,79,79,,,,,,,,,,,,,172.75129729999753,0.001297299997531809,None,208.13518509999994,208.13518509999994,208.13518509999994,208.13518509999994,208.13518509999994,208.13518509999994,208.13518509999994,208.13518509999994,208.13518509999994,208.13518509999994,,003,P020,2025_May_06_1655,ConditionRich,2021.2.3,59.93428804771249,
176.0,176.75,25,0.75,Stimuli/P020/things_chime_10s.jpg,0,0.0,0.0,0,80,80,80,,,,,,,,,,,,,176.0035906999983,0.0035906999983126298,None,211.3880668999991,211.3880668999991,211.3880668999991,211.3880668999991,211.3880668999991,211.3880668999991,211.3880668999991,211.3880668999991,211.3880668999991,211.3880668999991,,003,P020,2025_May_06_1655,ConditionRich,2021.2.3,59.93428804771249,
176.75,180.0,41,0.0,Stimuli/Blank.png,0,0.0,0.0,0,81,81,81,,,,,,,,,,,,,176.75421490000008,0.004214900000079069,None,212.13872809999884,212.13872809999884,212.13872809999884,212.13872809999884,212.13872809999884,212.13872809999884,212.13872809999884,212.13872809999884,212.13872809999884,212.13872809999884,,003,P020,2025_May_06_1655,ConditionRich,2021.2.3,59.93428804771249,
180.0,196.0,0,0.0,Stimuli/Blank.png,1,9.0,9.75,0,82,82,82,,,,,,,,,,,,,180.0077192999961,0.0077192999960971065,1,215.3916070999985,215.3916070999985,215.3916070999985,215.3916070999985,215.3916070999985,215.3916070999985,224.38289069999882,225.13358449999942,215.3916070999985,215.3916070999985,9.787484200001927,003,P020,2025_May_06_1655,ConditionRich,2021.2.3,59.93428804771249,
196.0,196.75,13,0.75,Stimuli/P020/sun_bhzwrbdycbchqesq.jpg,0,0.0,0.0,0,83,83,83,,,,,,,,,,,,,196.00542539999878,0.005425399998784997,None,231.38908639999863,231.38908639999863,231.38908639999863,231.38908639999863,231.38908639999863,231.38908639999863,231.38908639999863,231.38908639999863,231.38908639999863,231.38908639999863,,003,P020,2025_May_06_1655,ConditionRich,2021.2.3,59.93428804771249,
196.75,200.0,41,0.0,Stimuli/Blank.png,0,0.0,0.0,0,84,84,84,,,,,,,,,,,,,196.75510829999985,0.005108299999847077,None,232.13977230000455,232.13977230000455,232.13977230000455,232.13977230000455,232.13977230000455,232.13977230000455,232.13977230000455,232.13977230000455,232.13977230000455,232.13977230000455,,003,P020,2025_May_06_1655,ConditionRich,2021.2.3,59.93428804771249,
200.0,200.75,20,0.75,Stimuli/P020/sun_dlnwonqxagdvtlta.jpg,0,0.0,0.0,0,85,85,85,,,,,,,,,,,,,200.00797369999782,0.007973699997819494,None,235.3926324999993,235.3926324999993,235.3926324999993,235.3926324999993,235.3926324999993,235.3926324999993,235.3926324999993,235.3926324999993,235.3926324999993,235.3926324999993,,003,P020,2025_May_06_1655,ConditionRich,2021.2.3,59.93428804771249,
200.75,204.0,41,0.0,Stimuli/Blank.png,0,0.0,0.0,0,86,86,86,,,,,,,,,,,,,200.75869070000044,0.00869070000044303,None,236.14330360000167,236.14330360000167,236.14330360000167,236.14330360000167,236.14330360000167,236.14330360000167,236.14330360000167,236.14330360000167,236.14330360000167,236.14330360000167,,003,P020,2025_May_06_1655,ConditionRich,2021.2.3,59.93428804771249,
204.0,204.75,24,0.75,Stimuli/P020/things_bulletin_board_10s.jpg,0,0.0,0.0,0,87,87,87,,,,,,,,,,,,,204.01459810000233,0.014598100002331194,None,239.4128591999979,239.4128591999979,239.4128591999979,239.4128591999979,239.4128591999979,239.4128591999979,239.4128591999979,239.4128591999979,239.4128591999979,239.4128591999979,,003,P020,2025_May_06_1655,ConditionRich,2021.2.3,59.93428804771249,
204.75,208.0,41,0.0,Stimuli/Blank.png,0,0.0,0.0,0,88,88,88,,,,,,,,,,,,,204.7789694000021,0.028969400002097245,None,240.16352560000087,240.16352560000087,240.16352560000087,240.16352560000087,240.16352560000087,240.16352560000087,240.16352560000087,240.16352560000087,240.16352560000087,240.16352560000087,,003,P020,2025_May_06_1655,ConditionRich,2021.2.3,59.93428804771249,
208.0,208.75,10,0.75,Stimuli/P020/sun_bblqhrudkospnbbv.jpg,0,0.0,0.0,0,89,89,89,,,,,,,,,,,,,208.01529609999852,0.01529609999852255,None,243.39970390000235,243.39970390000235,243.39970390000235,243.39970390000235,243.39970390000235,243.39970390000235,243.39970390000235,243.39970390000235,243.39970390000235,243.39970390000235,,003,P020,2025_May_06_1655,ConditionRich,2021.2.3,59.93428804771249,
208.75,212.0,41,0.0,Stimuli/Blank.png,0,0.0,0.0,0,90,90,90,,,,,,,,,,,,,208.74914729999728,-0.0008527000027243048,None,244.1336683000045,244.1336683000045,244.1336683000045,244.1336683000045,244.1336683000045,244.1336683000045,244.1336683000045,244.1336683000045,244.1336683000045,244.1336683000045,,003,P020,2025_May_06_1655,ConditionRich,2021.2.3,59.93428804771249,
212.0,212.75,39,0.75,Stimuli/P020/things_wire_10s.jpg,0,0.0,0.0,0,91,91,91,,,,,,,,,,,,,212.00264769999922,0.002647699999215547,None,247.3865902000034,247.3865902000034,247.3865902000034,247.3865902000034,247.3865902000034,247.3865902000034,247.3865902000034,247.3865902000034,247.3865902000034,247.3865902000034,,003,P020,2025_May_06_1655,ConditionRich,2021.2.3,59.93428804771249,
212.75,216.0,41,0.0,Stimuli/Blank.png,0,0.0,0.0,0,92,92,92,,,,,,,,,,,,,212.75375679999706,0.0037567999970633537,None,248.13725120000163,248.13725120000163,248.13725120000163,248.13725120000163,248.13725120000163,248.13725120000163,248.13725120000163,248.13725120000163,248.13725120000163,248.13725120000163,,003,P020,2025_May_06_1655,ConditionRich,2021.2.3,59.93428804771249,
216.0,216.75,32,0.75,Stimuli/P020/things_girl_10s.jpg,0,0.0,0.0,0,93,93,93,,,,,,,,,,,,,216.00560669999686,0.005606699996860698,None,251.39012370000273,251.39012370000273,251.39012370000273,251.39012370000273,251.39012370000273,251.39012370000273,251.39012370000273,251.39012370000273,251.39012370000273,251.39012370000273,,003,P020,2025_May_06_1655,ConditionRich,2021.2.3,59.93428804771249,
216.75,220.0,41,0.0,Stimuli/Blank.png,0,0.0,0.0,0,94,94,94,,,,,,,,,,,,,216.75834129999566,0.008341299995663576,None,252.15747859999829,252.15747859999829,252.15747859999829,252.15747859999829,252.15747859999829,252.15747859999829,252.15747859999829,252.15747859999829,252.15747859999829,252.15747859999829,,003,P020,2025_May_06_1655,ConditionRich,2021.2.3,59.93428804771249,
220.0,220.75,34,0.75,Stimuli/P020/things_man_10s.jpg,0,0.0,0.0,0,95,95,95,,,,,,,,,,,,,220.02822619999642,0.02822619999642484,None,255.42704300000332,255.42704300000332,255.42704300000332,255.42704300000332,255.42704300000332,255.42704300000332,255.42704300000332,255.42704300000332,255.42704300000332,255.42704300000332,,003,P020,2025_May_06_1655,ConditionRich,2021.2.3,59.93428804771249,
220.75,224.0,41,0.0,Stimuli/Blank.png,0,0.0,0.0,0,96,96,96,,,,,,,,,,,,,220.77678410000226,0.026784100002259947,None,256.1610576000021,256.1610576000021,256.1610576000021,256.1610576000021,256.1610576000021,256.1610576000021,256.1610576000021,256.1610576000021,256.1610576000021,256.1610576000021,,003,P020,2025_May_06_1655,ConditionRich,2021.2.3,59.93428804771249,
224.0,224.75,23,0.75,Stimuli/P020/things_boy_10s.jpg,0,0.0,0.0,0,97,97,97,,,,,,,,,,,,,224.0127313999983,0.01273139999830164,None,259.39720910000324,259.39720910000324,259.39720910000324,259.39720910000324,259.39720910000324,259.39720910000324,259.39720910000324,259.39720910000324,259.39720910000324,259.39720910000324,,003,P020,2025_May_06_1655,ConditionRich,2021.2.3,59.93428804771249,
224.75,228.0,41,0.0,Stimuli/Blank.png,0,0.0,0.0,0,98,98,98,,,,,,,,,,,,,224.76380159999826,0.013801599998259917,None,260.14786760000425,260.14786760000425,260.14786760000425,260.14786760000425,260.14786760000425,260.14786760000425,260.14786760000425,260.14786760000425,260.14786760000425,260.14786760000425,,003,P020,2025_May_06_1655,ConditionRich,2021.2.3,59.93428804771249,
228.0,228.75,7,0.75,Stimuli/P020/sun_aqkbfuonyunmyqxb.jpg,0,0.0,0.0,0,99,99,99,,,,,,,,,,,,,227.9995476999975,-0.00045230000250739977,None,263.38406560000294,263.38406560000294,263.38406560000294,263.38406560000294,263.38406560000294,263.38406560000294,263.38406560000294,263.38406560000294,263.38406560000294,263.38406560000294,,003,P020,2025_May_06_1655,ConditionRich,2021.2.3,59.93428804771249,
228.75,232.0,41,0.0,Stimuli/Blank.png,1,0.25,1.0,0,100,100,100,,,,,,,,,,,,,228.75081240000145,0.0008124000014504418,1,264.13472970000294,264.13472970000294,264.13472970000294,264.13472970000294,264.13472970000294,264.13472970000294,264.36830550000013,265.118948299998,264.13472970000294,264.13472970000294,0.8024471999960952,003,P020,2025_May_06_1655,ConditionRich,2021.2.3,59.93428804771249,
232.0,232.75,8,0.75,Stimuli/P020/sun_avbzvunekksfggon.jpg,0,0.0,0.0,0,101,101,101,,,,,,,,,,,,,232.00369459999638,0.003694599996379111,None,267.38761109999905,267.38761109999905,267.38761109999905,267.38761109999905,267.38761109999905,267.38761109999905,267.38761109999905,267.38761109999905,267.38761109999905,267.38761109999905,,003,P020,2025_May_06_1655,ConditionRich,2021.2.3,59.93428804771249,
232.75,236.0,41,0.0,Stimuli/Blank.png,1,1.25,2.0,0,102,102,102,,,,,,,,,,,,,232.7545583999963,0.004558399996312801,1,268.1382803000015,268.1382803000015,268.1382803000015,268.1382803000015,268.1382803000015,268.1382803000015,269.37269899999956,270.12336340000184,268.1382803000015,268.1382803000015,2.302935699997761,003,P020,2025_May_06_1655,ConditionRich,2021.2.3,59.93428804771249,
236.0,236.75,12,0.75,Stimuli/P020/sun_bgjrtiivbwugxhxp.jpg,0,0.0,0.0,0,103,103,103,,,,,,,,,,,,,236.0078887999989,0.007888799998909235,None,271.4078298000022,271.4078298000022,271.4078298000022,271.4078298000022,271.4078298000022,271.4078298000022,271.4078298000022,271.4078298000022,271.4078298000022,271.4078298000022,,003,P020,2025_May_06_1655,ConditionRich,2021.2.3,59.93428804771249,
236.75,240.0,41,0.0,Stimuli/Blank.png,0,0.0,0.0,0,104,104,104,,,,,,,,,,,,,236.77424990000145,0.024249900001450442,None,272.1585083000027,272.1585083000027,272.1585083000027,272.1585083000027,272.1585083000027,272.1585083000027,272.1585083000027,272.1585083000027,272.1585083000027,272.1585083000027,,003,P020,2025_May_06_1655,ConditionRich,2021.2.3,59.93428804771249,
240.0,240.75,18,0.75,Stimuli/P020/sun_bodjbrgwzlshgypq.jpg,0,0.0,0.0,0,105,105,105,,,,,,,,,,,,,240.0101738000012,0.01017380000121193,None,275.3946974999999,275.3946974999999,275.3946974999999,275.3946974999999,275.3946974999999,275.3946974999999,275.3946974999999,275.3946974999999,275.3946974999999,275.3946974999999,,003,P020,2025_May_06_1655,ConditionRich,2021.2.3,59.93428804771249,
240.75,244.0,41,0.0,Stimuli/Blank.png,0,0.0,0.0,0,106,106,106,,,,,,,,,,,,,240.7632874999981,0.013287499998114072,None,276.1620819000018,276.1620819000018,276.1620819000018,276.1620819000018,276.1620819000018,276.1620819000018,276.1620819000018,276.1620819000018,276.1620819000018,276.1620819000018,,003,P020,2025_May_06_1655,ConditionRich,2021.2.3,59.93428804771249,
244.0,244.75,6,0.75,Stimuli/P020/sun_amppcthpabgulbwl.jpg,0,0.0,0.0,0,107,107,107,,,,,,,,,,,,,244.01359560000128,0.013595600001281127,None,279.39824110000336,279.39824110000336,279.39824110000336,279.39824110000336,279.39824110000336,279.39824110000336,279.39824110000336,279.39824110000336,279.39824110000336,279.39824110000336,,003,P020,2025_May_06_1655,ConditionRich,2021.2.3,59.93428804771249,
244.75,248.0,41,0.0,Stimuli/Blank.png,0,0.0,0.0,0,108,108,108,,,,,,,,,,,,,244.76525019999826,0.01525019999826327,None,280.1490505000038,280.1490505000038,280.1490505000038,280.1490505000038,280.1490505000038,280.1490505000038,280.1490505000038,280.1490505000038,280.1490505000038,280.1490505000038,,003,P020,2025_May_06_1655,ConditionRich,2021.2.3,59.93428804771249,
248.0,248.75,1,0.75,Stimuli/P020/sun_aaaidwecchadbake.jpg,1,0.0,0.75,0,109,109,109,,,,,,,,,,,,,248.00063180000143,0.0006318000014289282,1,283.40179860000353,283.40179860000353,283.40179860000353,283.40179860000353,283.40179860000353,283.40179860000353,283.40179860000353,284.11911549999786,283.40179860000353,283.40179860000353,0.442361900000833,003,P020,2025_May_06_1655,ConditionRich,2021.2.3,59.93428804771249,
248.75,252.0,41,0.0,Stimuli/Blank.png,0,0.0,0.0,0,110,110,110,,,,,,,,,,,,,248.76809969999886,0.018099699998856522,None,284.1524386000019,284.1524386000019,284.1524386000019,284.1524386000019,284.1524386000019,284.1524386000019,284.1524386000019,284.1524386000019,284.1524386000019,284.1524386000019,,003,P020,2025_May_06_1655,ConditionRich,2021.2.3,59.93428804771249,
252.0,252.75,28,0.75,Stimuli/P020/things_face_10s.jpg,1,0.0,0.75,0,111,111,111,,,,,,,,,,,,,252.00404089999938,0.004040899999381509,1,287.38863839999976,287.38863839999976,287.38863839999976,287.38863839999976,287.38863839999976,287.38863839999976,287.38863839999976,288.12263040000107,287.38863839999976,287.38863839999976,0.41465949999837903,003,P020,2025_May_06_1655,ConditionRich,2021.2.3,59.93428804771249,
252.75,256.0,41,0.0,Stimuli/Blank.png,0,0.0,0.0,0,112,112,112,,,,,,,,,,,,,252.75502830000187,0.005028300001868047,None,288.13931080000475,288.13931080000475,288.13931080000475,288.13931080000475,288.13931080000475,288.13931080000475,288.13931080000475,288.13931080000475,288.13931080000475,288.13931080000475,,003,P020,2025_May_06_1655,ConditionRich,2021.2.3,59.93428804771249,
256.0,256.75,2,0.75,Stimuli/P020/sun_ajhvfwzgpfovdgid.jpg,0,0.0,0.0,0,113,113,113,,,,,,,,,,,,,256.00773019999906,0.0077301999990595505,None,291.3921900999994,291.3921900999994,291.3921900999994,291.3921900999994,291.3921900999994,291.3921900999994,291.3921900999994,291.3921900999994,291.3921900999994,291.3921900999994,,003,P020,2025_May_06_1655,ConditionRich,2021.2.3,59.93428804771249,
256.75,260.0,41,0.0,Stimuli/Blank.png,0,0.0,0.0,0,114,114,114,,,,,,,,,,,,,256.7591251999984,0.009125199998379685,None,292.14285740000196,292.14285740000196,292.14285740000196,292.14285740000196,292.14285740000196,292.14285740000196,292.14285740000196,292.14285740000196,292.14285740000196,292.14285740000196,,003,P020,2025_May_06_1655,ConditionRich,2021.2.3,59.93428804771249,
260.0,260.75,30,0.75,Stimuli/P020/things_flip_flop_10s.jpg,0,0.0,0.0,0,115,115,115,,,,,,,,,,,,,260.01309649999894,0.013096499998937361,None,295.4124124000009,295.4124124000009,295.4124124000009,295.4124124000009,295.4124124000009,295.4124124000009,295.4124124000009,295.4124124000009,295.4124124000009,295.4124124000009,,003,P020,2025_May_06_1655,ConditionRich,2021.2.3,59.93428804771249,
260.75,264.0,41,0.0,Stimuli/Blank.png,0,0.0,0.0,0,116,116,116,,,,,,,,,,,,,260.7795509999996,0.029550999999628402,None,296.1630671000021,296.1630671000021,296.1630671000021,296.1630671000021,296.1630671000021,296.1630671000021,296.1630671000021,296.1630671000021,296.1630671000021,296.1630671000021,,003,P020,2025_May_06_1655,ConditionRich,2021.2.3,59.93428804771249,
264.0,264.75,31,0.75,Stimuli/P020/things_fudge_10s.jpg,0,0.0,0.0,0,117,117,117,,,,,,,,,,,,,263.99996850000025,-3.149999974993989e-05,None,299.39927850000095,299.39927850000095,299.39927850000095,299.39927850000095,299.39927850000095,299.39927850000095,299.39927850000095,299.39927850000095,299.39927850000095,299.39927850000095,,003,P020,2025_May_06_1655,ConditionRich,2021.2.3,59.93428804771249,
264.75,268.0,41,0.0,Stimuli/Blank.png,0,0.0,0.0,0,118,118,118,,,,,,,,,,,,,264.7652384999965,0.015238499996485189,None,300.1499402000045,300.1499402000045,300.1499402000045,300.1499402000045,300.1499402000045,300.1499402000045,300.1499402000045,300.1499402000045,300.1499402000045,300.1499402000045,,003,P020,2025_May_06_1655,ConditionRich,2021.2.3,59.93428804771249,
268.0,268.75,5,0.75,Stimuli/P020/sun_amjqxnqvhovkotym.jpg,0,0.0,0.0,0,119,119,119,,,,,,,,,,,,,268.00509500000044,0.005095000000437722,None,303.40284039999824,303.40284039999824,303.40284039999824,303.40284039999824,303.40284039999824,303.40284039999824,303.40284039999824,303.40284039999824,303.40284039999824,303.40284039999824,,003,P020,2025_May_06_1655,ConditionRich,2021.2.3,59.93428804771249,
268.75,272.0,41,0.0,Stimuli/Blank.png,1,0.25,1.0,0,120,120,120,,,,,,,,,,,,,268.76881370000046,0.01881370000046445,1,304.1534698000032,304.1534698000032,304.1534698000032,304.1534698000032,304.1534698000032,304.1534698000032,304.38702000000194,305.1376794000025,304.1534698000032,304.1534698000032,0.597921900000074,003,P020,2025_May_06_1655,ConditionRich,2021.2.3,59.93428804771249,
272.0,272.75,22,0.75,Stimuli/P020/things_bead_10s.jpg,0,0.0,0.0,0,121,121,121,,,,,,,,,,,,,272.0052912999963,0.005291299996315502,None,307.38966770000116,307.38966770000116,307.38966770000116,307.38966770000116,307.38966770000116,307.38966770000116,307.38966770000116,307.38966770000116,307.38966770000116,307.38966770000116,,003,P020,2025_May_06_1655,ConditionRich,2021.2.3,59.93428804771249,
272.75,276.0,41,0.0,Stimuli/Blank.png,0,0.0,0.0,0,122,122,122,,,,,,,,,,,,,272.75817919999827,0.008179199998266995,None,308.15704600000026,308.15704600000026,308.15704600000026,308.15704600000026,308.15704600000026,308.15704600000026,308.15704600000026,308.15704600000026,308.15704600000026,308.15704600000026,,003,P020,2025_May_06_1655,ConditionRich,2021.2.3,59.93428804771249,
276.0,292.0,0,0.0,Stimuli/Blank.png,1,3.0,3.75,0,123,123,123,,,,,,,,,,,,,276.02537019999727,0.025370199997269083,1,311.40989439999976,311.40989439999976,311.40989439999976,311.40989439999976,311.40989439999976,311.40989439999976,314.3958653000009,315.1465513000003,311.40989439999976,311.40989439999976,3.407569599999988,003,P020,2025_May_06_1655,ConditionRich,2021.2.3,59.93428804771249,
292.0,292.75,21,0.75,Stimuli/P020/things_anteater_10s.jpg,0,0.0,0.0,0,124,124,124,,,,,,,,,,,,,292.0066743999996,0.006674399999610614,None,327.390699100004,327.390699100004,327.390699100004,327.390699100004,327.390699100004,327.390699100004,327.390699100004,327.390699100004,327.390699100004,327.390699100004,,003,P020,2025_May_06_1655,ConditionRich,2021.2.3,59.93428804771249,
292.75,296.0,41,0.0,Stimuli/Blank.png,0,0.0,0.0,0,125,125,125,,,,,,,,,,,,,292.7602007000023,0.010200700002314989,None,328.158062399998,328.158062399998,328.158062399998,328.158062399998,328.158062399998,328.158062399998,328.158062399998,328.158062399998,328.158062399998,328.158062399998,,003,P020,2025_May_06_1655,ConditionRich,2021.2.3,59.93428804771249,
296.0,296.75,19,0.75,Stimuli/P020/sun_byssdezaaqnthppd.jpg,0,0.0,0.0,0,126,126,126,,,,,,,,,,,,,296.02824939999846,0.028249399998458102,None,331.4276155999978,331.4276155999978,331.4276155999978,331.4276155999978,331.4276155999978,331.4276155999978,331.4276155999978,331.4276155999978,331.4276155999978,331.4276155999978,,003,P020,2025_May_06_1655,ConditionRich,2021.2.3,59.93428804771249,
296.75,300.0,41,0.0,Stimuli/Blank.png,1,0.25,1.0,0,127,127,127,,,,,,,,,,,,,296.7771141999983,0.027114199998322874,1,332.1616398000042,332.1616398000042,332.1616398000042,332.1616398000042,332.1616398000042,332.1616398000042,332.3951761999997,333.1458258999992,332.1616398000042,332.1616398000042,0.7396159000054467,003,P020,2025_May_06_1655,ConditionRich,2021.2.3,59.93428804771249,
300.0,300.75,26,0.75,Stimuli/P020/things_earwig_10n.jpg,0,0.0,0.0,0,128,128,128,,,,,,,,,,,,,300.01434969999536,0.014349699995364062,None,335.4144749000043,335.4144749000043,335.4144749000043,335.4144749000043,335.4144749000043,335.4144749000043,335.4144749000043,335.4144749000043,335.4144749000043,335.4144749000043,,003,P020,2025_May_06_1655,ConditionRich,2021.2.3,59.93428804771249,
300.75,304.0,41,0.0,Stimuli/Blank.png,0,0.0,0.0,0,129,129,129,,,,,,,,,,,,,300.78310110000166,0.03310110000165878,None,336.1818420999989,336.1818420999989,336.1818420999989,336.1818420999989,336.1818420999989,336.1818420999989,336.1818420999989,336.1818420999989,336.1818420999989,336.1818420999989,,003,P020,2025_May_06_1655,ConditionRich,2021.2.3,59.93428804771249,
304.0,304.75,38,0.75,Stimuli/P020/things_turtle_10n.jpg,0,0.0,0.0,0,130,130,130,,,,,,,,,,,,,304.01960690000124,0.019606900001235772,None,339.4180181999982,339.4180181999982,339.4180181999982,339.4180181999982,339.4180181999982,339.4180181999982,339.4180181999982,339.4180181999982,339.4180181999982,339.4180181999982,,003,P020,2025_May_06_1655,ConditionRich,2021.2.3,59.93428804771249,
304.75,308.0,41,0.0,Stimuli/Blank.png,0,0.0,0.0,0,131,131,131,,,,,,,,,,,,,304.7673582999996,0.017358299999614246,None,340.1520543000006,340.1520543000006,340.1520543000006,340.1520543000006,340.1520543000006,340.1520543000006,340.1520543000006,340.1520543000006,340.1520543000006,340.1520543000006,,003,P020,2025_May_06_1655,ConditionRich,2021.2.3,59.93428804771249,
308.0,308.75,14,0.75,Stimuli/P020/sun_birvagufpcschyrr.jpg,0,0.0,0.0,0,132,132,132,,,,,,,,,,,,,308.0037385999967,0.003738599996722769,None,343.3881909999982,343.3881909999982,343.3881909999982,343.3881909999982,343.3881909999982,343.3881909999982,343.3881909999982,343.3881909999982,343.3881909999982,343.3881909999982,,003,P020,2025_May_06_1655,ConditionRich,2021.2.3,59.93428804771249,
308.75,312.0,41,0.0,Stimuli/Blank.png,0,0.0,0.0,0,133,133,133,,,,,,,,,,,,,308.7544523999968,0.004452399996807799,None,344.13885819999996,344.13885819999996,344.13885819999996,344.13885819999996,344.13885819999996,344.13885819999996,344.13885819999996,344.13885819999996,344.13885819999996,344.13885819999996,,003,P020,2025_May_06_1655,ConditionRich,2021.2.3,59.93428804771249,
312.0,312.75,16,0.75,Stimuli/P020/sun_blfpbbfyzmewzplm.jpg,0,0.0,0.0,0,134,134,134,,,,,,,,,,,,,312.0073656999957,0.007365699995716568,None,347.3918361000033,347.3918361000033,347.3918361000033,347.3918361000033,347.3918361000033,347.3918361000033,347.3918361000033,347.3918361000033,347.3918361000033,347.3918361000033,,003,P020,2025_May_06_1655,ConditionRich,2021.2.3,59.93428804771249,
312.75,316.0,41,0.0,Stimuli/Blank.png,0,0.0,0.0,0,135,135,135,,,,,,,,,,,,,312.75898369999777,0.0089836999977706,None,348.14241480000055,348.14241480000055,348.14241480000055,348.14241480000055,348.14241480000055,348.14241480000055,348.14241480000055,348.14241480000055,348.14241480000055,348.14241480000055,,003,P020,2025_May_06_1655,ConditionRich,2021.2.3,59.93428804771249,
316.0,316.75,17,0.75,Stimuli/P020/sun_bltxkcclrpweopkl.jpg,0,0.0,0.0,0,136,136,136,,,,,,,,,,,,,316.01369890000205,0.01369890000205487,None,351.4119683000026,351.4119683000026,351.4119683000026,351.4119683000026,351.4119683000026,351.4119683000026,351.4119683000026,351.4119683000026,351.4119683000026,351.4119683000026,,003,P020,2025_May_06_1655,ConditionRich,2021.2.3,59.93428804771249,
316.75,320.0,41,0.0,Stimuli/Blank.png,0,0.0,0.0,0,137,137,137,,,,,,,,,,,,,316.77890659999684,0.028906599996844307,None,352.1625735999987,352.1625735999987,352.1625735999987,352.1625735999987,352.1625735999987,352.1625735999987,352.1625735999987,352.1625735999987,352.1625735999987,352.1625735999987,,003,P020,2025_May_06_1655,ConditionRich,2021.2.3,59.93428804771249,
320.0,320.75,36,0.75,Stimuli/P020/things_sunroof_10s.jpg,0,0.0,0.0,0,138,138,138,,,,,,,,,,,,,320.0150619999986,0.015061999998579267,None,355.3988137999986,355.3988137999986,355.3988137999986,355.3988137999986,355.3988137999986,355.3988137999986,355.3988137999986,355.3988137999986,355.3988137999986,355.3988137999986,,003,P020,2025_May_06_1655,ConditionRich,2021.2.3,59.93428804771249,
320.75,324.0,41,0.0,Stimuli/Blank.png,0,0.0,0.0,0,139,139,139,,,,,,,,,,,,,320.7488985000018,-0.001101499998185318,None,356.1328097000005,356.1328097000005,356.1328097000005,356.1328097000005,356.1328097000005,356.1328097000005,356.1328097000005,356.1328097000005,356.1328097000005,356.1328097000005,,003,P020,2025_May_06_1655,ConditionRich,2021.2.3,59.93428804771249,
324.0,324.75,37,0.75,Stimuli/P020/things_toaster_10s.jpg,0,0.0,0.0,0,140,140,140,,,,,,,,,,,,,324.00323280000157,0.003232800001569558,None,359.4023557000037,359.4023557000037,359.4023557000037,359.4023557000037,359.4023557000037,359.4023557000037,359.4023557000037,359.4023557000037,359.4023557000037,359.4023557000037,,003,P020,2025_May_06_1655,ConditionRich,2021.2.3,59.93428804771249,
324.75,328.0,41,0.0,Stimuli/Blank.png,1,1.25,2.0,0,141,141,141,,,,,,,,,,,,,324.7686470999979,0.01864709999790648,1,360.1530249999996,360.1530249999996,360.1530249999996,360.1530249999996,360.1530249999996,360.1530249999996,361.3874555000002,362.1381193999987,360.1530249999996,360.1530249999996,1.6598121999995783,003,P020,2025_May_06_1655,ConditionRich,2021.2.3,59.93428804771249,
328.0,328.75,33,0.75,Stimuli/P020/things_insole_10s.jpg,0,0.0,0.0,0,142,142,142,,,,,,,,,,,,,328.0047876999961,0.004787699996086303,None,363.38921539999865,363.38921539999865,363.38921539999865,363.38921539999865,363.38921539999865,363.38921539999865,363.38921539999865,363.38921539999865,363.38921539999865,363.38921539999865,,003,P020,2025_May_06_1655,ConditionRich,2021.2.3,59.93428804771249,
328.75,332.0,41,0.0,Stimuli/Blank.png,1,1.25,2.0,0,143,143,143,,,,,,,,,,,,,328.75655279999773,0.006552799997734837,1,364.1399012000038,364.1399012000038,364.1399012000038,364.1399012000038,364.1399012000038,364.1399012000038,365.37430309999763,366.1250244000039,364.1399012000038,364.1399012000038,1.7983813999962877,003,P020,2025_May_06_1655,ConditionRich,2021.2.3,59.93428804771249,
332.0,332.75,29,0.75,Stimuli/P020/things_flamingo_10s.jpg,1,0.0,0.75,0,144,144,144,,,,,,,,,,,,,332.00896490000014,0.008964900000137277,None,367.3927696000028,367.3927696000028,367.3927696000028,367.3927696000028,367.3927696000028,367.3927696000028,367.3927696000028,368.1267497000008,367.3927696000028,367.3927696000028,,003,P020,2025_May_06_1655,ConditionRich,2021.2.3,59.93428804771249,
332.75,336.0,41,0.0,Stimuli/Blank.png,0,0.0,0.0,0,145,145,145,,,,,,,,,,,,,332.7588548999993,0.008854899999278132,None,368.14342659999966,368.14342659999966,368.14342659999966,368.14342659999966,368.14342659999966,368.14342659999966,368.14342659999966,368.14342659999966,368.14342659999966,368.14342659999966,,003,P020,2025_May_06_1655,ConditionRich,2021.2.3,59.93428804771249,
336.0,336.75,3,0.75,Stimuli/P020/sun_aknrkswonrogcooi.jpg,0,0.0,0.0,0,146,146,146,,,,,,,,,,,,,336.0137407000002,0.013740700000198558,None,371.4130091000043,371.4130091000043,371.4130091000043,371.4130091000043,371.4130091000043,371.4130091000043,371.4130091000043,371.4130091000043,371.4130091000043,371.4130091000043,,003,P020,2025_May_06_1655,ConditionRich,2021.2.3,59.93428804771249,
336.75,340.0,41,0.0,Stimuli/Blank.png,0,0.0,0.0,0,147,147,147,,,,,,,,,,,,,336.7789625000005,0.028962500000488944,None,372.1636475999985,372.1636475999985,372.1636475999985,372.1636475999985,372.1636475999985,372.1636475999985,372.1636475999985,372.1636475999985,372.1636475999985,372.1636475999985,,003,P020,2025_May_06_1655,ConditionRich,2021.2.3,59.93428804771249,
340.0,340.75,27,0.75,Stimuli/P020/things_eel_10s.jpg,0,0.0,0.0,0,148,148,148,,,,,,,,,,,,,340.01525019999826,0.01525019999826327,None,375.39985349999915,375.39985349999915,375.39985349999915,375.39985349999915,375.39985349999915,375.39985349999915,375.39985349999915,375.39985349999915,375.39985349999915,375.39985349999915,,003,P020,2025_May_06_1655,ConditionRich,2021.2.3,59.93428804771249,
340.75,344.0,41,0.0,Stimuli/Blank.png,0,0.0,0.0,0,149,149,149,,,,,,,,,,,,,340.74967630000174,-0.0003236999982618727,None,376.13384280000173,376.13384280000173,376.13384280000173,376.13384280000173,376.13384280000173,376.13384280000173,376.13384280000173,376.13384280000173,376.13384280000173,376.13384280000173,,003,P020,2025_May_06_1655,ConditionRich,2021.2.3,59.93428804771249,
344.0,344.75,15,0.75,Stimuli/P020/sun_bkubdnohuakmwcaj.jpg,0,0.0,0.0,0,150,150,150,,,,,,,,,,,,,344.004042499997,0.004042499997012783,None,379.40341479999915,379.40341479999915,379.40341479999915,379.40341479999915,379.40341479999915,379.40341479999915,379.40341479999915,379.40341479999915,379.40341479999915,379.40341479999915,,003,P020,2025_May_06_1655,ConditionRich,2021.2.3,59.93428804771249,
344.75,348.0,41,0.0,Stimuli/Blank.png,0,0.0,0.0,0,151,151,151,,,,,,,,,,,,,344.77040660000057,0.020406600000569597,None,380.15405699999974,380.15405699999974,380.15405699999974,380.15405699999974,380.15405699999974,380.15405699999974,380.15405699999974,380.15405699999974,380.15405699999974,380.15405699999974,,003,P020,2025_May_06_1655,ConditionRich,2021.2.3,59.93428804771249,
348.0,348.75,25,0.75,Stimuli/P020/things_chime_10s.jpg,0,0.0,0.0,0,152,152,152,,,,,,,,,,,,,348.0089854999969,0.008985499996924773,None,383.40695250000135,383.40695250000135,383.40695250000135,383.40695250000135,383.40695250000135,383.40695250000135,383.40695250000135,383.40695250000135,383.40695250000135,383.40695250000135,,003,P020,2025_May_06_1655,ConditionRich,2021.2.3,59.93428804771249,
348.75,352.0,41,0.0,Stimuli/Blank.png,0,0.0,0.0,0,153,153,153,,,,,,,,,,,,,348.7735157999996,0.023515799999586307,None,384.1576089000009,384.1576089000009,384.1576089000009,384.1576089000009,384.1576089000009,384.1576089000009,384.1576089000009,384.1576089000009,384.1576089000009,384.1576089000009,,003,P020,2025_May_06_1655,ConditionRich,2021.2.3,59.93428804771249,
352.0,352.75,40,0.75,Stimuli/P020/things_woman_10s.jpg,0,0.0,0.0,0,154,154,154,,,,,,,,,,,,,352.01019119999546,0.01019119999546092,None,387.3938063000023,387.3938063000023,387.3938063000023,387.3938063000023,387.3938063000023,387.3938063000023,387.3938063000023,387.3938063000023,387.3938063000023,387.3938063000023,,003,P020,2025_May_06_1655,ConditionRich,2021.2.3,59.93428804771249,
352.75,356.0,41,0.0,Stimuli/Blank.png,0,0.0,0.0,0,155,155,155,,,,,,,,,,,,,352.7598257999998,0.009825799999816809,None,388.14443729999766,388.14443729999766,388.14443729999766,388.14443729999766,388.14443729999766,388.14443729999766,388.14443729999766,388.14443729999766,388.14443729999766,388.14443729999766,,003,P020,2025_May_06_1655,ConditionRich,2021.2.3,59.93428804771249,
356.0,356.75,4,0.75,Stimuli/P020/sun_amixpbnrxiulfsri.jpg,0,0.0,0.0,0,156,156,156,,,,,,,,,,,,,356.01391789999616,0.013917899996158667,None,391.3973655000009,391.3973655000009,391.3973655000009,391.3973655000009,391.3973655000009,391.3973655000009,391.3973655000009,391.3973655000009,391.3973655000009,391.3973655000009,,003,P020,2025_May_06_1655,ConditionRich,2021.2.3,59.93428804771249,
356.75,360.0,41,0.0,Stimuli/Blank.png,0,0.0,0.0,0,157,157,157,,,,,,,,,,,,,356.7644336000012,0.014433600001211744,None,392.14800359999936,392.14800359999936,392.14800359999936,392.14800359999936,392.14800359999936,392.14800359999936,392.14800359999936,392.14800359999936,392.14800359999936,392.14800359999936,,003,P020,2025_May_06_1655,ConditionRich,2021.2.3,59.93428804771249,
360.0,360.75,9,0.75,Stimuli/P020/sun_bbfmuujfvpiaqdww.jpg,0,0.0,0.0,0,158,158,158,,,,,,,,,,,,,359.99969129999954,-0.00030870000045979396,None,395.38419350000186,395.38419350000186,395.38419350000186,395.38419350000186,395.38419350000186,395.38419350000186,395.38419350000186,395.38419350000186,395.38419350000186,395.38419350000186,,003,P020,2025_May_06_1655,ConditionRich,2021.2.3,59.93428804771249,
360.75,364.0,41,0.0,Stimuli/Blank.png,0,0.0,0.0,0,159,159,159,,,,,,,,,,,,,360.75018109999655,0.00018109999655280262,None,396.1348590999987,396.1348590999987,396.1348590999987,396.1348590999987,396.1348590999987,396.1348590999987,396.1348590999987,396.1348590999987,396.1348590999987,396.1348590999987,,003,P020,2025_May_06_1655,ConditionRich,2021.2.3,59.93428804771249,
364.0,364.75,11,0.75,Stimuli/P020/sun_bcbfjkoziukwmdkd.jpg,0,0.0,0.0,0,160,160,160,,,,,,,,,,,,,364.0032771999977,0.0032771999976830557,None,399.38774900000135,399.38774900000135,399.38774900000135,399.38774900000135,399.38774900000135,399.38774900000135,399.38774900000135,399.38774900000135,399.38774900000135,399.38774900000135,,003,P020,2025_May_06_1655,ConditionRich,2021.2.3,59.93428804771249,
364.75,368.0,41,0.0,Stimuli/Blank.png,0,0.0,0.0,0,161,161,161,,,,,,,,,,,,,364.7537955000007,0.0037955000007059425,None,400.1383851999999,400.1383851999999,400.1383851999999,400.1383851999999,400.1383851999999,400.1383851999999,400.1383851999999,400.1383851999999,400.1383851999999,400.1383851999999,,003,P020,2025_May_06_1655,ConditionRich,2021.2.3,59.93428804771249,
368.0,368.75,35,0.75,Stimuli/P020/things_pretzel_10s.jpg,0,0.0,0.0,0,162,162,162,,,,,,,,,,,,,368.00867629999993,0.00867629999993369,None,403.40797290000046,403.40797290000046,403.40797290000046,403.40797290000046,403.40797290000046,403.40797290000046,403.40797290000046,403.40797290000046,403.40797290000046,403.40797290000046,,003,P020,2025_May_06_1655,ConditionRich,2021.2.3,59.93428804771249,
368.75,372.0,41,0.0,Stimuli/Blank.png,0,0.0,0.0,0,163,163,163,,,,,,,,,,,,,368.774797099999,0.0247970999989775,None,404.1586447000009,404.1586447000009,404.1586447000009,404.1586447000009,404.1586447000009,404.1586447000009,404.1586447000009,404.1586447000009,404.1586447000009,404.1586447000009,,003,P020,2025_May_06_1655,ConditionRich,2021.2.3,59.93428804771249,
372.0,388.0,0,0.0,Stimuli/Blank.png,1,11.0,11.75,0,164,164,164,,,,,,,,,,,,,372.01084699999774,0.010846999997738749,1,407.3948270000037,407.3948270000037,407.3948270000037,407.3948270000037,407.3948270000037,407.3948270000037,418.37120460000006,419.1218807000041,407.3948270000037,407.3948270000037,11.555498900001112,003,P020,2025_May_06_1655,ConditionRich,2021.2.3,59.93428804771249,
