eventStartTime,eventEndTime,eventCond,imSize,imFile,responseEvent,fixRespStart,fixRespEnd,Events.thisRepN,Events.thisTrialN,Events.thisN,Events.thisIndex,Instructions.started,Instructions.stopped,participantReadyResponse.keys,participantReadyResponse.rt,participantReadyResponse.started,participantReadyResponse.stopped,startWaitforTrigger,triggerResponse.keys,triggerResponse.rt,triggerResponse.started,triggerResponse.stopped,globalTimer,actualStartTime,startTimingDiff,participantResponse.keys,participantResponse.started,participantResponse.stopped,image.started,image.stopped,fixationOutside.started,fixationOutside.stopped,fixationResponse.started,fixationResponse.stopped,fixationInside.started,fixationInside.stopped,participantResponse.rt,session,participant,date,expName,psychopyVersion,frameRate,
,,,,,,,,,,,,10.796162500002538,None,1,6.736702800000785,10.796162500002538,None,,,,,,,,,,,,,,,,,,,,,005,P020,2025_May_06_1716,ConditionRich,2021.2.3,59.938670752606015,
,,,,,,,,,,,,,,,,,,17.54535290000058,5,14.628422800000408,17.557493200001772,None,,,,,,,,,,,,,,,,005,P020,2025_May_06_1716,ConditionRich,2021.2.3,59.938670752606015,
0.0,4.0,0,0.0,Stimuli/Blank.png,0,0,0.0,0,0,0,0,,,,,,,,,,,,32.191486600000644,0.021392199996626005,0.021392199996626005,None,32.23715970000194,None,32.23715970000194,None,32.23715970000194,None,32.23715970000194,32.23715970000194,32.23715970000194,None,,005,P020,2025_May_06_1716,ConditionRich,2021.2.3,59.938670752606015,
4.0,7.75,36,0.75,Stimuli/P020/things_sunroof_10s.jpg,0,0,0.0,0,1,1,1,,,,,,,,,,,,,4.018539600001532,0.018539600001531653,None,36.241076799997245,36.241076799997245,36.241076799997245,36.241076799997245,36.241076799997245,36.241076799997245,36.241076799997245,36.241076799997245,36.241076799997245,36.241076799997245,,005,P020,2025_May_06_1716,ConditionRich,2021.2.3,59.938670752606015,
7.75,8.0,41,0.0,Stimuli/Blank.png,0,0,0.0,0,2,2,2,,,,,,,,,,,,,7.771994700000505,0.021994700000504963,None,39.97761600000376,39.97761600000376,39.97761600000376,39.97761600000376,39.97761600000376,39.97761600000376,39.97761600000376,39.97761600000376,39.97761600000376,39.97761600000376,,005,P020,2025_May_06_1716,ConditionRich,2021.2.3,59.938670752606015,
8.0,11.75,20,0.75,Stimuli/P020/sun_dlnwonqxagdvtlta.jpg,0,0,0.0,0,3,3,3,,,,,,,,,,,,,8.006923000000825,0.006923000000824686,None,40.22755960000359,40.22755960000359,40.22755960000359,40.22755960000359,40.22755960000359,40.22755960000359,40.22755960000359,40.22755960000359,40.22755960000359,40.22755960000359,,005,P020,2025_May_06_1716,ConditionRich,2021.2.3,59.938670752606015,
11.75,12.0,41,0.0,Stimuli/Blank.png,0,0,0.0,0,4,4,4,,,,,,,,,,,,,11.775216599999112,0.025216599999112077,None,43.980936400002975,43.980936400002975,43.980936400002975,43.980936400002975,43.980936400002975,43.980936400002975,43.980936400002975,43.980936400002975,43.980936400002975,43.980936400002975,,005,P020,2025_May_06_1716,ConditionRich,2021.2.3,59.938670752606015,
12.0,15.75,34,0.75,Stimuli/P020/things_man_10s.jpg,1,3,3.75,0,5,5,5,,,,,,,,,,,,,12.008636200000183,0.008636200000182725,1,44.2144294000027,44.2144294000027,44.2144294000027,44.2144294000027,44.2144294000027,44.2144294000027,47.20042670000112,47.95106639999722,44.2144294000027,44.2144294000027,3.4357085000010557,005,P020,2025_May_06_1716,ConditionRich,2021.2.3,59.938670752606015,
15.75,16.0,41,0.0,Stimuli/Blank.png,0,0,0.0,0,6,6,6,,,,,,,,,,,,,15.762202699996124,0.012202699996123556,None,47.967748299997766,47.967748299997766,47.967748299997766,47.967748299997766,47.967748299997766,47.967748299997766,47.967748299997766,47.967748299997766,47.967748299997766,47.967748299997766,,005,P020,2025_May_06_1716,ConditionRich,2021.2.3,59.938670752606015,
16.0,19.75,40,0.75,Stimuli/P020/things_woman_10s.jpg,0,0,0.0,0,7,7,7,,,,,,,,,,,,,16.01199149999593,0.011991499995929189,None,48.21797009999864,48.21797009999864,48.21797009999864,48.21797009999864,48.21797009999864,48.21797009999864,48.21797009999864,48.21797009999864,48.21797009999864,48.21797009999864,,005,P020,2025_May_06_1716,ConditionRich,2021.2.3,59.938670752606015,
19.75,20.0,41,0.0,Stimuli/Blank.png,0,0,0.0,0,8,8,8,,,,,,,,,,,,,19.766026500001317,0.01602650000131689,None,51.97130180000386,51.97130180000386,51.97130180000386,51.97130180000386,51.97130180000386,51.97130180000386,51.97130180000386,51.97130180000386,51.97130180000386,51.97130180000386,,005,P020,2025_May_06_1716,ConditionRich,2021.2.3,59.938670752606015,
20.0,23.75,21,0.75,Stimuli/P020/things_anteater_10s.jpg,1,2,2.75,0,9,9,9,,,,,,,,,,,,,20.001722000000882,0.0017220000008819625,1,52.221505100002105,52.221505100002105,52.221505100002105,52.221505100002105,52.221505100002105,52.221505100002105,54.2066061000005,54.95725459999812,52.221505100002105,52.221505100002105,2.3917431000008946,005,P020,2025_May_06_1716,ConditionRich,2021.2.3,59.938670752606015,
23.75,24.0,41,0.0,Stimuli/Blank.png,0,0,0.0,0,10,10,10,,,,,,,,,,,,,23.76883010000165,0.018830100001650862,None,55.97507680000126,55.97507680000126,55.97507680000126,55.97507680000126,55.97507680000126,55.97507680000126,55.97507680000126,55.97507680000126,55.97507680000126,55.97507680000126,,005,P020,2025_May_06_1716,ConditionRich,2021.2.3,59.938670752606015,
24.0,27.75,11,0.75,Stimuli/P020/sun_bcbfjkoziukwmdkd.jpg,0,0,0.0,0,11,11,11,,,,,,,,,,,,,24.00245719999657,0.0024571999965701252,None,56.20846200000233,56.20846200000233,56.20846200000233,56.20846200000233,56.20846200000233,56.20846200000233,56.20846200000233,56.20846200000233,56.20846200000233,56.20846200000233,,005,P020,2025_May_06_1716,ConditionRich,2021.2.3,59.938670752606015,
27.75,28.0,41,0.0,Stimuli/Blank.png,0,0,0.0,0,12,12,12,,,,,,,,,,,,,27.756469200001447,0.0064692000014474615,None,59.961692400000175,59.961692400000175,59.961692400000175,59.961692400000175,59.961692400000175,59.961692400000175,59.961692400000175,59.961692400000175,59.961692400000175,59.961692400000175,,005,P020,2025_May_06_1716,ConditionRich,2021.2.3,59.938670752606015,
28.0,31.75,23,0.75,Stimuli/P020/things_boy_10s.jpg,0,0,0.0,0,13,13,13,,,,,,,,,,,,,28.00610389999929,0.006103899999288842,None,60.21190310000384,60.21190310000384,60.21190310000384,60.21190310000384,60.21190310000384,60.21190310000384,60.21190310000384,60.21190310000384,60.21190310000384,60.21190310000384,,005,P020,2025_May_06_1716,ConditionRich,2021.2.3,59.938670752606015,
31.75,32.0,41,0.0,Stimuli/Blank.png,0,0,0.0,0,14,14,14,,,,,,,,,,,,,31.761867199995322,0.011867199995322153,None,63.981929800000216,63.981929800000216,63.981929800000216,63.981929800000216,63.981929800000216,63.981929800000216,63.981929800000216,63.981929800000216,63.981929800000216,63.981929800000216,,005,P020,2025_May_06_1716,ConditionRich,2021.2.3,59.938670752606015,
32.0,35.75,13,0.75,Stimuli/P020/sun_bhzwrbdycbchqesq.jpg,0,0,0.0,0,15,15,15,,,,,,,,,,,,,32.02666650000174,0.026666500001738314,None,64.23213340000075,64.23213340000075,64.23213340000075,64.23213340000075,64.23213340000075,64.23213340000075,64.23213340000075,64.23213340000075,64.23213340000075,64.23213340000075,,005,P020,2025_May_06_1716,ConditionRich,2021.2.3,59.938670752606015,
35.75,36.0,41,0.0,Stimuli/Blank.png,0,0,0.0,0,16,16,16,,,,,,,,,,,,,35.76326429999608,0.013264299996080808,None,67.96878039999865,67.96878039999865,67.96878039999865,67.96878039999865,67.96878039999865,67.96878039999865,67.96878039999865,67.96878039999865,67.96878039999865,67.96878039999865,,005,P020,2025_May_06_1716,ConditionRich,2021.2.3,59.938670752606015,
36.0,39.75,35,0.75,Stimuli/P020/things_pretzel_10s.jpg,0,0,0.0,0,17,17,17,,,,,,,,,,,,,36.01307309999538,0.013073099995381199,None,68.2189658999996,68.2189658999996,68.2189658999996,68.2189658999996,68.2189658999996,68.2189658999996,68.2189658999996,68.2189658999996,68.2189658999996,68.2189658999996,,005,P020,2025_May_06_1716,ConditionRich,2021.2.3,59.938670752606015,
39.75,40.0,41,0.0,Stimuli/Blank.png,0,0,0.0,0,18,18,18,,,,,,,,,,,,,39.752676899996004,0.0026768999960040674,None,71.97231789999933,71.97231789999933,71.97231789999933,71.97231789999933,71.97231789999933,71.97231789999933,71.97231789999933,71.97231789999933,71.97231789999933,71.97231789999933,,005,P020,2025_May_06_1716,ConditionRich,2021.2.3,59.938670752606015,
40.0,43.75,1,0.75,Stimuli/P020/sun_aaaidwecchadbake.jpg,0,0,0.0,0,19,19,19,,,,,,,,,,,,,40.017631199996686,0.01763119999668561,None,72.23925700000109,72.23925700000109,72.23925700000109,72.23925700000109,72.23925700000109,72.23925700000109,72.23925700000109,72.23925700000109,72.23925700000109,72.23925700000109,,005,P020,2025_May_06_1716,ConditionRich,2021.2.3,59.938670752606015,
43.75,44.0,41,0.0,Stimuli/Blank.png,0,0,0.0,0,20,20,20,,,,,,,,,,,,,43.7729055000018,0.022905500001797918,None,75.99257460000081,75.99257460000081,75.99257460000081,75.99257460000081,75.99257460000081,75.99257460000081,75.99257460000081,75.99257460000081,75.99257460000081,75.99257460000081,,005,P020,2025_May_06_1716,ConditionRich,2021.2.3,59.938670752606015,
44.0,47.75,19,0.75,Stimuli/P020/sun_byssdezaaqnthppd.jpg,0,0,0.0,0,21,21,21,,,,,,,,,,,,,44.02062440000009,0.020624400000087917,None,76.22607509999943,76.22607509999943,76.22607509999943,76.22607509999943,76.22607509999943,76.22607509999943,76.22607509999943,76.22607509999943,76.22607509999943,76.22607509999943,,005,P020,2025_May_06_1716,ConditionRich,2021.2.3,59.938670752606015,
47.75,48.0,41,0.0,Stimuli/Blank.png,0,0,0.0,0,22,22,22,,,,,,,,,,,,,47.757137200002035,0.00713720000203466,None,79.96275369999785,79.96275369999785,79.96275369999785,79.96275369999785,79.96275369999785,79.96275369999785,79.96275369999785,79.96275369999785,79.96275369999785,79.96275369999785,,005,P020,2025_May_06_1716,ConditionRich,2021.2.3,59.938670752606015,
48.0,51.75,5,0.75,Stimuli/P020/sun_amjqxnqvhovkotym.jpg,0,0,0.0,0,23,23,23,,,,,,,,,,,,,48.00691740000184,0.006917400001839269,None,80.21293780000269,80.21293780000269,80.21293780000269,80.21293780000269,80.21293780000269,80.21293780000269,80.21293780000269,80.21293780000269,80.21293780000269,80.21293780000269,,005,P020,2025_May_06_1716,ConditionRich,2021.2.3,59.938670752606015,
51.75,52.0,41,0.0,Stimuli/Blank.png,0,0,0.0,0,24,24,24,,,,,,,,,,,,,51.762890599995444,0.012890599995444063,None,83.98294380000152,83.98294380000152,83.98294380000152,83.98294380000152,83.98294380000152,83.98294380000152,83.98294380000152,83.98294380000152,83.98294380000152,83.98294380000152,,005,P020,2025_May_06_1716,ConditionRich,2021.2.3,59.938670752606015,
52.0,55.75,3,0.75,Stimuli/P020/sun_aknrkswonrogcooi.jpg,1,3,3.75,0,25,25,25,,,,,,,,,,,,,52.02715360000002,0.02715360000001965,1,84.23317769999994,84.23317769999994,84.23317769999994,84.23317769999994,84.23317769999994,84.23317769999994,87.21913379999751,None,84.23317769999994,84.23317769999994,3.401913699999568,005,P020,2025_May_06_1716,ConditionRich,2021.2.3,59.938670752606015,
55.75,56.0,41,0.0,Stimuli/Blank.png,0,0,0.0,0,26,26,26,,,,,,,,,,,,,55.763824299996486,0.013824299996485934,None,87.96991030000208,87.96991030000208,87.96991030000208,87.96991030000208,87.96991030000208,87.96991030000208,87.96991030000208,87.96991030000208,87.96991030000208,87.96991030000208,,005,P020,2025_May_06_1716,ConditionRich,2021.2.3,59.938670752606015,
56.0,59.75,25,0.75,Stimuli/P020/things_chime_10s.jpg,1,1,1.75,0,27,27,27,,,,,,,,,,,,,56.01417170000059,0.014171700000588316,1,88.23670770000172,88.23670770000172,88.23670770000172,88.23670770000172,88.23670770000172,88.23670770000172,89.20423480000318,89.9549490999998,88.23670770000172,88.23670770000172,1.3732822999954806,005,P020,2025_May_06_1716,ConditionRich,2021.2.3,59.938670752606015,
59.75,60.0,41,0.0,Stimuli/Blank.png,0,0,0.0,0,28,28,28,,,,,,,,,,,,,59.76773079999839,0.017730799998389557,None,91.97335469999962,91.97335469999962,91.97335469999962,91.97335469999962,91.97335469999962,91.97335469999962,91.97335469999962,91.97335469999962,91.97335469999962,91.97335469999962,,005,P020,2025_May_06_1716,ConditionRich,2021.2.3,59.938670752606015,
60.0,63.75,28,0.75,Stimuli/P020/things_face_10s.jpg,0,0,0.0,0,29,29,29,,,,,,,,,,,,,60.00298810000095,0.0029881000009481795,None,92.22355830000015,92.22355830000015,92.22355830000015,92.22355830000015,92.22355830000015,92.22355830000015,92.22355830000015,92.22355830000015,92.22355830000015,92.22355830000015,,005,P020,2025_May_06_1716,ConditionRich,2021.2.3,59.938670752606015,
63.75,64.0,41,0.0,Stimuli/Blank.png,0,0,0.0,0,30,30,30,,,,,,,,,,,,,63.77196399999957,0.02196399999957066,None,95.97689740000351,95.97689740000351,95.97689740000351,95.97689740000351,95.97689740000351,95.97689740000351,95.97689740000351,95.97689740000351,95.97689740000351,95.97689740000351,,005,P020,2025_May_06_1716,ConditionRich,2021.2.3,59.938670752606015,
64.0,67.75,29,0.75,Stimuli/P020/things_flamingo_10s.jpg,0,0,0.0,0,31,31,31,,,,,,,,,,,,,64.00663070000155,0.006630700001551304,None,96.22710760000336,96.22710760000336,96.22710760000336,96.22710760000336,96.22710760000336,96.22710760000336,96.22710760000336,96.22710760000336,96.22710760000336,96.22710760000336,,005,P020,2025_May_06_1716,ConditionRich,2021.2.3,59.938670752606015,
67.75,68.0,41,0.0,Stimuli/Blank.png,0,0,0.0,0,32,32,32,,,,,,,,,,,,,67.77706380000018,0.027063800000178162,None,99.9971136000022,99.9971136000022,99.9971136000022,99.9971136000022,99.9971136000022,99.9971136000022,99.9971136000022,99.9971136000022,99.9971136000022,99.9971136000022,,005,P020,2025_May_06_1716,ConditionRich,2021.2.3,59.938670752606015,
68.0,71.75,16,0.75,Stimuli/P020/sun_blfpbbfyzmewzplm.jpg,0,0,0.0,0,33,33,33,,,,,,,,,,,,,68.02614809999795,0.026148099997953977,None,100.24732609999774,100.24732609999774,100.24732609999774,100.24732609999774,100.24732609999774,100.24732609999774,100.24732609999774,100.24732609999774,100.24732609999774,100.24732609999774,,005,P020,2025_May_06_1716,ConditionRich,2021.2.3,59.938670752606015,
71.75,72.0,41,0.0,Stimuli/Blank.png,0,0,0.0,0,34,34,34,,,,,,,,,,,,,71.77869929999724,0.028699299997242633,None,103.98399770000105,103.98399770000105,103.98399770000105,103.98399770000105,103.98399770000105,103.98399770000105,103.98399770000105,103.98399770000105,103.98399770000105,103.98399770000105,,005,P020,2025_May_06_1716,ConditionRich,2021.2.3,59.938670752606015,
72.0,75.75,27,0.75,Stimuli/P020/things_eel_10s.jpg,0,0,0.0,0,35,35,35,,,,,,,,,,,,,72.01138360000186,0.01138360000186367,None,104.21750520000205,104.21750520000205,104.21750520000205,104.21750520000205,104.21750520000205,104.21750520000205,104.21750520000205,104.21750520000205,104.21750520000205,104.21750520000205,,005,P020,2025_May_06_1716,ConditionRich,2021.2.3,59.938670752606015,
75.75,76.0,41,0.0,Stimuli/Blank.png,0,0,0.0,0,36,36,36,,,,,,,,,,,,,75.76788279999892,0.01788279999891529,None,107.98752180000156,107.98752180000156,107.98752180000156,107.98752180000156,107.98752180000156,107.98752180000156,107.98752180000156,107.98752180000156,107.98752180000156,107.98752180000156,,005,P020,2025_May_06_1716,ConditionRich,2021.2.3,59.938670752606015,
76.0,79.75,39,0.75,Stimuli/P020/things_wire_10s.jpg,0,0,0.0,0,37,37,37,,,,,,,,,,,,,76.01557489999686,0.015574899996863678,None,108.22104799999943,108.22104799999943,108.22104799999943,108.22104799999943,108.22104799999943,108.22104799999943,108.22104799999943,108.22104799999943,108.22104799999943,108.22104799999943,,005,P020,2025_May_06_1716,ConditionRich,2021.2.3,59.938670752606015,
79.75,80.0,41,0.0,Stimuli/Blank.png,0,0,0.0,0,38,38,38,,,,,,,,,,,,,79.75242099999741,0.0024209999974118546,None,111.97435099999711,111.97435099999711,111.97435099999711,111.97435099999711,111.97435099999711,111.97435099999711,111.97435099999711,111.97435099999711,111.97435099999711,111.97435099999711,,005,P020,2025_May_06_1716,ConditionRich,2021.2.3,59.938670752606015,
80.0,83.75,4,0.75,Stimuli/P020/sun_amixpbnrxiulfsri.jpg,0,0,0.0,0,39,39,39,,,,,,,,,,,,,80.01970459999575,0.01970459999574814,None,112.24128339999879,112.24128339999879,112.24128339999879,112.24128339999879,112.24128339999879,112.24128339999879,112.24128339999879,112.24128339999879,112.24128339999879,112.24128339999879,,005,P020,2025_May_06_1716,ConditionRich,2021.2.3,59.938670752606015,
83.75,84.0,41,0.0,Stimuli/Blank.png,0,0,0.0,0,40,40,40,,,,,,,,,,,,,83.77253429999837,0.022534299998369534,None,115.97793529999763,115.97793529999763,115.97793529999763,115.97793529999763,115.97793529999763,115.97793529999763,115.97793529999763,115.97793529999763,115.97793529999763,115.97793529999763,,005,P020,2025_May_06_1716,ConditionRich,2021.2.3,59.938670752606015,
84.0,100.0,0,0.0,Stimuli/Blank.png,1,10,10.75,0,41,41,41,,,,,,,,,,,,,84.00652789999731,0.00652789999730885,1,116.2114803000004,116.2114803000004,116.2114803000004,116.2114803000004,116.2114803000004,116.2114803000004,126.20362910000404,126.95435349999752,116.2114803000004,116.2114803000004,10.420545099994342,005,P020,2025_May_06_1716,ConditionRich,2021.2.3,59.938670752606015,
100.0,103.75,14,0.75,Stimuli/P020/sun_birvagufpcschyrr.jpg,0,0,0.0,0,42,42,42,,,,,,,,,,,,,100.00319920000038,0.003199200000381097,None,132.20897140000307,132.20897140000307,132.20897140000307,132.20897140000307,132.20897140000307,132.20897140000307,132.20897140000307,132.20897140000307,132.20897140000307,132.20897140000307,,005,P020,2025_May_06_1716,ConditionRich,2021.2.3,59.938670752606015,
103.75,104.0,41,0.0,Stimuli/Blank.png,0,0,0.0,0,43,43,43,,,,,,,,,,,,,103.75746639999852,0.007466399998520501,None,135.9789763000008,135.9789763000008,135.9789763000008,135.9789763000008,135.9789763000008,135.9789763000008,135.9789763000008,135.9789763000008,135.9789763000008,135.9789763000008,,005,P020,2025_May_06_1716,ConditionRich,2021.2.3,59.938670752606015,
104.0,107.75,26,0.75,Stimuli/P020/things_earwig_10n.jpg,0,0,0.0,0,44,44,44,,,,,,,,,,,,,104.02323610000167,0.023236100001668092,None,136.2291777999999,136.2291777999999,136.2291777999999,136.2291777999999,136.2291777999999,136.2291777999999,136.2291777999999,136.2291777999999,136.2291777999999,136.2291777999999,,005,P020,2025_May_06_1716,ConditionRich,2021.2.3,59.938670752606015,
107.75,108.0,41,0.0,Stimuli/Blank.png,0,0,0.0,0,45,45,45,,,,,,,,,,,,,107.761817599996,0.011817599995993078,None,139.98249909999868,139.98249909999868,139.98249909999868,139.98249909999868,139.98249909999868,139.98249909999868,139.98249909999868,139.98249909999868,139.98249909999868,139.98249909999868,,005,P020,2025_May_06_1716,ConditionRich,2021.2.3,59.938670752606015,
108.0,111.75,7,0.75,Stimuli/P020/sun_aqkbfuonyunmyqxb.jpg,1,2,2.75,0,46,46,46,,,,,,,,,,,,,108.02711080000154,0.027110800001537427,1,140.23271730000124,140.23271730000124,140.23271730000124,140.23271730000124,140.23271730000124,140.23271730000124,142.2178064999971,142.968466600003,140.23271730000124,140.23271730000124,2.45741110000381,005,P020,2025_May_06_1716,ConditionRich,2021.2.3,59.938670752606015,
111.75,112.0,41,0.0,Stimuli/Blank.png,0,0,0.0,0,47,47,47,,,,,,,,,,,,,111.76343199999974,0.013431999999738764,None,143.96936419999838,143.96936419999838,143.96936419999838,143.96936419999838,143.96936419999838,143.96936419999838,143.96936419999838,143.96936419999838,143.96936419999838,143.96936419999838,,005,P020,2025_May_06_1716,ConditionRich,2021.2.3,59.938670752606015,
112.0,115.75,10,0.75,Stimuli/P020/sun_bblqhrudkospnbbv.jpg,1,0,0.75,0,48,48,48,,,,,,,,,,,,,112.01350719999755,0.013507199997548014,1,144.21957719999773,144.21957719999773,144.21957719999773,144.21957719999773,144.21957719999773,144.21957719999773,144.21957719999773,144.9536186999976,144.21957719999773,144.21957719999773,0.4485544999988633,005,P020,2025_May_06_1716,ConditionRich,2021.2.3,59.938670752606015,
115.75,116.0,41,0.0,Stimuli/Blank.png,0,0,0.0,0,49,49,49,,,,,,,,,,,,,115.7516512000002,0.0016512000001966953,None,147.95620500000223,147.95620500000223,147.95620500000223,147.95620500000223,147.95620500000223,147.95620500000223,147.95620500000223,147.95620500000223,147.95620500000223,147.95620500000223,,005,P020,2025_May_06_1716,ConditionRich,2021.2.3,59.938670752606015,
116.0,119.75,30,0.75,Stimuli/P020/things_flip_flop_10s.jpg,1,3,3.75,0,50,50,50,,,,,,,,,,,,,116.00034890000097,0.00034890000097220764,1,148.20643640000344,148.20643640000344,148.20643640000344,148.20643640000344,148.20643640000344,148.20643640000344,151.19240829999762,151.94313169999805,148.20643640000344,148.20643640000344,3.405711400002474,005,P020,2025_May_06_1716,ConditionRich,2021.2.3,59.938670752606015,
119.75,120.0,41,0.0,Stimuli/Blank.png,0,0,0.0,0,51,51,51,,,,,,,,,,,,,119.75505919999705,0.005059199997049291,None,151.95978509999986,151.95978509999986,151.95978509999986,151.95978509999986,151.95978509999986,151.95978509999986,151.95978509999986,151.95978509999986,151.95978509999986,151.95978509999986,,005,P020,2025_May_06_1716,ConditionRich,2021.2.3,59.938670752606015,
120.0,123.75,18,0.75,Stimuli/P020/sun_bodjbrgwzlshgypq.jpg,0,0,0.0,0,52,52,52,,,,,,,,,,,,,120.00445829999808,0.004458299998077564,None,152.2266610000006,152.2266610000006,152.2266610000006,152.2266610000006,152.2266610000006,152.2266610000006,152.2266610000006,152.2266610000006,152.2266610000006,152.2266610000006,,005,P020,2025_May_06_1716,ConditionRich,2021.2.3,59.938670752606015,
123.75,124.0,41,0.0,Stimuli/Blank.png,0,0,0.0,0,53,53,53,,,,,,,,,,,,,123.77386789999582,0.023867899995821062,None,155.9800125000038,155.9800125000038,155.9800125000038,155.9800125000038,155.9800125000038,155.9800125000038,155.9800125000038,155.9800125000038,155.9800125000038,155.9800125000038,,005,P020,2025_May_06_1716,ConditionRich,2021.2.3,59.938670752606015,
124.0,127.75,17,0.75,Stimuli/P020/sun_bltxkcclrpweopkl.jpg,0,0,0.0,0,54,54,54,,,,,,,,,,,,,124.00770599999669,0.007705999996687751,None,156.2135358000014,156.2135358000014,156.2135358000014,156.2135358000014,156.2135358000014,156.2135358000014,156.2135358000014,156.2135358000014,156.2135358000014,156.2135358000014,,005,P020,2025_May_06_1716,ConditionRich,2021.2.3,59.938670752606015,
127.75,128.0,41,0.0,Stimuli/Blank.png,0,0,0.0,0,55,55,55,,,,,,,,,,,,,127.76144499999646,0.011444999996456318,None,159.9668640000018,159.9668640000018,159.9668640000018,159.9668640000018,159.9668640000018,159.9668640000018,159.9668640000018,159.9668640000018,159.9668640000018,159.9668640000018,,005,P020,2025_May_06_1716,ConditionRich,2021.2.3,59.938670752606015,
128.0,131.75,8,0.75,Stimuli/P020/sun_avbzvunekksfggon.jpg,0,0,0.0,0,56,56,56,,,,,,,,,,,,,128.01141130000178,0.011411300001782365,None,160.2170649000036,160.2170649000036,160.2170649000036,160.2170649000036,160.2170649000036,160.2170649000036,160.2170649000036,160.2170649000036,160.2170649000036,160.2170649000036,,005,P020,2025_May_06_1716,ConditionRich,2021.2.3,59.938670752606015,
131.75,132.0,41,0.0,Stimuli/Blank.png,0,0,0.0,0,57,57,57,,,,,,,,,,,,,131.7664483999979,0.016448399997898377,None,163.98708289999922,163.98708289999922,163.98708289999922,163.98708289999922,163.98708289999922,163.98708289999922,163.98708289999922,163.98708289999922,163.98708289999922,163.98708289999922,,005,P020,2025_May_06_1716,ConditionRich,2021.2.3,59.938670752606015,
132.0,135.75,22,0.75,Stimuli/P020/things_bead_10s.jpg,0,0,0.0,0,58,58,58,,,,,,,,,,,,,132.01451960000122,0.014519600001221988,None,164.2372927000033,164.2372927000033,164.2372927000033,164.2372927000033,164.2372927000033,164.2372927000033,164.2372927000033,164.2372927000033,164.2372927000033,164.2372927000033,,005,P020,2025_May_06_1716,ConditionRich,2021.2.3,59.938670752606015,
135.75,136.0,41,0.0,Stimuli/Blank.png,0,0,0.0,0,59,59,59,,,,,,,,,,,,,135.7685386000012,0.018538600001193117,None,167.9739191999979,167.9739191999979,167.9739191999979,167.9739191999979,167.9739191999979,167.9739191999979,167.9739191999979,167.9739191999979,167.9739191999979,167.9739191999979,,005,P020,2025_May_06_1716,ConditionRich,2021.2.3,59.938670752606015,
136.0,139.75,31,0.75,Stimuli/P020/things_fudge_10s.jpg,0,0,0.0,0,60,60,60,,,,,,,,,,,,,136.0023069999952,0.0023069999951985665,None,168.20752679999714,168.20752679999714,168.20752679999714,168.20752679999714,168.20752679999714,168.20752679999714,168.20752679999714,168.20752679999714,168.20752679999714,168.20752679999714,,005,P020,2025_May_06_1716,ConditionRich,2021.2.3,59.938670752606015,
139.75,140.0,41,0.0,Stimuli/Blank.png,0,0,0.0,0,61,61,61,,,,,,,,,,,,,139.7568975999966,0.0068975999965914525,None,171.97748899999715,171.97748899999715,171.97748899999715,171.97748899999715,171.97748899999715,171.97748899999715,171.97748899999715,171.97748899999715,171.97748899999715,171.97748899999715,,005,P020,2025_May_06_1716,ConditionRich,2021.2.3,59.938670752606015,
140.0,143.75,32,0.75,Stimuli/P020/things_girl_10s.jpg,0,0,0.0,0,62,62,62,,,,,,,,,,,,,140.022527000001,0.022527000000991393,None,172.2276920000004,172.2276920000004,172.2276920000004,172.2276920000004,172.2276920000004,172.2276920000004,172.2276920000004,172.2276920000004,172.2276920000004,172.2276920000004,,005,P020,2025_May_06_1716,ConditionRich,2021.2.3,59.938670752606015,
143.75,144.0,41,0.0,Stimuli/Blank.png,0,0,0.0,0,63,63,63,,,,,,,,,,,,,143.75918529999763,0.009185299997625407,None,175.96443059999729,175.96443059999729,175.96443059999729,175.96443059999729,175.96443059999729,175.96443059999729,175.96443059999729,175.96443059999729,175.96443059999729,175.96443059999729,,005,P020,2025_May_06_1716,ConditionRich,2021.2.3,59.938670752606015,
144.0,147.75,15,0.75,Stimuli/P020/sun_bkubdnohuakmwcaj.jpg,0,0,0.0,0,64,64,64,,,,,,,,,,,,,144.00906669999677,0.009066699996765237,None,176.23125609999988,176.23125609999988,176.23125609999988,176.23125609999988,176.23125609999988,176.23125609999988,176.23125609999988,176.23125609999988,176.23125609999988,176.23125609999988,,005,P020,2025_May_06_1716,ConditionRich,2021.2.3,59.938670752606015,
147.75,148.0,41,0.0,Stimuli/Blank.png,0,0,0.0,0,65,65,65,,,,,,,,,,,,,147.78001249999943,0.030012499999429565,None,179.98458129999926,179.98458129999926,179.98458129999926,179.98458129999926,179.98458129999926,179.98458129999926,179.98458129999926,179.98458129999926,179.98458129999926,179.98458129999926,,005,P020,2025_May_06_1716,ConditionRich,2021.2.3,59.938670752606015,
148.0,151.75,37,0.75,Stimuli/P020/things_toaster_10s.jpg,0,0,0.0,0,66,66,66,,,,,,,,,,,,,148.0121280999956,0.012128099995607045,None,180.21811329999764,180.21811329999764,180.21811329999764,180.21811329999764,180.21811329999764,180.21811329999764,180.21811329999764,180.21811329999764,180.21811329999764,180.21811329999764,,005,P020,2025_May_06_1716,ConditionRich,2021.2.3,59.938670752606015,
151.75,152.0,41,0.0,Stimuli/Blank.png,0,0,0.0,0,67,67,67,,,,,,,,,,,,,151.7661905999994,0.016190599999390543,None,183.97142819999863,183.97142819999863,183.97142819999863,183.97142819999863,183.97142819999863,183.97142819999863,183.97142819999863,183.97142819999863,183.97142819999863,183.97142819999863,,005,P020,2025_May_06_1716,ConditionRich,2021.2.3,59.938670752606015,
152.0,155.75,9,0.75,Stimuli/P020/sun_bbfmuujfvpiaqdww.jpg,0,0,0.0,0,68,68,68,,,,,,,,,,,,,152.00182109999878,0.0018210999987786636,None,184.22166840000136,184.22166840000136,184.22166840000136,184.22166840000136,184.22166840000136,184.22166840000136,184.22166840000136,184.22166840000136,184.22166840000136,184.22166840000136,,005,P020,2025_May_06_1716,ConditionRich,2021.2.3,59.938670752606015,
155.75,156.0,41,0.0,Stimuli/Blank.png,0,0,0.0,0,69,69,69,,,,,,,,,,,,,155.7719666999983,0.02196669999830192,None,187.99165350000112,187.99165350000112,187.99165350000112,187.99165350000112,187.99165350000112,187.99165350000112,187.99165350000112,187.99165350000112,187.99165350000112,187.99165350000112,,005,P020,2025_May_06_1716,ConditionRich,2021.2.3,59.938670752606015,
156.0,159.75,2,0.75,Stimuli/P020/sun_ajhvfwzgpfovdgid.jpg,0,0,0.0,0,70,70,70,,,,,,,,,,,,,156.01964869999938,0.01964869999937946,None,188.241878300003,188.241878300003,188.241878300003,188.241878300003,188.241878300003,188.241878300003,188.241878300003,188.241878300003,188.241878300003,188.241878300003,,005,P020,2025_May_06_1716,ConditionRich,2021.2.3,59.938670752606015,
159.75,160.0,41,0.0,Stimuli/Blank.png,0,0,0.0,0,71,71,71,,,,,,,,,,,,,159.7726543999961,0.022654399996099528,None,191.97850830000243,191.97850830000243,191.97850830000243,191.97850830000243,191.97850830000243,191.97850830000243,191.97850830000243,191.97850830000243,191.97850830000243,191.97850830000243,,005,P020,2025_May_06_1716,ConditionRich,2021.2.3,59.938670752606015,
160.0,163.75,33,0.75,Stimuli/P020/things_insole_10s.jpg,0,0,0.0,0,72,72,72,,,,,,,,,,,,,160.00601789999928,0.0060178999992785975,None,192.21202040000207,192.21202040000207,192.21202040000207,192.21202040000207,192.21202040000207,192.21202040000207,192.21202040000207,192.21202040000207,192.21202040000207,192.21202040000207,,005,P020,2025_May_06_1716,ConditionRich,2021.2.3,59.938670752606015,
163.75,164.0,41,0.0,Stimuli/Blank.png,0,0,0.0,0,73,73,73,,,,,,,,,,,,,163.75975219999964,0.009752199999638833,None,195.96535440000298,195.96535440000298,195.96535440000298,195.96535440000298,195.96535440000298,195.96535440000298,195.96535440000298,195.96535440000298,195.96535440000298,195.96535440000298,,005,P020,2025_May_06_1716,ConditionRich,2021.2.3,59.938670752606015,
164.0,167.75,6,0.75,Stimuli/P020/sun_amppcthpabgulbwl.jpg,1,1,1.75,0,74,74,74,,,,,,,,,,,,,164.00942979999672,0.009429799996723887,1,196.2322839999979,196.2322839999979,196.2322839999979,196.2322839999979,196.2322839999979,196.2322839999979,197.1998504000003,197.95047380000324,196.2322839999979,196.2322839999979,1.4288150000065798,005,P020,2025_May_06_1716,ConditionRich,2021.2.3,59.938670752606015,
167.75,168.0,41,0.0,Stimuli/Blank.png,0,0,0.0,0,75,75,75,,,,,,,,,,,,,167.7823869999993,0.0323869999992894,None,200.00228739999875,200.00228739999875,200.00228739999875,200.00228739999875,200.00228739999875,200.00228739999875,200.00228739999875,200.00228739999875,200.00228739999875,200.00228739999875,,005,P020,2025_May_06_1716,ConditionRich,2021.2.3,59.938670752606015,
168.0,171.75,38,0.75,Stimuli/P020/things_turtle_10n.jpg,1,3,3.75,0,76,76,76,,,,,,,,,,,,,168.013815899998,0.013815899998007808,1,200.21913029999996,200.21913029999996,200.21913029999996,200.21913029999996,200.21913029999996,200.21913029999996,203.20514510000066,None,200.21913029999996,200.21913029999996,3.3789733999947202,005,P020,2025_May_06_1716,ConditionRich,2021.2.3,59.938670752606015,
171.75,172.0,41,0.0,Stimuli/Blank.png,0,0,0.0,0,77,77,77,,,,,,,,,,,,,171.75194660000125,0.001946600001247134,None,203.9724623000002,203.9724623000002,203.9724623000002,203.9724623000002,203.9724623000002,203.9724623000002,203.9724623000002,203.9724623000002,203.9724623000002,203.9724623000002,,005,P020,2025_May_06_1716,ConditionRich,2021.2.3,59.938670752606015,
172.0,175.75,24,0.75,Stimuli/P020/things_bulletin_board_10s.jpg,0,0,0.0,0,78,78,78,,,,,,,,,,,,,172.01738729999488,0.017387299994879868,None,204.23939029999747,204.23939029999747,204.23939029999747,204.23939029999747,204.23939029999747,204.23939029999747,204.23939029999747,204.23939029999747,204.23939029999747,204.23939029999747,,005,P020,2025_May_06_1716,ConditionRich,2021.2.3,59.938670752606015,
175.75,176.0,41,0.0,Stimuli/Blank.png,0,0,0.0,0,79,79,79,,,,,,,,,,,,,175.77194330000202,0.021943300002021715,None,207.99269449999701,207.99269449999701,207.99269449999701,207.99269449999701,207.99269449999701,207.99269449999701,207.99269449999701,207.99269449999701,207.99269449999701,207.99269449999701,,005,P020,2025_May_06_1716,ConditionRich,2021.2.3,59.938670752606015,
176.0,179.75,12,0.75,Stimuli/P020/sun_bgjrtiivbwugxhxp.jpg,0,0,0.0,0,80,80,80,,,,,,,,,,,,,176.02293479999935,0.022934799999347888,None,208.24290140000085,208.24290140000085,208.24290140000085,208.24290140000085,208.24290140000085,208.24290140000085,208.24290140000085,208.24290140000085,208.24290140000085,208.24290140000085,,005,P020,2025_May_06_1716,ConditionRich,2021.2.3,59.938670752606015,
179.75,180.0,41,0.0,Stimuli/Blank.png,0,0,0.0,0,81,81,81,,,,,,,,,,,,,179.77370189999783,0.023701899997831788,None,211.9795796000035,211.9795796000035,211.9795796000035,211.9795796000035,211.9795796000035,211.9795796000035,211.9795796000035,211.9795796000035,211.9795796000035,211.9795796000035,,005,P020,2025_May_06_1716,ConditionRich,2021.2.3,59.938670752606015,
180.0,196.0,0,0.0,Stimuli/Blank.png,1,12,12.75,0,82,82,82,,,,,,,,,,,,,180.0073451999997,0.0073451999996905215,1,212.2131081999978,212.2131081999978,212.2131081999978,212.2131081999978,212.2131081999978,212.2131081999978,224.19039670000348,224.9410685000039,212.2131081999978,212.2131081999978,12.482108500000322,005,P020,2025_May_06_1716,ConditionRich,2021.2.3,59.938670752606015,
196.0,199.75,9,0.75,Stimuli/P020/sun_bbfmuujfvpiaqdww.jpg,0,0,0.0,0,83,83,83,,,,,,,,,,,,,196.0063044999988,0.006304499998805113,None,228.22726079999848,228.22726079999848,228.22726079999848,228.22726079999848,228.22726079999848,228.22726079999848,228.22726079999848,228.22726079999848,228.22726079999848,228.22726079999848,,005,P020,2025_May_06_1716,ConditionRich,2021.2.3,59.938670752606015,
199.75,200.0,41,0.0,Stimuli/Blank.png,0,0,0.0,0,84,84,84,,,,,,,,,,,,,199.77719789999537,0.0271978999953717,None,231.99726129999908,231.99726129999908,231.99726129999908,231.99726129999908,231.99726129999908,231.99726129999908,231.99726129999908,231.99726129999908,231.99726129999908,231.99726129999908,,005,P020,2025_May_06_1716,ConditionRich,2021.2.3,59.938670752606015,
200.0,203.75,18,0.75,Stimuli/P020/sun_bodjbrgwzlshgypq.jpg,0,0,0.0,0,85,85,85,,,,,,,,,,,,,200.0269511000006,0.026951100000587758,None,232.24748170000385,232.24748170000385,232.24748170000385,232.24748170000385,232.24748170000385,232.24748170000385,232.24748170000385,232.24748170000385,232.24748170000385,232.24748170000385,,005,P020,2025_May_06_1716,ConditionRich,2021.2.3,59.938670752606015,
203.75,204.0,41,0.0,Stimuli/Blank.png,0,0,0.0,0,86,86,86,,,,,,,,,,,,,203.77894039999956,0.028940399999555666,None,235.98410339999828,235.98410339999828,235.98410339999828,235.98410339999828,235.98410339999828,235.98410339999828,235.98410339999828,235.98410339999828,235.98410339999828,235.98410339999828,,005,P020,2025_May_06_1716,ConditionRich,2021.2.3,59.938670752606015,
204.0,207.75,33,0.75,Stimuli/P020/things_insole_10s.jpg,0,0,0.0,0,87,87,87,,,,,,,,,,,,,204.01219339999807,0.012193399998068344,None,236.21765269999742,236.21765269999742,236.21765269999742,236.21765269999742,236.21765269999742,236.21765269999742,236.21765269999742,236.21765269999742,236.21765269999742,236.21765269999742,,005,P020,2025_May_06_1716,ConditionRich,2021.2.3,59.938670752606015,
207.75,208.0,41,0.0,Stimuli/Blank.png,0,0,0.0,0,88,88,88,,,,,,,,,,,,,207.76867949999723,0.018679499997233506,None,239.98769020000327,239.98769020000327,239.98769020000327,239.98769020000327,239.98769020000327,239.98769020000327,239.98769020000327,239.98769020000327,239.98769020000327,239.98769020000327,,005,P020,2025_May_06_1716,ConditionRich,2021.2.3,59.938670752606015,
208.0,211.75,37,0.75,Stimuli/P020/things_toaster_10s.jpg,0,0,0.0,0,89,89,89,,,,,,,,,,,,,208.01785329999984,0.01785329999984242,None,240.23788159999822,240.23788159999822,240.23788159999822,240.23788159999822,240.23788159999822,240.23788159999822,240.23788159999822,240.23788159999822,240.23788159999822,240.23788159999822,,005,P020,2025_May_06_1716,ConditionRich,2021.2.3,59.938670752606015,
211.75,212.0,41,0.0,Stimuli/Blank.png,0,0,0.0,0,90,90,90,,,,,,,,,,,,,211.76906210000016,0.019062100000155624,None,243.97460819999833,243.97460819999833,243.97460819999833,243.97460819999833,243.97460819999833,243.97460819999833,243.97460819999833,243.97460819999833,243.97460819999833,243.97460819999833,,005,P020,2025_May_06_1716,ConditionRich,2021.2.3,59.938670752606015,
212.0,215.75,34,0.75,Stimuli/P020/things_man_10s.jpg,1,3,3.75,0,91,91,91,,,,,,,,,,,,,212.0036076999968,0.00360769999679178,1,244.22472530000232,244.22472530000232,244.22472530000232,244.22472530000232,244.22472530000232,244.22472530000232,247.19404219999706,247.9447730000029,244.22472530000232,244.22472530000232,3.4163944000029005,005,P020,2025_May_06_1716,ConditionRich,2021.2.3,59.938670752606015,
215.75,216.0,41,0.0,Stimuli/Blank.png,0,0,0.0,0,92,92,92,,,,,,,,,,,,,215.77286689999892,0.02286689999891678,None,247.9780647000007,247.9780647000007,247.9780647000007,247.9780647000007,247.9780647000007,247.9780647000007,247.9780647000007,247.9780647000007,247.9780647000007,247.9780647000007,,005,P020,2025_May_06_1716,ConditionRich,2021.2.3,59.938670752606015,
216.0,219.75,17,0.75,Stimuli/P020/sun_bltxkcclrpweopkl.jpg,0,0,0.0,0,93,93,93,,,,,,,,,,,,,216.00649949999934,0.006499499999335967,None,248.22826160000113,248.22826160000113,248.22826160000113,248.22826160000113,248.22826160000113,248.22826160000113,248.22826160000113,248.22826160000113,248.22826160000113,248.22826160000113,,005,P020,2025_May_06_1716,ConditionRich,2021.2.3,59.938670752606015,
219.75,220.0,41,0.0,Stimuli/Blank.png,0,0,0.0,0,94,94,94,,,,,,,,,,,,,219.7762289999955,0.026228999995510094,None,251.9816267999995,251.9816267999995,251.9816267999995,251.9816267999995,251.9816267999995,251.9816267999995,251.9816267999995,251.9816267999995,251.9816267999995,251.9816267999995,,005,P020,2025_May_06_1716,ConditionRich,2021.2.3,59.938670752606015,
220.0,223.75,36,0.75,Stimuli/P020/things_sunroof_10s.jpg,0,0,0.0,0,95,95,95,,,,,,,,,,,,,220.01065709999966,0.010657099999662023,None,252.2318335000018,252.2318335000018,252.2318335000018,252.2318335000018,252.2318335000018,252.2318335000018,252.2318335000018,252.2318335000018,252.2318335000018,252.2318335000018,,005,P020,2025_May_06_1716,ConditionRich,2021.2.3,59.938670752606015,
223.75,224.0,41,0.0,Stimuli/Blank.png,0,0,0.0,0,96,96,96,,,,,,,,,,,,,223.77928239999892,0.029282399998919573,None,255.9852514000013,255.9852514000013,255.9852514000013,255.9852514000013,255.9852514000013,255.9852514000013,255.9852514000013,255.9852514000013,255.9852514000013,255.9852514000013,,005,P020,2025_May_06_1716,ConditionRich,2021.2.3,59.938670752606015,
224.0,227.75,13,0.75,Stimuli/P020/sun_bhzwrbdycbchqesq.jpg,0,0,0.0,0,97,97,97,,,,,,,,,,,,,224.0127403000006,0.012740300000587013,None,256.2186900000015,256.2186900000015,256.2186900000015,256.2186900000015,256.2186900000015,256.2186900000015,256.2186900000015,256.2186900000015,256.2186900000015,256.2186900000015,,005,P020,2025_May_06_1716,ConditionRich,2021.2.3,59.938670752606015,
227.75,228.0,41,0.0,Stimuli/Blank.png,0,0,0.0,0,98,98,98,,,,,,,,,,,,,227.74924179999653,-0.0007582000034744851,None,259.9553939999969,259.9553939999969,259.9553939999969,259.9553939999969,259.9553939999969,259.9553939999969,259.9553939999969,259.9553939999969,259.9553939999969,259.9553939999969,,005,P020,2025_May_06_1716,ConditionRich,2021.2.3,59.938670752606015,
228.0,231.75,7,0.75,Stimuli/P020/sun_aqkbfuonyunmyqxb.jpg,0,0,0.0,0,99,99,99,,,,,,,,,,,,,228.00193719999515,0.001937199995154515,None,260.2222397000005,260.2222397000005,260.2222397000005,260.2222397000005,260.2222397000005,260.2222397000005,260.2222397000005,260.2222397000005,260.2222397000005,260.2222397000005,,005,P020,2025_May_06_1716,ConditionRich,2021.2.3,59.938670752606015,
231.75,232.0,41,0.0,Stimuli/Blank.png,0,0,0.0,0,100,100,100,,,,,,,,,,,,,231.76948089999496,0.019480899994960055,None,263.975615299998,263.975615299998,263.975615299998,263.975615299998,263.975615299998,263.975615299998,263.975615299998,263.975615299998,263.975615299998,263.975615299998,,005,P020,2025_May_06_1716,ConditionRich,2021.2.3,59.938670752606015,
232.0,235.75,24,0.75,Stimuli/P020/things_bulletin_board_10s.jpg,0,0,0.0,0,101,101,101,,,,,,,,,,,,,232.00330859999667,0.0033085999966715463,None,264.2091053999975,264.2091053999975,264.2091053999975,264.2091053999975,264.2091053999975,264.2091053999975,264.2091053999975,264.2091053999975,264.2091053999975,264.2091053999975,,005,P020,2025_May_06_1716,ConditionRich,2021.2.3,59.938670752606015,
235.75,236.0,41,0.0,Stimuli/Blank.png,0,0,0.0,0,102,102,102,,,,,,,,,,,,,235.75768999999855,0.007689999998547137,None,267.9624191000039,267.9624191000039,267.9624191000039,267.9624191000039,267.9624191000039,267.9624191000039,267.9624191000039,267.9624191000039,267.9624191000039,267.9624191000039,,005,P020,2025_May_06_1716,ConditionRich,2021.2.3,59.938670752606015,
236.0,239.75,39,0.75,Stimuli/P020/things_wire_10s.jpg,0,0,0.0,0,103,103,103,,,,,,,,,,,,,236.00725450000027,0.007254500000271946,None,268.2293267999994,268.2293267999994,268.2293267999994,268.2293267999994,268.2293267999994,268.2293267999994,268.2293267999994,268.2293267999994,268.2293267999994,268.2293267999994,,005,P020,2025_May_06_1716,ConditionRich,2021.2.3,59.938670752606015,
239.75,240.0,41,0.0,Stimuli/Blank.png,0,0,0.0,0,104,104,104,,,,,,,,,,,,,239.77801429999818,0.028014299998176284,None,271.99932940000144,271.99932940000144,271.99932940000144,271.99932940000144,271.99932940000144,271.99932940000144,271.99932940000144,271.99932940000144,271.99932940000144,271.99932940000144,,005,P020,2025_May_06_1716,ConditionRich,2021.2.3,59.938670752606015,
240.0,243.75,3,0.75,Stimuli/P020/sun_aknrkswonrogcooi.jpg,1,3,3.75,0,105,105,105,,,,,,,,,,,,,240.02902319999703,0.029023199997027405,1,272.24953390000155,272.24953390000155,272.24953390000155,272.24953390000155,272.24953390000155,272.24953390000155,275.2188327999975,None,272.24953390000155,272.24953390000155,3.4417616999999154,005,P020,2025_May_06_1716,ConditionRich,2021.2.3,59.938670752606015,
243.75,244.0,41,0.0,Stimuli/Blank.png,0,0,0.0,0,106,106,106,,,,,,,,,,,,,243.76431189999857,0.014311899998574518,None,275.96950690000085,275.96950690000085,275.96950690000085,275.96950690000085,275.96950690000085,275.96950690000085,275.96950690000085,275.96950690000085,275.96950690000085,275.96950690000085,,005,P020,2025_May_06_1716,ConditionRich,2021.2.3,59.938670752606015,
244.0,247.75,31,0.75,Stimuli/P020/things_fudge_10s.jpg,1,2,2.75,0,107,107,107,,,,,,,,,,,,,244.01358719999553,0.013587199995527044,1,276.2197268000018,276.2197268000018,276.2197268000018,276.2197268000018,276.2197268000018,276.2197268000018,278.2049208000026,278.95545539999875,276.2197268000018,276.2197268000018,2.466529099998297,005,P020,2025_May_06_1716,ConditionRich,2021.2.3,59.938670752606015,
247.75,248.0,41,0.0,Stimuli/Blank.png,0,0,0.0,0,108,108,108,,,,,,,,,,,,,247.75038559999666,0.00038559999666176736,None,279.9564334000024,279.9564334000024,279.9564334000024,279.9564334000024,279.9564334000024,279.9564334000024,279.9564334000024,279.9564334000024,279.9564334000024,279.9564334000024,,005,P020,2025_May_06_1716,ConditionRich,2021.2.3,59.938670752606015,
248.0,251.75,29,0.75,Stimuli/P020/things_flamingo_10s.jpg,0,0,0.0,0,109,109,109,,,,,,,,,,,,,248.00362840000162,0.003628400001616683,None,280.22329329999775,280.22329329999775,280.22329329999775,280.22329329999775,280.22329329999775,280.22329329999775,280.22329329999775,280.22329329999775,280.22329329999775,280.22329329999775,,005,P020,2025_May_06_1716,ConditionRich,2021.2.3,59.938670752606015,
251.75,252.0,41,0.0,Stimuli/Blank.png,0,0,0.0,0,110,110,110,,,,,,,,,,,,,251.77054379999754,0.02054379999754019,None,283.97665250000136,283.97665250000136,283.97665250000136,283.97665250000136,283.97665250000136,283.97665250000136,283.97665250000136,283.97665250000136,283.97665250000136,283.97665250000136,,005,P020,2025_May_06_1716,ConditionRich,2021.2.3,59.938670752606015,
252.0,255.75,10,0.75,Stimuli/P020/sun_bblqhrudkospnbbv.jpg,1,0,0.75,0,111,111,111,,,,,,,,,,,,,252.005049899999,0.0050498999989940785,1,284.2268164999987,284.2268164999987,284.2268164999987,284.2268164999987,284.2268164999987,284.2268164999987,284.2268164999987,284.94414600000164,284.2268164999987,284.2268164999987,0.41244929999811575,005,P020,2025_May_06_1716,ConditionRich,2021.2.3,59.938670752606015,
255.75,256.0,41,0.0,Stimuli/Blank.png,0,0,0.0,0,112,112,112,,,,,,,,,,,,,255.77414000000135,0.024140000001352746,None,287.98012980000203,287.98012980000203,287.98012980000203,287.98012980000203,287.98012980000203,287.98012980000203,287.98012980000203,287.98012980000203,287.98012980000203,287.98012980000203,,005,P020,2025_May_06_1716,ConditionRich,2021.2.3,59.938670752606015,
256.0,259.75,14,0.75,Stimuli/P020/sun_birvagufpcschyrr.jpg,0,0,0.0,0,113,113,113,,,,,,,,,,,,,256.00770049999846,0.007700499998463783,None,288.21367750000354,288.21367750000354,288.21367750000354,288.21367750000354,288.21367750000354,288.21367750000354,288.21367750000354,288.21367750000354,288.21367750000354,288.21367750000354,,005,P020,2025_May_06_1716,ConditionRich,2021.2.3,59.938670752606015,
259.75,260.0,41,0.0,Stimuli/Blank.png,0,0,0.0,0,114,114,114,,,,,,,,,,,,,259.76203109999915,0.012031099999148864,None,291.96707869999955,291.96707869999955,291.96707869999955,291.96707869999955,291.96707869999955,291.96707869999955,291.96707869999955,291.96707869999955,291.96707869999955,291.96707869999955,,005,P020,2025_May_06_1716,ConditionRich,2021.2.3,59.938670752606015,
260.0,263.75,22,0.75,Stimuli/P020/things_bead_10s.jpg,0,0,0.0,0,115,115,115,,,,,,,,,,,,,260.01390869999886,0.013908699998864904,None,292.23389920000045,292.23389920000045,292.23389920000045,292.23389920000045,292.23389920000045,292.23389920000045,292.23389920000045,292.23389920000045,292.23389920000045,292.23389920000045,,005,P020,2025_May_06_1716,ConditionRich,2021.2.3,59.938670752606015,
263.75,264.0,41,0.0,Stimuli/Blank.png,0,0,0.0,0,116,116,116,,,,,,,,,,,,,263.7654444,0.015444399999978486,None,295.97054180000123,295.97054180000123,295.97054180000123,295.97054180000123,295.97054180000123,295.97054180000123,295.97054180000123,295.97054180000123,295.97054180000123,295.97054180000123,,005,P020,2025_May_06_1716,ConditionRich,2021.2.3,59.938670752606015,
264.0,267.75,38,0.75,Stimuli/P020/things_turtle_10n.jpg,1,0,0.75,0,117,117,117,,,,,,,,,,,,,264.01604529999895,0.016045299998950213,1,296.2374459999992,296.2374459999992,296.2374459999992,296.2374459999992,296.2374459999992,296.2374459999992,296.2374459999992,296.9547872000039,296.2374459999992,296.2374459999992,0.706098299997393,005,P020,2025_May_06_1716,ConditionRich,2021.2.3,59.938670752606015,
267.75,268.0,41,0.0,Stimuli/Blank.png,0,0,0.0,0,118,118,118,,,,,,,,,,,,,267.7695031999974,0.019503199997416232,None,299.97408690000157,299.97408690000157,299.97408690000157,299.97408690000157,299.97408690000157,299.97408690000157,299.97408690000157,299.97408690000157,299.97408690000157,299.97408690000157,,005,P020,2025_May_06_1716,ConditionRich,2021.2.3,59.938670752606015,
268.0,271.75,20,0.75,Stimuli/P020/sun_dlnwonqxagdvtlta.jpg,0,0,0.0,0,119,119,119,,,,,,,,,,,,,268.00245249999716,0.0024524999971617945,None,300.2243171000009,300.2243171000009,300.2243171000009,300.2243171000009,300.2243171000009,300.2243171000009,300.2243171000009,300.2243171000009,300.2243171000009,300.2243171000009,,005,P020,2025_May_06_1716,ConditionRich,2021.2.3,59.938670752606015,
271.75,272.0,41,0.0,Stimuli/Blank.png,0,0,0.0,0,120,120,120,,,,,,,,,,,,,271.7732462999993,0.02324629999930039,None,303.97763470000064,303.97763470000064,303.97763470000064,303.97763470000064,303.97763470000064,303.97763470000064,303.97763470000064,303.97763470000064,303.97763470000064,303.97763470000064,,005,P020,2025_May_06_1716,ConditionRich,2021.2.3,59.938670752606015,
272.0,275.75,19,0.75,Stimuli/P020/sun_byssdezaaqnthppd.jpg,0,0,0.0,0,121,121,121,,,,,,,,,,,,,272.00519489999715,0.00519489999715006,None,304.22786610000185,304.22786610000185,304.22786610000185,304.22786610000185,304.22786610000185,304.22786610000185,304.22786610000185,304.22786610000185,304.22786610000185,304.22786610000185,,005,P020,2025_May_06_1716,ConditionRich,2021.2.3,59.938670752606015,
275.75,276.0,41,0.0,Stimuli/Blank.png,0,0,0.0,0,122,122,122,,,,,,,,,,,,,275.775040499997,0.025040499996975996,None,307.98113960000046,307.98113960000046,307.98113960000046,307.98113960000046,307.98113960000046,307.98113960000046,307.98113960000046,307.98113960000046,307.98113960000046,307.98113960000046,,005,P020,2025_May_06_1716,ConditionRich,2021.2.3,59.938670752606015,
276.0,292.0,0,0.0,Stimuli/Blank.png,1,12,12.75,0,123,123,123,,,,,,,,,,,,,276.009197899999,0.009197899998980574,1,308.2147756999984,308.2147756999984,308.2147756999984,308.2147756999984,308.2147756999984,308.2147756999984,320.1919992000039,320.94263219999993,308.2147756999984,308.2147756999984,12.467453899997054,005,P020,2025_May_06_1716,ConditionRich,2021.2.3,59.938670752606015,
292.0,295.75,15,0.75,Stimuli/P020/sun_bkubdnohuakmwcaj.jpg,0,0,0.0,0,124,124,124,,,,,,,,,,,,,292.00747359999514,0.007473599995137192,None,324.22887759999867,324.22887759999867,324.22887759999867,324.22887759999867,324.22887759999867,324.22887759999867,324.22887759999867,324.22887759999867,324.22887759999867,324.22887759999867,,005,P020,2025_May_06_1716,ConditionRich,2021.2.3,59.938670752606015,
295.75,296.0,41,0.0,Stimuli/Blank.png,0,0,0.0,0,125,125,125,,,,,,,,,,,,,295.7771483999968,0.027148399996804073,None,327.9830476999996,327.9830476999996,327.9830476999996,327.9830476999996,327.9830476999996,327.9830476999996,327.9830476999996,327.9830476999996,327.9830476999996,327.9830476999996,,005,P020,2025_May_06_1716,ConditionRich,2021.2.3,59.938670752606015,
296.0,299.75,27,0.75,Stimuli/P020/things_eel_10s.jpg,0,0,0.0,0,126,126,126,,,,,,,,,,,,,296.01284170000145,0.012841700001445133,None,328.23247249999986,328.23247249999986,328.23247249999986,328.23247249999986,328.23247249999986,328.23247249999986,328.23247249999986,328.23247249999986,328.23247249999986,328.23247249999986,,005,P020,2025_May_06_1716,ConditionRich,2021.2.3,59.938670752606015,
299.75,300.0,41,0.0,Stimuli/Blank.png,0,0,0.0,0,127,127,127,,,,,,,,,,,,,299.76356719999603,0.013567199996032286,None,331.9690582999974,331.9690582999974,331.9690582999974,331.9690582999974,331.9690582999974,331.9690582999974,331.9690582999974,331.9690582999974,331.9690582999974,331.9690582999974,,005,P020,2025_May_06_1716,ConditionRich,2021.2.3,59.938670752606015,
300.0,303.75,2,0.75,Stimuli/P020/sun_ajhvfwzgpfovdgid.jpg,0,0,0.0,0,128,128,128,,,,,,,,,,,,,300.01400089999515,0.014000899995153304,None,332.219291100002,332.219291100002,332.219291100002,332.219291100002,332.219291100002,332.219291100002,332.219291100002,332.219291100002,332.219291100002,332.219291100002,,005,P020,2025_May_06_1716,ConditionRich,2021.2.3,59.938670752606015,
303.75,304.0,41,0.0,Stimuli/Blank.png,0,0,0.0,0,129,129,129,,,,,,,,,,,,,303.7528014999989,0.0028014999988954514,None,335.97261669999716,335.97261669999716,335.97261669999716,335.97261669999716,335.97261669999716,335.97261669999716,335.97261669999716,335.97261669999716,335.97261669999716,335.97261669999716,,005,P020,2025_May_06_1716,ConditionRich,2021.2.3,59.938670752606015,
304.0,307.75,1,0.75,Stimuli/P020/sun_aaaidwecchadbake.jpg,1,2,2.75,0,130,130,130,,,,,,,,,,,,,304.017846499999,0.01784649999899557,None,336.2228260999982,336.2228260999982,336.2228260999982,336.2228260999982,336.2228260999982,336.2228260999982,338.2079204000038,338.95857329999853,336.2228260999982,336.2228260999982,,005,P020,2025_May_06_1716,ConditionRich,2021.2.3,59.938670752606015,
307.75,308.0,41,0.0,Stimuli/Blank.png,0,0,0.0,0,131,131,131,,,,,,,,,,,,,307.7538291000019,0.0038291000018944032,None,339.95945819999906,339.95945819999906,339.95945819999906,339.95945819999906,339.95945819999906,339.95945819999906,339.95945819999906,339.95945819999906,339.95945819999906,339.95945819999906,,005,P020,2025_May_06_1716,ConditionRich,2021.2.3,59.938670752606015,
308.0,311.75,5,0.75,Stimuli/P020/sun_amjqxnqvhovkotym.jpg,1,0,0.75,0,132,132,132,,,,,,,,,,,,,308.0038515999986,0.0038515999985975213,1,340.2096969999984,340.2096969999984,340.2096969999984,340.2096969999984,340.2096969999984,340.2096969999984,340.2096969999984,340.94367000000057,340.2096969999984,340.2096969999984,0.42760940000152914,005,P020,2025_May_06_1716,ConditionRich,2021.2.3,59.938670752606015,
311.75,312.0,41,0.0,Stimuli/Blank.png,0,0,0.0,0,133,133,133,,,,,,,,,,,,,311.756902000001,0.006902000000991393,None,343.9630087999976,343.9630087999976,343.9630087999976,343.9630087999976,343.9630087999976,343.9630087999976,343.9630087999976,343.9630087999976,343.9630087999976,343.9630087999976,,005,P020,2025_May_06_1716,ConditionRich,2021.2.3,59.938670752606015,
312.0,315.75,30,0.75,Stimuli/P020/things_flip_flop_10s.jpg,0,0,0.0,0,134,134,134,,,,,,,,,,,,,312.0077463999987,0.007746399998723064,None,344.21323649999977,344.21323649999977,344.21323649999977,344.21323649999977,344.21323649999977,344.21323649999977,344.21323649999977,344.21323649999977,344.21323649999977,344.21323649999977,,005,P020,2025_May_06_1716,ConditionRich,2021.2.3,59.938670752606015,
315.75,316.0,41,0.0,Stimuli/Blank.png,0,0,0.0,0,135,135,135,,,,,,,,,,,,,315.7604410999993,0.010441099999297876,None,347.9666178999978,347.9666178999978,347.9666178999978,347.9666178999978,347.9666178999978,347.9666178999978,347.9666178999978,347.9666178999978,347.9666178999978,347.9666178999978,,005,P020,2025_May_06_1716,ConditionRich,2021.2.3,59.938670752606015,
316.0,319.75,26,0.75,Stimuli/P020/things_earwig_10n.jpg,0,0,0.0,0,136,136,136,,,,,,,,,,,,,316.0116315999985,0.011631599998509046,None,348.21679140000197,348.21679140000197,348.21679140000197,348.21679140000197,348.21679140000197,348.21679140000197,348.21679140000197,348.21679140000197,348.21679140000197,348.21679140000197,,005,P020,2025_May_06_1716,ConditionRich,2021.2.3,59.938670752606015,
319.75,320.0,41,0.0,Stimuli/Blank.png,0,0,0.0,0,137,137,137,,,,,,,,,,,,,319.7643597999995,0.01435979999951087,None,351.9700995000021,351.9700995000021,351.9700995000021,351.9700995000021,351.9700995000021,351.9700995000021,351.9700995000021,351.9700995000021,351.9700995000021,351.9700995000021,,005,P020,2025_May_06_1716,ConditionRich,2021.2.3,59.938670752606015,
320.0,323.75,21,0.75,Stimuli/P020/things_anteater_10s.jpg,0,0,0.0,0,138,138,138,,,,,,,,,,,,,320.014348699995,0.014348699995025527,None,352.2203098000027,352.2203098000027,352.2203098000027,352.2203098000027,352.2203098000027,352.2203098000027,352.2203098000027,352.2203098000027,352.2203098000027,352.2203098000027,,005,P020,2025_May_06_1716,ConditionRich,2021.2.3,59.938670752606015,
323.75,324.0,41,0.0,Stimuli/Blank.png,0,0,0.0,0,139,139,139,,,,,,,,,,,,,323.7530995999987,0.0030995999986771494,None,355.9736436000021,355.9736436000021,355.9736436000021,355.9736436000021,355.9736436000021,355.9736436000021,355.9736436000021,355.9736436000021,355.9736436000021,355.9736436000021,,005,P020,2025_May_06_1716,ConditionRich,2021.2.3,59.938670752606015,
324.0,327.75,25,0.75,Stimuli/P020/things_chime_10s.jpg,0,0,0.0,0,140,140,140,,,,,,,,,,,,,324.0189438000016,0.018943800001579802,None,356.24054530000285,356.24054530000285,356.24054530000285,356.24054530000285,356.24054530000285,356.24054530000285,356.24054530000285,356.24054530000285,356.24054530000285,356.24054530000285,,005,P020,2025_May_06_1716,ConditionRich,2021.2.3,59.938670752606015,
327.75,328.0,41,0.0,Stimuli/Blank.png,0,0,0.0,0,141,141,141,,,,,,,,,,,,,327.7732283000005,0.023228300000482704,None,359.9939063999991,359.9939063999991,359.9939063999991,359.9939063999991,359.9939063999991,359.9939063999991,359.9939063999991,359.9939063999991,359.9939063999991,359.9939063999991,,005,P020,2025_May_06_1716,ConditionRich,2021.2.3,59.938670752606015,
328.0,331.75,32,0.75,Stimuli/P020/things_girl_10s.jpg,0,0,0.0,0,142,142,142,,,,,,,,,,,,,328.0245042999959,0.024504299995896872,None,360.244096800001,360.244096800001,360.244096800001,360.244096800001,360.244096800001,360.244096800001,360.244096800001,360.244096800001,360.244096800001,360.244096800001,,005,P020,2025_May_06_1716,ConditionRich,2021.2.3,59.938670752606015,
331.75,332.0,41,0.0,Stimuli/Blank.png,0,0,0.0,0,143,143,143,,,,,,,,,,,,,331.77474339999753,0.024743399997532833,None,363.98080669999763,363.98080669999763,363.98080669999763,363.98080669999763,363.98080669999763,363.98080669999763,363.98080669999763,363.98080669999763,363.98080669999763,363.98080669999763,,005,P020,2025_May_06_1716,ConditionRich,2021.2.3,59.938670752606015,
332.0,335.75,12,0.75,Stimuli/P020/sun_bgjrtiivbwugxhxp.jpg,0,0,0.0,0,144,144,144,,,,,,,,,,,,,332.00947109999834,0.009471099998336285,None,364.2309141000005,364.2309141000005,364.2309141000005,364.2309141000005,364.2309141000005,364.2309141000005,364.2309141000005,364.2309141000005,364.2309141000005,364.2309141000005,,005,P020,2025_May_06_1716,ConditionRich,2021.2.3,59.938670752606015,
335.75,336.0,41,0.0,Stimuli/Blank.png,0,0,0.0,0,145,145,145,,,,,,,,,,,,,335.77898979999736,0.028989799997361843,None,367.9842686999982,367.9842686999982,367.9842686999982,367.9842686999982,367.9842686999982,367.9842686999982,367.9842686999982,367.9842686999982,367.9842686999982,367.9842686999982,,005,P020,2025_May_06_1716,ConditionRich,2021.2.3,59.938670752606015,
336.0,339.75,8,0.75,Stimuli/P020/sun_avbzvunekksfggon.jpg,1,3,3.75,0,146,146,146,,,,,,,,,,,,,336.01248679999844,0.012486799998441711,1,368.2178131000037,368.2178131000037,368.2178131000037,368.2178131000037,368.2178131000037,368.2178131000037,371.20378419999906,None,368.2178131000037,368.2178131000037,3.5476856000022963,005,P020,2025_May_06_1716,ConditionRich,2021.2.3,59.938670752606015,
339.75,340.0,41,0.0,Stimuli/Blank.png,0,0,0.0,0,147,147,147,,,,,,,,,,,,,339.7492624000006,-0.0007375999994110316,None,371.95446359999914,371.95446359999914,371.95446359999914,371.95446359999914,371.95446359999914,371.95446359999914,371.95446359999914,371.95446359999914,371.95446359999914,371.95446359999914,,005,P020,2025_May_06_1716,ConditionRich,2021.2.3,59.938670752606015,
340.0,343.75,16,0.75,Stimuli/P020/sun_blfpbbfyzmewzplm.jpg,0,0,0.0,0,148,148,148,,,,,,,,,,,,,339.99931359999755,-0.0006864000024506822,None,372.20465530000365,372.20465530000365,372.20465530000365,372.20465530000365,372.20465530000365,372.20465530000365,372.20465530000365,372.20465530000365,372.20465530000365,372.20465530000365,,005,P020,2025_May_06_1716,ConditionRich,2021.2.3,59.938670752606015,
343.75,344.0,41,0.0,Stimuli/Blank.png,0,0,0.0,0,149,149,149,,,,,,,,,,,,,343.7535055999979,0.0035055999978794716,None,375.95801650000067,375.95801650000067,375.95801650000067,375.95801650000067,375.95801650000067,375.95801650000067,375.95801650000067,375.95801650000067,375.95801650000067,375.95801650000067,,005,P020,2025_May_06_1716,ConditionRich,2021.2.3,59.938670752606015,
344.0,347.75,11,0.75,Stimuli/P020/sun_bcbfjkoziukwmdkd.jpg,0,0,0.0,0,150,150,150,,,,,,,,,,,,,344.00272699999914,0.0027269999991403893,None,376.2082053999984,376.2082053999984,376.2082053999984,376.2082053999984,376.2082053999984,376.2082053999984,376.2082053999984,376.2082053999984,376.2082053999984,376.2082053999984,,005,P020,2025_May_06_1716,ConditionRich,2021.2.3,59.938670752606015,
347.75,348.0,41,0.0,Stimuli/Blank.png,0,0,0.0,0,151,151,151,,,,,,,,,,,,,347.7578145000007,0.007814500000677072,None,379.9782116999995,379.9782116999995,379.9782116999995,379.9782116999995,379.9782116999995,379.9782116999995,379.9782116999995,379.9782116999995,379.9782116999995,379.9782116999995,,005,P020,2025_May_06_1716,ConditionRich,2021.2.3,59.938670752606015,
348.0,351.75,23,0.75,Stimuli/P020/things_boy_10s.jpg,0,0,0.0,0,152,152,152,,,,,,,,,,,,,348.0234683999952,0.023468399995181244,None,380.2284445999976,380.2284445999976,380.2284445999976,380.2284445999976,380.2284445999976,380.2284445999976,380.2284445999976,380.2284445999976,380.2284445999976,380.2284445999976,,005,P020,2025_May_06_1716,ConditionRich,2021.2.3,59.938670752606015,
351.75,352.0,41,0.0,Stimuli/Blank.png,0,0,0.0,0,153,153,153,,,,,,,,,,,,,351.7604468999998,0.010446899999806192,None,383.96511140000075,383.96511140000075,383.96511140000075,383.96511140000075,383.96511140000075,383.96511140000075,383.96511140000075,383.96511140000075,383.96511140000075,383.96511140000075,,005,P020,2025_May_06_1716,ConditionRich,2021.2.3,59.938670752606015,
352.0,355.75,35,0.75,Stimuli/P020/things_pretzel_10s.jpg,0,0,0.0,0,154,154,154,,,,,,,,,,,,,352.0093915999969,0.009391599996888544,None,384.21530429999984,384.21530429999984,384.21530429999984,384.21530429999984,384.21530429999984,384.21530429999984,384.21530429999984,384.21530429999984,384.21530429999984,384.21530429999984,,005,P020,2025_May_06_1716,ConditionRich,2021.2.3,59.938670752606015,
355.75,356.0,41,0.0,Stimuli/Blank.png,0,0,0.0,0,155,155,155,,,,,,,,,,,,,355.7632009000008,0.013200900000811089,None,387.9686189999993,387.9686189999993,387.9686189999993,387.9686189999993,387.9686189999993,387.9686189999993,387.9686189999993,387.9686189999993,387.9686189999993,387.9686189999993,,005,P020,2025_May_06_1716,ConditionRich,2021.2.3,59.938670752606015,
356.0,359.75,6,0.75,Stimuli/P020/sun_amppcthpabgulbwl.jpg,1,3,3.75,0,156,156,156,,,,,,,,,,,,,356.0135706000001,0.013570600000093691,1,388.218872999998,388.218872999998,388.218872999998,388.218872999998,388.218872999998,388.218872999998,391.20486230000097,None,388.218872999998,388.218872999998,3.4356465000018943,005,P020,2025_May_06_1716,ConditionRich,2021.2.3,59.938670752606015,
359.75,360.0,41,0.0,Stimuli/Blank.png,0,0,0.0,0,157,157,157,,,,,,,,,,,,,359.75013509999553,0.00013509999553207308,None,391.95557279999775,391.95557279999775,391.95557279999775,391.95557279999775,391.95557279999775,391.95557279999775,391.95557279999775,391.95557279999775,391.95557279999775,391.95557279999775,,005,P020,2025_May_06_1716,ConditionRich,2021.2.3,59.938670752606015,
360.0,363.75,28,0.75,Stimuli/P020/things_face_10s.jpg,0,0,0.0,0,158,158,158,,,,,,,,,,,,,360.0002839000008,0.00028390000079525635,None,392.2223859000005,392.2223859000005,392.2223859000005,392.2223859000005,392.2223859000005,392.2223859000005,392.2223859000005,392.2223859000005,392.2223859000005,392.2223859000005,,005,P020,2025_May_06_1716,ConditionRich,2021.2.3,59.938670752606015,
363.75,364.0,41,0.0,Stimuli/Blank.png,0,0,0.0,0,159,159,159,,,,,,,,,,,,,363.77114319999964,0.021143199999642093,None,395.9757174999977,395.9757174999977,395.9757174999977,395.9757174999977,395.9757174999977,395.9757174999977,395.9757174999977,395.9757174999977,395.9757174999977,395.9757174999977,,005,P020,2025_May_06_1716,ConditionRich,2021.2.3,59.938670752606015,
364.0,367.75,40,0.75,Stimuli/P020/things_woman_10s.jpg,0,0,0.0,0,160,160,160,,,,,,,,,,,,,364.003303999998,0.003303999998024665,None,396.20922950000386,396.20922950000386,396.20922950000386,396.20922950000386,396.20922950000386,396.20922950000386,396.20922950000386,396.20922950000386,396.20922950000386,396.20922950000386,,005,P020,2025_May_06_1716,ConditionRich,2021.2.3,59.938670752606015,
367.75,368.0,41,0.0,Stimuli/Blank.png,0,0,0.0,0,161,161,161,,,,,,,,,,,,,367.7575824999949,0.007582499994896352,None,399.9625803000017,399.9625803000017,399.9625803000017,399.9625803000017,399.9625803000017,399.9625803000017,399.9625803000017,399.9625803000017,399.9625803000017,399.9625803000017,,005,P020,2025_May_06_1716,ConditionRich,2021.2.3,59.938670752606015,
368.0,371.75,4,0.75,Stimuli/P020/sun_amixpbnrxiulfsri.jpg,0,0,0.0,0,162,162,162,,,,,,,,,,,,,368.0082468999972,0.008246899997175205,None,400.2294976999983,400.2294976999983,400.2294976999983,400.2294976999983,400.2294976999983,400.2294976999983,400.2294976999983,400.2294976999983,400.2294976999983,400.2294976999983,,005,P020,2025_May_06_1716,ConditionRich,2021.2.3,59.938670752606015,
371.75,372.0,41,0.0,Stimuli/Blank.png,0,0,0.0,0,163,163,163,,,,,,,,,,,,,371.77792119999503,0.02792119999503484,None,403.98279699999694,403.98279699999694,403.98279699999694,403.98279699999694,403.98279699999694,403.98279699999694,403.98279699999694,403.98279699999694,403.98279699999694,403.98279699999694,,005,P020,2025_May_06_1716,ConditionRich,2021.2.3,59.938670752606015,
372.0,388.0,0,0.0,Stimuli/Blank.png,1,1,1.75,0,164,164,164,,,,,,,,,,,,,372.01037350000115,0.010373500001151115,1,404.21631960000377,404.21631960000377,404.21631960000377,404.21631960000377,404.21631960000377,404.21631960000377,405.20053590000316,405.951238200003,404.21631960000377,404.21631960000377,1.337346999993315,005,P020,2025_May_06_1716,ConditionRich,2021.2.3,59.938670752606015,
