eventStartTime,eventEndTime,eventCond,imSize,imFile,responseEvent,fixRespStart,fixRespEnd,Events.thisRepN,Events.thisTrialN,Events.thisN,Events.thisIndex,Instructions.started,Instructions.stopped,participantReadyResponse.keys,participantReadyResponse.rt,participantReadyResponse.started,participantReadyResponse.stopped,startWaitforTrigger,triggerResponse.keys,triggerResponse.rt,triggerResponse.started,triggerResponse.stopped,globalTimer,actualStartTime,startTimingDiff,participantResponse.keys,participantResponse.started,participantResponse.stopped,image.started,image.stopped,fixationOutside.started,fixationOutside.stopped,fixationResponse.started,fixationResponse.stopped,fixationInside.started,fixationInside.stopped,participantResponse.rt,session,participant,date,expName,psychopyVersion,frameRate,
,,,,,,,,,,,,10.779785500002617,None,1,8.059096800003317,10.779785500002617,None,,,,,,,,,,,,,,,,,,,,,009,P020,2025_May_06_1752,ConditionRich,2021.2.3,59.943090030510966,
,,,,,,,,,,,,,,,,,,18.845236599998316,5,14.250473799998872,18.858407599997008,None,,,,,,,,,,,,,,,,009,P020,2025_May_06_1752,ConditionRich,2021.2.3,59.943090030510966,
0.0,4.0,0,0.0,Stimuli/Blank.png,0,0.0,0.0,0,0,0,0,,,,,,,,,,,,33.12469440000132,0.04314259999955539,0.04314259999955539,None,33.188030600002094,None,33.188030600002094,None,33.188030600002094,None,33.188030600002094,33.188030600002094,33.188030600002094,None,,009,P020,2025_May_06_1752,ConditionRich,2021.2.3,59.943090030510966,
4.0,4.75,35,0.75,Stimuli/P020/things_pretzel_10s.jpg,0,0.0,0.0,0,1,1,1,,,,,,,,,,,,,4.019520400004694,0.01952040000469424,None,37.1584481999962,37.1584481999962,37.1584481999962,37.1584481999962,37.1584481999962,37.1584481999962,37.1584481999962,37.1584481999962,37.1584481999962,37.1584481999962,,009,P020,2025_May_06_1752,ConditionRich,2021.2.3,59.943090030510966,
4.75,8.0,41,0.0,Stimuli/Blank.png,1,0.25,1.0,0,2,2,2,,,,,,,,,,,,,4.752972000002046,0.0029720000020461157,1,37.892685200000415,37.892685200000415,37.892685200000415,37.892685200000415,37.892685200000415,37.892685200000415,38.12567029999627,38.87646189999941,37.892685200000415,37.892685200000415,0.5591050000002724,009,P020,2025_May_06_1752,ConditionRich,2021.2.3,59.943090030510966,
8.0,8.75,11,0.75,Stimuli/P020/sun_bcbfjkoziukwmdkd.jpg,0,0.0,0.0,0,3,3,3,,,,,,,,,,,,,8.006583300004422,0.006583300004422199,None,41.14502669999638,41.14502669999638,41.14502669999638,41.14502669999638,41.14502669999638,41.14502669999638,41.14502669999638,41.14502669999638,41.14502669999638,41.14502669999638,,009,P020,2025_May_06_1752,ConditionRich,2021.2.3,59.943090030510966,
8.75,12.0,41,0.0,Stimuli/Blank.png,0,0.0,0.0,0,4,4,4,,,,,,,,,,,,,8.758053300000029,0.008053300000028685,None,41.89569379999739,41.89569379999739,41.89569379999739,41.89569379999739,41.89569379999739,41.89569379999739,41.89569379999739,41.89569379999739,41.89569379999739,41.89569379999739,,009,P020,2025_May_06_1752,ConditionRich,2021.2.3,59.943090030510966,
12.0,12.75,23,0.75,Stimuli/P020/things_boy_10s.jpg,0,0.0,0.0,0,5,5,5,,,,,,,,,,,,,12.009408700003405,0.009408700003405102,None,45.165259100002004,45.165259100002004,45.165259100002004,45.165259100002004,45.165259100002004,45.165259100002004,45.165259100002004,45.165259100002004,45.165259100002004,45.165259100002004,,009,P020,2025_May_06_1752,ConditionRich,2021.2.3,59.943090030510966,
12.75,16.0,41,0.0,Stimuli/Blank.png,0,0.0,0.0,0,6,6,6,,,,,,,,,,,,,12.777016300002288,0.027016300002287608,None,45.91590539999743,45.91590539999743,45.91590539999743,45.91590539999743,45.91590539999743,45.91590539999743,45.91590539999743,45.91590539999743,45.91590539999743,45.91590539999743,,009,P020,2025_May_06_1752,ConditionRich,2021.2.3,59.943090030510966,
16.0,16.75,22,0.75,Stimuli/P020/things_bead_10s.jpg,0,0.0,0.0,0,7,7,7,,,,,,,,,,,,,16.01292739999917,0.01292739999917103,None,49.16882130000158,49.16882130000158,49.16882130000158,49.16882130000158,49.16882130000158,49.16882130000158,49.16882130000158,49.16882130000158,49.16882130000158,49.16882130000158,,009,P020,2025_May_06_1752,ConditionRich,2021.2.3,59.943090030510966,
16.75,20.0,41,0.0,Stimuli/Blank.png,0,0.0,0.0,0,8,8,8,,,,,,,,,,,,,16.781785600003786,0.031785600003786385,None,49.91947280000022,49.91947280000022,49.91947280000022,49.91947280000022,49.91947280000022,49.91947280000022,49.91947280000022,49.91947280000022,49.91947280000022,49.91947280000022,,009,P020,2025_May_06_1752,ConditionRich,2021.2.3,59.943090030510966,
20.0,20.75,34,0.75,Stimuli/P020/things_man_10s.jpg,0,0.0,0.0,0,9,9,9,,,,,,,,,,,,,20.00167870000587,0.0016787000058684498,None,53.15566750000289,53.15566750000289,53.15566750000289,53.15566750000289,53.15566750000289,53.15566750000289,53.15566750000289,53.15566750000289,53.15566750000289,53.15566750000289,,009,P020,2025_May_06_1752,ConditionRich,2021.2.3,59.943090030510966,
20.75,24.0,41,0.0,Stimuli/Blank.png,0,0.0,0.0,0,10,10,10,,,,,,,,,,,,,20.766934400002356,0.016934400002355687,None,53.906312699997216,53.906312699997216,53.906312699997216,53.906312699997216,53.906312699997216,53.906312699997216,53.906312699997216,53.906312699997216,53.906312699997216,53.906312699997216,,009,P020,2025_May_06_1752,ConditionRich,2021.2.3,59.943090030510966,
24.0,24.75,18,0.75,Stimuli/P020/sun_bodjbrgwzlshgypq.jpg,0,0.0,0.0,0,11,11,11,,,,,,,,,,,,,24.00420529999974,0.004205299999739509,None,57.15920029999688,57.15920029999688,57.15920029999688,57.15920029999688,57.15920029999688,57.15920029999688,57.15920029999688,57.15920029999688,57.15920029999688,57.15920029999688,,009,P020,2025_May_06_1752,ConditionRich,2021.2.3,59.943090030510966,
24.75,28.0,41,0.0,Stimuli/Blank.png,0,0.0,0.0,0,12,12,12,,,,,,,,,,,,,24.770684800001618,0.020684800001617987,None,57.9098720999973,57.9098720999973,57.9098720999973,57.9098720999973,57.9098720999973,57.9098720999973,57.9098720999973,57.9098720999973,57.9098720999973,57.9098720999973,,009,P020,2025_May_06_1752,ConditionRich,2021.2.3,59.943090030510966,
28.0,28.75,37,0.75,Stimuli/P020/things_toaster_10s.jpg,0,0.0,0.0,0,13,13,13,,,,,,,,,,,,,28.006936000005226,0.006936000005225651,None,61.146032199998444,61.146032199998444,61.146032199998444,61.146032199998444,61.146032199998444,61.146032199998444,61.146032199998444,61.146032199998444,61.146032199998444,61.146032199998444,,009,P020,2025_May_06_1752,ConditionRich,2021.2.3,59.943090030510966,
28.75,32.0,41,0.0,Stimuli/Blank.png,0,0.0,0.0,0,14,14,14,,,,,,,,,,,,,28.75813050000579,0.008130500005790964,None,61.89672630000132,61.89672630000132,61.89672630000132,61.89672630000132,61.89672630000132,61.89672630000132,61.89672630000132,61.89672630000132,61.89672630000132,61.89672630000132,,009,P020,2025_May_06_1752,ConditionRich,2021.2.3,59.943090030510966,
32.0,32.75,33,0.75,Stimuli/P020/things_insole_10s.jpg,0,0.0,0.0,0,15,15,15,,,,,,,,,,,,,32.011000900005456,0.01100090000545606,None,65.14959960000124,65.14959960000124,65.14959960000124,65.14959960000124,65.14959960000124,65.14959960000124,65.14959960000124,65.14959960000124,65.14959960000124,65.14959960000124,,009,P020,2025_May_06_1752,ConditionRich,2021.2.3,59.943090030510966,
32.75,36.0,41,0.0,Stimuli/Blank.png,0,0.0,0.0,0,16,16,16,,,,,,,,,,,,,32.76098510000156,0.010985100001562387,None,65.90026660000149,65.90026660000149,65.90026660000149,65.90026660000149,65.90026660000149,65.90026660000149,65.90026660000149,65.90026660000149,65.90026660000149,65.90026660000149,,009,P020,2025_May_06_1752,ConditionRich,2021.2.3,59.943090030510966,
36.0,36.75,16,0.75,Stimuli/P020/sun_blfpbbfyzmewzplm.jpg,0,0.0,0.0,0,17,17,17,,,,,,,,,,,,,36.014639400003944,0.014639400003943592,None,69.16984180000145,69.16984180000145,69.16984180000145,69.16984180000145,69.16984180000145,69.16984180000145,69.16984180000145,69.16984180000145,69.16984180000145,69.16984180000145,,009,P020,2025_May_06_1752,ConditionRich,2021.2.3,59.943090030510966,
36.75,40.0,41,0.0,Stimuli/Blank.png,0,0.0,0.0,0,18,18,18,,,,,,,,,,,,,36.78335530000186,0.03335530000185827,None,69.93718590000208,69.93718590000208,69.93718590000208,69.93718590000208,69.93718590000208,69.93718590000208,69.93718590000208,69.93718590000208,69.93718590000208,69.93718590000208,,009,P020,2025_May_06_1752,ConditionRich,2021.2.3,59.943090030510966,
40.0,40.75,30,0.75,Stimuli/P020/things_flip_flop_10s.jpg,0,0.0,0.0,0,19,19,19,,,,,,,,,,,,,40.01787090000289,0.017870900002890266,None,73.15668990000268,73.15668990000268,73.15668990000268,73.15668990000268,73.15668990000268,73.15668990000268,73.15668990000268,73.15668990000268,73.15668990000268,73.15668990000268,,009,P020,2025_May_06_1752,ConditionRich,2021.2.3,59.943090030510966,
40.75,44.0,41,0.0,Stimuli/Blank.png,1,1.25,2.0,0,20,20,20,,,,,,,,,,,,,40.75161470000603,0.0016147000060300343,1,73.89067459999933,73.89067459999933,73.89067459999933,73.89067459999933,73.89067459999933,73.89067459999933,75.12509580000187,75.87576070000068,73.89067459999933,73.89067459999933,1.7034325999993598,009,P020,2025_May_06_1752,ConditionRich,2021.2.3,59.943090030510966,
44.0,44.75,17,0.75,Stimuli/P020/sun_bltxkcclrpweopkl.jpg,0,0.0,0.0,0,21,21,21,,,,,,,,,,,,,44.00435339999967,0.004353399999672547,None,77.16026969999803,77.16026969999803,77.16026969999803,77.16026969999803,77.16026969999803,77.16026969999803,77.16026969999803,77.16026969999803,77.16026969999803,77.16026969999803,,009,P020,2025_May_06_1752,ConditionRich,2021.2.3,59.943090030510966,
44.75,48.0,41,0.0,Stimuli/Blank.png,0,0.0,0.0,0,22,22,22,,,,,,,,,,,,,44.77194579999923,0.021945799999230076,None,77.91090660000191,77.91090660000191,77.91090660000191,77.91090660000191,77.91090660000191,77.91090660000191,77.91090660000191,77.91090660000191,77.91090660000191,77.91090660000191,,009,P020,2025_May_06_1752,ConditionRich,2021.2.3,59.943090030510966,
48.0,48.75,8,0.75,Stimuli/P020/sun_avbzvunekksfggon.jpg,0,0.0,0.0,0,23,23,23,,,,,,,,,,,,,48.007943700002215,0.007943700002215337,None,81.14709459999722,81.14709459999722,81.14709459999722,81.14709459999722,81.14709459999722,81.14709459999722,81.14709459999722,81.14709459999722,81.14709459999722,81.14709459999722,,009,P020,2025_May_06_1752,ConditionRich,2021.2.3,59.943090030510966,
48.75,52.0,41,0.0,Stimuli/Blank.png,0,0.0,0.0,0,24,24,24,,,,,,,,,,,,,48.75923580000381,0.009235800003807526,None,81.8977675999995,81.8977675999995,81.8977675999995,81.8977675999995,81.8977675999995,81.8977675999995,81.8977675999995,81.8977675999995,81.8977675999995,81.8977675999995,,009,P020,2025_May_06_1752,ConditionRich,2021.2.3,59.943090030510966,
52.0,52.75,10,0.75,Stimuli/P020/sun_bblqhrudkospnbbv.jpg,0,0.0,0.0,0,25,25,25,,,,,,,,,,,,,52.01234380000096,0.012343800000962801,None,85.1673473999981,85.1673473999981,85.1673473999981,85.1673473999981,85.1673473999981,85.1673473999981,85.1673473999981,85.1673473999981,85.1673473999981,85.1673473999981,,009,P020,2025_May_06_1752,ConditionRich,2021.2.3,59.943090030510966,
52.75,56.0,41,0.0,Stimuli/Blank.png,0,0.0,0.0,0,26,26,26,,,,,,,,,,,,,52.78132750000077,0.03132750000077067,None,85.93468620000203,85.93468620000203,85.93468620000203,85.93468620000203,85.93468620000203,85.93468620000203,85.93468620000203,85.93468620000203,85.93468620000203,85.93468620000203,,009,P020,2025_May_06_1752,ConditionRich,2021.2.3,59.943090030510966,
56.0,56.75,28,0.75,Stimuli/P020/things_face_10s.jpg,0,0.0,0.0,0,27,27,27,,,,,,,,,,,,,56.01596110000537,0.0159611000053701,None,89.15418469999713,89.15418469999713,89.15418469999713,89.15418469999713,89.15418469999713,89.15418469999713,89.15418469999713,89.15418469999713,89.15418469999713,89.15418469999713,,009,P020,2025_May_06_1752,ConditionRich,2021.2.3,59.943090030510966,
56.75,60.0,41,0.0,Stimuli/Blank.png,0,0.0,0.0,0,28,28,28,,,,,,,,,,,,,56.751538399999845,0.0015383999998448417,None,89.90486360000068,89.90486360000068,89.90486360000068,89.90486360000068,89.90486360000068,89.90486360000068,89.90486360000068,89.90486360000068,89.90486360000068,89.90486360000068,,009,P020,2025_May_06_1752,ConditionRich,2021.2.3,59.943090030510966,
60.0,60.75,3,0.75,Stimuli/P020/sun_aknrkswonrogcooi.jpg,0,0.0,0.0,0,29,29,29,,,,,,,,,,,,,60.01841129999957,0.018411299999570474,None,93.17443269999785,93.17443269999785,93.17443269999785,93.17443269999785,93.17443269999785,93.17443269999785,93.17443269999785,93.17443269999785,93.17443269999785,93.17443269999785,,009,P020,2025_May_06_1752,ConditionRich,2021.2.3,59.943090030510966,
60.75,64.0,41,0.0,Stimuli/Blank.png,1,0.25,1.0,0,30,30,30,,,,,,,,,,,,,60.771012100005464,0.021012100005464163,1,93.92507889999979,93.92507889999979,93.92507889999979,93.92507889999979,93.92507889999979,93.92507889999979,94.15861089999817,94.9092737999963,93.92507889999979,93.92507889999979,0.6538504000054672,009,P020,2025_May_06_1752,ConditionRich,2021.2.3,59.943090030510966,
64.0,64.75,5,0.75,Stimuli/P020/sun_amjqxnqvhovkotym.jpg,1,0.0,0.75,0,31,31,31,,,,,,,,,,,,,64.02258620000066,0.02258620000066003,1,97.16128359999857,97.16128359999857,97.16128359999857,97.16128359999857,97.16128359999857,97.16128359999857,97.16128359999857,None,97.16128359999857,97.16128359999857,0.45284840000385884,009,P020,2025_May_06_1752,ConditionRich,2021.2.3,59.943090030510966,
64.75,68.0,41,0.0,Stimuli/Blank.png,0,0.0,0.0,0,32,32,32,,,,,,,,,,,,,64.75618810000014,0.006188100000144914,None,97.8953513000015,97.8953513000015,97.8953513000015,97.8953513000015,97.8953513000015,97.8953513000015,97.8953513000015,97.8953513000015,97.8953513000015,97.8953513000015,,009,P020,2025_May_06_1752,ConditionRich,2021.2.3,59.943090030510966,
68.0,68.75,36,0.75,Stimuli/P020/things_sunroof_10s.jpg,0,0.0,0.0,0,33,33,33,,,,,,,,,,,,,68.01012930000434,0.010129300004336983,None,101.1648234000022,101.1648234000022,101.1648234000022,101.1648234000022,101.1648234000022,101.1648234000022,101.1648234000022,101.1648234000022,101.1648234000022,101.1648234000022,,009,P020,2025_May_06_1752,ConditionRich,2021.2.3,59.943090030510966,
68.75,72.0,41,0.0,Stimuli/Blank.png,0,0.0,0.0,0,34,34,34,,,,,,,,,,,,,68.77689980000287,0.02689980000286596,None,101.91549549999763,101.91549549999763,101.91549549999763,101.91549549999763,101.91549549999763,101.91549549999763,101.91549549999763,101.91549549999763,101.91549549999763,101.91549549999763,,009,P020,2025_May_06_1752,ConditionRich,2021.2.3,59.943090030510966,
72.0,72.75,25,0.75,Stimuli/P020/things_chime_10s.jpg,0,0.0,0.0,0,35,35,35,,,,,,,,,,,,,72.01296100000036,0.01296100000035949,None,105.15167529999599,105.15167529999599,105.15167529999599,105.15167529999599,105.15167529999599,105.15167529999599,105.15167529999599,105.15167529999599,105.15167529999599,105.15167529999599,,009,P020,2025_May_06_1752,ConditionRich,2021.2.3,59.943090030510966,
72.75,76.0,41,0.0,Stimuli/Blank.png,0,0.0,0.0,0,36,36,36,,,,,,,,,,,,,72.7660348999998,0.016034899999795016,None,105.91903070000262,105.91903070000262,105.91903070000262,105.91903070000262,105.91903070000262,105.91903070000262,105.91903070000262,105.91903070000262,105.91903070000262,105.91903070000262,,009,P020,2025_May_06_1752,ConditionRich,2021.2.3,59.943090030510966,
76.0,76.75,14,0.75,Stimuli/P020/sun_birvagufpcschyrr.jpg,0,0.0,0.0,0,37,37,37,,,,,,,,,,,,,76.01695000000473,0.016950000004726462,None,109.17191309999907,109.17191309999907,109.17191309999907,109.17191309999907,109.17191309999907,109.17191309999907,109.17191309999907,109.17191309999907,109.17191309999907,109.17191309999907,,009,P020,2025_May_06_1752,ConditionRich,2021.2.3,59.943090030510966,
76.75,80.0,41,0.0,Stimuli/Blank.png,0,0.0,0.0,0,38,38,38,,,,,,,,,,,,,76.76672959999996,0.016729599999962375,None,109.90588389999903,109.90588389999903,109.90588389999903,109.90588389999903,109.90588389999903,109.90588389999903,109.90588389999903,109.90588389999903,109.90588389999903,109.90588389999903,,009,P020,2025_May_06_1752,ConditionRich,2021.2.3,59.943090030510966,
80.0,80.75,31,0.75,Stimuli/P020/things_fudge_10s.jpg,0,0.0,0.0,0,39,39,39,,,,,,,,,,,,,80.00280770000245,0.0028077000024495646,None,113.14208659999713,113.14208659999713,113.14208659999713,113.14208659999713,113.14208659999713,113.14208659999713,113.14208659999713,113.14208659999713,113.14208659999713,113.14208659999713,,009,P020,2025_May_06_1752,ConditionRich,2021.2.3,59.943090030510966,
80.75,84.0,41,0.0,Stimuli/Blank.png,1,2.25,3.0,0,40,40,40,,,,,,,,,,,,,80.75345630000083,0.0034563000008347444,1,113.89275120000093,113.89275120000093,113.89275120000093,113.89275120000093,113.89275120000093,113.89275120000093,116.12811040000088,116.87875229999918,113.89275120000093,113.89275120000093,2.7224943000037456,009,P020,2025_May_06_1752,ConditionRich,2021.2.3,59.943090030510966,
84.0,100.0,0,0.0,Stimuli/Blank.png,1,12.0,12.75,0,41,41,41,,,,,,,,,,,,,84.00833530000091,0.008335300000908319,1,117.14564679999603,117.14564679999603,117.14564679999603,117.14564679999603,117.14564679999603,117.14564679999603,129.13958009999624,129.89023820000148,117.14564679999603,117.14564679999603,12.52336309999373,009,P020,2025_May_06_1752,ConditionRich,2021.2.3,59.943090030510966,
100.0,100.75,32,0.75,Stimuli/P020/things_girl_10s.jpg,0,0.0,0.0,0,42,42,42,,,,,,,,,,,,,100.00525620000553,0.005256200005533174,None,133.14314000000013,133.14314000000013,133.14314000000013,133.14314000000013,133.14314000000013,133.14314000000013,133.14314000000013,133.14314000000013,133.14314000000013,133.14314000000013,,009,P020,2025_May_06_1752,ConditionRich,2021.2.3,59.943090030510966,
100.75,104.0,41,0.0,Stimuli/Blank.png,1,0.25,1.0,0,43,43,43,,,,,,,,,,,,,100.75608020000072,0.0060802000007242896,1,133.894675800002,133.894675800002,133.894675800002,133.894675800002,133.894675800002,133.894675800002,134.12745079999877,134.87803970000095,133.894675800002,133.894675800002,0.6093852999983937,009,P020,2025_May_06_1752,ConditionRich,2021.2.3,59.943090030510966,
104.0,104.75,24,0.75,Stimuli/P020/things_bulletin_board_10s.jpg,0,0.0,0.0,0,44,44,44,,,,,,,,,,,,,104.00802300000214,0.00802300000214018,None,137.14667509999708,137.14667509999708,137.14667509999708,137.14667509999708,137.14667509999708,137.14667509999708,137.14667509999708,137.14667509999708,137.14667509999708,137.14667509999708,,009,P020,2025_May_06_1752,ConditionRich,2021.2.3,59.943090030510966,
104.75,108.0,41,0.0,Stimuli/Blank.png,0,0.0,0.0,0,45,45,45,,,,,,,,,,,,,104.75879630000418,0.008796300004178192,None,137.8973859999969,137.8973859999969,137.8973859999969,137.8973859999969,137.8973859999969,137.8973859999969,137.8973859999969,137.8973859999969,137.8973859999969,137.8973859999969,,009,P020,2025_May_06_1752,ConditionRich,2021.2.3,59.943090030510966,
108.0,108.75,26,0.75,Stimuli/P020/things_earwig_10n.jpg,0,0.0,0.0,0,46,46,46,,,,,,,,,,,,,108.01196510000591,0.011965100005909335,None,141.1502165999991,141.1502165999991,141.1502165999991,141.1502165999991,141.1502165999991,141.1502165999991,141.1502165999991,141.1502165999991,141.1502165999991,141.1502165999991,,009,P020,2025_May_06_1752,ConditionRich,2021.2.3,59.943090030510966,
108.75,112.0,41,0.0,Stimuli/Blank.png,1,0.25,1.0,0,47,47,47,,,,,,,,,,,,,108.76162300000578,0.011623000005783979,1,141.90090529999725,141.90090529999725,141.90090529999725,141.90090529999725,141.90090529999725,141.90090529999725,142.13442879999639,142.8850495000006,141.90090529999725,141.90090529999725,0.6060821999999462,009,P020,2025_May_06_1752,ConditionRich,2021.2.3,59.943090030510966,
112.0,112.75,1,0.75,Stimuli/P020/sun_aaaidwecchadbake.jpg,0,0.0,0.0,0,48,48,48,,,,,,,,,,,,,112.01507090000086,0.01507090000086464,None,145.15375330000097,145.15375330000097,145.15375330000097,145.15375330000097,145.15375330000097,145.15375330000097,145.15375330000097,145.15375330000097,145.15375330000097,145.15375330000097,,009,P020,2025_May_06_1752,ConditionRich,2021.2.3,59.943090030510966,
112.75,116.0,41,0.0,Stimuli/Blank.png,0,0.0,0.0,0,49,49,49,,,,,,,,,,,,,112.74835370000073,-0.0016462999992654659,None,145.88773509999737,145.88773509999737,145.88773509999737,145.88773509999737,145.88773509999737,145.88773509999737,145.88773509999737,145.88773509999737,145.88773509999737,145.88773509999737,,009,P020,2025_May_06_1752,ConditionRich,2021.2.3,59.943090030510966,
116.0,116.75,2,0.75,Stimuli/P020/sun_ajhvfwzgpfovdgid.jpg,0,0.0,0.0,0,50,50,50,,,,,,,,,,,,,116.00219440000365,0.002194400003645569,None,149.1572993000009,149.1572993000009,149.1572993000009,149.1572993000009,149.1572993000009,149.1572993000009,149.1572993000009,149.1572993000009,149.1572993000009,149.1572993000009,,009,P020,2025_May_06_1752,ConditionRich,2021.2.3,59.943090030510966,
116.75,120.0,41,0.0,Stimuli/Blank.png,0,0.0,0.0,0,51,51,51,,,,,,,,,,,,,116.76965700000437,0.019657000004372094,None,149.90804349999962,149.90804349999962,149.90804349999962,149.90804349999962,149.90804349999962,149.90804349999962,149.90804349999962,149.90804349999962,149.90804349999962,149.90804349999962,,009,P020,2025_May_06_1752,ConditionRich,2021.2.3,59.943090030510966,
120.0,120.75,12,0.75,Stimuli/P020/sun_bgjrtiivbwugxhxp.jpg,0,0.0,0.0,0,52,52,52,,,,,,,,,,,,,120.00572540000576,0.005725400005758274,None,153.14412630000152,153.14412630000152,153.14412630000152,153.14412630000152,153.14412630000152,153.14412630000152,153.14412630000152,153.14412630000152,153.14412630000152,153.14412630000152,,009,P020,2025_May_06_1752,ConditionRich,2021.2.3,59.943090030510966,
120.75,124.0,41,0.0,Stimuli/Blank.png,1,2.25,3.0,0,53,53,53,,,,,,,,,,,,,120.75656159999926,0.00656159999925876,1,153.89481499999965,153.89481499999965,153.89481499999965,153.89481499999965,153.89481499999965,153.89481499999965,156.13014139999723,156.8808121999973,153.89481499999965,153.89481499999965,2.697355399999651,009,P020,2025_May_06_1752,ConditionRich,2021.2.3,59.943090030510966,
124.0,124.75,39,0.75,Stimuli/P020/things_wire_10s.jpg,0,0.0,0.0,0,54,54,54,,,,,,,,,,,,,124.00896030000149,0.008960300001490396,None,157.14769720000186,157.14769720000186,157.14769720000186,157.14769720000186,157.14769720000186,157.14769720000186,157.14769720000186,157.14769720000186,157.14769720000186,157.14769720000186,,009,P020,2025_May_06_1752,ConditionRich,2021.2.3,59.943090030510966,
124.75,128.0,41,0.0,Stimuli/Blank.png,0,0.0,0.0,0,55,55,55,,,,,,,,,,,,,124.7615145000018,0.011514500001794659,None,157.91506449999724,157.91506449999724,157.91506449999724,157.91506449999724,157.91506449999724,157.91506449999724,157.91506449999724,157.91506449999724,157.91506449999724,157.91506449999724,,009,P020,2025_May_06_1752,ConditionRich,2021.2.3,59.943090030510966,
128.0,128.75,29,0.75,Stimuli/P020/things_flamingo_10s.jpg,0,0.0,0.0,0,56,56,56,,,,,,,,,,,,,128.03142579999985,0.03142579999985173,None,161.18461589999788,161.18461589999788,161.18461589999788,161.18461589999788,161.18461589999788,161.18461589999788,161.18461589999788,161.18461589999788,161.18461589999788,161.18461589999788,,009,P020,2025_May_06_1752,ConditionRich,2021.2.3,59.943090030510966,
128.75,132.0,41,0.0,Stimuli/Blank.png,0,0.0,0.0,0,57,57,57,,,,,,,,,,,,,128.782312000003,0.03231200000300305,None,161.93526059999567,161.93526059999567,161.93526059999567,161.93526059999567,161.93526059999567,161.93526059999567,161.93526059999567,161.93526059999567,161.93526059999567,161.93526059999567,,009,P020,2025_May_06_1752,ConditionRich,2021.2.3,59.943090030510966,
132.0,132.75,4,0.75,Stimuli/P020/sun_amixpbnrxiulfsri.jpg,0,0.0,0.0,0,58,58,58,,,,,,,,,,,,,132.0155403000026,0.01554030000261264,None,165.15479239999695,165.15479239999695,165.15479239999695,165.15479239999695,165.15479239999695,165.15479239999695,165.15479239999695,165.15479239999695,165.15479239999695,165.15479239999695,,009,P020,2025_May_06_1752,ConditionRich,2021.2.3,59.943090030510966,
132.75,136.0,41,0.0,Stimuli/Blank.png,0,0.0,0.0,0,59,59,59,,,,,,,,,,,,,132.75142350000533,0.0014235000053304248,None,165.90546000000177,165.90546000000177,165.90546000000177,165.90546000000177,165.90546000000177,165.90546000000177,165.90546000000177,165.90546000000177,165.90546000000177,165.90546000000177,,009,P020,2025_May_06_1752,ConditionRich,2021.2.3,59.943090030510966,
136.0,136.75,21,0.75,Stimuli/P020/things_anteater_10s.jpg,0,0.0,0.0,0,60,60,60,,,,,,,,,,,,,136.02129360000254,0.02129360000253655,None,169.17502290000266,169.17502290000266,169.17502290000266,169.17502290000266,169.17502290000266,169.17502290000266,169.17502290000266,169.17502290000266,169.17502290000266,169.17502290000266,,009,P020,2025_May_06_1752,ConditionRich,2021.2.3,59.943090030510966,
136.75,140.0,41,0.0,Stimuli/Blank.png,0,0.0,0.0,0,61,61,61,,,,,,,,,,,,,136.7704515000005,0.02045150000049034,None,169.90898039999593,169.90898039999593,169.90898039999593,169.90898039999593,169.90898039999593,169.90898039999593,169.90898039999593,169.90898039999593,169.90898039999593,169.90898039999593,,009,P020,2025_May_06_1752,ConditionRich,2021.2.3,59.943090030510966,
140.0,140.75,6,0.75,Stimuli/P020/sun_amppcthpabgulbwl.jpg,0,0.0,0.0,0,62,62,62,,,,,,,,,,,,,140.00626880000345,0.006268800003454089,None,173.14519709999877,173.14519709999877,173.14519709999877,173.14519709999877,173.14519709999877,173.14519709999877,173.14519709999877,173.14519709999877,173.14519709999877,173.14519709999877,,009,P020,2025_May_06_1752,ConditionRich,2021.2.3,59.943090030510966,
140.75,144.0,41,0.0,Stimuli/Blank.png,0,0.0,0.0,0,63,63,63,,,,,,,,,,,,,140.75698580000608,0.006985800006077625,None,173.8958674999958,173.8958674999958,173.8958674999958,173.8958674999958,173.8958674999958,173.8958674999958,173.8958674999958,173.8958674999958,173.8958674999958,173.8958674999958,,009,P020,2025_May_06_1752,ConditionRich,2021.2.3,59.943090030510966,
144.0,144.75,15,0.75,Stimuli/P020/sun_bkubdnohuakmwcaj.jpg,0,0.0,0.0,0,64,64,64,,,,,,,,,,,,,144.01108250000107,0.011082500001066364,None,177.16544050000084,177.16544050000084,177.16544050000084,177.16544050000084,177.16544050000084,177.16544050000084,177.16544050000084,177.16544050000084,177.16544050000084,177.16544050000084,,009,P020,2025_May_06_1752,ConditionRich,2021.2.3,59.943090030510966,
144.75,148.0,41,0.0,Stimuli/Blank.png,0,0.0,0.0,0,65,65,65,,,,,,,,,,,,,144.7767393000031,0.026739300003100652,None,177.91608409999753,177.91608409999753,177.91608409999753,177.91608409999753,177.91608409999753,177.91608409999753,177.91608409999753,177.91608409999753,177.91608409999753,177.91608409999753,,009,P020,2025_May_06_1752,ConditionRich,2021.2.3,59.943090030510966,
148.0,148.75,9,0.75,Stimuli/P020/sun_bbfmuujfvpiaqdww.jpg,0,0.0,0.0,0,66,66,66,,,,,,,,,,,,,148.0139036000037,0.013903600003686734,None,181.16900200000237,181.16900200000237,181.16900200000237,181.16900200000237,181.16900200000237,181.16900200000237,181.16900200000237,181.16900200000237,181.16900200000237,181.16900200000237,,009,P020,2025_May_06_1752,ConditionRich,2021.2.3,59.943090030510966,
148.75,152.0,41,0.0,Stimuli/Blank.png,0,0.0,0.0,0,67,67,67,,,,,,,,,,,,,148.7806694000028,0.03066940000280738,None,181.91963709999982,181.91963709999982,181.91963709999982,181.91963709999982,181.91963709999982,181.91963709999982,181.91963709999982,181.91963709999982,181.91963709999982,181.91963709999982,,009,P020,2025_May_06_1752,ConditionRich,2021.2.3,59.943090030510966,
152.0,152.75,19,0.75,Stimuli/P020/sun_byssdezaaqnthppd.jpg,0,0.0,0.0,0,68,68,68,,,,,,,,,,,,,152.0027814999994,0.002781499999400694,None,185.1558350999985,185.1558350999985,185.1558350999985,185.1558350999985,185.1558350999985,185.1558350999985,185.1558350999985,185.1558350999985,185.1558350999985,185.1558350999985,,009,P020,2025_May_06_1752,ConditionRich,2021.2.3,59.943090030510966,
152.75,156.0,41,0.0,Stimuli/Blank.png,0,0.0,0.0,0,69,69,69,,,,,,,,,,,,,152.76772250000067,0.01772250000067288,None,185.9064881000013,185.9064881000013,185.9064881000013,185.9064881000013,185.9064881000013,185.9064881000013,185.9064881000013,185.9064881000013,185.9064881000013,185.9064881000013,,009,P020,2025_May_06_1752,ConditionRich,2021.2.3,59.943090030510966,
156.0,156.75,38,0.75,Stimuli/P020/things_turtle_10n.jpg,0,0.0,0.0,0,70,70,70,,,,,,,,,,,,,156.00633960000414,0.006339600004139356,None,189.1593722999969,189.1593722999969,189.1593722999969,189.1593722999969,189.1593722999969,189.1593722999969,189.1593722999969,189.1593722999969,189.1593722999969,189.1593722999969,,009,P020,2025_May_06_1752,ConditionRich,2021.2.3,59.943090030510966,
156.75,160.0,41,0.0,Stimuli/Blank.png,0,0.0,0.0,0,71,71,71,,,,,,,,,,,,,156.77083069999935,0.020830699999351054,None,189.91002740000113,189.91002740000113,189.91002740000113,189.91002740000113,189.91002740000113,189.91002740000113,189.91002740000113,189.91002740000113,189.91002740000113,189.91002740000113,,009,P020,2025_May_06_1752,ConditionRich,2021.2.3,59.943090030510966,
160.0,160.75,40,0.75,Stimuli/P020/things_woman_10s.jpg,0,0.0,0.0,0,72,72,72,,,,,,,,,,,,,160.00728370000434,0.007283700004336424,None,193.1462287999966,193.1462287999966,193.1462287999966,193.1462287999966,193.1462287999966,193.1462287999966,193.1462287999966,193.1462287999966,193.1462287999966,193.1462287999966,,009,P020,2025_May_06_1752,ConditionRich,2021.2.3,59.943090030510966,
160.75,164.0,41,0.0,Stimuli/Blank.png,0,0.0,0.0,0,73,73,73,,,,,,,,,,,,,160.75814979999996,0.008149799999955576,None,193.89689740000176,193.89689740000176,193.89689740000176,193.89689740000176,193.89689740000176,193.89689740000176,193.89689740000176,193.89689740000176,193.89689740000176,193.89689740000176,,009,P020,2025_May_06_1752,ConditionRich,2021.2.3,59.943090030510966,
164.0,164.75,20,0.75,Stimuli/P020/sun_dlnwonqxagdvtlta.jpg,1,0.0,0.75,0,74,74,74,,,,,,,,,,,,,164.01119360000303,0.011193600003025495,1,197.1497734000004,197.1497734000004,197.1497734000004,197.1497734000004,197.1497734000004,197.1497734000004,197.1497734000004,197.88378609999927,197.1497734000004,197.1497734000004,0.5001813999988372,009,P020,2025_May_06_1752,ConditionRich,2021.2.3,59.943090030510966,
164.75,168.0,41,0.0,Stimuli/Blank.png,0,0.0,0.0,0,75,75,75,,,,,,,,,,,,,164.76187040000514,0.011870400005136617,None,197.90044350000244,197.90044350000244,197.90044350000244,197.90044350000244,197.90044350000244,197.90044350000244,197.90044350000244,197.90044350000244,197.90044350000244,197.90044350000244,,009,P020,2025_May_06_1752,ConditionRich,2021.2.3,59.943090030510966,
168.0,168.75,27,0.75,Stimuli/P020/things_eel_10s.jpg,0,0.0,0.0,0,76,76,76,,,,,,,,,,,,,168.01491520000127,0.014915200001269113,None,201.15331549999974,201.15331549999974,201.15331549999974,201.15331549999974,201.15331549999974,201.15331549999974,201.15331549999974,201.15331549999974,201.15331549999974,201.15331549999974,,009,P020,2025_May_06_1752,ConditionRich,2021.2.3,59.943090030510966,
168.75,172.0,41,0.0,Stimuli/Blank.png,0,0.0,0.0,0,77,77,77,,,,,,,,,,,,,168.76740240000072,0.017402400000719354,None,201.92067649999808,201.92067649999808,201.92067649999808,201.92067649999808,201.92067649999808,201.92067649999808,201.92067649999808,201.92067649999808,201.92067649999808,201.92067649999808,,009,P020,2025_May_06_1752,ConditionRich,2021.2.3,59.943090030510966,
172.0,172.75,13,0.75,Stimuli/P020/sun_bhzwrbdycbchqesq.jpg,0,0.0,0.0,0,78,78,78,,,,,,,,,,,,,172.01782210000238,0.01782210000237683,None,205.15686730000016,205.15686730000016,205.15686730000016,205.15686730000016,205.15686730000016,205.15686730000016,205.15686730000016,205.15686730000016,205.15686730000016,205.15686730000016,,009,P020,2025_May_06_1752,ConditionRich,2021.2.3,59.943090030510966,
172.75,176.0,41,0.0,Stimuli/Blank.png,0,0.0,0.0,0,79,79,79,,,,,,,,,,,,,172.75162060000002,0.0016206000000238419,None,205.89085779999732,205.89085779999732,205.89085779999732,205.89085779999732,205.89085779999732,205.89085779999732,205.89085779999732,205.89085779999732,205.89085779999732,205.89085779999732,,009,P020,2025_May_06_1752,ConditionRich,2021.2.3,59.943090030510966,
176.0,176.75,7,0.75,Stimuli/P020/sun_aqkbfuonyunmyqxb.jpg,0,0.0,0.0,0,80,80,80,,,,,,,,,,,,,176.00764580000396,0.007645800003956538,None,209.16041309999855,209.16041309999855,209.16041309999855,209.16041309999855,209.16041309999855,209.16041309999855,209.16041309999855,209.16041309999855,209.16041309999855,209.16041309999855,,009,P020,2025_May_06_1752,ConditionRich,2021.2.3,59.943090030510966,
176.75,180.0,41,0.0,Stimuli/Blank.png,0,0.0,0.0,0,81,81,81,,,,,,,,,,,,,176.7718617999999,0.021861799999896903,None,209.91107000000193,209.91107000000193,209.91107000000193,209.91107000000193,209.91107000000193,209.91107000000193,209.91107000000193,209.91107000000193,209.91107000000193,209.91107000000193,,009,P020,2025_May_06_1752,ConditionRich,2021.2.3,59.943090030510966,
180.0,196.0,0,0.0,Stimuli/Blank.png,1,7.0,7.75,0,82,82,82,,,,,,,,,,,,,180.0081175000014,0.008117500001389999,1,213.14726730000257,213.14726730000257,213.14726730000257,213.14726730000257,213.14726730000257,213.14726730000257,220.13678249999793,220.88744539999607,213.14726730000257,213.14726730000257,7.462772699997004,009,P020,2025_May_06_1752,ConditionRich,2021.2.3,59.943090030510966,
196.0,196.75,9,0.75,Stimuli/P020/sun_bbfmuujfvpiaqdww.jpg,0,0.0,0.0,0,83,83,83,,,,,,,,,,,,,196.00577619999967,0.005776199999672826,None,229.14475649999804,229.14475649999804,229.14475649999804,229.14475649999804,229.14475649999804,229.14475649999804,229.14475649999804,229.14475649999804,229.14475649999804,229.14475649999804,,009,P020,2025_May_06_1752,ConditionRich,2021.2.3,59.943090030510966,
196.75,200.0,41,0.0,Stimuli/Blank.png,0,0.0,0.0,0,84,84,84,,,,,,,,,,,,,196.75729760000104,0.007297600001038518,None,229.89542549999896,229.89542549999896,229.89542549999896,229.89542549999896,229.89542549999896,229.89542549999896,229.89542549999896,229.89542549999896,229.89542549999896,229.89542549999896,,009,P020,2025_May_06_1752,ConditionRich,2021.2.3,59.943090030510966,
200.0,200.75,38,0.75,Stimuli/P020/things_turtle_10n.jpg,0,0.0,0.0,0,85,85,85,,,,,,,,,,,,,200.0112911000033,0.011291100003290921,None,233.16498629999842,233.16498629999842,233.16498629999842,233.16498629999842,233.16498629999842,233.16498629999842,233.16498629999842,233.16498629999842,233.16498629999842,233.16498629999842,,009,P020,2025_May_06_1752,ConditionRich,2021.2.3,59.943090030510966,
200.75,204.0,41,0.0,Stimuli/Blank.png,0,0.0,0.0,0,86,86,86,,,,,,,,,,,,,200.77784290000272,0.02784290000272449,None,233.91566720000264,233.91566720000264,233.91566720000264,233.91566720000264,233.91566720000264,233.91566720000264,233.91566720000264,233.91566720000264,233.91566720000264,233.91566720000264,,009,P020,2025_May_06_1752,ConditionRich,2021.2.3,59.943090030510966,
204.0,204.75,1,0.75,Stimuli/P020/sun_aaaidwecchadbake.jpg,0,0.0,0.0,0,87,87,87,,,,,,,,,,,,,204.012696100006,0.012696100005996414,None,237.15184050000244,237.15184050000244,237.15184050000244,237.15184050000244,237.15184050000244,237.15184050000244,237.15184050000244,237.15184050000244,237.15184050000244,237.15184050000244,,009,P020,2025_May_06_1752,ConditionRich,2021.2.3,59.943090030510966,
204.75,208.0,41,0.0,Stimuli/Blank.png,0,0.0,0.0,0,88,88,88,,,,,,,,,,,,,204.7632214000041,0.013221400004113093,None,237.9025122000021,237.9025122000021,237.9025122000021,237.9025122000021,237.9025122000021,237.9025122000021,237.9025122000021,237.9025122000021,237.9025122000021,237.9025122000021,,009,P020,2025_May_06_1752,ConditionRich,2021.2.3,59.943090030510966,
208.0,208.75,34,0.75,Stimuli/P020/things_man_10s.jpg,0,0.0,0.0,0,89,89,89,,,,,,,,,,,,,208.0001770000017,0.00017700000171316788,None,241.13870940000197,241.13870940000197,241.13870940000197,241.13870940000197,241.13870940000197,241.13870940000197,241.13870940000197,241.13870940000197,241.13870940000197,241.13870940000197,,009,P020,2025_May_06_1752,ConditionRich,2021.2.3,59.943090030510966,
208.75,212.0,41,0.0,Stimuli/Blank.png,1,0.25,1.0,0,90,90,90,,,,,,,,,,,,,208.75090860000637,0.0009086000063689426,1,241.8893812000024,241.8893812000024,241.8893812000024,241.8893812000024,241.8893812000024,241.8893812000024,242.12296619999688,242.87374740000087,241.8893812000024,241.8893812000024,0.6876830000037444,009,P020,2025_May_06_1752,ConditionRich,2021.2.3,59.943090030510966,
212.0,212.75,8,0.75,Stimuli/P020/sun_avbzvunekksfggon.jpg,0,0.0,0.0,0,91,91,91,,,,,,,,,,,,,212.0072794000007,0.007279400000697933,None,245.15897140000015,245.15897140000015,245.15897140000015,245.15897140000015,245.15897140000015,245.15897140000015,245.15897140000015,245.15897140000015,245.15897140000015,245.15897140000015,,009,P020,2025_May_06_1752,ConditionRich,2021.2.3,59.943090030510966,
212.75,216.0,41,0.0,Stimuli/Blank.png,0,0.0,0.0,0,92,92,92,,,,,,,,,,,,,212.77054870000575,0.020548700005747378,None,245.9095950999981,245.9095950999981,245.9095950999981,245.9095950999981,245.9095950999981,245.9095950999981,245.9095950999981,245.9095950999981,245.9095950999981,245.9095950999981,,009,P020,2025_May_06_1752,ConditionRich,2021.2.3,59.943090030510966,
216.0,216.75,14,0.75,Stimuli/P020/sun_birvagufpcschyrr.jpg,0,0.0,0.0,0,93,93,93,,,,,,,,,,,,,216.00725480000256,0.007254800002556294,None,249.1624748999966,249.1624748999966,249.1624748999966,249.1624748999966,249.1624748999966,249.1624748999966,249.1624748999966,249.1624748999966,249.1624748999966,249.1624748999966,,009,P020,2025_May_06_1752,ConditionRich,2021.2.3,59.943090030510966,
216.75,220.0,41,0.0,Stimuli/Blank.png,0,0.0,0.0,0,94,94,94,,,,,,,,,,,,,216.77658730000257,0.02658730000257492,None,249.929839299999,249.929839299999,249.929839299999,249.929839299999,249.929839299999,249.929839299999,249.929839299999,249.929839299999,249.929839299999,249.929839299999,,009,P020,2025_May_06_1752,ConditionRich,2021.2.3,59.943090030510966,
220.0,220.75,40,0.75,Stimuli/P020/things_woman_10s.jpg,0,0.0,0.0,0,95,95,95,,,,,,,,,,,,,220.02736469999945,0.02736469999945257,None,253.1660239999983,253.1660239999983,253.1660239999983,253.1660239999983,253.1660239999983,253.1660239999983,253.1660239999983,253.1660239999983,253.1660239999983,253.1660239999983,,009,P020,2025_May_06_1752,ConditionRich,2021.2.3,59.943090030510966,
220.75,224.0,41,0.0,Stimuli/Blank.png,0,0.0,0.0,0,96,96,96,,,,,,,,,,,,,220.76099210000393,0.010992100003932137,None,253.90004310000222,253.90004310000222,253.90004310000222,253.90004310000222,253.90004310000222,253.90004310000222,253.90004310000222,253.90004310000222,253.90004310000222,253.90004310000222,,009,P020,2025_May_06_1752,ConditionRich,2021.2.3,59.943090030510966,
224.0,224.75,35,0.75,Stimuli/P020/things_pretzel_10s.jpg,1,0.0,0.75,0,97,97,97,,,,,,,,,,,,,224.01635750000423,0.01635750000423286,1,257.16956650000066,257.16956650000066,257.16956650000066,257.16956650000066,257.16956650000066,257.16956650000066,257.16956650000066,None,257.16956650000066,257.16956650000066,0.6025135000018054,009,P020,2025_May_06_1752,ConditionRich,2021.2.3,59.943090030510966,
224.75,228.0,41,0.0,Stimuli/Blank.png,0,0.0,0.0,0,98,98,98,,,,,,,,,,,,,224.76564530000178,0.015645300001779106,None,257.90355579999596,257.90355579999596,257.90355579999596,257.90355579999596,257.90355579999596,257.90355579999596,257.90355579999596,257.90355579999596,257.90355579999596,257.90355579999596,,009,P020,2025_May_06_1752,ConditionRich,2021.2.3,59.943090030510966,
228.0,228.75,5,0.75,Stimuli/P020/sun_amjqxnqvhovkotym.jpg,0,0.0,0.0,0,99,99,99,,,,,,,,,,,,,228.00229200000467,0.0022920000046724454,None,261.15646489999926,261.15646489999926,261.15646489999926,261.15646489999926,261.15646489999926,261.15646489999926,261.15646489999926,261.15646489999926,261.15646489999926,261.15646489999926,,009,P020,2025_May_06_1752,ConditionRich,2021.2.3,59.943090030510966,
228.75,232.0,41,0.0,Stimuli/Blank.png,0,0.0,0.0,0,100,100,100,,,,,,,,,,,,,228.76818910000293,0.01818910000292817,None,261.9070791999984,261.9070791999984,261.9070791999984,261.9070791999984,261.9070791999984,261.9070791999984,261.9070791999984,261.9070791999984,261.9070791999984,261.9070791999984,,009,P020,2025_May_06_1752,ConditionRich,2021.2.3,59.943090030510966,
232.0,232.75,13,0.75,Stimuli/P020/sun_bhzwrbdycbchqesq.jpg,0,0.0,0.0,0,101,101,101,,,,,,,,,,,,,232.00650809999934,0.0065080999993369915,None,265.1599591999984,265.1599591999984,265.1599591999984,265.1599591999984,265.1599591999984,265.1599591999984,265.1599591999984,265.1599591999984,265.1599591999984,265.1599591999984,,009,P020,2025_May_06_1752,ConditionRich,2021.2.3,59.943090030510966,
232.75,236.0,41,0.0,Stimuli/Blank.png,1,2.25,3.0,0,102,102,102,,,,,,,,,,,,,232.77198450000287,0.021984500002872664,1,265.9106280999986,265.9106280999986,265.9106280999986,265.9106280999986,265.9106280999986,265.9106280999986,268.14593479999894,268.89663819999987,265.9106280999986,265.9106280999986,2.8305866999944556,009,P020,2025_May_06_1752,ConditionRich,2021.2.3,59.943090030510966,
236.0,236.75,4,0.75,Stimuli/P020/sun_amixpbnrxiulfsri.jpg,0,0.0,0.0,0,103,103,103,,,,,,,,,,,,,236.00826919999963,0.008269199999631383,None,269.1635277999958,269.1635277999958,269.1635277999958,269.1635277999958,269.1635277999958,269.1635277999958,269.1635277999958,269.1635277999958,269.1635277999958,269.1635277999958,,009,P020,2025_May_06_1752,ConditionRich,2021.2.3,59.943090030510966,
236.75,240.0,41,0.0,Stimuli/Blank.png,0,0.0,0.0,0,104,104,104,,,,,,,,,,,,,236.77762800000346,0.02762800000346033,None,269.93086210000183,269.93086210000183,269.93086210000183,269.93086210000183,269.93086210000183,269.93086210000183,269.93086210000183,269.93086210000183,269.93086210000183,269.93086210000183,,009,P020,2025_May_06_1752,ConditionRich,2021.2.3,59.943090030510966,
240.0,240.75,26,0.75,Stimuli/P020/things_earwig_10n.jpg,0,0.0,0.0,0,105,105,105,,,,,,,,,,,,,240.0278266000023,0.02782660000229953,None,273.16705340000044,273.16705340000044,273.16705340000044,273.16705340000044,273.16705340000044,273.16705340000044,273.16705340000044,273.16705340000044,273.16705340000044,273.16705340000044,,009,P020,2025_May_06_1752,ConditionRich,2021.2.3,59.943090030510966,
240.75,244.0,41,0.0,Stimuli/Blank.png,0,0.0,0.0,0,106,106,106,,,,,,,,,,,,,240.7618433000025,0.01184330000251066,None,273.9010316999993,273.9010316999993,273.9010316999993,273.9010316999993,273.9010316999993,273.9010316999993,273.9010316999993,273.9010316999993,273.9010316999993,273.9010316999993,,009,P020,2025_May_06_1752,ConditionRich,2021.2.3,59.943090030510966,
244.0,244.75,30,0.75,Stimuli/P020/things_flip_flop_10s.jpg,1,0.0,0.75,0,107,107,107,,,,,,,,,,,,,244.01691630000278,0.016916300002776552,1,277.1706019999983,277.1706019999983,277.1706019999983,277.1706019999983,277.1706019999983,277.1706019999983,277.1706019999983,None,277.1706019999983,277.1706019999983,0.6917800000010175,009,P020,2025_May_06_1752,ConditionRich,2021.2.3,59.943090030510966,
244.75,248.0,41,0.0,Stimuli/Blank.png,0,0.0,0.0,0,108,108,108,,,,,,,,,,,,,244.76532910000242,0.015329100002418272,None,277.9046294,277.9046294,277.9046294,277.9046294,277.9046294,277.9046294,277.9046294,277.9046294,277.9046294,277.9046294,,009,P020,2025_May_06_1752,ConditionRich,2021.2.3,59.943090030510966,
248.0,248.75,7,0.75,Stimuli/P020/sun_aqkbfuonyunmyqxb.jpg,0,0.0,0.0,0,109,109,109,,,,,,,,,,,,,248.0023067000002,0.002306700000190176,None,281.1574541000009,281.1574541000009,281.1574541000009,281.1574541000009,281.1574541000009,281.1574541000009,281.1574541000009,281.1574541000009,281.1574541000009,281.1574541000009,,009,P020,2025_May_06_1752,ConditionRich,2021.2.3,59.943090030510966,
248.75,252.0,41,0.0,Stimuli/Blank.png,0,0.0,0.0,0,110,110,110,,,,,,,,,,,,,248.7691402000055,0.01914020000549499,None,281.9081127000027,281.9081127000027,281.9081127000027,281.9081127000027,281.9081127000027,281.9081127000027,281.9081127000027,281.9081127000027,281.9081127000027,281.9081127000027,,009,P020,2025_May_06_1752,ConditionRich,2021.2.3,59.943090030510966,
252.0,252.75,22,0.75,Stimuli/P020/things_bead_10s.jpg,1,0.0,0.75,0,111,111,111,,,,,,,,,,,,,252.0063442000028,0.006344200002786238,1,285.1609950999991,285.1609950999991,285.1609950999991,285.1609950999991,285.1609950999991,285.1609950999991,285.1609950999991,285.8949739000018,285.1609950999991,285.1609950999991,0.4181449000025168,009,P020,2025_May_06_1752,ConditionRich,2021.2.3,59.943090030510966,
252.75,256.0,41,0.0,Stimuli/Blank.png,0,0.0,0.0,0,112,112,112,,,,,,,,,,,,,252.77347480000026,0.023474800000258256,None,285.9116614000013,285.9116614000013,285.9116614000013,285.9116614000013,285.9116614000013,285.9116614000013,285.9116614000013,285.9116614000013,285.9116614000013,285.9116614000013,,009,P020,2025_May_06_1752,ConditionRich,2021.2.3,59.943090030510966,
256.0,256.75,37,0.75,Stimuli/P020/things_toaster_10s.jpg,0,0.0,0.0,0,113,113,113,,,,,,,,,,,,,256.0091797000059,0.009179700005915947,None,289.14786730000196,289.14786730000196,289.14786730000196,289.14786730000196,289.14786730000196,289.14786730000196,289.14786730000196,289.14786730000196,289.14786730000196,289.14786730000196,,009,P020,2025_May_06_1752,ConditionRich,2021.2.3,59.943090030510966,
256.75,260.0,41,0.0,Stimuli/Blank.png,0,0.0,0.0,0,114,114,114,,,,,,,,,,,,,256.76150070000585,0.011500700005854014,None,289.91521289999946,289.91521289999946,289.91521289999946,289.91521289999946,289.91521289999946,289.91521289999946,289.91521289999946,289.91521289999946,289.91521289999946,289.91521289999946,,009,P020,2025_May_06_1752,ConditionRich,2021.2.3,59.943090030510966,
260.0,260.75,33,0.75,Stimuli/P020/things_insole_10s.jpg,0,0.0,0.0,0,115,115,115,,,,,,,,,,,,,260.02879140000005,0.02879140000004554,None,293.1847762999969,293.1847762999969,293.1847762999969,293.1847762999969,293.1847762999969,293.1847762999969,293.1847762999969,293.1847762999969,293.1847762999969,293.1847762999969,,009,P020,2025_May_06_1752,ConditionRich,2021.2.3,59.943090030510966,
260.75,264.0,41,0.0,Stimuli/Blank.png,0,0.0,0.0,0,116,116,116,,,,,,,,,,,,,260.7800267000057,0.030026700005691964,None,293.9187544000015,293.9187544000015,293.9187544000015,293.9187544000015,293.9187544000015,293.9187544000015,293.9187544000015,293.9187544000015,293.9187544000015,293.9187544000015,,009,P020,2025_May_06_1752,ConditionRich,2021.2.3,59.943090030510966,
264.0,264.75,31,0.75,Stimuli/P020/things_fudge_10s.jpg,0,0.0,0.0,0,117,117,117,,,,,,,,,,,,,264.0017547000025,0.0017547000024933368,None,297.1555253999977,297.1555253999977,297.1555253999977,297.1555253999977,297.1555253999977,297.1555253999977,297.1555253999977,297.1555253999977,297.1555253999977,297.1555253999977,,009,P020,2025_May_06_1752,ConditionRich,2021.2.3,59.943090030510966,
264.75,268.0,41,0.0,Stimuli/Blank.png,0,0.0,0.0,0,118,118,118,,,,,,,,,,,,,264.76707120000356,0.01707120000355644,None,297.9056120999958,297.9056120999958,297.9056120999958,297.9056120999958,297.9056120999958,297.9056120999958,297.9056120999958,297.9056120999958,297.9056120999958,297.9056120999958,,009,P020,2025_May_06_1752,ConditionRich,2021.2.3,59.943090030510966,
268.0,268.75,6,0.75,Stimuli/P020/sun_amppcthpabgulbwl.jpg,0,0.0,0.0,0,119,119,119,,,,,,,,,,,,,268.0025000000023,0.0025000000023283064,None,301.14181400000234,301.14181400000234,301.14181400000234,301.14181400000234,301.14181400000234,301.14181400000234,301.14181400000234,301.14181400000234,301.14181400000234,301.14181400000234,,009,P020,2025_May_06_1752,ConditionRich,2021.2.3,59.943090030510966,
268.75,272.0,41,0.0,Stimuli/Blank.png,0,0.0,0.0,0,120,120,120,,,,,,,,,,,,,268.75419160000456,0.004191600004560314,None,301.8925573000015,301.8925573000015,301.8925573000015,301.8925573000015,301.8925573000015,301.8925573000015,301.8925573000015,301.8925573000015,301.8925573000015,301.8925573000015,,009,P020,2025_May_06_1752,ConditionRich,2021.2.3,59.943090030510966,
272.0,272.75,23,0.75,Stimuli/P020/things_boy_10s.jpg,0,0.0,0.0,0,121,121,121,,,,,,,,,,,,,272.0069375000021,0.006937500002095476,None,305.1453524999961,305.1453524999961,305.1453524999961,305.1453524999961,305.1453524999961,305.1453524999961,305.1453524999961,305.1453524999961,305.1453524999961,305.1453524999961,,009,P020,2025_May_06_1752,ConditionRich,2021.2.3,59.943090030510966,
272.75,276.0,41,0.0,Stimuli/Blank.png,0,0.0,0.0,0,122,122,122,,,,,,,,,,,,,272.756798800001,0.006798800000979099,None,305.8960193000021,305.8960193000021,305.8960193000021,305.8960193000021,305.8960193000021,305.8960193000021,305.8960193000021,305.8960193000021,305.8960193000021,305.8960193000021,,009,P020,2025_May_06_1752,ConditionRich,2021.2.3,59.943090030510966,
276.0,292.0,0,0.0,Stimuli/Blank.png,1,5.0,5.75,0,123,123,123,,,,,,,,,,,,,276.0118801999997,0.011880199999723118,1,309.1656163000007,309.1656163000007,309.1656163000007,309.1656163000007,309.1656163000007,309.1656163000007,314.15339149999636,314.88730589999614,309.1656163000007,309.1656163000007,5.452441200002795,009,P020,2025_May_06_1752,ConditionRich,2021.2.3,59.943090030510966,
292.0,292.75,11,0.75,Stimuli/P020/sun_bcbfjkoziukwmdkd.jpg,0,0.0,0.0,0,124,124,124,,,,,,,,,,,,,292.02667030000157,0.026670300001569558,None,325.17975309999747,325.17975309999747,325.17975309999747,325.17975309999747,325.17975309999747,325.17975309999747,325.17975309999747,325.17975309999747,325.17975309999747,325.17975309999747,,009,P020,2025_May_06_1752,ConditionRich,2021.2.3,59.943090030510966,
292.75,296.0,41,0.0,Stimuli/Blank.png,0,0.0,0.0,0,125,125,125,,,,,,,,,,,,,292.77585420000105,0.02585420000104932,None,325.91376409999793,325.91376409999793,325.91376409999793,325.91376409999793,325.91376409999793,325.91376409999793,325.91376409999793,325.91376409999793,325.91376409999793,325.91376409999793,,009,P020,2025_May_06_1752,ConditionRich,2021.2.3,59.943090030510966,
296.0,296.75,3,0.75,Stimuli/P020/sun_aknrkswonrogcooi.jpg,0,0.0,0.0,0,126,126,126,,,,,,,,,,,,,296.01064540000516,0.0106454000051599,None,329.1499307999984,329.1499307999984,329.1499307999984,329.1499307999984,329.1499307999984,329.1499307999984,329.1499307999984,329.1499307999984,329.1499307999984,329.1499307999984,,009,P020,2025_May_06_1752,ConditionRich,2021.2.3,59.943090030510966,
296.75,300.0,41,0.0,Stimuli/Blank.png,1,0.25,1.0,0,127,127,127,,,,,,,,,,,,,296.76200110000354,0.012001100003544707,1,329.90059589999873,329.90059589999873,329.90059589999873,329.90059589999873,329.90059589999873,329.90059589999873,330.13415990000067,330.88480100000015,329.90059589999873,329.90059589999873,0.6726072000019485,009,P020,2025_May_06_1752,ConditionRich,2021.2.3,59.943090030510966,
300.0,300.75,2,0.75,Stimuli/P020/sun_ajhvfwzgpfovdgid.jpg,0,0.0,0.0,0,128,128,128,,,,,,,,,,,,,300.0152031000034,0.015203100003418513,None,333.17015179999726,333.17015179999726,333.17015179999726,333.17015179999726,333.17015179999726,333.17015179999726,333.17015179999726,333.17015179999726,333.17015179999726,333.17015179999726,,009,P020,2025_May_06_1752,ConditionRich,2021.2.3,59.943090030510966,
300.75,304.0,41,0.0,Stimuli/Blank.png,0,0.0,0.0,0,129,129,129,,,,,,,,,,,,,300.7659433000008,0.015943300000799354,None,333.9041427999982,333.9041427999982,333.9041427999982,333.9041427999982,333.9041427999982,333.9041427999982,333.9041427999982,333.9041427999982,333.9041427999982,333.9041427999982,,009,P020,2025_May_06_1752,ConditionRich,2021.2.3,59.943090030510966,
304.0,304.75,19,0.75,Stimuli/P020/sun_byssdezaaqnthppd.jpg,0,0.0,0.0,0,130,130,130,,,,,,,,,,,,,304.00166430000536,0.0016643000053591095,None,337.1403349999964,337.1403349999964,337.1403349999964,337.1403349999964,337.1403349999964,337.1403349999964,337.1403349999964,337.1403349999964,337.1403349999964,337.1403349999964,,009,P020,2025_May_06_1752,ConditionRich,2021.2.3,59.943090030510966,
304.75,308.0,41,0.0,Stimuli/Blank.png,0,0.0,0.0,0,131,131,131,,,,,,,,,,,,,304.7524055000031,0.0024055000030784868,None,337.9076855000021,337.9076855000021,337.9076855000021,337.9076855000021,337.9076855000021,337.9076855000021,337.9076855000021,337.9076855000021,337.9076855000021,337.9076855000021,,009,P020,2025_May_06_1752,ConditionRich,2021.2.3,59.943090030510966,
308.0,308.75,18,0.75,Stimuli/P020/sun_bodjbrgwzlshgypq.jpg,0,0.0,0.0,0,132,132,132,,,,,,,,,,,,,308.02227270000003,0.022272700000030454,None,341.16055049999704,341.16055049999704,341.16055049999704,341.16055049999704,341.16055049999704,341.16055049999704,341.16055049999704,341.16055049999704,341.16055049999704,341.16055049999704,,009,P020,2025_May_06_1752,ConditionRich,2021.2.3,59.943090030510966,
308.75,312.0,41,0.0,Stimuli/Blank.png,0,0.0,0.0,0,133,133,133,,,,,,,,,,,,,308.7566653000031,0.0066653000030783005,None,341.89454639999894,341.89454639999894,341.89454639999894,341.89454639999894,341.89454639999894,341.89454639999894,341.89454639999894,341.89454639999894,341.89454639999894,341.89454639999894,,009,P020,2025_May_06_1752,ConditionRich,2021.2.3,59.943090030510966,
312.0,312.75,29,0.75,Stimuli/P020/things_flamingo_10s.jpg,0,0.0,0.0,0,134,134,134,,,,,,,,,,,,,312.0084496000054,0.008449600005405955,None,345.16411730000254,345.16411730000254,345.16411730000254,345.16411730000254,345.16411730000254,345.16411730000254,345.16411730000254,345.16411730000254,345.16411730000254,345.16411730000254,,009,P020,2025_May_06_1752,ConditionRich,2021.2.3,59.943090030510966,
312.75,316.0,41,0.0,Stimuli/Blank.png,0,0.0,0.0,0,135,135,135,,,,,,,,,,,,,312.7761857000005,0.02618570000049658,None,345.9147662999967,345.9147662999967,345.9147662999967,345.9147662999967,345.9147662999967,345.9147662999967,345.9147662999967,345.9147662999967,345.9147662999967,345.9147662999967,,009,P020,2025_May_06_1752,ConditionRich,2021.2.3,59.943090030510966,
316.0,316.75,27,0.75,Stimuli/P020/things_eel_10s.jpg,0,0.0,0.0,0,136,136,136,,,,,,,,,,,,,316.0131954000026,0.013195400002587121,None,349.16764780000085,349.16764780000085,349.16764780000085,349.16764780000085,349.16764780000085,349.16764780000085,349.16764780000085,349.16764780000085,349.16764780000085,349.16764780000085,,009,P020,2025_May_06_1752,ConditionRich,2021.2.3,59.943090030510966,
316.75,320.0,41,0.0,Stimuli/Blank.png,0,0.0,0.0,0,137,137,137,,,,,,,,,,,,,316.7816654000053,0.03166540000529494,None,349.935011900001,349.935011900001,349.935011900001,349.935011900001,349.935011900001,349.935011900001,349.935011900001,349.935011900001,349.935011900001,349.935011900001,,009,P020,2025_May_06_1752,ConditionRich,2021.2.3,59.943090030510966,
320.0,320.75,39,0.75,Stimuli/P020/things_wire_10s.jpg,0,0.0,0.0,0,138,138,138,,,,,,,,,,,,,320.0156888000056,0.015688800005591474,None,353.15450379999675,353.15450379999675,353.15450379999675,353.15450379999675,353.15450379999675,353.15450379999675,353.15450379999675,353.15450379999675,353.15450379999675,353.15450379999675,,009,P020,2025_May_06_1752,ConditionRich,2021.2.3,59.943090030510966,
320.75,324.0,41,0.0,Stimuli/Blank.png,0,0.0,0.0,0,139,139,139,,,,,,,,,,,,,320.7521055000034,0.0021055000033811666,None,353.9051738999988,353.9051738999988,353.9051738999988,353.9051738999988,353.9051738999988,353.9051738999988,353.9051738999988,353.9051738999988,353.9051738999988,353.9051738999988,,009,P020,2025_May_06_1752,ConditionRich,2021.2.3,59.943090030510966,
324.0,324.75,10,0.75,Stimuli/P020/sun_bblqhrudkospnbbv.jpg,0,0.0,0.0,0,140,140,140,,,,,,,,,,,,,324.0214750000014,0.0214750000013737,None,357.17469849999907,357.17469849999907,357.17469849999907,357.17469849999907,357.17469849999907,357.17469849999907,357.17469849999907,357.17469849999907,357.17469849999907,357.17469849999907,,009,P020,2025_May_06_1752,ConditionRich,2021.2.3,59.943090030510966,
324.75,328.0,41,0.0,Stimuli/Blank.png,0,0.0,0.0,0,141,141,141,,,,,,,,,,,,,324.77141040000424,0.021410400004242547,None,357.9254021000015,357.9254021000015,357.9254021000015,357.9254021000015,357.9254021000015,357.9254021000015,357.9254021000015,357.9254021000015,357.9254021000015,357.9254021000015,,009,P020,2025_May_06_1752,ConditionRich,2021.2.3,59.943090030510966,
328.0,328.75,15,0.75,Stimuli/P020/sun_bkubdnohuakmwcaj.jpg,0,0.0,0.0,0,142,142,142,,,,,,,,,,,,,328.02240310000343,0.022403100003430154,None,361.16158469999937,361.16158469999937,361.16158469999937,361.16158469999937,361.16158469999937,361.16158469999937,361.16158469999937,361.16158469999937,361.16158469999937,361.16158469999937,,009,P020,2025_May_06_1752,ConditionRich,2021.2.3,59.943090030510966,
328.75,332.0,41,0.0,Stimuli/Blank.png,0,0.0,0.0,0,143,143,143,,,,,,,,,,,,,328.7575186000031,0.007518600003095344,None,361.9122800999976,361.9122800999976,361.9122800999976,361.9122800999976,361.9122800999976,361.9122800999976,361.9122800999976,361.9122800999976,361.9122800999976,361.9122800999976,,009,P020,2025_May_06_1752,ConditionRich,2021.2.3,59.943090030510966,
332.0,332.75,32,0.75,Stimuli/P020/things_girl_10s.jpg,0,0.0,0.0,0,144,144,144,,,,,,,,,,,,,332.02587250000215,0.025872500002151355,None,365.165127399996,365.165127399996,365.165127399996,365.165127399996,365.165127399996,365.165127399996,365.165127399996,365.165127399996,365.165127399996,365.165127399996,,009,P020,2025_May_06_1752,ConditionRich,2021.2.3,59.943090030510966,
332.75,336.0,41,0.0,Stimuli/Blank.png,0,0.0,0.0,0,145,145,145,,,,,,,,,,,,,332.76173860000563,0.011738600005628541,None,365.91579819999606,365.91579819999606,365.91579819999606,365.91579819999606,365.91579819999606,365.91579819999606,365.91579819999606,365.91579819999606,365.91579819999606,365.91579819999606,,009,P020,2025_May_06_1752,ConditionRich,2021.2.3,59.943090030510966,
336.0,336.75,21,0.75,Stimuli/P020/things_anteater_10s.jpg,0,0.0,0.0,0,146,146,146,,,,,,,,,,,,,336.0314565000008,0.031456500000786036,None,369.1853523000027,369.1853523000027,369.1853523000027,369.1853523000027,369.1853523000027,369.1853523000027,369.1853523000027,369.1853523000027,369.1853523000027,369.1853523000027,,009,P020,2025_May_06_1752,ConditionRich,2021.2.3,59.943090030510966,
336.75,340.0,41,0.0,Stimuli/Blank.png,0,0.0,0.0,0,147,147,147,,,,,,,,,,,,,336.7810866,0.031086599999980535,None,369.9194215000025,369.9194215000025,369.9194215000025,369.9194215000025,369.9194215000025,369.9194215000025,369.9194215000025,369.9194215000025,369.9194215000025,369.9194215000025,,009,P020,2025_May_06_1752,ConditionRich,2021.2.3,59.943090030510966,
340.0,340.75,36,0.75,Stimuli/P020/things_sunroof_10s.jpg,0,0.0,0.0,0,148,148,148,,,,,,,,,,,,,340.00178920000326,0.001789200003258884,None,373.15555049999966,373.15555049999966,373.15555049999966,373.15555049999966,373.15555049999966,373.15555049999966,373.15555049999966,373.15555049999966,373.15555049999966,373.15555049999966,,009,P020,2025_May_06_1752,ConditionRich,2021.2.3,59.943090030510966,
340.75,344.0,41,0.0,Stimuli/Blank.png,0,0.0,0.0,0,149,149,149,,,,,,,,,,,,,340.767726500002,0.017726500002027024,None,373.90619709999737,373.90619709999737,373.90619709999737,373.90619709999737,373.90619709999737,373.90619709999737,373.90619709999737,373.90619709999737,373.90619709999737,373.90619709999737,,009,P020,2025_May_06_1752,ConditionRich,2021.2.3,59.943090030510966,
344.0,344.75,28,0.75,Stimuli/P020/things_face_10s.jpg,0,0.0,0.0,0,150,150,150,,,,,,,,,,,,,344.00316100000055,0.003161000000545755,None,377.142391100002,377.142391100002,377.142391100002,377.142391100002,377.142391100002,377.142391100002,377.142391100002,377.142391100002,377.142391100002,377.142391100002,,009,P020,2025_May_06_1752,ConditionRich,2021.2.3,59.943090030510966,
344.75,348.0,41,0.0,Stimuli/Blank.png,1,0.25,1.0,0,151,151,151,,,,,,,,,,,,,344.75516820000485,0.005168200004845858,1,377.893081299997,377.893081299997,377.893081299997,377.893081299997,377.893081299997,377.893081299997,378.1265970999957,378.8773019,377.893081299997,377.893081299997,0.7280958999981522,009,P020,2025_May_06_1752,ConditionRich,2021.2.3,59.943090030510966,
348.0,348.75,17,0.75,Stimuli/P020/sun_bltxkcclrpweopkl.jpg,0,0.0,0.0,0,152,152,152,,,,,,,,,,,,,348.00817780000216,0.00817780000215862,None,381.16261929999746,381.16261929999746,381.16261929999746,381.16261929999746,381.16261929999746,381.16261929999746,381.16261929999746,381.16261929999746,381.16261929999746,381.16261929999746,,009,P020,2025_May_06_1752,ConditionRich,2021.2.3,59.943090030510966,
348.75,352.0,41,0.0,Stimuli/Blank.png,0,0.0,0.0,0,153,153,153,,,,,,,,,,,,,348.7769511000006,0.026951100000587758,None,381.9299758999987,381.9299758999987,381.9299758999987,381.9299758999987,381.9299758999987,381.9299758999987,381.9299758999987,381.9299758999987,381.9299758999987,381.9299758999987,,009,P020,2025_May_06_1752,ConditionRich,2021.2.3,59.943090030510966,
352.0,352.75,12,0.75,Stimuli/P020/sun_bgjrtiivbwugxhxp.jpg,0,0.0,0.0,0,154,154,154,,,,,,,,,,,,,352.02776930000255,0.027769300002546515,None,385.1661652999974,385.1661652999974,385.1661652999974,385.1661652999974,385.1661652999974,385.1661652999974,385.1661652999974,385.1661652999974,385.1661652999974,385.1661652999974,,009,P020,2025_May_06_1752,ConditionRich,2021.2.3,59.943090030510966,
352.75,356.0,41,0.0,Stimuli/Blank.png,1,2.25,3.0,0,155,155,155,,,,,,,,,,,,,352.7621383000005,0.0121383000005153,1,385.9001457999984,385.9001457999984,385.9001457999984,385.9001457999984,385.9001457999984,385.9001457999984,388.1354644000021,388.88612000000285,385.9001457999984,385.9001457999984,2.557134099995892,009,P020,2025_May_06_1752,ConditionRich,2021.2.3,59.943090030510966,
356.0,356.75,20,0.75,Stimuli/P020/sun_dlnwonqxagdvtlta.jpg,0,0.0,0.0,0,156,156,156,,,,,,,,,,,,,356.01682060000167,0.016820600001665298,None,389.1697065999979,389.1697065999979,389.1697065999979,389.1697065999979,389.1697065999979,389.1697065999979,389.1697065999979,389.1697065999979,389.1697065999979,389.1697065999979,,009,P020,2025_May_06_1752,ConditionRich,2021.2.3,59.943090030510966,
356.75,360.0,41,0.0,Stimuli/Blank.png,0,0.0,0.0,0,157,157,157,,,,,,,,,,,,,356.765063800005,0.015063800005009398,None,389.9036846000017,389.9036846000017,389.9036846000017,389.9036846000017,389.9036846000017,389.9036846000017,389.9036846000017,389.9036846000017,389.9036846000017,389.9036846000017,,009,P020,2025_May_06_1752,ConditionRich,2021.2.3,59.943090030510966,
360.0,360.75,24,0.75,Stimuli/P020/things_bulletin_board_10s.jpg,0,0.0,0.0,0,158,158,158,,,,,,,,,,,,,360.0013844999994,0.0013844999994034879,None,393.1565657999963,393.1565657999963,393.1565657999963,393.1565657999963,393.1565657999963,393.1565657999963,393.1565657999963,393.1565657999963,393.1565657999963,393.1565657999963,,009,P020,2025_May_06_1752,ConditionRich,2021.2.3,59.943090030510966,
360.75,364.0,41,0.0,Stimuli/Blank.png,0,0.0,0.0,0,159,159,159,,,,,,,,,,,,,360.76806390000274,0.01806390000274405,None,393.90722699999606,393.90722699999606,393.90722699999606,393.90722699999606,393.90722699999606,393.90722699999606,393.90722699999606,393.90722699999606,393.90722699999606,393.90722699999606,,009,P020,2025_May_06_1752,ConditionRich,2021.2.3,59.943090030510966,
364.0,364.75,16,0.75,Stimuli/P020/sun_blfpbbfyzmewzplm.jpg,1,0.0,0.75,0,160,160,160,,,,,,,,,,,,,364.00404040000285,0.00404040000285022,1,397.1601281999974,397.1601281999974,397.1601281999974,397.1601281999974,397.1601281999974,397.1601281999974,397.1601281999974,397.87750999999844,397.1601281999974,397.1601281999974,0.33913870000105817,009,P020,2025_May_06_1752,ConditionRich,2021.2.3,59.943090030510966,
364.75,368.0,41,0.0,Stimuli/Blank.png,0,0.0,0.0,0,161,161,161,,,,,,,,,,,,,364.77143120000255,0.02143120000255294,None,397.9107795000018,397.9107795000018,397.9107795000018,397.9107795000018,397.9107795000018,397.9107795000018,397.9107795000018,397.9107795000018,397.9107795000018,397.9107795000018,,009,P020,2025_May_06_1752,ConditionRich,2021.2.3,59.943090030510966,
368.0,368.75,25,0.75,Stimuli/P020/things_chime_10s.jpg,0,0.0,0.0,0,162,162,162,,,,,,,,,,,,,368.0087397000025,0.008739700002479367,None,401.1469668999998,401.1469668999998,401.1469668999998,401.1469668999998,401.1469668999998,401.1469668999998,401.1469668999998,401.1469668999998,401.1469668999998,401.1469668999998,,009,P020,2025_May_06_1752,ConditionRich,2021.2.3,59.943090030510966,
368.75,372.0,41,0.0,Stimuli/Blank.png,0,0.0,0.0,0,163,163,163,,,,,,,,,,,,,368.75829440000234,0.008294400002341717,None,401.8976352999962,401.8976352999962,401.8976352999962,401.8976352999962,401.8976352999962,401.8976352999962,401.8976352999962,401.8976352999962,401.8976352999962,401.8976352999962,,009,P020,2025_May_06_1752,ConditionRich,2021.2.3,59.943090030510966,
372.0,388.0,0,0.0,Stimuli/Blank.png,1,11.0,11.75,0,164,164,164,,,,,,,,,,,,,372.0125490999999,0.012549099999887403,1,405.1505343000026,405.1505343000026,405.1505343000026,405.1505343000026,405.1505343000026,405.1505343000026,416.1436235000001,416.8942379,405.1505343000026,405.1505343000026,11.39079479999782,009,P020,2025_May_06_1752,ConditionRich,2021.2.3,59.943090030510966,
