eventStartTime,eventEndTime,eventCond,imSize,imFile,responseEvent,fixRespStart,fixRespEnd,Events.thisRepN,Events.thisTrialN,Events.thisN,Events.thisIndex,Instructions.started,Instructions.stopped,participantReadyResponse.keys,participantReadyResponse.rt,participantReadyResponse.started,participantReadyResponse.stopped,startWaitforTrigger,triggerResponse.keys,triggerResponse.rt,triggerResponse.started,triggerResponse.stopped,globalTimer,actualStartTime,startTimingDiff,participantResponse.keys,participantResponse.started,participantResponse.stopped,image.started,image.stopped,fixationOutside.started,fixationOutside.stopped,fixationResponse.started,fixationResponse.stopped,fixationInside.started,fixationInside.stopped,participantResponse.rt,session,participant,date,expName,psychopyVersion,frameRate,
,,,,,,,,,,,,11.458973799999512,None,1,3.630131199999596,11.458973799999512,None,,,,,,,,,,,,,,,,,,,,,008,P020,2025_May_06_1745,ConditionRich,2021.2.3,59.948552152485895,
,,,,,,,,,,,,,,,,,,15.106089100001554,5,14.313783699995838,15.119174400002521,None,,,,,,,,,,,,,,,,008,P020,2025_May_06_1745,ConditionRich,2021.2.3,59.948552152485895,
0.0,4.0,0,0.0,Stimuli/Blank.png,0,0,0.0,0,0,0,0,,,,,,,,,,,,29.435661100003927,0.03950799999438459,0.03950799999438459,None,29.49853119999898,None,29.49853119999898,None,29.49853119999898,None,29.49853119999898,29.49853119999898,29.49853119999898,None,,008,P020,2025_May_06_1745,ConditionRich,2021.2.3,59.948552152485895,
4.0,7.75,11,0.75,Stimuli/P020/sun_bcbfjkoziukwmdkd.jpg,0,0,0.0,0,1,1,1,,,,,,,,,,,,,4.020231999995303,0.02023199999530334,None,33.485662400002184,33.485662400002184,33.485662400002184,33.485662400002184,33.485662400002184,33.485662400002184,33.485662400002184,33.485662400002184,33.485662400002184,33.485662400002184,,008,P020,2025_May_06_1745,ConditionRich,2021.2.3,59.948552152485895,
7.75,8.0,41,0.0,Stimuli/Blank.png,0,0,0.0,0,2,2,2,,,,,,,,,,,,,7.771892099997785,0.021892099997785408,None,37.22234369999933,37.22234369999933,37.22234369999933,37.22234369999933,37.22234369999933,37.22234369999933,37.22234369999933,37.22234369999933,37.22234369999933,37.22234369999933,,008,P020,2025_May_06_1745,ConditionRich,2021.2.3,59.948552152485895,
8.0,11.75,4,0.75,Stimuli/P020/sun_amixpbnrxiulfsri.jpg,1,2,2.75,0,3,3,3,,,,,,,,,,,,,8.006387900000846,0.006387900000845548,1,37.455566600001475,37.455566600001475,37.455566600001475,37.455566600001475,37.455566600001475,37.455566600001475,39.44065980000596,40.191316800002824,37.455566600001475,37.455566600001475,2.487550199999532,008,P020,2025_May_06_1745,ConditionRich,2021.2.3,59.948552152485895,
11.75,12.0,41,0.0,Stimuli/Blank.png,0,0,0.0,0,4,4,4,,,,,,,,,,,,,11.761223199995584,0.011223199995583855,None,41.225581099999545,41.225581099999545,41.225581099999545,41.225581099999545,41.225581099999545,41.225581099999545,41.225581099999545,41.225581099999545,41.225581099999545,41.225581099999545,,008,P020,2025_May_06_1745,ConditionRich,2021.2.3,59.948552152485895,
12.0,15.75,18,0.75,Stimuli/P020/sun_bodjbrgwzlshgypq.jpg,0,0,0.0,0,5,5,5,,,,,,,,,,,,,12.026544599997578,0.02654459999757819,None,41.47579509999923,41.47579509999923,41.47579509999923,41.47579509999923,41.47579509999923,41.47579509999923,41.47579509999923,41.47579509999923,41.47579509999923,41.47579509999923,,008,P020,2025_May_06_1745,ConditionRich,2021.2.3,59.948552152485895,
15.75,16.0,41,0.0,Stimuli/Blank.png,0,0,0.0,0,6,6,6,,,,,,,,,,,,,15.762736299999233,0.01273629999923287,None,45.212442900003225,45.212442900003225,45.212442900003225,45.212442900003225,45.212442900003225,45.212442900003225,45.212442900003225,45.212442900003225,45.212442900003225,45.212442900003225,,008,P020,2025_May_06_1745,ConditionRich,2021.2.3,59.948552152485895,
16.0,19.75,39,0.75,Stimuli/P020/things_wire_10s.jpg,1,1,1.75,0,7,7,7,,,,,,,,,,,,,16.015439099996,0.01543909999600146,1,45.47934979999991,45.47934979999991,45.47934979999991,45.47934979999991,45.47934979999991,45.47934979999991,46.463568800005305,47.214207400000305,45.47934979999991,45.47934979999991,1.4927107000039541,008,P020,2025_May_06_1745,ConditionRich,2021.2.3,59.948552152485895,
19.75,20.0,41,0.0,Stimuli/Blank.png,0,0,0.0,0,8,8,8,,,,,,,,,,,,,19.766336000000592,0.01633600000059232,None,49.215975900006015,49.215975900006015,49.215975900006015,49.215975900006015,49.215975900006015,49.215975900006015,49.215975900006015,49.215975900006015,49.215975900006015,49.215975900006015,,008,P020,2025_May_06_1745,ConditionRich,2021.2.3,59.948552152485895,
20.0,23.75,14,0.75,Stimuli/P020/sun_birvagufpcschyrr.jpg,0,0,0.0,0,9,9,9,,,,,,,,,,,,,20.00090569999884,0.000905699998838827,None,49.466212400002405,49.466212400002405,49.466212400002405,49.466212400002405,49.466212400002405,49.466212400002405,49.466212400002405,49.466212400002405,49.466212400002405,49.466212400002405,,008,P020,2025_May_06_1745,ConditionRich,2021.2.3,59.948552152485895,
23.75,24.0,41,0.0,Stimuli/Blank.png,0,0,0.0,0,10,10,10,,,,,,,,,,,,,23.770253399998182,0.02025339999818243,None,53.21955340000568,53.21955340000568,53.21955340000568,53.21955340000568,53.21955340000568,53.21955340000568,53.21955340000568,53.21955340000568,53.21955340000568,53.21955340000568,,008,P020,2025_May_06_1745,ConditionRich,2021.2.3,59.948552152485895,
24.0,27.75,10,0.75,Stimuli/P020/sun_bblqhrudkospnbbv.jpg,0,0,0.0,0,11,11,11,,,,,,,,,,,,,24.00281779999932,0.002817799999320414,None,53.46975860000384,53.46975860000384,53.46975860000384,53.46975860000384,53.46975860000384,53.46975860000384,53.46975860000384,53.46975860000384,53.46975860000384,53.46975860000384,,008,P020,2025_May_06_1745,ConditionRich,2021.2.3,59.948552152485895,
27.75,28.0,41,0.0,Stimuli/Blank.png,0,0,0.0,0,12,12,12,,,,,,,,,,,,,27.77309239999886,0.023092399998859037,None,57.22312629999942,57.22312629999942,57.22312629999942,57.22312629999942,57.22312629999942,57.22312629999942,57.22312629999942,57.22312629999942,57.22312629999942,57.22312629999942,,008,P020,2025_May_06_1745,ConditionRich,2021.2.3,59.948552152485895,
28.0,31.75,7,0.75,Stimuli/P020/sun_aqkbfuonyunmyqxb.jpg,0,0,0.0,0,13,13,13,,,,,,,,,,,,,28.006336999998894,0.006336999998893589,None,57.45659780000278,57.45659780000278,57.45659780000278,57.45659780000278,57.45659780000278,57.45659780000278,57.45659780000278,57.45659780000278,57.45659780000278,57.45659780000278,,008,P020,2025_May_06_1745,ConditionRich,2021.2.3,59.948552152485895,
31.75,32.0,41,0.0,Stimuli/Blank.png,0,0,0.0,0,14,14,14,,,,,,,,,,,,,31.760370500000136,0.010370500000135507,None,61.209940100001404,61.209940100001404,61.209940100001404,61.209940100001404,61.209940100001404,61.209940100001404,61.209940100001404,61.209940100001404,61.209940100001404,61.209940100001404,,008,P020,2025_May_06_1745,ConditionRich,2021.2.3,59.948552152485895,
32.0,35.75,8,0.75,Stimuli/P020/sun_avbzvunekksfggon.jpg,0,0,0.0,0,15,15,15,,,,,,,,,,,,,32.01036100000056,0.010361000000557397,None,61.46015140000236,61.46015140000236,61.46015140000236,61.46015140000236,61.46015140000236,61.46015140000236,61.46015140000236,61.46015140000236,61.46015140000236,61.46015140000236,,008,P020,2025_May_06_1745,ConditionRich,2021.2.3,59.948552152485895,
35.75,36.0,41,0.0,Stimuli/Blank.png,0,0,0.0,0,16,16,16,,,,,,,,,,,,,35.76541200000065,0.01541200000065146,None,65.2301637000055,65.2301637000055,65.2301637000055,65.2301637000055,65.2301637000055,65.2301637000055,65.2301637000055,65.2301637000055,65.2301637000055,65.2301637000055,,008,P020,2025_May_06_1745,ConditionRich,2021.2.3,59.948552152485895,
36.0,39.75,34,0.75,Stimuli/P020/things_man_10s.jpg,0,0,0.0,0,17,17,17,,,,,,,,,,,,,36.03037079999922,0.030370799999218434,None,65.48037029999978,65.48037029999978,65.48037029999978,65.48037029999978,65.48037029999978,65.48037029999978,65.48037029999978,65.48037029999978,65.48037029999978,65.48037029999978,,008,P020,2025_May_06_1745,ConditionRich,2021.2.3,59.948552152485895,
39.75,40.0,41,0.0,Stimuli/Blank.png,0,0,0.0,0,18,18,18,,,,,,,,,,,,,39.75112889999582,0.0011288999958196655,None,69.20034320000559,69.20034320000559,69.20034320000559,69.20034320000559,69.20034320000559,69.20034320000559,69.20034320000559,69.20034320000559,69.20034320000559,69.20034320000559,,008,P020,2025_May_06_1745,ConditionRich,2021.2.3,59.948552152485895,
40.0,43.75,22,0.75,Stimuli/P020/things_bead_10s.jpg,0,0,0.0,0,19,19,19,,,,,,,,,,,,,40.00129069999821,0.001290699998207856,None,69.46723520000523,69.46723520000523,69.46723520000523,69.46723520000523,69.46723520000523,69.46723520000523,69.46723520000523,69.46723520000523,69.46723520000523,69.46723520000523,,008,P020,2025_May_06_1745,ConditionRich,2021.2.3,59.948552152485895,
43.75,44.0,41,0.0,Stimuli/Blank.png,0,0,0.0,0,20,20,20,,,,,,,,,,,,,43.77136379999865,0.02136379999865312,None,73.22055879999971,73.22055879999971,73.22055879999971,73.22055879999971,73.22055879999971,73.22055879999971,73.22055879999971,73.22055879999971,73.22055879999971,73.22055879999971,,008,P020,2025_May_06_1745,ConditionRich,2021.2.3,59.948552152485895,
44.0,47.75,30,0.75,Stimuli/P020/things_flip_flop_10s.jpg,0,0,0.0,0,21,21,21,,,,,,,,,,,,,44.00664659999893,0.006646599998930469,None,73.47077740000532,73.47077740000532,73.47077740000532,73.47077740000532,73.47077740000532,73.47077740000532,73.47077740000532,73.47077740000532,73.47077740000532,73.47077740000532,,008,P020,2025_May_06_1745,ConditionRich,2021.2.3,59.948552152485895,
47.75,48.0,41,0.0,Stimuli/Blank.png,0,0,0.0,0,22,22,22,,,,,,,,,,,,,47.77589219999936,0.025892199999361765,None,77.2407852000033,77.2407852000033,77.2407852000033,77.2407852000033,77.2407852000033,77.2407852000033,77.2407852000033,77.2407852000033,77.2407852000033,77.2407852000033,,008,P020,2025_May_06_1745,ConditionRich,2021.2.3,59.948552152485895,
48.0,51.75,31,0.75,Stimuli/P020/things_fudge_10s.jpg,0,0,0.0,0,23,23,23,,,,,,,,,,,,,48.025300999994215,0.02530099999421509,None,77.47432510000363,77.47432510000363,77.47432510000363,77.47432510000363,77.47432510000363,77.47432510000363,77.47432510000363,77.47432510000363,77.47432510000363,77.47432510000363,,008,P020,2025_May_06_1745,ConditionRich,2021.2.3,59.948552152485895,
51.75,52.0,41,0.0,Stimuli/Blank.png,0,0,0.0,0,24,24,24,,,,,,,,,,,,,51.76157399999647,0.011573999996471684,None,81.21097179999924,81.21097179999924,81.21097179999924,81.21097179999924,81.21097179999924,81.21097179999924,81.21097179999924,81.21097179999924,81.21097179999924,81.21097179999924,,008,P020,2025_May_06_1745,ConditionRich,2021.2.3,59.948552152485895,
52.0,55.75,16,0.75,Stimuli/P020/sun_blfpbbfyzmewzplm.jpg,0,0,0.0,0,25,25,25,,,,,,,,,,,,,52.010973899996316,0.010973899996315595,None,81.46118019999994,81.46118019999994,81.46118019999994,81.46118019999994,81.46118019999994,81.46118019999994,81.46118019999994,81.46118019999994,81.46118019999994,81.46118019999994,,008,P020,2025_May_06_1745,ConditionRich,2021.2.3,59.948552152485895,
55.75,56.0,41,0.0,Stimuli/Blank.png,0,0,0.0,0,26,26,26,,,,,,,,,,,,,55.76489949999814,0.01489949999813689,None,85.21451850000449,85.21451850000449,85.21451850000449,85.21451850000449,85.21451850000449,85.21451850000449,85.21451850000449,85.21451850000449,85.21451850000449,85.21451850000449,,008,P020,2025_May_06_1745,ConditionRich,2021.2.3,59.948552152485895,
56.0,59.75,17,0.75,Stimuli/P020/sun_bltxkcclrpweopkl.jpg,1,3,3.75,0,27,27,27,,,,,,,,,,,,,56.01456889999827,0.014568899998266716,None,85.46473110000079,85.46473110000079,85.46473110000079,85.46473110000079,85.46473110000079,85.46473110000079,88.45070069999929,None,85.46473110000079,85.46473110000079,,008,P020,2025_May_06_1745,ConditionRich,2021.2.3,59.948552152485895,
59.75,60.0,41,0.0,Stimuli/Blank.png,0,0,0.0,0,28,28,28,,,,,,,,,,,,,59.75134139999864,0.0013413999986369163,None,89.20136640000419,89.20136640000419,89.20136640000419,89.20136640000419,89.20136640000419,89.20136640000419,89.20136640000419,89.20136640000419,89.20136640000419,89.20136640000419,,008,P020,2025_May_06_1745,ConditionRich,2021.2.3,59.948552152485895,
60.0,63.75,23,0.75,Stimuli/P020/things_boy_10s.jpg,0,0,0.0,0,29,29,29,,,,,,,,,,,,,60.00209999999788,0.002099999997881241,None,89.45157889999973,89.45157889999973,89.45157889999973,89.45157889999973,89.45157889999973,89.45157889999973,89.45157889999973,89.45157889999973,89.45157889999973,89.45157889999973,,008,P020,2025_May_06_1745,ConditionRich,2021.2.3,59.948552152485895,
63.75,64.0,41,0.0,Stimuli/Blank.png,0,0,0.0,0,30,30,30,,,,,,,,,,,,,63.755804100001114,0.005804100001114421,None,93.2049102000019,93.2049102000019,93.2049102000019,93.2049102000019,93.2049102000019,93.2049102000019,93.2049102000019,93.2049102000019,93.2049102000019,93.2049102000019,,008,P020,2025_May_06_1745,ConditionRich,2021.2.3,59.948552152485895,
64.0,67.75,2,0.75,Stimuli/P020/sun_ajhvfwzgpfovdgid.jpg,0,0,0.0,0,31,31,31,,,,,,,,,,,,,64.00606400000106,0.006064000001060776,None,93.45513080000092,93.45513080000092,93.45513080000092,93.45513080000092,93.45513080000092,93.45513080000092,93.45513080000092,93.45513080000092,93.45513080000092,93.45513080000092,,008,P020,2025_May_06_1745,ConditionRich,2021.2.3,59.948552152485895,
67.75,68.0,41,0.0,Stimuli/Blank.png,0,0,0.0,0,32,32,32,,,,,,,,,,,,,67.76041699999769,0.010416999997687526,None,97.22514710000542,97.22514710000542,97.22514710000542,97.22514710000542,97.22514710000542,97.22514710000542,97.22514710000542,97.22514710000542,97.22514710000542,97.22514710000542,,008,P020,2025_May_06_1745,ConditionRich,2021.2.3,59.948552152485895,
68.0,71.75,35,0.75,Stimuli/P020/things_pretzel_10s.jpg,0,0,0.0,0,33,33,33,,,,,,,,,,,,,68.02592809999624,0.025928099996235687,None,97.47535230000358,97.47535230000358,97.47535230000358,97.47535230000358,97.47535230000358,97.47535230000358,97.47535230000358,97.47535230000358,97.47535230000358,97.47535230000358,,008,P020,2025_May_06_1745,ConditionRich,2021.2.3,59.948552152485895,
71.75,72.0,41,0.0,Stimuli/Blank.png,0,0,0.0,0,34,34,34,,,,,,,,,,,,,71.76170329999877,0.0117032999987714,None,101.21199350000097,101.21199350000097,101.21199350000097,101.21199350000097,101.21199350000097,101.21199350000097,101.21199350000097,101.21199350000097,101.21199350000097,101.21199350000097,,008,P020,2025_May_06_1745,ConditionRich,2021.2.3,59.948552152485895,
72.0,75.75,38,0.75,Stimuli/P020/things_turtle_10n.jpg,0,0,0.0,0,35,35,35,,,,,,,,,,,,,72.01245989999734,0.012459899997338653,None,101.46222230000421,101.46222230000421,101.46222230000421,101.46222230000421,101.46222230000421,101.46222230000421,101.46222230000421,101.46222230000421,101.46222230000421,101.46222230000421,,008,P020,2025_May_06_1745,ConditionRich,2021.2.3,59.948552152485895,
75.75,76.0,41,0.0,Stimuli/Blank.png,0,0,0.0,0,36,36,36,,,,,,,,,,,,,75.7498684999955,-0.00013150000449968502,None,105.19885939999949,105.19885939999949,105.19885939999949,105.19885939999949,105.19885939999949,105.19885939999949,105.19885939999949,105.19885939999949,105.19885939999949,105.19885939999949,,008,P020,2025_May_06_1745,ConditionRich,2021.2.3,59.948552152485895,
76.0,79.75,19,0.75,Stimuli/P020/sun_byssdezaaqnthppd.jpg,0,0,0.0,0,37,37,37,,,,,,,,,,,,,75.99991959999898,-8.040000102482736e-05,None,105.46576730000379,105.46576730000379,105.46576730000379,105.46576730000379,105.46576730000379,105.46576730000379,105.46576730000379,105.46576730000379,105.46576730000379,105.46576730000379,,008,P020,2025_May_06_1745,ConditionRich,2021.2.3,59.948552152485895,
79.75,80.0,41,0.0,Stimuli/Blank.png,0,0,0.0,0,38,38,38,,,,,,,,,,,,,79.77155909999419,0.021559099994192366,None,109.23578249999991,109.23578249999991,109.23578249999991,109.23578249999991,109.23578249999991,109.23578249999991,109.23578249999991,109.23578249999991,109.23578249999991,109.23578249999991,,008,P020,2025_May_06_1745,ConditionRich,2021.2.3,59.948552152485895,
80.0,83.75,26,0.75,Stimuli/P020/things_earwig_10n.jpg,1,2,2.75,0,39,39,39,,,,,,,,,,,,,80.02028879999853,0.020288799998525064,1,109.48599839999952,109.48599839999952,109.48599839999952,109.48599839999952,109.48599839999952,109.48599839999952,111.45439790000091,112.20512589999998,109.48599839999952,109.48599839999952,2.563087700000324,008,P020,2025_May_06_1745,ConditionRich,2021.2.3,59.948552152485895,
83.75,84.0,41,0.0,Stimuli/Blank.png,0,0,0.0,0,40,40,40,,,,,,,,,,,,,83.77251460000116,0.022514600001159124,None,113.22262520000368,113.22262520000368,113.22262520000368,113.22262520000368,113.22262520000368,113.22262520000368,113.22262520000368,113.22262520000368,113.22262520000368,113.22262520000368,,008,P020,2025_May_06_1745,ConditionRich,2021.2.3,59.948552152485895,
84.0,100.0,0,0.0,Stimuli/Blank.png,1,7,7.75,0,41,41,41,,,,,,,,,,,,,84.00591149999673,0.005911499996727798,1,113.45616280000104,113.45616280000104,113.45616280000104,113.45616280000104,113.45616280000104,113.45616280000104,120.44568450000224,121.19642910000402,113.45616280000104,113.45616280000104,7.477929000000586,008,P020,2025_May_06_1745,ConditionRich,2021.2.3,59.948552152485895,
100.0,103.75,37,0.75,Stimuli/P020/things_toaster_10s.jpg,0,0,0.0,0,42,42,42,,,,,,,,,,,,,100.00568170000042,0.005681700000423007,None,129.47033450000163,129.47033450000163,129.47033450000163,129.47033450000163,129.47033450000163,129.47033450000163,129.47033450000163,129.47033450000163,129.47033450000163,129.47033450000163,,008,P020,2025_May_06_1745,ConditionRich,2021.2.3,59.948552152485895,
103.75,104.0,41,0.0,Stimuli/Blank.png,0,0,0.0,0,43,43,43,,,,,,,,,,,,,103.7756029000011,0.02560290000110399,None,133.2403531000018,133.2403531000018,133.2403531000018,133.2403531000018,133.2403531000018,133.2403531000018,133.2403531000018,133.2403531000018,133.2403531000018,133.2403531000018,,008,P020,2025_May_06_1745,ConditionRich,2021.2.3,59.948552152485895,
104.0,107.75,33,0.75,Stimuli/P020/things_insole_10s.jpg,0,0,0.0,0,44,44,44,,,,,,,,,,,,,104.02400119999947,0.02400119999947492,None,133.47387580000213,133.47387580000213,133.47387580000213,133.47387580000213,133.47387580000213,133.47387580000213,133.47387580000213,133.47387580000213,133.47387580000213,133.47387580000213,,008,P020,2025_May_06_1745,ConditionRich,2021.2.3,59.948552152485895,
107.75,108.0,41,0.0,Stimuli/Blank.png,0,0,0.0,0,45,45,45,,,,,,,,,,,,,107.76090989999648,0.01090989999647718,None,137.21052890000283,137.21052890000283,137.21052890000283,137.21052890000283,137.21052890000283,137.21052890000283,137.21052890000283,137.21052890000283,137.21052890000283,137.21052890000283,,008,P020,2025_May_06_1745,ConditionRich,2021.2.3,59.948552152485895,
108.0,111.75,6,0.75,Stimuli/P020/sun_amppcthpabgulbwl.jpg,0,0,0.0,0,46,46,46,,,,,,,,,,,,,108.01098869999987,0.010988699999870732,None,137.4607471000054,137.4607471000054,137.4607471000054,137.4607471000054,137.4607471000054,137.4607471000054,137.4607471000054,137.4607471000054,137.4607471000054,137.4607471000054,,008,P020,2025_May_06_1745,ConditionRich,2021.2.3,59.948552152485895,
111.75,112.0,41,0.0,Stimuli/Blank.png,0,0,0.0,0,47,47,47,,,,,,,,,,,,,111.76590479999868,0.015904799998679664,None,141.2307540000038,141.2307540000038,141.2307540000038,141.2307540000038,141.2307540000038,141.2307540000038,141.2307540000038,141.2307540000038,141.2307540000038,141.2307540000038,,008,P020,2025_May_06_1745,ConditionRich,2021.2.3,59.948552152485895,
112.0,115.75,29,0.75,Stimuli/P020/things_flamingo_10s.jpg,0,0,0.0,0,48,48,48,,,,,,,,,,,,,112.01596620000055,0.01596620000054827,None,141.4809727000029,141.4809727000029,141.4809727000029,141.4809727000029,141.4809727000029,141.4809727000029,141.4809727000029,141.4809727000029,141.4809727000029,141.4809727000029,,008,P020,2025_May_06_1745,ConditionRich,2021.2.3,59.948552152485895,
115.75,116.0,41,0.0,Stimuli/Blank.png,0,0,0.0,0,49,49,49,,,,,,,,,,,,,115.76767019999534,0.01767019999533659,None,145.21760170000198,145.21760170000198,145.21760170000198,145.21760170000198,145.21760170000198,145.21760170000198,145.21760170000198,145.21760170000198,145.21760170000198,145.21760170000198,,008,P020,2025_May_06_1745,ConditionRich,2021.2.3,59.948552152485895,
116.0,119.75,12,0.75,Stimuli/P020/sun_bgjrtiivbwugxhxp.jpg,0,0,0.0,0,50,50,50,,,,,,,,,,,,,116.00098779999826,0.0009877999982563779,None,145.45112100000551,145.45112100000551,145.45112100000551,145.45112100000551,145.45112100000551,145.45112100000551,145.45112100000551,145.45112100000551,145.45112100000551,145.45112100000551,,008,P020,2025_May_06_1745,ConditionRich,2021.2.3,59.948552152485895,
119.75,120.0,41,0.0,Stimuli/Blank.png,0,0,0.0,0,51,51,51,,,,,,,,,,,,,119.75413509999635,0.00413509999634698,None,149.20451719999983,149.20451719999983,149.20451719999983,149.20451719999983,149.20451719999983,149.20451719999983,149.20451719999983,149.20451719999983,149.20451719999983,149.20451719999983,,008,P020,2025_May_06_1745,ConditionRich,2021.2.3,59.948552152485895,
120.0,123.75,25,0.75,Stimuli/P020/things_chime_10s.jpg,0,0,0.0,0,52,52,52,,,,,,,,,,,,,120.00531480000063,0.005314800000633113,None,149.4713757999998,149.4713757999998,149.4713757999998,149.4713757999998,149.4713757999998,149.4713757999998,149.4713757999998,149.4713757999998,149.4713757999998,149.4713757999998,,008,P020,2025_May_06_1745,ConditionRich,2021.2.3,59.948552152485895,
123.75,124.0,41,0.0,Stimuli/Blank.png,0,0,0.0,0,53,53,53,,,,,,,,,,,,,123.7747706999944,0.02477069999440573,None,153.22469790000468,153.22469790000468,153.22469790000468,153.22469790000468,153.22469790000468,153.22469790000468,153.22469790000468,153.22469790000468,153.22469790000468,153.22469790000468,,008,P020,2025_May_06_1745,ConditionRich,2021.2.3,59.948552152485895,
124.0,127.75,21,0.75,Stimuli/P020/things_anteater_10s.jpg,1,3,3.75,0,54,54,54,,,,,,,,,,,,,124.00878349999402,0.008783499994024169,1,153.4749196000048,153.4749196000048,153.4749196000048,153.4749196000048,153.4749196000048,153.4749196000048,156.444236000003,157.19486100000358,153.4749196000048,153.4749196000048,3.5003247000058764,008,P020,2025_May_06_1745,ConditionRich,2021.2.3,59.948552152485895,
127.75,128.0,41,0.0,Stimuli/Blank.png,0,0,0.0,0,55,55,55,,,,,,,,,,,,,127.78111469999567,0.03111469999566907,None,157.244924000006,157.244924000006,157.244924000006,157.244924000006,157.244924000006,157.244924000006,157.244924000006,157.244924000006,157.244924000006,157.244924000006,,008,P020,2025_May_06_1745,ConditionRich,2021.2.3,59.948552152485895,
128.0,131.75,32,0.75,Stimuli/P020/things_girl_10s.jpg,0,0,0.0,0,56,56,56,,,,,,,,,,,,,128.03095200000098,0.03095200000097975,None,157.49514650000492,157.49514650000492,157.49514650000492,157.49514650000492,157.49514650000492,157.49514650000492,157.49514650000492,157.49514650000492,157.49514650000492,157.49514650000492,,008,P020,2025_May_06_1745,ConditionRich,2021.2.3,59.948552152485895,
131.75,132.0,41,0.0,Stimuli/Blank.png,0,0,0.0,0,57,57,57,,,,,,,,,,,,,131.7651423999996,0.015142399999604095,None,161.21510760000092,161.21510760000092,161.21510760000092,161.21510760000092,161.21510760000092,161.21510760000092,161.21510760000092,161.21510760000092,161.21510760000092,161.21510760000092,,008,P020,2025_May_06_1745,ConditionRich,2021.2.3,59.948552152485895,
132.0,135.75,27,0.75,Stimuli/P020/things_eel_10s.jpg,0,0,0.0,0,58,58,58,,,,,,,,,,,,,132.01564209999924,0.0156420999992406,None,161.46531150000374,161.46531150000374,161.46531150000374,161.46531150000374,161.46531150000374,161.46531150000374,161.46531150000374,161.46531150000374,161.46531150000374,161.46531150000374,,008,P020,2025_May_06_1745,ConditionRich,2021.2.3,59.948552152485895,
135.75,136.0,41,0.0,Stimuli/Blank.png,0,0,0.0,0,59,59,59,,,,,,,,,,,,,135.7520005999977,0.002000599997700192,None,165.20195890000468,165.20195890000468,165.20195890000468,165.20195890000468,165.20195890000468,165.20195890000468,165.20195890000468,165.20195890000468,165.20195890000468,165.20195890000468,,008,P020,2025_May_06_1745,ConditionRich,2021.2.3,59.948552152485895,
136.0,139.75,28,0.75,Stimuli/P020/things_face_10s.jpg,0,0,0.0,0,60,60,60,,,,,,,,,,,,,136.00196099999448,0.0019609999944805168,None,165.45216990000335,165.45216990000335,165.45216990000335,165.45216990000335,165.45216990000335,165.45216990000335,165.45216990000335,165.45216990000335,165.45216990000335,165.45216990000335,,008,P020,2025_May_06_1745,ConditionRich,2021.2.3,59.948552152485895,
139.75,140.0,41,0.0,Stimuli/Blank.png,0,0,0.0,0,61,61,61,,,,,,,,,,,,,139.75523939999403,0.005239399994025007,None,169.20550250000088,169.20550250000088,169.20550250000088,169.20550250000088,169.20550250000088,169.20550250000088,169.20550250000088,169.20550250000088,169.20550250000088,169.20550250000088,,008,P020,2025_May_06_1745,ConditionRich,2021.2.3,59.948552152485895,
140.0,143.75,40,0.75,Stimuli/P020/things_woman_10s.jpg,0,0,0.0,0,62,62,62,,,,,,,,,,,,,140.0054716999948,0.0054716999948141165,None,169.4557208000042,169.4557208000042,169.4557208000042,169.4557208000042,169.4557208000042,169.4557208000042,169.4557208000042,169.4557208000042,169.4557208000042,169.4557208000042,,008,P020,2025_May_06_1745,ConditionRich,2021.2.3,59.948552152485895,
143.75,144.0,41,0.0,Stimuli/Blank.png,0,0,0.0,0,63,63,63,,,,,,,,,,,,,143.76164609999978,0.011646099999779835,None,173.22573710000142,173.22573710000142,173.22573710000142,173.22573710000142,173.22573710000142,173.22573710000142,173.22573710000142,173.22573710000142,173.22573710000142,173.22573710000142,,008,P020,2025_May_06_1745,ConditionRich,2021.2.3,59.948552152485895,
144.0,147.75,24,0.75,Stimuli/P020/things_bulletin_board_10s.jpg,1,2,2.75,0,64,64,64,,,,,,,,,,,,,144.02567439999984,0.025674399999843445,1,173.47594880000543,173.47594880000543,173.47594880000543,173.47594880000543,173.47594880000543,173.47594880000543,175.46106590000272,176.2117137000023,173.47594880000543,173.47594880000543,3.12223670000094,008,P020,2025_May_06_1745,ConditionRich,2021.2.3,59.948552152485895,
147.75,148.0,41,0.0,Stimuli/Blank.png,0,0,0.0,0,65,65,65,,,,,,,,,,,,,147.76319089999743,0.013190899997425731,None,177.21264900000097,177.21264900000097,177.21264900000097,177.21264900000097,177.21264900000097,177.21264900000097,177.21264900000097,177.21264900000097,177.21264900000097,177.21264900000097,,008,P020,2025_May_06_1745,ConditionRich,2021.2.3,59.948552152485895,
148.0,151.75,36,0.75,Stimuli/P020/things_sunroof_10s.jpg,0,0,0.0,0,66,66,66,,,,,,,,,,,,,148.01260189999448,0.012601899994479027,None,177.46280410000327,177.46280410000327,177.46280410000327,177.46280410000327,177.46280410000327,177.46280410000327,177.46280410000327,177.46280410000327,177.46280410000327,177.46280410000327,,008,P020,2025_May_06_1745,ConditionRich,2021.2.3,59.948552152485895,
151.75,152.0,41,0.0,Stimuli/Blank.png,0,0,0.0,0,67,67,67,,,,,,,,,,,,,151.7505719999972,0.0005719999971915968,None,181.19946560000244,181.19946560000244,181.19946560000244,181.19946560000244,181.19946560000244,181.19946560000244,181.19946560000244,181.19946560000244,181.19946560000244,181.19946560000244,,008,P020,2025_May_06_1745,ConditionRich,2021.2.3,59.948552152485895,
152.0,155.75,13,0.75,Stimuli/P020/sun_bhzwrbdycbchqesq.jpg,1,0,0.75,0,68,68,68,,,,,,,,,,,,,151.9999822999962,-1.7700003809295595e-05,1,181.4496625000029,181.4496625000029,181.4496625000029,181.4496625000029,181.4496625000029,181.4496625000029,181.4496625000029,182.1836805999992,181.4496625000029,181.4496625000029,0.3738200000007055,008,P020,2025_May_06_1745,ConditionRich,2021.2.3,59.948552152485895,
155.75,156.0,41,0.0,Stimuli/Blank.png,0,0,0.0,0,69,69,69,,,,,,,,,,,,,155.75279949999822,0.00279949999821838,None,185.20307049999974,185.20307049999974,185.20307049999974,185.20307049999974,185.20307049999974,185.20307049999974,185.20307049999974,185.20307049999974,185.20307049999974,185.20307049999974,,008,P020,2025_May_06_1745,ConditionRich,2021.2.3,59.948552152485895,
156.0,159.75,15,0.75,Stimuli/P020/sun_bkubdnohuakmwcaj.jpg,1,1,1.75,0,70,70,70,,,,,,,,,,,,,156.00570750000043,0.00570750000042608,1,185.46990400000504,185.46990400000504,185.46990400000504,185.46990400000504,185.46990400000504,185.46990400000504,186.45410719999927,187.20475799999986,185.46990400000504,185.46990400000504,1.3784770000056596,008,P020,2025_May_06_1745,ConditionRich,2021.2.3,59.948552152485895,
159.75,160.0,41,0.0,Stimuli/Blank.png,0,0,0.0,0,71,71,71,,,,,,,,,,,,,159.77580429999944,0.025804299999435898,None,189.23990680000134,189.23990680000134,189.23990680000134,189.23990680000134,189.23990680000134,189.23990680000134,189.23990680000134,189.23990680000134,189.23990680000134,189.23990680000134,,008,P020,2025_May_06_1745,ConditionRich,2021.2.3,59.948552152485895,
160.0,163.75,3,0.75,Stimuli/P020/sun_aknrkswonrogcooi.jpg,0,0,0.0,0,72,72,72,,,,,,,,,,,,,160.0232018999959,0.023201899995910935,None,189.47343340000225,189.47343340000225,189.47343340000225,189.47343340000225,189.47343340000225,189.47343340000225,189.47343340000225,189.47343340000225,189.47343340000225,189.47343340000225,,008,P020,2025_May_06_1745,ConditionRich,2021.2.3,59.948552152485895,
163.75,164.0,41,0.0,Stimuli/Blank.png,0,0,0.0,0,73,73,73,,,,,,,,,,,,,163.76145089999773,0.011450899997726083,None,193.2100894000032,193.2100894000032,193.2100894000032,193.2100894000032,193.2100894000032,193.2100894000032,193.2100894000032,193.2100894000032,193.2100894000032,193.2100894000032,,008,P020,2025_May_06_1745,ConditionRich,2021.2.3,59.948552152485895,
164.0,167.75,1,0.75,Stimuli/P020/sun_aaaidwecchadbake.jpg,0,0,0.0,0,74,74,74,,,,,,,,,,,,,164.0107618999973,0.01076189999730559,None,193.47698060000403,193.47698060000403,193.47698060000403,193.47698060000403,193.47698060000403,193.47698060000403,193.47698060000403,193.47698060000403,193.47698060000403,193.47698060000403,,008,P020,2025_May_06_1745,ConditionRich,2021.2.3,59.948552152485895,
167.75,168.0,41,0.0,Stimuli/Blank.png,0,0,0.0,0,75,75,75,,,,,,,,,,,,,167.7801799000008,0.030179900000803173,None,197.2303064000007,197.2303064000007,197.2303064000007,197.2303064000007,197.2303064000007,197.2303064000007,197.2303064000007,197.2303064000007,197.2303064000007,197.2303064000007,,008,P020,2025_May_06_1745,ConditionRich,2021.2.3,59.948552152485895,
168.0,171.75,9,0.75,Stimuli/P020/sun_bbfmuujfvpiaqdww.jpg,0,0,0.0,0,76,76,76,,,,,,,,,,,,,168.01563299999543,0.01563299999543233,None,197.48052850000386,197.48052850000386,197.48052850000386,197.48052850000386,197.48052850000386,197.48052850000386,197.48052850000386,197.48052850000386,197.48052850000386,197.48052850000386,,008,P020,2025_May_06_1745,ConditionRich,2021.2.3,59.948552152485895,
171.75,172.0,41,0.0,Stimuli/Blank.png,0,0,0.0,0,77,77,77,,,,,,,,,,,,,171.76771929999813,0.017719299998134375,None,201.217157900006,201.217157900006,201.217157900006,201.217157900006,201.217157900006,201.217157900006,201.217157900006,201.217157900006,201.217157900006,201.217157900006,,008,P020,2025_May_06_1745,ConditionRich,2021.2.3,59.948552152485895,
172.0,175.75,20,0.75,Stimuli/P020/sun_dlnwonqxagdvtlta.jpg,0,0,0.0,0,78,78,78,,,,,,,,,,,,,172.00148699999409,0.001486999994085636,None,201.46738650000043,201.46738650000043,201.46738650000043,201.46738650000043,201.46738650000043,201.46738650000043,201.46738650000043,201.46738650000043,201.46738650000043,201.46738650000043,,008,P020,2025_May_06_1745,ConditionRich,2021.2.3,59.948552152485895,
175.75,176.0,41,0.0,Stimuli/Blank.png,0,0,0.0,0,79,79,79,,,,,,,,,,,,,175.7704750999983,0.020475099998293445,None,205.2207028000048,205.2207028000048,205.2207028000048,205.2207028000048,205.2207028000048,205.2207028000048,205.2207028000048,205.2207028000048,205.2207028000048,205.2207028000048,,008,P020,2025_May_06_1745,ConditionRich,2021.2.3,59.948552152485895,
176.0,179.75,5,0.75,Stimuli/P020/sun_amjqxnqvhovkotym.jpg,0,0,0.0,0,80,80,80,,,,,,,,,,,,,176.00563369999873,0.005633699998725206,None,205.47093360000144,205.47093360000144,205.47093360000144,205.47093360000144,205.47093360000144,205.47093360000144,205.47093360000144,205.47093360000144,205.47093360000144,205.47093360000144,,008,P020,2025_May_06_1745,ConditionRich,2021.2.3,59.948552152485895,
179.75,180.0,41,0.0,Stimuli/Blank.png,0,0,0.0,0,81,81,81,,,,,,,,,,,,,179.77647249999427,0.026472499994270038,None,209.24094630000036,209.24094630000036,209.24094630000036,209.24094630000036,209.24094630000036,209.24094630000036,209.24094630000036,209.24094630000036,209.24094630000036,209.24094630000036,,008,P020,2025_May_06_1745,ConditionRich,2021.2.3,59.948552152485895,
180.0,196.0,0,0.0,Stimuli/Blank.png,1,11,11.75,0,82,82,82,,,,,,,,,,,,,180.02555679999932,0.02555679999932181,1,209.47448129999975,209.47448129999975,209.47448129999975,209.47448129999975,209.47448129999975,209.47448129999975,220.46753470000112,221.21823420000146,209.47448129999975,209.47448129999975,11.299932699999772,008,P020,2025_May_06_1745,ConditionRich,2021.2.3,59.948552152485895,
196.0,199.75,3,0.75,Stimuli/P020/sun_aknrkswonrogcooi.jpg,0,0,0.0,0,83,83,83,,,,,,,,,,,,,196.00641850000102,0.006418500001018401,None,225.47197900000174,225.47197900000174,225.47197900000174,225.47197900000174,225.47197900000174,225.47197900000174,225.47197900000174,225.47197900000174,225.47197900000174,225.47197900000174,,008,P020,2025_May_06_1745,ConditionRich,2021.2.3,59.948552152485895,
199.75,200.0,41,0.0,Stimuli/Blank.png,0,0,0.0,0,84,84,84,,,,,,,,,,,,,199.77558660000068,0.025586600000679027,None,229.22528270000475,229.22528270000475,229.22528270000475,229.22528270000475,229.22528270000475,229.22528270000475,229.22528270000475,229.22528270000475,229.22528270000475,229.22528270000475,,008,P020,2025_May_06_1745,ConditionRich,2021.2.3,59.948552152485895,
200.0,203.75,34,0.75,Stimuli/P020/things_man_10s.jpg,1,3,3.75,0,85,85,85,,,,,,,,,,,,,200.0084782999984,0.008478299998387229,1,229.45882279999933,229.45882279999933,229.45882279999933,229.45882279999933,229.45882279999933,229.45882279999933,232.44480010000552,233.19546500000433,229.45882279999933,229.45882279999933,3.4174093999972683,008,P020,2025_May_06_1745,ConditionRich,2021.2.3,59.948552152485895,
203.75,204.0,41,0.0,Stimuli/Blank.png,0,0,0.0,0,86,86,86,,,,,,,,,,,,,203.76276869999856,0.012768699998559896,None,233.21214030000556,233.21214030000556,233.21214030000556,233.21214030000556,233.21214030000556,233.21214030000556,233.21214030000556,233.21214030000556,233.21214030000556,233.21214030000556,,008,P020,2025_May_06_1745,ConditionRich,2021.2.3,59.948552152485895,
204.0,207.75,26,0.75,Stimuli/P020/things_earwig_10n.jpg,0,0,0.0,0,87,87,87,,,,,,,,,,,,,204.0122393999991,0.012239399999089073,None,233.46236630000203,233.46236630000203,233.46236630000203,233.46236630000203,233.46236630000203,233.46236630000203,233.46236630000203,233.46236630000203,233.46236630000203,233.46236630000203,,008,P020,2025_May_06_1745,ConditionRich,2021.2.3,59.948552152485895,
207.75,208.0,41,0.0,Stimuli/Blank.png,0,0,0.0,0,88,88,88,,,,,,,,,,,,,207.7662427999967,0.016242799996689428,None,237.21569110000564,237.21569110000564,237.21569110000564,237.21569110000564,237.21569110000564,237.21569110000564,237.21569110000564,237.21569110000564,237.21569110000564,237.21569110000564,,008,P020,2025_May_06_1745,ConditionRich,2021.2.3,59.948552152485895,
208.0,211.75,16,0.75,Stimuli/P020/sun_blfpbbfyzmewzplm.jpg,0,0,0.0,0,89,89,89,,,,,,,,,,,,,208.00006239999493,6.239999493118376e-05,None,237.46591820000322,237.46591820000322,237.46591820000322,237.46591820000322,237.46591820000322,237.46591820000322,237.46591820000322,237.46591820000322,237.46591820000322,237.46591820000322,,008,P020,2025_May_06_1745,ConditionRich,2021.2.3,59.948552152485895,
211.75,212.0,41,0.0,Stimuli/Blank.png,0,0,0.0,0,90,90,90,,,,,,,,,,,,,211.77094059999945,0.02094059999944875,None,241.2192853000015,241.2192853000015,241.2192853000015,241.2192853000015,241.2192853000015,241.2192853000015,241.2192853000015,241.2192853000015,241.2192853000015,241.2192853000015,,008,P020,2025_May_06_1745,ConditionRich,2021.2.3,59.948552152485895,
212.0,215.75,2,0.75,Stimuli/P020/sun_ajhvfwzgpfovdgid.jpg,0,0,0.0,0,91,91,91,,,,,,,,,,,,,212.00265769999532,0.002657699995324947,None,241.46946820000448,241.46946820000448,241.46946820000448,241.46946820000448,241.46946820000448,241.46946820000448,241.46946820000448,241.46946820000448,241.46946820000448,241.46946820000448,,008,P020,2025_May_06_1745,ConditionRich,2021.2.3,59.948552152485895,
215.75,216.0,41,0.0,Stimuli/Blank.png,0,0,0.0,0,92,92,92,,,,,,,,,,,,,215.77261670000007,0.022616700000071432,None,245.22281180000573,245.22281180000573,245.22281180000573,245.22281180000573,245.22281180000573,245.22281180000573,245.22281180000573,245.22281180000573,245.22281180000573,245.22281180000573,,008,P020,2025_May_06_1745,ConditionRich,2021.2.3,59.948552152485895,
216.0,219.75,14,0.75,Stimuli/P020/sun_birvagufpcschyrr.jpg,0,0,0.0,0,93,93,93,,,,,,,,,,,,,216.006054999998,0.006054999998013955,None,245.45631400000275,245.45631400000275,245.45631400000275,245.45631400000275,245.45631400000275,245.45631400000275,245.45631400000275,245.45631400000275,245.45631400000275,245.45631400000275,,008,P020,2025_May_06_1745,ConditionRich,2021.2.3,59.948552152485895,
219.75,220.0,41,0.0,Stimuli/Blank.png,0,0,0.0,0,94,94,94,,,,,,,,,,,,,219.76091910000105,0.0109191000010469,None,249.209657600004,249.209657600004,249.209657600004,249.209657600004,249.209657600004,249.209657600004,249.209657600004,249.209657600004,249.209657600004,249.209657600004,,008,P020,2025_May_06_1745,ConditionRich,2021.2.3,59.948552152485895,
220.0,223.75,13,0.75,Stimuli/P020/sun_bhzwrbdycbchqesq.jpg,0,0,0.0,0,95,95,95,,,,,,,,,,,,,220.01017809999757,0.010178099997574463,None,249.46003930000006,249.46003930000006,249.46003930000006,249.46003930000006,249.46003930000006,249.46003930000006,249.46003930000006,249.46003930000006,249.46003930000006,249.46003930000006,,008,P020,2025_May_06_1745,ConditionRich,2021.2.3,59.948552152485895,
223.75,224.0,41,0.0,Stimuli/Blank.png,0,0,0.0,0,96,96,96,,,,,,,,,,,,,223.76559429999907,0.015594299999065697,None,253.22988570000598,253.22988570000598,253.22988570000598,253.22988570000598,253.22988570000598,253.22988570000598,253.22988570000598,253.22988570000598,253.22988570000598,253.22988570000598,,008,P020,2025_May_06_1745,ConditionRich,2021.2.3,59.948552152485895,
224.0,227.75,8,0.75,Stimuli/P020/sun_avbzvunekksfggon.jpg,0,0,0.0,0,97,97,97,,,,,,,,,,,,,224.0152151000002,0.015215100000204984,None,253.48008320000372,253.48008320000372,253.48008320000372,253.48008320000372,253.48008320000372,253.48008320000372,253.48008320000372,253.48008320000372,253.48008320000372,253.48008320000372,,008,P020,2025_May_06_1745,ConditionRich,2021.2.3,59.948552152485895,
227.75,228.0,41,0.0,Stimuli/Blank.png,0,0,0.0,0,98,98,98,,,,,,,,,,,,,227.76655860000028,0.01655860000028042,None,257.21672730000137,257.21672730000137,257.21672730000137,257.21672730000137,257.21672730000137,257.21672730000137,257.21672730000137,257.21672730000137,257.21672730000137,257.21672730000137,,008,P020,2025_May_06_1745,ConditionRich,2021.2.3,59.948552152485895,
228.0,231.75,39,0.75,Stimuli/P020/things_wire_10s.jpg,0,0,0.0,0,99,99,99,,,,,,,,,,,,,228.00153090000094,0.0015309000009438023,None,257.4669572999992,257.4669572999992,257.4669572999992,257.4669572999992,257.4669572999992,257.4669572999992,257.4669572999992,257.4669572999992,257.4669572999992,257.4669572999992,,008,P020,2025_May_06_1745,ConditionRich,2021.2.3,59.948552152485895,
231.75,232.0,41,0.0,Stimuli/Blank.png,0,0,0.0,0,100,100,100,,,,,,,,,,,,,231.77012869999453,0.020128699994529597,None,261.22026310000365,261.22026310000365,261.22026310000365,261.22026310000365,261.22026310000365,261.22026310000365,261.22026310000365,261.22026310000365,261.22026310000365,261.22026310000365,,008,P020,2025_May_06_1745,ConditionRich,2021.2.3,59.948552152485895,
232.0,235.75,12,0.75,Stimuli/P020/sun_bgjrtiivbwugxhxp.jpg,0,0,0.0,0,101,101,101,,,,,,,,,,,,,232.00517609999952,0.005176099999516737,None,261.47048129999894,261.47048129999894,261.47048129999894,261.47048129999894,261.47048129999894,261.47048129999894,261.47048129999894,261.47048129999894,261.47048129999894,261.47048129999894,,008,P020,2025_May_06_1745,ConditionRich,2021.2.3,59.948552152485895,
235.75,236.0,41,0.0,Stimuli/Blank.png,0,0,0.0,0,102,102,102,,,,,,,,,,,,,235.77566029999434,0.025660299994342495,None,265.24051670000335,265.24051670000335,265.24051670000335,265.24051670000335,265.24051670000335,265.24051670000335,265.24051670000335,265.24051670000335,265.24051670000335,265.24051670000335,,008,P020,2025_May_06_1745,ConditionRich,2021.2.3,59.948552152485895,
236.0,239.75,24,0.75,Stimuli/P020/things_bulletin_board_10s.jpg,1,3,3.75,0,103,103,103,,,,,,,,,,,,,236.02592029999505,0.0259202999950503,1,265.49070850000135,265.49070850000135,265.49070850000135,265.49070850000135,265.49070850000135,265.49070850000135,268.47668310000154,None,265.49070850000135,265.49070850000135,3.3626239000004716,008,P020,2025_May_06_1745,ConditionRich,2021.2.3,59.948552152485895,
239.75,240.0,41,0.0,Stimuli/Blank.png,0,0,0.0,0,104,104,104,,,,,,,,,,,,,239.77791169999546,0.02791169999545673,None,269.22735359999933,269.22735359999933,269.22735359999933,269.22735359999933,269.22735359999933,269.22735359999933,269.22735359999933,269.22735359999933,269.22735359999933,269.22735359999933,,008,P020,2025_May_06_1745,ConditionRich,2021.2.3,59.948552152485895,
240.0,243.75,21,0.75,Stimuli/P020/things_anteater_10s.jpg,0,0,0.0,0,105,105,105,,,,,,,,,,,,,240.0114864999996,0.011486499999591615,None,269.4775776000024,269.4775776000024,269.4775776000024,269.4775776000024,269.4775776000024,269.4775776000024,269.4775776000024,269.4775776000024,269.4775776000024,269.4775776000024,,008,P020,2025_May_06_1745,ConditionRich,2021.2.3,59.948552152485895,
243.75,244.0,41,0.0,Stimuli/Blank.png,0,0,0.0,0,106,106,106,,,,,,,,,,,,,243.78153239999665,0.031532399996649474,None,273.23089600000094,273.23089600000094,273.23089600000094,273.23089600000094,273.23089600000094,273.23089600000094,273.23089600000094,273.23089600000094,273.23089600000094,273.23089600000094,,008,P020,2025_May_06_1745,ConditionRich,2021.2.3,59.948552152485895,
244.0,247.75,32,0.75,Stimuli/P020/things_girl_10s.jpg,0,0,0.0,0,107,107,107,,,,,,,,,,,,,244.0164031999957,0.016403199995693285,None,273.481114400005,273.481114400005,273.481114400005,273.481114400005,273.481114400005,273.481114400005,273.481114400005,273.481114400005,273.481114400005,273.481114400005,,008,P020,2025_May_06_1745,ConditionRich,2021.2.3,59.948552152485895,
247.75,248.0,41,0.0,Stimuli/Blank.png,0,0,0.0,0,108,108,108,,,,,,,,,,,,,247.7676133999994,0.017613399999390822,None,277.217753500001,277.217753500001,277.217753500001,277.217753500001,277.217753500001,277.217753500001,277.217753500001,277.217753500001,277.217753500001,277.217753500001,,008,P020,2025_May_06_1745,ConditionRich,2021.2.3,59.948552152485895,
248.0,251.75,20,0.75,Stimuli/P020/sun_dlnwonqxagdvtlta.jpg,0,0,0.0,0,109,109,109,,,,,,,,,,,,,248.00150849999773,0.001508499997726176,None,277.4513236999992,277.4513236999992,277.4513236999992,277.4513236999992,277.4513236999992,277.4513236999992,277.4513236999992,277.4513236999992,277.4513236999992,277.4513236999992,,008,P020,2025_May_06_1745,ConditionRich,2021.2.3,59.948552152485895,
251.75,252.0,41,0.0,Stimuli/Blank.png,0,0,0.0,0,110,110,110,,,,,,,,,,,,,251.75584159999562,0.005841599995619617,None,281.20462970000517,281.20462970000517,281.20462970000517,281.20462970000517,281.20462970000517,281.20462970000517,281.20462970000517,281.20462970000517,281.20462970000517,281.20462970000517,,008,P020,2025_May_06_1745,ConditionRich,2021.2.3,59.948552152485895,
252.0,255.75,15,0.75,Stimuli/P020/sun_bkubdnohuakmwcaj.jpg,0,0,0.0,0,111,111,111,,,,,,,,,,,,,252.0056040999989,0.005604099998890888,None,281.4715182,281.4715182,281.4715182,281.4715182,281.4715182,281.4715182,281.4715182,281.4715182,281.4715182,281.4715182,,008,P020,2025_May_06_1745,ConditionRich,2021.2.3,59.948552152485895,
255.75,256.0,41,0.0,Stimuli/Blank.png,0,0,0.0,0,112,112,112,,,,,,,,,,,,,255.77455039999768,0.02455039999767905,None,285.2248630000031,285.2248630000031,285.2248630000031,285.2248630000031,285.2248630000031,285.2248630000031,285.2248630000031,285.2248630000031,285.2248630000031,285.2248630000031,,008,P020,2025_May_06_1745,ConditionRich,2021.2.3,59.948552152485895,
256.0,259.75,11,0.75,Stimuli/P020/sun_bcbfjkoziukwmdkd.jpg,0,0,0.0,0,113,113,113,,,,,,,,,,,,,256.0110005999959,0.011000599995895755,None,285.47506599999906,285.47506599999906,285.47506599999906,285.47506599999906,285.47506599999906,285.47506599999906,285.47506599999906,285.47506599999906,285.47506599999906,285.47506599999906,,008,P020,2025_May_06_1745,ConditionRich,2021.2.3,59.948552152485895,
259.75,260.0,41,0.0,Stimuli/Blank.png,0,0,0.0,0,114,114,114,,,,,,,,,,,,,259.7808981999988,0.030898199998773634,None,289.24507129999984,289.24507129999984,289.24507129999984,289.24507129999984,289.24507129999984,289.24507129999984,289.24507129999984,289.24507129999984,289.24507129999984,289.24507129999984,,008,P020,2025_May_06_1745,ConditionRich,2021.2.3,59.948552152485895,
260.0,263.75,40,0.75,Stimuli/P020/things_woman_10s.jpg,1,3,3.75,0,115,115,115,,,,,,,,,,,,,260.0283943999966,0.028394399996614084,1,289.4952928999992,289.4952928999992,289.4952928999992,289.4952928999992,289.4952928999992,289.4952928999992,292.464621500003,293.21525380000094,289.4952928999992,289.4952928999992,3.4212689000050887,008,P020,2025_May_06_1745,ConditionRich,2021.2.3,59.948552152485895,
263.75,264.0,41,0.0,Stimuli/Blank.png,0,0,0.0,0,116,116,116,,,,,,,,,,,,,263.7818894999946,0.03188949999457691,None,293.2319534000053,293.2319534000053,293.2319534000053,293.2319534000053,293.2319534000053,293.2319534000053,293.2319534000053,293.2319534000053,293.2319534000053,293.2319534000053,,008,P020,2025_May_06_1745,ConditionRich,2021.2.3,59.948552152485895,
264.0,267.75,35,0.75,Stimuli/P020/things_pretzel_10s.jpg,1,0,0.75,0,117,117,117,,,,,,,,,,,,,264.01626759999635,0.016267599996353965,1,293.4654862000025,293.4654862000025,293.4654862000025,293.4654862000025,293.4654862000025,293.4654862000025,293.4654862000025,294.1994529000003,293.4654862000025,293.4654862000025,0.4368541000003461,008,P020,2025_May_06_1745,ConditionRich,2021.2.3,59.948552152485895,
267.75,268.0,41,0.0,Stimuli/Blank.png,0,0,0.0,0,118,118,118,,,,,,,,,,,,,267.7518306999991,0.0018306999991182238,None,297.2021038000021,297.2021038000021,297.2021038000021,297.2021038000021,297.2021038000021,297.2021038000021,297.2021038000021,297.2021038000021,297.2021038000021,297.2021038000021,,008,P020,2025_May_06_1745,ConditionRich,2021.2.3,59.948552152485895,
268.0,271.75,27,0.75,Stimuli/P020/things_eel_10s.jpg,1,0,0.75,0,119,119,119,,,,,,,,,,,,,268.0032657999982,0.0032657999981893227,1,297.4690125000052,297.4690125000052,297.4690125000052,297.4690125000052,297.4690125000052,297.4690125000052,297.4690125000052,298.1863094,297.4690125000052,297.4690125000052,0.4775026999996044,008,P020,2025_May_06_1745,ConditionRich,2021.2.3,59.948552152485895,
271.75,272.0,41,0.0,Stimuli/Blank.png,0,0,0.0,0,120,120,120,,,,,,,,,,,,,271.7722342999987,0.022234299998672213,None,301.22233560000313,301.22233560000313,301.22233560000313,301.22233560000313,301.22233560000313,301.22233560000313,301.22233560000313,301.22233560000313,301.22233560000313,301.22233560000313,,008,P020,2025_May_06_1745,ConditionRich,2021.2.3,59.948552152485895,
272.0,275.75,6,0.75,Stimuli/P020/sun_amppcthpabgulbwl.jpg,0,0,0.0,0,121,121,121,,,,,,,,,,,,,272.00629659999686,0.006296599996858276,None,301.47258110000257,301.47258110000257,301.47258110000257,301.47258110000257,301.47258110000257,301.47258110000257,301.47258110000257,301.47258110000257,301.47258110000257,301.47258110000257,,008,P020,2025_May_06_1745,ConditionRich,2021.2.3,59.948552152485895,
275.75,276.0,41,0.0,Stimuli/Blank.png,0,0,0.0,0,122,122,122,,,,,,,,,,,,,275.77628019999975,0.0262801999997464,None,305.2258459000004,305.2258459000004,305.2258459000004,305.2258459000004,305.2258459000004,305.2258459000004,305.2258459000004,305.2258459000004,305.2258459000004,305.2258459000004,,008,P020,2025_May_06_1745,ConditionRich,2021.2.3,59.948552152485895,
276.0,292.0,0,0.0,Stimuli/Blank.png,1,2,2.75,0,123,123,123,,,,,,,,,,,,,276.01013789999706,0.01013789999706205,1,305.45941960000346,305.45941960000346,305.45941960000346,305.45941960000346,305.45941960000346,305.45941960000346,307.444524999999,308.1951373000047,305.45941960000346,305.45941960000346,2.578024299997196,008,P020,2025_May_06_1745,ConditionRich,2021.2.3,59.948552152485895,
292.0,295.75,25,0.75,Stimuli/P020/things_chime_10s.jpg,0,0,0.0,0,124,124,124,,,,,,,,,,,,,292.00738640000054,0.007386400000541471,None,321.4568462000025,321.4568462000025,321.4568462000025,321.4568462000025,321.4568462000025,321.4568462000025,321.4568462000025,321.4568462000025,321.4568462000025,321.4568462000025,,008,P020,2025_May_06_1745,ConditionRich,2021.2.3,59.948552152485895,
295.75,296.0,41,0.0,Stimuli/Blank.png,0,0,0.0,0,125,125,125,,,,,,,,,,,,,295.75996199999645,0.009961999996448867,None,325.2102229000011,325.2102229000011,325.2102229000011,325.2102229000011,325.2102229000011,325.2102229000011,325.2102229000011,325.2102229000011,325.2102229000011,325.2102229000011,,008,P020,2025_May_06_1745,ConditionRich,2021.2.3,59.948552152485895,
296.0,299.75,23,0.75,Stimuli/P020/things_boy_10s.jpg,0,0,0.0,0,126,126,126,,,,,,,,,,,,,296.01023309999437,0.010233099994366057,None,325.46043640000426,325.46043640000426,325.46043640000426,325.46043640000426,325.46043640000426,325.46043640000426,325.46043640000426,325.46043640000426,325.46043640000426,325.46043640000426,,008,P020,2025_May_06_1745,ConditionRich,2021.2.3,59.948552152485895,
299.75,300.0,41,0.0,Stimuli/Blank.png,0,0,0.0,0,127,127,127,,,,,,,,,,,,,299.7657474999942,0.015747499994176906,None,329.2304801999999,329.2304801999999,329.2304801999999,329.2304801999999,329.2304801999999,329.2304801999999,329.2304801999999,329.2304801999999,329.2304801999999,329.2304801999999,,008,P020,2025_May_06_1745,ConditionRich,2021.2.3,59.948552152485895,
300.0,303.75,4,0.75,Stimuli/P020/sun_amixpbnrxiulfsri.jpg,0,0,0.0,0,128,128,128,,,,,,,,,,,,,300.01598119999835,0.01598119999835035,None,329.48067530000117,329.48067530000117,329.48067530000117,329.48067530000117,329.48067530000117,329.48067530000117,329.48067530000117,329.48067530000117,329.48067530000117,329.48067530000117,,008,P020,2025_May_06_1745,ConditionRich,2021.2.3,59.948552152485895,
303.75,304.0,41,0.0,Stimuli/Blank.png,0,0,0.0,0,129,129,129,,,,,,,,,,,,,303.76813079999556,0.018130799995560665,None,333.2173053000006,333.2173053000006,333.2173053000006,333.2173053000006,333.2173053000006,333.2173053000006,333.2173053000006,333.2173053000006,333.2173053000006,333.2173053000006,,008,P020,2025_May_06_1745,ConditionRich,2021.2.3,59.948552152485895,
304.0,307.75,22,0.75,Stimuli/P020/things_bead_10s.jpg,0,0,0.0,0,130,130,130,,,,,,,,,,,,,304.0016933999941,0.001693399994110223,None,333.4675365000003,333.4675365000003,333.4675365000003,333.4675365000003,333.4675365000003,333.4675365000003,333.4675365000003,333.4675365000003,333.4675365000003,333.4675365000003,,008,P020,2025_May_06_1745,ConditionRich,2021.2.3,59.948552152485895,
307.75,308.0,41,0.0,Stimuli/Blank.png,0,0,0.0,0,131,131,131,,,,,,,,,,,,,307.7712442999982,0.021244299998215865,None,337.2208537000042,337.2208537000042,337.2208537000042,337.2208537000042,337.2208537000042,337.2208537000042,337.2208537000042,337.2208537000042,337.2208537000042,337.2208537000042,,008,P020,2025_May_06_1745,ConditionRich,2021.2.3,59.948552152485895,
308.0,311.75,31,0.75,Stimuli/P020/things_fudge_10s.jpg,0,0,0.0,0,132,132,132,,,,,,,,,,,,,308.007798300001,0.007798300001013558,None,337.4710850000047,337.4710850000047,337.4710850000047,337.4710850000047,337.4710850000047,337.4710850000047,337.4710850000047,337.4710850000047,337.4710850000047,337.4710850000047,,008,P020,2025_May_06_1745,ConditionRich,2021.2.3,59.948552152485895,
311.75,312.0,41,0.0,Stimuli/Blank.png,0,0,0.0,0,133,133,133,,,,,,,,,,,,,311.77609709999524,0.02609709999524057,None,341.2410843000034,341.2410843000034,341.2410843000034,341.2410843000034,341.2410843000034,341.2410843000034,341.2410843000034,341.2410843000034,341.2410843000034,341.2410843000034,,008,P020,2025_May_06_1745,ConditionRich,2021.2.3,59.948552152485895,
312.0,315.75,36,0.75,Stimuli/P020/things_sunroof_10s.jpg,0,0,0.0,0,134,134,134,,,,,,,,,,,,,312.02714999999444,0.027149999994435348,None,341.4913033000048,341.4913033000048,341.4913033000048,341.4913033000048,341.4913033000048,341.4913033000048,341.4913033000048,341.4913033000048,341.4913033000048,341.4913033000048,,008,P020,2025_May_06_1745,ConditionRich,2021.2.3,59.948552152485895,
315.75,316.0,41,0.0,Stimuli/Blank.png,0,0,0.0,0,135,135,135,,,,,,,,,,,,,315.77835299999424,0.028352999994240236,None,345.22791829999915,345.22791829999915,345.22791829999915,345.22791829999915,345.22791829999915,345.22791829999915,345.22791829999915,345.22791829999915,345.22791829999915,345.22791829999915,,008,P020,2025_May_06_1745,ConditionRich,2021.2.3,59.948552152485895,
316.0,319.75,7,0.75,Stimuli/P020/sun_aqkbfuonyunmyqxb.jpg,0,0,0.0,0,136,136,136,,,,,,,,,,,,,316.0113194000005,0.011319400000502355,None,345.46147680000286,345.46147680000286,345.46147680000286,345.46147680000286,345.46147680000286,345.46147680000286,345.46147680000286,345.46147680000286,345.46147680000286,345.46147680000286,,008,P020,2025_May_06_1745,ConditionRich,2021.2.3,59.948552152485895,
319.75,320.0,41,0.0,Stimuli/Blank.png,0,0,0.0,0,137,137,137,,,,,,,,,,,,,319.7645498999991,0.014549899999110494,None,349.2148023000045,349.2148023000045,349.2148023000045,349.2148023000045,349.2148023000045,349.2148023000045,349.2148023000045,349.2148023000045,349.2148023000045,349.2148023000045,,008,P020,2025_May_06_1745,ConditionRich,2021.2.3,59.948552152485895,
320.0,323.75,38,0.75,Stimuli/P020/things_turtle_10n.jpg,0,0,0.0,0,138,138,138,,,,,,,,,,,,,320.01491410000017,0.014914100000169128,None,349.46502899999905,349.46502899999905,349.46502899999905,349.46502899999905,349.46502899999905,349.46502899999905,349.46502899999905,349.46502899999905,349.46502899999905,349.46502899999905,,008,P020,2025_May_06_1745,ConditionRich,2021.2.3,59.948552152485895,
323.75,324.0,41,0.0,Stimuli/Blank.png,0,0,0.0,0,139,139,139,,,,,,,,,,,,,323.7514866999991,0.0014866999990772456,None,353.2016771000053,353.2016771000053,353.2016771000053,353.2016771000053,353.2016771000053,353.2016771000053,353.2016771000053,353.2016771000053,353.2016771000053,353.2016771000053,,008,P020,2025_May_06_1745,ConditionRich,2021.2.3,59.948552152485895,
324.0,327.75,5,0.75,Stimuli/P020/sun_amjqxnqvhovkotym.jpg,1,2,2.75,0,140,140,140,,,,,,,,,,,,,324.00166829999944,0.001668299999437295,1,353.4518817999997,353.4518817999997,353.4518817999997,353.4518817999997,353.4518817999997,353.4518817999997,355.4369866000052,356.1877028000017,353.4518817999997,353.4518817999997,2.5585960000025807,008,P020,2025_May_06_1745,ConditionRich,2021.2.3,59.948552152485895,
327.75,328.0,41,0.0,Stimuli/Blank.png,0,0,0.0,0,141,141,141,,,,,,,,,,,,,327.7558480000007,0.005848000000696629,None,357.20521480000025,357.20521480000025,357.20521480000025,357.20521480000025,357.20521480000025,357.20521480000025,357.20521480000025,357.20521480000025,357.20521480000025,357.20521480000025,,008,P020,2025_May_06_1745,ConditionRich,2021.2.3,59.948552152485895,
328.0,331.75,17,0.75,Stimuli/P020/sun_bltxkcclrpweopkl.jpg,0,0,0.0,0,142,142,142,,,,,,,,,,,,,328.0064540999956,0.006454099995607976,None,357.45543590000307,357.45543590000307,357.45543590000307,357.45543590000307,357.45543590000307,357.45543590000307,357.45543590000307,357.45543590000307,357.45543590000307,357.45543590000307,,008,P020,2025_May_06_1745,ConditionRich,2021.2.3,59.948552152485895,
331.75,332.0,41,0.0,Stimuli/Blank.png,0,0,0.0,0,143,143,143,,,,,,,,,,,,,331.7594897999952,0.009489799995208159,None,361.2088554000002,361.2088554000002,361.2088554000002,361.2088554000002,361.2088554000002,361.2088554000002,361.2088554000002,361.2088554000002,361.2088554000002,361.2088554000002,,008,P020,2025_May_06_1745,ConditionRich,2021.2.3,59.948552152485895,
332.0,335.75,19,0.75,Stimuli/P020/sun_byssdezaaqnthppd.jpg,0,0,0.0,0,144,144,144,,,,,,,,,,,,,332.0111548999994,0.011154899999382906,None,361.4756555999993,361.4756555999993,361.4756555999993,361.4756555999993,361.4756555999993,361.4756555999993,361.4756555999993,361.4756555999993,361.4756555999993,361.4756555999993,,008,P020,2025_May_06_1745,ConditionRich,2021.2.3,59.948552152485895,
335.75,336.0,41,0.0,Stimuli/Blank.png,0,0,0.0,0,145,145,145,,,,,,,,,,,,,335.78103030000057,0.031030300000566058,None,365.24566120000236,365.24566120000236,365.24566120000236,365.24566120000236,365.24566120000236,365.24566120000236,365.24566120000236,365.24566120000236,365.24566120000236,365.24566120000236,,008,P020,2025_May_06_1745,ConditionRich,2021.2.3,59.948552152485895,
336.0,339.75,1,0.75,Stimuli/P020/sun_aaaidwecchadbake.jpg,0,0,0.0,0,146,146,146,,,,,,,,,,,,,336.031132600001,0.031132600001001265,None,365.4958786999996,365.4958786999996,365.4958786999996,365.4958786999996,365.4958786999996,365.4958786999996,365.4958786999996,365.4958786999996,365.4958786999996,365.4958786999996,,008,P020,2025_May_06_1745,ConditionRich,2021.2.3,59.948552152485895,
339.75,340.0,41,0.0,Stimuli/Blank.png,0,0,0.0,0,147,147,147,,,,,,,,,,,,,339.7655648,0.015564799999992829,None,369.2158103000038,369.2158103000038,369.2158103000038,369.2158103000038,369.2158103000038,369.2158103000038,369.2158103000038,369.2158103000038,369.2158103000038,369.2158103000038,,008,P020,2025_May_06_1745,ConditionRich,2021.2.3,59.948552152485895,
340.0,343.75,29,0.75,Stimuli/P020/things_flamingo_10s.jpg,0,0,0.0,0,148,148,148,,,,,,,,,,,,,339.99973209999735,-0.00026790000265464187,None,369.4493791000059,369.4493791000059,369.4493791000059,369.4493791000059,369.4493791000059,369.4493791000059,369.4493791000059,369.4493791000059,369.4493791000059,369.4493791000059,,008,P020,2025_May_06_1745,ConditionRich,2021.2.3,59.948552152485895,
343.75,344.0,41,0.0,Stimuli/Blank.png,0,0,0.0,0,149,149,149,,,,,,,,,,,,,343.7533834999995,0.0033834999994724058,None,373.202698699999,373.202698699999,373.202698699999,373.202698699999,373.202698699999,373.202698699999,373.202698699999,373.202698699999,373.202698699999,373.202698699999,,008,P020,2025_May_06_1745,ConditionRich,2021.2.3,59.948552152485895,
344.0,347.75,28,0.75,Stimuli/P020/things_face_10s.jpg,0,0,0.0,0,150,150,150,,,,,,,,,,,,,344.0028764999952,0.0028764999951818027,None,373.4529208000022,373.4529208000022,373.4529208000022,373.4529208000022,373.4529208000022,373.4529208000022,373.4529208000022,373.4529208000022,373.4529208000022,373.4529208000022,,008,P020,2025_May_06_1745,ConditionRich,2021.2.3,59.948552152485895,
347.75,348.0,41,0.0,Stimuli/Blank.png,0,0,0.0,0,151,151,151,,,,,,,,,,,,,347.75764979999803,0.007649799998034723,None,377.2062433000028,377.2062433000028,377.2062433000028,377.2062433000028,377.2062433000028,377.2062433000028,377.2062433000028,377.2062433000028,377.2062433000028,377.2062433000028,,008,P020,2025_May_06_1745,ConditionRich,2021.2.3,59.948552152485895,
348.0,351.75,30,0.75,Stimuli/P020/things_flip_flop_10s.jpg,1,0,0.75,0,152,152,152,,,,,,,,,,,,,348.0069016999987,0.006901699998707045,1,377.4564782000016,377.4564782000016,377.4564782000016,377.4564782000016,377.4564782000016,377.4564782000016,377.4564782000016,378.1904474000039,377.4564782000016,377.4564782000016,0.47301559999323217,008,P020,2025_May_06_1745,ConditionRich,2021.2.3,59.948552152485895,
351.75,352.0,41,0.0,Stimuli/Blank.png,0,0,0.0,0,153,153,153,,,,,,,,,,,,,351.76040819999616,0.010408199996163603,None,381.2097855000029,381.2097855000029,381.2097855000029,381.2097855000029,381.2097855000029,381.2097855000029,381.2097855000029,381.2097855000029,381.2097855000029,381.2097855000029,,008,P020,2025_May_06_1745,ConditionRich,2021.2.3,59.948552152485895,
352.0,355.75,10,0.75,Stimuli/P020/sun_bblqhrudkospnbbv.jpg,0,0,0.0,0,154,154,154,,,,,,,,,,,,,352.0104929000008,0.010492900000826921,None,381.4766927000019,381.4766927000019,381.4766927000019,381.4766927000019,381.4766927000019,381.4766927000019,381.4766927000019,381.4766927000019,381.4766927000019,381.4766927000019,,008,P020,2025_May_06_1745,ConditionRich,2021.2.3,59.948552152485895,
355.75,356.0,41,0.0,Stimuli/Blank.png,0,0,0.0,0,155,155,155,,,,,,,,,,,,,355.78046039999754,0.030460399997537024,None,385.23001490000024,385.23001490000024,385.23001490000024,385.23001490000024,385.23001490000024,385.23001490000024,385.23001490000024,385.23001490000024,385.23001490000024,385.23001490000024,,008,P020,2025_May_06_1745,ConditionRich,2021.2.3,59.948552152485895,
356.0,359.75,18,0.75,Stimuli/P020/sun_bodjbrgwzlshgypq.jpg,1,1,1.75,0,156,156,156,,,,,,,,,,,,,356.0141694999984,0.014169499998388346,1,385.480235300005,385.480235300005,385.480235300005,385.480235300005,385.480235300005,385.480235300005,386.44775270000537,387.1984334000008,385.480235300005,385.480235300005,1.732169499999145,008,P020,2025_May_06_1745,ConditionRich,2021.2.3,59.948552152485895,
359.75,360.0,41,0.0,Stimuli/Blank.png,0,0,0.0,0,157,157,157,,,,,,,,,,,,,359.7666231999974,0.016623199997411575,None,389.21686440000485,389.21686440000485,389.21686440000485,389.21686440000485,389.21686440000485,389.21686440000485,389.21686440000485,389.21686440000485,389.21686440000485,389.21686440000485,,008,P020,2025_May_06_1745,ConditionRich,2021.2.3,59.948552152485895,
360.0,363.75,33,0.75,Stimuli/P020/things_insole_10s.jpg,1,2,2.75,0,158,158,158,,,,,,,,,,,,,360.00155699999596,0.001556999995955266,1,389.467092400002,389.467092400002,389.467092400002,389.467092400002,389.467092400002,389.467092400002,391.4355035000044,392.1861646000034,389.467092400002,389.467092400002,2.3425446999972337,008,P020,2025_May_06_1745,ConditionRich,2021.2.3,59.948552152485895,
363.75,364.0,41,0.0,Stimuli/Blank.png,0,0,0.0,0,159,159,159,,,,,,,,,,,,,363.7701578999986,0.020157899998594075,None,393.2203900000022,393.2203900000022,393.2203900000022,393.2203900000022,393.2203900000022,393.2203900000022,393.2203900000022,393.2203900000022,393.2203900000022,393.2203900000022,,008,P020,2025_May_06_1745,ConditionRich,2021.2.3,59.948552152485895,
364.0,367.75,37,0.75,Stimuli/P020/things_toaster_10s.jpg,1,2,2.75,0,160,160,160,,,,,,,,,,,,,364.00607769999624,0.006077699996239971,1,393.47063690000505,393.47063690000505,393.47063690000505,393.47063690000505,393.47063690000505,393.47063690000505,395.4557236000037,396.20638260000123,393.47063690000505,393.47063690000505,2.3648197000002256,008,P020,2025_May_06_1745,ConditionRich,2021.2.3,59.948552152485895,
367.75,368.0,41,0.0,Stimuli/Blank.png,0,0,0.0,0,161,161,161,,,,,,,,,,,,,367.77607759999955,0.02607759999955306,None,397.2406512000016,397.2406512000016,397.2406512000016,397.2406512000016,397.2406512000016,397.2406512000016,397.2406512000016,397.2406512000016,397.2406512000016,397.2406512000016,,008,P020,2025_May_06_1745,ConditionRich,2021.2.3,59.948552152485895,
368.0,371.75,9,0.75,Stimuli/P020/sun_bbfmuujfvpiaqdww.jpg,0,0,0.0,0,162,162,162,,,,,,,,,,,,,368.0261246999944,0.026124699994397815,None,397.49086830000306,397.49086830000306,397.49086830000306,397.49086830000306,397.49086830000306,397.49086830000306,397.49086830000306,397.49086830000306,397.49086830000306,397.49086830000306,,008,P020,2025_May_06_1745,ConditionRich,2021.2.3,59.948552152485895,
371.75,372.0,41,0.0,Stimuli/Blank.png,0,0,0.0,0,163,163,163,,,,,,,,,,,,,371.7773614999969,0.027361499996914063,None,401.2274959999995,401.2274959999995,401.2274959999995,401.2274959999995,401.2274959999995,401.2274959999995,401.2274959999995,401.2274959999995,401.2274959999995,401.2274959999995,,008,P020,2025_May_06_1745,ConditionRich,2021.2.3,59.948552152485895,
372.0,388.0,0,0.0,Stimuli/Blank.png,1,3,3.75,0,164,164,164,,,,,,,,,,,,,372.0116409999973,0.011640999997325707,1,401.46104800000467,401.46104800000467,401.46104800000467,401.46104800000467,401.46104800000467,401.46104800000467,404.4470622000008,405.1976728000009,401.46104800000467,401.46104800000467,3.4397325000027195,008,P020,2025_May_06_1745,ConditionRich,2021.2.3,59.948552152485895,
