eventStartTime,eventEndTime,eventCond,imSize,imFile,responseEvent,fixRespStart,fixRespEnd,Events.thisRepN,Events.thisTrialN,Events.thisN,Events.thisIndex,Instructions.started,Instructions.stopped,participantReadyResponse.keys,participantReadyResponse.rt,participantReadyResponse.started,participantReadyResponse.stopped,startWaitforTrigger,triggerResponse.keys,triggerResponse.rt,triggerResponse.started,triggerResponse.stopped,globalTimer,actualStartTime,startTimingDiff,participantResponse.keys,participantResponse.started,participantResponse.stopped,image.started,image.stopped,fixationOutside.started,fixationOutside.stopped,fixationResponse.started,fixationResponse.stopped,fixationInside.started,fixationInside.stopped,participantResponse.rt,session,participant,date,expName,psychopyVersion,frameRate,
,,,,,,,,,,,,10.80017029999999,None,1,21.953332899999623,10.80017029999999,None,,,,,,,,,,,,,,,,,,,,,007,P021,2025_May_08_1231,ConditionRich,2021.2.3,59.932743475418526,
,,,,,,,,,,,,,,,,,,32.760545200000706,5,20.662882499999796,32.77463590000025,None,,,,,,,,,,,,,,,,007,P021,2025_May_08_1231,ConditionRich,2021.2.3,59.932743475418526,
0.0,4.0,0,0.0,Stimuli/Blank.png,0,0,0.0,0,0,0,0,,,,,,,,,,,,53.44639310000002,0.027147200000399607,0.027147200000399607,None,53.49294180000015,None,53.49294180000015,None,53.49294180000015,None,53.49294180000015,53.49294180000015,53.49294180000015,None,,007,P021,2025_May_08_1231,ConditionRich,2021.2.3,59.932743475418526,
4.0,7.75,14,0.75,Stimuli/P009/sun_blaqxdebghixzyyw.jpg,0,0,0.0,0,1,1,1,,,,,,,,,,,,,4.019377900000109,0.01937790000010864,None,57.49675000000025,57.49675000000025,57.49675000000025,57.49675000000025,57.49675000000025,57.49675000000025,57.49675000000025,57.49675000000025,57.49675000000025,57.49675000000025,,007,P021,2025_May_08_1231,ConditionRich,2021.2.3,59.932743475418526,
7.75,8.0,41,0.0,Stimuli/Blank.png,0,0,0.0,0,2,2,2,,,,,,,,,,,,,7.773235699999532,0.02323569999953179,None,61.2334922,61.2334922,61.2334922,61.2334922,61.2334922,61.2334922,61.2334922,61.2334922,61.2334922,61.2334922,,007,P021,2025_May_08_1231,ConditionRich,2021.2.3,59.932743475418526,
8.0,11.75,19,0.75,Stimuli/P009/sun_bwvfnogmotsvhofs.jpg,0,0,0.0,0,3,3,3,,,,,,,,,,,,,8.007228399999804,0.007228399999803514,None,61.48333510000066,61.48333510000066,61.48333510000066,61.48333510000066,61.48333510000066,61.48333510000066,61.48333510000066,61.48333510000066,61.48333510000066,61.48333510000066,,007,P021,2025_May_08_1231,ConditionRich,2021.2.3,59.932743475418526,
11.75,12.0,41,0.0,Stimuli/Blank.png,0,0,0.0,0,4,4,4,,,,,,,,,,,,,11.775840999999673,0.02584099999967293,None,65.23664970000027,65.23664970000027,65.23664970000027,65.23664970000027,65.23664970000027,65.23664970000027,65.23664970000027,65.23664970000027,65.23664970000027,65.23664970000027,,007,P021,2025_May_08_1231,ConditionRich,2021.2.3,59.932743475418526,
12.0,15.75,26,0.75,Stimuli/P009/things_cookie_sheet_05s.jpg,0,0,0.0,0,5,5,5,,,,,,,,,,,,,12.009811199999604,0.00981119999960356,None,65.48683650000021,65.48683650000021,65.48683650000021,65.48683650000021,65.48683650000021,65.48683650000021,65.48683650000021,65.48683650000021,65.48683650000021,65.48683650000021,,007,P021,2025_May_08_1231,ConditionRich,2021.2.3,59.932743475418526,
15.75,16.0,41,0.0,Stimuli/Blank.png,0,0,0.0,0,6,6,6,,,,,,,,,,,,,15.779222699999991,0.029222699999991164,None,69.24018310000065,69.24018310000065,69.24018310000065,69.24018310000065,69.24018310000065,69.24018310000065,69.24018310000065,69.24018310000065,69.24018310000065,69.24018310000065,,007,P021,2025_May_08_1231,ConditionRich,2021.2.3,59.932743475418526,
16.0,19.75,22,0.75,Stimuli/P009/things_butterfly_05s.jpg,0,0,0.0,0,7,7,7,,,,,,,,,,,,,16.013241800000287,0.013241800000287185,None,69.47372650000034,69.47372650000034,69.47372650000034,69.47372650000034,69.47372650000034,69.47372650000034,69.47372650000034,69.47372650000034,69.47372650000034,69.47372650000034,,007,P021,2025_May_08_1231,ConditionRich,2021.2.3,59.932743475418526,
19.75,20.0,41,0.0,Stimuli/Blank.png,0,0,0.0,0,8,8,8,,,,,,,,,,,,,19.74945949999983,-0.000540500000170141,None,73.21035780000057,73.21035780000057,73.21035780000057,73.21035780000057,73.21035780000057,73.21035780000057,73.21035780000057,73.21035780000057,73.21035780000057,73.21035780000057,,007,P021,2025_May_08_1231,ConditionRich,2021.2.3,59.932743475418526,
20.0,23.75,11,0.75,Stimuli/P009/sun_bfyvfqiimvdaxlqn.jpg,0,0,0.0,0,9,9,9,,,,,,,,,,,,,19.999615099999573,-0.000384900000426569,None,73.46058720000019,73.46058720000019,73.46058720000019,73.46058720000019,73.46058720000019,73.46058720000019,73.46058720000019,73.46058720000019,73.46058720000019,73.46058720000019,,007,P021,2025_May_08_1231,ConditionRich,2021.2.3,59.932743475418526,
23.75,24.0,41,0.0,Stimuli/Blank.png,0,0,0.0,0,10,10,10,,,,,,,,,,,,,23.75321879999956,0.0032187999995585415,None,77.21387490000052,77.21387490000052,77.21387490000052,77.21387490000052,77.21387490000052,77.21387490000052,77.21387490000052,77.21387490000052,77.21387490000052,77.21387490000052,,007,P021,2025_May_08_1231,ConditionRich,2021.2.3,59.932743475418526,
24.0,27.75,18,0.75,Stimuli/P009/sun_bwjdahsxcqepqqbm.jpg,1,0,0.75,0,11,11,11,,,,,,,,,,,,,24.003777699999773,0.0037776999997731764,1,77.46411690000059,77.46411690000059,77.46411690000059,77.46411690000059,77.46411690000059,77.46411690000059,77.46411690000059,78.19811200000004,77.46411690000059,77.46411690000059,0.4633224999997765,007,P021,2025_May_08_1231,ConditionRich,2021.2.3,59.932743475418526,
27.75,28.0,41,0.0,Stimuli/Blank.png,0,0,0.0,0,12,12,12,,,,,,,,,,,,,27.75711070000034,0.0071107000003394205,None,81.21743460000016,81.21743460000016,81.21743460000016,81.21743460000016,81.21743460000016,81.21743460000016,81.21743460000016,81.21743460000016,81.21743460000016,81.21743460000016,,007,P021,2025_May_08_1231,ConditionRich,2021.2.3,59.932743475418526,
28.0,31.75,10,0.75,Stimuli/P009/sun_bdkttewvyfdarikm.jpg,0,0,0.0,0,13,13,13,,,,,,,,,,,,,28.006758999999875,0.006758999999874504,None,81.46765810000034,81.46765810000034,81.46765810000034,81.46765810000034,81.46765810000034,81.46765810000034,81.46765810000034,81.46765810000034,81.46765810000034,81.46765810000034,,007,P021,2025_May_08_1231,ConditionRich,2021.2.3,59.932743475418526,
31.75,32.0,41,0.0,Stimuli/Blank.png,0,0,0.0,0,14,14,14,,,,,,,,,,,,,31.760770500000035,0.0107705000000351,None,85.22099160000016,85.22099160000016,85.22099160000016,85.22099160000016,85.22099160000016,85.22099160000016,85.22099160000016,85.22099160000016,85.22099160000016,85.22099160000016,,007,P021,2025_May_08_1231,ConditionRich,2021.2.3,59.932743475418526,
32.0,35.75,9,0.75,Stimuli/P009/sun_bdjkvwqqqycuixtc.jpg,1,1,1.75,0,15,15,15,,,,,,,,,,,,,32.010144500000024,0.010144500000023982,1,85.48794250000083,85.48794250000083,85.48794250000083,85.48794250000083,85.48794250000083,85.48794250000083,86.45538530000067,87.2060831000008,85.48794250000083,85.48794250000083,1.4824535999996442,007,P021,2025_May_08_1231,ConditionRich,2021.2.3,59.932743475418526,
35.75,36.0,41,0.0,Stimuli/Blank.png,0,0,0.0,0,16,16,16,,,,,,,,,,,,,35.78254709999965,0.03254709999964689,None,89.25787970000056,89.25787970000056,89.25787970000056,89.25787970000056,89.25787970000056,89.25787970000056,89.25787970000056,89.25787970000056,89.25787970000056,89.25787970000056,,007,P021,2025_May_08_1231,ConditionRich,2021.2.3,59.932743475418526,
36.0,39.75,17,0.75,Stimuli/P009/sun_brkrfjpyfglmigkk.jpg,0,0,0.0,0,17,17,17,,,,,,,,,,,,,36.01434689999951,0.014346899999509333,None,89.47473210000044,89.47473210000044,89.47473210000044,89.47473210000044,89.47473210000044,89.47473210000044,89.47473210000044,89.47473210000044,89.47473210000044,89.47473210000044,,007,P021,2025_May_08_1231,ConditionRich,2021.2.3,59.932743475418526,
39.75,40.0,41,0.0,Stimuli/Blank.png,0,0,0.0,0,18,18,18,,,,,,,,,,,,,39.7512913999999,0.0012913999999000225,None,93.21138350000001,93.21138350000001,93.21138350000001,93.21138350000001,93.21138350000001,93.21138350000001,93.21138350000001,93.21138350000001,93.21138350000001,93.21138350000001,,007,P021,2025_May_08_1231,ConditionRich,2021.2.3,59.932743475418526,
40.0,43.75,31,0.75,Stimuli/P009/things_girl_05s.jpg,0,0,0.0,0,19,19,19,,,,,,,,,,,,,40.002731999999924,0.0027319999999235733,None,93.47827649999999,93.47827649999999,93.47827649999999,93.47827649999999,93.47827649999999,93.47827649999999,93.47827649999999,93.47827649999999,93.47827649999999,93.47827649999999,,007,P021,2025_May_08_1231,ConditionRich,2021.2.3,59.932743475418526,
43.75,44.0,41,0.0,Stimuli/Blank.png,0,0,0.0,0,20,20,20,,,,,,,,,,,,,43.77150210000036,0.02150210000036168,None,97.23159750000013,97.23159750000013,97.23159750000013,97.23159750000013,97.23159750000013,97.23159750000013,97.23159750000013,97.23159750000013,97.23159750000013,97.23159750000013,,007,P021,2025_May_08_1231,ConditionRich,2021.2.3,59.932743475418526,
44.0,47.75,15,0.75,Stimuli/P009/sun_boryivbddrnarrbo.jpg,1,3,3.75,0,21,21,21,,,,,,,,,,,,,44.00417209999978,0.004172099999777856,None,97.46511989999999,97.46511989999999,97.46511989999999,97.46511989999999,97.46511989999999,97.46511989999999,100.45110000000022,101.20179130000088,97.46511989999999,97.46511989999999,,007,P021,2025_May_08_1231,ConditionRich,2021.2.3,59.932743475418526,
47.75,48.0,41,0.0,Stimuli/Blank.png,0,0,0.0,0,22,22,22,,,,,,,,,,,,,47.75820680000015,0.008206800000152725,None,101.21843960000024,101.21843960000024,101.21843960000024,101.21843960000024,101.21843960000024,101.21843960000024,101.21843960000024,101.21843960000024,101.21843960000024,101.21843960000024,,007,P021,2025_May_08_1231,ConditionRich,2021.2.3,59.932743475418526,
48.0,51.75,7,0.75,Stimuli/P009/sun_apiogxmvvzfmtsmj.jpg,0,0,0.0,0,23,23,23,,,,,,,,,,,,,48.00821879999967,0.00821879999966768,None,101.46866300000056,101.46866300000056,101.46866300000056,101.46866300000056,101.46866300000056,101.46866300000056,101.46866300000056,101.46866300000056,101.46866300000056,101.46866300000056,,007,P021,2025_May_08_1231,ConditionRich,2021.2.3,59.932743475418526,
51.75,52.0,41,0.0,Stimuli/Blank.png,0,0,0.0,0,24,24,24,,,,,,,,,,,,,51.76231259999986,0.01231259999985923,None,105.2219982000006,105.2219982000006,105.2219982000006,105.2219982000006,105.2219982000006,105.2219982000006,105.2219982000006,105.2219982000006,105.2219982000006,105.2219982000006,,007,P021,2025_May_08_1231,ConditionRich,2021.2.3,59.932743475418526,
52.0,55.75,16,0.75,Stimuli/P009/sun_bqpyqljaflidcauh.jpg,0,0,0.0,0,25,25,25,,,,,,,,,,,,,52.01142460000028,0.011424600000282226,None,105.4721653000006,105.4721653000006,105.4721653000006,105.4721653000006,105.4721653000006,105.4721653000006,105.4721653000006,105.4721653000006,105.4721653000006,105.4721653000006,,007,P021,2025_May_08_1231,ConditionRich,2021.2.3,59.932743475418526,
55.75,56.0,41,0.0,Stimuli/Blank.png,0,0,0.0,0,26,26,26,,,,,,,,,,,,,55.76470160000008,0.014701600000080361,None,109.22551610000028,109.22551610000028,109.22551610000028,109.22551610000028,109.22551610000028,109.22551610000028,109.22551610000028,109.22551610000028,109.22551610000028,109.22551610000028,,007,P021,2025_May_08_1231,ConditionRich,2021.2.3,59.932743475418526,
56.0,59.75,37,0.75,Stimuli/P009/things_pug_05s.jpg,0,0,0.0,0,27,27,27,,,,,,,,,,,,,56.01775859999998,0.017758599999979197,None,109.49242230000073,109.49242230000073,109.49242230000073,109.49242230000073,109.49242230000073,109.49242230000073,109.49242230000073,109.49242230000073,109.49242230000073,109.49242230000073,,007,P021,2025_May_08_1231,ConditionRich,2021.2.3,59.932743475418526,
59.75,60.0,41,0.0,Stimuli/Blank.png,0,0,0.0,0,28,28,28,,,,,,,,,,,,,59.76809990000038,0.01809990000037942,None,113.22905570000057,113.22905570000057,113.22905570000057,113.22905570000057,113.22905570000057,113.22905570000057,113.22905570000057,113.22905570000057,113.22905570000057,113.22905570000057,,007,P021,2025_May_08_1231,ConditionRich,2021.2.3,59.932743475418526,
60.0,63.75,3,0.75,Stimuli/P009/sun_aewgwsmvsgzleqhw.jpg,0,0,0.0,0,29,29,29,,,,,,,,,,,,,60.002001500000006,0.0020015000000057626,None,113.46259820000068,113.46259820000068,113.46259820000068,113.46259820000068,113.46259820000068,113.46259820000068,113.46259820000068,113.46259820000068,113.46259820000068,113.46259820000068,,007,P021,2025_May_08_1231,ConditionRich,2021.2.3,59.932743475418526,
63.75,64.0,41,0.0,Stimuli/Blank.png,0,0,0.0,0,30,30,30,,,,,,,,,,,,,63.757387699999526,0.007387699999526376,None,117.23260160000063,117.23260160000063,117.23260160000063,117.23260160000063,117.23260160000063,117.23260160000063,117.23260160000063,117.23260160000063,117.23260160000063,117.23260160000063,,007,P021,2025_May_08_1231,ConditionRich,2021.2.3,59.932743475418526,
64.0,67.75,33,0.75,Stimuli/P009/things_lizard_05n.jpg,0,0,0.0,0,31,31,31,,,,,,,,,,,,,64.02236670000002,0.0223667000000205,None,117.4828135000007,117.4828135000007,117.4828135000007,117.4828135000007,117.4828135000007,117.4828135000007,117.4828135000007,117.4828135000007,117.4828135000007,117.4828135000007,,007,P021,2025_May_08_1231,ConditionRich,2021.2.3,59.932743475418526,
67.75,68.0,41,0.0,Stimuli/Blank.png,0,0,0.0,0,32,32,32,,,,,,,,,,,,,67.75909109999975,0.00909109999975044,None,121.21944910000002,121.21944910000002,121.21944910000002,121.21944910000002,121.21944910000002,121.21944910000002,121.21944910000002,121.21944910000002,121.21944910000002,121.21944910000002,,007,P021,2025_May_08_1231,ConditionRich,2021.2.3,59.932743475418526,
68.0,71.75,35,0.75,Stimuli/P009/things_mushroom_05n.jpg,0,0,0.0,0,33,33,33,,,,,,,,,,,,,68.00868960000025,0.00868960000025254,None,121.48637950000011,121.48637950000011,121.48637950000011,121.48637950000011,121.48637950000011,121.48637950000011,121.48637950000011,121.48637950000011,121.48637950000011,121.48637950000011,,007,P021,2025_May_08_1231,ConditionRich,2021.2.3,59.932743475418526,
71.75,72.0,41,0.0,Stimuli/Blank.png,0,0,0.0,0,34,34,34,,,,,,,,,,,,,71.77878899999996,0.02878899999996065,None,125.23966100000052,125.23966100000052,125.23966100000052,125.23966100000052,125.23966100000052,125.23966100000052,125.23966100000052,125.23966100000052,125.23966100000052,125.23966100000052,,007,P021,2025_May_08_1231,ConditionRich,2021.2.3,59.932743475418526,
72.0,75.75,8,0.75,Stimuli/P009/sun_batcnoizlkeiqdtx.jpg,0,0,0.0,0,35,35,35,,,,,,,,,,,,,72.01357009999992,0.013570099999924423,None,125.48991750000005,125.48991750000005,125.48991750000005,125.48991750000005,125.48991750000005,125.48991750000005,125.48991750000005,125.48991750000005,125.48991750000005,125.48991750000005,,007,P021,2025_May_08_1231,ConditionRich,2021.2.3,59.932743475418526,
75.75,76.0,41,0.0,Stimuli/Blank.png,0,0,0.0,0,36,36,36,,,,,,,,,,,,,75.76851869999973,0.018518699999731325,None,129.24322980000034,129.24322980000034,129.24322980000034,129.24322980000034,129.24322980000034,129.24322980000034,129.24322980000034,129.24322980000034,129.24322980000034,129.24322980000034,,007,P021,2025_May_08_1231,ConditionRich,2021.2.3,59.932743475418526,
76.0,79.75,21,0.75,Stimuli/P009/things_boy_05s.jpg,0,0,0.0,0,37,37,37,,,,,,,,,,,,,76.01601589999973,0.0160158999997293,None,129.47674880000068,129.47674880000068,129.47674880000068,129.47674880000068,129.47674880000068,129.47674880000068,129.47674880000068,129.47674880000068,129.47674880000068,129.47674880000068,,007,P021,2025_May_08_1231,ConditionRich,2021.2.3,59.932743475418526,
79.75,80.0,41,0.0,Stimuli/Blank.png,0,0,0.0,0,38,38,38,,,,,,,,,,,,,79.75293260000035,0.002932600000349339,None,133.21337490000042,133.21337490000042,133.21337490000042,133.21337490000042,133.21337490000042,133.21337490000042,133.21337490000042,133.21337490000042,133.21337490000042,133.21337490000042,,007,P021,2025_May_08_1231,ConditionRich,2021.2.3,59.932743475418526,
80.0,83.75,32,0.75,Stimuli/P009/things_hawk_05s.jpg,1,2,2.75,0,39,39,39,,,,,,,,,,,,,80.00342480000018,0.00342480000017531,1,133.46371540000018,133.46371540000018,133.46371540000018,133.46371540000018,133.46371540000018,133.46371540000018,135.4486777000002,136.19936550000057,133.46371540000018,133.46371540000018,2.836096400000315,007,P021,2025_May_08_1231,ConditionRich,2021.2.3,59.932743475418526,
83.75,84.0,41,0.0,Stimuli/Blank.png,0,0,0.0,0,40,40,40,,,,,,,,,,,,,83.75806480000028,0.008064800000283867,None,137.23360830000001,137.23360830000001,137.23360830000001,137.23360830000001,137.23360830000001,137.23360830000001,137.23360830000001,137.23360830000001,137.23360830000001,137.23360830000001,,007,P021,2025_May_08_1231,ConditionRich,2021.2.3,59.932743475418526,
84.0,100.0,0,0.0,Stimuli/Blank.png,1,11,11.75,0,41,41,41,,,,,,,,,,,,,84.0229062999997,0.02290629999970406,1,137.4838135,137.4838135,137.4838135,137.4838135,137.4838135,137.4838135,148.46035030000075,149.21087950000037,137.4838135,137.4838135,11.53463929999998,007,P021,2025_May_08_1231,ConditionRich,2021.2.3,59.932743475418526,
100.0,103.75,39,0.75,Stimuli/P009/things_tiara_05s.jpg,0,0,0.0,0,42,42,42,,,,,,,,,,,,,100.00370000000021,0.0037000000002080924,None,153.4645941000008,153.4645941000008,153.4645941000008,153.4645941000008,153.4645941000008,153.4645941000008,153.4645941000008,153.4645941000008,153.4645941000008,153.4645941000008,,007,P021,2025_May_08_1231,ConditionRich,2021.2.3,59.932743475418526,
103.75,104.0,41,0.0,Stimuli/Blank.png,0,0,0.0,0,43,43,43,,,,,,,,,,,,,103.75822069999958,0.008220699999583303,None,157.21793060000073,157.21793060000073,157.21793060000073,157.21793060000073,157.21793060000073,157.21793060000073,157.21793060000073,157.21793060000073,157.21793060000073,157.21793060000073,,007,P021,2025_May_08_1231,ConditionRich,2021.2.3,59.932743475418526,
104.0,107.75,28,0.75,Stimuli/P009/things_face_05s.jpg,0,0,0.0,0,44,44,44,,,,,,,,,,,,,104.00751599999967,0.007515999999668566,None,157.46813120000024,157.46813120000024,157.46813120000024,157.46813120000024,157.46813120000024,157.46813120000024,157.46813120000024,157.46813120000024,157.46813120000024,157.46813120000024,,007,P021,2025_May_08_1231,ConditionRich,2021.2.3,59.932743475418526,
107.75,108.0,41,0.0,Stimuli/Blank.png,0,0,0.0,0,45,45,45,,,,,,,,,,,,,107.76324010000008,0.013240100000075472,None,161.23817660000077,161.23817660000077,161.23817660000077,161.23817660000077,161.23817660000077,161.23817660000077,161.23817660000077,161.23817660000077,161.23817660000077,161.23817660000077,,007,P021,2025_May_08_1231,ConditionRich,2021.2.3,59.932743475418526,
108.0,111.75,6,0.75,Stimuli/P009/sun_amkrwcyvinmsylsz.jpg,0,0,0.0,0,46,46,46,,,,,,,,,,,,,108.02732809999998,0.027328099999976985,None,161.48835250000047,161.48835250000047,161.48835250000047,161.48835250000047,161.48835250000047,161.48835250000047,161.48835250000047,161.48835250000047,161.48835250000047,161.48835250000047,,007,P021,2025_May_08_1231,ConditionRich,2021.2.3,59.932743475418526,
111.75,112.0,41,0.0,Stimuli/Blank.png,0,0,0.0,0,47,47,47,,,,,,,,,,,,,111.76390540000011,0.013905400000112422,None,165.22496030000002,165.22496030000002,165.22496030000002,165.22496030000002,165.22496030000002,165.22496030000002,165.22496030000002,165.22496030000002,165.22496030000002,165.22496030000002,,007,P021,2025_May_08_1231,ConditionRich,2021.2.3,59.932743475418526,
112.0,115.75,40,0.75,Stimuli/P009/things_woman_05s.jpg,0,0,0.0,0,48,48,48,,,,,,,,,,,,,112.01471500000025,0.014715000000251166,None,165.47521450000022,165.47521450000022,165.47521450000022,165.47521450000022,165.47521450000022,165.47521450000022,165.47521450000022,165.47521450000022,165.47521450000022,165.47521450000022,,007,P021,2025_May_08_1231,ConditionRich,2021.2.3,59.932743475418526,
115.75,116.0,41,0.0,Stimuli/Blank.png,0,0,0.0,0,49,49,49,,,,,,,,,,,,,115.7528040999996,0.0028040999995937455,None,169.22857340000064,169.22857340000064,169.22857340000064,169.22857340000064,169.22857340000064,169.22857340000064,169.22857340000064,169.22857340000064,169.22857340000064,169.22857340000064,,007,P021,2025_May_08_1231,ConditionRich,2021.2.3,59.932743475418526,
116.0,119.75,5,0.75,Stimuli/P009/sun_akqvdmuauoxeafrj.jpg,0,0,0.0,0,50,50,50,,,,,,,,,,,,,116.01838969999972,0.018389699999715958,None,169.47875810000005,169.47875810000005,169.47875810000005,169.47875810000005,169.47875810000005,169.47875810000005,169.47875810000005,169.47875810000005,169.47875810000005,169.47875810000005,,007,P021,2025_May_08_1231,ConditionRich,2021.2.3,59.932743475418526,
119.75,120.0,41,0.0,Stimuli/Blank.png,0,0,0.0,0,51,51,51,,,,,,,,,,,,,119.75567620000038,0.0056762000003800495,None,173.21542500000032,173.21542500000032,173.21542500000032,173.21542500000032,173.21542500000032,173.21542500000032,173.21542500000032,173.21542500000032,173.21542500000032,173.21542500000032,,007,P021,2025_May_08_1231,ConditionRich,2021.2.3,59.932743475418526,
120.0,123.75,30,0.75,Stimuli/P009/things_fire_05s.jpg,1,1,1.75,0,52,52,52,,,,,,,,,,,,,120.00499870000021,0.00499870000021474,1,173.48229410000022,173.48229410000022,173.48229410000022,173.48229410000022,173.48229410000022,173.48229410000022,174.4498446000007,175.20052300000043,173.48229410000022,173.48229410000022,1.6841128000005483,007,P021,2025_May_08_1231,ConditionRich,2021.2.3,59.932743475418526,
123.75,124.0,41,0.0,Stimuli/Blank.png,0,0,0.0,0,53,53,53,,,,,,,,,,,,,123.77549859999999,0.02549859999999171,None,177.2356193000005,177.2356193000005,177.2356193000005,177.2356193000005,177.2356193000005,177.2356193000005,177.2356193000005,177.2356193000005,177.2356193000005,177.2356193000005,,007,P021,2025_May_08_1231,ConditionRich,2021.2.3,59.932743475418526,
124.0,127.75,25,0.75,Stimuli/P009/things_clothespin_05s.jpg,0,0,0.0,0,54,54,54,,,,,,,,,,,,,124.00812870000027,0.008128700000270328,None,177.46914379999998,177.46914379999998,177.46914379999998,177.46914379999998,177.46914379999998,177.46914379999998,177.46914379999998,177.46914379999998,177.46914379999998,177.46914379999998,,007,P021,2025_May_08_1231,ConditionRich,2021.2.3,59.932743475418526,
127.75,128.0,41,0.0,Stimuli/Blank.png,0,0,0.0,0,55,55,55,,,,,,,,,,,,,127.76300360000005,0.0130036000000473,None,181.2224685000001,181.2224685000001,181.2224685000001,181.2224685000001,181.2224685000001,181.2224685000001,181.2224685000001,181.2224685000001,181.2224685000001,181.2224685000001,,007,P021,2025_May_08_1231,ConditionRich,2021.2.3,59.932743475418526,
128.0,131.75,38,0.75,Stimuli/P009/things_roadsweeper_05s.jpg,1,3,3.75,0,56,56,56,,,,,,,,,,,,,128.0126682,0.012668200000007346,1,181.4726782000007,181.4726782000007,181.4726782000007,181.4726782000007,181.4726782000007,181.4726782000007,184.45866090000072,None,181.4726782000007,181.4726782000007,3.6280808000001343,007,P021,2025_May_08_1231,ConditionRich,2021.2.3,59.932743475418526,
131.75,132.0,41,0.0,Stimuli/Blank.png,0,0,0.0,0,57,57,57,,,,,,,,,,,,,131.74867040000026,-0.0013295999997353647,None,185.20929700000033,185.20929700000033,185.20929700000033,185.20929700000033,185.20929700000033,185.20929700000033,185.20929700000033,185.20929700000033,185.20929700000033,185.20929700000033,,007,P021,2025_May_08_1231,ConditionRich,2021.2.3,59.932743475418526,
132.0,135.75,34,0.75,Stimuli/P009/things_man_05s.jpg,0,0,0.0,0,58,58,58,,,,,,,,,,,,,132.01639999999952,0.016399999999521242,None,185.4762311000004,185.4762311000004,185.4762311000004,185.4762311000004,185.4762311000004,185.4762311000004,185.4762311000004,185.4762311000004,185.4762311000004,185.4762311000004,,007,P021,2025_May_08_1231,ConditionRich,2021.2.3,59.932743475418526,
135.75,136.0,41,0.0,Stimuli/Blank.png,0,0,0.0,0,59,59,59,,,,,,,,,,,,,135.75210030000017,0.002100300000165589,None,189.2128655000006,189.2128655000006,189.2128655000006,189.2128655000006,189.2128655000006,189.2128655000006,189.2128655000006,189.2128655000006,189.2128655000006,189.2128655000006,,007,P021,2025_May_08_1231,ConditionRich,2021.2.3,59.932743475418526,
136.0,139.75,13,0.75,Stimuli/P009/sun_bjimvgwadfodioes.jpg,0,0,0.0,0,60,60,60,,,,,,,,,,,,,136.00287079999998,0.0028707999999824096,None,189.47975060000044,189.47975060000044,189.47975060000044,189.47975060000044,189.47975060000044,189.47975060000044,189.47975060000044,189.47975060000044,189.47975060000044,189.47975060000044,,007,P021,2025_May_08_1231,ConditionRich,2021.2.3,59.932743475418526,
139.75,140.0,41,0.0,Stimuli/Blank.png,0,0,0.0,0,61,61,61,,,,,,,,,,,,,139.7731014000001,0.02310140000008687,None,193.23308990000078,193.23308990000078,193.23308990000078,193.23308990000078,193.23308990000078,193.23308990000078,193.23308990000078,193.23308990000078,193.23308990000078,193.23308990000078,,007,P021,2025_May_08_1231,ConditionRich,2021.2.3,59.932743475418526,
140.0,143.75,36,0.75,Stimuli/P009/things_pelican_05s.jpg,0,0,0.0,0,62,62,62,,,,,,,,,,,,,140.00848469999983,0.008484699999826262,None,193.48330780000015,193.48330780000015,193.48330780000015,193.48330780000015,193.48330780000015,193.48330780000015,193.48330780000015,193.48330780000015,193.48330780000015,193.48330780000015,,007,P021,2025_May_08_1231,ConditionRich,2021.2.3,59.932743475418526,
143.75,144.0,41,0.0,Stimuli/Blank.png,0,0,0.0,0,63,63,63,,,,,,,,,,,,,143.77845499999967,0.028454999999667052,None,197.25330040000063,197.25330040000063,197.25330040000063,197.25330040000063,197.25330040000063,197.25330040000063,197.25330040000063,197.25330040000063,197.25330040000063,197.25330040000063,,007,P021,2025_May_08_1231,ConditionRich,2021.2.3,59.932743475418526,
144.0,147.75,2,0.75,Stimuli/P009/sun_acvloibbxiqpiwnv.jpg,1,2,2.75,0,64,64,64,,,,,,,,,,,,,144.02794519999952,0.02794519999952172,1,197.50351260000025,197.50351260000025,197.50351260000025,197.50351260000025,197.50351260000025,197.50351260000025,199.48863920000076,200.2392630000004,197.50351260000025,197.50351260000025,2.524944300000243,007,P021,2025_May_08_1231,ConditionRich,2021.2.3,59.932743475418526,
147.75,148.0,41,0.0,Stimuli/Blank.png,0,0,0.0,0,65,65,65,,,,,,,,,,,,,147.7796126000003,0.029612600000291422,None,201.2401486000008,201.2401486000008,201.2401486000008,201.2401486000008,201.2401486000008,201.2401486000008,201.2401486000008,201.2401486000008,201.2401486000008,201.2401486000008,,007,P021,2025_May_08_1231,ConditionRich,2021.2.3,59.932743475418526,
148.0,151.75,1,0.75,Stimuli/P009/sun_abqdlumenyzawlme.jpg,0,0,0.0,0,66,66,66,,,,,,,,,,,,,148.01265619999958,0.012656199999582896,None,201.4736926000005,201.4736926000005,201.4736926000005,201.4736926000005,201.4736926000005,201.4736926000005,201.4736926000005,201.4736926000005,201.4736926000005,201.4736926000005,,007,P021,2025_May_08_1231,ConditionRich,2021.2.3,59.932743475418526,
151.75,152.0,41,0.0,Stimuli/Blank.png,0,0,0.0,0,67,67,67,,,,,,,,,,,,,151.75030950000018,0.00030950000018492574,None,205.21034860000054,205.21034860000054,205.21034860000054,205.21034860000054,205.21034860000054,205.21034860000054,205.21034860000054,205.21034860000054,205.21034860000054,205.21034860000054,,007,P021,2025_May_08_1231,ConditionRich,2021.2.3,59.932743475418526,
152.0,155.75,29,0.75,Stimuli/P009/things_fingerprint_05s.jpg,0,0,0.0,0,68,68,68,,,,,,,,,,,,,151.99962570000025,-0.00037429999974847306,None,205.47722760000033,205.47722760000033,205.47722760000033,205.47722760000033,205.47722760000033,205.47722760000033,205.47722760000033,205.47722760000033,205.47722760000033,205.47722760000033,,007,P021,2025_May_08_1231,ConditionRich,2021.2.3,59.932743475418526,
155.75,156.0,41,0.0,Stimuli/Blank.png,0,0,0.0,0,69,69,69,,,,,,,,,,,,,155.77238829999988,0.022388299999875017,None,209.24723950000043,209.24723950000043,209.24723950000043,209.24723950000043,209.24723950000043,209.24723950000043,209.24723950000043,209.24723950000043,209.24723950000043,209.24723950000043,,007,P021,2025_May_08_1231,ConditionRich,2021.2.3,59.932743475418526,
156.0,159.75,20,0.75,Stimuli/P009/sun_ddsiwinthvyejghq.jpg,0,0,0.0,0,70,70,70,,,,,,,,,,,,,156.01994120000018,0.01994120000017574,None,209.4974688000002,209.4974688000002,209.4974688000002,209.4974688000002,209.4974688000002,209.4974688000002,209.4974688000002,209.4974688000002,209.4974688000002,209.4974688000002,,007,P021,2025_May_08_1231,ConditionRich,2021.2.3,59.932743475418526,
159.75,160.0,41,0.0,Stimuli/Blank.png,0,0,0.0,0,71,71,71,,,,,,,,,,,,,159.7732530000003,0.023253000000295287,None,213.23408260000087,213.23408260000087,213.23408260000087,213.23408260000087,213.23408260000087,213.23408260000087,213.23408260000087,213.23408260000087,213.23408260000087,213.23408260000087,,007,P021,2025_May_08_1231,ConditionRich,2021.2.3,59.932743475418526,
160.0,163.75,24,0.75,Stimuli/P009/things_cigar_05n.jpg,0,0,0.0,0,72,72,72,,,,,,,,,,,,,160.0067239,0.006723899999997229,None,213.46762090000084,213.46762090000084,213.46762090000084,213.46762090000084,213.46762090000084,213.46762090000084,213.46762090000084,213.46762090000084,213.46762090000084,213.46762090000084,,007,P021,2025_May_08_1231,ConditionRich,2021.2.3,59.932743475418526,
163.75,164.0,41,0.0,Stimuli/Blank.png,0,0,0.0,0,73,73,73,,,,,,,,,,,,,163.76224040000034,0.012240400000337104,None,217.2376288000005,217.2376288000005,217.2376288000005,217.2376288000005,217.2376288000005,217.2376288000005,217.2376288000005,217.2376288000005,217.2376288000005,217.2376288000005,,007,P021,2025_May_08_1231,ConditionRich,2021.2.3,59.932743475418526,
164.0,167.75,27,0.75,Stimuli/P009/things_curling_iron_05s.jpg,0,0,0.0,0,74,74,74,,,,,,,,,,,,,164.02684979999958,0.02684979999958159,None,217.48783390000062,217.48783390000062,217.48783390000062,217.48783390000062,217.48783390000062,217.48783390000062,217.48783390000062,217.48783390000062,217.48783390000062,217.48783390000062,,007,P021,2025_May_08_1231,ConditionRich,2021.2.3,59.932743475418526,
167.75,168.0,41,0.0,Stimuli/Blank.png,0,0,0.0,0,75,75,75,,,,,,,,,,,,,167.76384189999953,0.01384189999953378,None,221.22447499999998,221.22447499999998,221.22447499999998,221.22447499999998,221.22447499999998,221.22447499999998,221.22447499999998,221.22447499999998,221.22447499999998,221.22447499999998,,007,P021,2025_May_08_1231,ConditionRich,2021.2.3,59.932743475418526,
168.0,171.75,4,0.75,Stimuli/P009/sun_afkzdukwewwzqtmr.jpg,1,1,1.75,0,76,76,76,,,,,,,,,,,,,168.01384340000004,0.013843400000041584,1,221.47469940000065,221.47469940000065,221.47469940000065,221.47469940000065,221.47469940000065,221.47469940000065,222.4588958000004,223.209562,221.47469940000065,221.47469940000065,1.9847430999998323,007,P021,2025_May_08_1231,ConditionRich,2021.2.3,59.932743475418526,
171.75,172.0,41,0.0,Stimuli/Blank.png,0,0,0.0,0,77,77,77,,,,,,,,,,,,,171.75170609999986,0.0017060999998648185,None,225.21135830000003,225.21135830000003,225.21135830000003,225.21135830000003,225.21135830000003,225.21135830000003,225.21135830000003,225.21135830000003,225.21135830000003,225.21135830000003,,007,P021,2025_May_08_1231,ConditionRich,2021.2.3,59.932743475418526,
172.0,175.75,23,0.75,Stimuli/P009/things_charger_05s.jpg,1,2,2.75,0,78,78,78,,,,,,,,,,,,,172.00281149999955,0.002811499999552325,1,225.4782326000004,225.4782326000004,225.4782326000004,225.4782326000004,225.4782326000004,225.4782326000004,227.46331820000069,228.21397940000043,225.4782326000004,225.4782326000004,2.756347300000016,007,P021,2025_May_08_1231,ConditionRich,2021.2.3,59.932743475418526,
175.75,176.0,41,0.0,Stimuli/Blank.png,0,0,0.0,0,79,79,79,,,,,,,,,,,,,175.77267909999955,0.02267909999955009,None,229.2482383000006,229.2482383000006,229.2482383000006,229.2482383000006,229.2482383000006,229.2482383000006,229.2482383000006,229.2482383000006,229.2482383000006,229.2482383000006,,007,P021,2025_May_08_1231,ConditionRich,2021.2.3,59.932743475418526,
176.0,179.75,12,0.75,Stimuli/P009/sun_birmwgkdtrlevcaf.jpg,0,0,0.0,0,80,80,80,,,,,,,,,,,,,176.0228416,0.022841599999992468,None,229.4984574,229.4984574,229.4984574,229.4984574,229.4984574,229.4984574,229.4984574,229.4984574,229.4984574,229.4984574,,007,P021,2025_May_08_1231,ConditionRich,2021.2.3,59.932743475418526,
179.75,180.0,41,0.0,Stimuli/Blank.png,0,0,0.0,0,81,81,81,,,,,,,,,,,,,179.77551889999995,0.025518899999951827,None,233.23511390000021,233.23511390000021,233.23511390000021,233.23511390000021,233.23511390000021,233.23511390000021,233.23511390000021,233.23511390000021,233.23511390000021,233.23511390000021,,007,P021,2025_May_08_1231,ConditionRich,2021.2.3,59.932743475418526,
180.0,196.0,0,0.0,Stimuli/Blank.png,1,7,7.75,0,82,82,82,,,,,,,,,,,,,180.00837320000028,0.008373200000278302,1,233.48534570000083,233.48534570000083,233.48534570000083,233.48534570000083,233.48534570000083,233.48534570000083,240.45814660000087,241.20885870000075,233.48534570000083,233.48534570000083,8.032354400000258,007,P021,2025_May_08_1231,ConditionRich,2021.2.3,59.932743475418526,
196.0,199.75,14,0.75,Stimuli/P009/sun_blaqxdebghixzyyw.jpg,0,0,0.0,0,83,83,83,,,,,,,,,,,,,196.0225515000002,0.022551500000190572,None,249.49947480000083,249.49947480000083,249.49947480000083,249.49947480000083,249.49947480000083,249.49947480000083,249.49947480000083,249.49947480000083,249.49947480000083,249.49947480000083,,007,P021,2025_May_08_1231,ConditionRich,2021.2.3,59.932743475418526,
199.75,200.0,41,0.0,Stimuli/Blank.png,0,0,0.0,0,84,84,84,,,,,,,,,,,,,199.7778017999999,0.027801799999906507,None,253.25279590000082,253.25279590000082,253.25279590000082,253.25279590000082,253.25279590000082,253.25279590000082,253.25279590000082,253.25279590000082,253.25279590000082,253.25279590000082,,007,P021,2025_May_08_1231,ConditionRich,2021.2.3,59.932743475418526,
200.0,203.75,5,0.75,Stimuli/P009/sun_akqvdmuauoxeafrj.jpg,1,0,0.75,0,85,85,85,,,,,,,,,,,,,200.0287258999997,0.028725899999699323,1,253.50299600000017,253.50299600000017,253.50299600000017,253.50299600000017,253.50299600000017,253.50299600000017,253.50299600000017,254.23700250000002,253.50299600000017,253.50299600000017,1.3984436999999161,007,P021,2025_May_08_1231,ConditionRich,2021.2.3,59.932743475418526,
203.75,204.0,41,0.0,Stimuli/Blank.png,0,0,0.0,0,86,86,86,,,,,,,,,,,,,203.77859439999975,0.02859439999974711,None,257.2396486000007,257.2396486000007,257.2396486000007,257.2396486000007,257.2396486000007,257.2396486000007,257.2396486000007,257.2396486000007,257.2396486000007,257.2396486000007,,007,P021,2025_May_08_1231,ConditionRich,2021.2.3,59.932743475418526,
204.0,207.75,10,0.75,Stimuli/P009/sun_bdkttewvyfdarikm.jpg,0,0,0.0,0,87,87,87,,,,,,,,,,,,,204.01303759999973,0.013037599999734084,None,257.47317100000055,257.47317100000055,257.47317100000055,257.47317100000055,257.47317100000055,257.47317100000055,257.47317100000055,257.47317100000055,257.47317100000055,257.47317100000055,,007,P021,2025_May_08_1231,ConditionRich,2021.2.3,59.932743475418526,
207.75,208.0,41,0.0,Stimuli/Blank.png,0,0,0.0,0,88,88,88,,,,,,,,,,,,,207.7488916000002,-0.001108399999793619,None,261.20994450000035,261.20994450000035,261.20994450000035,261.20994450000035,261.20994450000035,261.20994450000035,261.20994450000035,261.20994450000035,261.20994450000035,261.20994450000035,,007,P021,2025_May_08_1231,ConditionRich,2021.2.3,59.932743475418526,
208.0,211.75,17,0.75,Stimuli/P009/sun_brkrfjpyfglmigkk.jpg,0,0,0.0,0,89,89,89,,,,,,,,,,,,,207.9992358999998,-0.0007641000001967768,None,261.4600696000007,261.4600696000007,261.4600696000007,261.4600696000007,261.4600696000007,261.4600696000007,261.4600696000007,261.4600696000007,261.4600696000007,261.4600696000007,,007,P021,2025_May_08_1231,ConditionRich,2021.2.3,59.932743475418526,
211.75,212.0,41,0.0,Stimuli/Blank.png,0,0,0.0,0,90,90,90,,,,,,,,,,,,,211.75330639999993,0.0033063999999285443,None,265.2133523000002,265.2133523000002,265.2133523000002,265.2133523000002,265.2133523000002,265.2133523000002,265.2133523000002,265.2133523000002,265.2133523000002,265.2133523000002,,007,P021,2025_May_08_1231,ConditionRich,2021.2.3,59.932743475418526,
212.0,215.75,19,0.75,Stimuli/P009/sun_bwvfnogmotsvhofs.jpg,1,2,2.75,0,91,91,91,,,,,,,,,,,,,212.0033229999999,0.0033229999999093707,1,265.4635622000005,265.4635622000005,265.4635622000005,265.4635622000005,265.4635622000005,265.4635622000005,267.4487065000003,268.1993080000002,265.4635622000005,265.4635622000005,2.9479874999997264,007,P021,2025_May_08_1231,ConditionRich,2021.2.3,59.932743475418526,
215.75,216.0,41,0.0,Stimuli/Blank.png,0,0,0.0,0,92,92,92,,,,,,,,,,,,,215.75796179999998,0.007961799999975483,None,269.2335608000003,269.2335608000003,269.2335608000003,269.2335608000003,269.2335608000003,269.2335608000003,269.2335608000003,269.2335608000003,269.2335608000003,269.2335608000003,,007,P021,2025_May_08_1231,ConditionRich,2021.2.3,59.932743475418526,
216.0,219.75,38,0.75,Stimuli/P009/things_roadsweeper_05s.jpg,1,3,3.75,0,93,93,93,,,,,,,,,,,,,216.0235692999995,0.023569299999508075,None,269.48378310000044,269.48378310000044,269.48378310000044,269.48378310000044,269.48378310000044,269.48378310000044,272.4864527000009,None,269.48378310000044,269.48378310000044,,007,P021,2025_May_08_1231,ConditionRich,2021.2.3,59.932743475418526,
219.75,220.0,41,0.0,Stimuli/Blank.png,0,0,0.0,0,94,94,94,,,,,,,,,,,,,219.7595166000001,0.009516600000097242,None,273.2204163000006,273.2204163000006,273.2204163000006,273.2204163000006,273.2204163000006,273.2204163000006,273.2204163000006,273.2204163000006,273.2204163000006,273.2204163000006,,007,P021,2025_May_08_1231,ConditionRich,2021.2.3,59.932743475418526,
220.0,223.75,26,0.75,Stimuli/P009/things_cookie_sheet_05s.jpg,0,0,0.0,0,95,95,95,,,,,,,,,,,,,220.01230880000003,0.012308800000027986,None,273.48732780000046,273.48732780000046,273.48732780000046,273.48732780000046,273.48732780000046,273.48732780000046,273.48732780000046,273.48732780000046,273.48732780000046,273.48732780000046,,007,P021,2025_May_08_1231,ConditionRich,2021.2.3,59.932743475418526,
223.75,224.0,41,0.0,Stimuli/Blank.png,0,0,0.0,0,96,96,96,,,,,,,,,,,,,223.77980579999985,0.029805799999849114,None,277.24073450000014,277.24073450000014,277.24073450000014,277.24073450000014,277.24073450000014,277.24073450000014,277.24073450000014,277.24073450000014,277.24073450000014,277.24073450000014,,007,P021,2025_May_08_1231,ConditionRich,2021.2.3,59.932743475418526,
224.0,227.75,13,0.75,Stimuli/P009/sun_bjimvgwadfodioes.jpg,1,2,2.75,0,97,97,97,,,,,,,,,,,,,224.01411759999974,0.01411759999973583,None,277.47417510000014,277.47417510000014,277.47417510000014,277.47417510000014,277.47417510000014,277.47417510000014,279.45932060000086,280.2099192000005,277.47417510000014,277.47417510000014,,007,P021,2025_May_08_1231,ConditionRich,2021.2.3,59.932743475418526,
227.75,228.0,41,0.0,Stimuli/Blank.png,0,0,0.0,0,98,98,98,,,,,,,,,,,,,227.75288920000003,0.0028892000000269036,None,281.2275004000003,281.2275004000003,281.2275004000003,281.2275004000003,281.2275004000003,281.2275004000003,281.2275004000003,281.2275004000003,281.2275004000003,281.2275004000003,,007,P021,2025_May_08_1231,ConditionRich,2021.2.3,59.932743475418526,
228.0,231.75,12,0.75,Stimuli/P009/sun_birmwgkdtrlevcaf.jpg,0,0,0.0,0,99,99,99,,,,,,,,,,,,,228.01756939999996,0.01756939999995666,None,281.47770260000016,281.47770260000016,281.47770260000016,281.47770260000016,281.47770260000016,281.47770260000016,281.47770260000016,281.47770260000016,281.47770260000016,281.47770260000016,,007,P021,2025_May_08_1231,ConditionRich,2021.2.3,59.932743475418526,
231.75,232.0,41,0.0,Stimuli/Blank.png,0,0,0.0,0,100,100,100,,,,,,,,,,,,,231.7533168,0.0033167999999932363,None,285.21434280000085,285.21434280000085,285.21434280000085,285.21434280000085,285.21434280000085,285.21434280000085,285.21434280000085,285.21434280000085,285.21434280000085,285.21434280000085,,007,P021,2025_May_08_1231,ConditionRich,2021.2.3,59.932743475418526,
232.0,235.75,4,0.75,Stimuli/P009/sun_afkzdukwewwzqtmr.jpg,0,0,0.0,0,101,101,101,,,,,,,,,,,,,232.00356250000004,0.0035625000000436557,None,285.46456820000003,285.46456820000003,285.46456820000003,285.46456820000003,285.46456820000003,285.46456820000003,285.46456820000003,285.46456820000003,285.46456820000003,285.46456820000003,,007,P021,2025_May_08_1231,ConditionRich,2021.2.3,59.932743475418526,
235.75,236.0,41,0.0,Stimuli/Blank.png,0,0,0.0,0,102,102,102,,,,,,,,,,,,,235.75810050000018,0.008100500000182365,None,289.2178997000001,289.2178997000001,289.2178997000001,289.2178997000001,289.2178997000001,289.2178997000001,289.2178997000001,289.2178997000001,289.2178997000001,289.2178997000001,,007,P021,2025_May_08_1231,ConditionRich,2021.2.3,59.932743475418526,
236.0,239.75,37,0.75,Stimuli/P009/things_pug_05s.jpg,0,0,0.0,0,103,103,103,,,,,,,,,,,,,236.00706749999972,0.007067499999720894,None,289.4681042000002,289.4681042000002,289.4681042000002,289.4681042000002,289.4681042000002,289.4681042000002,289.4681042000002,289.4681042000002,289.4681042000002,289.4681042000002,,007,P021,2025_May_08_1231,ConditionRich,2021.2.3,59.932743475418526,
239.75,240.0,41,0.0,Stimuli/Blank.png,0,0,0.0,0,104,104,104,,,,,,,,,,,,,239.76094029999967,0.010940299999674608,None,293.2214371,293.2214371,293.2214371,293.2214371,293.2214371,293.2214371,293.2214371,293.2214371,293.2214371,293.2214371,,007,P021,2025_May_08_1231,ConditionRich,2021.2.3,59.932743475418526,
240.0,243.75,35,0.75,Stimuli/P009/things_mushroom_05n.jpg,0,0,0.0,0,105,105,105,,,,,,,,,,,,,240.0108524999996,0.010852499999600695,None,293.4716479000008,293.4716479000008,293.4716479000008,293.4716479000008,293.4716479000008,293.4716479000008,293.4716479000008,293.4716479000008,293.4716479000008,293.4716479000008,,007,P021,2025_May_08_1231,ConditionRich,2021.2.3,59.932743475418526,
243.75,244.0,41,0.0,Stimuli/Blank.png,0,0,0.0,0,106,106,106,,,,,,,,,,,,,243.76453680000031,0.014536800000314543,None,297.22492050000074,297.22492050000074,297.22492050000074,297.22492050000074,297.22492050000074,297.22492050000074,297.22492050000074,297.22492050000074,297.22492050000074,297.22492050000074,,007,P021,2025_May_08_1231,ConditionRich,2021.2.3,59.932743475418526,
244.0,247.75,9,0.75,Stimuli/P009/sun_bdjkvwqqqycuixtc.jpg,0,0,0.0,0,107,107,107,,,,,,,,,,,,,244.01729969999997,0.017299699999966833,None,297.4920765000006,297.4920765000006,297.4920765000006,297.4920765000006,297.4920765000006,297.4920765000006,297.4920765000006,297.4920765000006,297.4920765000006,297.4920765000006,,007,P021,2025_May_08_1231,ConditionRich,2021.2.3,59.932743475418526,
247.75,248.0,41,0.0,Stimuli/Blank.png,0,0,0.0,0,108,108,108,,,,,,,,,,,,,247.7682563999997,0.01825639999970008,None,301.22848990000057,301.22848990000057,301.22848990000057,301.22848990000057,301.22848990000057,301.22848990000057,301.22848990000057,301.22848990000057,301.22848990000057,301.22848990000057,,007,P021,2025_May_08_1231,ConditionRich,2021.2.3,59.932743475418526,
248.0,251.75,32,0.75,Stimuli/P009/things_hawk_05s.jpg,0,0,0.0,0,109,109,109,,,,,,,,,,,,,248.00339389999954,0.0033938999995370978,None,301.4787202000007,301.4787202000007,301.4787202000007,301.4787202000007,301.4787202000007,301.4787202000007,301.4787202000007,301.4787202000007,301.4787202000007,301.4787202000007,,007,P021,2025_May_08_1231,ConditionRich,2021.2.3,59.932743475418526,
251.75,252.0,41,0.0,Stimuli/Blank.png,0,0,0.0,0,110,110,110,,,,,,,,,,,,,251.77262840000003,0.022628400000030524,None,305.2320477000003,305.2320477000003,305.2320477000003,305.2320477000003,305.2320477000003,305.2320477000003,305.2320477000003,305.2320477000003,305.2320477000003,305.2320477000003,,007,P021,2025_May_08_1231,ConditionRich,2021.2.3,59.932743475418526,
252.0,255.75,23,0.75,Stimuli/P009/things_charger_05s.jpg,0,0,0.0,0,111,111,111,,,,,,,,,,,,,252.00733219999984,0.00733219999983703,None,305.4822572000003,305.4822572000003,305.4822572000003,305.4822572000003,305.4822572000003,305.4822572000003,305.4822572000003,305.4822572000003,305.4822572000003,305.4822572000003,,007,P021,2025_May_08_1231,ConditionRich,2021.2.3,59.932743475418526,
255.75,256.0,41,0.0,Stimuli/Blank.png,0,0,0.0,0,112,112,112,,,,,,,,,,,,,255.7771643999995,0.02716439999949216,None,309.25226100000054,309.25226100000054,309.25226100000054,309.25226100000054,309.25226100000054,309.25226100000054,309.25226100000054,309.25226100000054,309.25226100000054,309.25226100000054,,007,P021,2025_May_08_1231,ConditionRich,2021.2.3,59.932743475418526,
256.0,259.75,28,0.75,Stimuli/P009/things_face_05s.jpg,1,2,2.75,0,113,113,113,,,,,,,,,,,,,256.0255753000001,0.025575300000127754,None,309.5024413000001,309.5024413000001,309.5024413000001,309.5024413000001,309.5024413000001,309.5024413000001,311.4709270000003,312.22156170000017,309.5024413000001,309.5024413000001,,007,P021,2025_May_08_1231,ConditionRich,2021.2.3,59.932743475418526,
259.75,260.0,41,0.0,Stimuli/Blank.png,0,0,0.0,0,114,114,114,,,,,,,,,,,,,259.77861570000005,0.028615700000045763,None,313.2391148000006,313.2391148000006,313.2391148000006,313.2391148000006,313.2391148000006,313.2391148000006,313.2391148000006,313.2391148000006,313.2391148000006,313.2391148000006,,007,P021,2025_May_08_1231,ConditionRich,2021.2.3,59.932743475418526,
260.0,263.75,27,0.75,Stimuli/P009/things_curling_iron_05s.jpg,0,0,0.0,0,115,115,115,,,,,,,,,,,,,260.0122150999996,0.012215099999593804,None,313.4726464000005,313.4726464000005,313.4726464000005,313.4726464000005,313.4726464000005,313.4726464000005,313.4726464000005,313.4726464000005,313.4726464000005,313.4726464000005,,007,P021,2025_May_08_1231,ConditionRich,2021.2.3,59.932743475418526,
263.75,264.0,41,0.0,Stimuli/Blank.png,0,0,0.0,0,116,116,116,,,,,,,,,,,,,263.76565500000015,0.01565500000015163,None,317.2259943000008,317.2259943000008,317.2259943000008,317.2259943000008,317.2259943000008,317.2259943000008,317.2259943000008,317.2259943000008,317.2259943000008,317.2259943000008,,007,P021,2025_May_08_1231,ConditionRich,2021.2.3,59.932743475418526,
264.0,267.75,15,0.75,Stimuli/P009/sun_boryivbddrnarrbo.jpg,0,0,0.0,0,117,117,117,,,,,,,,,,,,,263.9986523999996,-0.00134760000037204,None,317.4762077000005,317.4762077000005,317.4762077000005,317.4762077000005,317.4762077000005,317.4762077000005,317.4762077000005,317.4762077000005,317.4762077000005,317.4762077000005,,007,P021,2025_May_08_1231,ConditionRich,2021.2.3,59.932743475418526,
267.75,268.0,41,0.0,Stimuli/Blank.png,0,0,0.0,0,118,118,118,,,,,,,,,,,,,267.76931719999993,0.0193171999999322,None,321.2294909000002,321.2294909000002,321.2294909000002,321.2294909000002,321.2294909000002,321.2294909000002,321.2294909000002,321.2294909000002,321.2294909000002,321.2294909000002,,007,P021,2025_May_08_1231,ConditionRich,2021.2.3,59.932743475418526,
268.0,271.75,40,0.75,Stimuli/P009/things_woman_05s.jpg,0,0,0.0,0,119,119,119,,,,,,,,,,,,,268.0021856000003,0.0021856000003026566,None,321.46303200000057,321.46303200000057,321.46303200000057,321.46303200000057,321.46303200000057,321.46303200000057,321.46303200000057,321.46303200000057,321.46303200000057,321.46303200000057,,007,P021,2025_May_08_1231,ConditionRich,2021.2.3,59.932743475418526,
271.75,272.0,41,0.0,Stimuli/Blank.png,0,0,0.0,0,120,120,120,,,,,,,,,,,,,271.75547300000017,0.005473000000165484,None,325.2164055000003,325.2164055000003,325.2164055000003,325.2164055000003,325.2164055000003,325.2164055000003,325.2164055000003,325.2164055000003,325.2164055000003,325.2164055000003,,007,P021,2025_May_08_1231,ConditionRich,2021.2.3,59.932743475418526,
272.0,275.75,24,0.75,Stimuli/P009/things_cigar_05n.jpg,0,0,0.0,0,121,121,121,,,,,,,,,,,,,272.0093651999996,0.009365199999592733,None,325.48327270000027,325.48327270000027,325.48327270000027,325.48327270000027,325.48327270000027,325.48327270000027,325.48327270000027,325.48327270000027,325.48327270000027,325.48327270000027,,007,P021,2025_May_08_1231,ConditionRich,2021.2.3,59.932743475418526,
275.75,276.0,41,0.0,Stimuli/Blank.png,0,0,0.0,0,122,122,122,,,,,,,,,,,,,275.7762837999999,0.026283799999873736,None,329.23655380000037,329.23655380000037,329.23655380000037,329.23655380000037,329.23655380000037,329.23655380000037,329.23655380000037,329.23655380000037,329.23655380000037,329.23655380000037,,007,P021,2025_May_08_1231,ConditionRich,2021.2.3,59.932743475418526,
276.0,292.0,0,0.0,Stimuli/Blank.png,1,1,1.75,0,123,123,123,,,,,,,,,,,,,276.00978510000004,0.009785100000044622,None,329.4702451000003,329.4702451000003,329.4702451000003,329.4702451000003,329.4702451000003,329.4702451000003,330.4543730000005,331.2049807000003,329.4702451000003,329.4702451000003,,007,P021,2025_May_08_1231,ConditionRich,2021.2.3,59.932743475418526,
292.0,295.75,8,0.75,Stimuli/P009/sun_batcnoizlkeiqdtx.jpg,1,1,1.75,0,124,124,124,,,,,,,,,,,,,292.0066125000003,0.006612500000301225,None,345.4675926,345.4675926,345.4675926,345.4675926,345.4675926,345.4675926,346.45179440000084,347.2024725000001,345.4675926,345.4675926,,007,P021,2025_May_08_1231,ConditionRich,2021.2.3,59.932743475418526,
295.75,296.0,41,0.0,Stimuli/Blank.png,0,0,0.0,0,125,125,125,,,,,,,,,,,,,295.7603914000001,0.010391400000116846,None,349.2209117000002,349.2209117000002,349.2209117000002,349.2209117000002,349.2209117000002,349.2209117000002,349.2209117000002,349.2209117000002,349.2209117000002,349.2209117000002,,007,P021,2025_May_08_1231,ConditionRich,2021.2.3,59.932743475418526,
296.0,299.75,11,0.75,Stimuli/P009/sun_bfyvfqiimvdaxlqn.jpg,1,1,1.75,0,126,126,126,,,,,,,,,,,,,296.01098619999993,0.010986199999933888,None,349.4711376000005,349.4711376000005,349.4711376000005,349.4711376000005,349.4711376000005,349.4711376000005,350.4553198000003,351.20600680000007,349.4711376000005,349.4711376000005,,007,P021,2025_May_08_1231,ConditionRich,2021.2.3,59.932743475418526,
299.75,300.0,41,0.0,Stimuli/Blank.png,0,0,0.0,0,127,127,127,,,,,,,,,,,,,299.7639333999996,0.013933399999586982,None,353.22445030000017,353.22445030000017,353.22445030000017,353.22445030000017,353.22445030000017,353.22445030000017,353.22445030000017,353.22445030000017,353.22445030000017,353.22445030000017,,007,P021,2025_May_08_1231,ConditionRich,2021.2.3,59.932743475418526,
300.0,303.75,34,0.75,Stimuli/P009/things_man_05s.jpg,0,0,0.0,0,128,128,128,,,,,,,,,,,,,300.0138168000003,0.013816800000313378,None,353.4746601000006,353.4746601000006,353.4746601000006,353.4746601000006,353.4746601000006,353.4746601000006,353.4746601000006,353.4746601000006,353.4746601000006,353.4746601000006,,007,P021,2025_May_08_1231,ConditionRich,2021.2.3,59.932743475418526,
303.75,304.0,41,0.0,Stimuli/Blank.png,0,0,0.0,0,129,129,129,,,,,,,,,,,,,303.7523576000003,0.0023576000003231457,None,357.2279817000008,357.2279817000008,357.2279817000008,357.2279817000008,357.2279817000008,357.2279817000008,357.2279817000008,357.2279817000008,357.2279817000008,357.2279817000008,,007,P021,2025_May_08_1231,ConditionRich,2021.2.3,59.932743475418526,
304.0,307.75,29,0.75,Stimuli/P009/things_fingerprint_05s.jpg,0,0,0.0,0,130,130,130,,,,,,,,,,,,,304.0176104000002,0.017610400000194204,None,357.4781915000003,357.4781915000003,357.4781915000003,357.4781915000003,357.4781915000003,357.4781915000003,357.4781915000003,357.4781915000003,357.4781915000003,357.4781915000003,,007,P021,2025_May_08_1231,ConditionRich,2021.2.3,59.932743475418526,
307.75,308.0,41,0.0,Stimuli/Blank.png,0,0,0.0,0,131,131,131,,,,,,,,,,,,,307.7544388999995,0.004438899999513524,None,361.21483460000036,361.21483460000036,361.21483460000036,361.21483460000036,361.21483460000036,361.21483460000036,361.21483460000036,361.21483460000036,361.21483460000036,361.21483460000036,,007,P021,2025_May_08_1231,ConditionRich,2021.2.3,59.932743475418526,
308.0,311.75,25,0.75,Stimuli/P009/things_clothespin_05s.jpg,0,0,0.0,0,132,132,132,,,,,,,,,,,,,308.00419150000016,0.004191500000160886,None,361.46504620000087,361.46504620000087,361.46504620000087,361.46504620000087,361.46504620000087,361.46504620000087,361.46504620000087,361.46504620000087,361.46504620000087,361.46504620000087,,007,P021,2025_May_08_1231,ConditionRich,2021.2.3,59.932743475418526,
311.75,312.0,41,0.0,Stimuli/Blank.png,0,0,0.0,0,133,133,133,,,,,,,,,,,,,311.7574298999998,0.007429899999806366,None,365.2183691,365.2183691,365.2183691,365.2183691,365.2183691,365.2183691,365.2183691,365.2183691,365.2183691,365.2183691,,007,P021,2025_May_08_1231,ConditionRich,2021.2.3,59.932743475418526,
312.0,315.75,22,0.75,Stimuli/P009/things_butterfly_05s.jpg,1,2,2.75,0,134,134,134,,,,,,,,,,,,,312.0084334000003,0.008433400000285474,None,365.46859140000015,365.46859140000015,365.46859140000015,365.46859140000015,365.46859140000015,365.46859140000015,367.4536762000007,368.20433930000036,365.46859140000015,365.46859140000015,,007,P021,2025_May_08_1231,ConditionRich,2021.2.3,59.932743475418526,
315.75,316.0,41,0.0,Stimuli/Blank.png,0,0,0.0,0,135,135,135,,,,,,,,,,,,,315.7618937999996,0.011893799999597832,None,369.22191530000055,369.22191530000055,369.22191530000055,369.22191530000055,369.22191530000055,369.22191530000055,369.22191530000055,369.22191530000055,369.22191530000055,369.22191530000055,,007,P021,2025_May_08_1231,ConditionRich,2021.2.3,59.932743475418526,
316.0,319.75,20,0.75,Stimuli/P009/sun_ddsiwinthvyejghq.jpg,1,1,1.75,0,136,136,136,,,,,,,,,,,,,316.01136140000017,0.011361400000168942,None,369.47214540000004,369.47214540000004,369.47214540000004,369.47214540000004,369.47214540000004,369.47214540000004,370.4563536000005,371.2069928000001,369.47214540000004,369.47214540000004,,007,P021,2025_May_08_1231,ConditionRich,2021.2.3,59.932743475418526,
319.75,320.0,41,0.0,Stimuli/Blank.png,0,0,0.0,0,137,137,137,,,,,,,,,,,,,319.7646324999996,0.014632499999606807,None,373.22544560000006,373.22544560000006,373.22544560000006,373.22544560000006,373.22544560000006,373.22544560000006,373.22544560000006,373.22544560000006,373.22544560000006,373.22544560000006,,007,P021,2025_May_08_1231,ConditionRich,2021.2.3,59.932743475418526,
320.0,323.75,30,0.75,Stimuli/P009/things_fire_05s.jpg,0,0,0.0,0,138,138,138,,,,,,,,,,,,,320.0178071,0.017807100000027276,None,373.4923621000007,373.4923621000007,373.4923621000007,373.4923621000007,373.4923621000007,373.4923621000007,373.4923621000007,373.4923621000007,373.4923621000007,373.4923621000007,,007,P021,2025_May_08_1231,ConditionRich,2021.2.3,59.932743475418526,
323.75,324.0,41,0.0,Stimuli/Blank.png,0,0,0.0,0,139,139,139,,,,,,,,,,,,,323.76853200000005,0.018532000000050175,None,377.2289513000005,377.2289513000005,377.2289513000005,377.2289513000005,377.2289513000005,377.2289513000005,377.2289513000005,377.2289513000005,377.2289513000005,377.2289513000005,,007,P021,2025_May_08_1231,ConditionRich,2021.2.3,59.932743475418526,
324.0,327.75,21,0.75,Stimuli/P009/things_boy_05s.jpg,0,0,0.0,0,140,140,140,,,,,,,,,,,,,324.0017058000003,0.0017058000003089546,None,377.4625158000008,377.4625158000008,377.4625158000008,377.4625158000008,377.4625158000008,377.4625158000008,377.4625158000008,377.4625158000008,377.4625158000008,377.4625158000008,,007,P021,2025_May_08_1231,ConditionRich,2021.2.3,59.932743475418526,
327.75,328.0,41,0.0,Stimuli/Blank.png,0,0,0.0,0,141,141,141,,,,,,,,,,,,,327.7547689000003,0.0047689000002719695,None,381.21585380000033,381.21585380000033,381.21585380000033,381.21585380000033,381.21585380000033,381.21585380000033,381.21585380000033,381.21585380000033,381.21585380000033,381.21585380000033,,007,P021,2025_May_08_1231,ConditionRich,2021.2.3,59.932743475418526,
328.0,331.75,31,0.75,Stimuli/P009/things_girl_05s.jpg,0,0,0.0,0,142,142,142,,,,,,,,,,,,,328.00736830000005,0.007368300000052841,None,381.48274260000017,381.48274260000017,381.48274260000017,381.48274260000017,381.48274260000017,381.48274260000017,381.48274260000017,381.48274260000017,381.48274260000017,381.48274260000017,,007,P021,2025_May_08_1231,ConditionRich,2021.2.3,59.932743475418526,
331.75,332.0,41,0.0,Stimuli/Blank.png,0,0,0.0,0,143,143,143,,,,,,,,,,,,,331.7772708000002,0.02727080000022397,None,385.2527461000009,385.2527461000009,385.2527461000009,385.2527461000009,385.2527461000009,385.2527461000009,385.2527461000009,385.2527461000009,385.2527461000009,385.2527461000009,,007,P021,2025_May_08_1231,ConditionRich,2021.2.3,59.932743475418526,
332.0,335.75,6,0.75,Stimuli/P009/sun_amkrwcyvinmsylsz.jpg,0,0,0.0,0,144,144,144,,,,,,,,,,,,,332.0275679999995,0.02756799999951909,None,385.5029667000008,385.5029667000008,385.5029667000008,385.5029667000008,385.5029667000008,385.5029667000008,385.5029667000008,385.5029667000008,385.5029667000008,385.5029667000008,,007,P021,2025_May_08_1231,ConditionRich,2021.2.3,59.932743475418526,
335.75,336.0,41,0.0,Stimuli/Blank.png,0,0,0.0,0,145,145,145,,,,,,,,,,,,,335.7795605000001,0.029560500000116008,None,389.2395955000002,389.2395955000002,389.2395955000002,389.2395955000002,389.2395955000002,389.2395955000002,389.2395955000002,389.2395955000002,389.2395955000002,389.2395955000002,,007,P021,2025_May_08_1231,ConditionRich,2021.2.3,59.932743475418526,
336.0,339.75,33,0.75,Stimuli/P009/things_lizard_05n.jpg,0,0,0.0,0,146,146,146,,,,,,,,,,,,,336.01387239999985,0.013872399999854679,None,389.4898161000001,389.4898161000001,389.4898161000001,389.4898161000001,389.4898161000001,389.4898161000001,389.4898161000001,389.4898161000001,389.4898161000001,389.4898161000001,,007,P021,2025_May_08_1231,ConditionRich,2021.2.3,59.932743475418526,
339.75,340.0,41,0.0,Stimuli/Blank.png,0,0,0.0,0,147,147,147,,,,,,,,,,,,,339.7676117000001,0.017611700000088604,None,393.24313750000056,393.24313750000056,393.24313750000056,393.24313750000056,393.24313750000056,393.24313750000056,393.24313750000056,393.24313750000056,393.24313750000056,393.24313750000056,,007,P021,2025_May_08_1231,ConditionRich,2021.2.3,59.932743475418526,
340.0,343.75,7,0.75,Stimuli/P009/sun_apiogxmvvzfmtsmj.jpg,0,0,0.0,0,148,148,148,,,,,,,,,,,,,340.0176904,0.017690399999992223,None,393.4933551000004,393.4933551000004,393.4933551000004,393.4933551000004,393.4933551000004,393.4933551000004,393.4933551000004,393.4933551000004,393.4933551000004,393.4933551000004,,007,P021,2025_May_08_1231,ConditionRich,2021.2.3,59.932743475418526,
343.75,344.0,41,0.0,Stimuli/Blank.png,0,0,0.0,0,149,149,149,,,,,,,,,,,,,343.7695576999995,0.019557699999495526,None,397.22998630000075,397.22998630000075,397.22998630000075,397.22998630000075,397.22998630000075,397.22998630000075,397.22998630000075,397.22998630000075,397.22998630000075,397.22998630000075,,007,P021,2025_May_08_1231,ConditionRich,2021.2.3,59.932743475418526,
344.0,347.75,3,0.75,Stimuli/P009/sun_aewgwsmvsgzleqhw.jpg,0,0,0.0,0,150,150,150,,,,,,,,,,,,,344.00257189999957,0.002571899999566085,None,397.4635192000005,397.4635192000005,397.4635192000005,397.4635192000005,397.4635192000005,397.4635192000005,397.4635192000005,397.4635192000005,397.4635192000005,397.4635192000005,,007,P021,2025_May_08_1231,ConditionRich,2021.2.3,59.932743475418526,
347.75,348.0,41,0.0,Stimuli/Blank.png,0,0,0.0,0,151,151,151,,,,,,,,,,,,,347.75664529999995,0.006645299999945564,None,401.216856,401.216856,401.216856,401.216856,401.216856,401.216856,401.216856,401.216856,401.216856,401.216856,,007,P021,2025_May_08_1231,ConditionRich,2021.2.3,59.932743475418526,
348.0,351.75,1,0.75,Stimuli/P009/sun_abqdlumenyzawlme.jpg,0,0,0.0,0,152,152,152,,,,,,,,,,,,,348.0070410999997,0.007041099999696598,None,401.4837408000003,401.4837408000003,401.4837408000003,401.4837408000003,401.4837408000003,401.4837408000003,401.4837408000003,401.4837408000003,401.4837408000003,401.4837408000003,,007,P021,2025_May_08_1231,ConditionRich,2021.2.3,59.932743475418526,
351.75,352.0,41,0.0,Stimuli/Blank.png,0,0,0.0,0,153,153,153,,,,,,,,,,,,,351.7770634999997,0.027063499999712803,None,405.23707080000077,405.23707080000077,405.23707080000077,405.23707080000077,405.23707080000077,405.23707080000077,405.23707080000077,405.23707080000077,405.23707080000077,405.23707080000077,,007,P021,2025_May_08_1231,ConditionRich,2021.2.3,59.932743475418526,
352.0,355.75,39,0.75,Stimuli/P009/things_tiara_05s.jpg,0,0,0.0,0,154,154,154,,,,,,,,,,,,,352.01014789999954,0.010147899999537913,None,405.47060560000045,405.47060560000045,405.47060560000045,405.47060560000045,405.47060560000045,405.47060560000045,405.47060560000045,405.47060560000045,405.47060560000045,405.47060560000045,,007,P021,2025_May_08_1231,ConditionRich,2021.2.3,59.932743475418526,
355.75,356.0,41,0.0,Stimuli/Blank.png,0,0,0.0,0,155,155,155,,,,,,,,,,,,,355.7629753000001,0.012975300000107381,None,409.22391890000017,409.22391890000017,409.22391890000017,409.22391890000017,409.22391890000017,409.22391890000017,409.22391890000017,409.22391890000017,409.22391890000017,409.22391890000017,,007,P021,2025_May_08_1231,ConditionRich,2021.2.3,59.932743475418526,
356.0,359.75,16,0.75,Stimuli/P009/sun_bqpyqljaflidcauh.jpg,0,0,0.0,0,156,156,156,,,,,,,,,,,,,356.01358960000016,0.013589600000159408,None,409.47412930000064,409.47412930000064,409.47412930000064,409.47412930000064,409.47412930000064,409.47412930000064,409.47412930000064,409.47412930000064,409.47412930000064,409.47412930000064,,007,P021,2025_May_08_1231,ConditionRich,2021.2.3,59.932743475418526,
359.75,360.0,41,0.0,Stimuli/Blank.png,0,0,0.0,0,157,157,157,,,,,,,,,,,,,359.7529187,0.0029187000000092667,None,413.2274638000008,413.2274638000008,413.2274638000008,413.2274638000008,413.2274638000008,413.2274638000008,413.2274638000008,413.2274638000008,413.2274638000008,413.2274638000008,,007,P021,2025_May_08_1231,ConditionRich,2021.2.3,59.932743475418526,
360.0,363.75,2,0.75,Stimuli/P009/sun_acvloibbxiqpiwnv.jpg,0,0,0.0,0,158,158,158,,,,,,,,,,,,,360.0168055000004,0.016805500000373286,None,413.47767250000015,413.47767250000015,413.47767250000015,413.47767250000015,413.47767250000015,413.47767250000015,413.47767250000015,413.47767250000015,413.47767250000015,413.47767250000015,,007,P021,2025_May_08_1231,ConditionRich,2021.2.3,59.932743475418526,
363.75,364.0,41,0.0,Stimuli/Blank.png,0,0,0.0,0,159,159,159,,,,,,,,,,,,,363.75315390000014,0.0031539000001430395,None,417.21431400000074,417.21431400000074,417.21431400000074,417.21431400000074,417.21431400000074,417.21431400000074,417.21431400000074,417.21431400000074,417.21431400000074,417.21431400000074,,007,P021,2025_May_08_1231,ConditionRich,2021.2.3,59.932743475418526,
364.0,367.75,36,0.75,Stimuli/P009/things_pelican_05s.jpg,1,3,3.75,0,160,160,160,,,,,,,,,,,,,364.0039956999999,0.0039956999999049,None,417.4645293000003,417.4645293000003,417.4645293000003,417.4645293000003,417.4645293000003,417.4645293000003,420.45054360000086,421.2011861000001,417.4645293000003,417.4645293000003,,007,P021,2025_May_08_1231,ConditionRich,2021.2.3,59.932743475418526,
367.75,368.0,41,0.0,Stimuli/Blank.png,0,0,0.0,0,161,161,161,,,,,,,,,,,,,367.75772489999963,0.007724899999629997,None,421.2178534000004,421.2178534000004,421.2178534000004,421.2178534000004,421.2178534000004,421.2178534000004,421.2178534000004,421.2178534000004,421.2178534000004,421.2178534000004,,007,P021,2025_May_08_1231,ConditionRich,2021.2.3,59.932743475418526,
368.0,371.75,18,0.75,Stimuli/P009/sun_bwjdahsxcqepqqbm.jpg,0,0,0.0,0,162,162,162,,,,,,,,,,,,,368.0077432999997,0.007743299999674491,None,421.46807380000064,421.46807380000064,421.46807380000064,421.46807380000064,421.46807380000064,421.46807380000064,421.46807380000064,421.46807380000064,421.46807380000064,421.46807380000064,,007,P021,2025_May_08_1231,ConditionRich,2021.2.3,59.932743475418526,
371.75,372.0,41,0.0,Stimuli/Blank.png,0,0,0.0,0,163,163,163,,,,,,,,,,,,,371.76237109999965,0.012371099999654689,None,425.2380707000002,425.2380707000002,425.2380707000002,425.2380707000002,425.2380707000002,425.2380707000002,425.2380707000002,425.2380707000002,425.2380707000002,425.2380707000002,,007,P021,2025_May_08_1231,ConditionRich,2021.2.3,59.932743475418526,
372.0,388.0,0,0.0,Stimuli/Blank.png,1,9,9.75,0,164,164,164,,,,,,,,,,,,,372.0279193999995,0.027919399999518646,None,425.4882845000002,425.4882845000002,425.4882845000002,425.4882845000002,425.4882845000002,425.4882845000002,434.47962110000026,435.23028460000023,425.4882845000002,425.4882845000002,,007,P021,2025_May_08_1231,ConditionRich,2021.2.3,59.932743475418526,
