eventStartTime,eventEndTime,eventCond,imSize,imFile,responseEvent,fixRespStart,fixRespEnd,Events.thisRepN,Events.thisTrialN,Events.thisN,Events.thisIndex,Instructions.started,Instructions.stopped,participantReadyResponse.keys,participantReadyResponse.rt,participantReadyResponse.started,participantReadyResponse.stopped,startWaitforTrigger,triggerResponse.keys,triggerResponse.rt,triggerResponse.started,triggerResponse.stopped,globalTimer,actualStartTime,startTimingDiff,participantResponse.keys,participantResponse.started,participantResponse.stopped,image.started,image.stopped,fixationOutside.started,fixationOutside.stopped,fixationResponse.started,fixationResponse.stopped,fixationInside.started,fixationInside.stopped,participantResponse.rt,session,participant,date,expName,psychopyVersion,frameRate,
,,,,,,,,,,,,11.309652500000084,None,1,1.5244618000006085,11.309652500000084,None,,,,,,,,,,,,,,,,,,,,,005,P021,2025_May_08_1211,ConditionRich,2021.2.3,59.9419761672711,
,,,,,,,,,,,,,,,,,,12.83775659999992,5,13.706835599999977,12.851282600000559,None,,,,,,,,,,,,,,,,005,P021,2025_May_08_1211,ConditionRich,2021.2.3,59.9419761672711,
0.0,4.0,0,0.0,Stimuli/Blank.png,0,0.0,0.0,0,0,0,0,,,,,,,,,,,,26.567475599999852,0.028629199999159027,0.028629199999159027,None,26.613528800000495,None,26.613528800000495,None,26.613528800000495,None,26.613528800000495,26.613528800000495,26.613528800000495,None,,005,P021,2025_May_08_1211,ConditionRich,2021.2.3,59.9419761672711,
4.0,4.75,20,0.75,Stimuli/P009/sun_ddsiwinthvyejghq.jpg,0,0.0,0.0,0,1,1,1,,,,,,,,,,,,,4.019183399999747,0.019183399999747053,None,30.600664900000083,30.600664900000083,30.600664900000083,30.600664900000083,30.600664900000083,30.600664900000083,30.600664900000083,30.600664900000083,30.600664900000083,30.600664900000083,,005,P021,2025_May_08_1211,ConditionRich,2021.2.3,59.9419761672711,
4.75,8.0,41,0.0,Stimuli/Blank.png,0,0.0,0.0,0,2,2,2,,,,,,,,,,,,,4.754784999999174,0.004784999999174033,None,31.351317600000584,31.351317600000584,31.351317600000584,31.351317600000584,31.351317600000584,31.351317600000584,31.351317600000584,31.351317600000584,31.351317600000584,31.351317600000584,,005,P021,2025_May_08_1211,ConditionRich,2021.2.3,59.9419761672711,
8.0,8.75,28,0.75,Stimuli/P009/things_face_05s.jpg,0,0.0,0.0,0,3,3,3,,,,,,,,,,,,,8.022171899999194,0.022171899999193556,None,34.60392000000047,34.60392000000047,34.60392000000047,34.60392000000047,34.60392000000047,34.60392000000047,34.60392000000047,34.60392000000047,34.60392000000047,34.60392000000047,,005,P021,2025_May_08_1211,ConditionRich,2021.2.3,59.9419761672711,
8.75,12.0,41,0.0,Stimuli/Blank.png,0,0.0,0.0,0,4,4,4,,,,,,,,,,,,,8.755953199999567,0.005953199999567005,None,35.33791900000051,35.33791900000051,35.33791900000051,35.33791900000051,35.33791900000051,35.33791900000051,35.33791900000051,35.33791900000051,35.33791900000051,35.33791900000051,,005,P021,2025_May_08_1211,ConditionRich,2021.2.3,59.9419761672711,
12.0,12.75,12,0.75,Stimuli/P009/sun_birmwgkdtrlevcaf.jpg,0,0.0,0.0,0,5,5,5,,,,,,,,,,,,,12.00878239999929,0.008782399999290647,None,38.59074680000049,38.59074680000049,38.59074680000049,38.59074680000049,38.59074680000049,38.59074680000049,38.59074680000049,38.59074680000049,38.59074680000049,38.59074680000049,,005,P021,2025_May_08_1211,ConditionRich,2021.2.3,59.9419761672711,
12.75,16.0,41,0.0,Stimuli/Blank.png,0,0.0,0.0,0,6,6,6,,,,,,,,,,,,,12.762041199999658,0.012041199999657692,None,39.35813740000049,39.35813740000049,39.35813740000049,39.35813740000049,39.35813740000049,39.35813740000049,39.35813740000049,39.35813740000049,39.35813740000049,39.35813740000049,,005,P021,2025_May_08_1211,ConditionRich,2021.2.3,59.9419761672711,
16.0,16.75,17,0.75,Stimuli/P009/sun_brkrfjpyfglmigkk.jpg,0,0.0,0.0,0,7,7,7,,,,,,,,,,,,,16.028884800000014,0.028884800000014366,None,42.61098370000036,42.61098370000036,42.61098370000036,42.61098370000036,42.61098370000036,42.61098370000036,42.61098370000036,42.61098370000036,42.61098370000036,42.61098370000036,,005,P021,2025_May_08_1211,ConditionRich,2021.2.3,59.9419761672711,
16.75,20.0,41,0.0,Stimuli/Blank.png,0,0.0,0.0,0,8,8,8,,,,,,,,,,,,,16.765244299999722,0.015244299999721989,None,43.36166460000004,43.36166460000004,43.36166460000004,43.36166460000004,43.36166460000004,43.36166460000004,43.36166460000004,43.36166460000004,43.36166460000004,43.36166460000004,,005,P021,2025_May_08_1211,ConditionRich,2021.2.3,59.9419761672711,
20.0,20.75,31,0.75,Stimuli/P009/things_girl_05s.jpg,0,0.0,0.0,0,9,9,9,,,,,,,,,,,,,20.016474999999446,0.016474999999445572,None,46.614530200000445,46.614530200000445,46.614530200000445,46.614530200000445,46.614530200000445,46.614530200000445,46.614530200000445,46.614530200000445,46.614530200000445,46.614530200000445,,005,P021,2025_May_08_1211,ConditionRich,2021.2.3,59.9419761672711,
20.75,24.0,41,0.0,Stimuli/Blank.png,1,2.25,3.0,0,10,10,10,,,,,,,,,,,,,20.767128799999227,0.01712879999922734,1,47.348508400000355,47.348508400000355,47.348508400000355,47.348508400000355,47.348508400000355,47.348508400000355,49.5838332000003,50.33451990000049,47.348508400000355,47.348508400000355,2.8228828999999678,005,P021,2025_May_08_1211,ConditionRich,2021.2.3,59.9419761672711,
24.0,24.75,35,0.75,Stimuli/P009/things_mushroom_05n.jpg,0,0.0,0.0,0,11,11,11,,,,,,,,,,,,,24.003260799999225,0.003260799999225128,None,50.58471240000017,50.58471240000017,50.58471240000017,50.58471240000017,50.58471240000017,50.58471240000017,50.58471240000017,50.58471240000017,50.58471240000017,50.58471240000017,,005,P021,2025_May_08_1211,ConditionRich,2021.2.3,59.9419761672711,
24.75,28.0,41,0.0,Stimuli/Blank.png,0,0.0,0.0,0,12,12,12,,,,,,,,,,,,,24.75625449999916,0.006254499999158725,None,51.352154600000176,51.352154600000176,51.352154600000176,51.352154600000176,51.352154600000176,51.352154600000176,51.352154600000176,51.352154600000176,51.352154600000176,51.352154600000176,,005,P021,2025_May_08_1211,ConditionRich,2021.2.3,59.9419761672711,
28.0,28.75,11,0.75,Stimuli/P009/sun_bfyvfqiimvdaxlqn.jpg,0,0.0,0.0,0,13,13,13,,,,,,,,,,,,,28.025357399999848,0.025357399999847985,None,54.6216058,54.6216058,54.6216058,54.6216058,54.6216058,54.6216058,54.6216058,54.6216058,54.6216058,54.6216058,,005,P021,2025_May_08_1211,ConditionRich,2021.2.3,59.9419761672711,
28.75,32.0,41,0.0,Stimuli/Blank.png,0,0.0,0.0,0,14,14,14,,,,,,,,,,,,,28.773744799999804,0.023744799999803945,None,55.35558370000035,55.35558370000035,55.35558370000035,55.35558370000035,55.35558370000035,55.35558370000035,55.35558370000035,55.35558370000035,55.35558370000035,55.35558370000035,,005,P021,2025_May_08_1211,ConditionRich,2021.2.3,59.9419761672711,
32.0,32.75,13,0.75,Stimuli/P009/sun_bjimvgwadfodioes.jpg,0,0.0,0.0,0,15,15,15,,,,,,,,,,,,,32.010260899999594,0.010260899999593676,None,58.60846529999981,58.60846529999981,58.60846529999981,58.60846529999981,58.60846529999981,58.60846529999981,58.60846529999981,58.60846529999981,58.60846529999981,58.60846529999981,,005,P021,2025_May_08_1211,ConditionRich,2021.2.3,59.9419761672711,
32.75,36.0,41,0.0,Stimuli/Blank.png,0,0.0,0.0,0,16,16,16,,,,,,,,,,,,,32.78085589999955,0.030855899999551184,None,59.37587230000008,59.37587230000008,59.37587230000008,59.37587230000008,59.37587230000008,59.37587230000008,59.37587230000008,59.37587230000008,59.37587230000008,59.37587230000008,,005,P021,2025_May_08_1211,ConditionRich,2021.2.3,59.9419761672711,
36.0,36.75,32,0.75,Stimuli/P009/things_hawk_05s.jpg,0,0.0,0.0,0,17,17,17,,,,,,,,,,,,,36.01371259999996,0.01371259999996255,None,62.59531659999993,62.59531659999993,62.59531659999993,62.59531659999993,62.59531659999993,62.59531659999993,62.59531659999993,62.59531659999993,62.59531659999993,62.59531659999993,,005,P021,2025_May_08_1211,ConditionRich,2021.2.3,59.9419761672711,
36.75,40.0,41,0.0,Stimuli/Blank.png,1,2.25,3.0,0,18,18,18,,,,,,,,,,,,,36.76449719999982,0.014497199999823351,1,63.34598439999991,63.34598439999991,63.34598439999991,63.34598439999991,63.34598439999991,63.34598439999991,65.58128450000004,66.33196000000044,63.34598439999991,63.34598439999991,2.7271752999995442,005,P021,2025_May_08_1211,ConditionRich,2021.2.3,59.9419761672711,
40.0,40.75,6,0.75,Stimuli/P009/sun_amkrwcyvinmsylsz.jpg,0,0.0,0.0,0,19,19,19,,,,,,,,,,,,,40.00182539999969,0.0018253999996886705,None,66.59886780000033,66.59886780000033,66.59886780000033,66.59886780000033,66.59886780000033,66.59886780000033,66.59886780000033,66.59886780000033,66.59886780000033,66.59886780000033,,005,P021,2025_May_08_1211,ConditionRich,2021.2.3,59.9419761672711,
40.75,44.0,41,0.0,Stimuli/Blank.png,0,0.0,0.0,0,20,20,20,,,,,,,,,,,,,40.7672905999998,0.01729059999979654,None,67.34951850000016,67.34951850000016,67.34951850000016,67.34951850000016,67.34951850000016,67.34951850000016,67.34951850000016,67.34951850000016,67.34951850000016,67.34951850000016,,005,P021,2025_May_08_1211,ConditionRich,2021.2.3,59.9419761672711,
44.0,44.75,34,0.75,Stimuli/P009/things_man_05s.jpg,0,0.0,0.0,0,21,21,21,,,,,,,,,,,,,44.00449529999969,0.0044952999996894505,None,70.60239009999987,70.60239009999987,70.60239009999987,70.60239009999987,70.60239009999987,70.60239009999987,70.60239009999987,70.60239009999987,70.60239009999987,70.60239009999987,,005,P021,2025_May_08_1211,ConditionRich,2021.2.3,59.9419761672711,
44.75,48.0,41,0.0,Stimuli/Blank.png,1,1.25,2.0,0,22,22,22,,,,,,,,,,,,,44.770908299999974,0.02090829999997368,1,71.35305310000058,71.35305310000058,71.35305310000058,71.35305310000058,71.35305310000058,71.35305310000058,72.58747360000052,73.33818080000037,71.35305310000058,71.35305310000058,1.7430953999992198,005,P021,2025_May_08_1211,ConditionRich,2021.2.3,59.9419761672711,
48.0,48.75,38,0.75,Stimuli/P009/things_roadsweeper_05s.jpg,0,0.0,0.0,0,23,23,23,,,,,,,,,,,,,48.00979559999996,0.009795599999961269,None,74.60594000000037,74.60594000000037,74.60594000000037,74.60594000000037,74.60594000000037,74.60594000000037,74.60594000000037,74.60594000000037,74.60594000000037,74.60594000000037,,005,P021,2025_May_08_1211,ConditionRich,2021.2.3,59.9419761672711,
48.75,52.0,41,0.0,Stimuli/Blank.png,0,0.0,0.0,0,24,24,24,,,,,,,,,,,,,48.776047299999846,0.026047299999845563,None,75.37327610000011,75.37327610000011,75.37327610000011,75.37327610000011,75.37327610000011,75.37327610000011,75.37327610000011,75.37327610000011,75.37327610000011,75.37327610000011,,005,P021,2025_May_08_1211,ConditionRich,2021.2.3,59.9419761672711,
52.0,52.75,9,0.75,Stimuli/P009/sun_bdjkvwqqqycuixtc.jpg,0,0.0,0.0,0,25,25,25,,,,,,,,,,,,,52.03002249999918,0.030022499999176944,None,78.62616320000052,78.62616320000052,78.62616320000052,78.62616320000052,78.62616320000052,78.62616320000052,78.62616320000052,78.62616320000052,78.62616320000052,78.62616320000052,,005,P021,2025_May_08_1211,ConditionRich,2021.2.3,59.9419761672711,
52.75,56.0,41,0.0,Stimuli/Blank.png,0,0.0,0.0,0,26,26,26,,,,,,,,,,,,,52.78000489999977,0.030004899999767076,None,79.37681770000017,79.37681770000017,79.37681770000017,79.37681770000017,79.37681770000017,79.37681770000017,79.37681770000017,79.37681770000017,79.37681770000017,79.37681770000017,,005,P021,2025_May_08_1211,ConditionRich,2021.2.3,59.9419761672711,
56.0,56.75,10,0.75,Stimuli/P009/sun_bdkttewvyfdarikm.jpg,0,0.0,0.0,0,27,27,27,,,,,,,,,,,,,56.01481419999982,0.014814199999818811,None,82.59632370000054,82.59632370000054,82.59632370000054,82.59632370000054,82.59632370000054,82.59632370000054,82.59632370000054,82.59632370000054,82.59632370000054,82.59632370000054,,005,P021,2025_May_08_1211,ConditionRich,2021.2.3,59.9419761672711,
56.75,60.0,41,0.0,Stimuli/Blank.png,0,0.0,0.0,0,28,28,28,,,,,,,,,,,,,56.7672364,0.017236400000001595,None,83.36367510000036,83.36367510000036,83.36367510000036,83.36367510000036,83.36367510000036,83.36367510000036,83.36367510000036,83.36367510000036,83.36367510000036,83.36367510000036,,005,P021,2025_May_08_1211,ConditionRich,2021.2.3,59.9419761672711,
60.0,60.75,2,0.75,Stimuli/P009/sun_acvloibbxiqpiwnv.jpg,0,0.0,0.0,0,29,29,29,,,,,,,,,,,,,60.01785249999921,0.017852499999207794,None,86.59985810000035,86.59985810000035,86.59985810000035,86.59985810000035,86.59985810000035,86.59985810000035,86.59985810000035,86.59985810000035,86.59985810000035,86.59985810000035,,005,P021,2025_May_08_1211,ConditionRich,2021.2.3,59.9419761672711,
60.75,64.0,41,0.0,Stimuli/Blank.png,0,0.0,0.0,0,30,30,30,,,,,,,,,,,,,60.75224459999936,0.002244599999357888,None,87.33383910000066,87.33383910000066,87.33383910000066,87.33383910000066,87.33383910000066,87.33383910000066,87.33383910000066,87.33383910000066,87.33383910000066,87.33383910000066,,005,P021,2025_May_08_1211,ConditionRich,2021.2.3,59.9419761672711,
64.0,64.75,30,0.75,Stimuli/P009/things_fire_05s.jpg,0,0.0,0.0,0,31,31,31,,,,,,,,,,,,,64.0057711999998,0.005771199999799137,None,90.58671930000037,90.58671930000037,90.58671930000037,90.58671930000037,90.58671930000037,90.58671930000037,90.58671930000037,90.58671930000037,90.58671930000037,90.58671930000037,,005,P021,2025_May_08_1211,ConditionRich,2021.2.3,59.9419761672711,
64.75,68.0,41,0.0,Stimuli/Blank.png,0,0.0,0.0,0,32,32,32,,,,,,,,,,,,,64.75562049999917,0.005620499999167805,None,91.33737370000017,91.33737370000017,91.33737370000017,91.33737370000017,91.33737370000017,91.33737370000017,91.33737370000017,91.33737370000017,91.33737370000017,91.33737370000017,,005,P021,2025_May_08_1211,ConditionRich,2021.2.3,59.9419761672711,
68.0,68.75,15,0.75,Stimuli/P009/sun_boryivbddrnarrbo.jpg,0,0.0,0.0,0,33,33,33,,,,,,,,,,,,,68.01105629999984,0.011056299999836483,None,94.60694710000007,94.60694710000007,94.60694710000007,94.60694710000007,94.60694710000007,94.60694710000007,94.60694710000007,94.60694710000007,94.60694710000007,94.60694710000007,,005,P021,2025_May_08_1211,ConditionRich,2021.2.3,59.9419761672711,
68.75,72.0,41,0.0,Stimuli/Blank.png,0,0.0,0.0,0,34,34,34,,,,,,,,,,,,,68.77548279999974,0.025482799999736017,None,95.35759120000057,95.35759120000057,95.35759120000057,95.35759120000057,95.35759120000057,95.35759120000057,95.35759120000057,95.35759120000057,95.35759120000057,95.35759120000057,,005,P021,2025_May_08_1211,ConditionRich,2021.2.3,59.9419761672711,
72.0,72.75,25,0.75,Stimuli/P009/things_clothespin_05s.jpg,0,0.0,0.0,0,35,35,35,,,,,,,,,,,,,72.01217289999931,0.012172899999313813,None,98.59379420000005,98.59379420000005,98.59379420000005,98.59379420000005,98.59379420000005,98.59379420000005,98.59379420000005,98.59379420000005,98.59379420000005,98.59379420000005,,005,P021,2025_May_08_1211,ConditionRich,2021.2.3,59.9419761672711,
72.75,76.0,41,0.0,Stimuli/Blank.png,1,2.25,3.0,0,36,36,36,,,,,,,,,,,,,72.76322699999946,0.013226999999460531,1,99.34448310000062,99.34448310000062,99.34448310000062,99.34448310000062,99.34448310000062,99.34448310000062,101.57973230000061,102.33042860000023,99.34448310000062,99.34448310000062,3.0167209000001094,005,P021,2025_May_08_1211,ConditionRich,2021.2.3,59.9419761672711,
76.0,76.75,33,0.75,Stimuli/P009/things_lizard_05n.jpg,0,0.0,0.0,0,37,37,37,,,,,,,,,,,,,75.99879369999962,-0.001206300000376359,None,102.58064860000013,102.58064860000013,102.58064860000013,102.58064860000013,102.58064860000013,102.58064860000013,102.58064860000013,102.58064860000013,102.58064860000013,102.58064860000013,,005,P021,2025_May_08_1211,ConditionRich,2021.2.3,59.9419761672711,
76.75,80.0,41,0.0,Stimuli/Blank.png,0,0.0,0.0,0,38,38,38,,,,,,,,,,,,,76.74988349999967,-0.00011650000033114338,None,103.33131180000055,103.33131180000055,103.33131180000055,103.33131180000055,103.33131180000055,103.33131180000055,103.33131180000055,103.33131180000055,103.33131180000055,103.33131180000055,,005,P021,2025_May_08_1211,ConditionRich,2021.2.3,59.9419761672711,
80.0,80.75,24,0.75,Stimuli/P009/things_cigar_05n.jpg,0,0.0,0.0,0,39,39,39,,,,,,,,,,,,,80.00213649999932,0.00213649999932386,None,106.58417590000045,106.58417590000045,106.58417590000045,106.58417590000045,106.58417590000045,106.58417590000045,106.58417590000045,106.58417590000045,106.58417590000045,106.58417590000045,,005,P021,2025_May_08_1211,ConditionRich,2021.2.3,59.9419761672711,
80.75,84.0,41,0.0,Stimuli/Blank.png,1,2.25,3.0,0,40,40,40,,,,,,,,,,,,,80.75533459999951,0.005334599999514467,1,107.35153200000059,107.35153200000059,107.35153200000059,107.35153200000059,107.35153200000059,107.35153200000059,109.58683560000009,110.33750250000048,107.35153200000059,107.35153200000059,3.028531500000099,005,P021,2025_May_08_1211,ConditionRich,2021.2.3,59.9419761672711,
84.0,100.0,0,0.0,Stimuli/Blank.png,1,1.0,1.75,0,41,41,41,,,,,,,,,,,,,84.02488559999983,0.024885599999834085,1,110.60442980000062,110.60442980000062,110.60442980000062,110.60442980000062,110.60442980000062,110.60442980000062,111.58866430000035,112.3393216000004,110.60442980000062,110.60442980000062,2.4589823999995133,005,P021,2025_May_08_1211,ConditionRich,2021.2.3,59.9419761672711,
100.0,100.75,8,0.75,Stimuli/P009/sun_batcnoizlkeiqdtx.jpg,0,0.0,0.0,0,42,42,42,,,,,,,,,,,,,100.00460739999926,0.004607399999258632,None,126.60187050000059,126.60187050000059,126.60187050000059,126.60187050000059,126.60187050000059,126.60187050000059,126.60187050000059,126.60187050000059,126.60187050000059,126.60187050000059,,005,P021,2025_May_08_1211,ConditionRich,2021.2.3,59.9419761672711,
100.75,104.0,41,0.0,Stimuli/Blank.png,1,1.25,2.0,0,43,43,43,,,,,,,,,,,,,100.7718175,0.02181749999999738,1,127.35264720000032,127.35264720000032,127.35264720000032,127.35264720000032,127.35264720000032,127.35264720000032,128.58696680000048,129.33766110000033,127.35264720000032,127.35264720000032,1.9114785000001575,005,P021,2025_May_08_1211,ConditionRich,2021.2.3,59.9419761672711,
104.0,104.75,37,0.75,Stimuli/P009/things_pug_05s.jpg,0,0.0,0.0,0,44,44,44,,,,,,,,,,,,,104.00781169999937,0.0078116999993653735,None,130.58873790000052,130.58873790000052,130.58873790000052,130.58873790000052,130.58873790000052,130.58873790000052,130.58873790000052,130.58873790000052,130.58873790000052,130.58873790000052,,005,P021,2025_May_08_1211,ConditionRich,2021.2.3,59.9419761672711,
104.75,108.0,41,0.0,Stimuli/Blank.png,0,0.0,0.0,0,45,45,45,,,,,,,,,,,,,104.7600666999997,0.010066699999697448,None,131.35610429999997,131.35610429999997,131.35610429999997,131.35610429999997,131.35610429999997,131.35610429999997,131.35610429999997,131.35610429999997,131.35610429999997,131.35610429999997,,005,P021,2025_May_08_1211,ConditionRich,2021.2.3,59.9419761672711,
108.0,108.75,1,0.75,Stimuli/P009/sun_abqdlumenyzawlme.jpg,0,0.0,0.0,0,46,46,46,,,,,,,,,,,,,108.02689299999929,0.026892999999290623,None,134.60895040000014,134.60895040000014,134.60895040000014,134.60895040000014,134.60895040000014,134.60895040000014,134.60895040000014,134.60895040000014,134.60895040000014,134.60895040000014,,005,P021,2025_May_08_1211,ConditionRich,2021.2.3,59.9419761672711,
108.75,112.0,41,0.0,Stimuli/Blank.png,0,0.0,0.0,0,47,47,47,,,,,,,,,,,,,108.76171619999968,0.01171619999968243,None,135.34292600000026,135.34292600000026,135.34292600000026,135.34292600000026,135.34292600000026,135.34292600000026,135.34292600000026,135.34292600000026,135.34292600000026,135.34292600000026,,005,P021,2025_May_08_1211,ConditionRich,2021.2.3,59.9419761672711,
112.0,112.75,39,0.75,Stimuli/P009/things_tiara_05s.jpg,0,0.0,0.0,0,48,48,48,,,,,,,,,,,,,112.01496029999998,0.014960299999984272,None,138.59577830000035,138.59577830000035,138.59577830000035,138.59577830000035,138.59577830000035,138.59577830000035,138.59577830000035,138.59577830000035,138.59577830000035,138.59577830000035,,005,P021,2025_May_08_1211,ConditionRich,2021.2.3,59.9419761672711,
112.75,116.0,41,0.0,Stimuli/Blank.png,1,0.25,1.0,0,49,49,49,,,,,,,,,,,,,112.75015219999932,0.00015219999932014616,1,139.34647780000068,139.34647780000068,139.34647780000068,139.34647780000068,139.34647780000068,139.34647780000068,139.58000390000052,140.3307136000003,139.34647780000068,139.34647780000068,1.0726733000001332,005,P021,2025_May_08_1211,ConditionRich,2021.2.3,59.9419761672711,
116.0,116.75,26,0.75,Stimuli/P009/things_cookie_sheet_05s.jpg,0,0.0,0.0,0,50,50,50,,,,,,,,,,,,,116.02010799999971,0.020107999999709136,None,142.61604840000018,142.61604840000018,142.61604840000018,142.61604840000018,142.61604840000018,142.61604840000018,142.61604840000018,142.61604840000018,142.61604840000018,142.61604840000018,,005,P021,2025_May_08_1211,ConditionRich,2021.2.3,59.9419761672711,
116.75,120.0,41,0.0,Stimuli/Blank.png,0,0.0,0.0,0,51,51,51,,,,,,,,,,,,,116.76990059999935,0.019900599999346014,None,143.36670180000056,143.36670180000056,143.36670180000056,143.36670180000056,143.36670180000056,143.36670180000056,143.36670180000056,143.36670180000056,143.36670180000056,143.36670180000056,,005,P021,2025_May_08_1211,ConditionRich,2021.2.3,59.9419761672711,
120.0,120.75,14,0.75,Stimuli/P009/sun_blaqxdebghixzyyw.jpg,0,0.0,0.0,0,52,52,52,,,,,,,,,,,,,120.02093989999958,0.020939899999575573,None,146.60288769999988,146.60288769999988,146.60288769999988,146.60288769999988,146.60288769999988,146.60288769999988,146.60288769999988,146.60288769999988,146.60288769999988,146.60288769999988,,005,P021,2025_May_08_1211,ConditionRich,2021.2.3,59.9419761672711,
120.75,124.0,41,0.0,Stimuli/Blank.png,0,0.0,0.0,0,53,53,53,,,,,,,,,,,,,120.75636450000002,0.00636450000001787,None,147.35358840000026,147.35358840000026,147.35358840000026,147.35358840000026,147.35358840000026,147.35358840000026,147.35358840000026,147.35358840000026,147.35358840000026,147.35358840000026,,005,P021,2025_May_08_1211,ConditionRich,2021.2.3,59.9419761672711,
124.0,124.75,21,0.75,Stimuli/P009/things_boy_05s.jpg,0,0.0,0.0,0,54,54,54,,,,,,,,,,,,,124.02928079999947,0.02928079999946931,None,150.6231157000002,150.6231157000002,150.6231157000002,150.6231157000002,150.6231157000002,150.6231157000002,150.6231157000002,150.6231157000002,150.6231157000002,150.6231157000002,,005,P021,2025_May_08_1211,ConditionRich,2021.2.3,59.9419761672711,
124.75,128.0,41,0.0,Stimuli/Blank.png,0,0.0,0.0,0,55,55,55,,,,,,,,,,,,,124.7760060999999,0.02600609999990411,None,151.35707160000038,151.35707160000038,151.35707160000038,151.35707160000038,151.35707160000038,151.35707160000038,151.35707160000038,151.35707160000038,151.35707160000038,151.35707160000038,,005,P021,2025_May_08_1211,ConditionRich,2021.2.3,59.9419761672711,
128.0,128.75,22,0.75,Stimuli/P009/things_butterfly_05s.jpg,0,0.0,0.0,0,56,56,56,,,,,,,,,,,,,128.0122107999996,0.012210799999593291,None,154.60996140000043,154.60996140000043,154.60996140000043,154.60996140000043,154.60996140000043,154.60996140000043,154.60996140000043,154.60996140000043,154.60996140000043,154.60996140000043,,005,P021,2025_May_08_1211,ConditionRich,2021.2.3,59.9419761672711,
128.75,132.0,41,0.0,Stimuli/Blank.png,0,0.0,0.0,0,57,57,57,,,,,,,,,,,,,128.7797129999999,0.029712999999901513,None,155.36062579999998,155.36062579999998,155.36062579999998,155.36062579999998,155.36062579999998,155.36062579999998,155.36062579999998,155.36062579999998,155.36062579999998,155.36062579999998,,005,P021,2025_May_08_1211,ConditionRich,2021.2.3,59.9419761672711,
132.0,132.75,18,0.75,Stimuli/P009/sun_bwjdahsxcqepqqbm.jpg,0,0.0,0.0,0,58,58,58,,,,,,,,,,,,,131.99949259999994,-0.0005074000000604428,None,158.5968186,158.5968186,158.5968186,158.5968186,158.5968186,158.5968186,158.5968186,158.5968186,158.5968186,158.5968186,,005,P021,2025_May_08_1211,ConditionRich,2021.2.3,59.9419761672711,
132.75,136.0,41,0.0,Stimuli/Blank.png,0,0.0,0.0,0,59,59,59,,,,,,,,,,,,,132.76629089999915,0.016290899999148678,None,159.34750930000064,159.34750930000064,159.34750930000064,159.34750930000064,159.34750930000064,159.34750930000064,159.34750930000064,159.34750930000064,159.34750930000064,159.34750930000064,,005,P021,2025_May_08_1211,ConditionRich,2021.2.3,59.9419761672711,
136.0,136.75,19,0.75,Stimuli/P009/sun_bwvfnogmotsvhofs.jpg,0,0.0,0.0,0,60,60,60,,,,,,,,,,,,,136.00175189999936,0.0017518999993626494,None,162.60038500000064,162.60038500000064,162.60038500000064,162.60038500000064,162.60038500000064,162.60038500000064,162.60038500000064,162.60038500000064,162.60038500000064,162.60038500000064,,005,P021,2025_May_08_1211,ConditionRich,2021.2.3,59.9419761672711,
136.75,140.0,41,0.0,Stimuli/Blank.png,0,0.0,0.0,0,61,61,61,,,,,,,,,,,,,136.7689262999993,0.018926299999293406,None,163.35100580000017,163.35100580000017,163.35100580000017,163.35100580000017,163.35100580000017,163.35100580000017,163.35100580000017,163.35100580000017,163.35100580000017,163.35100580000017,,005,P021,2025_May_08_1211,ConditionRich,2021.2.3,59.9419761672711,
140.0,140.75,23,0.75,Stimuli/P009/things_charger_05s.jpg,0,0.0,0.0,0,62,62,62,,,,,,,,,,,,,140.0060644999994,0.006064499999411055,None,166.58720489999996,166.58720489999996,166.58720489999996,166.58720489999996,166.58720489999996,166.58720489999996,166.58720489999996,166.58720489999996,166.58720489999996,166.58720489999996,,005,P021,2025_May_08_1211,ConditionRich,2021.2.3,59.9419761672711,
140.75,144.0,41,0.0,Stimuli/Blank.png,0,0.0,0.0,0,63,63,63,,,,,,,,,,,,,140.75645299999996,0.006452999999964959,None,167.3378698000006,167.3378698000006,167.3378698000006,167.3378698000006,167.3378698000006,167.3378698000006,167.3378698000006,167.3378698000006,167.3378698000006,167.3378698000006,,005,P021,2025_May_08_1211,ConditionRich,2021.2.3,59.9419761672711,
144.0,144.75,3,0.75,Stimuli/P009/sun_aewgwsmvsgzleqhw.jpg,0,0.0,0.0,0,64,64,64,,,,,,,,,,,,,144.00890019999952,0.00890019999951619,None,170.59073460000036,170.59073460000036,170.59073460000036,170.59073460000036,170.59073460000036,170.59073460000036,170.59073460000036,170.59073460000036,170.59073460000036,170.59073460000036,,005,P021,2025_May_08_1211,ConditionRich,2021.2.3,59.9419761672711,
144.75,148.0,41,0.0,Stimuli/Blank.png,1,2.25,3.0,0,65,65,65,,,,,,,,,,,,,144.76063669999985,0.010636699999849952,1,171.35809980000067,171.35809980000067,171.35809980000067,171.35809980000067,171.35809980000067,171.35809980000067,173.57670620000044,174.32740740000008,171.35809980000067,171.35809980000067,2.9949443000004976,005,P021,2025_May_08_1211,ConditionRich,2021.2.3,59.9419761672711,
148.0,148.75,5,0.75,Stimuli/P009/sun_akqvdmuauoxeafrj.jpg,1,0.0,0.75,0,66,66,66,,,,,,,,,,,,,148.02980399999979,0.029803999999785447,None,174.61095230000046,174.61095230000046,174.61095230000046,174.61095230000046,174.61095230000046,174.61095230000046,174.61095230000046,None,174.61095230000046,174.61095230000046,,005,P021,2025_May_08_1211,ConditionRich,2021.2.3,59.9419761672711,
148.75,152.0,41,0.0,Stimuli/Blank.png,0,0.0,0.0,0,67,67,67,,,,,,,,,,,,,148.76536029999988,0.015360299999883864,None,175.3616589000003,175.3616589000003,175.3616589000003,175.3616589000003,175.3616589000003,175.3616589000003,175.3616589000003,175.3616589000003,175.3616589000003,175.3616589000003,,005,P021,2025_May_08_1211,ConditionRich,2021.2.3,59.9419761672711,
152.0,152.75,27,0.75,Stimuli/P009/things_curling_iron_05s.jpg,0,0.0,0.0,0,68,68,68,,,,,,,,,,,,,152.01653459999943,0.01653459999943152,None,178.59781079999993,178.59781079999993,178.59781079999993,178.59781079999993,178.59781079999993,178.59781079999993,178.59781079999993,178.59781079999993,178.59781079999993,178.59781079999993,,005,P021,2025_May_08_1211,ConditionRich,2021.2.3,59.9419761672711,
152.75,156.0,41,0.0,Stimuli/Blank.png,0,0.0,0.0,0,69,69,69,,,,,,,,,,,,,152.75096609999946,0.0009660999994594022,None,179.3485068,179.3485068,179.3485068,179.3485068,179.3485068,179.3485068,179.3485068,179.3485068,179.3485068,179.3485068,,005,P021,2025_May_08_1211,ConditionRich,2021.2.3,59.9419761672711,
156.0,156.75,29,0.75,Stimuli/P009/things_fingerprint_05s.jpg,1,0.0,0.75,0,70,70,70,,,,,,,,,,,,,156.0197920999999,0.019792099999904167,None,182.6014178000005,182.6014178000005,182.6014178000005,182.6014178000005,182.6014178000005,182.6014178000005,182.6014178000005,None,182.6014178000005,182.6014178000005,,005,P021,2025_May_08_1211,ConditionRich,2021.2.3,59.9419761672711,
156.75,160.0,41,0.0,Stimuli/Blank.png,0,0.0,0.0,0,71,71,71,,,,,,,,,,,,,156.75538909999977,0.005389099999774771,None,183.35202449999997,183.35202449999997,183.35202449999997,183.35202449999997,183.35202449999997,183.35202449999997,183.35202449999997,183.35202449999997,183.35202449999997,183.35202449999997,,005,P021,2025_May_08_1211,ConditionRich,2021.2.3,59.9419761672711,
160.0,160.75,7,0.75,Stimuli/P009/sun_apiogxmvvzfmtsmj.jpg,0,0.0,0.0,0,72,72,72,,,,,,,,,,,,,160.0248533999993,0.024853399999301473,None,186.62157490000027,186.62157490000027,186.62157490000027,186.62157490000027,186.62157490000027,186.62157490000027,186.62157490000027,186.62157490000027,186.62157490000027,186.62157490000027,,005,P021,2025_May_08_1211,ConditionRich,2021.2.3,59.9419761672711,
160.75,164.0,41,0.0,Stimuli/Blank.png,0,0.0,0.0,0,73,73,73,,,,,,,,,,,,,160.77505249999922,0.025052499999219435,None,187.35558300000048,187.35558300000048,187.35558300000048,187.35558300000048,187.35558300000048,187.35558300000048,187.35558300000048,187.35558300000048,187.35558300000048,187.35558300000048,,005,P021,2025_May_08_1211,ConditionRich,2021.2.3,59.9419761672711,
164.0,164.75,40,0.75,Stimuli/P009/things_woman_05s.jpg,0,0.0,0.0,0,74,74,74,,,,,,,,,,,,,164.01037469999937,0.01037469999937457,None,190.5917513000004,190.5917513000004,190.5917513000004,190.5917513000004,190.5917513000004,190.5917513000004,190.5917513000004,190.5917513000004,190.5917513000004,190.5917513000004,,005,P021,2025_May_08_1211,ConditionRich,2021.2.3,59.9419761672711,
164.75,168.0,41,0.0,Stimuli/Blank.png,0,0.0,0.0,0,75,75,75,,,,,,,,,,,,,164.7611782999993,0.011178299999301089,None,191.34249530000034,191.34249530000034,191.34249530000034,191.34249530000034,191.34249530000034,191.34249530000034,191.34249530000034,191.34249530000034,191.34249530000034,191.34249530000034,,005,P021,2025_May_08_1211,ConditionRich,2021.2.3,59.9419761672711,
168.0,168.75,16,0.75,Stimuli/P009/sun_bqpyqljaflidcauh.jpg,0,0.0,0.0,0,76,76,76,,,,,,,,,,,,,168.01324269999986,0.013242699999864271,None,194.5952784000001,194.5952784000001,194.5952784000001,194.5952784000001,194.5952784000001,194.5952784000001,194.5952784000001,194.5952784000001,194.5952784000001,194.5952784000001,,005,P021,2025_May_08_1211,ConditionRich,2021.2.3,59.9419761672711,
168.75,172.0,41,0.0,Stimuli/Blank.png,0,0.0,0.0,0,77,77,77,,,,,,,,,,,,,168.7640191999999,0.014019199999893317,None,195.34597080000003,195.34597080000003,195.34597080000003,195.34597080000003,195.34597080000003,195.34597080000003,195.34597080000003,195.34597080000003,195.34597080000003,195.34597080000003,,005,P021,2025_May_08_1211,ConditionRich,2021.2.3,59.9419761672711,
172.0,172.75,4,0.75,Stimuli/P009/sun_afkzdukwewwzqtmr.jpg,0,0.0,0.0,0,78,78,78,,,,,,,,,,,,,172.00073369999973,0.0007336999997278326,None,198.59882019999986,198.59882019999986,198.59882019999986,198.59882019999986,198.59882019999986,198.59882019999986,198.59882019999986,198.59882019999986,198.59882019999986,198.59882019999986,,005,P021,2025_May_08_1211,ConditionRich,2021.2.3,59.9419761672711,
172.75,176.0,41,0.0,Stimuli/Blank.png,0,0.0,0.0,0,79,79,79,,,,,,,,,,,,,172.76999350000006,0.019993500000055064,None,199.36619750000045,199.36619750000045,199.36619750000045,199.36619750000045,199.36619750000045,199.36619750000045,199.36619750000045,199.36619750000045,199.36619750000045,199.36619750000045,,005,P021,2025_May_08_1211,ConditionRich,2021.2.3,59.9419761672711,
176.0,176.75,36,0.75,Stimuli/P009/things_pelican_05s.jpg,0,0.0,0.0,0,80,80,80,,,,,,,,,,,,,176.02101549999952,0.021015499999521126,None,202.60234219999984,202.60234219999984,202.60234219999984,202.60234219999984,202.60234219999984,202.60234219999984,202.60234219999984,202.60234219999984,202.60234219999984,202.60234219999984,,005,P021,2025_May_08_1211,ConditionRich,2021.2.3,59.9419761672711,
176.75,180.0,41,0.0,Stimuli/Blank.png,0,0.0,0.0,0,81,81,81,,,,,,,,,,,,,176.75510849999955,0.005108499999550986,None,203.3363319,203.3363319,203.3363319,203.3363319,203.3363319,203.3363319,203.3363319,203.3363319,203.3363319,203.3363319,,005,P021,2025_May_08_1211,ConditionRich,2021.2.3,59.9419761672711,
180.0,196.0,0,0.0,Stimuli/Blank.png,1,7.0,7.75,0,82,82,82,,,,,,,,,,,,,180.0099023999992,0.009902399999191402,1,206.60589460000028,206.60589460000028,206.60589460000028,206.60589460000028,206.60589460000028,206.60589460000028,213.57870940000066,214.32957110000007,206.60589460000028,206.60589460000028,7.895211299999573,005,P021,2025_May_08_1211,ConditionRich,2021.2.3,59.9419761672711,
196.0,196.75,2,0.75,Stimuli/P009/sun_acvloibbxiqpiwnv.jpg,0,0.0,0.0,0,83,83,83,,,,,,,,,,,,,196.02132159999928,0.021321599999282626,None,222.60337609999988,222.60337609999988,222.60337609999988,222.60337609999988,222.60337609999988,222.60337609999988,222.60337609999988,222.60337609999988,222.60337609999988,222.60337609999988,,005,P021,2025_May_08_1211,ConditionRich,2021.2.3,59.9419761672711,
196.75,200.0,41,0.0,Stimuli/Blank.png,0,0.0,0.0,0,84,84,84,,,,,,,,,,,,,196.7558825999995,0.005882599999495142,None,223.33733949999987,223.33733949999987,223.33733949999987,223.33733949999987,223.33733949999987,223.33733949999987,223.33733949999987,223.33733949999987,223.33733949999987,223.33733949999987,,005,P021,2025_May_08_1211,ConditionRich,2021.2.3,59.9419761672711,
200.0,200.75,4,0.75,Stimuli/P009/sun_afkzdukwewwzqtmr.jpg,0,0.0,0.0,0,85,85,85,,,,,,,,,,,,,200.00842799999918,0.008427999999184976,None,226.59021060000032,226.59021060000032,226.59021060000032,226.59021060000032,226.59021060000032,226.59021060000032,226.59021060000032,226.59021060000032,226.59021060000032,226.59021060000032,,005,P021,2025_May_08_1211,ConditionRich,2021.2.3,59.9419761672711,
200.75,204.0,41,0.0,Stimuli/Blank.png,0,0.0,0.0,0,86,86,86,,,,,,,,,,,,,200.7599537999995,0.00995379999949364,None,227.34088960000008,227.34088960000008,227.34088960000008,227.34088960000008,227.34088960000008,227.34088960000008,227.34088960000008,227.34088960000008,227.34088960000008,227.34088960000008,,005,P021,2025_May_08_1211,ConditionRich,2021.2.3,59.9419761672711,
204.0,204.75,7,0.75,Stimuli/P009/sun_apiogxmvvzfmtsmj.jpg,1,0.0,0.75,0,87,87,87,,,,,,,,,,,,,204.01154879999922,0.011548799999218318,1,230.59375350000028,230.59375350000028,230.59375350000028,230.59375350000028,230.59375350000028,230.59375350000028,230.59375350000028,231.32773989999987,230.59375350000028,230.59375350000028,0.6143830000000889,005,P021,2025_May_08_1211,ConditionRich,2021.2.3,59.9419761672711,
204.75,208.0,41,0.0,Stimuli/Blank.png,0,0.0,0.0,0,88,88,88,,,,,,,,,,,,,204.76241749999917,0.012417499999173742,None,231.34447530000034,231.34447530000034,231.34447530000034,231.34447530000034,231.34447530000034,231.34447530000034,231.34447530000034,231.34447530000034,231.34447530000034,231.34447530000034,,005,P021,2025_May_08_1211,ConditionRich,2021.2.3,59.9419761672711,
208.0,208.75,21,0.75,Stimuli/P009/things_boy_05s.jpg,0,0.0,0.0,0,89,89,89,,,,,,,,,,,,,208.01565579999988,0.015655799999876763,None,234.59729020000032,234.59729020000032,234.59729020000032,234.59729020000032,234.59729020000032,234.59729020000032,234.59729020000032,234.59729020000032,234.59729020000032,234.59729020000032,,005,P021,2025_May_08_1211,ConditionRich,2021.2.3,59.9419761672711,
208.75,212.0,41,0.0,Stimuli/Blank.png,1,0.25,1.0,0,90,90,90,,,,,,,,,,,,,208.7499547999996,-4.5200000386103056e-05,1,235.3312649999998,235.3312649999998,235.3312649999998,235.3312649999998,235.3312649999998,235.3312649999998,235.5648514000004,236.3155185000005,235.3312649999998,235.3312649999998,0.7528440000005503,005,P021,2025_May_08_1211,ConditionRich,2021.2.3,59.9419761672711,
212.0,212.75,15,0.75,Stimuli/P009/sun_boryivbddrnarrbo.jpg,0,0.0,0.0,0,91,91,91,,,,,,,,,,,,,212.00210029999926,0.0021002999992560945,None,238.58414580000044,238.58414580000044,238.58414580000044,238.58414580000044,238.58414580000044,238.58414580000044,238.58414580000044,238.58414580000044,238.58414580000044,238.58414580000044,,005,P021,2025_May_08_1211,ConditionRich,2021.2.3,59.9419761672711,
212.75,216.0,41,0.0,Stimuli/Blank.png,0,0.0,0.0,0,92,92,92,,,,,,,,,,,,,212.75536059999922,0.005360599999221449,None,239.35149360000014,239.35149360000014,239.35149360000014,239.35149360000014,239.35149360000014,239.35149360000014,239.35149360000014,239.35149360000014,239.35149360000014,239.35149360000014,,005,P021,2025_May_08_1211,ConditionRich,2021.2.3,59.9419761672711,
216.0,216.75,14,0.75,Stimuli/P009/sun_blaqxdebghixzyyw.jpg,0,0.0,0.0,0,93,93,93,,,,,,,,,,,,,216.02226159999918,0.02226159999918309,None,242.62106380000023,242.62106380000023,242.62106380000023,242.62106380000023,242.62106380000023,242.62106380000023,242.62106380000023,242.62106380000023,242.62106380000023,242.62106380000023,,005,P021,2025_May_08_1211,ConditionRich,2021.2.3,59.9419761672711,
216.75,220.0,41,0.0,Stimuli/Blank.png,0,0.0,0.0,0,94,94,94,,,,,,,,,,,,,216.7749144999998,0.024914499999795225,None,243.37171390000003,243.37171390000003,243.37171390000003,243.37171390000003,243.37171390000003,243.37171390000003,243.37171390000003,243.37171390000003,243.37171390000003,243.37171390000003,,005,P021,2025_May_08_1211,ConditionRich,2021.2.3,59.9419761672711,
220.0,220.75,17,0.75,Stimuli/P009/sun_brkrfjpyfglmigkk.jpg,0,0.0,0.0,0,95,95,95,,,,,,,,,,,,,220.02574430000004,0.02574430000004213,None,246.60790280000037,246.60790280000037,246.60790280000037,246.60790280000037,246.60790280000037,246.60790280000037,246.60790280000037,246.60790280000037,246.60790280000037,246.60790280000037,,005,P021,2025_May_08_1211,ConditionRich,2021.2.3,59.9419761672711,
220.75,224.0,41,0.0,Stimuli/Blank.png,0,0.0,0.0,0,96,96,96,,,,,,,,,,,,,220.76132249999955,0.011322499999550928,None,247.35856969999986,247.35856969999986,247.35856969999986,247.35856969999986,247.35856969999986,247.35856969999986,247.35856969999986,247.35856969999986,247.35856969999986,247.35856969999986,,005,P021,2025_May_08_1211,ConditionRich,2021.2.3,59.9419761672711,
224.0,224.75,30,0.75,Stimuli/P009/things_fire_05s.jpg,0,0.0,0.0,0,97,97,97,,,,,,,,,,,,,224.03073759999916,0.030737599999156373,None,250.6119580000004,250.6119580000004,250.6119580000004,250.6119580000004,250.6119580000004,250.6119580000004,250.6119580000004,250.6119580000004,250.6119580000004,250.6119580000004,,005,P021,2025_May_08_1211,ConditionRich,2021.2.3,59.9419761672711,
224.75,228.0,41,0.0,Stimuli/Blank.png,0,0.0,0.0,0,98,98,98,,,,,,,,,,,,,224.76418599999943,0.014185999999426713,None,251.3454214000003,251.3454214000003,251.3454214000003,251.3454214000003,251.3454214000003,251.3454214000003,251.3454214000003,251.3454214000003,251.3454214000003,251.3454214000003,,005,P021,2025_May_08_1211,ConditionRich,2021.2.3,59.9419761672711,
228.0,228.75,29,0.75,Stimuli/P009/things_fingerprint_05s.jpg,0,0.0,0.0,0,99,99,99,,,,,,,,,,,,,228.00049949999993,0.0004994999999325955,None,254.5983286999999,254.5983286999999,254.5983286999999,254.5983286999999,254.5983286999999,254.5983286999999,254.5983286999999,254.5983286999999,254.5983286999999,254.5983286999999,,005,P021,2025_May_08_1211,ConditionRich,2021.2.3,59.9419761672711,
228.75,232.0,41,0.0,Stimuli/Blank.png,0,0.0,0.0,0,100,100,100,,,,,,,,,,,,,228.7676118999998,0.017611899999792513,None,255.34895770000003,255.34895770000003,255.34895770000003,255.34895770000003,255.34895770000003,255.34895770000003,255.34895770000003,255.34895770000003,255.34895770000003,255.34895770000003,,005,P021,2025_May_08_1211,ConditionRich,2021.2.3,59.9419761672711,
232.0,232.75,9,0.75,Stimuli/P009/sun_bdjkvwqqqycuixtc.jpg,0,0.0,0.0,0,101,101,101,,,,,,,,,,,,,232.0053939999998,0.005393999999796506,None,258.6018343000005,258.6018343000005,258.6018343000005,258.6018343000005,258.6018343000005,258.6018343000005,258.6018343000005,258.6018343000005,258.6018343000005,258.6018343000005,,005,P021,2025_May_08_1211,ConditionRich,2021.2.3,59.9419761672711,
232.75,236.0,41,0.0,Stimuli/Blank.png,0,0.0,0.0,0,102,102,102,,,,,,,,,,,,,232.77094450000004,0.020944500000041444,None,259.3524922000006,259.3524922000006,259.3524922000006,259.3524922000006,259.3524922000006,259.3524922000006,259.3524922000006,259.3524922000006,259.3524922000006,259.3524922000006,,005,P021,2025_May_08_1211,ConditionRich,2021.2.3,59.9419761672711,
236.0,236.75,16,0.75,Stimuli/P009/sun_bqpyqljaflidcauh.jpg,0,0.0,0.0,0,103,103,103,,,,,,,,,,,,,236.00726719999966,0.007267199999660079,None,262.5886817999999,262.5886817999999,262.5886817999999,262.5886817999999,262.5886817999999,262.5886817999999,262.5886817999999,262.5886817999999,262.5886817999999,262.5886817999999,,005,P021,2025_May_08_1211,ConditionRich,2021.2.3,59.9419761672711,
236.75,240.0,41,0.0,Stimuli/Blank.png,0,0.0,0.0,0,104,104,104,,,,,,,,,,,,,236.7599412999998,0.009941299999809416,None,263.35603790000005,263.35603790000005,263.35603790000005,263.35603790000005,263.35603790000005,263.35603790000005,263.35603790000005,263.35603790000005,263.35603790000005,263.35603790000005,,005,P021,2025_May_08_1211,ConditionRich,2021.2.3,59.9419761672711,
240.0,240.75,35,0.75,Stimuli/P009/things_mushroom_05n.jpg,0,0.0,0.0,0,105,105,105,,,,,,,,,,,,,240.0275288999992,0.027528899999197165,None,266.6256022000007,266.6256022000007,266.6256022000007,266.6256022000007,266.6256022000007,266.6256022000007,266.6256022000007,266.6256022000007,266.6256022000007,266.6256022000007,,005,P021,2025_May_08_1211,ConditionRich,2021.2.3,59.9419761672711,
240.75,244.0,41,0.0,Stimuli/Blank.png,0,0.0,0.0,0,106,106,106,,,,,,,,,,,,,240.77822529999958,0.028225299999576237,None,267.3595868000002,267.3595868000002,267.3595868000002,267.3595868000002,267.3595868000002,267.3595868000002,267.3595868000002,267.3595868000002,267.3595868000002,267.3595868000002,,005,P021,2025_May_08_1211,ConditionRich,2021.2.3,59.9419761672711,
244.0,244.75,27,0.75,Stimuli/P009/things_curling_iron_05s.jpg,1,0.0,0.75,0,107,107,107,,,,,,,,,,,,,244.01458329999969,0.01458329999968555,1,270.61245080000026,270.61245080000026,270.61245080000026,270.61245080000026,270.61245080000026,270.61245080000026,270.61245080000026,271.32981070000005,270.61245080000026,270.61245080000026,0.5449265000006562,005,P021,2025_May_08_1211,ConditionRich,2021.2.3,59.9419761672711,
244.75,248.0,41,0.0,Stimuli/Blank.png,0,0.0,0.0,0,108,108,108,,,,,,,,,,,,,244.78169629999957,0.03169629999956669,None,271.3631931,271.3631931,271.3631931,271.3631931,271.3631931,271.3631931,271.3631931,271.3631931,271.3631931,271.3631931,,005,P021,2025_May_08_1211,ConditionRich,2021.2.3,59.9419761672711,
248.0,248.75,40,0.75,Stimuli/P009/things_woman_05s.jpg,0,0.0,0.0,0,109,109,109,,,,,,,,,,,,,248.00087629999962,0.0008762999996179133,None,274.5826113000003,274.5826113000003,274.5826113000003,274.5826113000003,274.5826113000003,274.5826113000003,274.5826113000003,274.5826113000003,274.5826113000003,274.5826113000003,,005,P021,2025_May_08_1211,ConditionRich,2021.2.3,59.9419761672711,
248.75,252.0,41,0.0,Stimuli/Blank.png,1,0.25,1.0,0,110,110,110,,,,,,,,,,,,,248.75198139999975,0.0019813999997495557,1,275.3332786000001,275.3332786000001,275.3332786000001,275.3332786000001,275.3332786000001,275.3332786000001,275.5668663000006,276.3174871000001,275.3332786000001,275.3332786000001,0.8918066999995062,005,P021,2025_May_08_1211,ConditionRich,2021.2.3,59.9419761672711,
252.0,252.75,3,0.75,Stimuli/P009/sun_aewgwsmvsgzleqhw.jpg,0,0.0,0.0,0,111,111,111,,,,,,,,,,,,,252.00582029999987,0.005820299999868439,None,278.6028374000007,278.6028374000007,278.6028374000007,278.6028374000007,278.6028374000007,278.6028374000007,278.6028374000007,278.6028374000007,278.6028374000007,278.6028374000007,,005,P021,2025_May_08_1211,ConditionRich,2021.2.3,59.9419761672711,
252.75,256.0,41,0.0,Stimuli/Blank.png,1,2.25,3.0,0,112,112,112,,,,,,,,,,,,,252.77154019999944,0.021540199999435572,1,279.3535173999999,279.3535173999999,279.3535173999999,279.3535173999999,279.3535173999999,279.3535173999999,281.5888230999999,282.33948770000006,279.3535173999999,279.3535173999999,2.9056210999997347,005,P021,2025_May_08_1211,ConditionRich,2021.2.3,59.9419761672711,
256.0,256.75,18,0.75,Stimuli/P009/sun_bwjdahsxcqepqqbm.jpg,0,0.0,0.0,0,113,113,113,,,,,,,,,,,,,256.0085362,0.008536199999980454,None,282.5896904000001,282.5896904000001,282.5896904000001,282.5896904000001,282.5896904000001,282.5896904000001,282.5896904000001,282.5896904000001,282.5896904000001,282.5896904000001,,005,P021,2025_May_08_1211,ConditionRich,2021.2.3,59.9419761672711,
256.75,260.0,41,0.0,Stimuli/Blank.png,0,0.0,0.0,0,114,114,114,,,,,,,,,,,,,256.7584676999995,0.008467699999528122,None,283.34040040000036,283.34040040000036,283.34040040000036,283.34040040000036,283.34040040000036,283.34040040000036,283.34040040000036,283.34040040000036,283.34040040000036,283.34040040000036,,005,P021,2025_May_08_1211,ConditionRich,2021.2.3,59.9419761672711,
260.0,260.75,36,0.75,Stimuli/P009/things_pelican_05s.jpg,0,0.0,0.0,0,115,115,115,,,,,,,,,,,,,260.01110359999984,0.011103599999842118,None,286.60988480000015,286.60988480000015,286.60988480000015,286.60988480000015,286.60988480000015,286.60988480000015,286.60988480000015,286.60988480000015,286.60988480000015,286.60988480000015,,005,P021,2025_May_08_1211,ConditionRich,2021.2.3,59.9419761672711,
260.75,264.0,41,0.0,Stimuli/Blank.png,0,0.0,0.0,0,116,116,116,,,,,,,,,,,,,260.7807908999994,0.030790899999374233,None,287.37729089999993,287.37729089999993,287.37729089999993,287.37729089999993,287.37729089999993,287.37729089999993,287.37729089999993,287.37729089999993,287.37729089999993,287.37729089999993,,005,P021,2025_May_08_1211,ConditionRich,2021.2.3,59.9419761672711,
264.0,264.75,11,0.75,Stimuli/P009/sun_bfyvfqiimvdaxlqn.jpg,0,0.0,0.0,0,117,117,117,,,,,,,,,,,,,264.01503429999957,0.015034299999570067,None,290.59675960000004,290.59675960000004,290.59675960000004,290.59675960000004,290.59675960000004,290.59675960000004,290.59675960000004,290.59675960000004,290.59675960000004,290.59675960000004,,005,P021,2025_May_08_1211,ConditionRich,2021.2.3,59.9419761672711,
264.75,268.0,41,0.0,Stimuli/Blank.png,0,0.0,0.0,0,118,118,118,,,,,,,,,,,,,264.74860249999983,-0.001397500000166474,None,291.33079,291.33079,291.33079,291.33079,291.33079,291.33079,291.33079,291.33079,291.33079,291.33079,,005,P021,2025_May_08_1211,ConditionRich,2021.2.3,59.9419761672711,
268.0,268.75,34,0.75,Stimuli/P009/things_man_05s.jpg,0,0.0,0.0,0,119,119,119,,,,,,,,,,,,,268.00196739999956,0.0019673999995575286,None,294.6003418,294.6003418,294.6003418,294.6003418,294.6003418,294.6003418,294.6003418,294.6003418,294.6003418,294.6003418,,005,P021,2025_May_08_1211,ConditionRich,2021.2.3,59.9419761672711,
268.75,272.0,41,0.0,Stimuli/Blank.png,0,0.0,0.0,0,120,120,120,,,,,,,,,,,,,268.7689341999994,0.018934199999421253,None,295.35096969999995,295.35096969999995,295.35096969999995,295.35096969999995,295.35096969999995,295.35096969999995,295.35096969999995,295.35096969999995,295.35096969999995,295.35096969999995,,005,P021,2025_May_08_1211,ConditionRich,2021.2.3,59.9419761672711,
272.0,272.75,25,0.75,Stimuli/P009/things_clothespin_05s.jpg,0,0.0,0.0,0,121,121,121,,,,,,,,,,,,,272.00569539999924,0.0056953999992401805,None,298.5871666000003,298.5871666000003,298.5871666000003,298.5871666000003,298.5871666000003,298.5871666000003,298.5871666000003,298.5871666000003,298.5871666000003,298.5871666000003,,005,P021,2025_May_08_1211,ConditionRich,2021.2.3,59.9419761672711,
272.75,276.0,41,0.0,Stimuli/Blank.png,0,0.0,0.0,0,122,122,122,,,,,,,,,,,,,272.7558503999999,0.005850399999872025,None,299.33782840000003,299.33782840000003,299.33782840000003,299.33782840000003,299.33782840000003,299.33782840000003,299.33782840000003,299.33782840000003,299.33782840000003,299.33782840000003,,005,P021,2025_May_08_1211,ConditionRich,2021.2.3,59.9419761672711,
276.0,292.0,0,0.0,Stimuli/Blank.png,1,2.0,2.75,0,123,123,123,,,,,,,,,,,,,276.00857670000005,0.008576700000048731,1,302.5907135000007,302.5907135000007,302.5907135000007,302.5907135000007,302.5907135000007,302.5907135000007,304.57574660000046,305.32646830000067,302.5907135000007,302.5907135000007,2.6513512000001356,005,P021,2025_May_08_1211,ConditionRich,2021.2.3,59.9419761672711,
292.0,292.75,6,0.75,Stimuli/P009/sun_amkrwcyvinmsylsz.jpg,0,0.0,0.0,0,124,124,124,,,,,,,,,,,,,292.0061208999996,0.006120899999586982,None,318.5881614,318.5881614,318.5881614,318.5881614,318.5881614,318.5881614,318.5881614,318.5881614,318.5881614,318.5881614,,005,P021,2025_May_08_1211,ConditionRich,2021.2.3,59.9419761672711,
292.75,296.0,41,0.0,Stimuli/Blank.png,0,0.0,0.0,0,125,125,125,,,,,,,,,,,,,292.75701729999946,0.007017299999461102,None,319.3388324000007,319.3388324000007,319.3388324000007,319.3388324000007,319.3388324000007,319.3388324000007,319.3388324000007,319.3388324000007,319.3388324000007,319.3388324000007,,005,P021,2025_May_08_1211,ConditionRich,2021.2.3,59.9419761672711,
296.0,296.75,26,0.75,Stimuli/P009/things_cookie_sheet_05s.jpg,0,0.0,0.0,0,126,126,126,,,,,,,,,,,,,296.00990189999993,0.00990189999993163,None,322.5917177000001,322.5917177000001,322.5917177000001,322.5917177000001,322.5917177000001,322.5917177000001,322.5917177000001,322.5917177000001,322.5917177000001,322.5917177000001,,005,P021,2025_May_08_1211,ConditionRich,2021.2.3,59.9419761672711,
296.75,300.0,41,0.0,Stimuli/Blank.png,0,0.0,0.0,0,127,127,127,,,,,,,,,,,,,296.7615556999999,0.011555699999917124,None,323.3425001000005,323.3425001000005,323.3425001000005,323.3425001000005,323.3425001000005,323.3425001000005,323.3425001000005,323.3425001000005,323.3425001000005,323.3425001000005,,005,P021,2025_May_08_1211,ConditionRich,2021.2.3,59.9419761672711,
300.0,300.75,1,0.75,Stimuli/P009/sun_abqdlumenyzawlme.jpg,0,0.0,0.0,0,128,128,128,,,,,,,,,,,,,300.01508039999953,0.015080399999533256,None,326.61194630000045,326.61194630000045,326.61194630000045,326.61194630000045,326.61194630000045,326.61194630000045,326.61194630000045,326.61194630000045,326.61194630000045,326.61194630000045,,005,P021,2025_May_08_1211,ConditionRich,2021.2.3,59.9419761672711,
300.75,304.0,41,0.0,Stimuli/Blank.png,0,0.0,0.0,0,129,129,129,,,,,,,,,,,,,300.7644502999992,0.014450299999225535,None,327.3458993000004,327.3458993000004,327.3458993000004,327.3458993000004,327.3458993000004,327.3458993000004,327.3458993000004,327.3458993000004,327.3458993000004,327.3458993000004,,005,P021,2025_May_08_1211,ConditionRich,2021.2.3,59.9419761672711,
304.0,304.75,32,0.75,Stimuli/P009/things_hawk_05s.jpg,0,0.0,0.0,0,130,130,130,,,,,,,,,,,,,304.00152909999997,0.00152909999997064,None,330.59877510000024,330.59877510000024,330.59877510000024,330.59877510000024,330.59877510000024,330.59877510000024,330.59877510000024,330.59877510000024,330.59877510000024,330.59877510000024,,005,P021,2025_May_08_1211,ConditionRich,2021.2.3,59.9419761672711,
304.75,308.0,41,0.0,Stimuli/Blank.png,1,1.25,2.0,0,131,131,131,,,,,,,,,,,,,304.76992040000005,0.019920400000046357,1,331.3661215000002,331.3661215000002,331.3661215000002,331.3661215000002,331.3661215000002,331.3661215000002,332.6006011999998,333.3512000999999,331.3661215000002,331.3661215000002,1.6530595000003814,005,P021,2025_May_08_1211,ConditionRich,2021.2.3,59.9419761672711,
308.0,308.75,8,0.75,Stimuli/P009/sun_batcnoizlkeiqdtx.jpg,0,0.0,0.0,0,132,132,132,,,,,,,,,,,,,308.0203772999994,0.02037729999938165,None,334.6023146000007,334.6023146000007,334.6023146000007,334.6023146000007,334.6023146000007,334.6023146000007,334.6023146000007,334.6023146000007,334.6023146000007,334.6023146000007,,005,P021,2025_May_08_1211,ConditionRich,2021.2.3,59.9419761672711,
308.75,312.0,41,0.0,Stimuli/Blank.png,0,0.0,0.0,0,133,133,133,,,,,,,,,,,,,308.7541296999998,0.0041296999997939565,None,335.3362692999999,335.3362692999999,335.3362692999999,335.3362692999999,335.3362692999999,335.3362692999999,335.3362692999999,335.3362692999999,335.3362692999999,335.3362692999999,,005,P021,2025_May_08_1211,ConditionRich,2021.2.3,59.9419761672711,
312.0,312.75,31,0.75,Stimuli/P009/things_girl_05s.jpg,0,0.0,0.0,0,134,134,134,,,,,,,,,,,,,312.0100088999998,0.010008899999775167,None,338.60585270000047,338.60585270000047,338.60585270000047,338.60585270000047,338.60585270000047,338.60585270000047,338.60585270000047,338.60585270000047,338.60585270000047,338.60585270000047,,005,P021,2025_May_08_1211,ConditionRich,2021.2.3,59.9419761672711,
312.75,316.0,41,0.0,Stimuli/Blank.png,0,0.0,0.0,0,135,135,135,,,,,,,,,,,,,312.77495029999955,0.024950299999545678,None,339.35651450000023,339.35651450000023,339.35651450000023,339.35651450000023,339.35651450000023,339.35651450000023,339.35651450000023,339.35651450000023,339.35651450000023,339.35651450000023,,005,P021,2025_May_08_1211,ConditionRich,2021.2.3,59.9419761672711,
316.0,316.75,37,0.75,Stimuli/P009/things_pug_05s.jpg,0,0.0,0.0,0,136,136,136,,,,,,,,,,,,,316.0111739999993,0.011173999999300577,None,342.60938460000034,342.60938460000034,342.60938460000034,342.60938460000034,342.60938460000034,342.60938460000034,342.60938460000034,342.60938460000034,342.60938460000034,342.60938460000034,,005,P021,2025_May_08_1211,ConditionRich,2021.2.3,59.9419761672711,
316.75,320.0,41,0.0,Stimuli/Blank.png,1,1.25,2.0,0,137,137,137,,,,,,,,,,,,,316.7784267999996,0.02842679999957909,1,343.3601204000006,343.3601204000006,343.3601204000006,343.3601204000006,343.3601204000006,343.3601204000006,344.5944774999998,345.34516470000017,343.3601204000006,343.3601204000006,1.8039986999992834,005,P021,2025_May_08_1211,ConditionRich,2021.2.3,59.9419761672711,
320.0,320.75,28,0.75,Stimuli/P009/things_face_05s.jpg,0,0.0,0.0,0,138,138,138,,,,,,,,,,,,,320.0154791999994,0.015479199999390403,None,346.61292330000015,346.61292330000015,346.61292330000015,346.61292330000015,346.61292330000015,346.61292330000015,346.61292330000015,346.61292330000015,346.61292330000015,346.61292330000015,,005,P021,2025_May_08_1211,ConditionRich,2021.2.3,59.9419761672711,
320.75,324.0,41,0.0,Stimuli/Blank.png,0,0.0,0.0,0,139,139,139,,,,,,,,,,,,,320.7662544999994,0.016254499999377003,None,347.3636025000005,347.3636025000005,347.3636025000005,347.3636025000005,347.3636025000005,347.3636025000005,347.3636025000005,347.3636025000005,347.3636025000005,347.3636025000005,,005,P021,2025_May_08_1211,ConditionRich,2021.2.3,59.9419761672711,
324.0,324.75,33,0.75,Stimuli/P009/things_lizard_05n.jpg,0,0.0,0.0,0,140,140,140,,,,,,,,,,,,,324.0187270999995,0.01872709999952349,None,350.5997722000002,350.5997722000002,350.5997722000002,350.5997722000002,350.5997722000002,350.5997722000002,350.5997722000002,350.5997722000002,350.5997722000002,350.5997722000002,,005,P021,2025_May_08_1211,ConditionRich,2021.2.3,59.9419761672711,
324.75,328.0,41,0.0,Stimuli/Blank.png,0,0.0,0.0,0,141,141,141,,,,,,,,,,,,,324.7525507999999,0.0025507999998808373,None,351.3337539000004,351.3337539000004,351.3337539000004,351.3337539000004,351.3337539000004,351.3337539000004,351.3337539000004,351.3337539000004,351.3337539000004,351.3337539000004,,005,P021,2025_May_08_1211,ConditionRich,2021.2.3,59.9419761672711,
328.0,328.75,39,0.75,Stimuli/P009/things_tiara_05s.jpg,0,0.0,0.0,0,142,142,142,,,,,,,,,,,,,328.00506529999984,0.0050652999998419546,None,354.58662410000034,354.58662410000034,354.58662410000034,354.58662410000034,354.58662410000034,354.58662410000034,354.58662410000034,354.58662410000034,354.58662410000034,354.58662410000034,,005,P021,2025_May_08_1211,ConditionRich,2021.2.3,59.9419761672711,
328.75,332.0,41,0.0,Stimuli/Blank.png,1,1.25,2.0,0,143,143,143,,,,,,,,,,,,,328.7554160999998,0.00541609999982029,1,355.33730130000004,355.33730130000004,355.33730130000004,355.33730130000004,355.33730130000004,355.33730130000004,356.57171280000057,357.3223777000003,355.33730130000004,355.33730130000004,1.848905900000318,005,P021,2025_May_08_1211,ConditionRich,2021.2.3,59.9419761672711,
332.0,332.75,24,0.75,Stimuli/P009/things_cigar_05n.jpg,0,0.0,0.0,0,144,144,144,,,,,,,,,,,,,332.0085156999994,0.008515699999406934,None,358.5901670000003,358.5901670000003,358.5901670000003,358.5901670000003,358.5901670000003,358.5901670000003,358.5901670000003,358.5901670000003,358.5901670000003,358.5901670000003,,005,P021,2025_May_08_1211,ConditionRich,2021.2.3,59.9419761672711,
332.75,336.0,41,0.0,Stimuli/Blank.png,0,0.0,0.0,0,145,145,145,,,,,,,,,,,,,332.76030919999994,0.010309199999937846,None,359.3408336000002,359.3408336000002,359.3408336000002,359.3408336000002,359.3408336000002,359.3408336000002,359.3408336000002,359.3408336000002,359.3408336000002,359.3408336000002,,005,P021,2025_May_08_1211,ConditionRich,2021.2.3,59.9419761672711,
336.0,336.75,19,0.75,Stimuli/P009/sun_bwvfnogmotsvhofs.jpg,0,0.0,0.0,0,146,146,146,,,,,,,,,,,,,336.0118485999992,0.011848599999211729,None,362.59369760000027,362.59369760000027,362.59369760000027,362.59369760000027,362.59369760000027,362.59369760000027,362.59369760000027,362.59369760000027,362.59369760000027,362.59369760000027,,005,P021,2025_May_08_1211,ConditionRich,2021.2.3,59.9419761672711,
336.75,340.0,41,0.0,Stimuli/Blank.png,0,0.0,0.0,0,147,147,147,,,,,,,,,,,,,336.7633148999994,0.013314899999386398,None,363.3443799000006,363.3443799000006,363.3443799000006,363.3443799000006,363.3443799000006,363.3443799000006,363.3443799000006,363.3443799000006,363.3443799000006,363.3443799000006,,005,P021,2025_May_08_1211,ConditionRich,2021.2.3,59.9419761672711,
340.0,340.75,5,0.75,Stimuli/P009/sun_akqvdmuauoxeafrj.jpg,0,0.0,0.0,0,148,148,148,,,,,,,,,,,,,339.9992141999992,-0.0007858000008127419,None,366.59724150000056,366.59724150000056,366.59724150000056,366.59724150000056,366.59724150000056,366.59724150000056,366.59724150000056,366.59724150000056,366.59724150000056,366.59724150000056,,005,P021,2025_May_08_1211,ConditionRich,2021.2.3,59.9419761672711,
340.75,344.0,41,0.0,Stimuli/Blank.png,0,0.0,0.0,0,149,149,149,,,,,,,,,,,,,340.76647149999917,0.01647149999917019,None,367.3479070000003,367.3479070000003,367.3479070000003,367.3479070000003,367.3479070000003,367.3479070000003,367.3479070000003,367.3479070000003,367.3479070000003,367.3479070000003,,005,P021,2025_May_08_1211,ConditionRich,2021.2.3,59.9419761672711,
344.0,344.75,13,0.75,Stimuli/P009/sun_bjimvgwadfodioes.jpg,0,0.0,0.0,0,150,150,150,,,,,,,,,,,,,344.00219429999925,0.002194299999246141,None,370.6007795000005,370.6007795000005,370.6007795000005,370.6007795000005,370.6007795000005,370.6007795000005,370.6007795000005,370.6007795000005,370.6007795000005,370.6007795000005,,005,P021,2025_May_08_1211,ConditionRich,2021.2.3,59.9419761672711,
344.75,348.0,41,0.0,Stimuli/Blank.png,0,0.0,0.0,0,151,151,151,,,,,,,,,,,,,344.76932450000004,0.019324500000038825,None,371.3514425000003,371.3514425000003,371.3514425000003,371.3514425000003,371.3514425000003,371.3514425000003,371.3514425000003,371.3514425000003,371.3514425000003,371.3514425000003,,005,P021,2025_May_08_1211,ConditionRich,2021.2.3,59.9419761672711,
348.0,348.75,12,0.75,Stimuli/P009/sun_birmwgkdtrlevcaf.jpg,0,0.0,0.0,0,152,152,152,,,,,,,,,,,,,348.00655279999955,0.006552799999553827,None,374.58763890000046,374.58763890000046,374.58763890000046,374.58763890000046,374.58763890000046,374.58763890000046,374.58763890000046,374.58763890000046,374.58763890000046,374.58763890000046,,005,P021,2025_May_08_1211,ConditionRich,2021.2.3,59.9419761672711,
348.75,352.0,41,0.0,Stimuli/Blank.png,0,0.0,0.0,0,153,153,153,,,,,,,,,,,,,348.75633149999976,0.006331499999760126,None,375.3383010000007,375.3383010000007,375.3383010000007,375.3383010000007,375.3383010000007,375.3383010000007,375.3383010000007,375.3383010000007,375.3383010000007,375.3383010000007,,005,P021,2025_May_08_1211,ConditionRich,2021.2.3,59.9419761672711,
352.0,352.75,22,0.75,Stimuli/P009/things_butterfly_05s.jpg,0,0.0,0.0,0,154,154,154,,,,,,,,,,,,,352.00913479999963,0.00913479999962874,None,378.5911643999998,378.5911643999998,378.5911643999998,378.5911643999998,378.5911643999998,378.5911643999998,378.5911643999998,378.5911643999998,378.5911643999998,378.5911643999998,,005,P021,2025_May_08_1211,ConditionRich,2021.2.3,59.9419761672711,
352.75,356.0,41,0.0,Stimuli/Blank.png,0,0.0,0.0,0,155,155,155,,,,,,,,,,,,,352.7605313999993,0.010531399999308633,None,379.3418365000007,379.3418365000007,379.3418365000007,379.3418365000007,379.3418365000007,379.3418365000007,379.3418365000007,379.3418365000007,379.3418365000007,379.3418365000007,,005,P021,2025_May_08_1211,ConditionRich,2021.2.3,59.9419761672711,
356.0,356.75,10,0.75,Stimuli/P009/sun_bdkttewvyfdarikm.jpg,0,0.0,0.0,0,156,156,156,,,,,,,,,,,,,356.01411729999927,0.014117299999270472,None,382.61143150000044,382.61143150000044,382.61143150000044,382.61143150000044,382.61143150000044,382.61143150000044,382.61143150000044,382.61143150000044,382.61143150000044,382.61143150000044,,005,P021,2025_May_08_1211,ConditionRich,2021.2.3,59.9419761672711,
356.75,360.0,41,0.0,Stimuli/Blank.png,1,2.25,3.0,0,157,157,157,,,,,,,,,,,,,356.7812703999998,0.03127039999981207,1,383.3787708,383.3787708,383.3787708,383.3787708,383.3787708,383.3787708,385.59735510000064,386.3480153999999,383.3787708,383.3787708,2.6814165999994657,005,P021,2025_May_08_1211,ConditionRich,2021.2.3,59.9419761672711,
360.0,360.75,38,0.75,Stimuli/P009/things_roadsweeper_05s.jpg,0,0.0,0.0,0,158,158,158,,,,,,,,,,,,,360.01621669999986,0.016216699999858974,None,386.5982414,386.5982414,386.5982414,386.5982414,386.5982414,386.5982414,386.5982414,386.5982414,386.5982414,386.5982414,,005,P021,2025_May_08_1211,ConditionRich,2021.2.3,59.9419761672711,
360.75,364.0,41,0.0,Stimuli/Blank.png,1,2.25,3.0,0,159,159,159,,,,,,,,,,,,,360.7508758999993,0.0008758999993006,1,387.33222939999996,387.33222939999996,387.33222939999996,387.33222939999996,387.33222939999996,387.33222939999996,389.5675946000001,390.31828570000016,387.33222939999996,387.33222939999996,2.711819299999661,005,P021,2025_May_08_1211,ConditionRich,2021.2.3,59.9419761672711,
364.0,364.75,20,0.75,Stimuli/P009/sun_ddsiwinthvyejghq.jpg,0,0.0,0.0,0,160,160,160,,,,,,,,,,,,,364.0066333999994,0.006633399999373069,None,390.6018174000001,390.6018174000001,390.6018174000001,390.6018174000001,390.6018174000001,390.6018174000001,390.6018174000001,390.6018174000001,390.6018174000001,390.6018174000001,,005,P021,2025_May_08_1211,ConditionRich,2021.2.3,59.9419761672711,
364.75,368.0,41,0.0,Stimuli/Blank.png,0,0.0,0.0,0,161,161,161,,,,,,,,,,,,,364.77028699999937,0.02028699999937089,None,391.35244409999996,391.35244409999996,391.35244409999996,391.35244409999996,391.35244409999996,391.35244409999996,391.35244409999996,391.35244409999996,391.35244409999996,391.35244409999996,,005,P021,2025_May_08_1211,ConditionRich,2021.2.3,59.9419761672711,
368.0,368.75,23,0.75,Stimuli/P009/things_charger_05s.jpg,0,0.0,0.0,0,162,162,162,,,,,,,,,,,,,368.00667259999955,0.0066725999995469465,None,394.58861119999983,394.58861119999983,394.58861119999983,394.58861119999983,394.58861119999983,394.58861119999983,394.58861119999983,394.58861119999983,394.58861119999983,394.58861119999983,,005,P021,2025_May_08_1211,ConditionRich,2021.2.3,59.9419761672711,
368.75,372.0,41,0.0,Stimuli/Blank.png,0,0.0,0.0,0,163,163,163,,,,,,,,,,,,,368.76004809999995,0.010048099999949045,None,395.35595920000014,395.35595920000014,395.35595920000014,395.35595920000014,395.35595920000014,395.35595920000014,395.35595920000014,395.35595920000014,395.35595920000014,395.35595920000014,,005,P021,2025_May_08_1211,ConditionRich,2021.2.3,59.9419761672711,
372.0,388.0,0,0.0,Stimuli/Blank.png,1,6.0,6.75,0,164,164,164,,,,,,,,,,,,,372.0267774999993,0.026777499999298016,1,398.6088602,398.6088602,398.6088602,398.6088602,398.6088602,398.6088602,404.59755140000016,405.3481356000002,398.6088602,398.6088602,6.309274199999891,005,P021,2025_May_08_1211,ConditionRich,2021.2.3,59.9419761672711,
